thisN,thisTrialN,thisRepN,effect,order,distance,config,diag,h_1,w_1,h_2,w_2,h_3,w_3,rect_choice.keys,rect_choice.rt,rect_choice.duration,instructions_loop.thisRepN,instructions_loop.thisTrialN,instructions_loop.thisN,instructions_loop.thisIndex,blocks.thisRepN,blocks.thisTrialN,blocks.thisN,blocks.thisIndex,trials.thisRepN,trials.thisTrialN,trials.thisN,trials.thisIndex,thisRow.t,notes,consent.started,agree_button.started,decline_button.started,consent_img.started,mouse.started,consent.stopped,agree_button.numClicks,agree_button.timesOn,agree_button.timesOff,decline_button.numClicks,decline_button.timesOn,decline_button.timesOff,mouse.x,mouse.y,mouse.leftButton,mouse.midButton,mouse.rightButton,mouse.time,mouse.clicked_name,exp_params.started,exp_params.stopped,welcome.started,welcome_text.started,welcome.stopped,instructions_1.started,instructions_1_text_1.started,instructions_1_text_2.started,key_resp.started,instructions_1.stopped,instructions_loop.key_resp.keys,instructions_loop.key_resp.rt,instructions_loop.key_resp.duration,instructions_2.started,instructions_2_text_1.started,instructions_2_text_2.started,key_resp_2.started,instructions_2.stopped,instructions_loop.key_resp_2.keys,instructions_loop.key_resp_2.rt,instructions_loop.key_resp_2.duration,instructions_3.started,instructions_3_text_1.started,r1_instr3.started,r2_instr3.started,r3_instr3.started,r1_instr3_label.started,r2_instr3_label.started,r3_instr3_label.started,instructions_3_text_3.started,instructions_3_text_4.started,key_resp_3.started,instructions_3.stopped,instructions_loop.key_resp_3.keys,instructions_loop.key_resp_3.rt,instructions_loop.key_resp_3.duration,instructions_4.started,instructions_4_text_1.started,instructions_4_text_3.started,instructions_4_text_2.started,key_resp_4.started,instructions_4.stopped,instructions_loop.key_resp_4.keys,instructions_loop.key_resp_4.rt,instructions_loop.key_resp_4.duration,instructions_5.started,instructions_5_text_1.started,instructions_5_text_2.started,key_resp_5.started,instructions_5.stopped,instructions_loop.key_resp_5.keys,instructions_loop.key_resp_5.rt,instructions_loop.key_resp_5.duration,start_exp.started,start_exp_text.started,key_resp_6.started,start_exp.stopped,key_resp_6.keys,key_resp_6.rt,key_resp_6.duration,h_1_tmp,w_1_tmp,h_2_tmp,w_2_tmp,h_3_tmp,w_3_tmp,config_tmp,config_tmp_1,r_1_x,r_1_y,r_2_x,r_2_y,r_3_x,r_3_y,pre_trial.started,pre_trial.stopped,choice_trial.started,rect_choice.started,r_1.started,r_2.started,r_3.started,r_1_label.started,r_2_label.started,r_3_label.started,prompt.started,choice_trial.stopped,trials.rect_choice.keys,trials.rect_choice.rt,trials.rect_choice.duration,end_block.started,end_block_text.started,end_block.stopped,end.started,end_text.started,key_resp_7.started,end.stopped,key_resp_7.keys,key_resp_7.rt,key_resp_7.duration,debriefing.started,debrief_form.started,end_debrief.started,debriefing.stopped,end_debrief.keys,end_debrief.rt,end_debrief.duration,participant,computer,date,expName,psychopyVersion,frameRate,expStart,
,,,,,,,,,,,,,,,,,,,,,,,,,,,,,,,0.015752792358398438,0.042670249938964844,0.042670249938964844,0.042670249938964844,0.015363931655883789,41.11073279380798,1,[41.06682848930359],[41.06683874130249],0,,,[-80.0],[-510.0],[1],[0],[0],[41.09403586387634],['agree_button'],,,,,,,,,,,,,,,,,,,,,,,,,,,,,,,,,,,,,,,,,,,,,,,,,,,,,,,,,,,,,,,,,,,,,,,,,,,,,,,,,,,,,,,,,,,,,,,,,,,,,,,,,,,194,3,2025-03-05_12h01.26.556,comp,2024.2.4,60.06148911339114,2025-03-05 12h01.37.068396 -0500,
,,,,,,,,,,,,,,,,,,,,,,,,,,,,,,,,,,,,,,,,,,,,,,,,,,41.11100721359253,41.11104130744934,,,,,,,,,,,,,,,,,,,,,,,,,,,,,,,,,,,,,,,,,,,,,,,,,,,,,,,,,,,,,,,,,,,,,,,,,,,,,,,,,,,,,,,,,,,,,,,,,,,,,,,,,194,3,2025-03-05_12h01.26.556,comp,2024.2.4,60.06148911339114,2025-03-05 12h01.37.068396 -0500,
,,,,,,,,,,,,,,,,,,,,,,,,,,,,,,,,,,,,,,,,,,,,,,,,,,,,41.111063957214355,41.12461757659912,43.11370134353638,,,,,,,,,,,,,,,,,,,,,,,,,,,,,,,,,,,,,,,,,,,,,,,,,,,,,,,,,,,,,,,,,,,,,,,,,,,,,,,,,,,,,,,,,,,,,,,,,,,,,,194,3,2025-03-05_12h01.26.556,comp,2024.2.4,60.06148911339114,2025-03-05 12h01.37.068396 -0500,
0,0,0,,,,,,,,,,,,,,,0,0,0,0,,,,,,,,,43.13043546676636,,,,,,,,,,,,,,,,,,,,,,,,,,43.114274978637695,43.13043546676636,43.13043546676636,44.61360263824463,46.7152304649353,space,2.081972599029541,None,46.71531128883362,46.73061227798462,46.73061227798462,48.23040056228638,54.46662211418152,space,6.23442006111145,None,54.46670603752136,54.49803876876831,54.49803876876831,54.49803876876831,54.49803876876831,54.49803876876831,54.49803876876831,54.49803876876831,54.49803876876831,54.49803876876831,55.980700731277466,60.44889974594116,space,4.466814279556274,None,60.44901180267334,60.46423006057739,60.46423006057739,60.46423006057739,61.963839530944824,68.3479208946228,space,6.377533197402954,None,68.34802150726318,68.36381888389587,68.36381888389587,69.86364889144897,71.56454420089722,space,1.6850244998931885,None,71.56465578079224,71.58017683029175,71.58017683029175,72.66467142105103,space,1.083033561706543,None,,,,,,,,,,,,,,,,,,,,,,,,,,,,,,,,,,,,,,,,,,,,,,,194,3,2025-03-05_12h01.26.556,comp,2024.2.4,60.06148911339114,2025-03-05 12h01.37.068396 -0500,
0,0,0,filler_random,None,None,None,None,None,None,None,None,None,None,1,2.2608728408813477,None,,,,,0,0,0,0,0,0,0,140,72.7285988330841,,,,,,,,,,,,,,,,,,,,,,,,,,,,,,,,,,,,,,,,,,,,,,,,,,,,,,,,,,,,,,,,,,,,,,,,,,,,,,,,,181.9790300066917,198.50814165094005,132.2426063137013,71.39795839880232,152.850373289662,63.631468237525645,2.1,2.12,-231,-262,0,-250,164,281,72.71523857116699,72.71528577804565,72.71732831001282,72.7285988330841,72.8866331577301,72.8866331577301,72.8866331577301,72.8866331577301,72.8866331577301,72.8866331577301,72.8866331577301,74.9981849193573,1,2.2608728408813477,None,,,,,,,,,,,,,,,,,,194,3,2025-03-05_12h01.26.556,comp,2024.2.4,60.06148911339114,2025-03-05 12h01.37.068396 -0500,
1,1,0,critical,hdw,20.0,1.0,lower,133.0,57.0,78.0,78.0,57.0,133.0,3,3.5350122451782227,None,,,,,0,0,0,0,0,1,1,114,75.01369571685791,,,,,,,,,,,,,,,,,,,,,,,,,,,,,,,,,,,,,,,,,,,,,,,,,,,,,,,,,,,,,,,,,,,,,,,,,,,,,,,,,133.0,57.0,78.0,78.0,57.0,133.0,1.0,1.3,316,-271,480,-287,682,-275,74.99899005889893,74.99902939796448,75.00112295150757,75.01369571685791,75.16349482536316,75.16349482536316,75.16349482536316,75.16349482536316,75.16349482536316,75.16349482536316,75.16349482536316,78.56463384628296,3,3.5350122451782227,None,,,,,,,,,,,,,,,,,,194,3,2025-03-05_12h01.26.556,comp,2024.2.4,60.06148911339114,2025-03-05 12h01.37.068396 -0500,
2,2,0,filler_random,None,None,None,None,None,None,None,None,None,None,1,1.4176077842712402,None,,,,,0,0,0,0,0,2,2,142,78.58007407188416,,,,,,,,,,,,,,,,,,,,,,,,,,,,,,,,,,,,,,,,,,,,,,,,,,,,,,,,,,,,,,,,,,,,,,,,,,,,,,,,,130.02292079142276,190.4221234792157,163.08273122132778,166.4415031339973,111.83096749340521,93.05456220193165,3.0,3.2,-274,-278,0,14,226,289,78.56556725502014,78.56560707092285,78.5681746006012,78.58007407188416,78.73044204711914,78.73044204711914,78.73044204711914,78.73044204711914,78.73044204711914,78.73044204711914,78.73044204711914,80.01487517356873,1,1.4176077842712402,None,,,,,,,,,,,,,,,,,,194,3,2025-03-05_12h01.26.556,comp,2024.2.4,60.06148911339114,2025-03-05 12h01.37.068396 -0500,
3,3,0,critical,hdw,35.0,3.0,upper,200.0,125.0,127.0,127.0,125.0,200.0,3,2.6004130840301514,None,,,,,0,0,0,0,0,3,3,111,80.03012371063232,,,,,,,,,,,,,,,,,,,,,,,,,,,,,,,,,,,,,,,,,,,,,,,,,,,,,,,,,,,,,,,,,,,,,,,,,,,,,,,,,200.0,125.0,127.0,127.0,125.0,200.0,3.0,3.1,-222,265,0,9,260,-273,80.01568293571472,80.01572394371033,80.01786851882935,80.03012371063232,80.18032908439636,80.18032908439636,80.18032908439636,80.18032908439636,80.18032908439636,80.18032908439636,80.18032908439636,82.63168954849243,3,2.6004130840301514,None,,,,,,,,,,,,,,,,,,194,3,2025-03-05_12h01.26.556,comp,2024.2.4,60.06148911339114,2025-03-05 12h01.37.068396 -0500,
4,4,0,critical,wdh,35.0,3.0,upper,125.0,200.0,127.0,127.0,200.0,125.0,1,1.647613763809204,None,,,,,0,0,0,0,0,4,4,75,82.64701223373413,,,,,,,,,,,,,,,,,,,,,,,,,,,,,,,,,,,,,,,,,,,,,,,,,,,,,,,,,,,,,,,,,,,,,,,,,,,,,,,,,125.0,200.0,127.0,127.0,200.0,125.0,3.0,3.1,-260,260,0,-11,222,-287,82.6324815750122,82.63252210617065,82.63465118408203,82.64701223373413,82.79707908630371,82.79707908630371,82.79707908630371,82.79707908630371,82.79707908630371,82.79707908630371,82.79707908630371,84.29826951026917,1,1.647613763809204,None,,,,,,,,,,,,,,,,,,194,3,2025-03-05_12h01.26.556,comp,2024.2.4,60.06148911339114,2025-03-05 12h01.37.068396 -0500,
5,5,0,critical,whd,20.0,2.1,upper,125.0,200.0,200.0,125.0,141.0,141.0,1,1.381160020828247,None,,,,,0,0,0,0,0,5,5,15,84.3136076927185,,,,,,,,,,,,,,,,,,,,,,,,,,,,,,,,,,,,,,,,,,,,,,,,,,,,,,,,,,,,,,,,,,,,,,,,,,,,,,,,,125.0,200.0,200.0,125.0,141.0,141.0,2.1,2.11,-258,252,0,263,229,-254,84.29908609390259,84.29912829399109,84.30128002166748,84.3136076927185,84.46376442909241,84.46376442909241,84.46376442909241,84.46376442909241,84.46376442909241,84.46376442909241,84.46376442909241,85.69827818870544,1,1.381160020828247,None,,,,,,,,,,,,,,,,,,194,3,2025-03-05_12h01.26.556,comp,2024.2.4,60.06148911339114,2025-03-05 12h01.37.068396 -0500,
6,6,0,critical,dhw,35.0,4.0,upper,127.0,127.0,200.0,125.0,125.0,200.0,3,1.2186591625213623,None,,,,,0,0,0,0,0,6,6,53,85.71374011039734,,,,,,,,,,,,,,,,,,,,,,,,,,,,,,,,,,,,,,,,,,,,,,,,,,,,,,,,,,,,,,,,,,,,,,,,,,,,,,,,,127.0,127.0,200.0,125.0,125.0,200.0,4.0,4.2,-222,15,0,-275,258,12,85.69909572601318,85.69913625717163,85.7012631893158,85.71374011039734,85.86370348930359,85.86370348930359,85.86370348930359,85.86370348930359,85.86370348930359,85.86370348930359,85.86370348930359,86.94809746742249,3,1.2186591625213623,None,,,,,,,,,,,,,,,,,,194,3,2025-03-05_12h01.26.556,comp,2024.2.4,60.06148911339114,2025-03-05 12h01.37.068396 -0500,
7,7,0,critical,wdh,35.0,4.0,upper,125.0,200.0,127.0,127.0,200.0,125.0,1,1.2008466720581055,None,,,,,0,0,0,0,0,7,7,77,86.96357202529907,,,,,,,,,,,,,,,,,,,,,,,,,,,,,,,,,,,,,,,,,,,,,,,,,,,,,,,,,,,,,,,,,,,,,,,,,,,,,,,,,125.0,200.0,127.0,127.0,200.0,125.0,4.0,4.2,-260,-6,0,-262,222,7,86.94887709617615,86.94891834259033,86.95109868049622,86.96357202529907,87.11389636993408,87.11389636993408,87.11389636993408,87.11389636993408,87.11389636993408,87.11389636993408,87.11389636993408,88.18134236335754,1,1.2008466720581055,None,,,,,,,,,,,,,,,,,,194,3,2025-03-05_12h01.26.556,comp,2024.2.4,60.06148911339114,2025-03-05 12h01.37.068396 -0500,
8,8,0,critical,hdw,35.0,2.1,lower,133.0,57.0,70.0,70.0,57.0,133.0,1,2.1677680015563965,None,,,,,0,0,0,0,0,8,8,44,88.19664263725281,,,,,,,,,,,,,,,,,,,,,,,,,,,,,,,,,,,,,,,,,,,,,,,,,,,,,,,,,,,,,,,,,,,,,,,,,,,,,,,,,133.0,57.0,70.0,70.0,57.0,133.0,2.1,2.11,-160,278,0,257,198,-261,88.18214130401611,88.18218159675598,88.18464660644531,88.19664263725281,88.34672379493713,88.34672379493713,88.34672379493713,88.34672379493713,88.34672379493713,88.34672379493713,88.34672379493713,90.38122272491455,1,2.1677680015563965,None,,,,,,,,,,,,,,,,,,194,3,2025-03-05_12h01.26.556,comp,2024.2.4,60.06148911339114,2025-03-05 12h01.37.068396 -0500,
9,9,0,critical,dhw,20.0,2.1,upper,141.0,141.0,200.0,125.0,125.0,200.0,3,1.13572096824646,None,,,,,0,0,0,0,0,9,9,3,90.39671325683594,,,,,,,,,,,,,,,,,,,,,,,,,,,,,,,,,,,,,,,,,,,,,,,,,,,,,,,,,,,,,,,,,,,,,,,,,,,,,,,,,141.0,141.0,200.0,125.0,125.0,200.0,2.1,2.12,-229,-250,0,-280,258,275,90.38204288482666,90.38208174705505,90.38455200195312,90.39671325683594,90.5470564365387,90.5470564365387,90.5470564365387,90.5470564365387,90.5470564365387,90.5470564365387,90.5470564365387,91.548091173172,3,1.13572096824646,None,,,,,,,,,,,,,,,,,,194,3,2025-03-05_12h01.26.556,comp,2024.2.4,60.06148911339114,2025-03-05 12h01.37.068396 -0500,
10,10,0,filler_random,None,None,None,None,None,None,None,None,None,None,1,1.0834789276123047,None,,,,,0,0,0,0,0,10,10,147,91.56347346305847,,,,,,,,,,,,,,,,,,,,,,,,,,,,,,,,,,,,,,,,,,,,,,,,,,,,,,,,,,,,,,,,,,,,,,,,,,,,,,,,,101.48887418815212,186.11777138324263,95.54422378919335,68.26744589322385,65.56398916115396,152.67215152812418,3.0,3.1,-223,271,0,9,206,-286,91.54897117614746,91.54901170730591,91.55114483833313,91.56347346305847,91.71367955207825,91.71367955207825,91.71367955207825,91.71367955207825,91.71367955207825,91.71367955207825,91.71367955207825,92.6482515335083,1,1.0834789276123047,None,,,,,,,,,,,,,,,,,,194,3,2025-03-05_12h01.26.556,comp,2024.2.4,60.06148911339114,2025-03-05 12h01.37.068396 -0500,
11,11,0,critical,hdw,20.0,2.1,upper,200.0,125.0,141.0,141.0,125.0,200.0,3,1.5586450099945068,None,,,,,0,0,0,0,0,11,11,47,92.66353678703308,,,,,,,,,,,,,,,,,,,,,,,,,,,,,,,,,,,,,,,,,,,,,,,,,,,,,,,,,,,,,,,,,,,,,,,,,,,,,,,,,200.0,125.0,141.0,141.0,125.0,200.0,2.1,2.12,-229,-278,0,-286,266,289,92.64904236793518,92.64908337593079,92.65123438835144,92.66353678703308,92.81361246109009,92.81361246109009,92.81361246109009,92.81361246109009,92.81361246109009,92.81361246109009,92.81361246109009,94.23143887519836,3,1.5586450099945068,None,,,,,,,,,,,,,,,,,,194,3,2025-03-05_12h01.26.556,comp,2024.2.4,60.06148911339114,2025-03-05 12h01.37.068396 -0500,
12,12,0,filler_square,None,None,None,None,None,None,None,None,None,None,3,1.278339147567749,None,,,,,0,0,0,0,0,12,12,185,94.2469310760498,,,,,,,,,,,,,,,,,,,,,,,,,,,,,,,,,,,,,,,,,,,,,,,,,,,,,,,,,,,,,,,,,,,,,,,,,,,,,,,,,146.93954862946742,146.227285617691,111.54885280116264,101.39367848131532,168.05850981574167,168.05850981574167,2.1,2.12,-220,-290,0,-258,231,254,94.23240447044373,94.23244452476501,94.23496890068054,94.2469310760498,94.39715194702148,94.39715194702148,94.39715194702148,94.39715194702148,94.39715194702148,94.39715194702148,94.39715194702148,95.53147459030151,3,1.278339147567749,None,,,,,,,,,,,,,,,,,,194,3,2025-03-05_12h01.26.556,comp,2024.2.4,60.06148911339114,2025-03-05 12h01.37.068396 -0500,
13,13,0,filler_square,None,None,None,None,None,None,None,None,None,None,3,0.9213201999664307,None,,,,,0,0,0,0,0,13,13,181,95.5469102859497,,,,,,,,,,,,,,,,,,,,,,,,,,,,,,,,,,,,,,,,,,,,,,,,,,,,,,,,,,,,,,,,,,,,,,,,,,,,,,,,,99.37208376687894,141.88230423818453,104.62520811976796,65.59677518473285,188.85205992887524,188.85205992887524,2.2,2.22,-200,285,0,-277,223,-259,95.53246450424194,95.53250765800476,95.53508853912354,95.5469102859497,95.69686007499695,95.69686007499695,95.69686007499695,95.69686007499695,95.69686007499695,95.69686007499695,95.69686007499695,96.48135495185852,3,0.9213201999664307,None,,,,,,,,,,,,,,,,,,194,3,2025-03-05_12h01.26.556,comp,2024.2.4,60.06148911339114,2025-03-05 12h01.37.068396 -0500,
14,14,0,critical,wdh,20.0,1.0,lower,57.0,133.0,78.0,78.0,133.0,57.0,1,1.8448457717895508,None,,,,,0,0,0,0,0,14,14,78,96.49658751487732,,,,,,,,,,,,,,,,,,,,,,,,,,,,,,,,,,,,,,,,,,,,,,,,,,,,,,,,,,,,,,,,,,,,,,,,,,,,,,,,,57.0,133.0,78.0,78.0,133.0,57.0,1.0,1.1,-682,288,-480,283,-316,259,96.48214292526245,96.48218321800232,96.48464727401733,96.49658751487732,96.64677143096924,96.64677143096924,96.64677143096924,96.64677143096924,96.64677143096924,96.64677143096924,96.64677143096924,98.3477897644043,1,1.8448457717895508,None,,,,,,,,,,,,,,,,,,194,3,2025-03-05_12h01.26.556,comp,2024.2.4,60.06148911339114,2025-03-05 12h01.37.068396 -0500,
15,15,0,critical,hwd,35.0,2.1,lower,133.0,57.0,57.0,133.0,70.0,70.0,1,1.2579951286315918,None,,,,,0,0,0,0,0,15,15,16,98.36352849006653,,,,,,,,,,,,,,,,,,,,,,,,,,,,,,,,,,,,,,,,,,,,,,,,,,,,,,,,,,,,,,,,,,,,,,,,,,,,,,,,,133.0,57.0,57.0,133.0,70.0,70.0,2.1,2.11,-191,264,0,273,198,-271,98.34859681129456,98.34863924980164,98.35119295120239,98.36352849006653,98.51343441009521,98.51343441009521,98.51343441009521,98.51343441009521,98.51343441009521,98.51343441009521,98.51343441009521,99.63108825683594,1,1.2579951286315918,None,,,,,,,,,,,,,,,,,,194,3,2025-03-05_12h01.26.556,comp,2024.2.4,60.06148911339114,2025-03-05 12h01.37.068396 -0500,
16,16,0,filler_random,None,None,None,None,None,None,None,None,None,None,2,1.0211505889892578,None,,,,,0,0,0,0,0,16,16,155,99.64708590507507,,,,,,,,,,,,,,,,,,,,,,,,,,,,,,,,,,,,,,,,,,,,,,,,,,,,,,,,,,,,,,,,,,,,,,,,,,,,,,,,,61.572937199402766,115.65113788590406,164.83091023581602,176.78021219063623,103.24708010851566,109.86026356526926,1.0,1.1,-722,284,-480,263,-241,261,99.6320276260376,99.63207006454468,99.63531160354614,99.64708590507507,99.79711484909058,99.79711484909058,99.79711484909058,99.79711484909058,99.79711484909058,99.79711484909058,99.79711484909058,100.68122744560242,2,1.0211505889892578,None,,,,,,,,,,,,,,,,,,194,3,2025-03-05_12h01.26.556,comp,2024.2.4,60.06148911339114,2025-03-05 12h01.37.068396 -0500,
17,17,0,critical,dhw,20.0,2.1,lower,78.0,78.0,133.0,57.0,57.0,133.0,2,2.317021369934082,None,,,,,0,0,0,0,0,17,17,26,100.69657564163208,,,,,,,,,,,,,,,,,,,,,,,,,,,,,,,,,,,,,,,,,,,,,,,,,,,,,,,,,,,,,,,,,,,,,,,,,,,,,,,,,78.0,78.0,133.0,57.0,57.0,133.0,2.1,2.12,-164,-261,0,-273,191,285,100.68204259872437,100.68208241462708,100.68453693389893,100.69657564163208,100.84706735610962,100.84706735610962,100.84706735610962,100.84706735610962,100.84706735610962,100.84706735610962,100.84706735610962,103.01480865478516,2,2.317021369934082,None,,,,,,,,,,,,,,,,,,194,3,2025-03-05_12h01.26.556,comp,2024.2.4,60.06148911339114,2025-03-05 12h01.37.068396 -0500,
18,18,0,critical,wdh,35.0,2.1,upper,125.0,200.0,127.0,127.0,200.0,125.0,1,1.2166175842285156,None,,,,,0,0,0,0,0,18,18,9,103.03013944625854,,,,,,,,,,,,,,,,,,,,,,,,,,,,,,,,,,,,,,,,,,,,,,,,,,,,,,,,,,,,,,,,,,,,,,,,,,,,,,,,,125.0,200.0,127.0,127.0,200.0,125.0,2.1,2.12,-260,-262,0,-288,222,280,103.01561617851257,103.01565718650818,103.01784348487854,103.03013944625854,103.18019652366638,103.18019652366638,103.18019652366638,103.18019652366638,103.18019652366638,103.18019652366638,103.18019652366638,104.2481517791748,1,1.2166175842285156,None,,,,,,,,,,,,,,,,,,194,3,2025-03-05_12h01.26.556,comp,2024.2.4,60.06148911339114,2025-03-05 12h01.37.068396 -0500,
19,19,0,critical,dwh,35.0,2.1,upper,127.0,127.0,125.0,200.0,200.0,125.0,2,1.2306277751922607,None,,,,,0,0,0,0,0,19,19,29,104.26350116729736,,,,,,,,,,,,,,,,,,,,,,,,,,,,,,,,,,,,,,,,,,,,,,,,,,,,,,,,,,,,,,,,,,,,,,,,,,,,,,,,,127.0,127.0,125.0,200.0,200.0,125.0,2.1,2.12,-260,-265,0,-278,258,257,104.24896740913391,104.24901008605957,104.25122284889221,104.26350116729736,104.41378259658813,104.41378259658813,104.41378259658813,104.41378259658813,104.41378259658813,104.41378259658813,104.41378259658813,105.49806809425354,2,1.2306277751922607,None,,,,,,,,,,,,,,,,,,194,3,2025-03-05_12h01.26.556,comp,2024.2.4,60.06148911339114,2025-03-05 12h01.37.068396 -0500,
20,20,0,critical,dwh,20.0,2.1,upper,141.0,141.0,125.0,200.0,200.0,125.0,2,1.2505571842193604,None,,,,,0,0,0,0,0,20,20,7,105.51370072364807,,,,,,,,,,,,,,,,,,,,,,,,,,,,,,,,,,,,,,,,,,,,,,,,,,,,,,,,,,,,,,,,,,,,,,,,,,,,,,,,,141.0,141.0,125.0,200.0,200.0,125.0,2.1,2.11,-266,263,0,254,258,-274,105.49896216392517,105.49900269508362,105.50121474266052,105.51370072364807,105.66364789009094,105.66364789009094,105.66364789009094,105.66364789009094,105.66364789009094,105.66364789009094,105.66364789009094,106.78125166893005,2,1.2505571842193604,None,,,,,,,,,,,,,,,,,,194,3,2025-03-05_12h01.26.556,comp,2024.2.4,60.06148911339114,2025-03-05 12h01.37.068396 -0500,
21,21,0,filler_square,None,None,None,None,None,None,None,None,None,None,1,2.016874074935913,None,,,,,0,0,0,0,0,21,21,192,106.79665851593018,,,,,,,,,,,,,,,,,,,,,,,,,,,,,,,,,,,,,,,,,,,,,,,,,,,,,,,,,,,,,,,,,,,,,,,,,,,,,,,,,90.19957707914824,90.19957707914824,87.08528106468007,79.96823322424105,69.14197147991301,82.970492356329,4.0,4.1,-181,-269,0,-17,177,-251,106.78220891952515,106.78224992752075,106.78465414047241,106.79665851593018,106.94672751426697,106.94672751426697,106.94672751426697,106.94672751426697,106.94672751426697,106.94672751426697,106.94672751426697,108.83114290237427,1,2.016874074935913,None,,,,,,,,,,,,,,,,,,194,3,2025-03-05_12h01.26.556,comp,2024.2.4,60.06148911339114,2025-03-05 12h01.37.068396 -0500,
22,22,0,filler_square,None,None,None,None,None,None,None,None,None,None,2,9.734079122543335,None,,,,,0,0,0,0,0,22,22,179,108.84655714035034,,,,,,,,,,,,,,,,,,,,,,,,,,,,,,,,,,,,,,,,,,,,,,,,,,,,,,,,,,,,,,,,,,,,,,,,,,,,,,,,,78.98411568442859,71.08671398502223,95.81715397521265,95.81715397521265,84.23705222283776,79.69351039951319,2.2,2.22,-179,264,0,-251,184,-251,108.83214163780212,108.83218359947205,108.83461666107178,108.84655714035034,108.99697184562683,108.99697184562683,108.99697184562683,108.99697184562683,108.99697184562683,108.99697184562683,108.99697184562683,118.59773683547974,2,9.734079122543335,None,,,,,,,,,,,,,,,,,,194,3,2025-03-05_12h01.26.556,comp,2024.2.4,60.06148911339114,2025-03-05 12h01.37.068396 -0500,
23,23,0,critical,whd,35.0,1.0,upper,125.0,200.0,200.0,125.0,127.0,127.0,1,0.8655111789703369,None,,,,,0,0,0,0,0,23,23,85,118.61317944526672,,,,,,,,,,,,,,,,,,,,,,,,,,,,,,,,,,,,,,,,,,,,,,,,,,,,,,,,,,,,,,,,,,,,,,,,,,,,,,,,,125.0,200.0,200.0,125.0,127.0,127.0,1.0,1.2,-258,18,0,6,222,-9,118.59854459762573,118.59858679771423,118.60120368003845,118.61317944526672,118.76348304748535,118.76348304748535,118.76348304748535,118.76348304748535,118.76348304748535,118.76348304748535,118.76348304748535,119.48145723342896,1,0.8655111789703369,None,,,,,,,,,,,,,,,,,,194,3,2025-03-05_12h01.26.556,comp,2024.2.4,60.06148911339114,2025-03-05 12h01.37.068396 -0500,
24,24,0,catch,None,None,None,None,None,None,None,None,None,None,3,0.844313383102417,None,,,,,0,0,0,0,0,24,24,128,119.49665451049805,,,,,,,,,,,,,,,,,,,,,,,,,,,,,,,,,,,,,,,,,,,,,,,,,,,,,,,,,,,,,,,,,,,,,,,,,,,,,,,,,99,91,89,101,158,167,3.0,3.1,-192,277,0,16,230,-260,119.48251295089722,119.48255348205566,119.48472452163696,119.49665451049805,119.64676713943481,119.64676713943481,119.64676713943481,119.64676713943481,119.64676713943481,119.64676713943481,119.64676713943481,120.34783816337585,3,0.844313383102417,None,,,,,,,,,,,,,,,,,,194,3,2025-03-05_12h01.26.556,comp,2024.2.4,60.06148911339114,2025-03-05 12h01.37.068396 -0500,
25,25,0,filler_square,None,None,None,None,None,None,None,None,None,None,1,1.104506254196167,None,,,,,0,0,0,0,0,25,25,183,120.3636577129364,,,,,,,,,,,,,,,,,,,,,,,,,,,,,,,,,,,,,,,,,,,,,,,,,,,,,,,,,,,,,,,,,,,,,,,,,,,,,,,,,77.4432864224868,77.4432864224868,69.65720480036656,60.606023008235724,71.67905311138095,61.9438243638927,1.0,1.1,-645,276,-480,276,-323,261,120.3488028049469,120.3488438129425,120.35137104988098,120.3636577129364,120.51320433616638,120.51320433616638,120.51320433616638,120.51320433616638,120.51320433616638,120.51320433616638,120.51320433616638,121.4810631275177,1,1.104506254196167,None,,,,,,,,,,,,,,,,,,194,3,2025-03-05_12h01.26.556,comp,2024.2.4,60.06148911339114,2025-03-05 12h01.37.068396 -0500,
26,26,0,critical,dwh,20.0,1.0,upper,141.0,141.0,125.0,200.0,200.0,125.0,2,6.700830698013306,None,,,,,0,0,0,0,0,26,26,67,121.49639391899109,,,,,,,,,,,,,,,,,,,,,,,,,,,,,,,,,,,,,,,,,,,,,,,,,,,,,,,,,,,,,,,,,,,,,,,,,,,,,,,,,141.0,141.0,125.0,200.0,200.0,125.0,1.0,1.2,-266,5,0,-10,258,8,121.4818286895752,121.48186922073364,121.48425793647766,121.49639391899109,121.64672589302063,121.64672589302063,121.64672589302063,121.64672589302063,121.64672589302063,121.64672589302063,121.64672589302063,128.21459579467773,2,6.700830698013306,None,,,,,,,,,,,,,,,,,,194,3,2025-03-05_12h01.26.556,comp,2024.2.4,60.06148911339114,2025-03-05 12h01.37.068396 -0500,
27,27,0,catch,None,None,None,None,None,None,None,None,None,None,3,0.9112823009490967,None,,,,,0,0,0,0,0,27,27,127,128.2296850681305,,,,,,,,,,,,,,,,,,,,,,,,,,,,,,,,,,,,,,,,,,,,,,,,,,,,,,,,,,,,,,,,,,,,,,,,,,,,,,,,,78,112,113,77,196,129,1.0,1.3,290,-274,480,-262,679,-263,128.21565008163452,128.21569323539734,128.21822357177734,128.2296850681305,128.379980802536,128.379980802536,128.379980802536,128.379980802536,128.379980802536,128.379980802536,128.379980802536,129.14779615402222,3,0.9112823009490967,None,,,,,,,,,,,,,,,,,,194,3,2025-03-05_12h01.26.556,comp,2024.2.4,60.06148911339114,2025-03-05 12h01.37.068396 -0500,
28,28,0,filler_random,None,None,None,None,None,None,None,None,None,None,2,1.2335550785064697,None,,,,,0,0,0,0,0,28,28,151,129.16342520713806,,,,,,,,,,,,,,,,,,,,,,,,,,,,,,,,,,,,,,,,,,,,,,,,,,,,,,,,,,,,,,,,,,,,,,,,,,,,,,,,,106.59537114450735,75.08086117401166,83.44843020710346,188.01828732923232,66.48914289998629,85.15992120811947,2.2,2.22,-228,285,0,-257,233,-257,129.1486964225769,129.14873838424683,129.15131211280823,129.16342520713806,129.31323647499084,129.31323647499084,129.31323647499084,129.31323647499084,129.31323647499084,129.31323647499084,129.31323647499084,130.41426610946655,2,1.2335550785064697,None,,,,,,,,,,,,,,,,,,194,3,2025-03-05_12h01.26.556,comp,2024.2.4,60.06148911339114,2025-03-05 12h01.37.068396 -0500,
29,29,0,filler_random,None,None,None,None,None,None,None,None,None,None,3,1.033095359802246,None,,,,,0,0,0,0,0,29,29,160,130.42976903915405,,,,,,,,,,,,,,,,,,,,,,,,,,,,,,,,,,,,,,,,,,,,,,,,,,,,,,,,,,,,,,,,,,,,,,,,,,,,,,,,,135.92629747704575,160.74667265070363,99.36764189450862,121.8065061693481,162.98680819114668,195.7544418330666,4.0,4.1,-237,-264,0,-5,255,-251,130.41517066955566,130.41521072387695,130.41773772239685,130.42976903915405,130.58010864257812,130.58010864257812,130.58010864257812,130.58010864257812,130.58010864257812,130.58010864257812,130.58010864257812,131.48123025894165,3,1.033095359802246,None,,,,,,,,,,,,,,,,,,194,3,2025-03-05_12h01.26.556,comp,2024.2.4,60.06148911339114,2025-03-05 12h01.37.068396 -0500,
30,30,0,critical,wdh,35.0,2.1,upper,125.0,200.0,127.0,127.0,200.0,125.0,1,0.9337406158447266,None,,,,,0,0,0,0,0,30,30,33,131.49646973609924,,,,,,,,,,,,,,,,,,,,,,,,,,,,,,,,,,,,,,,,,,,,,,,,,,,,,,,,,,,,,,,,,,,,,,,,,,,,,,,,,125.0,200.0,127.0,127.0,200.0,125.0,2.1,2.12,-260,-267,0,-282,222,261,131.48204112052917,131.48208165168762,131.48451209068298,131.49646973609924,131.64669966697693,131.64669966697693,131.64669966697693,131.64669966697693,131.64669966697693,131.64669966697693,131.64669966697693,132.4477458000183,1,0.9337406158447266,None,,,,,,,,,,,,,,,,,,194,3,2025-03-05_12h01.26.556,comp,2024.2.4,60.06148911339114,2025-03-05 12h01.37.068396 -0500,
31,31,0,critical,whd,35.0,2.1,upper,125.0,200.0,200.0,125.0,127.0,127.0,2,1.0691332817077637,None,,,,,0,0,0,0,0,31,31,37,132.463063955307,,,,,,,,,,,,,,,,,,,,,,,,,,,,,,,,,,,,,,,,,,,,,,,,,,,,,,,,,,,,,,,,,,,,,,,,,,,,,,,,,125.0,200.0,200.0,125.0,127.0,127.0,2.1,2.11,-258,287,0,277,222,-260,132.44855117797852,132.4485912322998,132.45068669319153,132.463063955307,132.61338710784912,132.61338710784912,132.61338710784912,132.61338710784912,132.61338710784912,132.61338710784912,132.61338710784912,133.54781579971313,2,1.0691332817077637,None,,,,,,,,,,,,,,,,,,194,3,2025-03-05_12h01.26.556,comp,2024.2.4,60.06148911339114,2025-03-05 12h01.37.068396 -0500,
32,32,0,filler_square,None,None,None,None,None,None,None,None,None,None,2,1.2336323261260986,None,,,,,0,0,0,0,0,32,32,202,133.563072681427,,,,,,,,,,,,,,,,,,,,,,,,,,,,,,,,,,,,,,,,,,,,,,,,,,,,,,,,,,,,,,,,,,,,,,,,,,,,,,,,,57.54093852835464,59.14609565868717,65.86948705161875,65.86948705161875,62.45695105899041,57.75301732003557,4.0,4.1,-159,-253,0,-9,158,-281,133.54878520965576,133.54882788658142,133.55144000053406,133.563072681427,133.7131471633911,133.7131471633911,133.7131471633911,133.7131471633911,133.7131471633911,133.7131471633911,133.7131471633911,134.81415605545044,2,1.2336323261260986,None,,,,,,,,,,,,,,,,,,194,3,2025-03-05_12h01.26.556,comp,2024.2.4,60.06148911339114,2025-03-05 12h01.37.068396 -0500,
33,33,0,filler_random,None,None,None,None,None,None,None,None,None,None,2,1.08656907081604,None,,,,,0,0,0,0,0,33,33,163,134.82969403266907,,,,,,,,,,,,,,,,,,,,,,,,,,,,,,,,,,,,,,,,,,,,,,,,,,,,,,,,,,,,,,,,,,,,,,,,,,,,,,,,,91.24632310090676,197.77297849306146,105.90614724053458,197.77255254510683,114.10820659294478,72.83552831643425,1.0,1.3,186,-260,480,-281,711,-277,134.8150990009308,134.8151397705078,134.81758999824524,134.82969403266907,134.97997212409973,134.97997212409973,134.97997212409973,134.97997212409973,134.97997212409973,134.97997212409973,134.97997212409973,135.93111562728882,2,1.08656907081604,None,,,,,,,,,,,,,,,,,,194,3,2025-03-05_12h01.26.556,comp,2024.2.4,60.06148911339114,2025-03-05 12h01.37.068396 -0500,
34,34,0,critical,hdw,20.0,1.0,upper,200.0,125.0,141.0,141.0,125.0,200.0,1,1.505586862564087,None,,,,,0,0,0,0,0,34,34,115,135.9463803768158,,,,,,,,,,,,,,,,,,,,,,,,,,,,,,,,,,,,,,,,,,,,,,,,,,,,,,,,,,,,,,,,,,,,,,,,,,,,,,,,,200.0,125.0,141.0,141.0,125.0,200.0,1.0,1.3,251,-274,480,-271,746,-275,135.93189811706543,135.93195271492004,135.93439245224,135.9463803768158,136.09672665596008,136.09672665596008,136.09672665596008,136.09672665596008,136.09672665596008,136.09672665596008,136.09672665596008,137.46463918685913,1,1.505586862564087,None,,,,,,,,,,,,,,,,,,194,3,2025-03-05_12h01.26.556,comp,2024.2.4,60.06148911339114,2025-03-05 12h01.37.068396 -0500,
35,35,0,catch,None,None,None,None,None,None,None,None,None,None,1,0.8302056789398193,None,,,,,0,0,0,0,0,35,35,125,137.4797637462616,,,,,,,,,,,,,,,,,,,,,,,,,,,,,,,,,,,,,,,,,,,,,,,,,,,,,,,,,,,,,,,,,,,,,,,,,,,,,,,,,155,170,83,107,116,74,1.0,1.2,-234,-18,0,8,186,14,137.4656949043274,137.46573686599731,137.4682948589325,137.4797637462616,137.62995266914368,137.62995266914368,137.62995266914368,137.62995266914368,137.62995266914368,137.62995266914368,137.62995266914368,138.3144190311432,1,0.8302056789398193,None,,,,,,,,,,,,,,,,,,194,3,2025-03-05_12h01.26.556,comp,2024.2.4,60.06148911339114,2025-03-05 12h01.37.068396 -0500,
36,36,0,critical,dhw,20.0,3.0,upper,141.0,141.0,200.0,125.0,125.0,200.0,2,1.5003211498260498,None,,,,,0,0,0,0,0,36,36,57,138.32986044883728,,,,,,,,,,,,,,,,,,,,,,,,,,,,,,,,,,,,,,,,,,,,,,,,,,,,,,,,,,,,,,,,,,,,,,,,,,,,,,,,,141.0,141.0,200.0,125.0,125.0,200.0,3.0,3.1,-229,254,0,4,258,-283,138.31522941589355,138.31527137756348,138.31776428222656,138.32986044883728,138.4800033569336,138.4800033569336,138.4800033569336,138.4800033569336,138.4800033569336,138.4800033569336,138.4800033569336,139.83132362365723,2,1.5003211498260498,None,,,,,,,,,,,,,,,,,,194,3,2025-03-05_12h01.26.556,comp,2024.2.4,60.06148911339114,2025-03-05 12h01.37.068396 -0500,
37,37,0,critical,hdw,35.0,2.1,upper,200.0,125.0,127.0,127.0,125.0,200.0,1,0.9015011787414551,None,,,,,0,0,0,0,0,37,37,21,139.84657073020935,,,,,,,,,,,,,,,,,,,,,,,,,,,,,,,,,,,,,,,,,,,,,,,,,,,,,,,,,,,,,,,,,,,,,,,,,,,,,,,,,200.0,125.0,127.0,127.0,125.0,200.0,2.1,2.11,-222,278,0,286,260,-256,139.8321075439453,139.83215022087097,139.83458256721497,139.84657073020935,139.9966380596161,139.9966380596161,139.9966380596161,139.9966380596161,139.9966380596161,139.9966380596161,139.9966380596161,140.76445031166077,1,0.9015011787414551,None,,,,,,,,,,,,,,,,,,194,3,2025-03-05_12h01.26.556,comp,2024.2.4,60.06148911339114,2025-03-05 12h01.37.068396 -0500,
38,38,0,filler_square,None,None,None,None,None,None,None,None,None,None,2,0.8561947345733643,None,,,,,0,0,0,0,0,38,38,203,140.77974724769592,,,,,,,,,,,,,,,,,,,,,,,,,,,,,,,,,,,,,,,,,,,,,,,,,,,,,,,,,,,,,,,,,,,,,,,,,,,,,,,,,100.68311062879488,72.37660198655149,181.05045977824489,181.05045977824489,96.57531292391256,75.89011293697982,4.0,4.2,-223,5,0,-284,224,-17,140.76542592048645,140.76546692848206,140.76798009872437,140.77974724769592,140.92994499206543,140.92994499206543,140.92994499206543,140.92994499206543,140.92994499206543,140.92994499206543,140.92994499206543,141.64811158180237,2,0.8561947345733643,None,,,,,,,,,,,,,,,,,,194,3,2025-03-05_12h01.26.556,comp,2024.2.4,60.06148911339114,2025-03-05 12h01.37.068396 -0500,
39,39,0,filler_random,None,None,None,None,None,None,None,None,None,None,1,1.015641689300537,None,,,,,0,0,0,0,0,39,39,162,141.66309094429016,,,,,,,,,,,,,,,,,,,,,,,,,,,,,,,,,,,,,,,,,,,,,,,,,,,,,,,,,,,,,,,,,,,,,,,,,,,,,,,,,144.76229958204573,94.3227553996085,84.05777812661017,91.22329402460244,165.80700115635096,96.09328937315931,1.0,1.3,291,-282,480,-250,670,-281,141.6490330696106,141.6490762233734,141.65111660957336,141.66309094429016,141.8131046295166,141.8131046295166,141.8131046295166,141.8131046295166,141.8131046295166,141.8131046295166,141.8131046295166,142.68100953102112,1,1.015641689300537,None,,,,,,,,,,,,,,,,,,194,3,2025-03-05_12h01.26.556,comp,2024.2.4,60.06148911339114,2025-03-05 12h01.37.068396 -0500,
40,40,0,filler_square,None,None,None,None,None,None,None,None,None,None,2,0.7881097793579102,None,,,,,0,0,0,0,0,40,40,198,142.69647765159607,,,,,,,,,,,,,,,,,,,,,,,,,,,,,,,,,,,,,,,,,,,,,,,,,,,,,,,,,,,,,,,,,,,,,,,,,,,,,,,,,121.59592742747952,101.38793627029574,157.0072320928212,157.0072320928212,71.11093532503668,116.29597006720422,2.1,2.12,-225,-281,0,-251,233,260,142.68199133872986,142.6820330619812,142.68419551849365,142.69647765159607,142.84647607803345,142.84647607803345,142.84647607803345,142.84647607803345,142.84647607803345,142.84647607803345,142.84647607803345,143.49766492843628,2,0.7881097793579102,None,,,,,,,,,,,,,,,,,,194,3,2025-03-05_12h01.26.556,comp,2024.2.4,60.06148911339114,2025-03-05 12h01.37.068396 -0500,
41,41,0,filler_square,None,None,None,None,None,None,None,None,None,None,1,0.9872808456420898,None,,,,,0,0,0,0,0,41,41,197,143.51298928260803,,,,,,,,,,,,,,,,,,,,,,,,,,,,,,,,,,,,,,,,,,,,,,,,,,,,,,,,,,,,,,,,,,,,,,,,,,,,,,,,,61.48618563873505,70.19218694857081,65.72988954862197,57.760102320532056,71.70105355282016,71.70105355282016,3.0,3.1,-160,264,0,9,161,-253,143.49860954284668,143.49864888191223,143.50122666358948,143.51298928260803,143.663094997406,143.663094997406,143.663094997406,143.663094997406,143.663094997406,143.663094997406,143.663094997406,144.51425099372864,1,0.9872808456420898,None,,,,,,,,,,,,,,,,,,194,3,2025-03-05_12h01.26.556,comp,2024.2.4,60.06148911339114,2025-03-05 12h01.37.068396 -0500,
42,42,0,critical,wdh,20.0,1.0,upper,125.0,200.0,141.0,141.0,200.0,125.0,1,2.1488261222839355,None,,,,,0,0,0,0,0,42,42,79,144.5295832157135,,,,,,,,,,,,,,,,,,,,,,,,,,,,,,,,,,,,,,,,,,,,,,,,,,,,,,,,,,,,,,,,,,,,,,,,,,,,,,,,,125.0,200.0,141.0,141.0,200.0,125.0,1.0,1.3,214,-250,480,-255,709,-264,144.5150604248047,144.51510095596313,144.51755595207214,144.5295832157135,144.6799237728119,144.6799237728119,144.6799237728119,144.6799237728119,144.6799237728119,144.6799237728119,144.6799237728119,146.68125247955322,1,2.1488261222839355,None,,,,,,,,,,,,,,,,,,194,3,2025-03-05_12h01.26.556,comp,2024.2.4,60.06148911339114,2025-03-05 12h01.37.068396 -0500,
43,43,0,critical,wdh,20.0,4.0,lower,57.0,133.0,78.0,78.0,133.0,57.0,3,2.1823394298553467,None,,,,,0,0,0,0,0,43,43,82,146.6966109275818,,,,,,,,,,,,,,,,,,,,,,,,,,,,,,,,,,,,,,,,,,,,,,,,,,,,,,,,,,,,,,,,,,,,,,,,,,,,,,,,,57.0,133.0,78.0,78.0,133.0,57.0,4.0,4.2,-202,15,0,-286,164,-4,146.68202328681946,146.68206310272217,146.68422508239746,146.6966109275818,146.84647750854492,146.84647750854492,146.84647750854492,146.84647750854492,146.84647750854492,146.84647750854492,146.84647750854492,148.89750266075134,3,2.1823394298553467,None,,,,,,,,,,,,,,,,,,194,3,2025-03-05_12h01.26.556,comp,2024.2.4,60.06148911339114,2025-03-05 12h01.37.068396 -0500,
44,44,0,filler_random,None,None,None,None,None,None,None,None,None,None,3,2.322927474975586,None,,,,,0,0,0,0,0,44,44,130,148.91289114952087,,,,,,,,,,,,,,,,,,,,,,,,,,,,,,,,,,,,,,,,,,,,,,,,,,,,,,,,,,,,,,,,,,,,,,,,,,,,,,,,,178.32141434453575,191.95284788467532,182.30719180730145,116.89512429890796,184.3228330001335,194.1471059261352,1.0,1.3,230,-258,480,-274,732,-280,148.89840698242188,148.8984477519989,148.90092039108276,148.91289114952087,149.06342220306396,149.06342220306396,149.06342220306396,149.06342220306396,149.06342220306396,149.06342220306396,149.06342220306396,151.24830842018127,3,2.322927474975586,None,,,,,,,,,,,,,,,,,,194,3,2025-03-05_12h01.26.556,comp,2024.2.4,60.06148911339114,2025-03-05 12h01.37.068396 -0500,
45,45,0,critical,hwd,20.0,3.0,upper,200.0,125.0,125.0,200.0,141.0,141.0,2,1.150529146194458,None,,,,,0,0,0,0,0,45,45,105,151.26299166679382,,,,,,,,,,,,,,,,,,,,,,,,,,,,,,,,,,,,,,,,,,,,,,,,,,,,,,,,,,,,,,,,,,,,,,,,,,,,,,,,,200.0,125.0,125.0,200.0,141.0,141.0,3.0,3.1,-258,262,0,-2,266,-268,151.24909901618958,151.2491397857666,151.25129771232605,151.26299166679382,151.4133324623108,151.4133324623108,151.4133324623108,151.4133324623108,151.4133324623108,151.4133324623108,151.4133324623108,152.43098187446594,2,1.150529146194458,None,,,,,,,,,,,,,,,,,,194,3,2025-03-05_12h01.26.556,comp,2024.2.4,60.06148911339114,2025-03-05 12h01.37.068396 -0500,
46,46,0,filler_random,None,None,None,None,None,None,None,None,None,None,1,1.23244309425354,None,,,,,0,0,0,0,0,46,46,148,152.44627237319946,,,,,,,,,,,,,,,,,,,,,,,,,,,,,,,,,,,,,,,,,,,,,,,,,,,,,,,,,,,,,,,,,,,,,,,,,,,,,,,,,166.82069873856102,177.0274064242031,96.80985091180182,187.77780907909403,125.57875844895774,136.20248007606307,1.0,1.3,202,-283,480,-274,738,-265,152.4318881034851,152.43192958831787,152.43404579162598,152.44627237319946,152.59662175178528,152.59662175178528,152.59662175178528,152.59662175178528,152.59662175178528,152.59662175178528,152.59662175178528,153.68121981620789,1,1.23244309425354,None,,,,,,,,,,,,,,,,,,194,3,2025-03-05_12h01.26.556,comp,2024.2.4,60.06148911339114,2025-03-05 12h01.37.068396 -0500,
47,47,0,filler_square,None,None,None,None,None,None,None,None,None,None,1,1.0836622714996338,None,,,,,0,0,0,0,0,47,47,209,153.69651341438293,,,,,,,,,,,,,,,,,,,,,,,,,,,,,,,,,,,,,,,,,,,,,,,,,,,,,,,,,,,,,,,,,,,,,,,,,,,,,,,,,120.83890790998566,120.83890790998566,76.62053681379795,63.024840347874694,59.39600980629809,81.56828574658914,3.0,3.1,-188,289,0,8,168,-258,153.68213963508606,153.68217968940735,153.68424034118652,153.69651341438293,153.84637451171875,153.84637451171875,153.84637451171875,153.84637451171875,153.84637451171875,153.84637451171875,153.84637451171875,154.79751014709473,1,1.0836622714996338,None,,,,,,,,,,,,,,,,,,194,3,2025-03-05_12h01.26.556,comp,2024.2.4,60.06148911339114,2025-03-05 12h01.37.068396 -0500,
48,48,0,critical,hwd,20.0,2.1,upper,200.0,125.0,125.0,200.0,141.0,141.0,2,1.103156328201294,None,,,,,0,0,0,0,0,48,48,19,154.81295347213745,,,,,,,,,,,,,,,,,,,,,,,,,,,,,,,,,,,,,,,,,,,,,,,,,,,,,,,,,,,,,,,,,,,,,,,,,,,,,,,,,200.0,125.0,125.0,200.0,141.0,141.0,2.1,2.11,-258,276,0,288,266,-252,154.79833602905273,154.79837608337402,154.80089592933655,154.81295347213745,154.9633822441101,154.9633822441101,154.9633822441101,154.9633822441101,154.9633822441101,154.9633822441101,154.9633822441101,155.9308648109436,2,1.103156328201294,None,,,,,,,,,,,,,,,,,,194,3,2025-03-05_12h01.26.556,comp,2024.2.4,60.06148911339114,2025-03-05 12h01.37.068396 -0500,
49,49,0,critical,whd,35.0,2.1,upper,125.0,200.0,200.0,125.0,127.0,127.0,1,2.050652503967285,None,,,,,0,0,0,0,0,49,49,13,155.94616866111755,,,,,,,,,,,,,,,,,,,,,,,,,,,,,,,,,,,,,,,,,,,,,,,,,,,,,,,,,,,,,,,,,,,,,,,,,,,,,,,,,125.0,200.0,200.0,125.0,127.0,127.0,2.1,2.12,-258,-263,0,-251,222,287,155.93164157867432,155.93168020248413,155.9336597919464,155.94616866111755,156.09661293029785,156.09661293029785,156.09661293029785,156.09661293029785,156.09661293029785,156.09661293029785,156.09661293029785,158.014315366745,1,2.050652503967285,None,,,,,,,,,,,,,,,,,,194,3,2025-03-05_12h01.26.556,comp,2024.2.4,60.06148911339114,2025-03-05 12h01.37.068396 -0500,
50,50,0,catch,None,None,None,None,None,None,None,None,None,None,2,0.8380310535430908,None,,,,,0,0,0,0,0,50,50,123,158.02975988388062,,,,,,,,,,,,,,,,,,,,,,,,,,,,,,,,,,,,,,,,,,,,,,,,,,,,,,,,,,,,,,,,,,,,,,,,,,,,,,,,,110,80,181,144,103,87,1.0,1.2,-208,-9,0,1,212,-18,158.01534938812256,158.01539087295532,158.0187966823578,158.02975988388062,158.17976880073547,158.17976880073547,158.17976880073547,158.17976880073547,158.17976880073547,158.17976880073547,158.17976880073547,158.88076400756836,2,0.8380310535430908,None,,,,,,,,,,,,,,,,,,194,3,2025-03-05_12h01.26.556,comp,2024.2.4,60.06148911339114,2025-03-05 12h01.37.068396 -0500,
51,51,0,critical,dhw,35.0,2.1,upper,127.0,127.0,200.0,125.0,125.0,200.0,3,1.0039165019989014,None,,,,,0,0,0,0,0,51,51,25,158.89610195159912,,,,,,,,,,,,,,,,,,,,,,,,,,,,,,,,,,,,,,,,,,,,,,,,,,,,,,,,,,,,,,,,,,,,,,,,,,,,,,,,,127.0,127.0,200.0,125.0,125.0,200.0,2.1,2.12,-222,-270,0,-270,258,259,158.88155961036682,158.88160061836243,158.88363409042358,158.89610195159912,159.0465886592865,159.0465886592865,159.0465886592865,159.0465886592865,159.0465886592865,159.0465886592865,159.0465886592865,159.91422414779663,3,1.0039165019989014,None,,,,,,,,,,,,,,,,,,194,3,2025-03-05_12h01.26.556,comp,2024.2.4,60.06148911339114,2025-03-05 12h01.37.068396 -0500,
52,52,0,filler_random,None,None,None,None,None,None,None,None,None,None,1,1.3705568313598633,None,,,,,0,0,0,0,0,52,52,146,159.92944645881653,,,,,,,,,,,,,,,,,,,,,,,,,,,,,,,,,,,,,,,,,,,,,,,,,,,,,,,,,,,,,,,,,,,,,,,,,,,,,,,,,129.48336602420204,114.74498658597204,148.2138144688173,72.08371044402197,97.80855690438034,98.69362236587311,2.1,2.12,-189,-255,0,-282,181,289,159.91513562202454,159.91517639160156,159.91762256622314,159.92944645881653,160.07971620559692,160.07971620559692,160.07971620559692,160.07971620559692,160.07971620559692,160.07971620559692,160.07971620559692,161.31415939331055,1,1.3705568313598633,None,,,,,,,,,,,,,,,,,,194,3,2025-03-05_12h01.26.556,comp,2024.2.4,60.06148911339114,2025-03-05 12h01.37.068396 -0500,
53,53,0,critical,dhw,35.0,1.0,upper,127.0,127.0,200.0,125.0,125.0,200.0,3,4.811285972595215,None,,,,,0,0,0,0,0,53,53,49,161.3294289112091,,,,,,,,,,,,,,,,,,,,,,,,,,,,,,,,,,,,,,,,,,,,,,,,,,,,,,,,,,,,,,,,,,,,,,,,,,,,,,,,,127.0,127.0,200.0,125.0,125.0,200.0,1.0,1.3,258,-289,480,-274,738,-290,161.31497883796692,161.315021276474,161.3174319267273,161.3294289112091,161.47980332374573,161.47980332374573,161.47980332374573,161.47980332374573,161.47980332374573,161.47980332374573,161.47980332374573,166.14760041236877,3,4.811285972595215,None,,,,,,,,,,,,,,,,,,194,3,2025-03-05_12h01.26.556,comp,2024.2.4,60.06148911339114,2025-03-05 12h01.37.068396 -0500,
54,54,0,filler_random,None,None,None,None,None,None,None,None,None,None,2,1.6173145771026611,None,,,,,0,0,0,0,0,54,54,157,166.16309809684753,,,,,,,,,,,,,,,,,,,,,,,,,,,,,,,,,,,,,,,,,,,,,,,,,,,,,,,,,,,,,,,,,,,,,,,,,,,,,,,,,90.63017636332211,111.32117742193753,137.48679238663425,181.31004441855652,171.8325552718389,107.28301725613122,2.1,2.11,-242,278,0,259,240,-272,166.14852237701416,166.1485652923584,166.1510443687439,166.16309809684753,166.31303644180298,166.31303644180298,166.31303644180298,166.31303644180298,166.31303644180298,166.31303644180298,166.31303644180298,167.79756045341492,2,1.6173145771026611,None,,,,,,,,,,,,,,,,,,194,3,2025-03-05_12h01.26.556,comp,2024.2.4,60.06148911339114,2025-03-05 12h01.37.068396 -0500,
55,55,0,filler_square,None,None,None,None,None,None,None,None,None,None,1,2.0963189601898193,None,,,,,0,0,0,0,0,55,55,201,167.81290221214294,,,,,,,,,,,,,,,,,,,,,,,,,,,,,,,,,,,,,,,,,,,,,,,,,,,,,,,,,,,,,,,,,,,,,,,,,,,,,,,,,57.87962459794546,57.902977759065365,58.00279975902208,58.00279975902208,57.2347097993951,57.34425511300042,3.0,3.1,-154,255,0,-4,154,-256,167.7985212802887,167.79856181144714,167.8010938167572,167.81290221214294,167.96291160583496,167.96291160583496,167.96291160583496,167.96291160583496,167.96291160583496,167.96291160583496,167.96291160583496,169.91411542892456,1,2.0963189601898193,None,,,,,,,,,,,,,,,,,,194,3,2025-03-05_12h01.26.556,comp,2024.2.4,60.06148911339114,2025-03-05 12h01.37.068396 -0500,
56,56,0,critical,wdh,35.0,1.0,upper,125.0,200.0,127.0,127.0,200.0,125.0,1,4.891369581222534,None,,,,,0,0,0,0,0,56,56,73,169.92971515655518,,,,,,,,,,,,,,,,,,,,,,,,,,,,,,,,,,,,,,,,,,,,,,,,,,,,,,,,,,,,,,,,,,,,,,,,,,,,,,,,,125.0,200.0,127.0,127.0,200.0,125.0,1.0,1.2,-260,4,0,-13,222,6,169.91486883163452,169.91490960121155,169.9172806739807,169.92971515655518,170.07978224754333,170.07978224754333,170.07978224754333,170.07978224754333,170.07978224754333,170.07978224754333,170.07978224754333,174.8309769630432,1,4.891369581222534,None,,,,,,,,,,,,,,,,,,194,3,2025-03-05_12h01.26.556,comp,2024.2.4,60.06148911339114,2025-03-05 12h01.37.068396 -0500,
57,57,0,critical,hwd,35.0,2.1,upper,200.0,125.0,125.0,200.0,127.0,127.0,2,1.4378151893615723,None,,,,,0,0,0,0,0,57,57,17,174.84647679328918,,,,,,,,,,,,,,,,,,,,,,,,,,,,,,,,,,,,,,,,,,,,,,,,,,,,,,,,,,,,,,,,,,,,,,,,,,,,,,,,,200.0,125.0,125.0,200.0,127.0,127.0,2.1,2.12,-258,-281,0,-261,260,266,174.83176016807556,174.8318009376526,174.83404874801636,174.84647679328918,174.99644231796265,174.99644231796265,174.99644231796265,174.99644231796265,174.99644231796265,174.99644231796265,174.99644231796265,176.29751682281494,2,1.4378151893615723,None,,,,,,,,,,,,,,,,,,194,3,2025-03-05_12h01.26.556,comp,2024.2.4,60.06148911339114,2025-03-05 12h01.37.068396 -0500,
58,58,0,filler_random,None,None,None,None,None,None,None,None,None,None,1,1.5003492832183838,None,,,,,0,0,0,0,0,58,58,143,176.3127555847168,,,,,,,,,,,,,,,,,,,,,,,,,,,,,,,,,,,,,,,,,,,,,,,,,,,,,,,,,,,,,,,,,,,,,,,,,,,,,,,,,152.83180051249906,109.57723118608588,62.38763246548774,94.72159877003571,80.12105494925464,163.52005684177612,2.1,2.12,-198,-264,0,-255,225,275,176.2985498905182,176.29859066009521,176.30120086669922,176.3127555847168,176.46308660507202,176.46308660507202,176.46308660507202,176.46308660507202,176.46308660507202,176.46308660507202,176.46308660507202,177.83074808120728,1,1.5003492832183838,None,,,,,,,,,,,,,,,,,,194,3,2025-03-05_12h01.26.556,comp,2024.2.4,60.06148911339114,2025-03-05 12h01.37.068396 -0500,
59,59,0,filler_square,None,None,None,None,None,None,None,None,None,None,1,0.9340248107910156,None,,,,,0,0,0,0,0,59,59,175,177.84606456756592,,,,,,,,,,,,,,,,,,,,,,,,,,,,,,,,,,,,,,,,,,,,,,,,,,,,,,,,,,,,,,,,,,,,,,,,,,,,,,,,,118.41527200569381,118.41527200569381,70.80221287972904,115.94042906307502,61.69823348240714,81.8407184954287,2.1,2.11,-213,285,0,260,195,-262,177.83170747756958,177.83174777030945,177.83434534072876,177.84606456756592,177.99613189697266,177.99613189697266,177.99613189697266,177.99613189697266,177.99613189697266,177.99613189697266,177.99613189697266,178.7976861000061,1,0.9340248107910156,None,,,,,,,,,,,,,,,,,,194,3,2025-03-05_12h01.26.556,comp,2024.2.4,60.06148911339114,2025-03-05 12h01.37.068396 -0500,
60,60,0,critical,hdw,35.0,4.0,lower,133.0,57.0,70.0,70.0,57.0,133.0,1,3.1921072006225586,None,,,,,0,0,0,0,0,60,60,112,178.8128502368927,,,,,,,,,,,,,,,,,,,,,,,,,,,,,,,,,,,,,,,,,,,,,,,,,,,,,,,,,,,,,,,,,,,,,,,,,,,,,,,,,133.0,57.0,70.0,70.0,57.0,133.0,4.0,4.1,-160,-285,0,7,198,-250,178.79848623275757,178.79852604866028,178.80104780197144,178.8128502368927,178.96280574798584,178.96280574798584,178.96280574798584,178.96280574798584,178.96280574798584,178.96280574798584,178.96280574798584,182.01405715942383,1,3.1921072006225586,None,,,,,,,,,,,,,,,,,,194,3,2025-03-05_12h01.26.556,comp,2024.2.4,60.06148911339114,2025-03-05 12h01.37.068396 -0500,
61,61,0,filler_random,None,None,None,None,None,None,None,None,None,None,1,1.310828447341919,None,,,,,0,0,0,0,0,61,61,161,182.0297601222992,,,,,,,,,,,,,,,,,,,,,,,,,,,,,,,,,,,,,,,,,,,,,,,,,,,,,,,,,,,,,,,,,,,,,,,,,,,,,,,,,190.29827467769135,127.7020109071699,98.24079366280833,57.7207742734094,103.1936796179823,192.93609581142243,3.0,3.2,-189,-284,0,2,221,253,182.01497077941895,182.01501178741455,182.017409324646,182.0297601222992,182.17964434623718,182.17964434623718,182.17964434623718,182.17964434623718,182.17964434623718,182.17964434623718,182.17964434623718,183.34733152389526,1,1.310828447341919,None,,,,,,,,,,,,,,,,,,194,3,2025-03-05_12h01.26.556,comp,2024.2.4,60.06148911339114,2025-03-05 12h01.37.068396 -0500,
62,62,0,critical,wdh,20.0,2.1,upper,125.0,200.0,141.0,141.0,200.0,125.0,1,1.4096789360046387,None,,,,,0,0,0,0,0,62,62,11,183.36298513412476,,,,,,,,,,,,,,,,,,,,,,,,,,,,,,,,,,,,,,,,,,,,,,,,,,,,,,,,,,,,,,,,,,,,,,,,,,,,,,,,,125.0,200.0,141.0,141.0,200.0,125.0,2.1,2.12,-266,-271,0,-288,229,262,183.34822177886963,183.34826350212097,183.35080480575562,183.36298513412476,183.5129954814911,183.5129954814911,183.5129954814911,183.5129954814911,183.5129954814911,183.5129954814911,183.5129954814911,184.78087162971497,1,1.4096789360046387,None,,,,,,,,,,,,,,,,,,194,3,2025-03-05_12h01.26.556,comp,2024.2.4,60.06148911339114,2025-03-05 12h01.37.068396 -0500,
63,63,0,critical,dhw,35.0,2.1,upper,127.0,127.0,200.0,125.0,125.0,200.0,3,1.0660767555236816,None,,,,,0,0,0,0,0,63,63,1,184.7961974143982,,,,,,,,,,,,,,,,,,,,,,,,,,,,,,,,,,,,,,,,,,,,,,,,,,,,,,,,,,,,,,,,,,,,,,,,,,,,,,,,,127.0,127.0,200.0,125.0,125.0,200.0,2.1,2.12,-222,-279,0,-259,258,260,184.78165793418884,184.78170013427734,184.78398823738098,184.7961974143982,184.94638228416443,184.94638228416443,184.94638228416443,184.94638228416443,184.94638228416443,184.94638228416443,184.94638228416443,185.86450123786926,3,1.0660767555236816,None,,,,,,,,,,,,,,,,,,194,3,2025-03-05_12h01.26.556,comp,2024.2.4,60.06148911339114,2025-03-05 12h01.37.068396 -0500,
64,64,0,filler_square,None,None,None,None,None,None,None,None,None,None,3,1.3336057662963867,None,,,,,0,0,0,0,0,64,64,193,185.8797619342804,,,,,,,,,,,,,,,,,,,,,,,,,,,,,,,,,,,,,,,,,,,,,,,,,,,,,,,,,,,,,,,,,,,,,,,,,,,,,,,,,169.84976150827774,166.17713447988967,65.39019097216998,128.1808943669269,185.66819983162065,185.66819983162065,2.1,2.12,-243,-277,0,-275,253,285,185.86548161506653,185.86552357673645,185.86797261238098,185.8797619342804,186.02985525131226,186.02985525131226,186.02985525131226,186.02985525131226,186.02985525131226,186.02985525131226,186.02985525131226,187.23092603683472,3,1.3336057662963867,None,,,,,,,,,,,,,,,,,,194,3,2025-03-05_12h01.26.556,comp,2024.2.4,60.06148911339114,2025-03-05 12h01.37.068396 -0500,
65,65,0,critical,whd,35.0,1.0,lower,57.0,133.0,133.0,57.0,70.0,70.0,1,1.1837875843048096,None,,,,,0,0,0,0,0,65,65,84,187.24606013298035,,,,,,,,,,,,,,,,,,,,,,,,,,,,,,,,,,,,,,,,,,,,,,,,,,,,,,,,,,,,,,,,,,,,,,,,,,,,,,,,,57.0,133.0,133.0,57.0,70.0,70.0,1.0,1.1,-671,266,-480,290,-320,267,187.23176169395447,187.23180222511292,187.23410987854004,187.24606013298035,187.39628195762634,187.39628195762634,187.39628195762634,187.39628195762634,187.39628195762634,187.39628195762634,187.39628195762634,188.44724678993225,1,1.1837875843048096,None,,,,,,,,,,,,,,,,,,194,3,2025-03-05_12h01.26.556,comp,2024.2.4,60.06148911339114,2025-03-05 12h01.37.068396 -0500,
66,66,0,filler_square,None,None,None,None,None,None,None,None,None,None,1,0.7997992038726807,None,,,,,0,0,0,0,0,66,66,182,188.46273231506348,,,,,,,,,,,,,,,,,,,,,,,,,,,,,,,,,,,,,,,,,,,,,,,,,,,,,,,,,,,,,,,,,,,,,,,,,,,,,,,,,112.93436670701576,112.93436670701576,104.20127741351268,69.04547392084153,62.09581567019266,83.64661618729943,2.1,2.11,-187,274,0,289,172,-255,188.44820713996887,188.44824743270874,188.450692653656,188.46273231506348,188.61286687850952,188.61286687850952,188.61286687850952,188.61286687850952,188.61286687850952,188.61286687850952,188.61286687850952,189.2807891368866,1,0.7997992038726807,None,,,,,,,,,,,,,,,,,,194,3,2025-03-05_12h01.26.556,comp,2024.2.4,60.06148911339114,2025-03-05 12h01.37.068396 -0500,
67,67,0,filler_square,None,None,None,None,None,None,None,None,None,None,1,1.3255164623260498,None,,,,,0,0,0,0,0,67,67,187,189.2959885597229,,,,,,,,,,,,,,,,,,,,,,,,,,,,,,,,,,,,,,,,,,,,,,,,,,,,,,,,,,,,,,,,,,,,,,,,,,,,,,,,,168.70894445929872,168.70894445929872,119.11968676077095,162.0603327878981,62.775370631371736,88.76303939337205,2.1,2.12,-261,-252,0,-257,221,280,189.2817542552948,189.28179478645325,189.28441262245178,189.2959885597229,189.4462161064148,189.4462161064148,189.4462161064148,189.4462161064148,189.4462161064148,189.4462161064148,189.4462161064148,190.63064169883728,1,1.3255164623260498,None,,,,,,,,,,,,,,,,,,194,3,2025-03-05_12h01.26.556,comp,2024.2.4,60.06148911339114,2025-03-05 12h01.37.068396 -0500,
68,68,0,filler_random,None,None,None,None,None,None,None,None,None,None,3,4.878650188446045,None,,,,,0,0,0,0,0,68,68,154,190.64616990089417,,,,,,,,,,,,,,,,,,,,,,,,,,,,,,,,,,,,,,,,,,,,,,,,,,,,,,,,,,,,,,,,,,,,,,,,,,,,,,,,,76.17936545660089,155.08474994054092,76.0660274827014,91.34028129835615,133.7015925003202,143.80068344915907,2.1,2.11,-219,282,0,287,214,-262,190.63151097297668,190.6315495967865,190.63409399986267,190.64616990089417,190.796217918396,190.796217918396,190.796217918396,190.796217918396,190.796217918396,190.796217918396,190.796217918396,195.53072690963745,3,4.878650188446045,None,,,,,,,,,,,,,,,,,,194,3,2025-03-05_12h01.26.556,comp,2024.2.4,60.06148911339114,2025-03-05 12h01.37.068396 -0500,
69,69,0,critical,dhw,35.0,3.0,upper,127.0,127.0,200.0,125.0,125.0,200.0,3,16.953102350234985,None,,,,,0,0,0,0,0,69,69,51,195.5464894771576,,,,,,,,,,,,,,,,,,,,,,,,,,,,,,,,,,,,,,,,,,,,,,,,,,,,,,,,,,,,,,,,,,,,,,,,,,,,,,,,,127.0,127.0,200.0,125.0,125.0,200.0,3.0,3.2,-222,-277,0,19,258,251,195.53154253959656,195.531583070755,195.53421831130981,195.5464894771576,195.69662952423096,195.69662952423096,195.69662952423096,195.69662952423096,195.69662952423096,195.69662952423096,195.69662952423096,212.51389265060425,3,16.953102350234985,None,,,,,,,,,,,,,,,,,,194,3,2025-03-05_12h01.26.556,comp,2024.2.4,60.06148911339114,2025-03-05 12h01.37.068396 -0500,
70,70,0,critical,hdw,35.0,1.0,upper,200.0,125.0,127.0,127.0,125.0,200.0,1,1.0925815105438232,None,,,,,0,0,0,0,0,70,70,109,212.52915811538696,,,,,,,,,,,,,,,,,,,,,,,,,,,,,,,,,,,,,,,,,,,,,,,,,,,,,,,,,,,,,,,,,,,,,,,,,,,,,,,,,200.0,125.0,127.0,127.0,125.0,200.0,1.0,1.3,258,-266,480,-270,740,-258,212.51471281051636,212.5147533416748,212.51687264442444,212.52915811538696,212.67987179756165,212.67987179756165,212.67987179756165,212.67987179756165,212.67987179756165,212.67987179756165,212.67987179756165,213.63102388381958,1,1.0925815105438232,None,,,,,,,,,,,,,,,,,,194,3,2025-03-05_12h01.26.556,comp,2024.2.4,60.06148911339114,2025-03-05 12h01.37.068396 -0500,
71,71,0,critical,hwd,35.0,4.0,upper,200.0,125.0,125.0,200.0,127.0,127.0,2,1.0940361022949219,None,,,,,0,0,0,0,0,71,71,101,213.64631056785583,,,,,,,,,,,,,,,,,,,,,,,,,,,,,,,,,,,,,,,,,,,,,,,,,,,,,,,,,,,,,,,,,,,,,,,,,,,,,,,,,200.0,125.0,125.0,200.0,127.0,127.0,4.0,4.2,-258,-1,0,-274,260,15,213.63178825378418,213.6318302154541,213.63392567634583,213.64631056785583,213.79624581336975,213.79624581336975,213.79624581336975,213.79624581336975,213.79624581336975,213.79624581336975,213.79624581336975,214.74725937843323,2,1.0940361022949219,None,,,,,,,,,,,,,,,,,,194,3,2025-03-05_12h01.26.556,comp,2024.2.4,60.06148911339114,2025-03-05 12h01.37.068396 -0500,
72,72,0,critical,dhw,20.0,4.0,upper,141.0,141.0,200.0,125.0,125.0,200.0,3,1.1688971519470215,None,,,,,0,0,0,0,0,72,72,59,214.76271295547485,,,,,,,,,,,,,,,,,,,,,,,,,,,,,,,,,,,,,,,,,,,,,,,,,,,,,,,,,,,,,,,,,,,,,,,,,,,,,,,,,141.0,141.0,200.0,125.0,125.0,200.0,4.0,4.1,-229,-255,0,1,258,-271,214.74804615974426,214.74808716773987,214.75023198127747,214.76271295547485,214.91283512115479,214.91283512115479,214.91283512115479,214.91283512115479,214.91283512115479,214.91283512115479,214.91283512115479,215.94725632667542,3,1.1688971519470215,None,,,,,,,,,,,,,,,,,,194,3,2025-03-05_12h01.26.556,comp,2024.2.4,60.06148911339114,2025-03-05 12h01.37.068396 -0500,
73,73,0,filler_square,None,None,None,None,None,None,None,None,None,None,2,0.9620566368103027,None,,,,,0,0,0,0,0,73,73,189,215.9625368118286,,,,,,,,,,,,,,,,,,,,,,,,,,,,,,,,,,,,,,,,,,,,,,,,,,,,,,,,,,,,,,,,,,,,,,,,,,,,,,,,,96.7544409725136,78.19390642838789,126.05981793455346,126.05981793455346,104.81472506465545,63.046243822830746,4.0,4.1,-198,-270,0,-4,191,-270,215.94822907447815,215.94827032089233,215.95122480392456,215.9625368118286,216.11263704299927,216.11263704299927,216.11263704299927,216.11263704299927,216.11263704299927,216.11263704299927,216.11263704299927,216.93045687675476,2,0.9620566368103027,None,,,,,,,,,,,,,,,,,,194,3,2025-03-05_12h01.26.556,comp,2024.2.4,60.06148911339114,2025-03-05 12h01.37.068396 -0500,
74,74,0,filler_square,None,None,None,None,None,None,None,None,None,None,3,0.8103740215301514,None,,,,,0,0,0,0,0,74,74,196,216.94603514671326,,,,,,,,,,,,,,,,,,,,,,,,,,,,,,,,,,,,,,,,,,,,,,,,,,,,,,,,,,,,,,,,,,,,,,,,,,,,,,,,,153.7622468159646,121.81299848638558,131.42337950895003,94.67711982559672,183.65607140714633,183.65607140714633,4.0,4.2,-204,-3,0,-270,235,20,216.9316713809967,216.9317123889923,216.93373656272888,216.94603514671326,217.09622621536255,217.09622621536255,217.09622621536255,217.09622621536255,217.09622621536255,217.09622621536255,217.09622621536255,217.76391053199768,3,0.8103740215301514,None,,,,,,,,,,,,,,,,,,194,3,2025-03-05_12h01.26.556,comp,2024.2.4,60.06148911339114,2025-03-05 12h01.37.068396 -0500,
75,75,0,critical,hdw,20.0,3.0,lower,133.0,57.0,78.0,78.0,57.0,133.0,1,2.5842368602752686,None,,,,,0,0,0,0,0,75,75,116,217.77931475639343,,,,,,,,,,,,,,,,,,,,,,,,,,,,,,,,,,,,,,,,,,,,,,,,,,,,,,,,,,,,,,,,,,,,,,,,,,,,,,,,,133.0,57.0,78.0,78.0,57.0,133.0,3.0,3.1,-164,273,0,14,202,-285,217.7646782398224,217.76471710205078,217.76673197746277,217.77931475639343,217.92945003509521,217.92945003509521,217.92945003509521,217.92945003509521,217.92945003509521,217.92945003509521,217.92945003509521,220.38032746315002,1,2.5842368602752686,None,,,,,,,,,,,,,,,,,,194,3,2025-03-05_12h01.26.556,comp,2024.2.4,60.06148911339114,2025-03-05 12h01.37.068396 -0500,
76,76,0,critical,whd,20.0,1.0,upper,125.0,200.0,200.0,125.0,141.0,141.0,1,1.28226900100708,None,,,,,0,0,0,0,0,76,76,91,220.39576172828674,,,,,,,,,,,,,,,,,,,,,,,,,,,,,,,,,,,,,,,,,,,,,,,,,,,,,,,,,,,,,,,,,,,,,,,,,,,,,,,,,125.0,200.0,200.0,125.0,141.0,141.0,1.0,1.3,222,-282,480,-267,709,-263,220.3811273574829,220.38116884231567,220.38365197181702,220.39576172828674,220.54611730575562,220.54611730575562,220.54611730575562,220.54611730575562,220.54611730575562,220.54611730575562,220.54611730575562,221.680846452713,1,1.28226900100708,None,,,,,,,,,,,,,,,,,,194,3,2025-03-05_12h01.26.556,comp,2024.2.4,60.06148911339114,2025-03-05 12h01.37.068396 -0500,
77,77,0,filler_square,None,None,None,None,None,None,None,None,None,None,2,0.8443398475646973,None,,,,,0,0,0,0,0,77,77,170,221.6960060596466,,,,,,,,,,,,,,,,,,,,,,,,,,,,,,,,,,,,,,,,,,,,,,,,,,,,,,,,,,,,,,,,,,,,,,,,,,,,,,,,,68.64380807383696,68.45241926431346,77.11479677720153,77.11479677720153,66.16041137724271,69.55893033408968,3.0,3.2,-169,-276,0,14,169,281,221.68178701400757,221.68182754516602,221.68415021896362,221.6960060596466,221.84603548049927,221.84603548049927,221.84603548049927,221.84603548049927,221.84603548049927,221.84603548049927,221.84603548049927,222.5468578338623,2,0.8443398475646973,None,,,,,,,,,,,,,,,,,,194,3,2025-03-05_12h01.26.556,comp,2024.2.4,60.06148911339114,2025-03-05 12h01.37.068396 -0500,
78,78,0,filler_square,None,None,None,None,None,None,None,None,None,None,3,1.1047616004943848,None,,,,,0,0,0,0,0,78,78,174,222.56266736984253,,,,,,,,,,,,,,,,,,,,,,,,,,,,,,,,,,,,,,,,,,,,,,,,,,,,,,,,,,,,,,,,,,,,,,,,,,,,,,,,,119.84863489611813,98.30056753391881,62.26688803219674,74.64339987710639,142.42654684001593,142.42654684001593,2.2,2.22,-182,267,0,-254,205,-265,222.547837972641,222.54788041114807,222.55003833770752,222.56266736984253,222.7126841545105,222.7126841545105,222.7126841545105,222.7126841545105,222.7126841545105,222.7126841545105,222.7126841545105,223.6804494857788,3,1.1047616004943848,None,,,,,,,,,,,,,,,,,,194,3,2025-03-05_12h01.26.556,comp,2024.2.4,60.06148911339114,2025-03-05 12h01.37.068396 -0500,
79,79,0,critical,dwh,20.0,2.1,upper,141.0,141.0,125.0,200.0,200.0,125.0,2,0.8929059505462646,None,,,,,0,0,0,0,0,79,79,31,223.69574570655823,,,,,,,,,,,,,,,,,,,,,,,,,,,,,,,,,,,,,,,,,,,,,,,,,,,,,,,,,,,,,,,,,,,,,,,,,,,,,,,,,141.0,141.0,125.0,200.0,200.0,125.0,2.1,2.11,-266,265,0,257,258,-280,223.68120503425598,223.68124294281006,223.6836748123169,223.69574570655823,223.84617590904236,223.84617590904236,223.84617590904236,223.84617590904236,223.84617590904236,223.84617590904236,223.84617590904236,224.5971827507019,2,0.8929059505462646,None,,,,,,,,,,,,,,,,,,194,3,2025-03-05_12h01.26.556,comp,2024.2.4,60.06148911339114,2025-03-05 12h01.37.068396 -0500,
80,80,0,critical,whd,20.0,2.1,lower,57.0,133.0,133.0,57.0,78.0,78.0,2,1.6866941452026367,None,,,,,0,0,0,0,0,80,80,14,224.61284828186035,,,,,,,,,,,,,,,,,,,,,,,,,,,,,,,,,,,,,,,,,,,,,,,,,,,,,,,,,,,,,,,,,,,,,,,,,,,,,,,,,57.0,133.0,133.0,57.0,78.0,78.0,2.1,2.12,-191,-285,0,-254,164,272,224.59798908233643,224.59802865982056,224.60018253326416,224.61284828186035,224.7627604007721,224.7627604007721,224.7627604007721,224.7627604007721,224.7627604007721,224.7627604007721,224.7627604007721,226.31367683410645,2,1.6866941452026367,None,,,,,,,,,,,,,,,,,,194,3,2025-03-05_12h01.26.556,comp,2024.2.4,60.06148911339114,2025-03-05 12h01.37.068396 -0500,
81,81,0,critical,whd,35.0,3.0,lower,57.0,133.0,133.0,57.0,70.0,70.0,2,1.4434394836425781,None,,,,,0,0,0,0,0,81,81,86,226.32898259162903,,,,,,,,,,,,,,,,,,,,,,,,,,,,,,,,,,,,,,,,,,,,,,,,,,,,,,,,,,,,,,,,,,,,,,,,,,,,,,,,,57.0,133.0,133.0,57.0,70.0,70.0,3.0,3.1,-191,284,0,17,160,-262,226.31448340415955,226.314523935318,226.31711506843567,226.32898259162903,226.47923040390015,226.47923040390015,226.47923040390015,226.47923040390015,226.47923040390015,226.47923040390015,226.47923040390015,227.7803316116333,2,1.4434394836425781,None,,,,,,,,,,,,,,,,,,194,3,2025-03-05_12h01.26.556,comp,2024.2.4,60.06148911339114,2025-03-05 12h01.37.068396 -0500,
82,82,0,critical,dwh,35.0,1.0,upper,127.0,127.0,125.0,200.0,200.0,125.0,3,1.344515323638916,None,,,,,0,0,0,0,0,82,82,61,227.7959325313568,,,,,,,,,,,,,,,,,,,,,,,,,,,,,,,,,,,,,,,,,,,,,,,,,,,,,,,,,,,,,,,,,,,,,,,,,,,,,,,,,127.0,127.0,125.0,200.0,200.0,125.0,1.0,1.1,-740,282,-480,270,-222,275,227.7811405658722,227.7811815738678,227.78361558914185,227.7959325313568,227.9461133480072,227.9461133480072,227.9461133480072,227.9461133480072,227.9461133480072,227.9461133480072,227.9461133480072,229.14730215072632,3,1.344515323638916,None,,,,,,,,,,,,,,,,,,194,3,2025-03-05_12h01.26.556,comp,2024.2.4,60.06148911339114,2025-03-05 12h01.37.068396 -0500,
83,83,0,critical,whd,20.0,3.0,upper,125.0,200.0,200.0,125.0,141.0,141.0,1,1.1845293045043945,None,,,,,0,0,0,0,0,83,83,93,229.16296458244324,,,,,,,,,,,,,,,,,,,,,,,,,,,,,,,,,,,,,,,,,,,,,,,,,,,,,,,,,,,,,,,,,,,,,,,,,,,,,,,,,125.0,200.0,200.0,125.0,141.0,141.0,3.0,3.1,-258,286,0,-10,229,-277,229.1480677127838,229.14810633659363,229.15018486976624,229.16296458244324,229.31269025802612,229.31269025802612,229.31269025802612,229.31269025802612,229.31269025802612,229.31269025802612,229.31269025802612,230.36385869979858,1,1.1845293045043945,None,,,,,,,,,,,,,,,,,,194,3,2025-03-05_12h01.26.556,comp,2024.2.4,60.06148911339114,2025-03-05 12h01.37.068396 -0500,
84,84,0,critical,dwh,35.0,3.0,upper,127.0,127.0,125.0,200.0,200.0,125.0,2,1.0989680290222168,None,,,,,0,0,0,0,0,84,84,63,230.37898921966553,,,,,,,,,,,,,,,,,,,,,,,,,,,,,,,,,,,,,,,,,,,,,,,,,,,,,,,,,,,,,,,,,,,,,,,,,,,,,,,,,127.0,127.0,125.0,200.0,200.0,125.0,3.0,3.2,-260,-262,0,-6,258,260,230.36462926864624,230.3646695613861,230.36687803268433,230.37898921966553,230.52942824363708,230.52942824363708,230.52942824363708,230.52942824363708,230.52942824363708,230.52942824363708,230.52942824363708,231.48080682754517,2,1.0989680290222168,None,,,,,,,,,,,,,,,,,,194,3,2025-03-05_12h01.26.556,comp,2024.2.4,60.06148911339114,2025-03-05 12h01.37.068396 -0500,
85,85,0,filler_random,None,None,None,None,None,None,None,None,None,None,1,1.0601425170898438,None,,,,,0,0,0,0,0,85,85,137,231.49611258506775,,,,,,,,,,,,,,,,,,,,,,,,,,,,,,,,,,,,,,,,,,,,,,,,,,,,,,,,,,,,,,,,,,,,,,,,,,,,,,,,,132.85806402528954,176.66403707295947,161.051869356945,84.49780928917228,93.17174638113966,140.96219903588195,1.0,1.1,-707,285,-480,279,-271,250,231.48182463645935,231.48186612129211,231.48426508903503,231.49611258506775,231.64642453193665,231.64642453193665,231.64642453193665,231.64642453193665,231.64642453193665,231.64642453193665,231.64642453193665,232.5638074874878,1,1.0601425170898438,None,,,,,,,,,,,,,,,,,,194,3,2025-03-05_12h01.26.556,comp,2024.2.4,60.06148911339114,2025-03-05 12h01.37.068396 -0500,
86,86,0,critical,dhw,35.0,1.0,lower,70.0,70.0,133.0,57.0,57.0,133.0,3,1.0506260395050049,None,,,,,0,0,0,0,0,86,86,48,232.57930731773376,,,,,,,,,,,,,,,,,,,,,,,,,,,,,,,,,,,,,,,,,,,,,,,,,,,,,,,,,,,,,,,,,,,,,,,,,,,,,,,,,70.0,70.0,133.0,57.0,57.0,133.0,1.0,1.3,320,-265,480,-276,671,-271,232.56458711624146,232.56462717056274,232.56723618507385,232.57930731773376,232.72926712036133,232.72926712036133,232.72926712036133,232.72926712036133,232.72926712036133,232.72926712036133,232.72926712036133,233.64706659317017,3,1.0506260395050049,None,,,,,,,,,,,,,,,,,,194,3,2025-03-05_12h01.26.556,comp,2024.2.4,60.06148911339114,2025-03-05 12h01.37.068396 -0500,
87,87,0,critical,wdh,35.0,2.1,lower,57.0,133.0,70.0,70.0,133.0,57.0,3,2.253202438354492,None,,,,,0,0,0,0,0,87,87,8,233.66230416297913,,,,,,,,,,,,,,,,,,,,,,,,,,,,,,,,,,,,,,,,,,,,,,,,,,,,,,,,,,,,,,,,,,,,,,,,,,,,,,,,,57.0,133.0,70.0,70.0,133.0,57.0,2.1,2.12,-198,-259,0,-285,160,283,233.6478555202484,233.6478967666626,233.65035891532898,233.66230416297913,233.81286478042603,233.81286478042603,233.81286478042603,233.81286478042603,233.81286478042603,233.81286478042603,233.81286478042603,235.9301962852478,3,2.253202438354492,None,,,,,,,,,,,,,,,,,,194,3,2025-03-05_12h01.26.556,comp,2024.2.4,60.06148911339114,2025-03-05 12h01.37.068396 -0500,
88,88,0,critical,hdw,35.0,2.1,upper,200.0,125.0,127.0,127.0,125.0,200.0,3,2.538236618041992,None,,,,,0,0,0,0,0,88,88,45,235.94563746452332,,,,,,,,,,,,,,,,,,,,,,,,,,,,,,,,,,,,,,,,,,,,,,,,,,,,,,,,,,,,,,,,,,,,,,,,,,,,,,,,,200.0,125.0,127.0,127.0,125.0,200.0,2.1,2.11,-222,253,0,273,260,-258,235.93099355697632,235.93103456497192,235.93340158462524,235.94563746452332,236.09605193138123,236.09605193138123,236.09605193138123,236.09605193138123,236.09605193138123,236.09605193138123,236.09605193138123,238.49711275100708,3,2.538236618041992,None,,,,,,,,,,,,,,,,,,194,3,2025-03-05_12h01.26.556,comp,2024.2.4,60.06148911339114,2025-03-05 12h01.37.068396 -0500,
89,89,0,critical,wdh,35.0,1.0,lower,57.0,133.0,70.0,70.0,133.0,57.0,3,4.522874593734741,None,,,,,0,0,0,0,0,89,89,72,238.51232314109802,,,,,,,,,,,,,,,,,,,,,,,,,,,,,,,,,,,,,,,,,,,,,,,,,,,,,,,,,,,,,,,,,,,,,,,,,,,,,,,,,57.0,133.0,70.0,70.0,133.0,57.0,1.0,1.2,-198,-20,0,-9,160,15,238.49787616729736,238.49791717529297,238.50031638145447,238.51232314109802,238.66249465942383,238.66249465942383,238.66249465942383,238.66249465942383,238.66249465942383,238.66249465942383,238.66249465942383,243.04708242416382,3,4.522874593734741,None,,,,,,,,,,,,,,,,,,194,3,2025-03-05_12h01.26.556,comp,2024.2.4,60.06148911339114,2025-03-05 12h01.37.068396 -0500,
90,90,0,critical,dwh,35.0,3.0,lower,70.0,70.0,57.0,133.0,133.0,57.0,2,4.0622007846832275,None,,,,,0,0,0,0,0,90,90,62,243.06226325035095,,,,,,,,,,,,,,,,,,,,,,,,,,,,,,,,,,,,,,,,,,,,,,,,,,,,,,,,,,,,,,,,,,,,,,,,,,,,,,,,,70.0,70.0,57.0,133.0,133.0,57.0,3.0,3.2,-198,-276,0,-20,191,255,243.04786086082458,243.0479018688202,243.0503158569336,243.06226325035095,243.21282315254211,243.21282315254211,243.21282315254211,243.21282315254211,243.21282315254211,243.21282315254211,243.21282315254211,247.13024306297302,2,4.0622007846832275,None,,,,,,,,,,,,,,,,,,194,3,2025-03-05_12h01.26.556,comp,2024.2.4,60.06148911339114,2025-03-05 12h01.37.068396 -0500,
91,91,0,filler_square,None,None,None,None,None,None,None,None,None,None,3,3.5943171977996826,None,,,,,0,0,0,0,0,91,91,206,247.14586758613586,,,,,,,,,,,,,,,,,,,,,,,,,,,,,,,,,,,,,,,,,,,,,,,,,,,,,,,,,,,,,,,,,,,,,,,,,,,,,,,,,74.50901659160981,72.3359074238504,77.45071491179398,77.45071491179398,71.17449562233396,72.93475058536835,2.1,2.12,-171,-285,0,-285,171,285,247.13122296333313,247.13126492500305,247.1337366104126,247.14586758613586,247.2957684993744,247.2957684993744,247.2957684993744,247.2957684993744,247.2957684993744,247.2957684993744,247.2957684993744,250.74679493904114,3,3.5943171977996826,None,,,,,,,,,,,,,,,,,,194,3,2025-03-05_12h01.26.556,comp,2024.2.4,60.06148911339114,2025-03-05 12h01.37.068396 -0500,
92,92,0,critical,dwh,35.0,4.0,upper,127.0,127.0,125.0,200.0,200.0,125.0,2,2.9457263946533203,None,,,,,0,0,0,0,0,92,92,65,250.76251578330994,,,,,,,,,,,,,,,,,,,,,,,,,,,,,,,,,,,,,,,,,,,,,,,,,,,,,,,,,,,,,,,,,,,,,,,,,,,,,,,,,127.0,127.0,125.0,200.0,200.0,125.0,4.0,4.2,-260,13,0,-261,258,12,250.74758338928223,250.74762606620789,250.75018858909607,250.76251578330994,250.91244649887085,250.91244649887085,250.91244649887085,250.91244649887085,250.91244649887085,250.91244649887085,250.91244649887085,253.71373581886292,2,2.9457263946533203,None,,,,,,,,,,,,,,,,,,194,3,2025-03-05_12h01.26.556,comp,2024.2.4,60.06148911339114,2025-03-05 12h01.37.068396 -0500,
93,93,0,critical,whd,20.0,1.0,lower,57.0,133.0,133.0,57.0,78.0,78.0,1,3.083390712738037,None,,,,,0,0,0,0,0,93,93,90,253.72917246818542,,,,,,,,,,,,,,,,,,,,,,,,,,,,,,,,,,,,,,,,,,,,,,,,,,,,,,,,,,,,,,,,,,,,,,,,,,,,,,,,,57.0,133.0,133.0,57.0,78.0,78.0,1.0,1.3,289,-285,480,-278,644,-271,253.71451234817505,253.7145538330078,253.71662044525146,253.72917246818542,253.87931728363037,253.87931728363037,253.87931728363037,253.87931728363037,253.87931728363037,253.87931728363037,253.87931728363037,256.83007860183716,1,3.083390712738037,None,,,,,,,,,,,,,,,,,,194,3,2025-03-05_12h01.26.556,comp,2024.2.4,60.06148911339114,2025-03-05 12h01.37.068396 -0500,
94,94,0,filler_random,None,None,None,None,None,None,None,None,None,None,3,0.9588923454284668,None,,,,,0,0,0,0,0,94,94,164,256.84540724754333,,,,,,,,,,,,,,,,,,,,,,,,,,,,,,,,,,,,,,,,,,,,,,,,,,,,,,,,,,,,,,,,,,,,,,,,,,,,,,,,,127.12706253841928,65.88210114210189,184.4780553343149,102.98432541656246,89.67792968879371,187.94777716285256,4.0,4.1,-180,-283,0,-9,241,-272,256.83096647262573,256.8310091495514,256.8335039615631,256.84540724754333,256.99576568603516,256.99576568603516,256.99576568603516,256.99576568603516,256.99576568603516,256.99576568603516,256.99576568603516,257.8135280609131,3,0.9588923454284668,None,,,,,,,,,,,,,,,,,,194,3,2025-03-05_12h01.26.556,comp,2024.2.4,60.06148911339114,2025-03-05 12h01.37.068396 -0500,
95,95,0,filler_square,None,None,None,None,None,None,None,None,None,None,2,1.2002153396606445,None,,,,,0,0,0,0,0,95,95,178,257.8290822505951,,,,,,,,,,,,,,,,,,,,,,,,,,,,,,,,,,,,,,,,,,,,,,,,,,,,,,,,,,,,,,,,,,,,,,,,,,,,,,,,,76.90109958417192,91.44841129116037,103.41625516683717,103.41625516683717,59.91477809735833,95.78458803790575,2.2,2.22,-193,289,0,-260,196,-286,257.81453251838684,257.81457471847534,257.8171555995941,257.8290822505951,257.97903966903687,257.97903966903687,257.97903966903687,257.97903966903687,257.97903966903687,257.97903966903687,257.97903966903687,259.0467417240143,2,1.2002153396606445,None,,,,,,,,,,,,,,,,,,194,3,2025-03-05_12h01.26.556,comp,2024.2.4,60.06148911339114,2025-03-05 12h01.37.068396 -0500,
96,96,0,filler_square,None,None,None,None,None,None,None,None,None,None,3,0.9834527969360352,None,,,,,0,0,0,0,0,96,96,177,259.0622775554657,,,,,,,,,,,,,,,,,,,,,,,,,,,,,,,,,,,,,,,,,,,,,,,,,,,,,,,,,,,,,,,,,,,,,,,,,,,,,,,,,66.9648365579742,81.45345873239833,65.9984820764838,69.59892281801,87.51484556603427,87.51484556603427,4.0,4.2,-172,-8,0,-251,175,12,259.0477056503296,259.047749042511,259.05038690567017,259.0622775554657,259.2123212814331,259.2123212814331,259.2123212814331,259.2123212814331,259.2123212814331,259.2123212814331,259.2123212814331,260.04696226119995,3,0.9834527969360352,None,,,,,,,,,,,,,,,,,,194,3,2025-03-05_12h01.26.556,comp,2024.2.4,60.06148911339114,2025-03-05 12h01.37.068396 -0500,
97,97,0,critical,dwh,20.0,4.0,upper,141.0,141.0,125.0,200.0,200.0,125.0,2,1.358694076538086,None,,,,,0,0,0,0,0,97,97,71,260.0623970031738,,,,,,,,,,,,,,,,,,,,,,,,,,,,,,,,,,,,,,,,,,,,,,,,,,,,,,,,,,,,,,,,,,,,,,,,,,,,,,,,,141.0,141.0,125.0,200.0,200.0,125.0,4.0,4.1,-266,-289,0,11,258,-251,260.04773235321045,260.0477726459503,260.0500240325928,260.0623970031738,260.2128984928131,260.2128984928131,260.2128984928131,260.2128984928131,260.2128984928131,260.2128984928131,260.2128984928131,261.43029952049255,2,1.358694076538086,None,,,,,,,,,,,,,,,,,,194,3,2025-03-05_12h01.26.556,comp,2024.2.4,60.06148911339114,2025-03-05 12h01.37.068396 -0500,
98,98,0,critical,hdw,20.0,4.0,lower,133.0,57.0,78.0,78.0,57.0,133.0,3,1.317549705505371,None,,,,,0,0,0,0,0,98,98,118,261.44574785232544,,,,,,,,,,,,,,,,,,,,,,,,,,,,,,,,,,,,,,,,,,,,,,,,,,,,,,,,,,,,,,,,,,,,,,,,,,,,,,,,,133.0,57.0,78.0,78.0,57.0,133.0,4.0,4.2,-164,-5,0,-279,202,-12,261.4310734272003,261.43111515045166,261.43358182907104,261.44574785232544,261.59562635421753,261.59562635421753,261.59562635421753,261.59562635421753,261.59562635421753,261.59562635421753,261.59562635421753,262.7801625728607,3,1.317549705505371,None,,,,,,,,,,,,,,,,,,194,3,2025-03-05_12h01.26.556,comp,2024.2.4,60.06148911339114,2025-03-05 12h01.37.068396 -0500,
99,99,0,filler_random,None,None,None,None,None,None,None,None,None,None,1,0.9203286170959473,None,,,,,0,0,0,0,0,99,99,135,262.7953886985779,,,,,,,,,,,,,,,,,,,,,,,,,,,,,,,,,,,,,,,,,,,,,,,,,,,,,,,,,,,,,,,,,,,,,,,,,,,,,,,,,125.58768751233889,197.27822849065436,132.9502631300859,129.40183298423943,87.77733166817069,72.75324013094601,4.0,4.2,-259,20,0,-285,197,11,262.78103399276733,262.78107357025146,262.7834737300873,262.7953886985779,262.9457471370697,262.9457471370697,262.9457471370697,262.9457471370697,262.9457471370697,262.9457471370697,262.9457471370697,263.7301287651062,1,0.9203286170959473,None,,,,,,,,,,,,,,,,,,194,3,2025-03-05_12h01.26.556,comp,2024.2.4,60.06148911339114,2025-03-05 12h01.37.068396 -0500,
100,100,0,filler_square,None,None,None,None,None,None,None,None,None,None,1,1.162766456604004,None,,,,,0,0,0,0,0,100,100,205,263.7454812526703,,,,,,,,,,,,,,,,,,,,,,,,,,,,,,,,,,,,,,,,,,,,,,,,,,,,,,,,,,,,,,,,,,,,,,,,,,,,,,,,,97.92208220247015,128.38106432355622,107.85216892932729,93.78481759277899,132.48223702413858,132.48223702413858,2.1,2.12,-207,-269,0,-259,209,269,263.7310862541199,263.7311272621155,263.7335548400879,263.7454812526703,263.896094083786,263.896094083786,263.896094083786,263.896094083786,263.896094083786,263.896094083786,263.896094083786,264.9135389328003,1,1.162766456604004,None,,,,,,,,,,,,,,,,,,194,3,2025-03-05_12h01.26.556,comp,2024.2.4,60.06148911339114,2025-03-05 12h01.37.068396 -0500,
101,101,0,critical,dhw,35.0,4.0,lower,70.0,70.0,133.0,57.0,57.0,133.0,3,3.1864078044891357,None,,,,,0,0,0,0,0,101,101,52,264.92898654937744,,,,,,,,,,,,,,,,,,,,,,,,,,,,,,,,,,,,,,,,,,,,,,,,,,,,,,,,,,,,,,,,,,,,,,,,,,,,,,,,,70.0,70.0,133.0,57.0,57.0,133.0,4.0,4.2,-160,7,0,-264,191,12,264.91430044174194,264.9143419265747,264.91686820983887,264.92898654937744,265.0789089202881,265.0789089202881,265.0789089202881,265.0789089202881,265.0789089202881,265.0789089202881,265.0789089202881,268.13003945350647,3,3.1864078044891357,None,,,,,,,,,,,,,,,,,,194,3,2025-03-05_12h01.26.556,comp,2024.2.4,60.06148911339114,2025-03-05 12h01.37.068396 -0500,
102,102,0,critical,hdw,35.0,2.1,lower,133.0,57.0,70.0,70.0,57.0,133.0,1,5.300216913223267,None,,,,,0,0,0,0,0,102,102,20,268.14539551734924,,,,,,,,,,,,,,,,,,,,,,,,,,,,,,,,,,,,,,,,,,,,,,,,,,,,,,,,,,,,,,,,,,,,,,,,,,,,,,,,,133.0,57.0,70.0,70.0,57.0,133.0,2.1,2.11,-160,268,0,288,198,-278,268.1308138370514,268.1308538913727,268.1331820487976,268.14539551734924,268.29569959640503,268.29569959640503,268.29569959640503,268.29569959640503,268.29569959640503,268.29569959640503,268.29569959640503,273.4468502998352,1,5.300216913223267,None,,,,,,,,,,,,,,,,,,194,3,2025-03-05_12h01.26.556,comp,2024.2.4,60.06148911339114,2025-03-05 12h01.37.068396 -0500,
103,103,0,critical,whd,35.0,2.1,lower,57.0,133.0,133.0,57.0,70.0,70.0,2,1.1501498222351074,None,,,,,0,0,0,0,0,103,103,12,273.462322473526,,,,,,,,,,,,,,,,,,,,,,,,,,,,,,,,,,,,,,,,,,,,,,,,,,,,,,,,,,,,,,,,,,,,,,,,,,,,,,,,,57.0,133.0,133.0,57.0,70.0,70.0,2.1,2.11,-191,267,0,256,160,-265,273.4476361274719,273.4476764202118,273.4498043060303,273.462322473526,273.61254835128784,273.61254835128784,273.61254835128784,273.61254835128784,273.61254835128784,273.61254835128784,273.61254835128784,274.629900932312,2,1.1501498222351074,None,,,,,,,,,,,,,,,,,,194,3,2025-03-05_12h01.26.556,comp,2024.2.4,60.06148911339114,2025-03-05 12h01.37.068396 -0500,
104,104,0,filler_random,None,None,None,None,None,None,None,None,None,None,3,0.9837117195129395,None,,,,,0,0,0,0,0,104,104,153,274.64538383483887,,,,,,,,,,,,,,,,,,,,,,,,,,,,,,,,,,,,,,,,,,,,,,,,,,,,,,,,,,,,,,,,,,,,,,,,,,,,,,,,,107.79772378306518,84.06387671995572,69.4766401226755,86.94628249133774,194.11158870084066,153.17184286786133,2.2,2.21,-182,-257,0,282,216,252,274.6308059692383,274.6308479309082,274.6331946849823,274.64538383483887,274.79560446739197,274.79560446739197,274.79560446739197,274.79560446739197,274.79560446739197,274.79560446739197,274.79560446739197,275.64682626724243,3,0.9837117195129395,None,,,,,,,,,,,,,,,,,,194,3,2025-03-05_12h01.26.556,comp,2024.2.4,60.06148911339114,2025-03-05 12h01.37.068396 -0500,
105,105,0,critical,hwd,20.0,2.1,lower,133.0,57.0,57.0,133.0,78.0,78.0,1,2.4852871894836426,None,,,,,0,0,0,0,0,105,105,42,275.6620600223541,,,,,,,,,,,,,,,,,,,,,,,,,,,,,,,,,,,,,,,,,,,,,,,,,,,,,,,,,,,,,,,,,,,,,,,,,,,,,,,,,133.0,57.0,57.0,133.0,78.0,78.0,2.1,2.11,-191,276,0,284,202,-269,275.6476321220398,275.6476728916168,275.650283575058,275.6620600223541,275.81235003471375,275.81235003471375,275.81235003471375,275.81235003471375,275.81235003471375,275.81235003471375,275.81235003471375,278.1634027957916,1,2.4852871894836426,None,,,,,,,,,,,,,,,,,,194,3,2025-03-05_12h01.26.556,comp,2024.2.4,60.06148911339114,2025-03-05 12h01.37.068396 -0500,
106,106,0,critical,wdh,20.0,4.0,upper,125.0,200.0,141.0,141.0,200.0,125.0,1,1.1049885749816895,None,,,,,0,0,0,0,0,106,106,83,278.17879724502563,,,,,,,,,,,,,,,,,,,,,,,,,,,,,,,,,,,,,,,,,,,,,,,,,,,,,,,,,,,,,,,,,,,,,,,,,,,,,,,,,125.0,200.0,141.0,141.0,200.0,125.0,4.0,4.1,-266,-251,0,5,229,-256,278.1641983985901,278.16423892974854,278.1667070388794,278.17879724502563,278.329087972641,278.329087972641,278.329087972641,278.329087972641,278.329087972641,278.329087972641,278.329087972641,279.297221660614,1,1.1049885749816895,None,,,,,,,,,,,,,,,,,,194,3,2025-03-05_12h01.26.556,comp,2024.2.4,60.06148911339114,2025-03-05 12h01.37.068396 -0500,
107,107,0,filler_square,None,None,None,None,None,None,None,None,None,None,2,0.7712883949279785,None,,,,,0,0,0,0,0,107,107,180,279.3123073577881,,,,,,,,,,,,,,,,,,,,,,,,,,,,,,,,,,,,,,,,,,,,,,,,,,,,,,,,,,,,,,,,,,,,,,,,,,,,,,,,,62.4495596853342,78.04731329456793,150.69028817868858,150.69028817868858,118.54789663558842,148.90908044140454,3.0,3.2,-210,-266,0,-19,246,258,279.2983031272888,279.2983441352844,279.3013656139374,279.3123073577881,279.462233543396,279.462233543396,279.462233543396,279.462233543396,279.462233543396,279.462233543396,279.462233543396,280.0966429710388,2,0.7712883949279785,None,,,,,,,,,,,,,,,,,,194,3,2025-03-05_12h01.26.556,comp,2024.2.4,60.06148911339114,2025-03-05 12h01.37.068396 -0500,
108,108,0,critical,wdh,35.0,3.0,lower,57.0,133.0,70.0,70.0,133.0,57.0,3,0.797370195388794,None,,,,,0,0,0,0,0,108,108,74,280.11201000213623,,,,,,,,,,,,,,,,,,,,,,,,,,,,,,,,,,,,,,,,,,,,,,,,,,,,,,,,,,,,,,,,,,,,,,,,,,,,,,,,,57.0,133.0,70.0,70.0,133.0,57.0,3.0,3.2,-198,-262,0,-10,160,263,280.0974819660187,280.0975241661072,280.10013580322266,280.11201000213623,280.2622480392456,280.2622480392456,280.2622480392456,280.2622480392456,280.2622480392456,280.2622480392456,280.2622480392456,280.9135010242462,3,0.797370195388794,None,,,,,,,,,,,,,,,,,,194,3,2025-03-05_12h01.26.556,comp,2024.2.4,60.06148911339114,2025-03-05 12h01.37.068396 -0500,
109,109,0,critical,dwh,35.0,4.0,lower,70.0,70.0,57.0,133.0,133.0,57.0,2,0.7702195644378662,None,,,,,0,0,0,0,0,109,109,64,280.9289653301239,,,,,,,,,,,,,,,,,,,,,,,,,,,,,,,,,,,,,,,,,,,,,,,,,,,,,,,,,,,,,,,,,,,,,,,,,,,,,,,,,70.0,70.0,57.0,133.0,133.0,57.0,4.0,4.1,-198,-271,0,7,191,-269,280.91424345970154,280.91428422927856,280.9167420864105,280.9289653301239,281.0789828300476,281.0789828300476,281.0789828300476,281.0789828300476,281.0789828300476,281.0789828300476,281.0789828300476,281.7133095264435,2,0.7702195644378662,None,,,,,,,,,,,,,,,,,,194,3,2025-03-05_12h01.26.556,comp,2024.2.4,60.06148911339114,2025-03-05 12h01.37.068396 -0500,
110,110,0,filler_square,None,None,None,None,None,None,None,None,None,None,3,0.7864692211151123,None,,,,,0,0,0,0,0,110,110,188,281.7288119792938,,,,,,,,,,,,,,,,,,,,,,,,,,,,,,,,,,,,,,,,,,,,,,,,,,,,,,,,,,,,,,,,,,,,,,,,,,,,,,,,,87.91532130497669,101.76717485945395,100.35828928703631,106.90214920407729,165.87893392317795,165.87893392317795,3.0,3.1,-200,263,0,14,232,-251,281.7142536640167,281.7142958641052,281.7167978286743,281.7288119792938,281.8790121078491,281.8790121078491,281.8790121078491,281.8790121078491,281.8790121078491,281.8790121078491,281.8790121078491,282.5300557613373,3,0.7864692211151123,None,,,,,,,,,,,,,,,,,,194,3,2025-03-05_12h01.26.556,comp,2024.2.4,60.06148911339114,2025-03-05 12h01.37.068396 -0500,
111,111,0,critical,hwd,35.0,4.0,lower,133.0,57.0,57.0,133.0,70.0,70.0,1,0.8018326759338379,None,,,,,0,0,0,0,0,111,111,100,282.5454182624817,,,,,,,,,,,,,,,,,,,,,,,,,,,,,,,,,,,,,,,,,,,,,,,,,,,,,,,,,,,,,,,,,,,,,,,,,,,,,,,,,133.0,57.0,57.0,133.0,70.0,70.0,4.0,4.2,-191,10,0,-277,198,-11,282.53082036972046,282.5308587551117,282.53319454193115,282.5454182624817,282.6955041885376,282.6955041885376,282.6955041885376,282.6955041885376,282.6955041885376,282.6955041885376,282.6955041885376,283.36332154273987,1,0.8018326759338379,None,,,,,,,,,,,,,,,,,,194,3,2025-03-05_12h01.26.556,comp,2024.2.4,60.06148911339114,2025-03-05 12h01.37.068396 -0500,
112,112,0,filler_random,None,None,None,None,None,None,None,None,None,None,2,0.7685515880584717,None,,,,,0,0,0,0,0,112,112,156,283.37877321243286,,,,,,,,,,,,,,,,,,,,,,,,,,,,,,,,,,,,,,,,,,,,,,,,,,,,,,,,,,,,,,,,,,,,,,,,,,,,,,,,,63.29250704981632,95.24285126119224,141.84026039989737,99.1484648557048,68.89192148717866,155.6775793297018,2.2,2.21,-193,-288,0,285,223,254,283.3642301559448,283.3642704486847,283.3668496608734,283.37877321243286,283.5289294719696,283.5289294719696,283.5289294719696,283.5289294719696,283.5289294719696,283.5289294719696,283.5289294719696,284.1633129119873,2,0.7685515880584717,None,,,,,,,,,,,,,,,,,,194,3,2025-03-05_12h01.26.556,comp,2024.2.4,60.06148911339114,2025-03-05 12h01.37.068396 -0500,
113,113,0,critical,dwh,20.0,3.0,upper,141.0,141.0,125.0,200.0,200.0,125.0,2,1.0562634468078613,None,,,,,0,0,0,0,0,113,113,69,284.1786985397339,,,,,,,,,,,,,,,,,,,,,,,,,,,,,,,,,,,,,,,,,,,,,,,,,,,,,,,,,,,,,,,,,,,,,,,,,,,,,,,,,141.0,141.0,125.0,200.0,200.0,125.0,3.0,3.1,-266,266,0,14,258,-255,284.16409397125244,284.16413402557373,284.1665554046631,284.1786985397339,284.3290903568268,284.3290903568268,284.3290903568268,284.3290903568268,284.3290903568268,284.3290903568268,284.3290903568268,285.24686217308044,2,1.0562634468078613,None,,,,,,,,,,,,,,,,,,194,3,2025-03-05_12h01.26.556,comp,2024.2.4,60.06148911339114,2025-03-05 12h01.37.068396 -0500,
114,114,0,filler_random,None,None,None,None,None,None,None,None,None,None,2,1.085141897201538,None,,,,,0,0,0,0,0,114,114,144,285.26200127601624,,,,,,,,,,,,,,,,,,,,,,,,,,,,,,,,,,,,,,,,,,,,,,,,,,,,,,,,,,,,,,,,,,,,,,,,,,,,,,,,,159.65277155974184,91.31226022247503,151.7469776767204,129.72288163485217,190.82180861033075,97.10558540387473,4.0,4.1,-207,-290,0,-1,209,-264,285.247802734375,285.24784326553345,285.2500205039978,285.26200127601624,285.4124073982239,285.4124073982239,285.4124073982239,285.4124073982239,285.4124073982239,285.4124073982239,285.4124073982239,286.3634190559387,2,1.085141897201538,None,,,,,,,,,,,,,,,,,,194,3,2025-03-05_12h01.26.556,comp,2024.2.4,60.06148911339114,2025-03-05 12h01.37.068396 -0500,
115,115,0,filler_random,None,None,None,None,None,None,None,None,None,None,2,1.441943883895874,None,,,,,0,0,0,0,0,115,115,145,286.37868189811707,,,,,,,,,,,,,,,,,,,,,,,,,,,,,,,,,,,,,,,,,,,,,,,,,,,,,,,,,,,,,,,,,,,,,,,,,,,,,,,,,183.87435741855862,122.47067005048675,173.19456193358803,194.20029697283107,153.44284055529715,191.95923524711057,4.0,4.2,-254,-10,0,-285,289,-16,286.36429262161255,286.364333152771,286.3667504787445,286.37868189811707,286.5290377140045,286.5290377140045,286.5290377140045,286.5290377140045,286.5290377140045,286.5290377140045,286.5290377140045,287.8302001953125,2,1.441943883895874,None,,,,,,,,,,,,,,,,,,194,3,2025-03-05_12h01.26.556,comp,2024.2.4,60.06148911339114,2025-03-05 12h01.37.068396 -0500,
116,116,0,critical,hwd,35.0,1.0,upper,200.0,125.0,125.0,200.0,127.0,127.0,1,2.1174204349517822,None,,,,,0,0,0,0,0,116,116,97,287.8456244468689,,,,,,,,,,,,,,,,,,,,,,,,,,,,,,,,,,,,,,,,,,,,,,,,,,,,,,,,,,,,,,,,,,,,,,,,,,,,,,,,,200.0,125.0,125.0,200.0,127.0,127.0,1.0,1.1,-738,257,-480,277,-220,271,287.83100748062134,287.8310475349426,287.8336079120636,287.8456244468689,287.9958827495575,287.9958827495575,287.9958827495575,287.9958827495575,287.9958827495575,287.9958827495575,287.9958827495575,289.98022866249084,1,2.1174204349517822,None,,,,,,,,,,,,,,,,,,194,3,2025-03-05_12h01.26.556,comp,2024.2.4,60.06148911339114,2025-03-05 12h01.37.068396 -0500,
117,117,0,critical,dhw,20.0,1.0,lower,78.0,78.0,133.0,57.0,57.0,133.0,3,1.0881857872009277,None,,,,,0,0,0,0,0,117,117,54,289.9954092502594,,,,,,,,,,,,,,,,,,,,,,,,,,,,,,,,,,,,,,,,,,,,,,,,,,,,,,,,,,,,,,,,,,,,,,,,,,,,,,,,,78.0,78.0,133.0,57.0,57.0,133.0,1.0,1.1,-644,260,-480,283,-289,259,289.9810483455658,289.98108863830566,289.9834723472595,289.9954092502594,290.1454122066498,290.1454122066498,290.1454122066498,290.1454122066498,290.1454122066498,290.1454122066498,290.1454122066498,291.0966136455536,3,1.0881857872009277,None,,,,,,,,,,,,,,,,,,194,3,2025-03-05_12h01.26.556,comp,2024.2.4,60.06148911339114,2025-03-05 12h01.37.068396 -0500,
118,118,0,critical,whd,35.0,4.0,lower,57.0,133.0,133.0,57.0,70.0,70.0,1,2.8760762214660645,None,,,,,0,0,0,0,0,118,118,88,291.1119577884674,,,,,,,,,,,,,,,,,,,,,,,,,,,,,,,,,,,,,,,,,,,,,,,,,,,,,,,,,,,,,,,,,,,,,,,,,,,,,,,,,57.0,133.0,133.0,57.0,70.0,70.0,4.0,4.2,-191,-13,0,-284,160,8,291.09739875793457,291.09743881225586,291.10002541542053,291.1119577884674,291.2620806694031,291.2620806694031,291.2620806694031,291.2620806694031,291.2620806694031,291.2620806694031,291.2620806694031,293.9967133998871,1,2.8760762214660645,None,,,,,,,,,,,,,,,,,,194,3,2025-03-05_12h01.26.556,comp,2024.2.4,60.06148911339114,2025-03-05 12h01.37.068396 -0500,
119,119,0,critical,whd,35.0,2.1,lower,57.0,133.0,133.0,57.0,70.0,70.0,2,0.991600513458252,None,,,,,0,0,0,0,0,119,119,36,294.0122809410095,,,,,,,,,,,,,,,,,,,,,,,,,,,,,,,,,,,,,,,,,,,,,,,,,,,,,,,,,,,,,,,,,,,,,,,,,,,,,,,,,57.0,133.0,133.0,57.0,70.0,70.0,2.1,2.12,-191,-259,0,-252,160,258,293.9975280761719,293.9975678920746,294.00010871887207,294.0122809410095,294.16202092170715,294.16202092170715,294.16202092170715,294.16202092170715,294.16202092170715,294.16202092170715,294.16202092170715,295.01318979263306,2,0.991600513458252,None,,,,,,,,,,,,,,,,,,194,3,2025-03-05_12h01.26.556,comp,2024.2.4,60.06148911339114,2025-03-05 12h01.37.068396 -0500,
120,120,0,critical,whd,20.0,4.0,upper,125.0,200.0,200.0,125.0,141.0,141.0,1,1.0545449256896973,None,,,,,0,0,0,0,0,120,120,95,295.02892875671387,,,,,,,,,,,,,,,,,,,,,,,,,,,,,,,,,,,,,,,,,,,,,,,,,,,,,,,,,,,,,,,,,,,,,,,,,,,,,,,,,125.0,200.0,200.0,125.0,141.0,141.0,4.0,4.1,-258,-279,0,-18,229,-288,295.01398968696594,295.01403188705444,295.0164315700531,295.02892875671387,295.1790030002594,295.1790030002594,295.1790030002594,295.1790030002594,295.1790030002594,295.1790030002594,295.1790030002594,296.096999168396,1,1.0545449256896973,None,,,,,,,,,,,,,,,,,,194,3,2025-03-05_12h01.26.556,comp,2024.2.4,60.06148911339114,2025-03-05 12h01.37.068396 -0500,
121,121,0,critical,hwd,20.0,2.1,lower,133.0,57.0,57.0,133.0,78.0,78.0,2,0.9716131687164307,None,,,,,0,0,0,0,0,121,121,18,296.1119635105133,,,,,,,,,,,,,,,,,,,,,,,,,,,,,,,,,,,,,,,,,,,,,,,,,,,,,,,,,,,,,,,,,,,,,,,,,,,,,,,,,133.0,57.0,57.0,133.0,78.0,78.0,2.1,2.12,-191,-266,0,-262,202,266,296.0977957248688,296.09783458709717,296.1004219055176,296.1119635105133,296.2621080875397,296.2621080875397,296.2621080875397,296.2621080875397,296.2621080875397,296.2621080875397,296.2621080875397,297.09666180610657,2,0.9716131687164307,None,,,,,,,,,,,,,,,,,,194,3,2025-03-05_12h01.26.556,comp,2024.2.4,60.06148911339114,2025-03-05 12h01.37.068396 -0500,
122,122,0,critical,dwh,20.0,4.0,lower,78.0,78.0,57.0,133.0,133.0,57.0,2,1.1335759162902832,None,,,,,0,0,0,0,0,122,122,70,297.11199164390564,,,,,,,,,,,,,,,,,,,,,,,,,,,,,,,,,,,,,,,,,,,,,,,,,,,,,,,,,,,,,,,,,,,,,,,,,,,,,,,,,78.0,78.0,57.0,133.0,133.0,57.0,4.0,4.2,-202,20,0,-254,191,-14,297.0974509716034,297.0974922180176,297.1000680923462,297.11199164390564,297.2620015144348,297.2620015144348,297.2620015144348,297.2620015144348,297.2620015144348,297.2620015144348,297.2620015144348,298.24688959121704,2,1.1335759162902832,None,,,,,,,,,,,,,,,,,,194,3,2025-03-05_12h01.26.556,comp,2024.2.4,60.06148911339114,2025-03-05 12h01.37.068396 -0500,
123,123,0,filler_square,None,None,None,None,None,None,None,None,None,None,3,1.5579674243927002,None,,,,,0,0,0,0,0,123,123,207,298.26226449012756,,,,,,,,,,,,,,,,,,,,,,,,,,,,,,,,,,,,,,,,,,,,,,,,,,,,,,,,,,,,,,,,,,,,,,,,,,,,,,,,,85.83375767284058,78.49311259886979,81.01513516188348,88.63837312565023,136.74673284465104,136.74673284465104,4.0,4.2,-180,13,0,-287,209,-13,298.24784898757935,298.24789118766785,298.2500786781311,298.26226449012756,298.41212272644043,298.41212272644043,298.41212272644043,298.41212272644043,298.41212272644043,298.41212272644043,298.41212272644043,299.82977080345154,3,1.5579674243927002,None,,,,,,,,,,,,,,,,,,194,3,2025-03-05_12h01.26.556,comp,2024.2.4,60.06148911339114,2025-03-05 12h01.37.068396 -0500,
124,124,0,critical,whd,35.0,4.0,upper,125.0,200.0,200.0,125.0,127.0,127.0,1,0.910423994064331,None,,,,,0,0,0,0,0,124,124,89,299.8454620838165,,,,,,,,,,,,,,,,,,,,,,,,,,,,,,,,,,,,,,,,,,,,,,,,,,,,,,,,,,,,,,,,,,,,,,,,,,,,,,,,,125.0,200.0,200.0,125.0,127.0,127.0,4.0,4.2,-258,19,0,-259,222,-13,299.8305661678314,299.83060812950134,299.8333508968353,299.8454620838165,299.99559593200684,299.99559593200684,299.99559593200684,299.99559593200684,299.99559593200684,299.99559593200684,299.99559593200684,300.76328706741333,1,0.910423994064331,None,,,,,,,,,,,,,,,,,,194,3,2025-03-05_12h01.26.556,comp,2024.2.4,60.06148911339114,2025-03-05 12h01.37.068396 -0500,
125,125,0,filler_square,None,None,None,None,None,None,None,None,None,None,2,0.7768394947052002,None,,,,,0,0,0,0,0,125,125,200,300.7789499759674,,,,,,,,,,,,,,,,,,,,,,,,,,,,,,,,,,,,,,,,,,,,,,,,,,,,,,,,,,,,,,,,,,,,,,,,,,,,,,,,,99.92543873242047,62.665273383810614,114.57056671266687,114.57056671266687,69.45329783958806,66.54084809446813,3.0,3.1,-185,255,0,19,187,-275,300.76426219940186,300.7643039226532,300.76675963401794,300.7789499759674,300.92876052856445,300.92876052856445,300.92876052856445,300.92876052856445,300.92876052856445,300.92876052856445,300.92876052856445,301.5630714893341,2,0.7768394947052002,None,,,,,,,,,,,,,,,,,,194,3,2025-03-05_12h01.26.556,comp,2024.2.4,60.06148911339114,2025-03-05 12h01.37.068396 -0500,
126,126,0,critical,hwd,20.0,4.0,upper,200.0,125.0,125.0,200.0,141.0,141.0,1,0.8338167667388916,None,,,,,0,0,0,0,0,126,126,107,301.57872796058655,,,,,,,,,,,,,,,,,,,,,,,,,,,,,,,,,,,,,,,,,,,,,,,,,,,,,,,,,,,,,,,,,,,,,,,,,,,,,,,,,200.0,125.0,125.0,200.0,141.0,141.0,4.0,4.2,-258,10,0,-284,266,2,301.56381034851074,301.5638496875763,301.56618642807007,301.57872796058655,301.72900009155273,301.72900009155273,301.72900009155273,301.72900009155273,301.72900009155273,301.72900009155273,301.72900009155273,302.4300727844238,1,0.8338167667388916,None,,,,,,,,,,,,,,,,,,194,3,2025-03-05_12h01.26.556,comp,2024.2.4,60.06148911339114,2025-03-05 12h01.37.068396 -0500,
127,127,0,filler_random,None,None,None,None,None,None,None,None,None,None,2,0.8324470520019531,None,,,,,0,0,0,0,0,127,127,136,302.445330619812,,,,,,,,,,,,,,,,,,,,,,,,,,,,,,,,,,,,,,,,,,,,,,,,,,,,,,,,,,,,,,,,,,,,,,,,,,,,,,,,,176.2625590696498,174.51086282663323,135.7894966371514,161.41326670041926,85.45614090861247,77.29776877123201,4.0,4.1,-264,-272,0,16,215,-250,302.4309592247009,302.4309992790222,302.4331181049347,302.445330619812,302.5955812931061,302.5955812931061,302.5955812931061,302.5955812931061,302.5955812931061,302.5955812931061,302.5955812931061,303.2800307273865,2,0.8324470520019531,None,,,,,,,,,,,,,,,,,,194,3,2025-03-05_12h01.26.556,comp,2024.2.4,60.06148911339114,2025-03-05 12h01.37.068396 -0500,
128,128,0,catch,None,None,None,None,None,None,None,None,None,None,1,1.1500773429870605,None,,,,,0,0,0,0,0,128,128,129,303.29547595977783,,,,,,,,,,,,,,,,,,,,,,,,,,,,,,,,,,,,,,,,,,,,,,,,,,,,,,,,,,,,,,,,,,,,,,,,,,,,,,,,,135,190,128,62,129,61,3.0,3.1,-222,251,0,-10,158,-279,303.28105902671814,303.2811028957367,303.28326535224915,303.29547595977783,303.44567251205444,303.44567251205444,303.44567251205444,303.44567251205444,303.44567251205444,303.44567251205444,303.44567251205444,304.4467821121216,1,1.1500773429870605,None,,,,,,,,,,,,,,,,,,194,3,2025-03-05_12h01.26.556,comp,2024.2.4,60.06148911339114,2025-03-05 12h01.37.068396 -0500,
129,129,0,catch,None,None,None,None,None,None,None,None,None,None,1,0.7581374645233154,None,,,,,0,0,0,0,0,129,129,124,304.46212816238403,,,,,,,,,,,,,,,,,,,,,,,,,,,,,,,,,,,,,,,,,,,,,,,,,,,,,,,,,,,,,,,,,,,,,,,,,,,,,,,,,156,169,129,61,95,95,2.1,2.11,-211,265,0,250,174,-258,304.44791078567505,304.4479706287384,304.45045042037964,304.46212816238403,304.61202096939087,304.61202096939087,304.61202096939087,304.61202096939087,304.61202096939087,304.61202096939087,304.61202096939087,305.22978472709656,1,0.7581374645233154,None,,,,,,,,,,,,,,,,,,194,3,2025-03-05_12h01.26.556,comp,2024.2.4,60.06148911339114,2025-03-05 12h01.37.068396 -0500,
130,130,0,critical,dwh,20.0,2.1,lower,78.0,78.0,57.0,133.0,133.0,57.0,2,0.910341739654541,None,,,,,0,0,0,0,0,130,130,30,305.2454311847687,,,,,,,,,,,,,,,,,,,,,,,,,,,,,,,,,,,,,,,,,,,,,,,,,,,,,,,,,,,,,,,,,,,,,,,,,,,,,,,,,78.0,78.0,57.0,133.0,133.0,57.0,2.1,2.11,-202,256,0,256,191,-256,305.2305591106415,305.2305986881256,305.2333285808563,305.2454311847687,305.3955509662628,305.3955509662628,305.3955509662628,305.3955509662628,305.3955509662628,305.3955509662628,305.3955509662628,306.16311049461365,2,0.910341739654541,None,,,,,,,,,,,,,,,,,,194,3,2025-03-05_12h01.26.556,comp,2024.2.4,60.06148911339114,2025-03-05 12h01.37.068396 -0500,
131,131,0,critical,dwh,35.0,2.1,lower,70.0,70.0,57.0,133.0,133.0,57.0,3,0.8501937389373779,None,,,,,0,0,0,0,0,131,131,4,306.17889523506165,,,,,,,,,,,,,,,,,,,,,,,,,,,,,,,,,,,,,,,,,,,,,,,,,,,,,,,,,,,,,,,,,,,,,,,,,,,,,,,,,70.0,70.0,57.0,133.0,133.0,57.0,2.1,2.12,-198,-263,0,-281,191,281,306.1638686656952,306.1639084815979,306.1663718223572,306.17889523506165,306.32876348495483,306.32876348495483,306.32876348495483,306.32876348495483,306.32876348495483,306.32876348495483,306.32876348495483,307.04647159576416,3,0.8501937389373779,None,,,,,,,,,,,,,,,,,,194,3,2025-03-05_12h01.26.556,comp,2024.2.4,60.06148911339114,2025-03-05 12h01.37.068396 -0500,
132,132,0,filler_random,None,None,None,None,None,None,None,None,None,None,1,0.7261257171630859,None,,,,,0,0,0,0,0,132,132,149,307.06185841560364,,,,,,,,,,,,,,,,,,,,,,,,,,,,,,,,,,,,,,,,,,,,,,,,,,,,,,,,,,,,,,,,,,,,,,,,,,,,,,,,,175.71162792320285,192.96209314290994,173.7737398456639,113.46139332247591,108.60861382505306,69.0854288620007,2.2,2.21,-249,-257,0,273,187,268,307.04739451408386,307.0474343299866,307.0499289035797,307.06185841560364,307.21226501464844,307.21226501464844,307.21226501464844,307.21226501464844,307.21226501464844,307.21226501464844,307.21226501464844,307.7966613769531,1,0.7261257171630859,None,,,,,,,,,,,,,,,,,,194,3,2025-03-05_12h01.26.556,comp,2024.2.4,60.06148911339114,2025-03-05 12h01.37.068396 -0500,
133,133,0,filler_square,None,None,None,None,None,None,None,None,None,None,2,1.6653666496276855,None,,,,,0,0,0,0,0,133,133,194,307.81220960617065,,,,,,,,,,,,,,,,,,,,,,,,,,,,,,,,,,,,,,,,,,,,,,,,,,,,,,,,,,,,,,,,,,,,,,,,,,,,,,,,,76.73884387046418,63.43868297342227,82.80664950719559,82.80664950719559,69.16133350912163,73.73315471084082,1.0,1.1,-649,274,-480,261,-306,253,307.7976326942444,307.7976746559143,307.80034589767456,307.81220960617065,307.96191453933716,307.96191453933716,307.96191453933716,307.96191453933716,307.96191453933716,307.96191453933716,307.96191453933716,309.4797873497009,2,1.6653666496276855,None,,,,,,,,,,,,,,,,,,194,3,2025-03-05_12h01.26.556,comp,2024.2.4,60.06148911339114,2025-03-05 12h01.37.068396 -0500,
134,134,0,filler_random,None,None,None,None,None,None,None,None,None,None,3,1.467529296875,None,,,,,0,0,0,0,0,134,134,138,309.4955232143402,,,,,,,,,,,,,,,,,,,,,,,,,,,,,,,,,,,,,,,,,,,,,,,,,,,,,,,,,,,,,,,,,,,,,,,,,,,,,,,,,175.82070807708664,89.39163348955053,132.01793948547706,104.53909208403878,162.81574824189738,145.59763871299327,1.0,1.2,-193,-4,0,-11,221,-2,309.4806296825409,309.4806706905365,309.4825818538666,309.4955232143402,309.6454918384552,309.6454918384552,309.6454918384552,309.6454918384552,309.6454918384552,309.6454918384552,309.6454918384552,310.97981905937195,3,1.467529296875,None,,,,,,,,,,,,,,,,,,194,3,2025-03-05_12h01.26.556,comp,2024.2.4,60.06148911339114,2025-03-05 12h01.37.068396 -0500,
135,135,0,filler_square,None,None,None,None,None,None,None,None,None,None,1,0.8881869316101074,None,,,,,0,0,0,0,0,135,135,190,310.99520087242126,,,,,,,,,,,,,,,,,,,,,,,,,,,,,,,,,,,,,,,,,,,,,,,,,,,,,,,,,,,,,,,,,,,,,,,,,,,,,,,,,130.56555351334646,130.56555351334646,79.07636702849192,91.83747076514192,96.88909191345539,92.62423533929976,3.0,3.1,-207,251,0,-10,188,-288,310.98075556755066,310.9807963371277,310.98289036750793,310.99520087242126,311.1453289985657,311.1453289985657,311.1453289985657,311.1453289985657,311.1453289985657,311.1453289985657,311.1453289985657,311.8964669704437,1,0.8881869316101074,None,,,,,,,,,,,,,,,,,,194,3,2025-03-05_12h01.26.556,comp,2024.2.4,60.06148911339114,2025-03-05 12h01.37.068396 -0500,
136,136,0,critical,whd,35.0,3.0,upper,125.0,200.0,200.0,125.0,127.0,127.0,2,1.683943748474121,None,,,,,0,0,0,0,0,136,136,87,311.91187953948975,,,,,,,,,,,,,,,,,,,,,,,,,,,,,,,,,,,,,,,,,,,,,,,,,,,,,,,,,,,,,,,,,,,,,,,,,,,,,,,,,125.0,200.0,200.0,125.0,127.0,127.0,3.0,3.2,-258,-272,0,-10,222,251,311.8972728252411,311.8973128795624,311.8998246192932,311.91187953948975,312.0620880126953,312.0620880126953,312.0620880126953,312.0620880126953,312.0620880126953,312.0620880126953,312.0620880126953,313.6133165359497,2,1.683943748474121,None,,,,,,,,,,,,,,,,,,194,3,2025-03-05_12h01.26.556,comp,2024.2.4,60.06148911339114,2025-03-05 12h01.37.068396 -0500,
137,137,0,critical,dhw,35.0,2.1,lower,70.0,70.0,133.0,57.0,57.0,133.0,2,0.849097490310669,None,,,,,0,0,0,0,0,137,137,24,313.6285116672516,,,,,,,,,,,,,,,,,,,,,,,,,,,,,,,,,,,,,,,,,,,,,,,,,,,,,,,,,,,,,,,,,,,,,,,,,,,,,,,,,70.0,70.0,133.0,57.0,57.0,133.0,2.1,2.11,-160,266,0,257,191,-263,313.61409854888916,313.6141390800476,313.61658549308777,313.6285116672516,313.77860045433044,313.77860045433044,313.77860045433044,313.77860045433044,313.77860045433044,313.77860045433044,313.77860045433044,314.4797782897949,2,0.849097490310669,None,,,,,,,,,,,,,,,,,,194,3,2025-03-05_12h01.26.556,comp,2024.2.4,60.06148911339114,2025-03-05 12h01.37.068396 -0500,
138,138,0,critical,hwd,35.0,2.1,upper,200.0,125.0,125.0,200.0,127.0,127.0,1,1.0358467102050781,None,,,,,0,0,0,0,0,138,138,41,314.495304107666,,,,,,,,,,,,,,,,,,,,,,,,,,,,,,,,,,,,,,,,,,,,,,,,,,,,,,,,,,,,,,,,,,,,,,,,,,,,,,,,,200.0,125.0,125.0,200.0,127.0,127.0,2.1,2.12,-258,-281,0,-255,260,257,314.4805717468262,314.48061060905457,314.48262906074524,314.495304107666,314.64559960365295,314.64559960365295,314.64559960365295,314.64559960365295,314.64559960365295,314.64559960365295,314.64559960365295,315.54658246040344,1,1.0358467102050781,None,,,,,,,,,,,,,,,,,,194,3,2025-03-05_12h01.26.556,comp,2024.2.4,60.06148911339114,2025-03-05 12h01.37.068396 -0500,
139,139,0,critical,hdw,20.0,3.0,upper,200.0,125.0,141.0,141.0,125.0,200.0,3,2.594226598739624,None,,,,,0,0,0,0,0,139,139,117,315.5616977214813,,,,,,,,,,,,,,,,,,,,,,,,,,,,,,,,,,,,,,,,,,,,,,,,,,,,,,,,,,,,,,,,,,,,,,,,,,,,,,,,,200.0,125.0,141.0,141.0,125.0,200.0,3.0,3.1,-229,261,0,15,266,-273,315.5473515987396,315.54739260673523,315.5498878955841,315.5616977214813,315.712229013443,315.712229013443,315.712229013443,315.712229013443,315.712229013443,315.712229013443,315.712229013443,318.1632709503174,3,2.594226598739624,None,,,,,,,,,,,,,,,,,,194,3,2025-03-05_12h01.26.556,comp,2024.2.4,60.06148911339114,2025-03-05 12h01.37.068396 -0500,
