thisN,thisTrialN,thisRepN,effect,order,distance,config,diag,h_1,w_1,h_2,w_2,h_3,w_3,rect_choice.keys,rect_choice.rt,rect_choice.duration,instructions_loop.thisRepN,instructions_loop.thisTrialN,instructions_loop.thisN,instructions_loop.thisIndex,blocks.thisRepN,blocks.thisTrialN,blocks.thisN,blocks.thisIndex,trials.thisRepN,trials.thisTrialN,trials.thisN,trials.thisIndex,thisRow.t,notes,consent.started,agree_button.started,decline_button.started,consent_img.started,mouse.started,consent.stopped,agree_button.numClicks,agree_button.timesOn,agree_button.timesOff,decline_button.numClicks,decline_button.timesOn,decline_button.timesOff,mouse.x,mouse.y,mouse.leftButton,mouse.midButton,mouse.rightButton,mouse.time,mouse.clicked_name,exp_params.started,exp_params.stopped,welcome.started,welcome_text.started,welcome.stopped,instructions_1.started,instructions_1_text_1.started,instructions_1_text_2.started,key_resp.started,instructions_1.stopped,instructions_loop.key_resp.keys,instructions_loop.key_resp.rt,instructions_loop.key_resp.duration,instructions_2.started,instructions_2_text_1.started,instructions_2_text_2.started,key_resp_2.started,instructions_2.stopped,instructions_loop.key_resp_2.keys,instructions_loop.key_resp_2.rt,instructions_loop.key_resp_2.duration,instructions_3.started,instructions_3_text_1.started,r1_instr3.started,r2_instr3.started,r3_instr3.started,r1_instr3_label.started,r2_instr3_label.started,r3_instr3_label.started,instructions_3_text_3.started,instructions_3_text_4.started,key_resp_3.started,instructions_3.stopped,instructions_loop.key_resp_3.keys,instructions_loop.key_resp_3.rt,instructions_loop.key_resp_3.duration,instructions_4.started,instructions_4_text_1.started,instructions_4_text_3.started,instructions_4_text_2.started,key_resp_4.started,instructions_4.stopped,instructions_loop.key_resp_4.keys,instructions_loop.key_resp_4.rt,instructions_loop.key_resp_4.duration,instructions_5.started,instructions_5_text_1.started,instructions_5_text_2.started,key_resp_5.started,instructions_5.stopped,instructions_loop.key_resp_5.keys,instructions_loop.key_resp_5.rt,instructions_loop.key_resp_5.duration,start_exp.started,start_exp_text.started,key_resp_6.started,start_exp.stopped,key_resp_6.keys,key_resp_6.rt,key_resp_6.duration,h_1_tmp,w_1_tmp,h_2_tmp,w_2_tmp,h_3_tmp,w_3_tmp,config_tmp,config_tmp_1,r_1_x,r_1_y,r_2_x,r_2_y,r_3_x,r_3_y,pre_trial.started,pre_trial.stopped,choice_trial.started,rect_choice.started,r_1.started,r_2.started,r_3.started,r_1_label.started,r_2_label.started,r_3_label.started,prompt.started,choice_trial.stopped,trials.rect_choice.keys,trials.rect_choice.rt,trials.rect_choice.duration,end_block.started,end_block_text.started,end_block.stopped,end.started,end_text.started,key_resp_7.started,end.stopped,key_resp_7.keys,key_resp_7.rt,key_resp_7.duration,debriefing.started,debrief_form.started,end_debrief.started,debriefing.stopped,end_debrief.keys,end_debrief.rt,end_debrief.duration,participant,computer,date,expName,psychopyVersion,frameRate,expStart,
,,,,,,,,,,,,,,,,,,,,,,,,,,,,,,,0.014885663986206055,0.0372319221496582,0.0372319221496582,0.0372319221496582,0.014674901962280273,16.648410320281982,1,[16.60856819152832],[16.608590841293335],0,,,[-49.0],[-503.0],[1],[0],[0],[16.632835626602173],['agree_button'],,,,,,,,,,,,,,,,,,,,,,,,,,,,,,,,,,,,,,,,,,,,,,,,,,,,,,,,,,,,,,,,,,,,,,,,,,,,,,,,,,,,,,,,,,,,,,,,,,,,,,,,,,,195,2,2025-03-05_12h55.20.320,comp,2024.2.4,57.08314563312923,2025-03-05 12h55.29.562718 -0500,
,,,,,,,,,,,,,,,,,,,,,,,,,,,,,,,,,,,,,,,,,,,,,,,,,,16.64895510673523,16.64902138710022,,,,,,,,,,,,,,,,,,,,,,,,,,,,,,,,,,,,,,,,,,,,,,,,,,,,,,,,,,,,,,,,,,,,,,,,,,,,,,,,,,,,,,,,,,,,,,,,,,,,,,,,,195,2,2025-03-05_12h55.20.320,comp,2024.2.4,57.08314563312923,2025-03-05 12h55.29.562718 -0500,
,,,,,,,,,,,,,,,,,,,,,,,,,,,,,,,,,,,,,,,,,,,,,,,,,,,,16.649065017700195,16.662847757339478,18.659778594970703,,,,,,,,,,,,,,,,,,,,,,,,,,,,,,,,,,,,,,,,,,,,,,,,,,,,,,,,,,,,,,,,,,,,,,,,,,,,,,,,,,,,,,,,,,,,,,,,,,,,,,195,2,2025-03-05_12h55.20.320,comp,2024.2.4,57.08314563312923,2025-03-05 12h55.29.562718 -0500,
0,0,0,,,,,,,,,,,,,,,0,0,0,0,,,,,,,,,18.675999402999878,,,,,,,,,,,,,,,,,,,,,,,,,,18.66063165664673,18.675999402999878,18.675999402999878,20.159918546676636,21.94500470161438,space,1.7712228298187256,None,21.945148944854736,21.962550163269043,21.962550163269043,23.459728717803955,26.94683003425598,space,3.4714865684509277,None,26.94697332382202,26.976831197738647,26.976831197738647,26.976831197738647,26.976831197738647,26.976831197738647,26.976831197738647,26.976831197738647,26.976831197738647,26.976831197738647,28.453304529190063,31.028986930847168,space,2.5660459995269775,None,31.029138803482056,31.047114610671997,31.047114610671997,31.047114610671997,32.529067516326904,36.48230814933777,space,3.9469521045684814,None,36.48246359825134,36.49854755401611,36.49854755401611,37.98252296447754,39.01808953285217,space,1.0289263725280762,None,39.01828122138977,39.03237462043762,39.03237462043762,40.35112452507019,space,1.3068416118621826,None,,,,,,,,,,,,,,,,,,,,,,,,,,,,,,,,,,,,,,,,,,,,,,,195,2,2025-03-05_12h55.20.320,comp,2024.2.4,57.08314563312923,2025-03-05 12h55.29.562718 -0500,
0,0,0,critical,wdh,20.0,4.0,upper,125.0,200.0,141.0,141.0,200.0,125.0,3,3.2183964252471924,None,,,,,0,0,0,0,0,0,0,83,40.426642179489136,,,,,,,,,,,,,,,,,,,,,,,,,,,,,,,,,,,,,,,,,,,,,,,,,,,,,,,,,,,,,,,,,,,,,,,,,,,,,,,,,125.0,200.0,141.0,141.0,200.0,125.0,4.0,4.1,-266,-282,0,7,229,-288,40.410330295562744,40.410378217697144,40.41196537017822,40.426642179489136,40.58311343193054,40.58311343193054,40.58311343193054,40.58311343193054,40.58311343193054,40.58311343193054,40.58311343193054,43.652700901031494,3,3.2183964252471924,None,,,,,,,,,,,,,,,,,,195,2,2025-03-05_12h55.20.320,comp,2024.2.4,57.08314563312923,2025-03-05 12h55.29.562718 -0500,
1,1,0,critical,whd,35.0,2.1,upper,125.0,200.0,200.0,125.0,127.0,127.0,1,3.2828431129455566,None,,,,,0,0,0,0,0,1,1,13,43.672388553619385,,,,,,,,,,,,,,,,,,,,,,,,,,,,,,,,,,,,,,,,,,,,,,,,,,,,,,,,,,,,,,,,,,,,,,,,,,,,,,,,,125.0,200.0,200.0,125.0,127.0,127.0,2.1,2.11,-258,265,0,263,222,-289,43.65431571006775,43.65439581871033,43.65788912773132,43.672388553619385,43.82105326652527,43.82105326652527,43.82105326652527,43.82105326652527,43.82105326652527,43.82105326652527,43.82105326652527,46.96854853630066,1,3.2828431129455566,None,,,,,,,,,,,,,,,,,,195,2,2025-03-05_12h55.20.320,comp,2024.2.4,57.08314563312923,2025-03-05 12h55.29.562718 -0500,
2,2,0,critical,wdh,20.0,1.0,upper,125.0,200.0,141.0,141.0,200.0,125.0,1,3.883035659790039,None,,,,,0,0,0,0,0,2,2,79,46.98456954956055,,,,,,,,,,,,,,,,,,,,,,,,,,,,,,,,,,,,,,,,,,,,,,,,,,,,,,,,,,,,,,,,,,,,,,,,,,,,,,,,,125.0,200.0,141.0,141.0,200.0,125.0,1.0,1.1,-746,253,-480,259,-251,271,46.97011423110962,46.970194578170776,46.973283529281616,46.98456954956055,47.13276267051697,47.13276267051697,47.13276267051697,47.13276267051697,47.13276267051697,47.13276267051697,47.13276267051697,50.869863510131836,1,3.883035659790039,None,,,,,,,,,,,,,,,,,,195,2,2025-03-05_12h55.20.320,comp,2024.2.4,57.08314563312923,2025-03-05 12h55.29.562718 -0500,
3,3,0,critical,whd,20.0,1.0,lower,57.0,133.0,133.0,57.0,78.0,78.0,1,6.869120359420776,None,,,,,0,0,0,0,0,3,3,90,50.88613963127136,,,,,,,,,,,,,,,,,,,,,,,,,,,,,,,,,,,,,,,,,,,,,,,,,,,,,,,,,,,,,,,,,,,,,,,,,,,,,,,,,57.0,133.0,133.0,57.0,78.0,78.0,1.0,1.2,-191,14,0,2,164,19,50.87136650085449,50.871440410614014,50.874476194381714,50.88613963127136,51.037304639816284,51.037304639816284,51.037304639816284,51.037304639816284,51.037304639816284,51.037304639816284,51.037304639816284,57.774335622787476,1,6.869120359420776,None,,,,,,,,,,,,,,,,,,195,2,2025-03-05_12h55.20.320,comp,2024.2.4,57.08314563312923,2025-03-05 12h55.29.562718 -0500,
4,4,0,filler_square,None,None,None,None,None,None,None,None,None,None,2,1.5203499794006348,None,,,,,0,0,0,0,0,4,4,189,57.79564356803894,,,,,,,,,,,,,,,,,,,,,,,,,,,,,,,,,,,,,,,,,,,,,,,,,,,,,,,,,,,,,,,,,,,,,,,,,,,,,,,,,85.6173365041032,59.761708482778815,124.4676674009866,124.4676674009866,58.233008745206305,88.89042957293691,1.0,1.3,292,-259,480,-270,683,-283,57.77633357048035,57.776408195495605,57.779327154159546,57.79564356803894,57.939692974090576,57.939692974090576,57.939692974090576,57.939692974090576,57.939692974090576,57.939692974090576,57.939692974090576,59.322662115097046,2,1.5203499794006348,None,,,,,,,,,,,,,,,,,,195,2,2025-03-05_12h55.20.320,comp,2024.2.4,57.08314563312923,2025-03-05 12h55.29.562718 -0500,
5,5,0,critical,wdh,35.0,2.1,lower,57.0,133.0,70.0,70.0,133.0,57.0,1,2.530618190765381,None,,,,,0,0,0,0,0,5,5,8,59.344645500183105,,,,,,,,,,,,,,,,,,,,,,,,,,,,,,,,,,,,,,,,,,,,,,,,,,,,,,,,,,,,,,,,,,,,,,,,,,,,,,,,,57.0,133.0,70.0,70.0,133.0,57.0,2.1,2.12,-198,-279,0,-265,160,256,59.324132204055786,59.32420563697815,59.32711958885193,59.344645500183105,59.4804847240448,59.4804847240448,59.4804847240448,59.4804847240448,59.4804847240448,59.4804847240448,59.4804847240448,61.89077091217041,1,2.530618190765381,None,,,,,,,,,,,,,,,,,,195,2,2025-03-05_12h55.20.320,comp,2024.2.4,57.08314563312923,2025-03-05 12h55.29.562718 -0500,
6,6,0,critical,hdw,20.0,4.0,upper,200.0,125.0,141.0,141.0,125.0,200.0,1,4.5531110763549805,None,,,,,0,0,0,0,0,6,6,119,61.90619397163391,,,,,,,,,,,,,,,,,,,,,,,,,,,,,,,,,,,,,,,,,,,,,,,,,,,,,,,,,,,,,,,,,,,,,,,,,,,,,,,,,200.0,125.0,141.0,141.0,125.0,200.0,4.0,4.2,-229,-17,0,-277,266,-19,61.89235544204712,61.89242935180664,61.89582872390747,61.90619397163391,62.05824518203735,62.05824518203735,62.05824518203735,62.05824518203735,62.05824518203735,62.05824518203735,62.05824518203735,66.47661852836609,1,4.5531110763549805,None,,,,,,,,,,,,,,,,,,195,2,2025-03-05_12h55.20.320,comp,2024.2.4,57.08314563312923,2025-03-05 12h55.29.562718 -0500,
7,7,0,filler_square,None,None,None,None,None,None,None,None,None,None,1,2.0954389572143555,None,,,,,0,0,0,0,0,7,7,183,66.49275469779968,,,,,,,,,,,,,,,,,,,,,,,,,,,,,,,,,,,,,,,,,,,,,,,,,,,,,,,,,,,,,,,,,,,,,,,,,,,,,,,,,127.19622309070037,127.19622309070037,112.61080312726196,76.52541282069218,115.10996504383769,74.76509900705588,2.2,2.21,-198,-268,0,286,172,282,66.47847151756287,66.47854471206665,66.48169612884521,66.49275469779968,66.64342832565308,66.64342832565308,66.64342832565308,66.64342832565308,66.64342832565308,66.64342832565308,66.64342832565308,68.59377408027649,1,2.0954389572143555,None,,,,,,,,,,,,,,,,,,195,2,2025-03-05_12h55.20.320,comp,2024.2.4,57.08314563312923,2025-03-05 12h55.29.562718 -0500,
8,8,0,critical,dhw,35.0,2.1,upper,127.0,127.0,200.0,125.0,125.0,200.0,3,1.4731409549713135,None,,,,,0,0,0,0,0,8,8,1,68.61018800735474,,,,,,,,,,,,,,,,,,,,,,,,,,,,,,,,,,,,,,,,,,,,,,,,,,,,,,,,,,,,,,,,,,,,,,,,,,,,,,,,,127.0,127.0,200.0,125.0,125.0,200.0,2.1,2.11,-222,280,0,261,258,-273,68.5955114364624,68.59566855430603,68.59924149513245,68.61018800735474,68.76440215110779,68.76440215110779,68.76440215110779,68.76440215110779,68.76440215110779,68.76440215110779,68.76440215110779,70.0984833240509,3,1.4731409549713135,None,,,,,,,,,,,,,,,,,,195,2,2025-03-05_12h55.20.320,comp,2024.2.4,57.08314563312923,2025-03-05 12h55.29.562718 -0500,
9,9,0,critical,dhw,35.0,3.0,lower,70.0,70.0,133.0,57.0,57.0,133.0,3,5.741873502731323,None,,,,,0,0,0,0,0,9,9,50,70.11770582199097,,,,,,,,,,,,,,,,,,,,,,,,,,,,,,,,,,,,,,,,,,,,,,,,,,,,,,,,,,,,,,,,,,,,,,,,,,,,,,,,,70.0,70.0,133.0,57.0,57.0,133.0,3.0,3.1,-160,261,0,-3,191,-264,70.10002779960632,70.10010361671448,70.10298800468445,70.11770582199097,70.2575170993805,70.2575170993805,70.2575170993805,70.2575170993805,70.2575170993805,70.2575170993805,70.2575170993805,75.8617467880249,3,5.741873502731323,None,,,,,,,,,,,,,,,,,,195,2,2025-03-05_12h55.20.320,comp,2024.2.4,57.08314563312923,2025-03-05 12h55.29.562718 -0500,
10,10,0,filler_random,None,None,None,None,None,None,None,None,None,None,3,1.9161386489868164,None,,,,,0,0,0,0,0,10,10,153,75.87906432151794,,,,,,,,,,,,,,,,,,,,,,,,,,,,,,,,,,,,,,,,,,,,,,,,,,,,,,,,,,,,,,,,,,,,,,,,,,,,,,,,,77.0346948155014,192.6052967250852,113.8325034873555,111.89475771030804,195.1015402180603,163.1618044925961,2.2,2.21,-248,-252,0,262,234,289,75.86368584632874,75.86376810073853,75.86727833747864,75.87906432151794,76.02917122840881,76.02917122840881,76.02917122840881,76.02917122840881,76.02917122840881,76.02917122840881,76.02917122840881,77.8120985031128,3,1.9161386489868164,None,,,,,,,,,,,,,,,,,,195,2,2025-03-05_12h55.20.320,comp,2024.2.4,57.08314563312923,2025-03-05 12h55.29.562718 -0500,
11,11,0,critical,wdh,35.0,3.0,lower,57.0,133.0,70.0,70.0,133.0,57.0,1,4.535228490829468,None,,,,,0,0,0,0,0,11,11,74,77.82857036590576,,,,,,,,,,,,,,,,,,,,,,,,,,,,,,,,,,,,,,,,,,,,,,,,,,,,,,,,,,,,,,,,,,,,,,,,,,,,,,,,,57.0,133.0,70.0,70.0,133.0,57.0,3.0,3.2,-198,-268,0,4,160,255,77.81373071670532,77.81383752822876,77.81737923622131,77.82857036590576,77.96642804145813,77.96642804145813,77.96642804145813,77.96642804145813,77.96642804145813,77.96642804145813,77.96642804145813,82.380850315094,1,4.535228490829468,None,,,,,,,,,,,,,,,,,,195,2,2025-03-05_12h55.20.320,comp,2024.2.4,57.08314563312923,2025-03-05 12h55.29.562718 -0500,
12,12,0,filler_random,None,None,None,None,None,None,None,None,None,None,1,1.191103458404541,None,,,,,0,0,0,0,0,12,12,145,82.39636588096619,,,,,,,,,,,,,,,,,,,,,,,,,,,,,,,,,,,,,,,,,,,,,,,,,,,,,,,,,,,,,,,,,,,,,,,,,,,,,,,,,192.2628479920902,191.81982825040487,60.294084832748176,89.03851642765798,85.04673850700665,72.83264663487611,1.0,1.1,-716,252,-480,262,-303,287,82.38254809379578,82.38267135620117,82.38612580299377,82.39636588096619,82.5473210811615,82.5473210811615,82.5473210811615,82.5473210811615,82.5473210811615,82.5473210811615,82.5473210811615,83.59696364402771,1,1.191103458404541,None,,,,,,,,,,,,,,,,,,195,2,2025-03-05_12h55.20.320,comp,2024.2.4,57.08314563312923,2025-03-05 12h55.29.562718 -0500,
13,13,0,filler_square,None,None,None,None,None,None,None,None,None,None,2,1.869666576385498,None,,,,,0,0,0,0,0,13,13,182,83.61352157592773,,,,,,,,,,,,,,,,,,,,,,,,,,,,,,,,,,,,,,,,,,,,,,,,,,,,,,,,,,,,,,,,,,,,,,,,,,,,,,,,,57.16498384184327,62.44494591425881,73.70514487151864,73.70514487151864,61.39616257962237,73.0179387755774,4.0,4.2,-164,2,0,-276,169,-18,83.59880518913269,83.59888219833374,83.60187005996704,83.61352157592773,83.76703023910522,83.76703023910522,83.76703023910522,83.76703023910522,83.76703023910522,83.76703023910522,83.76703023910522,85.50217199325562,2,1.869666576385498,None,,,,,,,,,,,,,,,,,,195,2,2025-03-05_12h55.20.320,comp,2024.2.4,57.08314563312923,2025-03-05 12h55.29.562718 -0500,
14,14,0,filler_random,None,None,None,None,None,None,None,None,None,None,1,1.9544579982757568,None,,,,,0,0,0,0,0,14,14,151,85.52135586738586,,,,,,,,,,,,,,,,,,,,,,,,,,,,,,,,,,,,,,,,,,,,,,,,,,,,,,,,,,,,,,,,,,,,,,,,,,,,,,,,,190.57754717522167,176.68187709757092,187.5621785517639,128.69787534762088,192.50610282572922,161.0278069435284,1.0,1.2,-249,-12,0,-12,241,-17,85.50393867492676,85.50407338142395,85.5074532032013,85.52135586738586,85.66582155227661,85.66582155227661,85.66582155227661,85.66582155227661,85.66582155227661,85.66582155227661,85.66582155227661,87.48352813720703,1,1.9544579982757568,None,,,,,,,,,,,,,,,,,,195,2,2025-03-05_12h55.20.320,comp,2024.2.4,57.08314563312923,2025-03-05 12h55.29.562718 -0500,
15,15,0,filler_random,None,None,None,None,None,None,None,None,None,None,1,1.2719669342041016,None,,,,,0,0,0,0,0,15,15,137,87.49943518638611,,,,,,,,,,,,,,,,,,,,,,,,,,,,,,,,,,,,,,,,,,,,,,,,,,,,,,,,,,,,,,,,,,,,,,,,,,,,,,,,,170.0837545768615,158.88453882986835,105.2695238015866,130.3600876077969,121.5873964713628,85.40399424998637,2.2,2.21,-241,-282,0,290,204,257,87.4852364063263,87.4853162765503,87.48865699768066,87.49943518638611,87.65430760383606,87.65430760383606,87.65430760383606,87.65430760383606,87.65430760383606,87.65430760383606,87.65430760383606,88.78445887565613,1,1.2719669342041016,None,,,,,,,,,,,,,,,,,,195,2,2025-03-05_12h55.20.320,comp,2024.2.4,57.08314563312923,2025-03-05 12h55.29.562718 -0500,
16,16,0,critical,hwd,35.0,4.0,lower,133.0,57.0,57.0,133.0,70.0,70.0,2,4.218333005905151,None,,,,,0,0,0,0,0,16,16,100,88.80109882354736,,,,,,,,,,,,,,,,,,,,,,,,,,,,,,,,,,,,,,,,,,,,,,,,,,,,,,,,,,,,,,,,,,,,,,,,,,,,,,,,,133.0,57.0,57.0,133.0,70.0,70.0,4.0,4.2,-191,0,0,-280,198,11,88.78615999221802,88.78628754615784,88.78971934318542,88.80109882354736,88.94940686225891,88.94940686225891,88.94940686225891,88.94940686225891,88.94940686225891,88.94940686225891,88.94940686225891,93.03421401977539,2,4.218333005905151,None,,,,,,,,,,,,,,,,,,195,2,2025-03-05_12h55.20.320,comp,2024.2.4,57.08314563312923,2025-03-05 12h55.29.562718 -0500,
17,17,0,critical,wdh,35.0,1.0,upper,125.0,200.0,127.0,127.0,200.0,125.0,1,4.05089259147644,None,,,,,0,0,0,0,0,17,17,73,93.04943442344666,,,,,,,,,,,,,,,,,,,,,,,,,,,,,,,,,,,,,,,,,,,,,,,,,,,,,,,,,,,,,,,,,,,,,,,,,,,,,,,,,125.0,200.0,127.0,127.0,200.0,125.0,1.0,1.3,220,-282,480,-285,702,-287,93.0357174873352,93.03581547737122,93.03910660743713,93.04943442344666,93.2053291797638,93.2053291797638,93.2053291797638,93.2053291797638,93.2053291797638,93.2053291797638,93.2053291797638,97.10299372673035,1,4.05089259147644,None,,,,,,,,,,,,,,,,,,195,2,2025-03-05_12h55.20.320,comp,2024.2.4,57.08314563312923,2025-03-05 12h55.29.562718 -0500,
18,18,0,filler_random,None,None,None,None,None,None,None,None,None,None,3,6.2520482540130615,None,,,,,0,0,0,0,0,18,18,160,97.11954283714294,,,,,,,,,,,,,,,,,,,,,,,,,,,,,,,,,,,,,,,,,,,,,,,,,,,,,,,,,,,,,,,,,,,,,,,,,,,,,,,,,117.4185777429451,156.46729596920147,124.28871826386442,123.15827176952234,197.62005423073262,113.315238161093,2.2,2.21,-236,-270,0,261,214,258,97.10469388961792,97.10477137565613,97.10794758796692,97.11954283714294,97.27413892745972,97.27413892745972,97.27413892745972,97.27413892745972,97.27413892745972,97.27413892745972,97.27413892745972,103.37475371360779,3,6.2520482540130615,None,,,,,,,,,,,,,,,,,,195,2,2025-03-05_12h55.20.320,comp,2024.2.4,57.08314563312923,2025-03-05 12h55.29.562718 -0500,
19,19,0,critical,hdw,20.0,4.0,lower,133.0,57.0,78.0,78.0,57.0,133.0,3,3.8063549995422363,None,,,,,0,0,0,0,0,19,19,118,103.38983726501465,,,,,,,,,,,,,,,,,,,,,,,,,,,,,,,,,,,,,,,,,,,,,,,,,,,,,,,,,,,,,,,,,,,,,,,,,,,,,,,,,133.0,57.0,78.0,78.0,57.0,133.0,4.0,4.2,-164,-18,0,-272,202,-6,103.37630295753479,103.37637877464294,103.37919020652771,103.38983726501465,103.53688740730286,103.53688740730286,103.53688740730286,103.53688740730286,103.53688740730286,103.53688740730286,103.53688740730286,107.20444512367249,3,3.8063549995422363,None,,,,,,,,,,,,,,,,,,195,2,2025-03-05_12h55.20.320,comp,2024.2.4,57.08314563312923,2025-03-05 12h55.29.562718 -0500,
20,20,0,filler_square,None,None,None,None,None,None,None,None,None,None,3,1.8304178714752197,None,,,,,0,0,0,0,0,20,20,195,107.22169137001038,,,,,,,,,,,,,,,,,,,,,,,,,,,,,,,,,,,,,,,,,,,,,,,,,,,,,,,,,,,,,,,,,,,,,,,,,,,,,,,,,132.68100078659228,71.21145360389615,91.62401196745692,152.68521090190066,178.25596389753042,178.25596389753042,2.1,2.11,-208,272,0,261,261,-269,107.20649123191833,107.2065703868866,107.20984387397766,107.22169137001038,107.37562727928162,107.37562727928162,107.37562727928162,107.37562727928162,107.37562727928162,107.37562727928162,107.37562727928162,109.05948424339294,3,1.8304178714752197,None,,,,,,,,,,,,,,,,,,195,2,2025-03-05_12h55.20.320,comp,2024.2.4,57.08314563312923,2025-03-05 12h55.29.562718 -0500,
21,21,0,filler_random,None,None,None,None,None,None,None,None,None,None,3,3.1108484268188477,None,,,,,0,0,0,0,0,21,21,144,109.07698678970337,,,,,,,,,,,,,,,,,,,,,,,,,,,,,,,,,,,,,,,,,,,,,,,,,,,,,,,,,,,,,,,,,,,,,,,,,,,,,,,,,108.39267443930726,87.1758325659099,176.90040986877437,144.08684376152843,154.85719521677328,191.14508786856248,4.0,4.2,-212,-6,0,-289,264,0,109.06121373176575,109.06129288673401,109.06410837173462,109.07698678970337,109.22245645523071,109.22245645523071,109.22245645523071,109.22245645523071,109.22245645523071,109.22245645523071,109.22245645523071,112.18985962867737,3,3.1108484268188477,None,,,,,,,,,,,,,,,,,,195,2,2025-03-05_12h55.20.320,comp,2024.2.4,57.08314563312923,2025-03-05 12h55.29.562718 -0500,
22,22,0,critical,dwh,20.0,1.0,lower,78.0,78.0,57.0,133.0,133.0,57.0,2,5.214644432067871,None,,,,,0,0,0,0,0,22,22,66,112.20519614219666,,,,,,,,,,,,,,,,,,,,,,,,,,,,,,,,,,,,,,,,,,,,,,,,,,,,,,,,,,,,,,,,,,,,,,,,,,,,,,,,,78.0,78.0,57.0,133.0,133.0,57.0,1.0,1.2,-202,12,0,-19,191,16,112.19124364852905,112.19131994247437,112.194406747818,112.20519614219666,112.35827875137329,112.35827875137329,112.35827875137329,112.35827875137329,112.35827875137329,112.35827875137329,112.35827875137329,117.4279396533966,2,5.214644432067871,None,,,,,,,,,,,,,,,,,,195,2,2025-03-05_12h55.20.320,comp,2024.2.4,57.08314563312923,2025-03-05 12h55.29.562718 -0500,
23,23,0,critical,hdw,35.0,4.0,lower,133.0,57.0,70.0,70.0,57.0,133.0,3,2.181095838546753,None,,,,,0,0,0,0,0,23,23,112,117.44633364677429,,,,,,,,,,,,,,,,,,,,,,,,,,,,,,,,,,,,,,,,,,,,,,,,,,,,,,,,,,,,,,,,,,,,,,,,,,,,,,,,,133.0,57.0,70.0,70.0,57.0,133.0,4.0,4.2,-160,-12,0,-279,198,4,117.42955327033997,117.42967295646667,117.43251633644104,117.44633364677429,117.59247756004333,117.59247756004333,117.59247756004333,117.59247756004333,117.59247756004333,117.59247756004333,117.59247756004333,119.6445529460907,3,2.181095838546753,None,,,,,,,,,,,,,,,,,,195,2,2025-03-05_12h55.20.320,comp,2024.2.4,57.08314563312923,2025-03-05 12h55.29.562718 -0500,
24,24,0,filler_square,None,None,None,None,None,None,None,None,None,None,2,1.5664012432098389,None,,,,,0,0,0,0,0,24,24,193,119.66149353981018,,,,,,,,,,,,,,,,,,,,,,,,,,,,,,,,,,,,,,,,,,,,,,,,,,,,,,,,,,,,,,,,,,,,,,,,,,,,,,,,,65.36112046150927,92.96065522318077,115.09346357693362,115.09346357693362,105.45284226135654,66.2782716325811,3.0,3.2,-200,-259,0,-10,187,266,119.64653062820435,119.64664816856384,119.65088129043579,119.66149353981018,119.81005048751831,119.81005048751831,119.81005048751831,119.81005048751831,119.81005048751831,119.81005048751831,119.81005048751831,121.2439980506897,2,1.5664012432098389,None,,,,,,,,,,,,,,,,,,195,2,2025-03-05_12h55.20.320,comp,2024.2.4,57.08314563312923,2025-03-05 12h55.29.562718 -0500,
25,25,0,catch,None,None,None,None,None,None,None,None,None,None,3,1.1943652629852295,None,,,,,0,0,0,0,0,25,25,123,121.25967693328857,,,,,,,,,,,,,,,,,,,,,,,,,,,,,,,,,,,,,,,,,,,,,,,,,,,,,,,,,,,,,,,,,,,,,,,,,,,,,,,,,84,106,63,127,174,151,3.0,3.2,-212,-264,0,-2,235,289,121.24595665931702,121.2460343837738,121.24941325187683,121.25967693328857,121.41436386108398,121.41436386108398,121.41436386108398,121.41436386108398,121.41436386108398,121.41436386108398,121.41436386108398,122.46163296699524,3,1.1943652629852295,None,,,,,,,,,,,,,,,,,,195,2,2025-03-05_12h55.20.320,comp,2024.2.4,57.08314563312923,2025-03-05 12h55.29.562718 -0500,
26,26,0,filler_random,None,None,None,None,None,None,None,None,None,None,2,3.689441204071045,None,,,,,0,0,0,0,0,26,26,164,122.48196530342102,,,,,,,,,,,,,,,,,,,,,,,,,,,,,,,,,,,,,,,,,,,,,,,,,,,,,,,,,,,,,,,,,,,,,,,,,,,,,,,,,153.73908992281213,122.03921528598447,166.81119990230496,121.74915309558511,107.59034186419771,147.75033207877618,4.0,4.1,-218,-269,0,-6,231,-265,122.46329164505005,122.46337127685547,122.46624541282654,122.48196530342102,122.62631893157959,122.62631893157959,122.62631893157959,122.62631893157959,122.62631893157959,122.62631893157959,122.62631893157959,126.18426299095154,2,3.689441204071045,None,,,,,,,,,,,,,,,,,,195,2,2025-03-05_12h55.20.320,comp,2024.2.4,57.08314563312923,2025-03-05 12h55.29.562718 -0500,
27,27,0,filler_random,None,None,None,None,None,None,None,None,None,None,2,1.6923425197601318,None,,,,,0,0,0,0,0,27,27,133,126.19990539550781,,,,,,,,,,,,,,,,,,,,,,,,,,,,,,,,,,,,,,,,,,,,,,,,,,,,,,,,,,,,,,,,,,,,,,,,,,,,,,,,,142.6749140596553,82.45475698357433,182.69732374097987,105.03907842229245,87.94820331352756,59.924898488077616,2.1,2.11,-190,258,0,255,178,-255,126.1858959197998,126.18597555160522,126.18881225585938,126.19990539550781,126.34468793869019,126.34468793869019,126.34468793869019,126.34468793869019,126.34468793869019,126.34468793869019,126.34468793869019,127.89564847946167,2,1.6923425197601318,None,,,,,,,,,,,,,,,,,,195,2,2025-03-05_12h55.20.320,comp,2024.2.4,57.08314563312923,2025-03-05 12h55.29.562718 -0500,
28,28,0,critical,dhw,35.0,2.1,lower,70.0,70.0,133.0,57.0,57.0,133.0,3,8.30728530883789,None,,,,,0,0,0,0,0,28,28,24,127.91206002235413,,,,,,,,,,,,,,,,,,,,,,,,,,,,,,,,,,,,,,,,,,,,,,,,,,,,,,,,,,,,,,,,,,,,,,,,,,,,,,,,,70.0,70.0,133.0,57.0,57.0,133.0,2.1,2.12,-160,-262,0,-263,191,276,127.89713072776794,127.89720702171326,127.90121221542358,127.91206002235413,128.06160879135132,128.06160879135132,128.06160879135132,128.06160879135132,128.06160879135132,128.06160879135132,128.06160879135132,136.22996854782104,3,8.30728530883789,None,,,,,,,,,,,,,,,,,,195,2,2025-03-05_12h55.20.320,comp,2024.2.4,57.08314563312923,2025-03-05 12h55.29.562718 -0500,
29,29,0,critical,whd,35.0,3.0,upper,125.0,200.0,200.0,125.0,127.0,127.0,1,3.4166419506073,None,,,,,0,0,0,0,0,29,29,87,136.25081038475037,,,,,,,,,,,,,,,,,,,,,,,,,,,,,,,,,,,,,,,,,,,,,,,,,,,,,,,,,,,,,,,,,,,,,,,,,,,,,,,,,125.0,200.0,200.0,125.0,127.0,127.0,3.0,3.1,-258,288,0,-9,222,-260,136.23161506652832,136.23170280456543,136.23498129844666,136.25081038475037,136.3983280658722,136.3983280658722,136.3983280658722,136.3983280658722,136.3983280658722,136.3983280658722,136.3983280658722,139.68320727348328,1,3.4166419506073,None,,,,,,,,,,,,,,,,,,195,2,2025-03-05_12h55.20.320,comp,2024.2.4,57.08314563312923,2025-03-05 12h55.29.562718 -0500,
30,30,0,critical,wdh,20.0,3.0,upper,125.0,200.0,141.0,141.0,200.0,125.0,1,3.177060604095459,None,,,,,0,0,0,0,0,30,30,81,139.69924926757812,,,,,,,,,,,,,,,,,,,,,,,,,,,,,,,,,,,,,,,,,,,,,,,,,,,,,,,,,,,,,,,,,,,,,,,,,,,,,,,,,125.0,200.0,141.0,141.0,200.0,125.0,3.0,3.2,-266,-262,0,20,229,263,139.68470096588135,139.68477725982666,139.68786096572876,139.69924926757812,139.8551595211029,139.8551595211029,139.8551595211029,139.8551595211029,139.8551595211029,139.8551595211029,139.8551595211029,142.88416004180908,1,3.177060604095459,None,,,,,,,,,,,,,,,,,,195,2,2025-03-05_12h55.20.320,comp,2024.2.4,57.08314563312923,2025-03-05 12h55.29.562718 -0500,
31,31,0,critical,wdh,20.0,2.1,lower,57.0,133.0,78.0,78.0,133.0,57.0,3,3.632970094680786,None,,,,,0,0,0,0,0,31,31,10,142.89888739585876,,,,,,,,,,,,,,,,,,,,,,,,,,,,,,,,,,,,,,,,,,,,,,,,,,,,,,,,,,,,,,,,,,,,,,,,,,,,,,,,,57.0,133.0,78.0,78.0,133.0,57.0,2.1,2.12,-202,-261,0,-253,164,279,142.8856964111328,142.88579511642456,142.88925004005432,142.89888739585876,143.04830121994019,143.04830121994019,143.04830121994019,143.04830121994019,143.04830121994019,143.04830121994019,143.04830121994019,146.53394889831543,3,3.632970094680786,None,,,,,,,,,,,,,,,,,,195,2,2025-03-05_12h55.20.320,comp,2024.2.4,57.08314563312923,2025-03-05 12h55.29.562718 -0500,
32,32,0,filler_random,None,None,None,None,None,None,None,None,None,None,2,3.5534398555755615,None,,,,,0,0,0,0,0,32,32,167,146.55475401878357,,,,,,,,,,,,,,,,,,,,,,,,,,,,,,,,,,,,,,,,,,,,,,,,,,,,,,,,,,,,,,,,,,,,,,,,,,,,,,,,,182.01227056757793,127.22420064768933,198.56122519137674,134.13064670390355,146.6297833232468,98.50877859215288,3.0,3.1,-227,267,0,4,212,-283,146.53568482398987,146.5357608795166,146.5389907360077,146.55475401878357,146.70140099525452,146.70140099525452,146.70140099525452,146.70140099525452,146.70140099525452,146.70140099525452,146.70140099525452,150.11926245689392,2,3.5534398555755615,None,,,,,,,,,,,,,,,,,,195,2,2025-03-05_12h55.20.320,comp,2024.2.4,57.08314563312923,2025-03-05 12h55.29.562718 -0500,
33,33,0,critical,hdw,35.0,1.0,upper,200.0,125.0,127.0,127.0,125.0,200.0,3,6.060641765594482,None,,,,,0,0,0,0,0,33,33,109,150.13534379005432,,,,,,,,,,,,,,,,,,,,,,,,,,,,,,,,,,,,,,,,,,,,,,,,,,,,,,,,,,,,,,,,,,,,,,,,,,,,,,,,,200.0,125.0,127.0,127.0,125.0,200.0,1.0,1.2,-222,-20,0,11,260,8,150.1209523677826,150.12108445167542,150.12442445755005,150.13534379005432,150.29139971733093,150.29139971733093,150.29139971733093,150.29139971733093,150.29139971733093,150.29139971733093,150.29139971733093,156.20436906814575,3,6.060641765594482,None,,,,,,,,,,,,,,,,,,195,2,2025-03-05_12h55.20.320,comp,2024.2.4,57.08314563312923,2025-03-05 12h55.29.562718 -0500,
34,34,0,filler_random,None,None,None,None,None,None,None,None,None,None,1,1.567793846130371,None,,,,,0,0,0,0,0,34,34,131,156.2200963497162,,,,,,,,,,,,,,,,,,,,,,,,,,,,,,,,,,,,,,,,,,,,,,,,,,,,,,,,,,,,,,,,,,,,,,,,,,,,,,,,,158.74815308760105,156.5058577238558,98.8563773746153,99.76488464505616,84.15790844705704,128.20913595923278,3.0,3.1,-224,284,0,-13,210,-268,156.20604825019836,156.20612502098083,156.20937323570251,156.2200963497162,156.3712775707245,156.3712775707245,156.3712775707245,156.3712775707245,156.3712775707245,156.3712775707245,156.3712775707245,157.7934103012085,1,1.567793846130371,None,,,,,,,,,,,,,,,,,,195,2,2025-03-05_12h55.20.320,comp,2024.2.4,57.08314563312923,2025-03-05 12h55.29.562718 -0500,
35,35,0,filler_square,None,None,None,None,None,None,None,None,None,None,3,7.602893352508545,None,,,,,0,0,0,0,0,35,35,188,157.80942130088806,,,,,,,,,,,,,,,,,,,,,,,,,,,,,,,,,,,,,,,,,,,,,,,,,,,,,,,,,,,,,,,,,,,,,,,,,,,,,,,,,59.90794795167937,59.43085910116899,59.74078421436184,58.058729452751884,61.819319228063016,61.819319228063016,2.1,2.12,-155,-257,0,-256,156,274,157.79581332206726,157.79589653015137,157.7987642288208,157.80942130088806,157.95781445503235,157.95781445503235,157.95781445503235,157.95781445503235,157.95781445503235,157.95781445503235,157.95781445503235,165.41467547416687,3,7.602893352508545,None,,,,,,,,,,,,,,,,,,195,2,2025-03-05_12h55.20.320,comp,2024.2.4,57.08314563312923,2025-03-05 12h55.29.562718 -0500,
36,36,0,critical,hdw,20.0,2.1,lower,133.0,57.0,78.0,78.0,57.0,133.0,3,1.4052073955535889,None,,,,,0,0,0,0,0,36,36,22,165.43029475212097,,,,,,,,,,,,,,,,,,,,,,,,,,,,,,,,,,,,,,,,,,,,,,,,,,,,,,,,,,,,,,,,,,,,,,,,,,,,,,,,,133.0,57.0,78.0,78.0,57.0,133.0,2.1,2.12,-164,-272,0,-269,202,262,165.4161958694458,165.4162712097168,165.41912651062012,165.43029475212097,165.572491645813,165.572491645813,165.572491645813,165.572491645813,165.572491645813,165.572491645813,165.572491645813,166.84826588630676,3,1.4052073955535889,None,,,,,,,,,,,,,,,,,,195,2,2025-03-05_12h55.20.320,comp,2024.2.4,57.08314563312923,2025-03-05 12h55.29.562718 -0500,
37,37,0,critical,hwd,20.0,2.1,upper,200.0,125.0,125.0,200.0,141.0,141.0,2,9.251345872879028,None,,,,,0,0,0,0,0,37,37,43,166.8641345500946,,,,,,,,,,,,,,,,,,,,,,,,,,,,,,,,,,,,,,,,,,,,,,,,,,,,,,,,,,,,,,,,,,,,,,,,,,,,,,,,,200.0,125.0,125.0,200.0,141.0,141.0,2.1,2.11,-258,290,0,263,266,-259,166.8499140739441,166.84999251365662,166.85332369804382,166.8641345500946,167.0083944797516,167.0083944797516,167.0083944797516,167.0083944797516,167.0083944797516,167.0083944797516,167.0083944797516,176.1257266998291,2,9.251345872879028,None,,,,,,,,,,,,,,,,,,195,2,2025-03-05_12h55.20.320,comp,2024.2.4,57.08314563312923,2025-03-05 12h55.29.562718 -0500,
38,38,0,filler_random,None,None,None,None,None,None,None,None,None,None,1,2.8786497116088867,None,,,,,0,0,0,0,0,38,38,143,176.14227104187012,,,,,,,,,,,,,,,,,,,,,,,,,,,,,,,,,,,,,,,,,,,,,,,,,,,,,,,,,,,,,,,,,,,,,,,,,,,,,,,,,104.87035801819204,128.41232848293288,69.29075603084937,115.04669038705168,108.13970143638315,108.6899313695242,1.0,1.3,262,-251,480,-277,688,-274,176.12737154960632,176.12744808197021,176.13042974472046,176.14227104187012,176.27983617782593,176.27983617782593,176.27983617782593,176.27983617782593,176.27983617782593,176.27983617782593,176.27983617782593,179.03938221931458,1,2.8786497116088867,None,,,,,,,,,,,,,,,,,,195,2,2025-03-05_12h55.20.320,comp,2024.2.4,57.08314563312923,2025-03-05 12h55.29.562718 -0500,
39,39,0,critical,dwh,20.0,2.1,upper,141.0,141.0,125.0,200.0,200.0,125.0,2,4.740558385848999,None,,,,,0,0,0,0,0,39,39,7,179.05506539344788,,,,,,,,,,,,,,,,,,,,,,,,,,,,,,,,,,,,,,,,,,,,,,,,,,,,,,,,,,,,,,,,,,,,,,,,,,,,,,,,,141.0,141.0,125.0,200.0,200.0,125.0,2.1,2.12,-266,-278,0,-277,258,252,179.0409574508667,179.04103446006775,179.0439329147339,179.05506539344788,179.19816946983337,179.19816946983337,179.19816946983337,179.19816946983337,179.19816946983337,179.19816946983337,179.19816946983337,183.81242275238037,2,4.740558385848999,None,,,,,,,,,,,,,,,,,,195,2,2025-03-05_12h55.20.320,comp,2024.2.4,57.08314563312923,2025-03-05 12h55.29.562718 -0500,
40,40,0,critical,hdw,20.0,2.1,lower,133.0,57.0,78.0,78.0,57.0,133.0,3,1.9754924774169922,None,,,,,0,0,0,0,0,40,40,46,183.8288552761078,,,,,,,,,,,,,,,,,,,,,,,,,,,,,,,,,,,,,,,,,,,,,,,,,,,,,,,,,,,,,,,,,,,,,,,,,,,,,,,,,133.0,57.0,78.0,78.0,57.0,133.0,2.1,2.11,-164,256,0,253,202,-252,183.81394124031067,183.81401872634888,183.81715774536133,183.8288552761078,183.98022317886353,183.98022317886353,183.98022317886353,183.98022317886353,183.98022317886353,183.98022317886353,183.98022317886353,185.81282591819763,3,1.9754924774169922,None,,,,,,,,,,,,,,,,,,195,2,2025-03-05_12h55.20.320,comp,2024.2.4,57.08314563312923,2025-03-05 12h55.29.562718 -0500,
41,41,0,filler_square,None,None,None,None,None,None,None,None,None,None,1,2.408475160598755,None,,,,,0,0,0,0,0,41,41,202,185.82933115959167,,,,,,,,,,,,,,,,,,,,,,,,,,,,,,,,,,,,,,,,,,,,,,,,,,,,,,,,,,,,,,,,,,,,,,,,,,,,,,,,,136.7139394983194,136.7139394983194,66.67200223995302,127.87925981557004,135.798140832978,82.48551136133435,2.2,2.22,-228,289,0,-254,201,-281,185.81457257270813,185.8146734237671,185.81771779060364,185.82933115959167,185.97957634925842,185.97957634925842,185.97957634925842,185.97957634925842,185.97957634925842,185.97957634925842,185.97957634925842,188.240948677063,1,2.408475160598755,None,,,,,,,,,,,,,,,,,,195,2,2025-03-05_12h55.20.320,comp,2024.2.4,57.08314563312923,2025-03-05 12h55.29.562718 -0500,
42,42,0,critical,hdw,35.0,3.0,lower,133.0,57.0,70.0,70.0,57.0,133.0,3,3.8672730922698975,None,,,,,0,0,0,0,0,42,42,110,188.25628209114075,,,,,,,,,,,,,,,,,,,,,,,,,,,,,,,,,,,,,,,,,,,,,,,,,,,,,,,,,,,,,,,,,,,,,,,,,,,,,,,,,133.0,57.0,70.0,70.0,57.0,133.0,3.0,3.1,-160,271,0,11,198,-255,188.24241042137146,188.24248814582825,188.24537539482117,188.25628209114075,188.39928078651428,188.39928078651428,188.39928078651428,188.39928078651428,188.39928078651428,188.39928078651428,188.39928078651428,192.1350543498993,3,3.8672730922698975,None,,,,,,,,,,,,,,,,,,195,2,2025-03-05_12h55.20.320,comp,2024.2.4,57.08314563312923,2025-03-05 12h55.29.562718 -0500,
43,43,0,catch,None,None,None,None,None,None,None,None,None,None,1,1.628554105758667,None,,,,,0,0,0,0,0,43,43,120,192.15149879455566,,,,,,,,,,,,,,,,,,,,,,,,,,,,,,,,,,,,,,,,,,,,,,,,,,,,,,,,,,,,,,,,,,,,,,,,,,,,,,,,,144,181,120,70,129,61,4.0,4.1,-222,-255,0,-19,162,-265,192.13734889030457,192.13742923736572,192.14034962654114,192.15149879455566,192.30030822753906,192.30030822753906,192.30030822753906,192.30030822753906,192.30030822753906,192.30030822753906,192.30030822753906,193.7821593284607,1,1.628554105758667,None,,,,,,,,,,,,,,,,,,195,2,2025-03-05_12h55.20.320,comp,2024.2.4,57.08314563312923,2025-03-05 12h55.29.562718 -0500,
44,44,0,catch,None,None,None,None,None,None,None,None,None,None,1,1.261328935623169,None,,,,,0,0,0,0,0,44,44,121,193.79891848564148,,,,,,,,,,,,,,,,,,,,,,,,,,,,,,,,,,,,,,,,,,,,,,,,,,,,,,,,,,,,,,,,,,,,,,,,,,,,,,,,,158,167,59,131,129,61,2.2,2.21,-245,-264,0,260,192,280,193.78409242630005,193.78416919708252,193.78731751441956,193.79891848564148,193.9475610256195,193.9475610256195,193.9475610256195,193.9475610256195,193.9475610256195,193.9475610256195,193.9475610256195,195.06668186187744,1,1.261328935623169,None,,,,,,,,,,,,,,,,,,195,2,2025-03-05_12h55.20.320,comp,2024.2.4,57.08314563312923,2025-03-05 12h55.29.562718 -0500,
45,45,0,filler_square,None,None,None,None,None,None,None,None,None,None,1,2.8809871673583984,None,,,,,0,0,0,0,0,45,45,203,195.08299612998962,,,,,,,,,,,,,,,,,,,,,,,,,,,,,,,,,,,,,,,,,,,,,,,,,,,,,,,,,,,,,,,,,,,,,,,,,,,,,,,,,124.43710525474356,124.43710525474356,121.86704414397528,89.48056967256682,120.85053924550118,108.20766262503525,4.0,4.1,-203,-261,0,-18,195,-251,195.06850266456604,195.06858134269714,195.0727231502533,195.08299612998962,195.23315286636353,195.23315286636353,195.23315286636353,195.23315286636353,195.23315286636353,195.23315286636353,195.23315286636353,197.9663143157959,1,2.8809871673583984,None,,,,,,,,,,,,,,,,,,195,2,2025-03-05_12h55.20.320,comp,2024.2.4,57.08314563312923,2025-03-05 12h55.29.562718 -0500,
46,46,0,critical,whd,35.0,2.1,lower,57.0,133.0,133.0,57.0,70.0,70.0,1,2.197660207748413,None,,,,,0,0,0,0,0,46,46,12,197.98261260986328,,,,,,,,,,,,,,,,,,,,,,,,,,,,,,,,,,,,,,,,,,,,,,,,,,,,,,,,,,,,,,,,,,,,,,,,,,,,,,,,,57.0,133.0,133.0,57.0,70.0,70.0,2.1,2.12,-191,-265,0,-272,160,286,197.9678897857666,197.96796941757202,197.9710395336151,197.98261260986328,198.1356360912323,198.1356360912323,198.1356360912323,198.1356360912323,198.1356360912323,198.1356360912323,198.1356360912323,200.18576049804688,1,2.197660207748413,None,,,,,,,,,,,,,,,,,,195,2,2025-03-05_12h55.20.320,comp,2024.2.4,57.08314563312923,2025-03-05 12h55.29.562718 -0500,
47,47,0,filler_square,None,None,None,None,None,None,None,None,None,None,1,1.9058234691619873,None,,,,,0,0,0,0,0,47,47,170,200.20178747177124,,,,,,,,,,,,,,,,,,,,,,,,,,,,,,,,,,,,,,,,,,,,,,,,,,,,,,,,,,,,,,,,,,,,,,,,,,,,,,,,,157.301249739916,157.301249739916,144.44478950508713,140.9355157670613,144.01899878192057,118.01322472418852,4.0,4.1,-245,-286,0,0,225,-254,200.18771982192993,200.18780255317688,200.19107294082642,200.20178747177124,200.35083436965942,200.35083436965942,200.35083436965942,200.35083436965942,200.35083436965942,200.35083436965942,200.35083436965942,202.1178379058838,1,1.9058234691619873,None,,,,,,,,,,,,,,,,,,195,2,2025-03-05_12h55.20.320,comp,2024.2.4,57.08314563312923,2025-03-05 12h55.29.562718 -0500,
48,48,0,critical,whd,20.0,2.1,lower,57.0,133.0,133.0,57.0,78.0,78.0,1,2.6785104274749756,None,,,,,0,0,0,0,0,48,48,14,202.1345410346985,,,,,,,,,,,,,,,,,,,,,,,,,,,,,,,,,,,,,,,,,,,,,,,,,,,,,,,,,,,,,,,,,,,,,,,,,,,,,,,,,57.0,133.0,133.0,57.0,78.0,78.0,2.1,2.11,-191,258,0,252,164,-251,202.11932730674744,202.1194064617157,202.12246227264404,202.1345410346985,202.2854425907135,202.2854425907135,202.2854425907135,202.2854425907135,202.2854425907135,202.2854425907135,202.2854425907135,204.81875276565552,1,2.6785104274749756,None,,,,,,,,,,,,,,,,,,195,2,2025-03-05_12h55.20.320,comp,2024.2.4,57.08314563312923,2025-03-05 12h55.29.562718 -0500,
49,49,0,filler_square,None,None,None,None,None,None,None,None,None,None,1,1.9615740776062012,None,,,,,0,0,0,0,0,49,49,185,204.83476328849792,,,,,,,,,,,,,,,,,,,,,,,,,,,,,,,,,,,,,,,,,,,,,,,,,,,,,,,,,,,,,,,,,,,,,,,,,,,,,,,,,158.46397879539074,158.46397879539074,91.93543498456089,61.301136290792144,113.1962346665332,140.886472317107,2.2,2.22,-206,254,0,-260,197,-274,204.82049036026,204.82056522369385,204.82370376586914,204.83476328849792,204.9870903491974,204.9870903491974,204.9870903491974,204.9870903491974,204.9870903491974,204.9870903491974,204.9870903491974,206.80370116233826,1,1.9615740776062012,None,,,,,,,,,,,,,,,,,,195,2,2025-03-05_12h55.20.320,comp,2024.2.4,57.08314563312923,2025-03-05 12h55.29.562718 -0500,
50,50,0,filler_square,None,None,None,None,None,None,None,None,None,None,3,1.4488952159881592,None,,,,,0,0,0,0,0,50,50,197,206.81950283050537,,,,,,,,,,,,,,,,,,,,,,,,,,,,,,,,,,,,,,,,,,,,,,,,,,,,,,,,,,,,,,,,,,,,,,,,,,,,,,,,,132.67186729840046,90.56961654066751,132.4714088757474,64.07879282379727,134.65983487332295,134.65983487332295,3.0,3.1,-173,254,0,-11,195,-268,206.80547094345093,206.80554914474487,206.80894565582275,206.81950283050537,206.97298979759216,206.97298979759216,206.97298979759216,206.97298979759216,206.97298979759216,206.97298979759216,206.97298979759216,208.2765293121338,3,1.4488952159881592,None,,,,,,,,,,,,,,,,,,195,2,2025-03-05_12h55.20.320,comp,2024.2.4,57.08314563312923,2025-03-05 12h55.29.562718 -0500,
51,51,0,critical,dhw,20.0,3.0,lower,78.0,78.0,133.0,57.0,57.0,133.0,3,2.9091591835021973,None,,,,,0,0,0,0,0,51,51,56,208.29447484016418,,,,,,,,,,,,,,,,,,,,,,,,,,,,,,,,,,,,,,,,,,,,,,,,,,,,,,,,,,,,,,,,,,,,,,,,,,,,,,,,,78.0,78.0,133.0,57.0,57.0,133.0,3.0,3.1,-164,255,0,-7,191,-285,208.2781207561493,208.27819800376892,208.28149676322937,208.29447484016418,208.43790078163147,208.43790078163147,208.43790078163147,208.43790078163147,208.43790078163147,208.43790078163147,208.43790078163147,211.22089409828186,3,2.9091591835021973,None,,,,,,,,,,,,,,,,,,195,2,2025-03-05_12h55.20.320,comp,2024.2.4,57.08314563312923,2025-03-05 12h55.29.562718 -0500,
52,52,0,filler_random,None,None,None,None,None,None,None,None,None,None,2,3.498396635055542,None,,,,,0,0,0,0,0,52,52,141,211.2416968345642,,,,,,,,,,,,,,,,,,,,,,,,,,,,,,,,,,,,,,,,,,,,,,,,,,,,,,,,,,,,,,,,,,,,,,,,,,,,,,,,,146.49995940839176,131.05304426216952,186.10039978269918,158.3898412387941,71.80622250793846,121.73476356766568,3.0,3.1,-241,280,0,-1,236,-276,211.2227668762207,211.22286891937256,211.22622919082642,211.2416968345642,211.3903157711029,211.3903157711029,211.3903157711029,211.3903157711029,211.3903157711029,211.3903157711029,211.3903157711029,214.74442601203918,2,3.498396635055542,None,,,,,,,,,,,,,,,,,,195,2,2025-03-05_12h55.20.320,comp,2024.2.4,57.08314563312923,2025-03-05 12h55.29.562718 -0500,
53,53,0,critical,dwh,35.0,1.0,upper,127.0,127.0,125.0,200.0,200.0,125.0,2,3.360274314880371,None,,,,,0,0,0,0,0,53,53,61,214.763530254364,,,,,,,,,,,,,,,,,,,,,,,,,,,,,,,,,,,,,,,,,,,,,,,,,,,,,,,,,,,,,,,,,,,,,,,,,,,,,,,,,127.0,127.0,125.0,200.0,200.0,125.0,1.0,1.2,-260,5,0,11,258,13,214.7461292743683,214.74621033668518,214.74951148033142,214.763530254364,214.9024224281311,214.9024224281311,214.9024224281311,214.9024224281311,214.9024224281311,214.9024224281311,214.9024224281311,218.12785983085632,2,3.360274314880371,None,,,,,,,,,,,,,,,,,,195,2,2025-03-05_12h55.20.320,comp,2024.2.4,57.08314563312923,2025-03-05 12h55.29.562718 -0500,
54,54,0,critical,hwd,35.0,2.1,lower,133.0,57.0,57.0,133.0,70.0,70.0,2,6.452082872390747,None,,,,,0,0,0,0,0,54,54,16,218.14366793632507,,,,,,,,,,,,,,,,,,,,,,,,,,,,,,,,,,,,,,,,,,,,,,,,,,,,,,,,,,,,,,,,,,,,,,,,,,,,,,,,,133.0,57.0,57.0,133.0,70.0,70.0,2.1,2.11,-191,250,0,264,198,-277,218.1300015449524,218.13008213043213,218.13297080993652,218.14366793632507,218.29306316375732,218.29306316375732,218.29306316375732,218.29306316375732,218.29306316375732,218.29306316375732,218.29306316375732,224.60902976989746,2,6.452082872390747,None,,,,,,,,,,,,,,,,,,195,2,2025-03-05_12h55.20.320,comp,2024.2.4,57.08314563312923,2025-03-05 12h55.29.562718 -0500,
55,55,0,critical,hwd,20.0,1.0,lower,133.0,57.0,57.0,133.0,78.0,78.0,2,2.2351319789886475,None,,,,,0,0,0,0,0,55,55,102,224.62526845932007,,,,,,,,,,,,,,,,,,,,,,,,,,,,,,,,,,,,,,,,,,,,,,,,,,,,,,,,,,,,,,,,,,,,,,,,,,,,,,,,,133.0,57.0,57.0,133.0,78.0,78.0,1.0,1.2,-191,13,0,18,202,-2,224.61047315597534,224.61054849624634,224.614107131958,224.62526845932007,224.77443313598633,224.77443313598633,224.77443313598633,224.77443313598633,224.77443313598633,224.77443313598633,224.77443313598633,226.86712217330933,2,2.2351319789886475,None,,,,,,,,,,,,,,,,,,195,2,2025-03-05_12h55.20.320,comp,2024.2.4,57.08314563312923,2025-03-05 12h55.29.562718 -0500,
56,56,0,critical,dhw,20.0,2.1,upper,141.0,141.0,200.0,125.0,125.0,200.0,3,1.7824702262878418,None,,,,,0,0,0,0,0,56,56,27,226.88523650169373,,,,,,,,,,,,,,,,,,,,,,,,,,,,,,,,,,,,,,,,,,,,,,,,,,,,,,,,,,,,,,,,,,,,,,,,,,,,,,,,,141.0,141.0,200.0,125.0,125.0,200.0,2.1,2.12,-229,-288,0,-280,258,255,226.8686864376068,226.86876392364502,226.8720405101776,226.88523650169373,227.02817034721375,227.02817034721375,227.02817034721375,227.02817034721375,227.02817034721375,227.02817034721375,227.02817034721375,228.68222069740295,3,1.7824702262878418,None,,,,,,,,,,,,,,,,,,195,2,2025-03-05_12h55.20.320,comp,2024.2.4,57.08314563312923,2025-03-05 12h55.29.562718 -0500,
57,57,0,critical,whd,20.0,3.0,lower,57.0,133.0,133.0,57.0,78.0,78.0,1,2.559401035308838,None,,,,,0,0,0,0,0,57,57,92,228.70046067237854,,,,,,,,,,,,,,,,,,,,,,,,,,,,,,,,,,,,,,,,,,,,,,,,,,,,,,,,,,,,,,,,,,,,,,,,,,,,,,,,,57.0,133.0,133.0,57.0,78.0,78.0,3.0,3.1,-191,257,0,12,164,-280,228.68374800682068,228.68382573127747,228.68671131134033,228.70046067237854,228.84367609024048,228.84367609024048,228.84367609024048,228.84367609024048,228.84367609024048,228.84367609024048,228.84367609024048,231.27261400222778,1,2.559401035308838,None,,,,,,,,,,,,,,,,,,195,2,2025-03-05_12h55.20.320,comp,2024.2.4,57.08314563312923,2025-03-05 12h55.29.562718 -0500,
58,58,0,critical,hdw,20.0,2.1,upper,200.0,125.0,141.0,141.0,125.0,200.0,3,7.163856744766235,None,,,,,0,0,0,0,0,58,58,47,231.2882685661316,,,,,,,,,,,,,,,,,,,,,,,,,,,,,,,,,,,,,,,,,,,,,,,,,,,,,,,,,,,,,,,,,,,,,,,,,,,,,,,,,200.0,125.0,141.0,141.0,125.0,200.0,2.1,2.11,-229,251,0,269,266,-282,231.27416062355042,231.27423787117004,231.2771098613739,231.2882685661316,231.42792415618896,231.42792415618896,231.42792415618896,231.42792415618896,231.42792415618896,231.42792415618896,231.42792415618896,238.4545600414276,3,7.163856744766235,None,,,,,,,,,,,,,,,,,,195,2,2025-03-05_12h55.20.320,comp,2024.2.4,57.08314563312923,2025-03-05 12h55.29.562718 -0500,
59,59,0,critical,dwh,20.0,2.1,upper,141.0,141.0,125.0,200.0,200.0,125.0,2,8.133087873458862,None,,,,,0,0,0,0,0,59,59,31,238.47294163703918,,,,,,,,,,,,,,,,,,,,,,,,,,,,,,,,,,,,,,,,,,,,,,,,,,,,,,,,,,,,,,,,,,,,,,,,,,,,,,,,,141.0,141.0,125.0,200.0,200.0,125.0,2.1,2.11,-266,290,0,277,258,-274,238.45625114440918,238.45638489723206,238.4596927165985,238.47294163703918,238.61453294754028,238.61453294754028,238.61453294754028,238.61453294754028,238.61453294754028,238.61453294754028,238.61453294754028,246.61629724502563,2,8.133087873458862,None,,,,,,,,,,,,,,,,,,195,2,2025-03-05_12h55.20.320,comp,2024.2.4,57.08314563312923,2025-03-05 12h55.29.562718 -0500,
60,60,0,critical,hwd,20.0,4.0,upper,200.0,125.0,125.0,200.0,141.0,141.0,2,2.299506425857544,None,,,,,0,0,0,0,0,60,60,107,246.6322090625763,,,,,,,,,,,,,,,,,,,,,,,,,,,,,,,,,,,,,,,,,,,,,,,,,,,,,,,,,,,,,,,,,,,,,,,,,,,,,,,,,200.0,125.0,125.0,200.0,141.0,141.0,4.0,4.1,-258,-283,0,-5,266,-264,246.61786699295044,246.6179485321045,246.6213743686676,246.6322090625763,246.78776097297668,246.78776097297668,246.78776097297668,246.78776097297668,246.78776097297668,246.78776097297668,246.78776097297668,248.9494595527649,2,2.299506425857544,None,,,,,,,,,,,,,,,,,,195,2,2025-03-05_12h55.20.320,comp,2024.2.4,57.08314563312923,2025-03-05 12h55.29.562718 -0500,
61,61,0,filler_square,None,None,None,None,None,None,None,None,None,None,2,1.328033208847046,None,,,,,0,0,0,0,0,61,61,199,248.9648540019989,,,,,,,,,,,,,,,,,,,,,,,,,,,,,,,,,,,,,,,,,,,,,,,,,,,,,,,,,,,,,,,,,,,,,,,,,,,,,,,,,57.86404489055852,73.87282874737171,140.55776685807098,140.55776685807098,110.77107468123964,58.97494932890458,3.0,3.2,-203,-285,0,14,196,260,248.9513063430786,248.95138359069824,248.95432686805725,248.9648540019989,249.11766624450684,249.11766624450684,249.11766624450684,249.11766624450684,249.11766624450684,249.11766624450684,249.11766624450684,250.2998993396759,2,1.328033208847046,None,,,,,,,,,,,,,,,,,,195,2,2025-03-05_12h55.20.320,comp,2024.2.4,57.08314563312923,2025-03-05 12h55.29.562718 -0500,
62,62,0,filler_random,None,None,None,None,None,None,None,None,None,None,2,1.4858448505401611,None,,,,,0,0,0,0,0,62,62,166,250.31797575950623,,,,,,,,,,,,,,,,,,,,,,,,,,,,,,,,,,,,,,,,,,,,,,,,,,,,,,,,,,,,,,,,,,,,,,,,,,,,,,,,,81.43581324317238,121.7444022721676,158.07556503177847,173.87742489611992,137.92652158948601,138.93797953465696,3.0,3.2,-244,-283,0,3,252,266,250.301451921463,250.3015284538269,250.30432176589966,250.31797575950623,250.45498251914978,250.45498251914978,250.45498251914978,250.45498251914978,250.45498251914978,250.45498251914978,250.45498251914978,251.81874704360962,2,1.4858448505401611,None,,,,,,,,,,,,,,,,,,195,2,2025-03-05_12h55.20.320,comp,2024.2.4,57.08314563312923,2025-03-05 12h55.29.562718 -0500,
63,63,0,critical,dhw,20.0,3.0,upper,141.0,141.0,200.0,125.0,125.0,200.0,3,1.6108925342559814,None,,,,,0,0,0,0,0,63,63,57,251.83396172523499,,,,,,,,,,,,,,,,,,,,,,,,,,,,,,,,,,,,,,,,,,,,,,,,,,,,,,,,,,,,,,,,,,,,,,,,,,,,,,,,,141.0,141.0,200.0,125.0,125.0,200.0,3.0,3.1,-229,278,0,-10,258,-277,251.82031798362732,251.82039380073547,251.8237271308899,251.83396172523499,251.98399448394775,251.98399448394775,251.98399448394775,251.98399448394775,251.98399448394775,251.98399448394775,251.98399448394775,253.4520936012268,3,1.6108925342559814,None,,,,,,,,,,,,,,,,,,195,2,2025-03-05_12h55.20.320,comp,2024.2.4,57.08314563312923,2025-03-05 12h55.29.562718 -0500,
64,64,0,catch,None,None,None,None,None,None,None,None,None,None,3,1.4060018062591553,None,,,,,0,0,0,0,0,64,64,124,253.4697937965393,,,,,,,,,,,,,,,,,,,,,,,,,,,,,,,,,,,,,,,,,,,,,,,,,,,,,,,,,,,,,,,,,,,,,,,,,,,,,,,,,122,68,87,103,166,159,2.2,2.21,-182,-277,0,255,227,259,253.45415425300598,253.45423483848572,253.45827198028564,253.4697937965393,253.6193299293518,253.6193299293518,253.6193299293518,253.6193299293518,253.6193299293518,253.6193299293518,253.6193299293518,254.88718056678772,3,1.4060018062591553,None,,,,,,,,,,,,,,,,,,195,2,2025-03-05_12h55.20.320,comp,2024.2.4,57.08314563312923,2025-03-05 12h55.29.562718 -0500,
65,65,0,critical,hwd,35.0,3.0,lower,133.0,57.0,57.0,133.0,70.0,70.0,2,2.2536094188690186,None,,,,,0,0,0,0,0,65,65,98,254.9025719165802,,,,,,,,,,,,,,,,,,,,,,,,,,,,,,,,,,,,,,,,,,,,,,,,,,,,,,,,,,,,,,,,,,,,,,,,,,,,,,,,,133.0,57.0,57.0,133.0,70.0,70.0,3.0,3.1,-191,255,0,8,198,-288,254.88864827156067,254.88872647285461,254.89176392555237,254.9025719165802,255.05176043510437,255.05176043510437,255.05176043510437,255.05176043510437,255.05176043510437,255.05176043510437,255.05176043510437,257.1694269180298,2,2.2536094188690186,None,,,,,,,,,,,,,,,,,,195,2,2025-03-05_12h55.20.320,comp,2024.2.4,57.08314563312923,2025-03-05 12h55.29.562718 -0500,
66,66,0,critical,wdh,35.0,4.0,upper,125.0,200.0,127.0,127.0,200.0,125.0,3,6.4742724895477295,None,,,,,0,0,0,0,0,66,66,77,257.1854407787323,,,,,,,,,,,,,,,,,,,,,,,,,,,,,,,,,,,,,,,,,,,,,,,,,,,,,,,,,,,,,,,,,,,,,,,,,,,,,,,,,125.0,200.0,127.0,127.0,200.0,125.0,4.0,4.2,-260,2,0,-287,222,-14,257.1709430217743,257.171019077301,257.1750144958496,257.1854407787323,257.334858417511,257.334858417511,257.334858417511,257.334858417511,257.334858417511,257.334858417511,257.334858417511,263.67041397094727,3,6.4742724895477295,None,,,,,,,,,,,,,,,,,,195,2,2025-03-05_12h55.20.320,comp,2024.2.4,57.08314563312923,2025-03-05 12h55.29.562718 -0500,
67,67,0,critical,hwd,20.0,3.0,lower,133.0,57.0,57.0,133.0,78.0,78.0,2,3.7611424922943115,None,,,,,0,0,0,0,0,67,67,104,263.6906487941742,,,,,,,,,,,,,,,,,,,,,,,,,,,,,,,,,,,,,,,,,,,,,,,,,,,,,,,,,,,,,,,,,,,,,,,,,,,,,,,,,133.0,57.0,57.0,133.0,78.0,78.0,3.0,3.1,-191,259,0,14,202,-271,263.6718850135803,263.6719608306885,263.6749680042267,263.6906487941742,263.8380973339081,263.8380973339081,263.8380973339081,263.8380973339081,263.8380973339081,263.8380973339081,263.8380973339081,267.4719274044037,2,3.7611424922943115,None,,,,,,,,,,,,,,,,,,195,2,2025-03-05_12h55.20.320,comp,2024.2.4,57.08314563312923,2025-03-05 12h55.29.562718 -0500,
68,68,0,filler_square,None,None,None,None,None,None,None,None,None,None,2,2.371849536895752,None,,,,,0,0,0,0,0,68,68,198,267.4880757331848,,,,,,,,,,,,,,,,,,,,,,,,,,,,,,,,,,,,,,,,,,,,,,,,,,,,,,,,,,,,,,,,,,,,,,,,,,,,,,,,,95.26795394416816,103.47958822485793,140.18144013313577,140.18144013313577,79.61282527792389,113.5381047293317,2.1,2.11,-218,286,0,290,223,-267,267.4737455844879,267.47382259368896,267.4769277572632,267.4880757331848,267.63873529434204,267.63873529434204,267.63873529434204,267.63873529434204,267.63873529434204,267.63873529434204,267.63873529434204,269.8733584880829,2,2.371849536895752,None,,,,,,,,,,,,,,,,,,195,2,2025-03-05_12h55.20.320,comp,2024.2.4,57.08314563312923,2025-03-05 12h55.29.562718 -0500,
69,69,0,critical,dwh,20.0,2.1,lower,78.0,78.0,57.0,133.0,133.0,57.0,2,6.283232927322388,None,,,,,0,0,0,0,0,69,69,30,269.8885326385498,,,,,,,,,,,,,,,,,,,,,,,,,,,,,,,,,,,,,,,,,,,,,,,,,,,,,,,,,,,,,,,,,,,,,,,,,,,,,,,,,78.0,78.0,57.0,133.0,133.0,57.0,2.1,2.12,-202,-287,0,-289,191,270,269.8748664855957,269.874942779541,269.87792778015137,269.8885326385498,270.02790808677673,270.02790808677673,270.02790808677673,270.02790808677673,270.02790808677673,270.02790808677673,270.02790808677673,276.17598390579224,2,6.283232927322388,None,,,,,,,,,,,,,,,,,,195,2,2025-03-05_12h55.20.320,comp,2024.2.4,57.08314563312923,2025-03-05 12h55.29.562718 -0500,
70,70,0,critical,hdw,20.0,3.0,upper,200.0,125.0,141.0,141.0,125.0,200.0,3,5.843820810317993,None,,,,,0,0,0,0,0,70,70,117,276.1919569969177,,,,,,,,,,,,,,,,,,,,,,,,,,,,,,,,,,,,,,,,,,,,,,,,,,,,,,,,,,,,,,,,,,,,,,,,,,,,,,,,,200.0,125.0,141.0,141.0,125.0,200.0,3.0,3.2,-229,-276,0,-13,266,252,276.177618265152,276.17770314216614,276.1811079978943,276.1919569969177,276.34146642684937,276.34146642684937,276.34146642684937,276.34146642684937,276.34146642684937,276.34146642684937,276.34146642684937,282.05379724502563,3,5.843820810317993,None,,,,,,,,,,,,,,,,,,195,2,2025-03-05_12h55.20.320,comp,2024.2.4,57.08314563312923,2025-03-05 12h55.29.562718 -0500,
71,71,0,critical,whd,35.0,2.1,lower,57.0,133.0,133.0,57.0,70.0,70.0,1,3.005042791366577,None,,,,,0,0,0,0,0,71,71,36,282.07090950012207,,,,,,,,,,,,,,,,,,,,,,,,,,,,,,,,,,,,,,,,,,,,,,,,,,,,,,,,,,,,,,,,,,,,,,,,,,,,,,,,,57.0,133.0,133.0,57.0,70.0,70.0,2.1,2.11,-191,259,0,275,160,-254,282.05530762672424,282.05538535118103,282.0582799911499,282.07090950012207,282.20973920822144,282.20973920822144,282.20973920822144,282.20973920822144,282.20973920822144,282.20973920822144,282.20973920822144,285.0806441307068,1,3.005042791366577,None,,,,,,,,,,,,,,,,,,195,2,2025-03-05_12h55.20.320,comp,2024.2.4,57.08314563312923,2025-03-05 12h55.29.562718 -0500,
72,72,0,filler_square,None,None,None,None,None,None,None,None,None,None,1,3.399254322052002,None,,,,,0,0,0,0,0,72,72,172,285.1008596420288,,,,,,,,,,,,,,,,,,,,,,,,,,,,,,,,,,,,,,,,,,,,,,,,,,,,,,,,,,,,,,,,,,,,,,,,,,,,,,,,,169.11355303652078,169.11355303652078,113.03436821640969,76.8919257921307,87.94424772244935,150.5117860358622,2.2,2.22,-219,253,0,-276,210,-265,285.08283019065857,285.0829129219055,285.08618688583374,285.1008596420288,285.2426919937134,285.2426919937134,285.2426919937134,285.2426919937134,285.2426919937134,285.2426919937134,285.2426919937134,288.51306986808777,1,3.399254322052002,None,,,,,,,,,,,,,,,,,,195,2,2025-03-05_12h55.20.320,comp,2024.2.4,57.08314563312923,2025-03-05 12h55.29.562718 -0500,
73,73,0,critical,dhw,20.0,4.0,lower,78.0,78.0,133.0,57.0,57.0,133.0,3,2.867781400680542,None,,,,,0,0,0,0,0,73,73,58,288.5289180278778,,,,,,,,,,,,,,,,,,,,,,,,,,,,,,,,,,,,,,,,,,,,,,,,,,,,,,,,,,,,,,,,,,,,,,,,,,,,,,,,,78.0,78.0,133.0,57.0,57.0,133.0,4.0,4.2,-164,-11,0,-283,191,17,288.5145015716553,288.51457619667053,288.51741123199463,288.5289180278778,288.6823055744171,288.6823055744171,288.6823055744171,288.6823055744171,288.6823055744171,288.6823055744171,288.6823055744171,291.4031312465668,3,2.867781400680542,None,,,,,,,,,,,,,,,,,,195,2,2025-03-05_12h55.20.320,comp,2024.2.4,57.08314563312923,2025-03-05 12h55.29.562718 -0500,
74,74,0,critical,hdw,35.0,2.1,lower,133.0,57.0,70.0,70.0,57.0,133.0,3,1.7677726745605469,None,,,,,0,0,0,0,0,74,74,44,291.42098593711853,,,,,,,,,,,,,,,,,,,,,,,,,,,,,,,,,,,,,,,,,,,,,,,,,,,,,,,,,,,,,,,,,,,,,,,,,,,,,,,,,133.0,57.0,70.0,70.0,57.0,133.0,2.1,2.12,-160,-275,0,-279,198,286,291.4047040939331,291.40478253364563,291.40772128105164,291.42098593711853,291.5607511997223,291.5607511997223,291.5607511997223,291.5607511997223,291.5607511997223,291.5607511997223,291.5607511997223,293.19619727134705,3,1.7677726745605469,None,,,,,,,,,,,,,,,,,,195,2,2025-03-05_12h55.20.320,comp,2024.2.4,57.08314563312923,2025-03-05 12h55.29.562718 -0500,
75,75,0,critical,wdh,35.0,2.1,upper,125.0,200.0,127.0,127.0,200.0,125.0,1,4.1440818309783936,None,,,,,0,0,0,0,0,75,75,33,293.2127048969269,,,,,,,,,,,,,,,,,,,,,,,,,,,,,,,,,,,,,,,,,,,,,,,,,,,,,,,,,,,,,,,,,,,,,,,,,,,,,,,,,125.0,200.0,127.0,127.0,200.0,125.0,2.1,2.12,-260,-251,0,-257,222,257,293.1977438926697,293.1978244781494,293.200980424881,293.2127048969269,293.3630654811859,293.3630654811859,293.3630654811859,293.3630654811859,293.3630654811859,293.3630654811859,293.3630654811859,297.3662233352661,1,4.1440818309783936,None,,,,,,,,,,,,,,,,,,195,2,2025-03-05_12h55.20.320,comp,2024.2.4,57.08314563312923,2025-03-05 12h55.29.562718 -0500,
76,76,0,critical,wdh,20.0,3.0,lower,57.0,133.0,78.0,78.0,133.0,57.0,3,2.189990520477295,None,,,,,0,0,0,0,0,76,76,80,297.38268303871155,,,,,,,,,,,,,,,,,,,,,,,,,,,,,,,,,,,,,,,,,,,,,,,,,,,,,,,,,,,,,,,,,,,,,,,,,,,,,,,,,57.0,133.0,78.0,78.0,133.0,57.0,3.0,3.2,-202,-250,0,15,164,269,297.36780881881714,297.3678889274597,297.37190675735474,297.38268303871155,297.5367023944855,297.5367023944855,297.5367023944855,297.5367023944855,297.5367023944855,297.5367023944855,297.5367023944855,299.58365178108215,3,2.189990520477295,None,,,,,,,,,,,,,,,,,,195,2,2025-03-05_12h55.20.320,comp,2024.2.4,57.08314563312923,2025-03-05 12h55.29.562718 -0500,
77,77,0,critical,wdh,20.0,2.1,lower,57.0,133.0,78.0,78.0,133.0,57.0,3,2.003758668899536,None,,,,,0,0,0,0,0,77,77,34,299.6000859737396,,,,,,,,,,,,,,,,,,,,,,,,,,,,,,,,,,,,,,,,,,,,,,,,,,,,,,,,,,,,,,,,,,,,,,,,,,,,,,,,,57.0,133.0,78.0,78.0,133.0,57.0,2.1,2.12,-202,-275,0,-274,164,287,299.58519744873047,299.5852777957916,299.5893442630768,299.6000859737396,299.75233912467957,299.75233912467957,299.75233912467957,299.75233912467957,299.75233912467957,299.75233912467957,299.75233912467957,301.6239094734192,3,2.003758668899536,None,,,,,,,,,,,,,,,,,,195,2,2025-03-05_12h55.20.320,comp,2024.2.4,57.08314563312923,2025-03-05 12h55.29.562718 -0500,
78,78,0,filler_random,None,None,None,None,None,None,None,None,None,None,1,2.1368677616119385,None,,,,,0,0,0,0,0,78,78,157,301.64298462867737,,,,,,,,,,,,,,,,,,,,,,,,,,,,,,,,,,,,,,,,,,,,,,,,,,,,,,,,,,,,,,,,,,,,,,,,,,,,,,,,,186.42208527741425,154.49179131394712,88.14744716119047,112.51946918615306,150.40150608209717,90.04110835885731,4.0,4.2,-230,6,0,-283,197,-9,301.62565541267395,301.62578415870667,301.62900018692017,301.64298462867737,301.7845046520233,301.7845046520233,301.7845046520233,301.7845046520233,301.7845046520233,301.7845046520233,301.7845046520233,303.78390669822693,1,2.1368677616119385,None,,,,,,,,,,,,,,,,,,195,2,2025-03-05_12h55.20.320,comp,2024.2.4,57.08314563312923,2025-03-05 12h55.29.562718 -0500,
79,79,0,filler_square,None,None,None,None,None,None,None,None,None,None,2,1.611872911453247,None,,,,,0,0,0,0,0,79,79,194,303.800612449646,,,,,,,,,,,,,,,,,,,,,,,,,,,,,,,,,,,,,,,,,,,,,,,,,,,,,,,,,,,,,,,,,,,,,,,,,,,,,,,,,113.44841547352647,97.29814526007334,169.05024547197468,169.05024547197468,154.42377274145275,57.7950812905389,3.0,3.1,-229,263,0,8,209,-266,303.78573536872864,303.7858147621155,303.789790391922,303.800612449646,303.9509048461914,303.9509048461914,303.9509048461914,303.9509048461914,303.9509048461914,303.9509048461914,303.9509048461914,305.41695380210876,2,1.611872911453247,None,,,,,,,,,,,,,,,,,,195,2,2025-03-05_12h55.20.320,comp,2024.2.4,57.08314563312923,2025-03-05 12h55.29.562718 -0500,
80,80,0,filler_square,None,None,None,None,None,None,None,None,None,None,1,1.7507295608520508,None,,,,,0,0,0,0,0,80,80,184,305.4372208118439,,,,,,,,,,,,,,,,,,,,,,,,,,,,,,,,,,,,,,,,,,,,,,,,,,,,,,,,,,,,,,,,,,,,,,,,,,,,,,,,,115.52427313610312,115.52427313610312,64.61630915133124,106.1681487801905,80.33282740315634,111.03905844566039,3.0,3.2,-207,-286,0,8,205,262,305.4187033176422,305.41877913475037,305.4217472076416,305.4372208118439,305.584139585495,305.584139585495,305.584139585495,305.584139585495,305.584139585495,305.584139585495,305.584139585495,307.20092391967773,1,1.7507295608520508,None,,,,,,,,,,,,,,,,,,195,2,2025-03-05_12h55.20.320,comp,2024.2.4,57.08314563312923,2025-03-05 12h55.29.562718 -0500,
81,81,0,filler_random,None,None,None,None,None,None,None,None,None,None,3,3.298445224761963,None,,,,,0,0,0,0,0,81,81,149,307.21752405166626,,,,,,,,,,,,,,,,,,,,,,,,,,,,,,,,,,,,,,,,,,,,,,,,,,,,,,,,,,,,,,,,,,,,,,,,,,,,,,,,,73.66484537094675,165.94793052328615,147.06257144257359,75.09148522917118,131.72809027558537,134.13243231001434,1.0,1.3,263,-254,480,-268,681,-267,307.20269322395325,307.20281982421875,307.20611476898193,307.21752405166626,307.3684058189392,307.3684058189392,307.3684058189392,307.3684058189392,307.3684058189392,307.3684058189392,307.3684058189392,310.52037739753723,3,3.298445224761963,None,,,,,,,,,,,,,,,,,,195,2,2025-03-05_12h55.20.320,comp,2024.2.4,57.08314563312923,2025-03-05 12h55.29.562718 -0500,
82,82,0,filler_random,None,None,None,None,None,None,None,None,None,None,3,5.372943639755249,None,,,,,0,0,0,0,0,82,82,163,310.53519654273987,,,,,,,,,,,,,,,,,,,,,,,,,,,,,,,,,,,,,,,,,,,,,,,,,,,,,,,,,,,,,,,,,,,,,,,,,,,,,,,,,149.9669379563906,151.95413040862684,156.14934070147177,82.29248732145716,122.24788878227174,189.3530755017378,4.0,4.2,-213,1,0,-274,232,10,310.52213191986084,310.5222132205963,310.52524304389954,310.53519654273987,310.68721652030945,310.68721652030945,310.68721652030945,310.68721652030945,310.68721652030945,310.68721652030945,310.68721652030945,315.92153310775757,3,5.372943639755249,None,,,,,,,,,,,,,,,,,,195,2,2025-03-05_12h55.20.320,comp,2024.2.4,57.08314563312923,2025-03-05 12h55.29.562718 -0500,
83,83,0,filler_square,None,None,None,None,None,None,None,None,None,None,1,10.834871053695679,None,,,,,0,0,0,0,0,83,83,206,315.9378137588501,,,,,,,,,,,,,,,,,,,,,,,,,,,,,,,,,,,,,,,,,,,,,,,,,,,,,,,,,,,,,,,,,,,,,,,,,,,,,,,,,64.38014042482877,64.38014042482877,60.82961586919171,60.43998431352967,63.390891469095095,58.1086248562174,4.0,4.2,-158,15,0,-267,155,13,315.92346477508545,315.923544883728,315.9275588989258,315.9378137588501,316.0846412181854,316.0846412181854,316.0846412181854,316.0846412181854,316.0846412181854,316.0846412181854,316.0846412181854,326.7751216888428,1,10.834871053695679,None,,,,,,,,,,,,,,,,,,195,2,2025-03-05_12h55.20.320,comp,2024.2.4,57.08314563312923,2025-03-05 12h55.29.562718 -0500,
84,84,0,filler_square,None,None,None,None,None,None,None,None,None,None,1,1.3584706783294678,None,,,,,0,0,0,0,0,84,84,173,326.7917151451111,,,,,,,,,,,,,,,,,,,,,,,,,,,,,,,,,,,,,,,,,,,,,,,,,,,,,,,,,,,,,,,,,,,,,,,,,,,,,,,,,117.06076088364358,117.06076088364358,76.4715137393905,75.75341318755387,96.09718444316258,62.13804720288112,2.2,2.22,-192,269,0,-252,165,-265,326.77699542045593,326.7770767211914,326.78010272979736,326.7917151451111,326.939834356308,326.939834356308,326.939834356308,326.939834356308,326.939834356308,326.939834356308,326.939834356308,328.1608736515045,1,1.3584706783294678,None,,,,,,,,,,,,,,,,,,195,2,2025-03-05_12h55.20.320,comp,2024.2.4,57.08314563312923,2025-03-05 12h55.29.562718 -0500,
85,85,0,critical,dhw,35.0,1.0,upper,127.0,127.0,200.0,125.0,125.0,200.0,3,5.210858583450317,None,,,,,0,0,0,0,0,85,85,49,328.17778968811035,,,,,,,,,,,,,,,,,,,,,,,,,,,,,,,,,,,,,,,,,,,,,,,,,,,,,,,,,,,,,,,,,,,,,,,,,,,,,,,,,127.0,127.0,200.0,125.0,125.0,200.0,1.0,1.2,-222,15,0,0,258,16,328.16245889663696,328.16253900527954,328.16551399230957,328.17778968811035,328.32399106025696,328.32399106025696,328.32399106025696,328.32399106025696,328.32399106025696,328.32399106025696,328.32399106025696,333.3917586803436,3,5.210858583450317,None,,,,,,,,,,,,,,,,,,195,2,2025-03-05_12h55.20.320,comp,2024.2.4,57.08314563312923,2025-03-05 12h55.29.562718 -0500,
86,86,0,catch,None,None,None,None,None,None,None,None,None,None,1,4.603619575500488,None,,,,,0,0,0,0,0,86,86,125,333.4083676338196,,,,,,,,,,,,,,,,,,,,,,,,,,,,,,,,,,,,,,,,,,,,,,,,,,,,,,,,,,,,,,,,,,,,,,,,,,,,,,,,,170,155,105,85,109,81,2.1,2.11,-216,272,0,287,179,-266,333.3936264514923,333.39371132850647,333.39663219451904,333.4083676338196,333.56050968170166,333.56050968170166,333.56050968170166,333.56050968170166,333.56050968170166,333.56050968170166,333.56050968170166,338.029723405838,1,4.603619575500488,None,,,,,,,,,,,,,,,,,,195,2,2025-03-05_12h55.20.320,comp,2024.2.4,57.08314563312923,2025-03-05 12h55.29.562718 -0500,
87,87,0,critical,whd,35.0,1.0,upper,125.0,200.0,200.0,125.0,127.0,127.0,1,2.365246295928955,None,,,,,0,0,0,0,0,87,87,85,338.04735350608826,,,,,,,,,,,,,,,,,,,,,,,,,,,,,,,,,,,,,,,,,,,,,,,,,,,,,,,,,,,,,,,,,,,,,,,,,,,,,,,,,125.0,200.0,200.0,125.0,127.0,127.0,1.0,1.3,222,-279,480,-254,702,-281,338.03134417533875,338.0314381122589,338.0348253250122,338.04735350608826,338.1932587623596,338.1932587623596,338.1932587623596,338.1932587623596,338.1932587623596,338.1932587623596,338.1932587623596,340.41515469551086,1,2.365246295928955,None,,,,,,,,,,,,,,,,,,195,2,2025-03-05_12h55.20.320,comp,2024.2.4,57.08314563312923,2025-03-05 12h55.29.562718 -0500,
88,88,0,critical,wdh,20.0,1.0,lower,57.0,133.0,78.0,78.0,133.0,57.0,1,3.477335214614868,None,,,,,0,0,0,0,0,88,88,78,340.4313049316406,,,,,,,,,,,,,,,,,,,,,,,,,,,,,,,,,,,,,,,,,,,,,,,,,,,,,,,,,,,,,,,,,,,,,,,,,,,,,,,,,57.0,133.0,78.0,78.0,133.0,57.0,1.0,1.3,278,-269,480,-281,644,-263,340.41707730293274,340.4172022342682,340.4204092025757,340.4313049316406,340.57894015312195,340.57894015312195,340.57894015312195,340.57894015312195,340.57894015312195,340.57894015312195,340.57894015312195,343.9121332168579,1,3.477335214614868,None,,,,,,,,,,,,,,,,,,195,2,2025-03-05_12h55.20.320,comp,2024.2.4,57.08314563312923,2025-03-05 12h55.29.562718 -0500,
89,89,0,catch,None,None,None,None,None,None,None,None,None,None,1,1.9147143363952637,None,,,,,0,0,0,0,0,89,89,122,343.92940044403076,,,,,,,,,,,,,,,,,,,,,,,,,,,,,,,,,,,,,,,,,,,,,,,,,,,,,,,,,,,,,,,,,,,,,,,,,,,,,,,,,173,152,75,115,96,94,1.0,1.1,-710,287,-480,289,-280,258,343.9141836166382,343.91426277160645,343.9176216125488,343.92940044403076,344.07002663612366,344.07002663612366,344.07002663612366,344.07002663612366,344.07002663612366,344.07002663612366,344.07002663612366,345.8501968383789,1,1.9147143363952637,None,,,,,,,,,,,,,,,,,,195,2,2025-03-05_12h55.20.320,comp,2024.2.4,57.08314563312923,2025-03-05 12h55.29.562718 -0500,
90,90,0,critical,wdh,35.0,2.1,upper,125.0,200.0,127.0,127.0,200.0,125.0,1,5.182571649551392,None,,,,,0,0,0,0,0,90,90,9,345.8696753978729,,,,,,,,,,,,,,,,,,,,,,,,,,,,,,,,,,,,,,,,,,,,,,,,,,,,,,,,,,,,,,,,,,,,,,,,,,,,,,,,,125.0,200.0,127.0,127.0,200.0,125.0,2.1,2.11,-260,264,0,261,222,-251,345.85184359550476,345.851925611496,345.85517835617065,345.8696753978729,346.01452445983887,346.01452445983887,346.01452445983887,346.01452445983887,346.01452445983887,346.01452445983887,346.01452445983887,351.07367491722107,1,5.182571649551392,None,,,,,,,,,,,,,,,,,,195,2,2025-03-05_12h55.20.320,comp,2024.2.4,57.08314563312923,2025-03-05 12h55.29.562718 -0500,
91,91,0,filler_random,None,None,None,None,None,None,None,None,None,None,1,2.710630416870117,None,,,,,0,0,0,0,0,91,91,155,351.09361696243286,,,,,,,,,,,,,,,,,,,,,,,,,,,,,,,,,,,,,,,,,,,,,,,,,,,,,,,,,,,,,,,,,,,,,,,,,,,,,,,,,180.64954696017833,181.95878228396145,78.45403602351209,92.84933924447662,148.3850278229213,176.24512171287805,3.0,3.1,-233,266,0,9,231,-290,351.07538414001465,351.0754623413086,351.0783338546753,351.09361696243286,351.2328374385834,351.2328374385834,351.2328374385834,351.2328374385834,351.2328374385834,351.2328374385834,351.2328374385834,353.81566309928894,1,2.710630416870117,None,,,,,,,,,,,,,,,,,,195,2,2025-03-05_12h55.20.320,comp,2024.2.4,57.08314563312923,2025-03-05 12h55.29.562718 -0500,
92,92,0,critical,wdh,35.0,1.0,lower,57.0,133.0,70.0,70.0,133.0,57.0,1,3.2658379077911377,None,,,,,0,0,0,0,0,92,92,72,353.8351595401764,,,,,,,,,,,,,,,,,,,,,,,,,,,,,,,,,,,,,,,,,,,,,,,,,,,,,,,,,,,,,,,,,,,,,,,,,,,,,,,,,57.0,133.0,70.0,70.0,133.0,57.0,1.0,1.3,282,-285,480,-284,640,-262,353.8172788619995,353.81740832328796,353.8206751346588,353.8351595401764,353.9826626777649,353.9826626777649,353.9826626777649,353.9826626777649,353.9826626777649,353.9826626777649,353.9826626777649,357.10391116142273,1,3.2658379077911377,None,,,,,,,,,,,,,,,,,,195,2,2025-03-05_12h55.20.320,comp,2024.2.4,57.08314563312923,2025-03-05 12h55.29.562718 -0500,
93,93,0,filler_random,None,None,None,None,None,None,None,None,None,None,2,4.164394855499268,None,,,,,0,0,0,0,0,93,93,156,357.1198363304138,,,,,,,,,,,,,,,,,,,,,,,,,,,,,,,,,,,,,,,,,,,,,,,,,,,,,,,,,,,,,,,,,,,,,,,,,,,,,,,,,166.4680026087359,64.70351249270793,180.77036859434162,125.28812359902007,98.2042387833225,160.42517329650587,4.0,4.2,-191,-17,0,-276,239,-8,357.106162071228,357.10624074935913,357.10906624794006,357.1198363304138,357.2657427787781,357.2657427787781,357.2657427787781,357.2657427787781,357.2657427787781,357.2657427787781,357.2657427787781,361.2863824367523,2,4.164394855499268,None,,,,,,,,,,,,,,,,,,195,2,2025-03-05_12h55.20.320,comp,2024.2.4,57.08314563312923,2025-03-05 12h55.29.562718 -0500,
94,94,0,filler_random,None,None,None,None,None,None,None,None,None,None,3,1.594850778579712,None,,,,,0,0,0,0,0,94,94,162,361.30520582199097,,,,,,,,,,,,,,,,,,,,,,,,,,,,,,,,,,,,,,,,,,,,,,,,,,,,,,,,,,,,,,,,,,,,,,,,,,,,,,,,,116.50447093731285,57.29540771403223,94.48097184576967,71.97849324028908,126.7718196754956,101.5923997608464,3.0,3.2,-161,-274,0,-1,183,269,361.2882559299469,361.28841733932495,361.29181838035583,361.30520582199097,361.45075273513794,361.45075273513794,361.45075273513794,361.45075273513794,361.45075273513794,361.45075273513794,361.45075273513794,362.9027338027954,3,1.594850778579712,None,,,,,,,,,,,,,,,,,,195,2,2025-03-05_12h55.20.320,comp,2024.2.4,57.08314563312923,2025-03-05 12h55.29.562718 -0500,
95,95,0,filler_random,None,None,None,None,None,None,None,None,None,None,2,3.637852668762207,None,,,,,0,0,0,0,0,95,95,161,362.9190900325775,,,,,,,,,,,,,,,,,,,,,,,,,,,,,,,,,,,,,,,,,,,,,,,,,,,,,,,,,,,,,,,,,,,,,,,,,,,,,,,,,184.28334153855735,119.52671260386036,157.06225580645352,155.31063857117738,59.95423516514384,96.6433711598863,1.0,1.3,247,-261,480,-287,702,-277,362.9046251773834,362.90472531318665,362.90802526474,362.9190900325775,363.0687391757965,363.0687391757965,363.0687391757965,363.0687391757965,363.0687391757965,363.0687391757965,363.0687391757965,366.5749340057373,2,3.637852668762207,None,,,,,,,,,,,,,,,,,,195,2,2025-03-05_12h55.20.320,comp,2024.2.4,57.08314563312923,2025-03-05 12h55.29.562718 -0500,
96,96,0,filler_square,None,None,None,None,None,None,None,None,None,None,3,4.380627155303955,None,,,,,0,0,0,0,0,96,96,178,366.5914189815521,,,,,,,,,,,,,,,,,,,,,,,,,,,,,,,,,,,,,,,,,,,,,,,,,,,,,,,,,,,,,,,,,,,,,,,,,,,,,,,,,83.44026185806793,74.20720394284038,65.83598244331371,82.98923428579087,84.57109894351217,84.57109894351217,4.0,4.2,-175,14,0,-284,180,6,366.5768618583679,366.5769965648651,366.5801820755005,366.5914189815521,366.73771810531616,366.73771810531616,366.73771810531616,366.73771810531616,366.73771810531616,366.73771810531616,366.73771810531616,370.98792695999146,3,4.380627155303955,None,,,,,,,,,,,,,,,,,,195,2,2025-03-05_12h55.20.320,comp,2024.2.4,57.08314563312923,2025-03-05 12h55.29.562718 -0500,
97,97,0,critical,whd,20.0,2.1,lower,57.0,133.0,133.0,57.0,78.0,78.0,1,2.0805516242980957,None,,,,,0,0,0,0,0,97,97,38,371.00416016578674,,,,,,,,,,,,,,,,,,,,,,,,,,,,,,,,,,,,,,,,,,,,,,,,,,,,,,,,,,,,,,,,,,,,,,,,,,,,,,,,,57.0,133.0,133.0,57.0,78.0,78.0,2.1,2.12,-191,-258,0,-255,164,272,370.98947191238403,370.989545583725,370.99286365509033,371.00416016578674,371.1521339416504,371.1521339416504,371.1521339416504,371.1521339416504,371.1521339416504,371.1521339416504,371.1521339416504,373.08823895454407,1,2.0805516242980957,None,,,,,,,,,,,,,,,,,,195,2,2025-03-05_12h55.20.320,comp,2024.2.4,57.08314563312923,2025-03-05 12h55.29.562718 -0500,
98,98,0,catch,None,None,None,None,None,None,None,None,None,None,1,1.3121192455291748,None,,,,,0,0,0,0,0,98,98,126,373.108651638031,,,,,,,,,,,,,,,,,,,,,,,,,,,,,,,,,,,,,,,,,,,,,,,,,,,,,,,,,,,,,,,,,,,,,,,,,,,,,,,,,127,198,73,117,129,61,2.2,2.22,-254,269,0,-277,185,-286,373.09012603759766,373.0902054309845,373.0933542251587,373.108651638031,373.255295753479,373.255295753479,373.255295753479,373.255295753479,373.255295753479,373.255295753479,373.255295753479,374.4277684688568,1,1.3121192455291748,None,,,,,,,,,,,,,,,,,,195,2,2025-03-05_12h55.20.320,comp,2024.2.4,57.08314563312923,2025-03-05 12h55.29.562718 -0500,
99,99,0,critical,dhw,20.0,2.1,lower,78.0,78.0,133.0,57.0,57.0,133.0,3,3.7119953632354736,None,,,,,0,0,0,0,0,99,99,26,374.4440562725067,,,,,,,,,,,,,,,,,,,,,,,,,,,,,,,,,,,,,,,,,,,,,,,,,,,,,,,,,,,,,,,,,,,,,,,,,,,,,,,,,78.0,78.0,133.0,57.0,57.0,133.0,2.1,2.12,-164,-278,0,-286,191,257,374.42943954467773,374.4295721054077,374.43321108818054,374.4440562725067,374.5889275074005,374.5889275074005,374.5889275074005,374.5889275074005,374.5889275074005,374.5889275074005,374.5889275074005,378.17393732070923,3,3.7119953632354736,None,,,,,,,,,,,,,,,,,,195,2,2025-03-05_12h55.20.320,comp,2024.2.4,57.08314563312923,2025-03-05 12h55.29.562718 -0500,
100,100,0,filler_square,None,None,None,None,None,None,None,None,None,None,2,1.6761696338653564,None,,,,,0,0,0,0,0,100,100,205,378.1919016838074,,,,,,,,,,,,,,,,,,,,,,,,,,,,,,,,,,,,,,,,,,,,,,,,,,,,,,,,,,,,,,,,,,,,,,,,,,,,,,,,,95.88054179379264,88.22575492443798,103.59946508527682,103.59946508527682,78.49060125411782,64.3844898540009,2.2,2.21,-192,-255,0,260,180,283,378.1759238243103,378.17599844932556,378.1791789531708,378.1919016838074,378.3421275615692,378.3421275615692,378.3421275615692,378.3421275615692,378.3421275615692,378.3421275615692,378.3421275615692,379.8801486492157,2,1.6761696338653564,None,,,,,,,,,,,,,,,,,,195,2,2025-03-05_12h55.20.320,comp,2024.2.4,57.08314563312923,2025-03-05 12h55.29.562718 -0500,
101,101,0,critical,dwh,35.0,3.0,upper,127.0,127.0,125.0,200.0,200.0,125.0,2,2.54941987991333,None,,,,,0,0,0,0,0,101,101,63,379.89481472969055,,,,,,,,,,,,,,,,,,,,,,,,,,,,,,,,,,,,,,,,,,,,,,,,,,,,,,,,,,,,,,,,,,,,,,,,,,,,,,,,,127.0,127.0,125.0,200.0,200.0,125.0,3.0,3.1,-260,271,0,-2,258,-265,379.8816637992859,379.8817446231842,379.88461208343506,379.89481472969055,380.0497214794159,380.0497214794159,380.0497214794159,380.0497214794159,380.0497214794159,380.0497214794159,380.0497214794159,382.45929074287415,2,2.54941987991333,None,,,,,,,,,,,,,,,,,,195,2,2025-03-05_12h55.20.320,comp,2024.2.4,57.08314563312923,2025-03-05 12h55.29.562718 -0500,
102,102,0,catch,None,None,None,None,None,None,None,None,None,None,1,1.3052408695220947,None,,,,,0,0,0,0,0,102,102,127,382.47494196891785,,,,,,,,,,,,,,,,,,,,,,,,,,,,,,,,,,,,,,,,,,,,,,,,,,,,,,,,,,,,,,,,,,,,,,,,,,,,,,,,,141,184,82,108,115,75,3.0,3.1,-242,263,0,18,188,-250,382.4611887931824,382.46126222610474,382.4646635055542,382.47494196891785,382.6232006549835,382.6232006549835,382.6232006549835,382.6232006549835,382.6232006549835,382.6232006549835,382.6232006549835,383.7976334095001,1,1.3052408695220947,None,,,,,,,,,,,,,,,,,,195,2,2025-03-05_12h55.20.320,comp,2024.2.4,57.08314563312923,2025-03-05 12h55.29.562718 -0500,
103,103,0,critical,whd,35.0,2.1,upper,125.0,200.0,200.0,125.0,127.0,127.0,1,4.269629955291748,None,,,,,0,0,0,0,0,103,103,37,383.8153898715973,,,,,,,,,,,,,,,,,,,,,,,,,,,,,,,,,,,,,,,,,,,,,,,,,,,,,,,,,,,,,,,,,,,,,,,,,,,,,,,,,125.0,200.0,200.0,125.0,127.0,127.0,2.1,2.11,-258,285,0,262,222,-284,383.79929995536804,383.79937982559204,383.80269026756287,383.8153898715973,383.9598560333252,383.9598560333252,383.9598560333252,383.9598560333252,383.9598560333252,383.9598560333252,383.9598560333252,388.09331727027893,1,4.269629955291748,None,,,,,,,,,,,,,,,,,,195,2,2025-03-05_12h55.20.320,comp,2024.2.4,57.08314563312923,2025-03-05 12h55.29.562718 -0500,
104,104,0,filler_random,None,None,None,None,None,None,None,None,None,None,1,5.694497108459473,None,,,,,0,0,0,0,0,104,104,169,388.1102659702301,,,,,,,,,,,,,,,,,,,,,,,,,,,,,,,,,,,,,,,,,,,,,,,,,,,,,,,,,,,,,,,,,,,,,,,,,,,,,,,,,151.67495687464952,167.8972658781916,191.8692117508889,125.77280128550393,147.0088595318091,152.96801626716302,2.1,2.12,-243,-273,0,-258,235,274,388.0951051712036,388.0952386856079,388.09848976135254,388.1102659702301,388.26729559898376,388.26729559898376,388.26729559898376,388.26729559898376,388.26729559898376,388.26729559898376,388.26729559898376,393.8126976490021,1,5.694497108459473,None,,,,,,,,,,,,,,,,,,195,2,2025-03-05_12h55.20.320,comp,2024.2.4,57.08314563312923,2025-03-05 12h55.29.562718 -0500,
105,105,0,critical,wdh,35.0,4.0,lower,57.0,133.0,70.0,70.0,133.0,57.0,1,2.3596999645233154,None,,,,,0,0,0,0,0,105,105,76,393.82842469215393,,,,,,,,,,,,,,,,,,,,,,,,,,,,,,,,,,,,,,,,,,,,,,,,,,,,,,,,,,,,,,,,,,,,,,,,,,,,,,,,,57.0,133.0,70.0,70.0,133.0,57.0,4.0,4.1,-198,-262,0,-14,160,-271,393.8142852783203,393.81436371803284,393.81773376464844,393.82842469215393,393.9795482158661,393.9795482158661,393.9795482158661,393.9795482158661,393.9795482158661,393.9795482158661,393.9795482158661,396.2049252986908,1,2.3596999645233154,None,,,,,,,,,,,,,,,,,,195,2,2025-03-05_12h55.20.320,comp,2024.2.4,57.08314563312923,2025-03-05 12h55.29.562718 -0500,
106,106,0,critical,dwh,35.0,4.0,lower,70.0,70.0,57.0,133.0,133.0,57.0,2,2.2375309467315674,None,,,,,0,0,0,0,0,106,106,64,396.22312664985657,,,,,,,,,,,,,,,,,,,,,,,,,,,,,,,,,,,,,,,,,,,,,,,,,,,,,,,,,,,,,,,,,,,,,,,,,,,,,,,,,70.0,70.0,57.0,133.0,133.0,57.0,4.0,4.1,-198,-260,0,4,191,-280,396.2065668106079,396.20667552948,396.20999574661255,396.22312664985657,396.3601698875427,396.3601698875427,396.3601698875427,396.3601698875427,396.3601698875427,396.3601698875427,396.3601698875427,398.463143825531,2,2.2375309467315674,None,,,,,,,,,,,,,,,,,,195,2,2025-03-05_12h55.20.320,comp,2024.2.4,57.08314563312923,2025-03-05 12h55.29.562718 -0500,
107,107,0,critical,whd,20.0,3.0,upper,125.0,200.0,200.0,125.0,141.0,141.0,1,3.1689817905426025,None,,,,,0,0,0,0,0,107,107,93,398.48316287994385,,,,,,,,,,,,,,,,,,,,,,,,,,,,,,,,,,,,,,,,,,,,,,,,,,,,,,,,,,,,,,,,,,,,,,,,,,,,,,,,,125.0,200.0,200.0,125.0,141.0,141.0,3.0,3.2,-258,-283,0,12,229,281,398.4646198749542,398.464697599411,398.46773076057434,398.48316287994385,398.6304748058319,398.6304748058319,398.6304748058319,398.6304748058319,398.6304748058319,398.6304748058319,398.6304748058319,401.67306303977966,1,3.1689817905426025,None,,,,,,,,,,,,,,,,,,195,2,2025-03-05_12h55.20.320,comp,2024.2.4,57.08314563312923,2025-03-05 12h55.29.562718 -0500,
108,108,0,filler_random,None,None,None,None,None,None,None,None,None,None,1,4.335879325866699,None,,,,,0,0,0,0,0,108,108,139,401.69291138648987,,,,,,,,,,,,,,,,,,,,,,,,,,,,,,,,,,,,,,,,,,,,,,,,,,,,,,,,,,,,,,,,,,,,,,,,,,,,,,,,,158.71346752044545,138.23034398579648,159.5779969066458,74.80474845993785,120.04933691359686,174.26374908399194,2.2,2.22,-203,282,0,-285,221,-269,401.674857378006,401.6749849319458,401.67819476127625,401.69291138648987,401.8279695510864,401.8279695510864,401.8279695510864,401.8279695510864,401.8279695510864,401.8279695510864,401.8279695510864,406.03191685676575,1,4.335879325866699,None,,,,,,,,,,,,,,,,,,195,2,2025-03-05_12h55.20.320,comp,2024.2.4,57.08314563312923,2025-03-05 12h55.29.562718 -0500,
109,109,0,filler_random,None,None,None,None,None,None,None,None,None,None,2,1.9162933826446533,None,,,,,0,0,0,0,0,109,109,140,406.0483477115631,,,,,,,,,,,,,,,,,,,,,,,,,,,,,,,,,,,,,,,,,,,,,,,,,,,,,,,,,,,,,,,,,,,,,,,,,,,,,,,,,87.25598269701969,125.69920210347276,175.04357896738108,168.777963679096,125.56245658093839,159.89233750311422,4.0,4.1,-243,-279,0,-10,260,-254,406.0335645675659,406.033664226532,406.0367052555084,406.0483477115631,406.19995880126953,406.19995880126953,406.19995880126953,406.19995880126953,406.19995880126953,406.19995880126953,406.19995880126953,407.9730088710785,2,1.9162933826446533,None,,,,,,,,,,,,,,,,,,195,2,2025-03-05_12h55.20.320,comp,2024.2.4,57.08314563312923,2025-03-05 12h55.29.562718 -0500,
110,110,0,critical,hwd,35.0,2.1,upper,200.0,125.0,125.0,200.0,127.0,127.0,2,3.4584357738494873,None,,,,,0,0,0,0,0,110,110,17,407.98782300949097,,,,,,,,,,,,,,,,,,,,,,,,,,,,,,,,,,,,,,,,,,,,,,,,,,,,,,,,,,,,,,,,,,,,,,,,,,,,,,,,,200.0,125.0,125.0,200.0,127.0,127.0,2.1,2.12,-258,-288,0,-283,260,253,407.97462582588196,407.9747176170349,407.9779300689697,407.98782300949097,408.13107419013977,408.13107419013977,408.13107419013977,408.13107419013977,408.13107419013977,408.13107419013977,408.13107419013977,411.4498929977417,2,3.4584357738494873,None,,,,,,,,,,,,,,,,,,195,2,2025-03-05_12h55.20.320,comp,2024.2.4,57.08314563312923,2025-03-05 12h55.29.562718 -0500,
111,111,0,critical,dwh,35.0,4.0,upper,127.0,127.0,125.0,200.0,200.0,125.0,2,1.8621444702148438,None,,,,,0,0,0,0,0,111,111,65,411.4664249420166,,,,,,,,,,,,,,,,,,,,,,,,,,,,,,,,,,,,,,,,,,,,,,,,,,,,,,,,,,,,,,,,,,,,,,,,,,,,,,,,,127.0,127.0,125.0,200.0,200.0,125.0,4.0,4.1,-260,-267,0,13,258,-265,411.45141410827637,411.4514911174774,411.4546391963959,411.4664249420166,411.6067154407501,411.6067154407501,411.6067154407501,411.6067154407501,411.6067154407501,411.6067154407501,411.6067154407501,413.33192229270935,2,1.8621444702148438,None,,,,,,,,,,,,,,,,,,195,2,2025-03-05_12h55.20.320,comp,2024.2.4,57.08314563312923,2025-03-05 12h55.29.562718 -0500,
112,112,0,filler_random,None,None,None,None,None,None,None,None,None,None,2,2.9080848693847656,None,,,,,0,0,0,0,0,112,112,168,413.35220074653625,,,,,,,,,,,,,,,,,,,,,,,,,,,,,,,,,,,,,,,,,,,,,,,,,,,,,,,,,,,,,,,,,,,,,,,,,,,,,,,,,129.61168340736532,62.1697623555408,123.5810024699419,96.48035888240568,87.28218583567042,60.34347132675738,2.1,2.11,-175,285,0,287,174,-252,413.33367347717285,413.3337526321411,413.3366539478302,413.35220074653625,413.4868383407593,413.4868383407593,413.4868383407593,413.4868383407593,413.4868383407593,413.4868383407593,413.4868383407593,416.2720408439636,2,2.9080848693847656,None,,,,,,,,,,,,,,,,,,195,2,2025-03-05_12h55.20.320,comp,2024.2.4,57.08314563312923,2025-03-05 12h55.29.562718 -0500,
113,113,0,filler_square,None,None,None,None,None,None,None,None,None,None,1,6.965265512466431,None,,,,,0,0,0,0,0,113,113,190,416.2876341342926,,,,,,,,,,,,,,,,,,,,,,,,,,,,,,,,,,,,,,,,,,,,,,,,,,,,,,,,,,,,,,,,,,,,,,,,,,,,,,,,,67.55012736665532,67.55012736665532,63.02416703300015,64.64611573358056,61.93754068719364,64.8707310518329,2.2,2.22,-162,277,0,-258,161,-266,416.2738108634949,416.27388763427734,416.2769548892975,416.2876341342926,416.43657541275024,416.43657541275024,416.43657541275024,416.43657541275024,416.43657541275024,416.43657541275024,416.43657541275024,423.2552514076233,1,6.965265512466431,None,,,,,,,,,,,,,,,,,,195,2,2025-03-05_12h55.20.320,comp,2024.2.4,57.08314563312923,2025-03-05 12h55.29.562718 -0500,
114,114,0,critical,dwh,35.0,2.1,upper,127.0,127.0,125.0,200.0,200.0,125.0,2,4.612513780593872,None,,,,,0,0,0,0,0,114,114,5,423.27165603637695,,,,,,,,,,,,,,,,,,,,,,,,,,,,,,,,,,,,,,,,,,,,,,,,,,,,,,,,,,,,,,,,,,,,,,,,,,,,,,,,,127.0,127.0,125.0,200.0,200.0,125.0,2.1,2.12,-260,-276,0,-260,258,263,423.2568199634552,423.2568964958191,423.2603006362915,423.27165603637695,423.4205160140991,423.4205160140991,423.4205160140991,423.4205160140991,423.4205160140991,423.4205160140991,423.4205160140991,427.9019501209259,2,4.612513780593872,None,,,,,,,,,,,,,,,,,,195,2,2025-03-05_12h55.20.320,comp,2024.2.4,57.08314563312923,2025-03-05 12h55.29.562718 -0500,
115,115,0,critical,hdw,35.0,4.0,upper,200.0,125.0,127.0,127.0,125.0,200.0,3,1.572707176208496,None,,,,,0,0,0,0,0,115,115,113,427.9196243286133,,,,,,,,,,,,,,,,,,,,,,,,,,,,,,,,,,,,,,,,,,,,,,,,,,,,,,,,,,,,,,,,,,,,,,,,,,,,,,,,,200.0,125.0,127.0,127.0,125.0,200.0,4.0,4.1,-222,-255,0,9,260,-257,427.90351605415344,427.9036180973053,427.9069449901581,427.9196243286133,428.05742859840393,428.05742859840393,428.05742859840393,428.05742859840393,428.05742859840393,428.05742859840393,428.05742859840393,429.50693941116333,3,1.572707176208496,None,,,,,,,,,,,,,,,,,,195,2,2025-03-05_12h55.20.320,comp,2024.2.4,57.08314563312923,2025-03-05 12h55.29.562718 -0500,
116,116,0,critical,wdh,35.0,3.0,upper,125.0,200.0,127.0,127.0,200.0,125.0,1,1.547403335571289,None,,,,,0,0,0,0,0,116,116,75,429.5213325023651,,,,,,,,,,,,,,,,,,,,,,,,,,,,,,,,,,,,,,,,,,,,,,,,,,,,,,,,,,,,,,,,,,,,,,,,,,,,,,,,,125.0,200.0,127.0,127.0,200.0,125.0,3.0,3.1,-260,268,0,-8,222,-280,429.50855708122253,429.50875663757324,429.51220655441284,429.5213325023651,429.6768321990967,429.6768321990967,429.6768321990967,429.6768321990967,429.6768321990967,429.6768321990967,429.6768321990967,431.0748941898346,1,1.547403335571289,None,,,,,,,,,,,,,,,,,,195,2,2025-03-05_12h55.20.320,comp,2024.2.4,57.08314563312923,2025-03-05 12h55.29.562718 -0500,
117,117,0,filler_square,None,None,None,None,None,None,None,None,None,None,1,1.1530649662017822,None,,,,,0,0,0,0,0,117,117,192,431.09136867523193,,,,,,,,,,,,,,,,,,,,,,,,,,,,,,,,,,,,,,,,,,,,,,,,,,,,,,,,,,,,,,,,,,,,,,,,,,,,,,,,,179.17006897262246,179.17006897262246,72.8506432986108,152.81570142848187,132.6805735914374,76.01526580628845,2.2,2.22,-262,277,0,-273,210,-286,431.07672595977783,431.0768325328827,431.0799791812897,431.09136867523193,431.23714780807495,431.23714780807495,431.23714780807495,431.23714780807495,431.23714780807495,431.23714780807495,431.23714780807495,432.2571454048157,1,1.1530649662017822,None,,,,,,,,,,,,,,,,,,195,2,2025-03-05_12h55.20.320,comp,2024.2.4,57.08314563312923,2025-03-05 12h55.29.562718 -0500,
118,118,0,filler_random,None,None,None,None,None,None,None,None,None,None,1,2.1210265159606934,None,,,,,0,0,0,0,0,118,118,152,432.27512311935425,,,,,,,,,,,,,,,,,,,,,,,,,,,,,,,,,,,,,,,,,,,,,,,,,,,,,,,,,,,,,,,,,,,,,,,,,,,,,,,,,97.52326546428955,165.85700214959593,116.53588315930543,75.3338581896866,75.98532463292901,191.70028358821065,2.1,2.11,-217,270,0,286,230,-265,432.2590985298157,432.25918459892273,432.26239919662476,432.27512311935425,432.42430877685547,432.42430877685547,432.42430877685547,432.42430877685547,432.42430877685547,432.42430877685547,432.42430877685547,434.4093728065491,1,2.1210265159606934,None,,,,,,,,,,,,,,,,,,195,2,2025-03-05_12h55.20.320,comp,2024.2.4,57.08314563312923,2025-03-05 12h55.29.562718 -0500,
119,119,0,critical,dwh,20.0,4.0,lower,78.0,78.0,57.0,133.0,133.0,57.0,2,1.5990238189697266,None,,,,,0,0,0,0,0,119,119,70,434.4292151927948,,,,,,,,,,,,,,,,,,,,,,,,,,,,,,,,,,,,,,,,,,,,,,,,,,,,,,,,,,,,,,,,,,,,,,,,,,,,,,,,,78.0,78.0,57.0,133.0,133.0,57.0,4.0,4.1,-202,-253,0,11,191,-280,434.410849571228,434.4109437465668,434.4142575263977,434.4292151927948,434.5756793022156,434.5756793022156,434.5756793022156,434.5756793022156,434.5756793022156,434.5756793022156,434.5756793022156,436.0410807132721,2,1.5990238189697266,None,,,,,,,,,,,,,,,,,,195,2,2025-03-05_12h55.20.320,comp,2024.2.4,57.08314563312923,2025-03-05 12h55.29.562718 -0500,
120,120,0,filler_random,None,None,None,None,None,None,None,None,None,None,3,1.3558552265167236,None,,,,,0,0,0,0,0,120,120,135,436.05644702911377,,,,,,,,,,,,,,,,,,,,,,,,,,,,,,,,,,,,,,,,,,,,,,,,,,,,,,,,,,,,,,,,,,,,,,,,,,,,,,,,,128.90898029349188,159.8403772054259,101.0435343125497,62.290229594722064,159.9323666879942,192.34511103896878,2.2,2.22,-207,269,0,-287,223,-260,436.0427989959717,436.0428764820099,436.0459225177765,436.05644702911377,436.21530055999756,436.21530055999756,436.21530055999756,436.21530055999756,436.21530055999756,436.21530055999756,436.21530055999756,437.43106722831726,3,1.3558552265167236,None,,,,,,,,,,,,,,,,,,195,2,2025-03-05_12h55.20.320,comp,2024.2.4,57.08314563312923,2025-03-05 12h55.29.562718 -0500,
121,121,0,critical,hwd,20.0,3.0,upper,200.0,125.0,125.0,200.0,141.0,141.0,2,4.892874002456665,None,,,,,0,0,0,0,0,121,121,105,437.44799852371216,,,,,,,,,,,,,,,,,,,,,,,,,,,,,,,,,,,,,,,,,,,,,,,,,,,,,,,,,,,,,,,,,,,,,,,,,,,,,,,,,200.0,125.0,125.0,200.0,141.0,141.0,3.0,3.2,-258,-252,0,10,266,278,437.4324746131897,437.43254828453064,437.4353382587433,437.44799852371216,437.593523979187,437.593523979187,437.593523979187,437.593523979187,437.593523979187,437.593523979187,437.593523979187,442.34836888313293,2,4.892874002456665,None,,,,,,,,,,,,,,,,,,195,2,2025-03-05_12h55.20.320,comp,2024.2.4,57.08314563312923,2025-03-05 12h55.29.562718 -0500,
122,122,0,filler_random,None,None,None,None,None,None,None,None,None,None,2,1.8193762302398682,None,,,,,0,0,0,0,0,122,122,142,442.36948895454407,,,,,,,,,,,,,,,,,,,,,,,,,,,,,,,,,,,,,,,,,,,,,,,,,,,,,,,,,,,,,,,,,,,,,,,,,,,,,,,,,81.49382033300918,127.49723373085813,151.3321382381812,134.7878742133979,107.35952979160797,159.4347843883217,2.1,2.11,-227,285,0,273,243,-262,442.3502724170685,442.35035252571106,442.3535487651825,442.36948895454407,442.51133584976196,442.51133584976196,442.51133584976196,442.51133584976196,442.51133584976196,442.51133584976196,442.51133584976196,444.19411873817444,2,1.8193762302398682,None,,,,,,,,,,,,,,,,,,195,2,2025-03-05_12h55.20.320,comp,2024.2.4,57.08314563312923,2025-03-05 12h55.29.562718 -0500,
123,123,0,critical,dwh,20.0,2.1,lower,78.0,78.0,57.0,133.0,133.0,57.0,2,2.122638463973999,None,,,,,0,0,0,0,0,123,123,6,444.2098762989044,,,,,,,,,,,,,,,,,,,,,,,,,,,,,,,,,,,,,,,,,,,,,,,,,,,,,,,,,,,,,,,,,,,,,,,,,,,,,,,,,78.0,78.0,57.0,133.0,133.0,57.0,2.1,2.12,-202,-260,0,-276,191,282,444.1956076622009,444.1956880092621,444.1985008716583,444.2098762989044,444.36766624450684,444.36766624450684,444.36766624450684,444.36766624450684,444.36766624450684,444.36766624450684,444.36766624450684,446.3539915084839,2,2.122638463973999,None,,,,,,,,,,,,,,,,,,195,2,2025-03-05_12h55.20.320,comp,2024.2.4,57.08314563312923,2025-03-05 12h55.29.562718 -0500,
124,124,0,filler_square,None,None,None,None,None,None,None,None,None,None,1,1.8729171752929688,None,,,,,0,0,0,0,0,124,124,174,446.3714485168457,,,,,,,,,,,,,,,,,,,,,,,,,,,,,,,,,,,,,,,,,,,,,,,,,,,,,,,,,,,,,,,,,,,,,,,,,,,,,,,,,92.16787789755293,92.16787789755293,82.66374674288483,72.98665171194197,78.64705979201973,62.148973810723014,3.0,3.1,-179,270,0,19,164,-283,446.3558073043823,446.3558826446533,446.3587508201599,446.3714485168457,446.511536359787,446.511536359787,446.511536359787,446.511536359787,446.511536359787,446.511536359787,446.511536359787,448.26225304603577,1,1.8729171752929688,None,,,,,,,,,,,,,,,,,,195,2,2025-03-05_12h55.20.320,comp,2024.2.4,57.08314563312923,2025-03-05 12h55.29.562718 -0500,
125,125,0,critical,hwd,20.0,2.1,lower,133.0,57.0,57.0,133.0,78.0,78.0,2,5.8708813190460205,None,,,,,0,0,0,0,0,125,125,42,448.2780485153198,,,,,,,,,,,,,,,,,,,,,,,,,,,,,,,,,,,,,,,,,,,,,,,,,,,,,,,,,,,,,,,,,,,,,,,,,,,,,,,,,133.0,57.0,57.0,133.0,78.0,78.0,2.1,2.12,-191,-283,0,-253,202,263,448.2638189792633,448.2638964653015,448.2668924331665,448.2780485153198,448.4302501678467,448.4302501678467,448.4302501678467,448.4302501678467,448.4302501678467,448.4302501678467,448.4302501678467,454.1568183898926,2,5.8708813190460205,None,,,,,,,,,,,,,,,,,,195,2,2025-03-05_12h55.20.320,comp,2024.2.4,57.08314563312923,2025-03-05 12h55.29.562718 -0500,
126,126,0,filler_square,None,None,None,None,None,None,None,None,None,None,3,1.7835571765899658,None,,,,,0,0,0,0,0,126,126,208,454.17471647262573,,,,,,,,,,,,,,,,,,,,,,,,,,,,,,,,,,,,,,,,,,,,,,,,,,,,,,,,,,,,,,,,,,,,,,,,,,,,,,,,,73.44562205001294,71.06525148805791,57.516628049170464,75.04633016934874,82.4982897132448,82.4982897132448,1.0,1.1,-649,275,-480,264,-305,253,454.1586501598358,454.1587300300598,454.1615524291992,454.17471647262573,454.31331515312195,454.31331515312195,454.31331515312195,454.31331515312195,454.31331515312195,454.31331515312195,454.31331515312195,455.9662809371948,3,1.7835571765899658,None,,,,,,,,,,,,,,,,,,195,2,2025-03-05_12h55.20.320,comp,2024.2.4,57.08314563312923,2025-03-05 12h55.29.562718 -0500,
127,127,0,critical,hwd,35.0,4.0,upper,200.0,125.0,125.0,200.0,127.0,127.0,2,1.3802974224090576,None,,,,,0,0,0,0,0,127,127,101,455.9843497276306,,,,,,,,,,,,,,,,,,,,,,,,,,,,,,,,,,,,,,,,,,,,,,,,,,,,,,,,,,,,,,,,,,,,,,,,,,,,,,,,,200.0,125.0,125.0,200.0,127.0,127.0,4.0,4.2,-258,-16,0,-289,260,18,455.96787309646606,455.9679470062256,455.9712061882019,455.9843497276306,456.13443326950073,456.13443326950073,456.13443326950073,456.13443326950073,456.13443326950073,456.13443326950073,456.13443326950073,457.3683774471283,2,1.3802974224090576,None,,,,,,,,,,,,,,,,,,195,2,2025-03-05_12h55.20.320,comp,2024.2.4,57.08314563312923,2025-03-05 12h55.29.562718 -0500,
128,128,0,critical,whd,20.0,2.1,upper,125.0,200.0,200.0,125.0,141.0,141.0,1,1.3952763080596924,None,,,,,0,0,0,0,0,128,128,39,457.384991645813,,,,,,,,,,,,,,,,,,,,,,,,,,,,,,,,,,,,,,,,,,,,,,,,,,,,,,,,,,,,,,,,,,,,,,,,,,,,,,,,,125.0,200.0,200.0,125.0,141.0,141.0,2.1,2.12,-258,-261,0,-279,229,288,457.370477437973,457.3705713748932,457.37352871894836,457.384991645813,457.5326955318451,457.5326955318451,457.5326955318451,457.5326955318451,457.5326955318451,457.5326955318451,457.5326955318451,458.7990925312042,1,1.3952763080596924,None,,,,,,,,,,,,,,,,,,195,2,2025-03-05_12h55.20.320,comp,2024.2.4,57.08314563312923,2025-03-05 12h55.29.562718 -0500,
129,129,0,critical,dwh,20.0,4.0,upper,141.0,141.0,125.0,200.0,200.0,125.0,2,1.9337992668151855,None,,,,,0,0,0,0,0,129,129,71,458.8146471977234,,,,,,,,,,,,,,,,,,,,,,,,,,,,,,,,,,,,,,,,,,,,,,,,,,,,,,,,,,,,,,,,,,,,,,,,,,,,,,,,,141.0,141.0,125.0,200.0,200.0,125.0,4.0,4.1,-266,-252,0,5,258,-277,458.8005232810974,458.800626039505,458.80346488952637,458.8146471977234,458.96319675445557,458.96319675445557,458.96319675445557,458.96319675445557,458.96319675445557,458.96319675445557,458.96319675445557,460.7505271434784,2,1.9337992668151855,None,,,,,,,,,,,,,,,,,,195,2,2025-03-05_12h55.20.320,comp,2024.2.4,57.08314563312923,2025-03-05 12h55.29.562718 -0500,
130,130,0,critical,whd,35.0,4.0,lower,57.0,133.0,133.0,57.0,70.0,70.0,1,4.924926996231079,None,,,,,0,0,0,0,0,130,130,88,460.76738691329956,,,,,,,,,,,,,,,,,,,,,,,,,,,,,,,,,,,,,,,,,,,,,,,,,,,,,,,,,,,,,,,,,,,,,,,,,,,,,,,,,57.0,133.0,133.0,57.0,70.0,70.0,4.0,4.2,-191,-18,0,-290,160,14,460.75191926956177,460.7519896030426,460.75444507598877,460.76738691329956,460.91704535484314,460.91704535484314,460.91704535484314,460.91704535484314,460.91704535484314,460.91704535484314,460.91704535484314,465.709668636322,1,4.924926996231079,None,,,,,,,,,,,,,,,,,,195,2,2025-03-05_12h55.20.320,comp,2024.2.4,57.08314563312923,2025-03-05 12h55.29.562718 -0500,
131,131,0,critical,hwd,20.0,1.0,upper,200.0,125.0,125.0,200.0,141.0,141.0,2,8.055161952972412,None,,,,,0,0,0,0,0,131,131,103,465.7256360054016,,,,,,,,,,,,,,,,,,,,,,,,,,,,,,,,,,,,,,,,,,,,,,,,,,,,,,,,,,,,,,,,,,,,,,,,,,,,,,,,,200.0,125.0,125.0,200.0,141.0,141.0,1.0,1.1,-738,282,-480,284,-214,262,465.71129989624023,465.7114109992981,465.71471643447876,465.7256360054016,465.86828565597534,465.86828565597534,465.86828565597534,465.86828565597534,465.86828565597534,465.86828565597534,465.86828565597534,473.7918303012848,2,8.055161952972412,None,,,,,,,,,,,,,,,,,,195,2,2025-03-05_12h55.20.320,comp,2024.2.4,57.08314563312923,2025-03-05 12h55.29.562718 -0500,
132,132,0,critical,hwd,20.0,4.0,lower,133.0,57.0,57.0,133.0,78.0,78.0,2,1.6505374908447266,None,,,,,0,0,0,0,0,132,132,106,473.81026005744934,,,,,,,,,,,,,,,,,,,,,,,,,,,,,,,,,,,,,,,,,,,,,,,,,,,,,,,,,,,,,,,,,,,,,,,,,,,,,,,,,133.0,57.0,57.0,133.0,78.0,78.0,4.0,4.2,-191,-12,0,-251,202,18,473.7934138774872,473.7935194969177,473.79719948768616,473.81026005744934,473.954332113266,473.954332113266,473.954332113266,473.954332113266,473.954332113266,473.954332113266,473.954332113266,475.4716191291809,2,1.6505374908447266,None,,,,,,,,,,,,,,,,,,195,2,2025-03-05_12h55.20.320,comp,2024.2.4,57.08314563312923,2025-03-05 12h55.29.562718 -0500,
133,133,0,critical,whd,35.0,3.0,lower,57.0,133.0,133.0,57.0,70.0,70.0,1,3.2606890201568604,None,,,,,0,0,0,0,0,133,133,86,475.48824739456177,,,,,,,,,,,,,,,,,,,,,,,,,,,,,,,,,,,,,,,,,,,,,,,,,,,,,,,,,,,,,,,,,,,,,,,,,,,,,,,,,57.0,133.0,133.0,57.0,70.0,70.0,3.0,3.1,-191,267,0,-13,160,-287,475.47308683395386,475.4731659889221,475.4762420654297,475.48824739456177,475.63977885246277,475.63977885246277,475.63977885246277,475.63977885246277,475.63977885246277,475.63977885246277,475.63977885246277,478.75641798973083,1,3.2606890201568604,None,,,,,,,,,,,,,,,,,,195,2,2025-03-05_12h55.20.320,comp,2024.2.4,57.08314563312923,2025-03-05 12h55.29.562718 -0500,
134,134,0,critical,hwd,35.0,1.0,lower,133.0,57.0,57.0,133.0,70.0,70.0,2,2.8223092555999756,None,,,,,0,0,0,0,0,134,134,96,478.7747530937195,,,,,,,,,,,,,,,,,,,,,,,,,,,,,,,,,,,,,,,,,,,,,,,,,,,,,,,,,,,,,,,,,,,,,,,,,,,,,,,,,133.0,57.0,57.0,133.0,70.0,70.0,1.0,1.1,-671,266,-480,264,-282,257,478.75798201560974,478.7580621242523,478.7609267234802,478.7747530937195,478.9248299598694,478.9248299598694,478.9248299598694,478.9248299598694,478.9248299598694,478.9248299598694,478.9248299598694,481.6069097518921,2,2.8223092555999756,None,,,,,,,,,,,,,,,,,,195,2,2025-03-05_12h55.20.320,comp,2024.2.4,57.08314563312923,2025-03-05 12h55.29.562718 -0500,
135,135,0,filler_square,None,None,None,None,None,None,None,None,None,None,3,2.1971821784973145,None,,,,,0,0,0,0,0,135,135,200,481.6234574317932,,,,,,,,,,,,,,,,,,,,,,,,,,,,,,,,,,,,,,,,,,,,,,,,,,,,,,,,,,,,,,,,,,,,,,,,,,,,,,,,,65.23001937136162,68.46072933904736,60.35363994762332,64.27172261077243,70.58128007439258,70.58128007439258,4.0,4.2,-162,-10,0,-289,163,13,481.608850479126,481.60892820358276,481.61244893074036,481.6234574317932,481.77175784111023,481.77175784111023,481.77175784111023,481.77175784111023,481.77175784111023,481.77175784111023,481.77175784111023,483.8392415046692,3,2.1971821784973145,None,,,,,,,,,,,,,,,,,,195,2,2025-03-05_12h55.20.320,comp,2024.2.4,57.08314563312923,2025-03-05 12h55.29.562718 -0500,
136,136,0,critical,dwh,35.0,1.0,lower,70.0,70.0,57.0,133.0,133.0,57.0,2,1.9452805519104004,None,,,,,0,0,0,0,0,136,136,60,483.8526825904846,,,,,,,,,,,,,,,,,,,,,,,,,,,,,,,,,,,,,,,,,,,,,,,,,,,,,,,,,,,,,,,,,,,,,,,,,,,,,,,,,70.0,70.0,57.0,133.0,133.0,57.0,1.0,1.2,-198,-3,0,-12,191,-12,483.8407175540924,483.84081387519836,483.84375405311584,483.8526825904846,484.00733256340027,484.00733256340027,484.00733256340027,484.00733256340027,484.00733256340027,484.00733256340027,484.00733256340027,485.8083574771881,2,1.9452805519104004,None,,,,,,,,,,,,,,,,,,195,2,2025-03-05_12h55.20.320,comp,2024.2.4,57.08314563312923,2025-03-05 12h55.29.562718 -0500,
137,137,0,filler_square,None,None,None,None,None,None,None,None,None,None,1,2.3331055641174316,None,,,,,0,0,0,0,0,137,137,204,485.82421946525574,,,,,,,,,,,,,,,,,,,,,,,,,,,,,,,,,,,,,,,,,,,,,,,,,,,,,,,,,,,,,,,,,,,,,,,,,,,,,,,,,154.29064578231944,154.29064578231944,126.45293506649891,92.91530852028706,57.96655552557365,95.27342368303519,4.0,4.2,-220,12,0,-254,190,11,485.8101029396057,485.81018018722534,485.81349086761475,485.82421946525574,485.9741721153259,485.9741721153259,485.9741721153259,485.9741721153259,485.9741721153259,485.9741721153259,485.9741721153259,488.1609137058258,1,2.3331055641174316,None,,,,,,,,,,,,,,,,,,195,2,2025-03-05_12h55.20.320,comp,2024.2.4,57.08314563312923,2025-03-05 12h55.29.562718 -0500,
138,138,0,critical,whd,35.0,4.0,upper,125.0,200.0,200.0,125.0,127.0,127.0,1,1.3873579502105713,None,,,,,0,0,0,0,0,138,138,89,488.1773293018341,,,,,,,,,,,,,,,,,,,,,,,,,,,,,,,,,,,,,,,,,,,,,,,,,,,,,,,,,,,,,,,,,,,,,,,,,,,,,,,,,125.0,200.0,200.0,125.0,127.0,127.0,4.0,4.1,-258,-286,0,7,222,-281,488.1625759601593,488.1627244949341,488.1661720275879,488.1773293018341,488.33222365379333,488.33222365379333,488.33222365379333,488.33222365379333,488.33222365379333,488.33222365379333,488.33222365379333,489.5760383605957,1,1.3873579502105713,None,,,,,,,,,,,,,,,,,,195,2,2025-03-05_12h55.20.320,comp,2024.2.4,57.08314563312923,2025-03-05 12h55.29.562718 -0500,
139,139,0,critical,hdw,35.0,2.1,upper,200.0,125.0,127.0,127.0,125.0,200.0,3,2.187974452972412,None,,,,,0,0,0,0,0,139,139,45,489.59238290786743,,,,,,,,,,,,,,,,,,,,,,,,,,,,,,,,,,,,,,,,,,,,,,,,,,,,,,,,,,,,,,,,,,,,,,,,,,,,,,,,,200.0,125.0,127.0,127.0,125.0,200.0,2.1,2.12,-222,-272,0,-287,260,276,489.5775077342987,489.57760405540466,489.5810372829437,489.59238290786743,489.7481987476349,489.7481987476349,489.7481987476349,489.7481987476349,489.7481987476349,489.7481987476349,489.7481987476349,491.79844975471497,3,2.187974452972412,None,,,,,,,,,,,,,,,,,,195,2,2025-03-05_12h55.20.320,comp,2024.2.4,57.08314563312923,2025-03-05 12h55.29.562718 -0500,
140,140,0,critical,dhw,35.0,2.1,upper,127.0,127.0,200.0,125.0,125.0,200.0,3,1.937363624572754,None,,,,,0,0,0,0,0,140,140,25,491.81902027130127,,,,,,,,,,,,,,,,,,,,,,,,,,,,,,,,,,,,,,,,,,,,,,,,,,,,,,,,,,,,,,,,,,,,,,,,,,,,,,,,,127.0,127.0,200.0,125.0,125.0,200.0,2.1,2.11,-222,270,0,267,258,-262,491.8000385761261,491.8001582622528,491.8037178516388,491.81902027130127,491.96043634414673,491.96043634414673,491.96043634414673,491.96043634414673,491.96043634414673,491.96043634414673,491.96043634414673,493.76922941207886,3,1.937363624572754,None,,,,,,,,,,,,,,,,,,195,2,2025-03-05_12h55.20.320,comp,2024.2.4,57.08314563312923,2025-03-05 12h55.29.562718 -0500,
