thisN,thisTrialN,thisRepN,effect,order,distance,config,diag,h_1,w_1,h_2,w_2,h_3,w_3,rect_choice.keys,rect_choice.rt,rect_choice.duration,instructions_loop.thisRepN,instructions_loop.thisTrialN,instructions_loop.thisN,instructions_loop.thisIndex,blocks.thisRepN,blocks.thisTrialN,blocks.thisN,blocks.thisIndex,trials.thisRepN,trials.thisTrialN,trials.thisN,trials.thisIndex,thisRow.t,notes,consent.started,agree_button.started,decline_button.started,consent_img.started,mouse.started,consent.stopped,agree_button.numClicks,agree_button.timesOn,agree_button.timesOff,decline_button.numClicks,decline_button.timesOn,decline_button.timesOff,mouse.x,mouse.y,mouse.leftButton,mouse.midButton,mouse.rightButton,mouse.time,mouse.clicked_name,exp_params.started,exp_params.stopped,welcome.started,welcome_text.started,welcome.stopped,instructions_1.started,instructions_1_text_1.started,instructions_1_text_2.started,key_resp.started,instructions_1.stopped,instructions_loop.key_resp.keys,instructions_loop.key_resp.rt,instructions_loop.key_resp.duration,instructions_2.started,instructions_2_text_1.started,instructions_2_text_2.started,key_resp_2.started,instructions_2.stopped,instructions_loop.key_resp_2.keys,instructions_loop.key_resp_2.rt,instructions_loop.key_resp_2.duration,instructions_3.started,instructions_3_text_1.started,r1_instr3.started,r2_instr3.started,r3_instr3.started,r1_instr3_label.started,r2_instr3_label.started,r3_instr3_label.started,instructions_3_text_3.started,instructions_3_text_4.started,key_resp_3.started,instructions_3.stopped,instructions_loop.key_resp_3.keys,instructions_loop.key_resp_3.rt,instructions_loop.key_resp_3.duration,instructions_4.started,instructions_4_text_1.started,instructions_4_text_3.started,instructions_4_text_2.started,key_resp_4.started,instructions_4.stopped,instructions_loop.key_resp_4.keys,instructions_loop.key_resp_4.rt,instructions_loop.key_resp_4.duration,instructions_5.started,instructions_5_text_1.started,instructions_5_text_2.started,key_resp_5.started,instructions_5.stopped,instructions_loop.key_resp_5.keys,instructions_loop.key_resp_5.rt,instructions_loop.key_resp_5.duration,start_exp.started,start_exp_text.started,key_resp_6.started,start_exp.stopped,key_resp_6.keys,key_resp_6.rt,key_resp_6.duration,h_1_tmp,w_1_tmp,h_2_tmp,w_2_tmp,h_3_tmp,w_3_tmp,config_tmp,config_tmp_1,r_1_x,r_1_y,r_2_x,r_2_y,r_3_x,r_3_y,pre_trial.started,pre_trial.stopped,choice_trial.started,rect_choice.started,r_1.started,r_2.started,r_3.started,r_1_label.started,r_2_label.started,r_3_label.started,prompt.started,choice_trial.stopped,trials.rect_choice.keys,trials.rect_choice.rt,trials.rect_choice.duration,end_block.started,end_block_text.started,end_block.stopped,end.started,end_text.started,key_resp_7.started,end.stopped,key_resp_7.keys,key_resp_7.rt,key_resp_7.duration,debriefing.started,debrief_form.started,end_debrief.started,debriefing.stopped,end_debrief.keys,end_debrief.rt,end_debrief.duration,participant,computer,date,expName,psychopyVersion,frameRate,expStart,
,,,,,,,,,,,,,,,,,,,,,,,,,,,,,,,0.014859914779663086,0.03591585159301758,0.03591585159301758,0.03591585159301758,0.014618396759033203,9.665615797042847,1,[9.6271333694458],[9.627179861068726],0,,,[-79.0],[-524.0],[1],[0],[0],[9.65023422241211],['agree_button'],,,,,,,,,,,,,,,,,,,,,,,,,,,,,,,,,,,,,,,,,,,,,,,,,,,,,,,,,,,,,,,,,,,,,,,,,,,,,,,,,,,,,,,,,,,,,,,,,,,,,,,,,,,196,1,2025-03-05_14h12.35.655,comp,2024.2.4,57.49331417942262,2025-03-05 14h12.44.602246 -0500,
,,,,,,,,,,,,,,,,,,,,,,,,,,,,,,,,,,,,,,,,,,,,,,,,,,9.666167974472046,9.666237592697144,,,,,,,,,,,,,,,,,,,,,,,,,,,,,,,,,,,,,,,,,,,,,,,,,,,,,,,,,,,,,,,,,,,,,,,,,,,,,,,,,,,,,,,,,,,,,,,,,,,,,,,,,196,1,2025-03-05_14h12.35.655,comp,2024.2.4,57.49331417942262,2025-03-05 14h12.44.602246 -0500,
,,,,,,,,,,,,,,,,,,,,,,,,,,,,,,,,,,,,,,,,,,,,,,,,,,,,9.666283369064331,9.684283018112183,11.674245357513428,,,,,,,,,,,,,,,,,,,,,,,,,,,,,,,,,,,,,,,,,,,,,,,,,,,,,,,,,,,,,,,,,,,,,,,,,,,,,,,,,,,,,,,,,,,,,,,,,,,,,,196,1,2025-03-05_14h12.35.655,comp,2024.2.4,57.49331417942262,2025-03-05 14h12.44.602246 -0500,
0,0,0,,,,,,,,,,,,,,,0,0,0,0,,,,,,,,,11.692658185958862,,,,,,,,,,,,,,,,,,,,,,,,,,11.675143480300903,11.692658185958862,11.692658185958862,13.172765493392944,19.159215688705444,space,5.981612682342529,None,19.159367322921753,19.17561936378479,19.17561936378479,20.67474913597107,38.838122844696045,space,18.159429788589478,None,38.83828902244568,38.8697452545166,38.8697452545166,38.8697452545166,38.8697452545166,38.8697452545166,38.8697452545166,38.8697452545166,38.8697452545166,38.8697452545166,40.33934187889099,49.6170494556427,space,9.26286506652832,None,49.61726188659668,49.63422107696533,49.63422107696533,49.63422107696533,51.13415288925171,55.87406587600708,space,4.73318338394165,None,55.874361991882324,55.8932523727417,55.8932523727417,57.38619875907898,58.25449872016907,space,0.8640315532684326,None,58.2547025680542,58.27058720588684,58.27058720588684,59.43547868728638,space,1.1555752754211426,None,,,,,,,,,,,,,,,,,,,,,,,,,,,,,,,,,,,,,,,,,,,,,,,196,1,2025-03-05_14h12.35.655,comp,2024.2.4,57.49331417942262,2025-03-05 14h12.44.602246 -0500,
0,0,0,critical,hdw,20.0,1.0,upper,200.0,125.0,141.0,141.0,125.0,200.0,1,5.486830949783325,None,,,,,0,0,0,0,0,0,0,115,59.51559114456177,,,,,,,,,,,,,,,,,,,,,,,,,,,,,,,,,,,,,,,,,,,,,,,,,,,,,,,,,,,,,,,,,,,,,,,,,,,,,,,,,200.0,125.0,141.0,141.0,125.0,200.0,1.0,1.2,-229,15,0,3,266,9,59.49878716468811,59.49882364273071,59.50010871887207,59.51559114456177,59.66522765159607,59.66522765159607,59.66522765159607,59.66522765159607,59.66522765159607,59.66522765159607,59.66522765159607,65.00681352615356,1,5.486830949783325,None,,,,,,,,,,,,,,,,,,196,1,2025-03-05_14h12.35.655,comp,2024.2.4,57.49331417942262,2025-03-05 14h12.44.602246 -0500,
1,1,0,filler_random,None,None,None,None,None,None,None,None,None,None,2,1.843459129333496,None,,,,,0,0,0,0,0,1,1,157,65.022789478302,,,,,,,,,,,,,,,,,,,,,,,,,,,,,,,,,,,,,,,,,,,,,,,,,,,,,,,,,,,,,,,,,,,,,,,,,,,,,,,,,142.29968400545835,110.37566260535206,182.1223473696284,197.3192244444178,110.67172899794365,81.66060169173655,2.1,2.12,-250,-281,0,-276,235,257,65.00854396820068,65.00861883163452,65.01184916496277,65.022789478302,65.17063212394714,65.17063212394714,65.17063212394714,65.17063212394714,65.17063212394714,65.17063212394714,65.17063212394714,66.878732919693,2,1.843459129333496,None,,,,,,,,,,,,,,,,,,196,1,2025-03-05_14h12.35.655,comp,2024.2.4,57.49331417942262,2025-03-05 14h12.44.602246 -0500,
2,2,0,critical,hdw,35.0,2.1,upper,200.0,125.0,127.0,127.0,125.0,200.0,1,2.5781683921813965,None,,,,,0,0,0,0,0,2,2,21,66.89654469490051,,,,,,,,,,,,,,,,,,,,,,,,,,,,,,,,,,,,,,,,,,,,,,,,,,,,,,,,,,,,,,,,,,,,,,,,,,,,,,,,,200.0,125.0,127.0,127.0,125.0,200.0,2.1,2.12,-222,-272,0,-284,260,290,66.88045716285706,66.88053727149963,66.8834080696106,66.89654469490051,67.04421186447144,67.04421186447144,67.04421186447144,67.04421186447144,67.04421186447144,67.04421186447144,67.04421186447144,69.4912383556366,1,2.5781683921813965,None,,,,,,,,,,,,,,,,,,196,1,2025-03-05_14h12.35.655,comp,2024.2.4,57.49331417942262,2025-03-05 14h12.44.602246 -0500,
3,3,0,critical,hwd,20.0,3.0,upper,200.0,125.0,125.0,200.0,141.0,141.0,2,3.5673282146453857,None,,,,,0,0,0,0,0,3,3,105,69.50691556930542,,,,,,,,,,,,,,,,,,,,,,,,,,,,,,,,,,,,,,,,,,,,,,,,,,,,,,,,,,,,,,,,,,,,,,,,,,,,,,,,,200.0,125.0,125.0,200.0,141.0,141.0,3.0,3.1,-258,280,0,14,266,-267,69.49296498298645,69.4931321144104,69.49633312225342,69.50691556930542,69.65671730041504,69.65671730041504,69.65671730041504,69.65671730041504,69.65671730041504,69.65671730041504,69.65671730041504,73.07853698730469,2,3.5673282146453857,None,,,,,,,,,,,,,,,,,,196,1,2025-03-05_14h12.35.655,comp,2024.2.4,57.49331417942262,2025-03-05 14h12.44.602246 -0500,
4,4,0,filler_square,None,None,None,None,None,None,None,None,None,None,2,6.644121170043945,None,,,,,0,0,0,0,0,4,4,204,73.09517359733582,,,,,,,,,,,,,,,,,,,,,,,,,,,,,,,,,,,,,,,,,,,,,,,,,,,,,,,,,,,,,,,,,,,,,,,,,,,,,,,,,57.92722503856836,57.917631208270116,65.48743590698335,65.48743590698335,65.32498450381928,60.52760401524068,2.1,2.11,-158,267,0,254,159,-283,73.08096718788147,73.08114528656006,73.08436131477356,73.09517359733582,73.2455894947052,73.2455894947052,73.2455894947052,73.2455894947052,73.2455894947052,73.2455894947052,73.2455894947052,79.74684190750122,2,6.644121170043945,None,,,,,,,,,,,,,,,,,,196,1,2025-03-05_14h12.35.655,comp,2024.2.4,57.49331417942262,2025-03-05 14h12.44.602246 -0500,
5,5,0,critical,hwd,20.0,2.1,upper,200.0,125.0,125.0,200.0,141.0,141.0,1,3.01650333404541,None,,,,,0,0,0,0,0,5,5,43,79.76255655288696,,,,,,,,,,,,,,,,,,,,,,,,,,,,,,,,,,,,,,,,,,,,,,,,,,,,,,,,,,,,,,,,,,,,,,,,,,,,,,,,,200.0,125.0,125.0,200.0,141.0,141.0,2.1,2.12,-258,-282,0,-285,266,288,79.74849009513855,79.74857234954834,79.75174641609192,79.76255655288696,79.90233707427979,79.90233707427979,79.90233707427979,79.90233707427979,79.90233707427979,79.90233707427979,79.90233707427979,82.78452014923096,1,3.01650333404541,None,,,,,,,,,,,,,,,,,,196,1,2025-03-05_14h12.35.655,comp,2024.2.4,57.49331417942262,2025-03-05 14h12.44.602246 -0500,
6,6,0,critical,dwh,35.0,2.1,lower,70.0,70.0,57.0,133.0,133.0,57.0,3,3.6590588092803955,None,,,,,0,0,0,0,0,6,6,28,82.79992294311523,,,,,,,,,,,,,,,,,,,,,,,,,,,,,,,,,,,,,,,,,,,,,,,,,,,,,,,,,,,,,,,,,,,,,,,,,,,,,,,,,70.0,70.0,57.0,133.0,133.0,57.0,2.1,2.11,-198,259,0,250,191,-258,82.78610110282898,82.7861840724945,82.78901171684265,82.79992294311523,82.94318127632141,82.94318127632141,82.94318127632141,82.94318127632141,82.94318127632141,82.94318127632141,82.94318127632141,86.46672201156616,3,3.6590588092803955,None,,,,,,,,,,,,,,,,,,196,1,2025-03-05_14h12.35.655,comp,2024.2.4,57.49331417942262,2025-03-05 14h12.44.602246 -0500,
7,7,0,catch,None,None,None,None,None,None,None,None,None,None,1,1.5335369110107422,None,,,,,0,0,0,0,0,7,7,127,86.48475289344788,,,,,,,,,,,,,,,,,,,,,,,,,,,,,,,,,,,,,,,,,,,,,,,,,,,,,,,,,,,,,,,,,,,,,,,,,,,,,,,,,180,145,99,91,121,69,2.1,2.11,-214,265,0,255,176,-289,86.468759059906,86.46884560585022,86.4717206954956,86.48475289344788,86.63355994224548,86.63355994224548,86.63355994224548,86.63355994224548,86.63355994224548,86.63355994224548,86.63355994224548,88.0295615196228,1,1.5335369110107422,None,,,,,,,,,,,,,,,,,,196,1,2025-03-05_14h12.35.655,comp,2024.2.4,57.49331417942262,2025-03-05 14h12.44.602246 -0500,
8,8,0,critical,whd,20.0,2.1,lower,57.0,133.0,133.0,57.0,78.0,78.0,1,2.932830810546875,None,,,,,0,0,0,0,0,8,8,14,88.04636907577515,,,,,,,,,,,,,,,,,,,,,,,,,,,,,,,,,,,,,,,,,,,,,,,,,,,,,,,,,,,,,,,,,,,,,,,,,,,,,,,,,57.0,133.0,133.0,57.0,78.0,78.0,2.1,2.11,-191,258,0,269,164,-290,88.0312385559082,88.03137397766113,88.03463768959045,88.04636907577515,88.19768738746643,88.19768738746643,88.19768738746643,88.19768738746643,88.19768738746643,88.19768738746643,88.19768738746643,90.98387575149536,1,2.932830810546875,None,,,,,,,,,,,,,,,,,,196,1,2025-03-05_14h12.35.655,comp,2024.2.4,57.49331417942262,2025-03-05 14h12.44.602246 -0500,
9,9,0,critical,dhw,20.0,3.0,upper,141.0,141.0,200.0,125.0,125.0,200.0,3,5.945041656494141,None,,,,,0,0,0,0,0,9,9,57,91.00125670433044,,,,,,,,,,,,,,,,,,,,,,,,,,,,,,,,,,,,,,,,,,,,,,,,,,,,,,,,,,,,,,,,,,,,,,,,,,,,,,,,,141.0,141.0,200.0,125.0,125.0,200.0,3.0,3.2,-229,-283,0,-15,258,271,90.98569774627686,90.98578000068665,90.98963403701782,91.00125670433044,91.13638281822205,91.13638281822205,91.13638281822205,91.13638281822205,91.13638281822205,91.13638281822205,91.13638281822205,96.96001100540161,3,5.945041656494141,None,,,,,,,,,,,,,,,,,,196,1,2025-03-05_14h12.35.655,comp,2024.2.4,57.49331417942262,2025-03-05 14h12.44.602246 -0500,
10,10,0,filler_square,None,None,None,None,None,None,None,None,None,None,2,3.590280532836914,None,,,,,0,0,0,0,0,10,10,186,96.9804904460907,,,,,,,,,,,,,,,,,,,,,,,,,,,,,,,,,,,,,,,,,,,,,,,,,,,,,,,,,,,,,,,,,,,,,,,,,,,,,,,,,76.9443590187844,77.85681000132061,82.44847567775085,82.44847567775085,74.85735325527669,79.9434840528461,1.0,1.2,-176,6,0,-18,177,-10,96.96178269386292,96.96186375617981,96.96474003791809,96.9804904460907,97.11688947677612,97.11688947677612,97.11688947677612,97.11688947677612,97.11688947677612,97.11688947677612,97.11688947677612,100.57349801063538,2,3.590280532836914,None,,,,,,,,,,,,,,,,,,196,1,2025-03-05_14h12.35.655,comp,2024.2.4,57.49331417942262,2025-03-05 14h12.44.602246 -0500,
11,11,0,filler_square,None,None,None,None,None,None,None,None,None,None,2,1.9069199562072754,None,,,,,0,0,0,0,0,11,11,188,100.5922782421112,,,,,,,,,,,,,,,,,,,,,,,,,,,,,,,,,,,,,,,,,,,,,,,,,,,,,,,,,,,,,,,,,,,,,,,,,,,,,,,,,128.89647989981825,57.215007952189175,142.62871834726477,142.62871834726477,133.5426198397742,66.90760134202245,1.0,1.3,284,-268,480,-264,681,-277,100.5755729675293,100.57565569877625,100.57887578010559,100.5922782421112,100.73380398750305,100.73380398750305,100.73380398750305,100.73380398750305,100.73380398750305,100.73380398750305,100.73380398750305,102.50527238845825,2,1.9069199562072754,None,,,,,,,,,,,,,,,,,,196,1,2025-03-05_14h12.35.655,comp,2024.2.4,57.49331417942262,2025-03-05 14h12.44.602246 -0500,
12,12,0,catch,None,None,None,None,None,None,None,None,None,None,1,1.5904417037963867,None,,,,,0,0,0,0,0,12,12,124,102.52437400817871,,,,,,,,,,,,,,,,,,,,,,,,,,,,,,,,,,,,,,,,,,,,,,,,,,,,,,,,,,,,,,,,,,,,,,,,,,,,,,,,,194,131,83,107,104,86,2.1,2.11,-215,270,0,283,192,-283,102.50734567642212,102.50742888450623,102.51032423973083,102.52437400817871,102.66876530647278,102.66876530647278,102.66876530647278,102.66876530647278,102.66876530647278,102.66876530647278,102.66876530647278,104.12800717353821,1,1.5904417037963867,None,,,,,,,,,,,,,,,,,,196,1,2025-03-05_14h12.35.655,comp,2024.2.4,57.49331417942262,2025-03-05 14h12.44.602246 -0500,
13,13,0,critical,dhw,35.0,2.1,lower,70.0,70.0,133.0,57.0,57.0,133.0,3,5.619111061096191,None,,,,,0,0,0,0,0,13,13,0,104.1441650390625,,,,,,,,,,,,,,,,,,,,,,,,,,,,,,,,,,,,,,,,,,,,,,,,,,,,,,,,,,,,,,,,,,,,,,,,,,,,,,,,,70.0,70.0,133.0,57.0,57.0,133.0,2.1,2.12,-160,-251,0,-262,191,260,104.12962484359741,104.12975001335144,104.13300681114197,104.1441650390625,104.28555035591125,104.28555035591125,104.28555035591125,104.28555035591125,104.28555035591125,104.28555035591125,104.28555035591125,109.77100896835327,3,5.619111061096191,None,,,,,,,,,,,,,,,,,,196,1,2025-03-05_14h12.35.655,comp,2024.2.4,57.49331417942262,2025-03-05 14h12.44.602246 -0500,
14,14,0,filler_random,None,None,None,None,None,None,None,None,None,None,3,1.4293839931488037,None,,,,,0,0,0,0,0,14,14,151,109.78939056396484,,,,,,,,,,,,,,,,,,,,,,,,,,,,,,,,,,,,,,,,,,,,,,,,,,,,,,,,,,,,,,,,,,,,,,,,,,,,,,,,,81.31077961336501,87.7927951835461,84.76131406196923,128.4135389076318,150.81796105556487,196.19727637860092,1.0,1.3,276,-265,480,-272,738,-263,109.77270460128784,109.77278470993042,109.7760283946991,109.78939056396484,109.92565608024597,109.92565608024597,109.92565608024597,109.92565608024597,109.92565608024597,109.92565608024597,109.92565608024597,111.24084115028381,3,1.4293839931488037,None,,,,,,,,,,,,,,,,,,196,1,2025-03-05_14h12.35.655,comp,2024.2.4,57.49331417942262,2025-03-05 14h12.44.602246 -0500,
15,15,0,filler_square,None,None,None,None,None,None,None,None,None,None,3,3.2818336486816406,None,,,,,0,0,0,0,0,15,15,191,111.25656747817993,,,,,,,,,,,,,,,,,,,,,,,,,,,,,,,,,,,,,,,,,,,,,,,,,,,,,,,,,,,,,,,,,,,,,,,,,,,,,,,,,115.0969970401009,104.14354530195764,75.64174986163935,90.22222848262763,122.15404134092684,122.15404134092684,1.0,1.3,287,-263,480,-289,682,-262,111.24295091629028,111.2430317401886,111.24603009223938,111.25656747817993,111.40559959411621,111.40559959411621,111.40559959411621,111.40559959411621,111.40559959411621,111.40559959411621,111.40559959411621,114.55531096458435,3,3.2818336486816406,None,,,,,,,,,,,,,,,,,,196,1,2025-03-05_14h12.35.655,comp,2024.2.4,57.49331417942262,2025-03-05 14h12.44.602246 -0500,
16,16,0,critical,whd,35.0,1.0,lower,57.0,133.0,133.0,57.0,70.0,70.0,1,1.7751624584197998,None,,,,,0,0,0,0,0,16,16,84,114.57114791870117,,,,,,,,,,,,,,,,,,,,,,,,,,,,,,,,,,,,,,,,,,,,,,,,,,,,,,,,,,,,,,,,,,,,,,,,,,,,,,,,,57.0,133.0,133.0,57.0,70.0,70.0,1.0,1.3,289,-270,480,-263,640,-289,114.55685806274414,114.55693578720093,114.56021308898926,114.57114791870117,114.70747661590576,114.70747661590576,114.70747661590576,114.70747661590576,114.70747661590576,114.70747661590576,114.70747661590576,116.36323308944702,1,1.7751624584197998,None,,,,,,,,,,,,,,,,,,196,1,2025-03-05_14h12.35.655,comp,2024.2.4,57.49331417942262,2025-03-05 14h12.44.602246 -0500,
17,17,0,critical,hwd,35.0,4.0,upper,200.0,125.0,125.0,200.0,127.0,127.0,1,1.6913206577301025,None,,,,,0,0,0,0,0,17,17,101,116.38301682472229,,,,,,,,,,,,,,,,,,,,,,,,,,,,,,,,,,,,,,,,,,,,,,,,,,,,,,,,,,,,,,,,,,,,,,,,,,,,,,,,,200.0,125.0,125.0,200.0,127.0,127.0,4.0,4.1,-258,-287,0,-18,260,-265,116.3647711277008,116.36485123634338,116.3677065372467,116.38301682472229,116.52273392677307,116.52273392677307,116.52273392677307,116.52273392677307,116.52273392677307,116.52273392677307,116.52273392677307,118.09073543548584,1,1.6913206577301025,None,,,,,,,,,,,,,,,,,,196,1,2025-03-05_14h12.35.655,comp,2024.2.4,57.49331417942262,2025-03-05 14h12.44.602246 -0500,
18,18,0,filler_random,None,None,None,None,None,None,None,None,None,None,2,1.7912530899047852,None,,,,,0,0,0,0,0,18,18,169,118.10704159736633,,,,,,,,,,,,,,,,,,,,,,,,,,,,,,,,,,,,,,,,,,,,,,,,,,,,,,,,,,,,,,,,,,,,,,,,,,,,,,,,,99.83571660221025,142.4774550334286,164.46953352673023,198.98567734923316,162.8976793918519,93.10860140791584,3.0,3.1,-267,267,0,-14,242,-287,118.09255480766296,118.09263467788696,118.09566593170166,118.10704159736633,118.25732374191284,118.25732374191284,118.25732374191284,118.25732374191284,118.25732374191284,118.25732374191284,118.25732374191284,119.90789294242859,2,1.7912530899047852,None,,,,,,,,,,,,,,,,,,196,1,2025-03-05_14h12.35.655,comp,2024.2.4,57.49331417942262,2025-03-05 14h12.44.602246 -0500,
19,19,0,filler_square,None,None,None,None,None,None,None,None,None,None,1,1.901982307434082,None,,,,,0,0,0,0,0,19,19,189,119.92456889152527,,,,,,,,,,,,,,,,,,,,,,,,,,,,,,,,,,,,,,,,,,,,,,,,,,,,,,,,,,,,,,,,,,,,,,,,,,,,,,,,,108.5552557168479,108.5552557168479,83.22247625187215,69.83376609355716,105.45652926936802,95.37940587634789,2.1,2.12,-185,-267,0,-283,179,275,119.90973854064941,119.90982103347778,119.91275262832642,119.92456889152527,120.07717967033386,120.07717967033386,120.07717967033386,120.07717967033386,120.07717967033386,120.07717967033386,120.07717967033386,121.84136271476746,1,1.901982307434082,None,,,,,,,,,,,,,,,,,,196,1,2025-03-05_14h12.35.655,comp,2024.2.4,57.49331417942262,2025-03-05 14h12.44.602246 -0500,
20,20,0,filler_square,None,None,None,None,None,None,None,None,None,None,1,1.1695523262023926,None,,,,,0,0,0,0,0,20,20,193,121.85730934143066,,,,,,,,,,,,,,,,,,,,,,,,,,,,,,,,,,,,,,,,,,,,,,,,,,,,,,,,,,,,,,,,,,,,,,,,,,,,,,,,,125.1906293456527,125.1906293456527,81.72047978321166,64.97027657093064,81.59145708760016,106.49747512471887,1.0,1.3,289,-274,480,-257,662,-288,121.84329843521118,121.84337878227234,121.84675788879395,121.85730934143066,122.01205348968506,122.01205348968506,122.01205348968506,122.01205348968506,122.01205348968506,122.01205348968506,122.01205348968506,123.04456067085266,1,1.1695523262023926,None,,,,,,,,,,,,,,,,,,196,1,2025-03-05_14h12.35.655,comp,2024.2.4,57.49331417942262,2025-03-05 14h12.44.602246 -0500,
21,21,0,critical,hdw,20.0,2.1,upper,200.0,125.0,141.0,141.0,125.0,200.0,1,2.5911245346069336,None,,,,,0,0,0,0,0,21,21,23,123.06026029586792,,,,,,,,,,,,,,,,,,,,,,,,,,,,,,,,,,,,,,,,,,,,,,,,,,,,,,,,,,,,,,,,,,,,,,,,,,,,,,,,,200.0,125.0,141.0,141.0,125.0,200.0,2.1,2.12,-229,-266,0,-256,266,255,123.04629945755005,123.04644107818604,123.04985737800598,123.06026029586792,123.20824980735779,123.20824980735779,123.20824980735779,123.20824980735779,123.20824980735779,123.20824980735779,123.20824980735779,125.65822219848633,1,2.5911245346069336,None,,,,,,,,,,,,,,,,,,196,1,2025-03-05_14h12.35.655,comp,2024.2.4,57.49331417942262,2025-03-05 14h12.44.602246 -0500,
22,22,0,critical,hdw,20.0,3.0,upper,200.0,125.0,141.0,141.0,125.0,200.0,3,2.5521929264068604,None,,,,,0,0,0,0,0,22,22,117,125.67472577095032,,,,,,,,,,,,,,,,,,,,,,,,,,,,,,,,,,,,,,,,,,,,,,,,,,,,,,,,,,,,,,,,,,,,,,,,,,,,,,,,,200.0,125.0,141.0,141.0,125.0,200.0,3.0,3.2,-229,-270,0,-15,266,267,125.6597363948822,125.65981721878052,125.66289949417114,125.67472577095032,125.82217144966125,125.82217144966125,125.82217144966125,125.82217144966125,125.82217144966125,125.82217144966125,125.82217144966125,128.23430109024048,3,2.5521929264068604,None,,,,,,,,,,,,,,,,,,196,1,2025-03-05_14h12.35.655,comp,2024.2.4,57.49331417942262,2025-03-05 14h12.44.602246 -0500,
23,23,0,filler_square,None,None,None,None,None,None,None,None,None,None,3,1.637319564819336,None,,,,,0,0,0,0,0,23,23,180,128.25335097312927,,,,,,,,,,,,,,,,,,,,,,,,,,,,,,,,,,,,,,,,,,,,,,,,,,,,,,,,,,,,,,,,,,,,,,,,,,,,,,,,,70.00966963923545,61.52852791527778,136.69717514769428,88.0115602540459,161.01799471918315,161.01799471918315,3.0,3.2,-171,-280,0,9,221,261,128.2360758781433,128.23619675636292,128.23900818824768,128.25335097312927,128.40077662467957,128.40077662467957,128.40077662467957,128.40077662467957,128.40077662467957,128.40077662467957,128.40077662467957,129.89359092712402,3,1.637319564819336,None,,,,,,,,,,,,,,,,,,196,1,2025-03-05_14h12.35.655,comp,2024.2.4,57.49331417942262,2025-03-05 14h12.44.602246 -0500,
24,24,0,filler_square,None,None,None,None,None,None,None,None,None,None,3,4.130888223648071,None,,,,,0,0,0,0,0,24,24,182,129.91221714019775,,,,,,,,,,,,,,,,,,,,,,,,,,,,,,,,,,,,,,,,,,,,,,,,,,,,,,,,,,,,,,,,,,,,,,,,,,,,,,,,,57.272004323941104,57.75912352446966,59.23329708064042,59.23329708064042,59.22756469865301,58.71161810810262,1.0,1.1,-634,261,-480,283,-325,276,129.89551210403442,129.89559197425842,129.8988401889801,129.91221714019775,130.0601794719696,130.0601794719696,130.0601794719696,130.0601794719696,130.0601794719696,130.0601794719696,130.0601794719696,134.0495023727417,3,4.130888223648071,None,,,,,,,,,,,,,,,,,,196,1,2025-03-05_14h12.35.655,comp,2024.2.4,57.49331417942262,2025-03-05 14h12.44.602246 -0500,
25,25,0,critical,wdh,20.0,4.0,upper,125.0,200.0,141.0,141.0,200.0,125.0,1,2.421504259109497,None,,,,,0,0,0,0,0,25,25,83,134.06984758377075,,,,,,,,,,,,,,,,,,,,,,,,,,,,,,,,,,,,,,,,,,,,,,,,,,,,,,,,,,,,,,,,,,,,,,,,,,,,,,,,,125.0,200.0,141.0,141.0,200.0,125.0,4.0,4.1,-266,-268,0,18,229,-270,134.05115365982056,134.0512399673462,134.0546202659607,134.06984758377075,134.21241974830627,134.21241974830627,134.21241974830627,134.21241974830627,134.21241974830627,134.21241974830627,134.21241974830627,136.49806571006775,1,2.421504259109497,None,,,,,,,,,,,,,,,,,,196,1,2025-03-05_14h12.35.655,comp,2024.2.4,57.49331417942262,2025-03-05 14h12.44.602246 -0500,
26,26,0,critical,hdw,20.0,2.1,lower,133.0,57.0,78.0,78.0,57.0,133.0,1,2.0574145317077637,None,,,,,0,0,0,0,0,26,26,46,136.51416015625,,,,,,,,,,,,,,,,,,,,,,,,,,,,,,,,,,,,,,,,,,,,,,,,,,,,,,,,,,,,,,,,,,,,,,,,,,,,,,,,,133.0,57.0,78.0,78.0,57.0,133.0,2.1,2.12,-164,-289,0,-254,202,276,136.50023698806763,136.50037622451782,136.50334882736206,136.51416015625,136.66235494613647,136.66235494613647,136.66235494613647,136.66235494613647,136.66235494613647,136.66235494613647,136.66235494613647,138.57903146743774,1,2.0574145317077637,None,,,,,,,,,,,,,,,,,,196,1,2025-03-05_14h12.35.655,comp,2024.2.4,57.49331417942262,2025-03-05 14h12.44.602246 -0500,
27,27,0,critical,hwd,20.0,2.1,lower,133.0,57.0,57.0,133.0,78.0,78.0,1,1.6443705558776855,None,,,,,0,0,0,0,0,27,27,18,138.5980372428894,,,,,,,,,,,,,,,,,,,,,,,,,,,,,,,,,,,,,,,,,,,,,,,,,,,,,,,,,,,,,,,,,,,,,,,,,,,,,,,,,133.0,57.0,57.0,133.0,78.0,78.0,2.1,2.12,-191,-284,0,-255,202,264,138.58062171936035,138.58070039749146,138.58386325836182,138.5980372428894,138.74624705314636,138.74624705314636,138.74624705314636,138.74624705314636,138.74624705314636,138.74624705314636,138.74624705314636,140.25576972961426,1,1.6443705558776855,None,,,,,,,,,,,,,,,,,,196,1,2025-03-05_14h12.35.655,comp,2024.2.4,57.49331417942262,2025-03-05 14h12.44.602246 -0500,
28,28,0,critical,dwh,20.0,2.1,upper,141.0,141.0,125.0,200.0,200.0,125.0,3,4.140286445617676,None,,,,,0,0,0,0,0,28,28,7,140.27118062973022,,,,,,,,,,,,,,,,,,,,,,,,,,,,,,,,,,,,,,,,,,,,,,,,,,,,,,,,,,,,,,,,,,,,,,,,,,,,,,,,,141.0,141.0,125.0,200.0,200.0,125.0,2.1,2.12,-266,-251,0,-274,258,256,140.25735187530518,140.25743317604065,140.2602996826172,140.27118062973022,140.41459202766418,140.41459202766418,140.41459202766418,140.41459202766418,140.41459202766418,140.41459202766418,140.41459202766418,144.41502737998962,3,4.140286445617676,None,,,,,,,,,,,,,,,,,,196,1,2025-03-05_14h12.35.655,comp,2024.2.4,57.49331417942262,2025-03-05 14h12.44.602246 -0500,
29,29,0,critical,dhw,35.0,4.0,lower,70.0,70.0,133.0,57.0,57.0,133.0,3,2.6116976737976074,None,,,,,0,0,0,0,0,29,29,52,144.4316794872284,,,,,,,,,,,,,,,,,,,,,,,,,,,,,,,,,,,,,,,,,,,,,,,,,,,,,,,,,,,,,,,,,,,,,,,,,,,,,,,,,70.0,70.0,133.0,57.0,57.0,133.0,4.0,4.2,-160,-10,0,-283,191,18,144.41662883758545,144.41671228408813,144.42081904411316,144.4316794872284,144.58049988746643,144.58049988746643,144.58049988746643,144.58049988746643,144.58049988746643,144.58049988746643,144.58049988746643,147.05347847938538,3,2.6116976737976074,None,,,,,,,,,,,,,,,,,,196,1,2025-03-05_14h12.35.655,comp,2024.2.4,57.49331417942262,2025-03-05 14h12.44.602246 -0500,
30,30,0,filler_square,None,None,None,None,None,None,None,None,None,None,2,2.700382709503174,None,,,,,0,0,0,0,0,30,30,177,147.07021617889404,,,,,,,,,,,,,,,,,,,,,,,,,,,,,,,,,,,,,,,,,,,,,,,,,,,,,,,,,,,,,,,,,,,,,,,,,,,,,,,,,94.63180550667404,104.09409199765844,104.10792931500961,104.10792931500961,66.91411324383954,79.09091296144979,4.0,4.2,-200,9,0,-262,188,0,147.05553102493286,147.05561208724976,147.05901432037354,147.07021617889404,147.21727538108826,147.21727538108826,147.21727538108826,147.21727538108826,147.21727538108826,147.21727538108826,147.21727538108826,149.78521156311035,2,2.700382709503174,None,,,,,,,,,,,,,,,,,,196,1,2025-03-05_14h12.35.655,comp,2024.2.4,57.49331417942262,2025-03-05 14h12.44.602246 -0500,
31,31,0,filler_square,None,None,None,None,None,None,None,None,None,None,1,1.7939677238464355,None,,,,,0,0,0,0,0,31,31,185,149.8013949394226,,,,,,,,,,,,,,,,,,,,,,,,,,,,,,,,,,,,,,,,,,,,,,,,,,,,,,,,,,,,,,,,,,,,,,,,,,,,,,,,,197.42850544351876,197.42850544351876,178.9425536455446,150.89299844510592,173.72262756020825,165.9800430754567,2.2,2.21,-270,-289,0,256,254,267,149.78732752799988,149.7874104976654,149.79076075553894,149.8013949394226,149.952730178833,149.952730178833,149.952730178833,149.952730178833,149.952730178833,149.952730178833,149.952730178833,151.60256361961365,1,1.7939677238464355,None,,,,,,,,,,,,,,,,,,196,1,2025-03-05_14h12.35.655,comp,2024.2.4,57.49331417942262,2025-03-05 14h12.44.602246 -0500,
32,32,0,filler_random,None,None,None,None,None,None,None,None,None,None,2,14.471314668655396,None,,,,,0,0,0,0,0,32,32,132,151.61926698684692,,,,,,,,,,,,,,,,,,,,,,,,,,,,,,,,,,,,,,,,,,,,,,,,,,,,,,,,,,,,,,,,,,,,,,,,,,,,,,,,,115.07867340995294,134.20186000148146,72.64190174723672,194.2582943562208,130.82903647763408,125.97269200404847,3.0,3.1,-260,280,0,-19,256,-282,151.6047065258026,151.60479378700256,151.60858249664307,151.61926698684692,151.76821517944336,151.76821517944336,151.76821517944336,151.76821517944336,151.76821517944336,151.76821517944336,151.76821517944336,166.10519647598267,2,14.471314668655396,None,,,,,,,,,,,,,,,,,,196,1,2025-03-05_14h12.35.655,comp,2024.2.4,57.49331417942262,2025-03-05 14h12.44.602246 -0500,
33,33,0,critical,hdw,20.0,4.0,lower,133.0,57.0,78.0,78.0,57.0,133.0,1,6.000718355178833,None,,,,,0,0,0,0,0,33,33,118,166.12182784080505,,,,,,,,,,,,,,,,,,,,,,,,,,,,,,,,,,,,,,,,,,,,,,,,,,,,,,,,,,,,,,,,,,,,,,,,,,,,,,,,,133.0,57.0,78.0,78.0,57.0,133.0,4.0,4.2,-164,12,0,-254,202,15,166.10679745674133,166.10687804222107,166.1109323501587,166.12182784080505,166.27127885818481,166.27127885818481,166.27127885818481,166.27127885818481,166.27127885818481,166.27127885818481,166.27127885818481,172.12469840049744,1,6.000718355178833,None,,,,,,,,,,,,,,,,,,196,1,2025-03-05_14h12.35.655,comp,2024.2.4,57.49331417942262,2025-03-05 14h12.44.602246 -0500,
34,34,0,filler_random,None,None,None,None,None,None,None,None,None,None,3,1.3339803218841553,None,,,,,0,0,0,0,0,34,34,131,172.1411578655243,,,,,,,,,,,,,,,,,,,,,,,,,,,,,,,,,,,,,,,,,,,,,,,,,,,,,,,,,,,,,,,,,,,,,,,,,,,,,,,,,71.07829354766426,103.3712913816584,94.49427492808667,112.05947413973199,120.06994750189034,163.4328299028087,3.0,3.1,-204,252,0,-3,234,-279,172.1266806125641,172.12677478790283,172.13020658493042,172.1411578655243,172.2953794002533,172.2953794002533,172.2953794002533,172.2953794002533,172.2953794002533,172.2953794002533,172.2953794002533,173.49088311195374,3,1.3339803218841553,None,,,,,,,,,,,,,,,,,,196,1,2025-03-05_14h12.35.655,comp,2024.2.4,57.49331417942262,2025-03-05 14h12.44.602246 -0500,
35,35,0,critical,wdh,20.0,2.1,upper,125.0,200.0,141.0,141.0,200.0,125.0,1,2.56044340133667,None,,,,,0,0,0,0,0,35,35,35,173.5068850517273,,,,,,,,,,,,,,,,,,,,,,,,,,,,,,,,,,,,,,,,,,,,,,,,,,,,,,,,,,,,,,,,,,,,,,,,,,,,,,,,,125.0,200.0,141.0,141.0,200.0,125.0,2.1,2.12,-266,-258,0,-268,229,282,173.4925298690796,173.49264454841614,173.4960310459137,173.5068850517273,173.65651178359985,173.65651178359985,173.65651178359985,173.65651178359985,173.65651178359985,173.65651178359985,173.65651178359985,176.07570481300354,1,2.56044340133667,None,,,,,,,,,,,,,,,,,,196,1,2025-03-05_14h12.35.655,comp,2024.2.4,57.49331417942262,2025-03-05 14h12.44.602246 -0500,
36,36,0,filler_square,None,None,None,None,None,None,None,None,None,None,2,1.3028898239135742,None,,,,,0,0,0,0,0,36,36,199,176.09170627593994,,,,,,,,,,,,,,,,,,,,,,,,,,,,,,,,,,,,,,,,,,,,,,,,,,,,,,,,,,,,,,,,,,,,,,,,,,,,,,,,,123.02068026572586,106.63759041431953,128.38101933375674,128.38101933375674,85.24519466274698,92.11215824733488,1.0,1.2,-214,-6,0,1,206,15,176.07749700546265,176.07757925987244,176.08088326454163,176.09170627593994,176.24094772338867,176.24094772338867,176.24094772338867,176.24094772338867,176.24094772338867,176.24094772338867,176.24094772338867,177.40862011909485,2,1.3028898239135742,None,,,,,,,,,,,,,,,,,,196,1,2025-03-05_14h12.35.655,comp,2024.2.4,57.49331417942262,2025-03-05 14h12.44.602246 -0500,
37,37,0,filler_random,None,None,None,None,None,None,None,None,None,None,1,1.217599630355835,None,,,,,0,0,0,0,0,37,37,149,177.42500519752502,,,,,,,,,,,,,,,,,,,,,,,,,,,,,,,,,,,,,,,,,,,,,,,,,,,,,,,,,,,,,,,,,,,,,,,,,,,,,,,,,96.9295157601768,148.68837785310586,70.92261701751764,94.75593842575711,81.57805681521238,108.99561481182778,4.0,4.1,-218,-276,0,-9,198,-259,177.41064357757568,177.41074419021606,177.41419506072998,177.42500519752502,177.57727193832397,177.57727193832397,177.57727193832397,177.57727193832397,177.57727193832397,177.57727193832397,177.57727193832397,178.6619176864624,1,1.217599630355835,None,,,,,,,,,,,,,,,,,,196,1,2025-03-05_14h12.35.655,comp,2024.2.4,57.49331417942262,2025-03-05 14h12.44.602246 -0500,
38,38,0,filler_square,None,None,None,None,None,None,None,None,None,None,1,0.8967349529266357,None,,,,,0,0,0,0,0,38,38,196,178.6821210384369,,,,,,,,,,,,,,,,,,,,,,,,,,,,,,,,,,,,,,,,,,,,,,,,,,,,,,,,,,,,,,,,,,,,,,,,,,,,,,,,,136.29375968238003,136.29375968238003,119.90670873788103,59.544817216988974,105.97691921981749,61.302644041201695,3.0,3.2,-194,-251,0,11,156,284,178.66453409194946,178.66461753845215,178.66753029823303,178.6821210384369,178.82932257652283,178.82932257652283,178.82932257652283,178.82932257652283,178.82932257652283,178.82932257652283,178.82932257652283,179.5822629928589,1,0.8967349529266357,None,,,,,,,,,,,,,,,,,,196,1,2025-03-05_14h12.35.655,comp,2024.2.4,57.49331417942262,2025-03-05 14h12.44.602246 -0500,
39,39,0,critical,hwd,35.0,4.0,lower,133.0,57.0,57.0,133.0,70.0,70.0,1,2.524735927581787,None,,,,,0,0,0,0,0,39,39,100,179.59820413589478,,,,,,,,,,,,,,,,,,,,,,,,,,,,,,,,,,,,,,,,,,,,,,,,,,,,,,,,,,,,,,,,,,,,,,,,,,,,,,,,,133.0,57.0,57.0,133.0,70.0,70.0,4.0,4.1,-191,-268,0,17,198,-251,179.58392715454102,179.5840618610382,179.58727169036865,179.59820413589478,179.74292492866516,179.74292492866516,179.74292492866516,179.74292492866516,179.74292492866516,179.74292492866516,179.74292492866516,182.1292052268982,1,2.524735927581787,None,,,,,,,,,,,,,,,,,,196,1,2025-03-05_14h12.35.655,comp,2024.2.4,57.49331417942262,2025-03-05 14h12.44.602246 -0500,
40,40,0,filler_square,None,None,None,None,None,None,None,None,None,None,3,1.197624683380127,None,,,,,0,0,0,0,0,40,40,203,182.148939371109,,,,,,,,,,,,,,,,,,,,,,,,,,,,,,,,,,,,,,,,,,,,,,,,,,,,,,,,,,,,,,,,,,,,,,,,,,,,,,,,,87.5712264290465,75.96664438143435,68.52600451858703,61.85005721746097,98.19017949720919,98.19017949720919,4.0,4.1,-165,-286,0,-5,176,-265,182.13123512268066,182.13134670257568,182.1343023777008,182.148939371109,182.29679369926453,182.29679369926453,182.29679369926453,182.29679369926453,182.29679369926453,182.29679369926453,182.29679369926453,183.3600115776062,3,1.197624683380127,None,,,,,,,,,,,,,,,,,,196,1,2025-03-05_14h12.35.655,comp,2024.2.4,57.49331417942262,2025-03-05 14h12.44.602246 -0500,
41,41,0,critical,whd,35.0,3.0,lower,57.0,133.0,133.0,57.0,70.0,70.0,1,1.4516117572784424,None,,,,,0,0,0,0,0,41,41,86,183.3750605583191,,,,,,,,,,,,,,,,,,,,,,,,,,,,,,,,,,,,,,,,,,,,,,,,,,,,,,,,,,,,,,,,,,,,,,,,,,,,,,,,,57.0,133.0,133.0,57.0,70.0,70.0,3.0,3.1,-191,287,0,-12,160,-270,183.3616394996643,183.3617193698883,183.36476635932922,183.3750605583191,183.52797770500183,183.52797770500183,183.52797770500183,183.52797770500183,183.52797770500183,183.52797770500183,183.52797770500183,184.84438252449036,1,1.4516117572784424,None,,,,,,,,,,,,,,,,,,196,1,2025-03-05_14h12.35.655,comp,2024.2.4,57.49331417942262,2025-03-05 14h12.44.602246 -0500,
42,42,0,filler_square,None,None,None,None,None,None,None,None,None,None,2,1.4470720291137695,None,,,,,0,0,0,0,0,42,42,172,184.86046361923218,,,,,,,,,,,,,,,,,,,,,,,,,,,,,,,,,,,,,,,,,,,,,,,,,,,,,,,,,,,,,,,,,,,,,,,,,,,,,,,,,99.70368113604306,92.48041785682071,109.93063208149933,99.9417472955125,112.42769481769233,112.42769481769233,2.1,2.12,-192,-252,0,-268,202,250,184.84655261039734,184.84663462638855,184.8501489162445,184.86046361923218,185.01620268821716,185.01620268821716,185.01620268821716,185.01620268821716,185.01620268821716,185.01620268821716,185.01620268821716,186.30995321273804,2,1.4470720291137695,None,,,,,,,,,,,,,,,,,,196,1,2025-03-05_14h12.35.655,comp,2024.2.4,57.49331417942262,2025-03-05 14h12.44.602246 -0500,
43,43,0,filler_random,None,None,None,None,None,None,None,None,None,None,1,1.6202149391174316,None,,,,,0,0,0,0,0,43,43,161,186.32719826698303,,,,,,,,,,,,,,,,,,,,,,,,,,,,,,,,,,,,,,,,,,,,,,,,,,,,,,,,,,,,,,,,,,,,,,,,,,,,,,,,,156.75053194856588,195.28092926604032,182.87658334618408,129.3652932653524,183.81900067957463,135.27037125907282,1.0,1.3,222,-261,480,-286,708,-274,186.31169748306274,186.31177711486816,186.3149061203003,186.32719826698303,186.47580671310425,186.47580671310425,186.47580671310425,186.47580671310425,186.47580671310425,186.47580671310425,186.47580671310425,187.95369958877563,1,1.6202149391174316,None,,,,,,,,,,,,,,,,,,196,1,2025-03-05_14h12.35.655,comp,2024.2.4,57.49331417942262,2025-03-05 14h12.44.602246 -0500,
44,44,0,critical,hdw,20.0,4.0,upper,200.0,125.0,141.0,141.0,125.0,200.0,3,1.881601095199585,None,,,,,0,0,0,0,0,44,44,119,187.9690773487091,,,,,,,,,,,,,,,,,,,,,,,,,,,,,,,,,,,,,,,,,,,,,,,,,,,,,,,,,,,,,,,,,,,,,,,,,,,,,,,,,200.0,125.0,141.0,141.0,125.0,200.0,4.0,4.1,-229,-270,0,-4,266,-281,187.95523881912231,187.9553198814392,187.95816946029663,187.9690773487091,188.11219334602356,188.11219334602356,188.11219334602356,188.11219334602356,188.11219334602356,188.11219334602356,188.11219334602356,189.86630725860596,3,1.881601095199585,None,,,,,,,,,,,,,,,,,,196,1,2025-03-05_14h12.35.655,comp,2024.2.4,57.49331417942262,2025-03-05 14h12.44.602246 -0500,
45,45,0,critical,wdh,20.0,3.0,upper,125.0,200.0,141.0,141.0,200.0,125.0,1,1.3443827629089355,None,,,,,0,0,0,0,0,45,45,81,189.88219022750854,,,,,,,,,,,,,,,,,,,,,,,,,,,,,,,,,,,,,,,,,,,,,,,,,,,,,,,,,,,,,,,,,,,,,,,,,,,,,,,,,125.0,200.0,141.0,141.0,200.0,125.0,3.0,3.2,-266,-260,0,-4,229,272,189.86801409721375,189.86818170547485,189.87167382240295,189.88219022750854,190.02893495559692,190.02893495559692,190.02893495559692,190.02893495559692,190.02893495559692,190.02893495559692,190.02893495559692,191.22973799705505,1,1.3443827629089355,None,,,,,,,,,,,,,,,,,,196,1,2025-03-05_14h12.35.655,comp,2024.2.4,57.49331417942262,2025-03-05 14h12.44.602246 -0500,
46,46,0,filler_random,None,None,None,None,None,None,None,None,None,None,2,5.188642740249634,None,,,,,0,0,0,0,0,46,46,140,191.2462191581726,,,,,,,,,,,,,,,,,,,,,,,,,,,,,,,,,,,,,,,,,,,,,,,,,,,,,,,,,,,,,,,,,,,,,,,,,,,,,,,,,106.92828938024834,61.77226909744064,166.40654127291057,170.63124486807945,189.10839502576906,159.28857787498345,1.0,1.3,268,-275,480,-288,741,-259,191.23182606697083,191.23191118240356,191.23541975021362,191.2462191581726,191.39700078964233,191.39700078964233,191.39700078964233,191.39700078964233,191.39700078964233,191.39700078964233,191.39700078964233,196.450585603714,2,5.188642740249634,None,,,,,,,,,,,,,,,,,,196,1,2025-03-05_14h12.35.655,comp,2024.2.4,57.49331417942262,2025-03-05 14h12.44.602246 -0500,
47,47,0,critical,hwd,20.0,2.1,lower,133.0,57.0,57.0,133.0,78.0,78.0,1,2.8413195610046387,None,,,,,0,0,0,0,0,47,47,42,196.46630239486694,,,,,,,,,,,,,,,,,,,,,,,,,,,,,,,,,,,,,,,,,,,,,,,,,,,,,,,,,,,,,,,,,,,,,,,,,,,,,,,,,133.0,57.0,57.0,133.0,78.0,78.0,2.1,2.11,-191,256,0,288,202,-273,196.4524440765381,196.4525604248047,196.45585703849792,196.46630239486694,196.61496782302856,196.61496782302856,196.61496782302856,196.61496782302856,196.61496782302856,196.61496782302856,196.61496782302856,199.3147439956665,1,2.8413195610046387,None,,,,,,,,,,,,,,,,,,196,1,2025-03-05_14h12.35.655,comp,2024.2.4,57.49331417942262,2025-03-05 14h12.44.602246 -0500,
48,48,0,critical,wdh,35.0,2.1,upper,125.0,200.0,127.0,127.0,200.0,125.0,1,2.0399844646453857,None,,,,,0,0,0,0,0,48,48,33,199.33089327812195,,,,,,,,,,,,,,,,,,,,,,,,,,,,,,,,,,,,,,,,,,,,,,,,,,,,,,,,,,,,,,,,,,,,,,,,,,,,,,,,,125.0,200.0,127.0,127.0,200.0,125.0,2.1,2.12,-260,-259,0,-253,222,280,199.31633472442627,199.31641507148743,199.31949472427368,199.33089327812195,199.48216128349304,199.48216128349304,199.48216128349304,199.48216128349304,199.48216128349304,199.48216128349304,199.48216128349304,201.38853240013123,1,2.0399844646453857,None,,,,,,,,,,,,,,,,,,196,1,2025-03-05_14h12.35.655,comp,2024.2.4,57.49331417942262,2025-03-05 14h12.44.602246 -0500,
49,49,0,filler_square,None,None,None,None,None,None,None,None,None,None,1,1.084794044494629,None,,,,,0,0,0,0,0,49,49,206,201.40580892562866,,,,,,,,,,,,,,,,,,,,,,,,,,,,,,,,,,,,,,,,,,,,,,,,,,,,,,,,,,,,,,,,,,,,,,,,,,,,,,,,,179.4154531939981,179.4154531939981,122.58544751886208,57.7964382864434,138.49013410832737,131.29200405287486,4.0,4.1,-215,-264,0,8,191,-276,201.39038395881653,201.39046335220337,201.39332222938538,201.40580892562866,201.55034565925598,201.55034565925598,201.55034565925598,201.55034565925598,201.55034565925598,201.55034565925598,201.55034565925598,202.49976086616516,1,1.084794044494629,None,,,,,,,,,,,,,,,,,,196,1,2025-03-05_14h12.35.655,comp,2024.2.4,57.49331417942262,2025-03-05 14h12.44.602246 -0500,
50,50,0,critical,dhw,20.0,2.1,upper,141.0,141.0,200.0,125.0,125.0,200.0,2,5.167850017547607,None,,,,,0,0,0,0,0,50,50,3,202.51570439338684,,,,,,,,,,,,,,,,,,,,,,,,,,,,,,,,,,,,,,,,,,,,,,,,,,,,,,,,,,,,,,,,,,,,,,,,,,,,,,,,,141.0,141.0,200.0,125.0,125.0,200.0,2.1,2.12,-229,-260,0,-265,258,275,202.50139570236206,202.50147676467896,202.50485110282898,202.51570439338684,202.6715931892395,202.6715931892395,202.6715931892395,202.6715931892395,202.6715931892395,202.6715931892395,202.6715931892395,207.68883156776428,2,5.167850017547607,None,,,,,,,,,,,,,,,,,,196,1,2025-03-05_14h12.35.655,comp,2024.2.4,57.49331417942262,2025-03-05 14h12.44.602246 -0500,
51,51,0,filler_random,None,None,None,None,None,None,None,None,None,None,3,1.2660505771636963,None,,,,,0,0,0,0,0,51,51,142,207.70456838607788,,,,,,,,,,,,,,,,,,,,,,,,,,,,,,,,,,,,,,,,,,,,,,,,,,,,,,,,,,,,,,,,,,,,,,,,,,,,,,,,,127.67527144422539,63.184350063118465,75.18592816197946,75.61292862640863,152.76776772294033,154.3756794453103,2.2,2.22,-165,262,0,-274,211,-281,207.6907079219818,207.69079065322876,207.6937289237976,207.70456838607788,207.85602569580078,207.85602569580078,207.85602569580078,207.85602569580078,207.85602569580078,207.85602569580078,207.85602569580078,208.98515057563782,3,1.2660505771636963,None,,,,,,,,,,,,,,,,,,196,1,2025-03-05_14h12.35.655,comp,2024.2.4,57.49331417942262,2025-03-05 14h12.44.602246 -0500,
52,52,0,critical,dwh,35.0,3.0,lower,70.0,70.0,57.0,133.0,133.0,57.0,2,2.1370491981506348,None,,,,,0,0,0,0,0,52,52,62,209.0015847682953,,,,,,,,,,,,,,,,,,,,,,,,,,,,,,,,,,,,,,,,,,,,,,,,,,,,,,,,,,,,,,,,,,,,,,,,,,,,,,,,,70.0,70.0,57.0,133.0,133.0,57.0,3.0,3.2,-198,-250,0,-9,191,258,208.98681569099426,208.98695468902588,208.9904124736786,209.0015847682953,209.15149116516113,209.15149116516113,209.15149116516113,209.15149116516113,209.15149116516113,209.15149116516113,209.15149116516113,211.1543345451355,2,2.1370491981506348,None,,,,,,,,,,,,,,,,,,196,1,2025-03-05_14h12.35.655,comp,2024.2.4,57.49331417942262,2025-03-05 14h12.44.602246 -0500,
53,53,0,critical,dhw,20.0,4.0,upper,141.0,141.0,200.0,125.0,125.0,200.0,3,3.6096880435943604,None,,,,,0,0,0,0,0,53,53,59,211.17000818252563,,,,,,,,,,,,,,,,,,,,,,,,,,,,,,,,,,,,,,,,,,,,,,,,,,,,,,,,,,,,,,,,,,,,,,,,,,,,,,,,,141.0,141.0,200.0,125.0,125.0,200.0,4.0,4.2,-229,1,0,-273,258,8,211.15604090690613,211.15618419647217,211.15961337089539,211.17000818252563,211.3230721950531,211.3230721950531,211.3230721950531,211.3230721950531,211.3230721950531,211.3230721950531,211.3230721950531,214.78753662109375,3,3.6096880435943604,None,,,,,,,,,,,,,,,,,,196,1,2025-03-05_14h12.35.655,comp,2024.2.4,57.49331417942262,2025-03-05 14h12.44.602246 -0500,
54,54,0,critical,hwd,20.0,3.0,lower,133.0,57.0,57.0,133.0,78.0,78.0,2,5.591327905654907,None,,,,,0,0,0,0,0,54,54,104,214.80400824546814,,,,,,,,,,,,,,,,,,,,,,,,,,,,,,,,,,,,,,,,,,,,,,,,,,,,,,,,,,,,,,,,,,,,,,,,,,,,,,,,,133.0,57.0,57.0,133.0,78.0,78.0,3.0,3.1,-191,268,0,17,202,-268,214.7890748977661,214.78918290138245,214.7932267189026,214.80400824546814,214.95224118232727,214.95224118232727,214.95224118232727,214.95224118232727,214.95224118232727,214.95224118232727,214.95224118232727,220.4116826057434,2,5.591327905654907,None,,,,,,,,,,,,,,,,,,196,1,2025-03-05_14h12.35.655,comp,2024.2.4,57.49331417942262,2025-03-05 14h12.44.602246 -0500,
55,55,0,critical,whd,20.0,3.0,lower,57.0,133.0,133.0,57.0,78.0,78.0,1,2.7364470958709717,None,,,,,0,0,0,0,0,55,55,92,220.4265694618225,,,,,,,,,,,,,,,,,,,,,,,,,,,,,,,,,,,,,,,,,,,,,,,,,,,,,,,,,,,,,,,,,,,,,,,,,,,,,,,,,57.0,133.0,133.0,57.0,78.0,78.0,3.0,3.2,-191,-283,0,7,164,253,220.41325163841248,220.41333150863647,220.41622734069824,220.4265694618225,220.5710597038269,220.5710597038269,220.5710597038269,220.5710597038269,220.5710597038269,220.5710597038269,220.5710597038269,223.17857933044434,1,2.7364470958709717,None,,,,,,,,,,,,,,,,,,196,1,2025-03-05_14h12.35.655,comp,2024.2.4,57.49331417942262,2025-03-05 14h12.44.602246 -0500,
56,56,0,critical,wdh,20.0,1.0,upper,125.0,200.0,141.0,141.0,200.0,125.0,3,3.585021495819092,None,,,,,0,0,0,0,0,56,56,79,223.19368290901184,,,,,,,,,,,,,,,,,,,,,,,,,,,,,,,,,,,,,,,,,,,,,,,,,,,,,,,,,,,,,,,,,,,,,,,,,,,,,,,,,125.0,200.0,141.0,141.0,200.0,125.0,1.0,1.1,-746,287,-480,261,-251,284,223.18011736869812,223.18020224571228,223.18302989006042,223.19368290901184,223.34121108055115,223.34121108055115,223.34121108055115,223.34121108055115,223.34121108055115,223.34121108055115,223.34121108055115,226.79019284248352,3,3.585021495819092,None,,,,,,,,,,,,,,,,,,196,1,2025-03-05_14h12.35.655,comp,2024.2.4,57.49331417942262,2025-03-05 14h12.44.602246 -0500,
57,57,0,filler_random,None,None,None,None,None,None,None,None,None,None,2,1.5093135833740234,None,,,,,0,0,0,0,0,57,57,150,226.80625343322754,,,,,,,,,,,,,,,,,,,,,,,,,,,,,,,,,,,,,,,,,,,,,,,,,,,,,,,,,,,,,,,,,,,,,,,,,,,,,,,,,106.91040161964102,76.9745389570277,121.03742092289657,191.59767485998304,98.15607502493893,132.36767290620378,2.2,2.22,-230,255,0,-256,258,-277,226.79191780090332,226.79199838638306,226.79506134986877,226.80625343322754,226.9581744670868,226.9581744670868,226.9581744670868,226.9581744670868,226.9581744670868,226.9581744670868,226.9581744670868,228.3249955177307,2,1.5093135833740234,None,,,,,,,,,,,,,,,,,,196,1,2025-03-05_14h12.35.655,comp,2024.2.4,57.49331417942262,2025-03-05 14h12.44.602246 -0500,
58,58,0,critical,dhw,35.0,3.0,lower,70.0,70.0,133.0,57.0,57.0,133.0,3,3.309875726699829,None,,,,,0,0,0,0,0,58,58,50,228.34075212478638,,,,,,,,,,,,,,,,,,,,,,,,,,,,,,,,,,,,,,,,,,,,,,,,,,,,,,,,,,,,,,,,,,,,,,,,,,,,,,,,,70.0,70.0,133.0,57.0,57.0,133.0,3.0,3.1,-160,272,0,-18,191,-277,228.32658648490906,228.32666945457458,228.330073595047,228.34075212478638,228.4951090812683,228.4951090812683,228.4951090812683,228.4951090812683,228.4951090812683,228.4951090812683,228.4951090812683,231.66092324256897,3,3.309875726699829,None,,,,,,,,,,,,,,,,,,196,1,2025-03-05_14h12.35.655,comp,2024.2.4,57.49331417942262,2025-03-05 14h12.44.602246 -0500,
59,59,0,filler_random,None,None,None,None,None,None,None,None,None,None,2,5.828162431716919,None,,,,,0,0,0,0,0,59,59,160,231.6785261631012,,,,,,,,,,,,,,,,,,,,,,,,,,,,,,,,,,,,,,,,,,,,,,,,,,,,,,,,,,,,,,,,,,,,,,,,,,,,,,,,,188.4200434051332,170.11159381945623,178.0560146013455,199.89108891649818,147.80567900104757,65.17424911057587,2.1,2.11,-281,258,0,250,229,-285,231.66299748420715,231.663081407547,231.6666715145111,231.6785261631012,231.8258490562439,231.8258490562439,231.8258490562439,231.8258490562439,231.8258490562439,231.8258490562439,231.8258490562439,237.51079559326172,2,5.828162431716919,None,,,,,,,,,,,,,,,,,,196,1,2025-03-05_14h12.35.655,comp,2024.2.4,57.49331417942262,2025-03-05 14h12.44.602246 -0500,
60,60,0,critical,hdw,20.0,2.1,upper,200.0,125.0,141.0,141.0,125.0,200.0,1,3.2126963138580322,None,,,,,0,0,0,0,0,60,60,47,237.52669167518616,,,,,,,,,,,,,,,,,,,,,,,,,,,,,,,,,,,,,,,,,,,,,,,,,,,,,,,,,,,,,,,,,,,,,,,,,,,,,,,,,200.0,125.0,141.0,141.0,125.0,200.0,2.1,2.12,-229,-276,0,-255,266,267,237.5123643875122,237.51244688034058,237.51590633392334,237.52669167518616,237.68366169929504,237.68366169929504,237.68366169929504,237.68366169929504,237.68366169929504,237.68366169929504,237.68366169929504,240.74443197250366,1,3.2126963138580322,None,,,,,,,,,,,,,,,,,,196,1,2025-03-05_14h12.35.655,comp,2024.2.4,57.49331417942262,2025-03-05 14h12.44.602246 -0500,
61,61,0,critical,whd,35.0,2.1,lower,57.0,133.0,133.0,57.0,70.0,70.0,1,5.2108154296875,None,,,,,0,0,0,0,0,61,61,12,240.760027885437,,,,,,,,,,,,,,,,,,,,,,,,,,,,,,,,,,,,,,,,,,,,,,,,,,,,,,,,,,,,,,,,,,,,,,,,,,,,,,,,,57.0,133.0,133.0,57.0,70.0,70.0,2.1,2.11,-191,288,0,260,160,-264,240.74593925476074,240.74602007865906,240.74902939796448,240.760027885437,240.91642332077026,240.91642332077026,240.91642332077026,240.91642332077026,240.91642332077026,240.91642332077026,240.91642332077026,245.99050402641296,1,5.2108154296875,None,,,,,,,,,,,,,,,,,,196,1,2025-03-05_14h12.35.655,comp,2024.2.4,57.49331417942262,2025-03-05 14h12.44.602246 -0500,
62,62,0,filler_random,None,None,None,None,None,None,None,None,None,None,2,1.616436243057251,None,,,,,0,0,0,0,0,62,62,148,246.01035904884338,,,,,,,,,,,,,,,,,,,,,,,,,,,,,,,,,,,,,,,,,,,,,,,,,,,,,,,,,,,,,,,,,,,,,,,,,,,,,,,,,59.05732086448366,118.46806979508509,136.70941420956973,158.333115559523,119.74814553831386,151.80324018925722,4.0,4.2,-234,6,0,-259,251,17,245.9922070503235,245.9922878742218,245.99511575698853,246.01035904884338,246.14857840538025,246.14857840538025,246.14857840538025,246.14857840538025,246.14857840538025,246.14857840538025,246.14857840538025,247.63715195655823,2,1.616436243057251,None,,,,,,,,,,,,,,,,,,196,1,2025-03-05_14h12.35.655,comp,2024.2.4,57.49331417942262,2025-03-05 14h12.44.602246 -0500,
63,63,0,critical,whd,35.0,4.0,lower,57.0,133.0,133.0,57.0,70.0,70.0,1,3.0454771518707275,None,,,,,0,0,0,0,0,63,63,88,247.6533224582672,,,,,,,,,,,,,,,,,,,,,,,,,,,,,,,,,,,,,,,,,,,,,,,,,,,,,,,,,,,,,,,,,,,,,,,,,,,,,,,,,57.0,133.0,133.0,57.0,70.0,70.0,4.0,4.2,-191,-20,0,-264,160,3,247.6386604309082,247.63874220848083,247.64158701896667,247.6533224582672,247.79633903503418,247.79633903503418,247.79633903503418,247.79633903503418,247.79633903503418,247.79633903503418,247.79633903503418,250.71487545967102,1,3.0454771518707275,None,,,,,,,,,,,,,,,,,,196,1,2025-03-05_14h12.35.655,comp,2024.2.4,57.49331417942262,2025-03-05 14h12.44.602246 -0500,
64,64,0,filler_random,None,None,None,None,None,None,None,None,None,None,3,2.855600357055664,None,,,,,0,0,0,0,0,64,64,147,250.7311704158783,,,,,,,,,,,,,,,,,,,,,,,,,,,,,,,,,,,,,,,,,,,,,,,,,,,,,,,,,,,,,,,,,,,,,,,,,,,,,,,,,188.14869707572612,74.67680680086026,73.84994723559818,61.54737507089072,196.34431925679382,67.65904047158554,3.0,3.1,-164,271,0,-12,161,-279,250.71667408943176,250.71675419807434,250.72081065177917,250.7311704158783,250.8869423866272,250.8869423866272,250.8869423866272,250.8869423866272,250.8869423866272,250.8869423866272,250.8869423866272,253.59858655929565,3,2.855600357055664,None,,,,,,,,,,,,,,,,,,196,1,2025-03-05_14h12.35.655,comp,2024.2.4,57.49331417942262,2025-03-05 14h12.44.602246 -0500,
65,65,0,catch,None,None,None,None,None,None,None,None,None,None,3,1.663717269897461,None,,,,,0,0,0,0,0,65,65,120,253.61918663978577,,,,,,,,,,,,,,,,,,,,,,,,,,,,,,,,,,,,,,,,,,,,,,,,,,,,,,,,,,,,,,,,,,,,,,,,,,,,,,,,,128,62,106,84,151,174,2.2,2.21,-169,-258,0,285,225,258,253.60059142112732,253.60067462921143,253.60383796691895,253.61918663978577,253.76542830467224,253.76542830467224,253.76542830467224,253.76542830467224,253.76542830467224,253.76542830467224,253.76542830467224,255.29987263679504,3,1.663717269897461,None,,,,,,,,,,,,,,,,,,196,1,2025-03-05_14h12.35.655,comp,2024.2.4,57.49331417942262,2025-03-05 14h12.44.602246 -0500,
66,66,0,filler_random,None,None,None,None,None,None,None,None,None,None,1,1.9423751831054688,None,,,,,0,0,0,0,0,66,66,138,255.3163764476776,,,,,,,,,,,,,,,,,,,,,,,,,,,,,,,,,,,,,,,,,,,,,,,,,,,,,,,,,,,,,,,,,,,,,,,,,,,,,,,,,147.75254171511642,193.8650667714477,57.67929834488443,99.69265324421227,155.3673289701535,62.03132913780713,1.0,1.3,237,-264,480,-276,657,-266,255.30164289474487,255.30176830291748,255.30514478683472,255.3163764476776,255.4656536579132,255.4656536579132,255.4656536579132,255.4656536579132,255.4656536579132,255.4656536579132,255.4656536579132,257.2760081291199,1,1.9423751831054688,None,,,,,,,,,,,,,,,,,,196,1,2025-03-05_14h12.35.655,comp,2024.2.4,57.49331417942262,2025-03-05 14h12.44.602246 -0500,
67,67,0,critical,hdw,35.0,4.0,upper,200.0,125.0,127.0,127.0,125.0,200.0,3,1.3574471473693848,None,,,,,0,0,0,0,0,67,67,113,257.2932639122009,,,,,,,,,,,,,,,,,,,,,,,,,,,,,,,,,,,,,,,,,,,,,,,,,,,,,,,,,,,,,,,,,,,,,,,,,,,,,,,,,200.0,125.0,127.0,127.0,125.0,200.0,4.0,4.2,-222,-18,0,-274,260,17,257.277583360672,257.27766156196594,257.2805292606354,257.2932639122009,257.43287420272827,257.43287420272827,257.43287420272827,257.43287420272827,257.43287420272827,257.43287420272827,257.43287420272827,258.6651613712311,3,1.3574471473693848,None,,,,,,,,,,,,,,,,,,196,1,2025-03-05_14h12.35.655,comp,2024.2.4,57.49331417942262,2025-03-05 14h12.44.602246 -0500,
68,68,0,filler_random,None,None,None,None,None,None,None,None,None,None,2,1.9140019416809082,None,,,,,0,0,0,0,0,68,68,134,258.6809449195862,,,,,,,,,,,,,,,,,,,,,,,,,,,,,,,,,,,,,,,,,,,,,,,,,,,,,,,,,,,,,,,,,,,,,,,,,,,,,,,,,67.3590953634773,145.51407098525294,187.52987357776357,121.00783184912643,93.91137230435885,164.91210826711568,1.0,1.1,-709,282,-480,274,-241,289,258.66711688041687,258.6672043800354,258.67046451568604,258.6809449195862,258.8320372104645,258.8320372104645,258.8320372104645,258.8320372104645,258.8320372104645,258.8320372104645,258.8320372104645,260.6129913330078,2,1.9140019416809082,None,,,,,,,,,,,,,,,,,,196,1,2025-03-05_14h12.35.655,comp,2024.2.4,57.49331417942262,2025-03-05 14h12.44.602246 -0500,
69,69,0,critical,whd,35.0,3.0,upper,125.0,200.0,200.0,125.0,127.0,127.0,1,3.084974765777588,None,,,,,0,0,0,0,0,69,69,87,260.6301429271698,,,,,,,,,,,,,,,,,,,,,,,,,,,,,,,,,,,,,,,,,,,,,,,,,,,,,,,,,,,,,,,,,,,,,,,,,,,,,,,,,125.0,200.0,200.0,125.0,127.0,127.0,3.0,3.1,-258,279,0,7,222,-273,260.6145513057709,260.6146309375763,260.61746311187744,260.6301429271698,260.7683861255646,260.7683861255646,260.7683861255646,260.7683861255646,260.7683861255646,260.7683861255646,260.7683861255646,263.719446182251,1,3.084974765777588,None,,,,,,,,,,,,,,,,,,196,1,2025-03-05_14h12.35.655,comp,2024.2.4,57.49331417942262,2025-03-05 14h12.44.602246 -0500,
70,70,0,filler_square,None,None,None,None,None,None,None,None,None,None,2,0.9310669898986816,None,,,,,0,0,0,0,0,70,70,202,263.73624205589294,,,,,,,,,,,,,,,,,,,,,,,,,,,,,,,,,,,,,,,,,,,,,,,,,,,,,,,,,,,,,,,,,,,,,,,,,,,,,,,,,194.1835913390133,71.13743235530625,196.62682620465915,196.62682620465915,188.1652018542669,61.50351194310077,1.0,1.1,-710,251,-480,251,-255,254,263.7213122844696,263.72139739990234,263.72541332244873,263.73624205589294,263.88639092445374,263.88639092445374,263.88639092445374,263.88639092445374,263.88639092445374,263.88639092445374,263.88639092445374,264.67574095726013,2,0.9310669898986816,None,,,,,,,,,,,,,,,,,,196,1,2025-03-05_14h12.35.655,comp,2024.2.4,57.49331417942262,2025-03-05 14h12.44.602246 -0500,
71,71,0,filler_random,None,None,None,None,None,None,None,None,None,None,2,1.8471949100494385,None,,,,,0,0,0,0,0,71,71,136,264.691682100296,,,,,,,,,,,,,,,,,,,,,,,,,,,,,,,,,,,,,,,,,,,,,,,,,,,,,,,,,,,,,,,,,,,,,,,,,,,,,,,,,68.16764063645454,183.84535243931077,175.1274409687689,102.43108780105314,96.69674711660466,96.15509837450372,2.1,2.11,-239,277,0,254,195,-251,264.67746567726135,264.67754578590393,264.68041253089905,264.691682100296,264.8368320465088,264.8368320465088,264.8368320465088,264.8368320465088,264.8368320465088,264.8368320465088,264.8368320465088,266.5565838813782,2,1.8471949100494385,None,,,,,,,,,,,,,,,,,,196,1,2025-03-05_14h12.35.655,comp,2024.2.4,57.49331417942262,2025-03-05 14h12.44.602246 -0500,
72,72,0,critical,dwh,20.0,1.0,lower,78.0,78.0,57.0,133.0,133.0,57.0,2,2.0399863719940186,None,,,,,0,0,0,0,0,72,72,66,266.57158041000366,,,,,,,,,,,,,,,,,,,,,,,,,,,,,,,,,,,,,,,,,,,,,,,,,,,,,,,,,,,,,,,,,,,,,,,,,,,,,,,,,78.0,78.0,57.0,133.0,133.0,57.0,1.0,1.2,-202,-11,0,16,191,13,266.5582389831543,266.5583209991455,266.56128430366516,266.57158041000366,266.727561712265,266.727561712265,266.727561712265,266.727561712265,266.727561712265,266.727561712265,266.727561712265,268.62097549438477,2,2.0399863719940186,None,,,,,,,,,,,,,,,,,,196,1,2025-03-05_14h12.35.655,comp,2024.2.4,57.49331417942262,2025-03-05 14h12.44.602246 -0500,
73,73,0,filler_square,None,None,None,None,None,None,None,None,None,None,2,1.1983299255371094,None,,,,,0,0,0,0,0,73,73,194,268.63725304603577,,,,,,,,,,,,,,,,,,,,,,,,,,,,,,,,,,,,,,,,,,,,,,,,,,,,,,,,,,,,,,,,,,,,,,,,,,,,,,,,,103.42041805303276,126.28867685588068,140.5658593504977,140.5658593504977,98.77102460654885,67.17173224868526,2.2,2.21,-229,-273,0,277,200,264,268.6228566169739,268.6229393482208,268.62635803222656,268.63725304603577,268.7852237224579,268.7852237224579,268.7852237224579,268.7852237224579,268.7852237224579,268.7852237224579,268.7852237224579,269.84236335754395,2,1.1983299255371094,None,,,,,,,,,,,,,,,,,,196,1,2025-03-05_14h12.35.655,comp,2024.2.4,57.49331417942262,2025-03-05 14h12.44.602246 -0500,
74,74,0,critical,hdw,35.0,2.1,lower,133.0,57.0,70.0,70.0,57.0,133.0,1,2.376293420791626,None,,,,,0,0,0,0,0,74,74,20,269.8586494922638,,,,,,,,,,,,,,,,,,,,,,,,,,,,,,,,,,,,,,,,,,,,,,,,,,,,,,,,,,,,,,,,,,,,,,,,,,,,,,,,,133.0,57.0,70.0,70.0,57.0,133.0,2.1,2.12,-160,-259,0,-260,198,280,269.8440408706665,269.8441882133484,269.84769439697266,269.8586494922638,270.00475311279297,270.00475311279297,270.00475311279297,270.00475311279297,270.00475311279297,270.00475311279297,270.00475311279297,272.253298997879,1,2.376293420791626,None,,,,,,,,,,,,,,,,,,196,1,2025-03-05_14h12.35.655,comp,2024.2.4,57.49331417942262,2025-03-05 14h12.44.602246 -0500,
75,75,0,critical,dwh,20.0,4.0,upper,141.0,141.0,125.0,200.0,200.0,125.0,3,1.939864158630371,None,,,,,0,0,0,0,0,75,75,71,272.27139043807983,,,,,,,,,,,,,,,,,,,,,,,,,,,,,,,,,,,,,,,,,,,,,,,,,,,,,,,,,,,,,,,,,,,,,,,,,,,,,,,,,141.0,141.0,125.0,200.0,200.0,125.0,4.0,4.1,-266,-272,0,4,258,-262,272.2548270225525,272.25490641593933,272.257746219635,272.27139043807983,272.41916584968567,272.41916584968567,272.41916584968567,272.41916584968567,272.41916584968567,272.41916584968567,272.41916584968567,274.2227370738983,3,1.939864158630371,None,,,,,,,,,,,,,,,,,,196,1,2025-03-05_14h12.35.655,comp,2024.2.4,57.49331417942262,2025-03-05 14h12.44.602246 -0500,
76,76,0,filler_random,None,None,None,None,None,None,None,None,None,None,2,1.2448670864105225,None,,,,,0,0,0,0,0,76,76,168,274.23871994018555,,,,,,,,,,,,,,,,,,,,,,,,,,,,,,,,,,,,,,,,,,,,,,,,,,,,,,,,,,,,,,,,,,,,,,,,,,,,,,,,,108.54944835364961,101.42869268811206,183.932945582772,191.47395891024846,74.79528003799638,58.12921853120725,2.1,2.12,-242,-256,0,-261,221,252,274.2244918346405,274.2245752811432,274.2278711795807,274.23871994018555,274.3863036632538,274.3863036632538,274.3863036632538,274.3863036632538,274.3863036632538,274.3863036632538,274.3863036632538,275.4909119606018,2,1.2448670864105225,None,,,,,,,,,,,,,,,,,,196,1,2025-03-05_14h12.35.655,comp,2024.2.4,57.49331417942262,2025-03-05 14h12.44.602246 -0500,
77,77,0,critical,dhw,35.0,3.0,upper,127.0,127.0,200.0,125.0,125.0,200.0,3,1.6643145084381104,None,,,,,0,0,0,0,0,77,77,51,275.50723338127136,,,,,,,,,,,,,,,,,,,,,,,,,,,,,,,,,,,,,,,,,,,,,,,,,,,,,,,,,,,,,,,,,,,,,,,,,,,,,,,,,127.0,127.0,200.0,125.0,125.0,200.0,3.0,3.2,-222,-260,0,15,258,252,275.49259066581726,275.49272441864014,275.4963073730469,275.50723338127136,275.6563801765442,275.6563801765442,275.6563801765442,275.6563801765442,275.6563801765442,275.6563801765442,275.6563801765442,277.1808531284332,3,1.6643145084381104,None,,,,,,,,,,,,,,,,,,196,1,2025-03-05_14h12.35.655,comp,2024.2.4,57.49331417942262,2025-03-05 14h12.44.602246 -0500,
78,78,0,filler_square,None,None,None,None,None,None,None,None,None,None,2,2.1192781925201416,None,,,,,0,0,0,0,0,78,78,200,277.1964735984802,,,,,,,,,,,,,,,,,,,,,,,,,,,,,,,,,,,,,,,,,,,,,,,,,,,,,,,,,,,,,,,,,,,,,,,,,,,,,,,,,91.31743830462061,98.82413539628733,99.34207982883423,99.34207982883423,76.35775841713807,87.18795087871464,3.0,3.1,-195,286,0,-5,189,-253,277.182656288147,277.18273663520813,277.18560099601746,277.1964735984802,277.33927726745605,277.33927726745605,277.33927726745605,277.33927726745605,277.33927726745605,277.33927726745605,277.33927726745605,279.3234353065491,2,2.1192781925201416,None,,,,,,,,,,,,,,,,,,196,1,2025-03-05_14h12.35.655,comp,2024.2.4,57.49331417942262,2025-03-05 14h12.44.602246 -0500,
79,79,0,filler_random,None,None,None,None,None,None,None,None,None,None,1,3.418116807937622,None,,,,,0,0,0,0,0,79,79,162,279.34465980529785,,,,,,,,,,,,,,,,,,,,,,,,,,,,,,,,,,,,,,,,,,,,,,,,,,,,,,,,,,,,,,,,,,,,,,,,,,,,,,,,,119.82588989442459,153.69566044817924,140.31089799706217,107.317599140662,90.6627292718465,162.02405237758825,1.0,1.1,-707,267,-480,263,-249,283,279.3253037929535,279.3254442214966,279.32886242866516,279.34465980529785,279.4904263019562,279.4904263019562,279.4904263019562,279.4904263019562,279.4904263019562,279.4904263019562,279.4904263019562,282.7752432823181,1,3.418116807937622,None,,,,,,,,,,,,,,,,,,196,1,2025-03-05_14h12.35.655,comp,2024.2.4,57.49331417942262,2025-03-05 14h12.44.602246 -0500,
80,80,0,filler_square,None,None,None,None,None,None,None,None,None,None,1,0.9551312923431396,None,,,,,0,0,0,0,0,80,80,208,282.7915861606598,,,,,,,,,,,,,,,,,,,,,,,,,,,,,,,,,,,,,,,,,,,,,,,,,,,,,,,,,,,,,,,,,,,,,,,,,,,,,,,,,79.10601073107875,79.10601073107875,57.91487384714628,57.32396592081638,61.95165723574767,59.039212271756185,1.0,1.1,-644,274,-480,263,-326,255,282.7771191596985,282.7772014141083,282.7803599834442,282.7915861606598,282.944308757782,282.944308757782,282.944308757782,282.944308757782,282.944308757782,282.944308757782,282.944308757782,283.7641177177429,1,0.9551312923431396,None,,,,,,,,,,,,,,,,,,196,1,2025-03-05_14h12.35.655,comp,2024.2.4,57.49331417942262,2025-03-05 14h12.44.602246 -0500,
81,81,0,filler_square,None,None,None,None,None,None,None,None,None,None,1,1.052919626235962,None,,,,,0,0,0,0,0,81,81,173,283.7818536758423,,,,,,,,,,,,,,,,,,,,,,,,,,,,,,,,,,,,,,,,,,,,,,,,,,,,,,,,,,,,,,,,,,,,,,,,,,,,,,,,,136.30876074557915,136.30876074557915,134.81900760230633,99.43087104720672,117.90367368697196,84.1314442699726,1.0,1.1,-694,258,-480,273,-292,280,283.76606607437134,283.76619029045105,283.7691979408264,283.7818536758423,283.92556595802307,283.92556595802307,283.92556595802307,283.92556595802307,283.92556595802307,283.92556595802307,283.92556595802307,284.8505473136902,1,1.052919626235962,None,,,,,,,,,,,,,,,,,,196,1,2025-03-05_14h12.35.655,comp,2024.2.4,57.49331417942262,2025-03-05 14h12.44.602246 -0500,
82,82,0,critical,wdh,20.0,2.1,lower,57.0,133.0,78.0,78.0,133.0,57.0,1,1.6721913814544678,None,,,,,0,0,0,0,0,82,82,10,284.86696434020996,,,,,,,,,,,,,,,,,,,,,,,,,,,,,,,,,,,,,,,,,,,,,,,,,,,,,,,,,,,,,,,,,,,,,,,,,,,,,,,,,57.0,133.0,78.0,78.0,133.0,57.0,2.1,2.12,-202,-269,0,-265,164,284,284.85218691825867,284.85230827331543,284.8555989265442,284.86696434020996,285.0121998786926,285.0121998786926,285.0121998786926,285.0121998786926,285.0121998786926,285.0121998786926,285.0121998786926,286.54539465904236,1,1.6721913814544678,None,,,,,,,,,,,,,,,,,,196,1,2025-03-05_14h12.35.655,comp,2024.2.4,57.49331417942262,2025-03-05 14h12.44.602246 -0500,
83,83,0,critical,whd,35.0,2.1,upper,125.0,200.0,200.0,125.0,127.0,127.0,2,4.637383699417114,None,,,,,0,0,0,0,0,83,83,13,286.5655164718628,,,,,,,,,,,,,,,,,,,,,,,,,,,,,,,,,,,,,,,,,,,,,,,,,,,,,,,,,,,,,,,,,,,,,,,,,,,,,,,,,125.0,200.0,200.0,125.0,127.0,127.0,2.1,2.12,-258,-284,0,-273,222,279,286.5472939014435,286.5473983287811,286.5506794452667,286.5655164718628,286.71252059936523,286.71252059936523,286.71252059936523,286.71252059936523,286.71252059936523,286.71252059936523,286.71252059936523,291.2159321308136,2,4.637383699417114,None,,,,,,,,,,,,,,,,,,196,1,2025-03-05_14h12.35.655,comp,2024.2.4,57.49331417942262,2025-03-05 14h12.44.602246 -0500,
84,84,0,filler_square,None,None,None,None,None,None,None,None,None,None,3,1.3635709285736084,None,,,,,0,0,0,0,0,84,84,178,291.23180413246155,,,,,,,,,,,,,,,,,,,,,,,,,,,,,,,,,,,,,,,,,,,,,,,,,,,,,,,,,,,,,,,,,,,,,,,,,,,,,,,,,71.1974597611696,92.59070172390462,127.38953153173199,87.62802337936117,128.5720824576698,128.5720824576698,3.0,3.1,-186,254,0,11,204,-288,291.2177081108093,291.21778869628906,291.22063994407654,291.23180413246155,291.3778998851776,291.3778998851776,291.3778998851776,291.3778998851776,291.3778998851776,291.3778998851776,291.3778998851776,292.604150056839,3,1.3635709285736084,None,,,,,,,,,,,,,,,,,,196,1,2025-03-05_14h12.35.655,comp,2024.2.4,57.49331417942262,2025-03-05 14h12.44.602246 -0500,
85,85,0,critical,dwh,20.0,2.1,lower,78.0,78.0,57.0,133.0,133.0,57.0,2,2.118581771850586,None,,,,,0,0,0,0,0,85,85,6,292.62105989456177,,,,,,,,,,,,,,,,,,,,,,,,,,,,,,,,,,,,,,,,,,,,,,,,,,,,,,,,,,,,,,,,,,,,,,,,,,,,,,,,,78.0,78.0,57.0,133.0,133.0,57.0,2.1,2.12,-202,-289,0,-260,191,261,292.60571455955505,292.60579919815063,292.60913705825806,292.62105989456177,292.76229071617126,292.76229071617126,292.76229071617126,292.76229071617126,292.76229071617126,292.76229071617126,292.76229071617126,294.7465796470642,2,2.118581771850586,None,,,,,,,,,,,,,,,,,,196,1,2025-03-05_14h12.35.655,comp,2024.2.4,57.49331417942262,2025-03-05 14h12.44.602246 -0500,
86,86,0,filler_square,None,None,None,None,None,None,None,None,None,None,3,4.120314836502075,None,,,,,0,0,0,0,0,86,86,176,294.7625644207001,,,,,,,,,,,,,,,,,,,,,,,,,,,,,,,,,,,,,,,,,,,,,,,,,,,,,,,,,,,,,,,,,,,,,,,,,,,,,,,,,58.75209801926782,58.75209801926782,58.06402872241589,58.520356515849684,57.434553622028645,57.121114657694086,4.0,4.1,-155,-270,0,15,154,-276,294.7484996318817,294.74858474731445,294.7517673969269,294.7625644207001,294.9125123023987,294.9125123023987,294.9125123023987,294.9125123023987,294.9125123023987,294.9125123023987,294.9125123023987,298.89473032951355,3,4.120314836502075,None,,,,,,,,,,,,,,,,,,196,1,2025-03-05_14h12.35.655,comp,2024.2.4,57.49331417942262,2025-03-05 14h12.44.602246 -0500,
87,87,0,filler_random,None,None,None,None,None,None,None,None,None,None,2,2.3967127799987793,None,,,,,0,0,0,0,0,87,87,165,298.9108819961548,,,,,,,,,,,,,,,,,,,,,,,,,,,,,,,,,,,,,,,,,,,,,,,,,,,,,,,,,,,,,,,,,,,,,,,,,,,,,,,,,120.92259931894543,178.37324848263256,196.13454327688726,111.63450413653771,97.72545288579042,123.43083032325313,2.1,2.11,-241,267,0,262,214,-273,298.8964865207672,298.8965651988983,298.8994219303131,298.9108819961548,299.0623610019684,299.0623610019684,299.0623610019684,299.0623610019684,299.0623610019684,299.0623610019684,299.0623610019684,301.3167555332184,2,2.3967127799987793,None,,,,,,,,,,,,,,,,,,196,1,2025-03-05_14h12.35.655,comp,2024.2.4,57.49331417942262,2025-03-05 14h12.44.602246 -0500,
88,88,0,critical,hwd,20.0,1.0,lower,133.0,57.0,57.0,133.0,78.0,78.0,2,2.982217311859131,None,,,,,0,0,0,0,0,88,88,102,301.33267855644226,,,,,,,,,,,,,,,,,,,,,,,,,,,,,,,,,,,,,,,,,,,,,,,,,,,,,,,,,,,,,,,,,,,,,,,,,,,,,,,,,133.0,57.0,57.0,133.0,78.0,78.0,1.0,1.2,-191,-17,0,-19,202,11,301.3184485435486,301.31852984428406,301.3215711116791,301.33267855644226,301.4824068546295,301.4824068546295,301.4824068546295,301.4824068546295,301.4824068546295,301.4824068546295,301.4824068546295,304.3306214809418,2,2.982217311859131,None,,,,,,,,,,,,,,,,,,196,1,2025-03-05_14h12.35.655,comp,2024.2.4,57.49331417942262,2025-03-05 14h12.44.602246 -0500,
89,89,0,critical,whd,35.0,2.1,upper,125.0,200.0,200.0,125.0,127.0,127.0,2,2.457822561264038,None,,,,,0,0,0,0,0,89,89,37,304.34598684310913,,,,,,,,,,,,,,,,,,,,,,,,,,,,,,,,,,,,,,,,,,,,,,,,,,,,,,,,,,,,,,,,,,,,,,,,,,,,,,,,,125.0,200.0,200.0,125.0,127.0,127.0,2.1,2.11,-258,255,0,255,222,-280,304.33217215538025,304.3322522640228,304.33535981178284,304.34598684310913,304.4877953529358,304.4877953529358,304.4877953529358,304.4877953529358,304.4877953529358,304.4877953529358,304.4877953529358,306.8116111755371,2,2.457822561264038,None,,,,,,,,,,,,,,,,,,196,1,2025-03-05_14h12.35.655,comp,2024.2.4,57.49331417942262,2025-03-05 14h12.44.602246 -0500,
90,90,0,critical,wdh,35.0,2.1,lower,57.0,133.0,70.0,70.0,133.0,57.0,3,3.6720128059387207,None,,,,,0,0,0,0,0,90,90,8,306.8275535106659,,,,,,,,,,,,,,,,,,,,,,,,,,,,,,,,,,,,,,,,,,,,,,,,,,,,,,,,,,,,,,,,,,,,,,,,,,,,,,,,,57.0,133.0,70.0,70.0,133.0,57.0,2.1,2.11,-198,276,0,258,160,-282,306.81324100494385,306.81332325935364,306.81625151634216,306.8275535106659,306.96475768089294,306.96475768089294,306.96475768089294,306.96475768089294,306.96475768089294,306.96475768089294,306.96475768089294,310.507896900177,3,3.6720128059387207,None,,,,,,,,,,,,,,,,,,196,1,2025-03-05_14h12.35.655,comp,2024.2.4,57.49331417942262,2025-03-05 14h12.44.602246 -0500,
91,91,0,critical,hwd,20.0,4.0,lower,133.0,57.0,57.0,133.0,78.0,78.0,1,2.1400258541107178,None,,,,,0,0,0,0,0,91,91,106,310.52693581581116,,,,,,,,,,,,,,,,,,,,,,,,,,,,,,,,,,,,,,,,,,,,,,,,,,,,,,,,,,,,,,,,,,,,,,,,,,,,,,,,,133.0,57.0,57.0,133.0,78.0,78.0,4.0,4.1,-191,-279,0,-3,202,-275,310.5094184875488,310.5095000267029,310.5123426914215,310.52693581581116,310.66783571243286,310.66783571243286,310.66783571243286,310.66783571243286,310.66783571243286,310.66783571243286,310.66783571243286,312.6840031147003,1,2.1400258541107178,None,,,,,,,,,,,,,,,,,,196,1,2025-03-05_14h12.35.655,comp,2024.2.4,57.49331417942262,2025-03-05 14h12.44.602246 -0500,
92,92,0,filler_square,None,None,None,None,None,None,None,None,None,None,2,0.9267382621765137,None,,,,,0,0,0,0,0,92,92,181,312.70032358169556,,,,,,,,,,,,,,,,,,,,,,,,,,,,,,,,,,,,,,,,,,,,,,,,,,,,,,,,,,,,,,,,,,,,,,,,,,,,,,,,,73.1921274664833,131.46691257177832,176.89415400740552,176.89415400740552,152.9950506613469,86.34455758902703,4.0,4.2,-250,-16,0,-278,228,-10,312.6857535839081,312.685831785202,312.68899941444397,312.70032358169556,312.8519289493561,312.8519289493561,312.8519289493561,312.8519289493561,312.8519289493561,312.8519289493561,312.8519289493561,313.6376721858978,2,0.9267382621765137,None,,,,,,,,,,,,,,,,,,196,1,2025-03-05_14h12.35.655,comp,2024.2.4,57.49331417942262,2025-03-05 14h12.44.602246 -0500,
93,93,0,filler_square,None,None,None,None,None,None,None,None,None,None,2,1.4541423320770264,None,,,,,0,0,0,0,0,93,93,179,313.6543414592743,,,,,,,,,,,,,,,,,,,,,,,,,,,,,,,,,,,,,,,,,,,,,,,,,,,,,,,,,,,,,,,,,,,,,,,,,,,,,,,,,137.53919335064262,141.40349886787152,143.7895521050673,143.7895521050673,76.44580767723184,107.40561421471514,2.1,2.11,-239,265,0,282,222,-265,313.63979506492615,313.6398780345917,313.64277505874634,313.6543414592743,313.80261993408203,313.80261993408203,313.80261993408203,313.80261993408203,313.80261993408203,313.80261993408203,313.80261993408203,315.11967945098877,2,1.4541423320770264,None,,,,,,,,,,,,,,,,,,196,1,2025-03-05_14h12.35.655,comp,2024.2.4,57.49331417942262,2025-03-05 14h12.44.602246 -0500,
94,94,0,filler_random,None,None,None,None,None,None,None,None,None,None,2,1.1470744609832764,None,,,,,0,0,0,0,0,94,94,133,315.13615369796753,,,,,,,,,,,,,,,,,,,,,,,,,,,,,,,,,,,,,,,,,,,,,,,,,,,,,,,,,,,,,,,,,,,,,,,,,,,,,,,,,105.73634625821381,72.33951363009474,133.81129082146188,132.90542269756781,93.30390063608337,58.282424285051796,4.0,4.2,-199,-2,0,-275,192,4,315.1217224597931,315.1218104362488,315.12520694732666,315.13615369796753,315.2847549915314,315.2847549915314,315.2847549915314,315.2847549915314,315.2847549915314,315.2847549915314,315.2847549915314,316.3024570941925,2,1.1470744609832764,None,,,,,,,,,,,,,,,,,,196,1,2025-03-05_14h12.35.655,comp,2024.2.4,57.49331417942262,2025-03-05 14h12.44.602246 -0500,
95,95,0,critical,dwh,35.0,4.0,upper,127.0,127.0,125.0,200.0,200.0,125.0,3,2.9070794582366943,None,,,,,0,0,0,0,0,95,95,65,316.3197429180145,,,,,,,,,,,,,,,,,,,,,,,,,,,,,,,,,,,,,,,,,,,,,,,,,,,,,,,,,,,,,,,,,,,,,,,,,,,,,,,,,127.0,127.0,125.0,200.0,200.0,125.0,4.0,4.1,-260,-282,0,-20,258,-273,316.30392575263977,316.3040053844452,316.307026386261,316.3197429180145,316.46914935112,316.46914935112,316.46914935112,316.46914935112,316.46914935112,316.46914935112,316.46914935112,319.2410714626312,3,2.9070794582366943,None,,,,,,,,,,,,,,,,,,196,1,2025-03-05_14h12.35.655,comp,2024.2.4,57.49331417942262,2025-03-05 14h12.44.602246 -0500,
96,96,0,filler_random,None,None,None,None,None,None,None,None,None,None,1,1.3503522872924805,None,,,,,0,0,0,0,0,96,96,167,319.2604899406433,,,,,,,,,,,,,,,,,,,,,,,,,,,,,,,,,,,,,,,,,,,,,,,,,,,,,,,,,,,,,,,,,,,,,,,,,,,,,,,,,119.99118938933691,160.66427435949743,57.7140036536146,145.29274601277478,62.08814148071159,134.71659005180211,2.1,2.12,-249,-276,0,-281,236,253,319.2429735660553,319.2430546283722,319.24625301361084,319.2604899406433,319.40413331985474,319.40413331985474,319.40413331985474,319.40413331985474,319.40413331985474,319.40413331985474,319.40413331985474,320.6203854084015,1,1.3503522872924805,None,,,,,,,,,,,,,,,,,,196,1,2025-03-05_14h12.35.655,comp,2024.2.4,57.49331417942262,2025-03-05 14h12.44.602246 -0500,
97,97,0,filler_square,None,None,None,None,None,None,None,None,None,None,1,1.3496901988983154,None,,,,,0,0,0,0,0,97,97,195,320.6372046470642,,,,,,,,,,,,,,,,,,,,,,,,,,,,,,,,,,,,,,,,,,,,,,,,,,,,,,,,,,,,,,,,,,,,,,,,,,,,,,,,,185.24223118146656,185.24223118146656,101.2284973603499,109.23894756861404,180.01163037986117,130.89826107561757,1.0,1.1,-723,281,-480,262,-264,281,320.62248277664185,320.62256693840027,320.62615633010864,320.6372046470642,320.79396891593933,320.79396891593933,320.79396891593933,320.79396891593933,320.79396891593933,320.79396891593933,320.79396891593933,322.0043041706085,1,1.3496901988983154,None,,,,,,,,,,,,,,,,,,196,1,2025-03-05_14h12.35.655,comp,2024.2.4,57.49331417942262,2025-03-05 14h12.44.602246 -0500,
98,98,0,critical,dhw,35.0,4.0,upper,127.0,127.0,200.0,125.0,125.0,200.0,2,2.6478254795074463,None,,,,,0,0,0,0,0,98,98,53,322.019024848938,,,,,,,,,,,,,,,,,,,,,,,,,,,,,,,,,,,,,,,,,,,,,,,,,,,,,,,,,,,,,,,,,,,,,,,,,,,,,,,,,127.0,127.0,200.0,125.0,125.0,200.0,4.0,4.2,-222,-4,0,-272,258,9,322.00595712661743,322.00607419013977,322.009503364563,322.019024848938,322.1720643043518,322.1720643043518,322.1720643043518,322.1720643043518,322.1720643043518,322.1720643043518,322.1720643043518,324.682252407074,2,2.6478254795074463,None,,,,,,,,,,,,,,,,,,196,1,2025-03-05_14h12.35.655,comp,2024.2.4,57.49331417942262,2025-03-05 14h12.44.602246 -0500,
99,99,0,critical,hdw,20.0,3.0,lower,133.0,57.0,78.0,78.0,57.0,133.0,3,1.7041800022125244,None,,,,,0,0,0,0,0,99,99,116,324.69954204559326,,,,,,,,,,,,,,,,,,,,,,,,,,,,,,,,,,,,,,,,,,,,,,,,,,,,,,,,,,,,,,,,,,,,,,,,,,,,,,,,,133.0,57.0,78.0,78.0,57.0,133.0,3.0,3.1,-164,286,0,15,202,-262,324.6838266849518,324.6839089393616,324.68681168556213,324.69954204559326,324.8382422924042,324.8382422924042,324.8382422924042,324.8382422924042,324.8382422924042,324.8382422924042,324.8382422924042,326.40782618522644,3,1.7041800022125244,None,,,,,,,,,,,,,,,,,,196,1,2025-03-05_14h12.35.655,comp,2024.2.4,57.49331417942262,2025-03-05 14h12.44.602246 -0500,
100,100,0,filler_random,None,None,None,None,None,None,None,None,None,None,3,1.8018383979797363,None,,,,,0,0,0,0,0,100,100,135,326.425311088562,,,,,,,,,,,,,,,,,,,,,,,,,,,,,,,,,,,,,,,,,,,,,,,,,,,,,,,,,,,,,,,,,,,,,,,,,,,,,,,,,169.41350621388523,63.011919216810284,99.86740884725437,126.87407464726783,134.84249544976012,105.68595232418411,2.2,2.22,-191,278,0,-265,212,-253,326.4099807739258,326.41012740135193,326.41352224349976,326.425311088562,326.57251739501953,326.57251739501953,326.57251739501953,326.57251739501953,326.57251739501953,326.57251739501953,326.57251739501953,328.23854899406433,3,1.8018383979797363,None,,,,,,,,,,,,,,,,,,196,1,2025-03-05_14h12.35.655,comp,2024.2.4,57.49331417942262,2025-03-05 14h12.44.602246 -0500,
101,101,0,critical,wdh,20.0,4.0,lower,57.0,133.0,78.0,78.0,133.0,57.0,3,1.9447367191314697,None,,,,,0,0,0,0,0,101,101,82,328.2591371536255,,,,,,,,,,,,,,,,,,,,,,,,,,,,,,,,,,,,,,,,,,,,,,,,,,,,,,,,,,,,,,,,,,,,,,,,,,,,,,,,,57.0,133.0,78.0,78.0,133.0,57.0,4.0,4.2,-202,1,0,-278,164,1,328.2402069568634,328.24032950401306,328.24376249313354,328.2591371536255,328.3939588069916,328.3939588069916,328.3939588069916,328.3939588069916,328.3939588069916,328.3939588069916,328.3939588069916,330.21072578430176,3,1.9447367191314697,None,,,,,,,,,,,,,,,,,,196,1,2025-03-05_14h12.35.655,comp,2024.2.4,57.49331417942262,2025-03-05 14h12.44.602246 -0500,
102,102,0,filler_random,None,None,None,None,None,None,None,None,None,None,2,1.2644634246826172,None,,,,,0,0,0,0,0,102,102,137,330.22700715065,,,,,,,,,,,,,,,,,,,,,,,,,,,,,,,,,,,,,,,,,,,,,,,,,,,,,,,,,,,,,,,,,,,,,,,,,,,,,,,,,119.66066235597111,69.28327301116872,152.35697044493645,174.19661665288584,117.04040179413502,104.032837629016,2.2,2.21,-218,-280,0,260,235,254,330.2127058506012,330.2128641605377,330.2161068916321,330.22700715065,330.3785049915314,330.3785049915314,330.3785049915314,330.3785049915314,330.3785049915314,330.3785049915314,330.3785049915314,331.4952836036682,2,1.2644634246826172,None,,,,,,,,,,,,,,,,,,196,1,2025-03-05_14h12.35.655,comp,2024.2.4,57.49331417942262,2025-03-05 14h12.44.602246 -0500,
103,103,0,catch,None,None,None,None,None,None,None,None,None,None,2,1.2263619899749756,None,,,,,0,0,0,0,0,103,103,126,331.5125632286072,,,,,,,,,,,,,,,,,,,,,,,,,,,,,,,,,,,,,,,,,,,,,,,,,,,,,,,,,,,,,,,,,,,,,,,,,,,,,,,,,119,71,182,143,70,120,1.0,1.2,-203,17,0,-12,228,-4,331.4973816871643,331.4974648952484,331.5007312297821,331.5125632286072,331.65538144111633,331.65538144111633,331.65538144111633,331.65538144111633,331.65538144111633,331.65538144111633,331.65538144111633,332.7417485713959,2,1.2263619899749756,None,,,,,,,,,,,,,,,,,,196,1,2025-03-05_14h12.35.655,comp,2024.2.4,57.49331417942262,2025-03-05 14h12.44.602246 -0500,
104,104,0,filler_random,None,None,None,None,None,None,None,None,None,None,2,1.981384515762329,None,,,,,0,0,0,0,0,104,104,156,332.7576847076416,,,,,,,,,,,,,,,,,,,,,,,,,,,,,,,,,,,,,,,,,,,,,,,,,,,,,,,,,,,,,,,,,,,,,,,,,,,,,,,,,197.2524434201772,70.90698094858888,185.6858984996078,131.93717077863585,158.78349252290053,187.47615737008698,4.0,4.2,-197,9,0,-278,256,7,332.7434718608856,332.7435519695282,332.74700808525085,332.7576847076416,332.9055516719818,332.9055516719818,332.9055516719818,332.9055516719818,332.9055516719818,332.9055516719818,332.9055516719818,334.7489125728607,2,1.981384515762329,None,,,,,,,,,,,,,,,,,,196,1,2025-03-05_14h12.35.655,comp,2024.2.4,57.49331417942262,2025-03-05 14h12.44.602246 -0500,
105,105,0,critical,dwh,35.0,2.1,upper,127.0,127.0,125.0,200.0,200.0,125.0,3,1.6386094093322754,None,,,,,0,0,0,0,0,105,105,29,334.76483726501465,,,,,,,,,,,,,,,,,,,,,,,,,,,,,,,,,,,,,,,,,,,,,,,,,,,,,,,,,,,,,,,,,,,,,,,,,,,,,,,,,127.0,127.0,125.0,200.0,200.0,125.0,2.1,2.11,-260,259,0,289,258,-257,334.7504913806915,334.75057101249695,334.75384759902954,334.76483726501465,334.90784668922424,334.90784668922424,334.90784668922424,334.90784668922424,334.90784668922424,334.90784668922424,334.90784668922424,336.4080743789673,3,1.6386094093322754,None,,,,,,,,,,,,,,,,,,196,1,2025-03-05_14h12.35.655,comp,2024.2.4,57.49331417942262,2025-03-05 14h12.44.602246 -0500,
106,106,0,critical,dwh,35.0,2.1,lower,70.0,70.0,57.0,133.0,133.0,57.0,2,2.898573875427246,None,,,,,0,0,0,0,0,106,106,4,336.42507123947144,,,,,,,,,,,,,,,,,,,,,,,,,,,,,,,,,,,,,,,,,,,,,,,,,,,,,,,,,,,,,,,,,,,,,,,,,,,,,,,,,70.0,70.0,57.0,133.0,133.0,57.0,2.1,2.12,-198,-282,0,-274,191,281,336.40963077545166,336.4097123146057,336.41323471069336,336.42507123947144,336.5832362174988,336.5832362174988,336.5832362174988,336.5832362174988,336.5832362174988,336.5832362174988,336.5832362174988,339.34568762779236,2,2.898573875427246,None,,,,,,,,,,,,,,,,,,196,1,2025-03-05_14h12.35.655,comp,2024.2.4,57.49331417942262,2025-03-05 14h12.44.602246 -0500,
107,107,0,critical,whd,35.0,1.0,upper,125.0,200.0,200.0,125.0,127.0,127.0,2,2.4954967498779297,None,,,,,0,0,0,0,0,107,107,85,339.36425280570984,,,,,,,,,,,,,,,,,,,,,,,,,,,,,,,,,,,,,,,,,,,,,,,,,,,,,,,,,,,,,,,,,,,,,,,,,,,,,,,,,125.0,200.0,200.0,125.0,127.0,127.0,1.0,1.1,-738,263,-480,270,-258,289,339.347451210022,339.3475329875946,339.35049295425415,339.36425280570984,339.5109829902649,339.5109829902649,339.5109829902649,339.5109829902649,339.5109829902649,339.5109829902649,339.5109829902649,341.86222887039185,2,2.4954967498779297,None,,,,,,,,,,,,,,,,,,196,1,2025-03-05_14h12.35.655,comp,2024.2.4,57.49331417942262,2025-03-05 14h12.44.602246 -0500,
108,108,0,catch,None,None,None,None,None,None,None,None,None,None,2,1.0847840309143066,None,,,,,0,0,0,0,0,108,108,121,341.8782813549042,,,,,,,,,,,,,,,,,,,,,,,,,,,,,,,,,,,,,,,,,,,,,,,,,,,,,,,,,,,,,,,,,,,,,,,,,,,,,,,,,104,86,195,130,106,84,1.0,1.1,-684,267,-480,256,-277,273,341.8643071651459,341.86439085006714,341.8674955368042,341.8782813549042,342.02669048309326,342.02669048309326,342.02669048309326,342.02669048309326,342.02669048309326,342.02669048309326,342.02669048309326,342.9787127971649,2,1.0847840309143066,None,,,,,,,,,,,,,,,,,,196,1,2025-03-05_14h12.35.655,comp,2024.2.4,57.49331417942262,2025-03-05 14h12.44.602246 -0500,
109,109,0,critical,hdw,20.0,2.1,lower,133.0,57.0,78.0,78.0,57.0,133.0,3,3.3357434272766113,None,,,,,0,0,0,0,0,109,109,22,342.9951870441437,,,,,,,,,,,,,,,,,,,,,,,,,,,,,,,,,,,,,,,,,,,,,,,,,,,,,,,,,,,,,,,,,,,,,,,,,,,,,,,,,133.0,57.0,78.0,78.0,57.0,133.0,2.1,2.11,-164,278,0,250,202,-262,342.9802498817444,342.9803698062897,342.98426246643066,342.9951870441437,343.14556217193604,343.14556217193604,343.14556217193604,343.14556217193604,343.14556217193604,343.14556217193604,343.14556217193604,346.34747338294983,3,3.3357434272766113,None,,,,,,,,,,,,,,,,,,196,1,2025-03-05_14h12.35.655,comp,2024.2.4,57.49331417942262,2025-03-05 14h12.44.602246 -0500,
110,110,0,catch,None,None,None,None,None,None,None,None,None,None,1,1.2556955814361572,None,,,,,0,0,0,0,0,110,110,122,346.36408281326294,,,,,,,,,,,,,,,,,,,,,,,,,,,,,,,,,,,,,,,,,,,,,,,,,,,,,,,,,,,,,,,,,,,,,,,,,,,,,,,,,162,163,76,114,132,58,2.2,2.21,-234,-283,0,270,182,277,346.349760055542,346.3498442173004,346.3534164428711,346.36408281326294,346.5135614871979,346.5135614871979,346.5135614871979,346.5135614871979,346.5135614871979,346.5135614871979,346.5135614871979,347.6311459541321,1,1.2556955814361572,None,,,,,,,,,,,,,,,,,,196,1,2025-03-05_14h12.35.655,comp,2024.2.4,57.49331417942262,2025-03-05 14h12.44.602246 -0500,
111,111,0,critical,wdh,35.0,3.0,lower,57.0,133.0,70.0,70.0,133.0,57.0,3,4.131614446640015,None,,,,,0,0,0,0,0,111,111,74,347.64760732650757,,,,,,,,,,,,,,,,,,,,,,,,,,,,,,,,,,,,,,,,,,,,,,,,,,,,,,,,,,,,,,,,,,,,,,,,,,,,,,,,,57.0,133.0,70.0,70.0,133.0,57.0,3.0,3.1,-198,263,0,13,160,-273,347.6327712535858,347.63285398483276,347.6367208957672,347.64760732650757,347.79996156692505,347.79996156692505,347.79996156692505,347.79996156692505,347.79996156692505,347.79996156692505,347.79996156692505,351.7816162109375,3,4.131614446640015,None,,,,,,,,,,,,,,,,,,196,1,2025-03-05_14h12.35.655,comp,2024.2.4,57.49331417942262,2025-03-05 14h12.44.602246 -0500,
112,112,0,filler_square,None,None,None,None,None,None,None,None,None,None,3,1.8937723636627197,None,,,,,0,0,0,0,0,112,112,171,351.7981746196747,,,,,,,,,,,,,,,,,,,,,,,,,,,,,,,,,,,,,,,,,,,,,,,,,,,,,,,,,,,,,,,,,,,,,,,,,,,,,,,,,97.08444704131023,80.22614043007005,96.53762699208494,84.70974527617535,105.44264286576602,105.44264286576602,4.0,4.1,-178,-277,0,14,191,-261,351.7833788394928,351.7835011482239,351.7864713668823,351.7981746196747,351.94750785827637,351.94750785827637,351.94750785827637,351.94750785827637,351.94750785827637,351.94750785827637,351.94750785827637,353.69557642936707,3,1.8937723636627197,None,,,,,,,,,,,,,,,,,,196,1,2025-03-05_14h12.35.655,comp,2024.2.4,57.49331417942262,2025-03-05 14h12.44.602246 -0500,
113,113,0,critical,hwd,35.0,1.0,upper,200.0,125.0,125.0,200.0,127.0,127.0,2,2.8838648796081543,None,,,,,0,0,0,0,0,113,113,97,353.71129536628723,,,,,,,,,,,,,,,,,,,,,,,,,,,,,,,,,,,,,,,,,,,,,,,,,,,,,,,,,,,,,,,,,,,,,,,,,,,,,,,,,200.0,125.0,125.0,200.0,127.0,127.0,1.0,1.2,-258,8,0,-6,260,0,353.69717931747437,353.69729018211365,353.7005829811096,353.71129536628723,353.8650450706482,353.8650450706482,353.8650450706482,353.8650450706482,353.8650450706482,353.8650450706482,353.8650450706482,356.61253929138184,2,2.8838648796081543,None,,,,,,,,,,,,,,,,,,196,1,2025-03-05_14h12.35.655,comp,2024.2.4,57.49331417942262,2025-03-05 14h12.44.602246 -0500,
114,114,0,filler_random,None,None,None,None,None,None,None,None,None,None,3,1.4824256896972656,None,,,,,0,0,0,0,0,114,114,163,356.6330418586731,,,,,,,,,,,,,,,,,,,,,,,,,,,,,,,,,,,,,,,,,,,,,,,,,,,,,,,,,,,,,,,,,,,,,,,,,,,,,,,,,160.9561831255832,128.8984108876963,84.2863602188134,149.12997450584442,151.987652288075,147.4459468205928,3.0,3.1,-235,273,0,-13,244,-256,356.6143090724945,356.6144483089447,356.6176745891571,356.6330418586731,356.76502895355225,356.76502895355225,356.76502895355225,356.76502895355225,356.76502895355225,356.76502895355225,356.76502895355225,358.119651556015,3,1.4824256896972656,None,,,,,,,,,,,,,,,,,,196,1,2025-03-05_14h12.35.655,comp,2024.2.4,57.49331417942262,2025-03-05 14h12.44.602246 -0500,
115,115,0,filler_random,None,None,None,None,None,None,None,None,None,None,2,3.618368148803711,None,,,,,0,0,0,0,0,115,115,146,358.13658332824707,,,,,,,,,,,,,,,,,,,,,,,,,,,,,,,,,,,,,,,,,,,,,,,,,,,,,,,,,,,,,,,,,,,,,,,,,,,,,,,,,124.48531861626687,182.42565568805304,196.2266661542456,146.1649851152015,146.64247972051015,145.51199104672338,4.0,4.2,-260,-2,0,-252,242,17,358.12165904045105,358.12174248695374,358.1249406337738,358.13658332824707,358.2829101085663,358.2829101085663,358.2829101085663,358.2829101085663,358.2829101085663,358.2829101085663,358.2829101085663,361.7657563686371,2,3.618368148803711,None,,,,,,,,,,,,,,,,,,196,1,2025-03-05_14h12.35.655,comp,2024.2.4,57.49331417942262,2025-03-05 14h12.44.602246 -0500,
116,116,0,filler_square,None,None,None,None,None,None,None,None,None,None,2,1.7727501392364502,None,,,,,0,0,0,0,0,116,116,190,361.78224539756775,,,,,,,,,,,,,,,,,,,,,,,,,,,,,,,,,,,,,,,,,,,,,,,,,,,,,,,,,,,,,,,,,,,,,,,,,,,,,,,,,83.81481303235192,95.98405431903245,120.3608952199815,120.3608952199815,57.66908908130607,72.3993601571645,4.0,4.1,-204,-279,0,-19,192,-274,361.76757431030273,361.76765608787537,361.77076172828674,361.78224539756775,361.93705534935,361.93705534935,361.93705534935,361.93705534935,361.93705534935,361.93705534935,361.93705534935,363.5663423538208,2,1.7727501392364502,None,,,,,,,,,,,,,,,,,,196,1,2025-03-05_14h12.35.655,comp,2024.2.4,57.49331417942262,2025-03-05 14h12.44.602246 -0500,
117,117,0,critical,hwd,35.0,3.0,upper,200.0,125.0,125.0,200.0,127.0,127.0,1,1.2975144386291504,None,,,,,0,0,0,0,0,117,117,99,363.586119890213,,,,,,,,,,,,,,,,,,,,,,,,,,,,,,,,,,,,,,,,,,,,,,,,,,,,,,,,,,,,,,,,,,,,,,,,,,,,,,,,,200.0,125.0,125.0,200.0,127.0,127.0,3.0,3.2,-258,-266,0,10,260,290,363.56787276268005,363.5679540634155,363.5711119174957,363.586119890213,363.73387598991394,363.73387598991394,363.73387598991394,363.73387598991394,363.73387598991394,363.73387598991394,363.73387598991394,364.90163469314575,1,1.2975144386291504,None,,,,,,,,,,,,,,,,,,196,1,2025-03-05_14h12.35.655,comp,2024.2.4,57.49331417942262,2025-03-05 14h12.44.602246 -0500,
118,118,0,critical,hdw,20.0,1.0,lower,133.0,57.0,78.0,78.0,57.0,133.0,3,2.224147319793701,None,,,,,0,0,0,0,0,118,118,114,364.9172856807709,,,,,,,,,,,,,,,,,,,,,,,,,,,,,,,,,,,,,,,,,,,,,,,,,,,,,,,,,,,,,,,,,,,,,,,,,,,,,,,,,133.0,57.0,78.0,78.0,57.0,133.0,1.0,1.2,-164,-7,0,18,202,-20,364.90326976776123,364.90338706970215,364.90691781044006,364.9172856807709,365.06772232055664,365.06772232055664,365.06772232055664,365.06772232055664,365.06772232055664,365.06772232055664,365.06772232055664,367.1531789302826,3,2.224147319793701,None,,,,,,,,,,,,,,,,,,196,1,2025-03-05_14h12.35.655,comp,2024.2.4,57.49331417942262,2025-03-05 14h12.44.602246 -0500,
119,119,0,critical,dwh,20.0,3.0,upper,141.0,141.0,125.0,200.0,200.0,125.0,2,1.2330880165100098,None,,,,,0,0,0,0,0,119,119,69,367.16996335983276,,,,,,,,,,,,,,,,,,,,,,,,,,,,,,,,,,,,,,,,,,,,,,,,,,,,,,,,,,,,,,,,,,,,,,,,,,,,,,,,,141.0,141.0,125.0,200.0,200.0,125.0,3.0,3.2,-266,-290,0,16,258,259,367.15475964546204,367.15484261512756,367.15824794769287,367.16996335983276,367.31840109825134,367.31840109825134,367.31840109825134,367.31840109825134,367.31840109825134,367.31840109825134,367.31840109825134,368.41860461235046,2,1.2330880165100098,None,,,,,,,,,,,,,,,,,,196,1,2025-03-05_14h12.35.655,comp,2024.2.4,57.49331417942262,2025-03-05 14h12.44.602246 -0500,
120,120,0,critical,dhw,20.0,4.0,lower,78.0,78.0,133.0,57.0,57.0,133.0,3,2.3352677822113037,None,,,,,0,0,0,0,0,120,120,58,368.4359953403473,,,,,,,,,,,,,,,,,,,,,,,,,,,,,,,,,,,,,,,,,,,,,,,,,,,,,,,,,,,,,,,,,,,,,,,,,,,,,,,,,78.0,78.0,133.0,57.0,57.0,133.0,4.0,4.2,-164,14,0,-262,191,-15,368.4200596809387,368.42017221450806,368.4233956336975,368.4359953403473,368.5856285095215,368.5856285095215,368.5856285095215,368.5856285095215,368.5856285095215,368.5856285095215,368.5856285095215,370.7775115966797,3,2.3352677822113037,None,,,,,,,,,,,,,,,,,,196,1,2025-03-05_14h12.35.655,comp,2024.2.4,57.49331417942262,2025-03-05 14h12.44.602246 -0500,
121,121,0,critical,wdh,35.0,4.0,upper,125.0,200.0,127.0,127.0,200.0,125.0,1,1.5383100509643555,None,,,,,0,0,0,0,0,121,121,77,370.79521465301514,,,,,,,,,,,,,,,,,,,,,,,,,,,,,,,,,,,,,,,,,,,,,,,,,,,,,,,,,,,,,,,,,,,,,,,,,,,,,,,,,125.0,200.0,127.0,127.0,200.0,125.0,4.0,4.1,-260,-265,0,14,222,-272,370.77905321121216,370.7791681289673,370.78197479248047,370.79521465301514,370.93700909614563,370.93700909614563,370.93700909614563,370.93700909614563,370.93700909614563,370.93700909614563,370.93700909614563,372.34079480171204,1,1.5383100509643555,None,,,,,,,,,,,,,,,,,,196,1,2025-03-05_14h12.35.655,comp,2024.2.4,57.49331417942262,2025-03-05 14h12.44.602246 -0500,
122,122,0,critical,whd,20.0,1.0,upper,125.0,200.0,200.0,125.0,141.0,141.0,1,1.3911046981811523,None,,,,,0,0,0,0,0,122,122,91,372.3566825389862,,,,,,,,,,,,,,,,,,,,,,,,,,,,,,,,,,,,,,,,,,,,,,,,,,,,,,,,,,,,,,,,,,,,,,,,,,,,,,,,,125.0,200.0,200.0,125.0,141.0,141.0,1.0,1.2,-258,-4,0,-3,229,5,372.3423936367035,372.34247636795044,372.3458979129791,372.3566825389862,372.50353956222534,372.50353956222534,372.50353956222534,372.50353956222534,372.50353956222534,372.50353956222534,372.50353956222534,373.75379514694214,1,1.3911046981811523,None,,,,,,,,,,,,,,,,,,196,1,2025-03-05_14h12.35.655,comp,2024.2.4,57.49331417942262,2025-03-05 14h12.44.602246 -0500,
123,123,0,critical,hwd,20.0,2.1,upper,200.0,125.0,125.0,200.0,141.0,141.0,1,1.314143419265747,None,,,,,0,0,0,0,0,123,123,19,373.76963996887207,,,,,,,,,,,,,,,,,,,,,,,,,,,,,,,,,,,,,,,,,,,,,,,,,,,,,,,,,,,,,,,,,,,,,,,,,,,,,,,,,200.0,125.0,125.0,200.0,141.0,141.0,2.1,2.11,-258,265,0,282,266,-264,373.7553415298462,373.75542306900024,373.7587888240814,373.76963996887207,373.9173810482025,373.9173810482025,373.9173810482025,373.9173810482025,373.9173810482025,373.9173810482025,373.9173810482025,375.0885729789734,1,1.314143419265747,None,,,,,,,,,,,,,,,,,,196,1,2025-03-05_14h12.35.655,comp,2024.2.4,57.49331417942262,2025-03-05 14h12.44.602246 -0500,
124,124,0,filler_square,None,None,None,None,None,None,None,None,None,None,2,0.8430743217468262,None,,,,,0,0,0,0,0,124,124,187,375.10458421707153,,,,,,,,,,,,,,,,,,,,,,,,,,,,,,,,,,,,,,,,,,,,,,,,,,,,,,,,,,,,,,,,,,,,,,,,,,,,,,,,,137.1067244660184,60.05871579711558,149.00780352220426,149.00780352220426,108.75320506429182,74.87218112483548,2.1,2.12,-201,-252,0,-250,208,256,375.09037709236145,375.09050393104553,375.09379720687866,375.10458421707153,375.253630399704,375.253630399704,375.253630399704,375.253630399704,375.253630399704,375.253630399704,375.253630399704,375.95115423202515,2,0.8430743217468262,None,,,,,,,,,,,,,,,,,,196,1,2025-03-05_14h12.35.655,comp,2024.2.4,57.49331417942262,2025-03-05 14h12.44.602246 -0500,
125,125,0,filler_square,None,None,None,None,None,None,None,None,None,None,3,0.8762223720550537,None,,,,,0,0,0,0,0,125,125,201,375.96727752685547,,,,,,,,,,,,,,,,,,,,,,,,,,,,,,,,,,,,,,,,,,,,,,,,,,,,,,,,,,,,,,,,,,,,,,,,,,,,,,,,,140.35845556220454,79.48290833099854,99.21164143335243,89.74904673739155,170.53143628006075,170.53143628006075,4.0,4.1,-181,-289,0,-17,226,-269,375.95311880111694,375.9532277584076,375.9564175605774,375.96727752685547,376.1047930717468,376.1047930717468,376.1047930717468,376.1047930717468,376.1047930717468,376.1047930717468,376.1047930717468,376.84914684295654,3,0.8762223720550537,None,,,,,,,,,,,,,,,,,,196,1,2025-03-05_14h12.35.655,comp,2024.2.4,57.49331417942262,2025-03-05 14h12.44.602246 -0500,
126,126,0,critical,hwd,35.0,2.1,lower,133.0,57.0,57.0,133.0,70.0,70.0,2,1.9628872871398926,None,,,,,0,0,0,0,0,126,126,40,376.86449575424194,,,,,,,,,,,,,,,,,,,,,,,,,,,,,,,,,,,,,,,,,,,,,,,,,,,,,,,,,,,,,,,,,,,,,,,,,,,,,,,,,133.0,57.0,57.0,133.0,70.0,70.0,2.1,2.12,-191,-266,0,-267,198,253,376.85063433647156,376.8507149219513,376.8536305427551,376.86449575424194,377.0050323009491,377.0050323009491,377.0050323009491,377.0050323009491,377.0050323009491,377.0050323009491,377.0050323009491,378.8406789302826,2,1.9628872871398926,None,,,,,,,,,,,,,,,,,,196,1,2025-03-05_14h12.35.655,comp,2024.2.4,57.49331417942262,2025-03-05 14h12.44.602246 -0500,
127,127,0,critical,dhw,20.0,2.1,upper,141.0,141.0,200.0,125.0,125.0,200.0,3,1.8988263607025146,None,,,,,0,0,0,0,0,127,127,27,378.8561894893646,,,,,,,,,,,,,,,,,,,,,,,,,,,,,,,,,,,,,,,,,,,,,,,,,,,,,,,,,,,,,,,,,,,,,,,,,,,,,,,,,141.0,141.0,200.0,125.0,125.0,200.0,2.1,2.12,-229,-289,0,-258,258,282,378.8423171043396,378.84239888191223,378.84582710266113,378.8561894893646,379.00852274894714,379.00852274894714,379.00852274894714,379.00852274894714,379.00852274894714,379.00852274894714,379.00852274894714,380.75770592689514,3,1.8988263607025146,None,,,,,,,,,,,,,,,,,,196,1,2025-03-05_14h12.35.655,comp,2024.2.4,57.49331417942262,2025-03-05 14h12.44.602246 -0500,
128,128,0,critical,dhw,20.0,1.0,lower,78.0,78.0,133.0,57.0,57.0,133.0,2,2.325085401535034,None,,,,,0,0,0,0,0,128,128,54,380.7746891975403,,,,,,,,,,,,,,,,,,,,,,,,,,,,,,,,,,,,,,,,,,,,,,,,,,,,,,,,,,,,,,,,,,,,,,,,,,,,,,,,,78.0,78.0,133.0,57.0,57.0,133.0,1.0,1.2,-164,-15,0,-20,191,7,380.75959873199463,380.75972533226013,380.76385617256165,380.7746891975403,380.92625617980957,380.92625617980957,380.92625617980957,380.92625617980957,380.92625617980957,380.92625617980957,380.92625617980957,383.1073670387268,2,2.325085401535034,None,,,,,,,,,,,,,,,,,,196,1,2025-03-05_14h12.35.655,comp,2024.2.4,57.49331417942262,2025-03-05 14h12.44.602246 -0500,
129,129,0,filler_random,None,None,None,None,None,None,None,None,None,None,3,1.7512032985687256,None,,,,,0,0,0,0,0,129,129,155,383.1239891052246,,,,,,,,,,,,,,,,,,,,,,,,,,,,,,,,,,,,,,,,,,,,,,,,,,,,,,,,,,,,,,,,,,,,,,,,,,,,,,,,,156.95996694058488,174.6534454453186,105.96080551690454,177.3234270661345,167.1920848608882,177.04778429839268,3.0,3.1,-272,289,0,-2,273,-257,383.109032869339,383.1091363430023,383.1131591796875,383.1239891052246,383.2764084339142,383.2764084339142,383.2764084339142,383.2764084339142,383.2764084339142,383.2764084339142,383.2764084339142,384.89017605781555,3,1.7512032985687256,None,,,,,,,,,,,,,,,,,,196,1,2025-03-05_14h12.35.655,comp,2024.2.4,57.49331417942262,2025-03-05 14h12.44.602246 -0500,
130,130,0,critical,wdh,35.0,1.0,lower,57.0,133.0,70.0,70.0,133.0,57.0,1,2.591569185256958,None,,,,,0,0,0,0,0,130,130,72,384.90789341926575,,,,,,,,,,,,,,,,,,,,,,,,,,,,,,,,,,,,,,,,,,,,,,,,,,,,,,,,,,,,,,,,,,,,,,,,,,,,,,,,,57.0,133.0,70.0,70.0,133.0,57.0,1.0,1.3,282,-279,480,-263,640,-285,384.89166259765625,384.89174342155457,384.8949010372162,384.90789341926575,385.0612931251526,385.0612931251526,385.0612931251526,385.0612931251526,385.0612931251526,385.0612931251526,385.0612931251526,387.51670122146606,1,2.591569185256958,None,,,,,,,,,,,,,,,,,,196,1,2025-03-05_14h12.35.655,comp,2024.2.4,57.49331417942262,2025-03-05 14h12.44.602246 -0500,
131,131,0,critical,whd,20.0,2.1,upper,125.0,200.0,200.0,125.0,141.0,141.0,2,5.760133504867554,None,,,,,0,0,0,0,0,131,131,15,387.53157591819763,,,,,,,,,,,,,,,,,,,,,,,,,,,,,,,,,,,,,,,,,,,,,,,,,,,,,,,,,,,,,,,,,,,,,,,,,,,,,,,,,125.0,200.0,200.0,125.0,141.0,141.0,2.1,2.11,-258,275,0,257,229,-266,387.5182681083679,387.51834774017334,387.52118849754333,387.53157591819763,387.6739296913147,387.6739296913147,387.6739296913147,387.6739296913147,387.6739296913147,387.6739296913147,387.6739296913147,393.3094766139984,2,5.760133504867554,None,,,,,,,,,,,,,,,,,,196,1,2025-03-05_14h12.35.655,comp,2024.2.4,57.49331417942262,2025-03-05 14h12.44.602246 -0500,
132,132,0,filler_square,None,None,None,None,None,None,None,None,None,None,1,2.800344467163086,None,,,,,0,0,0,0,0,132,132,209,393.33089780807495,,,,,,,,,,,,,,,,,,,,,,,,,,,,,,,,,,,,,,,,,,,,,,,,,,,,,,,,,,,,,,,,,,,,,,,,,,,,,,,,,78.35576056898293,78.35576056898293,76.92697308205172,68.98583028822421,64.06664690302902,67.66953615833737,4.0,4.2,-170,-9,0,-285,164,14,393.31155824661255,393.3116364479065,393.3152554035187,393.33089780807495,393.4643409252167,393.4643409252167,393.4643409252167,393.4643409252167,393.4643409252167,393.4643409252167,393.4643409252167,396.1445655822754,1,2.800344467163086,None,,,,,,,,,,,,,,,,,,196,1,2025-03-05_14h12.35.655,comp,2024.2.4,57.49331417942262,2025-03-05 14h12.44.602246 -0500,
133,133,0,critical,dwh,20.0,1.0,upper,141.0,141.0,125.0,200.0,200.0,125.0,3,3.8350210189819336,None,,,,,0,0,0,0,0,133,133,67,396.1606318950653,,,,,,,,,,,,,,,,,,,,,,,,,,,,,,,,,,,,,,,,,,,,,,,,,,,,,,,,,,,,,,,,,,,,,,,,,,,,,,,,,141.0,141.0,125.0,200.0,200.0,125.0,1.0,1.2,-266,-9,0,2,258,11,396.14620900154114,396.1462895870209,396.1503529548645,396.1606318950653,396.309485912323,396.309485912323,396.309485912323,396.309485912323,396.309485912323,396.309485912323,396.309485912323,399.99893951416016,3,3.8350210189819336,None,,,,,,,,,,,,,,,,,,196,1,2025-03-05_14h12.35.655,comp,2024.2.4,57.49331417942262,2025-03-05 14h12.44.602246 -0500,
134,134,0,critical,dwh,35.0,1.0,lower,70.0,70.0,57.0,133.0,133.0,57.0,3,1.7923731803894043,None,,,,,0,0,0,0,0,134,134,60,400.01941323280334,,,,,,,,,,,,,,,,,,,,,,,,,,,,,,,,,,,,,,,,,,,,,,,,,,,,,,,,,,,,,,,,,,,,,,,,,,,,,,,,,70.0,70.0,57.0,133.0,133.0,57.0,1.0,1.1,-678,287,-480,282,-289,278,400.00056529045105,400.00064969062805,400.0037875175476,400.01941323280334,400.1554193496704,400.1554193496704,400.1554193496704,400.1554193496704,400.1554193496704,400.1554193496704,400.1554193496704,401.8195106983185,3,1.7923731803894043,None,,,,,,,,,,,,,,,,,,196,1,2025-03-05_14h12.35.655,comp,2024.2.4,57.49331417942262,2025-03-05 14h12.44.602246 -0500,
135,135,0,critical,whd,35.0,2.1,lower,57.0,133.0,133.0,57.0,70.0,70.0,1,2.1677474975585938,None,,,,,0,0,0,0,0,135,135,36,401.8361966609955,,,,,,,,,,,,,,,,,,,,,,,,,,,,,,,,,,,,,,,,,,,,,,,,,,,,,,,,,,,,,,,,,,,,,,,,,,,,,,,,,57.0,133.0,133.0,57.0,70.0,70.0,2.1,2.12,-191,-275,0,-250,160,265,401.82118558883667,401.821320772171,401.82460045814514,401.8361966609955,401.97677636146545,401.97677636146545,401.97677636146545,401.97677636146545,401.97677636146545,401.97677636146545,401.97677636146545,404.01378059387207,1,2.1677474975585938,None,,,,,,,,,,,,,,,,,,196,1,2025-03-05_14h12.35.655,comp,2024.2.4,57.49331417942262,2025-03-05 14h12.44.602246 -0500,
136,136,0,critical,whd,20.0,3.0,upper,125.0,200.0,200.0,125.0,141.0,141.0,1,3.6132919788360596,None,,,,,0,0,0,0,0,136,136,93,404.03020572662354,,,,,,,,,,,,,,,,,,,,,,,,,,,,,,,,,,,,,,,,,,,,,,,,,,,,,,,,,,,,,,,,,,,,,,,,,,,,,,,,,125.0,200.0,200.0,125.0,141.0,141.0,3.0,3.1,-258,279,0,18,229,-289,404.01529455184937,404.0153765678406,404.01878786087036,404.03020572662354,404.18192195892334,404.18192195892334,404.18192195892334,404.18192195892334,404.18192195892334,404.18192195892334,404.18192195892334,407.6502044200897,1,3.6132919788360596,None,,,,,,,,,,,,,,,,,,196,1,2025-03-05_14h12.35.655,comp,2024.2.4,57.49331417942262,2025-03-05 14h12.44.602246 -0500,
137,137,0,critical,dhw,35.0,1.0,lower,70.0,70.0,133.0,57.0,57.0,133.0,3,1.6285135746002197,None,,,,,0,0,0,0,0,137,137,48,407.6712648868561,,,,,,,,,,,,,,,,,,,,,,,,,,,,,,,,,,,,,,,,,,,,,,,,,,,,,,,,,,,,,,,,,,,,,,,,,,,,,,,,,70.0,70.0,133.0,57.0,57.0,133.0,1.0,1.3,320,-282,480,-269,671,-251,407.65231013298035,407.65245270729065,407.65552830696106,407.6712648868561,407.8211896419525,407.8211896419525,407.8211896419525,407.8211896419525,407.8211896419525,407.8211896419525,407.8211896419525,409.304630279541,3,1.6285135746002197,None,,,,,,,,,,,,,,,,,,196,1,2025-03-05_14h12.35.655,comp,2024.2.4,57.49331417942262,2025-03-05 14h12.44.602246 -0500,
138,138,0,critical,dwh,35.0,4.0,lower,70.0,70.0,57.0,133.0,133.0,57.0,3,2.162686586380005,None,,,,,0,0,0,0,0,138,138,64,409.3212492465973,,,,,,,,,,,,,,,,,,,,,,,,,,,,,,,,,,,,,,,,,,,,,,,,,,,,,,,,,,,,,,,,,,,,,,,,,,,,,,,,,70.0,70.0,57.0,133.0,133.0,57.0,4.0,4.1,-198,-263,0,-1,191,-259,409.30620884895325,409.3062901496887,409.30953454971313,409.3212492465973,409.4709475040436,409.4709475040436,409.4709475040436,409.4709475040436,409.4709475040436,409.4709475040436,409.4709475040436,411.4911949634552,3,2.162686586380005,None,,,,,,,,,,,,,,,,,,196,1,2025-03-05_14h12.35.655,comp,2024.2.4,57.49331417942262,2025-03-05 14h12.44.602246 -0500,
139,139,0,catch,None,None,None,None,None,None,None,None,None,None,1,0.8914234638214111,None,,,,,0,0,0,0,0,139,139,128,411.51180386543274,,,,,,,,,,,,,,,,,,,,,,,,,,,,,,,,,,,,,,,,,,,,,,,,,,,,,,,,,,,,,,,,,,,,,,,,,,,,,,,,,131,194,111,79,93,97,3.0,3.1,-232,264,0,18,184,-253,411.4931471347809,411.49323058128357,411.4960470199585,411.51180386543274,411.64997720718384,411.64997720718384,411.64997720718384,411.64997720718384,411.64997720718384,411.64997720718384,411.64997720718384,412.41707277297974,1,0.8914234638214111,None,,,,,,,,,,,,,,,,,,196,1,2025-03-05_14h12.35.655,comp,2024.2.4,57.49331417942262,2025-03-05 14h12.44.602246 -0500,
