thisN,thisTrialN,thisRepN,effect,order,distance,config,diag,h_1,w_1,h_2,w_2,h_3,w_3,rect_choice.keys,rect_choice.rt,rect_choice.duration,instructions_loop.thisRepN,instructions_loop.thisTrialN,instructions_loop.thisN,instructions_loop.thisIndex,blocks.thisRepN,blocks.thisTrialN,blocks.thisN,blocks.thisIndex,trials.thisRepN,trials.thisTrialN,trials.thisN,trials.thisIndex,thisRow.t,notes,consent.started,agree_button.started,decline_button.started,consent_img.started,mouse.started,consent.stopped,agree_button.numClicks,agree_button.timesOn,agree_button.timesOff,decline_button.numClicks,decline_button.timesOn,decline_button.timesOff,mouse.x,mouse.y,mouse.leftButton,mouse.midButton,mouse.rightButton,mouse.time,mouse.clicked_name,exp_params.started,exp_params.stopped,welcome.started,welcome_text.started,welcome.stopped,instructions_1.started,instructions_1_text_1.started,instructions_1_text_2.started,key_resp.started,instructions_1.stopped,instructions_loop.key_resp.keys,instructions_loop.key_resp.rt,instructions_loop.key_resp.duration,instructions_2.started,instructions_2_text_1.started,instructions_2_text_2.started,key_resp_2.started,instructions_2.stopped,instructions_loop.key_resp_2.keys,instructions_loop.key_resp_2.rt,instructions_loop.key_resp_2.duration,instructions_3.started,instructions_3_text_1.started,r1_instr3.started,r2_instr3.started,r3_instr3.started,r1_instr3_label.started,r2_instr3_label.started,r3_instr3_label.started,instructions_3_text_3.started,instructions_3_text_4.started,key_resp_3.started,instructions_3.stopped,instructions_loop.key_resp_3.keys,instructions_loop.key_resp_3.rt,instructions_loop.key_resp_3.duration,instructions_4.started,instructions_4_text_1.started,instructions_4_text_3.started,instructions_4_text_2.started,key_resp_4.started,instructions_4.stopped,instructions_loop.key_resp_4.keys,instructions_loop.key_resp_4.rt,instructions_loop.key_resp_4.duration,instructions_5.started,instructions_5_text_1.started,instructions_5_text_2.started,key_resp_5.started,instructions_5.stopped,instructions_loop.key_resp_5.keys,instructions_loop.key_resp_5.rt,instructions_loop.key_resp_5.duration,start_exp.started,start_exp_text.started,key_resp_6.started,start_exp.stopped,key_resp_6.keys,key_resp_6.rt,key_resp_6.duration,h_1_tmp,w_1_tmp,h_2_tmp,w_2_tmp,h_3_tmp,w_3_tmp,config_tmp,config_tmp_1,r_1_x,r_1_y,r_2_x,r_2_y,r_3_x,r_3_y,pre_trial.started,pre_trial.stopped,choice_trial.started,rect_choice.started,r_1.started,r_2.started,r_3.started,r_1_label.started,r_2_label.started,r_3_label.started,prompt.started,choice_trial.stopped,trials.rect_choice.keys,trials.rect_choice.rt,trials.rect_choice.duration,end_block.started,end_block_text.started,end_block.stopped,end.started,end_text.started,key_resp_7.started,end.stopped,key_resp_7.keys,key_resp_7.rt,key_resp_7.duration,debriefing.started,debrief_form.started,end_debrief.started,debriefing.stopped,end_debrief.keys,end_debrief.rt,end_debrief.duration,participant,computer,date,expName,psychopyVersion,frameRate,expStart,
,,,,,,,,,,,,,,,,,,,,,,,,,,,,,,,0.01452016830444336,0.037494659423828125,0.037494659423828125,0.037494659423828125,0.014252185821533203,3.8433454036712646,1,[3.803340435028076],[3.803363800048828],0,,,[-69.0],[-503.0],[1],[0],[0],[3.8282361030578613],['agree_button'],,,,,,,,,,,,,,,,,,,,,,,,,,,,,,,,,,,,,,,,,,,,,,,,,,,,,,,,,,,,,,,,,,,,,,,,,,,,,,,,,,,,,,,,,,,,,,,,,,,,,,,,,,,197,2,2025-03-05_14h28.26.128,comp,2024.2.4,57.93429616451374,2025-03-05 14h28.50.584252 -0500,
,,,,,,,,,,,,,,,,,,,,,,,,,,,,,,,,,,,,,,,,,,,,,,,,,,3.843911647796631,3.843982219696045,,,,,,,,,,,,,,,,,,,,,,,,,,,,,,,,,,,,,,,,,,,,,,,,,,,,,,,,,,,,,,,,,,,,,,,,,,,,,,,,,,,,,,,,,,,,,,,,,,,,,,,,,197,2,2025-03-05_14h28.26.128,comp,2024.2.4,57.93429616451374,2025-03-05 14h28.50.584252 -0500,
,,,,,,,,,,,,,,,,,,,,,,,,,,,,,,,,,,,,,,,,,,,,,,,,,,,,3.8440277576446533,3.859534978866577,5.848581552505493,,,,,,,,,,,,,,,,,,,,,,,,,,,,,,,,,,,,,,,,,,,,,,,,,,,,,,,,,,,,,,,,,,,,,,,,,,,,,,,,,,,,,,,,,,,,,,,,,,,,,,197,2,2025-03-05_14h28.26.128,comp,2024.2.4,57.93429616451374,2025-03-05 14h28.50.584252 -0500,
0,0,0,,,,,,,,,,,,,,,0,0,0,0,,,,,,,,,5.8653435707092285,,,,,,,,,,,,,,,,,,,,,,,,,,5.849556922912598,5.8653435707092285,5.8653435707092285,7.346311569213867,15.673406600952148,space,8.299238204956055,None,15.673558235168457,15.689724206924438,15.689724206924438,17.18558621406555,18.054004907608032,space,0.8596134185791016,None,18.054155349731445,18.083153009414673,18.083153009414673,18.083153009414673,18.083153009414673,18.083153009414673,18.083153009414673,18.083153009414673,18.083153009414673,18.083153009414673,19.561432600021362,21.10334873199463,space,1.5394916534423828,None,21.103514194488525,21.122601985931396,21.122601985931396,21.122601985931396,22.606345176696777,23.713165283203125,space,1.102113962173462,None,23.713321208953857,23.73088502883911,23.73088502883911,25.22136902809143,26.023334741592407,space,0.7992680072784424,None,26.023626565933228,26.03713059425354,26.03713059425354,26.222744464874268,space,0.1672835350036621,None,,,,,,,,,,,,,,,,,,,,,,,,,,,,,,,,,,,,,,,,,,,,,,,197,2,2025-03-05_14h28.26.128,comp,2024.2.4,57.93429616451374,2025-03-05 14h28.50.584252 -0500,
0,0,0,critical,dhw,35.0,3.0,lower,70.0,70.0,133.0,57.0,57.0,133.0,3,5.636754512786865,None,,,,,0,0,0,0,0,0,0,50,26.296634912490845,,,,,,,,,,,,,,,,,,,,,,,,,,,,,,,,,,,,,,,,,,,,,,,,,,,,,,,,,,,,,,,,,,,,,,,,,,,,,,,,,70.0,70.0,133.0,57.0,57.0,133.0,3.0,3.2,-160,-266,0,-3,191,259,26.282093048095703,26.282135009765625,26.28334927558899,26.296634912490845,26.446579217910767,26.446579217910767,26.446579217910767,26.446579217910767,26.446579217910767,26.446579217910767,26.446579217910767,31.939740419387817,3,5.636754512786865,None,,,,,,,,,,,,,,,,,,197,2,2025-03-05_14h28.26.128,comp,2024.2.4,57.93429616451374,2025-03-05 14h28.50.584252 -0500,
1,1,0,filler_square,None,None,None,None,None,None,None,None,None,None,1,1.0280749797821045,None,,,,,0,0,0,0,0,1,1,180,31.9608211517334,,,,,,,,,,,,,,,,,,,,,,,,,,,,,,,,,,,,,,,,,,,,,,,,,,,,,,,,,,,,,,,,,,,,,,,,,,,,,,,,,88.93562710063807,88.93562710063807,78.11622504276109,80.84350272044392,83.6945478739911,64.28753654318837,4.0,4.1,-181,-283,0,-7,169,-260,31.94158363342285,31.94166374206543,31.944973468780518,31.9608211517334,32.10860466957092,32.10860466957092,32.10860466957092,32.10860466957092,32.10860466957092,32.10860466957092,32.10860466957092,33.00991153717041,1,1.0280749797821045,None,,,,,,,,,,,,,,,,,,197,2,2025-03-05_14h28.26.128,comp,2024.2.4,57.93429616451374,2025-03-05 14h28.50.584252 -0500,
2,2,0,filler_random,None,None,None,None,None,None,None,None,None,None,3,1.0102639198303223,None,,,,,0,0,0,0,0,2,2,132,33.02778387069702,,,,,,,,,,,,,,,,,,,,,,,,,,,,,,,,,,,,,,,,,,,,,,,,,,,,,,,,,,,,,,,,,,,,,,,,,,,,,,,,,190.9139009506829,110.29071593991335,173.83151213768545,112.05797585272234,188.40305837142122,198.25374690409404,2.2,2.22,-207,278,0,-270,251,-256,33.0117871761322,33.01193881034851,33.01519751548767,33.02778387069702,33.175137758255005,33.175137758255005,33.175137758255005,33.175137758255005,33.175137758255005,33.175137758255005,33.175137758255005,34.04136037826538,3,1.0102639198303223,None,,,,,,,,,,,,,,,,,,197,2,2025-03-05_14h28.26.128,comp,2024.2.4,57.93429616451374,2025-03-05 14h28.50.584252 -0500,
3,3,0,critical,dwh,35.0,1.0,upper,127.0,127.0,125.0,200.0,200.0,125.0,2,1.4749186038970947,None,,,,,0,0,0,0,0,3,3,61,34.057682275772095,,,,,,,,,,,,,,,,,,,,,,,,,,,,,,,,,,,,,,,,,,,,,,,,,,,,,,,,,,,,,,,,,,,,,,,,,,,,,,,,,127.0,127.0,125.0,200.0,200.0,125.0,1.0,1.1,-740,282,-480,273,-222,281,34.042903423309326,34.04298162460327,34.04594969749451,34.057682275772095,34.20514273643494,34.20514273643494,34.20514273643494,34.20514273643494,34.20514273643494,34.20514273643494,34.20514273643494,35.54675793647766,2,1.4749186038970947,None,,,,,,,,,,,,,,,,,,197,2,2025-03-05_14h28.26.128,comp,2024.2.4,57.93429616451374,2025-03-05 14h28.50.584252 -0500,
4,4,0,critical,whd,20.0,2.1,upper,125.0,200.0,200.0,125.0,141.0,141.0,1,1.6987688541412354,None,,,,,0,0,0,0,0,4,4,15,35.562591552734375,,,,,,,,,,,,,,,,,,,,,,,,,,,,,,,,,,,,,,,,,,,,,,,,,,,,,,,,,,,,,,,,,,,,,,,,,,,,,,,,,125.0,200.0,200.0,125.0,141.0,141.0,2.1,2.12,-258,-270,0,-278,229,285,35.54848027229309,35.54855823516846,35.551504135131836,35.562591552734375,35.706743001937866,35.706743001937866,35.706743001937866,35.706743001937866,35.706743001937866,35.706743001937866,35.706743001937866,37.264129400253296,1,1.6987688541412354,None,,,,,,,,,,,,,,,,,,197,2,2025-03-05_14h28.26.128,comp,2024.2.4,57.93429616451374,2025-03-05 14h28.50.584252 -0500,
5,5,0,critical,dhw,35.0,4.0,upper,127.0,127.0,200.0,125.0,125.0,200.0,3,1.2112903594970703,None,,,,,0,0,0,0,0,5,5,53,37.28123497962952,,,,,,,,,,,,,,,,,,,,,,,,,,,,,,,,,,,,,,,,,,,,,,,,,,,,,,,,,,,,,,,,,,,,,,,,,,,,,,,,,127.0,127.0,200.0,125.0,125.0,200.0,4.0,4.2,-222,-5,0,-276,258,13,37.26569104194641,37.26577115058899,37.269652128219604,37.28123497962952,37.42792201042175,37.42792201042175,37.42792201042175,37.42792201042175,37.42792201042175,37.42792201042175,37.42792201042175,38.50811433792114,3,1.2112903594970703,None,,,,,,,,,,,,,,,,,,197,2,2025-03-05_14h28.26.128,comp,2024.2.4,57.93429616451374,2025-03-05 14h28.50.584252 -0500,
6,6,0,critical,dwh,20.0,2.1,lower,78.0,78.0,57.0,133.0,133.0,57.0,2,4.170369863510132,None,,,,,0,0,0,0,0,6,6,30,38.52283215522766,,,,,,,,,,,,,,,,,,,,,,,,,,,,,,,,,,,,,,,,,,,,,,,,,,,,,,,,,,,,,,,,,,,,,,,,,,,,,,,,,78.0,78.0,57.0,133.0,133.0,57.0,2.1,2.11,-202,282,0,274,191,-273,38.50970482826233,38.50982642173767,38.51310873031616,38.52283215522766,38.66389751434326,38.66389751434326,38.66389751434326,38.66389751434326,38.66389751434326,38.66389751434326,38.66389751434326,42.71245574951172,2,4.170369863510132,None,,,,,,,,,,,,,,,,,,197,2,2025-03-05_14h28.26.128,comp,2024.2.4,57.93429616451374,2025-03-05 14h28.50.584252 -0500,
7,7,0,critical,dhw,35.0,2.1,lower,70.0,70.0,133.0,57.0,57.0,133.0,3,2.6439318656921387,None,,,,,0,0,0,0,0,7,7,24,42.72852039337158,,,,,,,,,,,,,,,,,,,,,,,,,,,,,,,,,,,,,,,,,,,,,,,,,,,,,,,,,,,,,,,,,,,,,,,,,,,,,,,,,70.0,70.0,133.0,57.0,57.0,133.0,2.1,2.11,-160,262,0,275,191,-290,42.71404719352722,42.71412539482117,42.71823048591614,42.72852039337158,42.876893520355225,42.876893520355225,42.876893520355225,42.876893520355225,42.876893520355225,42.876893520355225,42.876893520355225,45.38724398612976,3,2.6439318656921387,None,,,,,,,,,,,,,,,,,,197,2,2025-03-05_14h28.26.128,comp,2024.2.4,57.93429616451374,2025-03-05 14h28.50.584252 -0500,
8,8,0,filler_random,None,None,None,None,None,None,None,None,None,None,2,2.1613380908966064,None,,,,,0,0,0,0,0,8,8,142,45.40327548980713,,,,,,,,,,,,,,,,,,,,,,,,,,,,,,,,,,,,,,,,,,,,,,,,,,,,,,,,,,,,,,,,,,,,,,,,,,,,,,,,,103.66973726471937,86.19761273208206,113.36994278354197,193.0318642975069,103.48102107049098,179.59550038435333,4.0,4.2,-236,-2,0,-256,282,14,45.38917422294617,45.38925218582153,45.39244103431702,45.40327548980713,45.54952144622803,45.54952144622803,45.54952144622803,45.54952144622803,45.54952144622803,45.54952144622803,45.54952144622803,47.56668567657471,2,2.1613380908966064,None,,,,,,,,,,,,,,,,,,197,2,2025-03-05_14h28.26.128,comp,2024.2.4,57.93429616451374,2025-03-05 14h28.50.584252 -0500,
9,9,0,catch,None,None,None,None,None,None,None,None,None,None,2,1.0587329864501953,None,,,,,0,0,0,0,0,9,9,127,47.58660006523132,,,,,,,,,,,,,,,,,,,,,,,,,,,,,,,,,,,,,,,,,,,,,,,,,,,,,,,,,,,,,,,,,,,,,,,,,,,,,,,,,81,109,157,168,115,75,3.0,3.2,-234,-285,0,9,218,256,47.56933283805847,47.5694682598114,47.572508335113525,47.58660006523132,47.730440616607666,47.730440616607666,47.730440616607666,47.730440616607666,47.730440616607666,47.730440616607666,47.730440616607666,48.64882040023804,2,1.0587329864501953,None,,,,,,,,,,,,,,,,,,197,2,2025-03-05_14h28.26.128,comp,2024.2.4,57.93429616451374,2025-03-05 14h28.50.584252 -0500,
10,10,0,critical,hwd,35.0,4.0,lower,133.0,57.0,57.0,133.0,70.0,70.0,2,1.957038402557373,None,,,,,0,0,0,0,0,10,10,100,48.66553473472595,,,,,,,,,,,,,,,,,,,,,,,,,,,,,,,,,,,,,,,,,,,,,,,,,,,,,,,,,,,,,,,,,,,,,,,,,,,,,,,,,133.0,57.0,57.0,133.0,70.0,70.0,4.0,4.2,-191,9,0,-267,198,19,48.65050220489502,48.650622606277466,48.65408682823181,48.66553473472595,48.810895681381226,48.810895681381226,48.810895681381226,48.810895681381226,48.810895681381226,48.810895681381226,48.810895681381226,50.632936239242554,2,1.957038402557373,None,,,,,,,,,,,,,,,,,,197,2,2025-03-05_14h28.26.128,comp,2024.2.4,57.93429616451374,2025-03-05 14h28.50.584252 -0500,
11,11,0,critical,dwh,35.0,2.1,upper,127.0,127.0,125.0,200.0,200.0,125.0,2,1.3155691623687744,None,,,,,0,0,0,0,0,11,11,5,50.64898872375488,,,,,,,,,,,,,,,,,,,,,,,,,,,,,,,,,,,,,,,,,,,,,,,,,,,,,,,,,,,,,,,,,,,,,,,,,,,,,,,,,127.0,127.0,125.0,200.0,200.0,125.0,2.1,2.12,-260,-285,0,-281,258,276,50.634700298309326,50.63485860824585,50.63830828666687,50.64898872375488,50.80503535270691,50.80503535270691,50.80503535270691,50.80503535270691,50.80503535270691,50.80503535270691,50.80503535270691,51.981380462646484,2,1.3155691623687744,None,,,,,,,,,,,,,,,,,,197,2,2025-03-05_14h28.26.128,comp,2024.2.4,57.93429616451374,2025-03-05 14h28.50.584252 -0500,
12,12,0,filler_random,None,None,None,None,None,None,None,None,None,None,3,3.3828909397125244,None,,,,,0,0,0,0,0,12,12,148,51.99762439727783,,,,,,,,,,,,,,,,,,,,,,,,,,,,,,,,,,,,,,,,,,,,,,,,,,,,,,,,,,,,,,,,,,,,,,,,,,,,,,,,,69.41509670599078,198.75730653092623,65.39781948587915,81.09108848803261,165.15265836518466,86.3991322003281,2.2,2.21,-236,-258,0,269,180,262,51.983169078826904,51.983248233795166,51.9873571395874,51.99762439727783,52.148322343826294,52.148322343826294,52.148322343826294,52.148322343826294,52.148322343826294,52.148322343826294,52.148322343826294,55.39812994003296,3,3.3828909397125244,None,,,,,,,,,,,,,,,,,,197,2,2025-03-05_14h28.26.128,comp,2024.2.4,57.93429616451374,2025-03-05 14h28.50.584252 -0500,
13,13,0,critical,hwd,20.0,2.1,upper,200.0,125.0,125.0,200.0,141.0,141.0,2,1.76627516746521,None,,,,,0,0,0,0,0,13,13,19,55.414416790008545,,,,,,,,,,,,,,,,,,,,,,,,,,,,,,,,,,,,,,,,,,,,,,,,,,,,,,,,,,,,,,,,,,,,,,,,,,,,,,,,,200.0,125.0,125.0,200.0,141.0,141.0,2.1,2.11,-258,277,0,270,266,-252,55.399675130844116,55.39975333213806,55.40296149253845,55.414416790008545,55.565451860427856,55.565451860427856,55.565451860427856,55.565451860427856,55.565451860427856,55.565451860427856,55.565451860427856,57.198878049850464,2,1.76627516746521,None,,,,,,,,,,,,,,,,,,197,2,2025-03-05_14h28.26.128,comp,2024.2.4,57.93429616451374,2025-03-05 14h28.50.584252 -0500,
14,14,0,filler_random,None,None,None,None,None,None,None,None,None,None,2,1.7504396438598633,None,,,,,0,0,0,0,0,14,14,149,57.2148540019989,,,,,,,,,,,,,,,,,,,,,,,,,,,,,,,,,,,,,,,,,,,,,,,,,,,,,,,,,,,,,,,,,,,,,,,,,,,,,,,,,156.24654261560312,102.51160211273267,163.22845556599106,155.6448322418566,141.38237859383918,72.07578524767183,2.1,2.11,-225,259,0,271,210,-261,57.200573682785034,57.20064687728882,57.20370388031006,57.2148540019989,57.36547136306763,57.36547136306763,57.36547136306763,57.36547136306763,57.36547136306763,57.36547136306763,57.36547136306763,58.97260332107544,2,1.7504396438598633,None,,,,,,,,,,,,,,,,,,197,2,2025-03-05_14h28.26.128,comp,2024.2.4,57.93429616451374,2025-03-05 14h28.50.584252 -0500,
15,15,0,critical,whd,35.0,1.0,upper,125.0,200.0,200.0,125.0,127.0,127.0,2,4.240256309509277,None,,,,,0,0,0,0,0,15,15,85,58.98903703689575,,,,,,,,,,,,,,,,,,,,,,,,,,,,,,,,,,,,,,,,,,,,,,,,,,,,,,,,,,,,,,,,,,,,,,,,,,,,,,,,,125.0,200.0,200.0,125.0,127.0,127.0,1.0,1.3,222,-281,480,-274,702,-267,58.974271297454834,58.974400758743286,58.97785472869873,58.98903703689575,59.13106560707092,59.13106560707092,59.13106560707092,59.13106560707092,59.13106560707092,59.13106560707092,59.13106560707092,63.23669219017029,2,4.240256309509277,None,,,,,,,,,,,,,,,,,,197,2,2025-03-05_14h28.26.128,comp,2024.2.4,57.93429616451374,2025-03-05 14h28.50.584252 -0500,
16,16,0,critical,hwd,20.0,3.0,lower,133.0,57.0,57.0,133.0,78.0,78.0,1,2.9351930618286133,None,,,,,0,0,0,0,0,16,16,104,63.253567695617676,,,,,,,,,,,,,,,,,,,,,,,,,,,,,,,,,,,,,,,,,,,,,,,,,,,,,,,,,,,,,,,,,,,,,,,,,,,,,,,,,133.0,57.0,57.0,133.0,78.0,78.0,3.0,3.2,-191,-272,0,12,202,276,63.238372564315796,63.23845601081848,63.241719245910645,63.253567695617676,63.401214599609375,63.401214599609375,63.401214599609375,63.401214599609375,63.401214599609375,63.401214599609375,63.401214599609375,66.20377826690674,1,2.9351930618286133,None,,,,,,,,,,,,,,,,,,197,2,2025-03-05_14h28.26.128,comp,2024.2.4,57.93429616451374,2025-03-05 14h28.50.584252 -0500,
17,17,0,filler_random,None,None,None,None,None,None,None,None,None,None,2,1.0165674686431885,None,,,,,0,0,0,0,0,17,17,158,66.21993207931519,,,,,,,,,,,,,,,,,,,,,,,,,,,,,,,,,,,,,,,,,,,,,,,,,,,,,,,,,,,,,,,,,,,,,,,,,,,,,,,,,62.606402325994964,82.71678095467361,166.5840710121224,104.07317365844222,106.70036854346412,57.45494649726945,2.1,2.11,-189,266,0,256,177,-258,66.20573663711548,66.20583939552307,66.20867824554443,66.21993207931519,66.36744332313538,66.36744332313538,66.36744332313538,66.36744332313538,66.36744332313538,66.36744332313538,66.36744332313538,67.24987626075745,2,1.0165674686431885,None,,,,,,,,,,,,,,,,,,197,2,2025-03-05_14h28.26.128,comp,2024.2.4,57.93429616451374,2025-03-05 14h28.50.584252 -0500,
18,18,0,critical,hdw,35.0,2.1,lower,133.0,57.0,70.0,70.0,57.0,133.0,3,2.491802930831909,None,,,,,0,0,0,0,0,18,18,44,67.26597571372986,,,,,,,,,,,,,,,,,,,,,,,,,,,,,,,,,,,,,,,,,,,,,,,,,,,,,,,,,,,,,,,,,,,,,,,,,,,,,,,,,133.0,57.0,70.0,70.0,57.0,133.0,2.1,2.12,-160,-251,0,-264,198,278,67.25149750709534,67.25157523155212,67.25484824180603,67.26597571372986,67.42014336585999,67.42014336585999,67.42014336585999,67.42014336585999,67.42014336585999,67.42014336585999,67.42014336585999,69.7628972530365,3,2.491802930831909,None,,,,,,,,,,,,,,,,,,197,2,2025-03-05_14h28.26.128,comp,2024.2.4,57.93429616451374,2025-03-05 14h28.50.584252 -0500,
19,19,0,filler_square,None,None,None,None,None,None,None,None,None,None,2,1.4741756916046143,None,,,,,0,0,0,0,0,19,19,204,69.77888703346252,,,,,,,,,,,,,,,,,,,,,,,,,,,,,,,,,,,,,,,,,,,,,,,,,,,,,,,,,,,,,,,,,,,,,,,,,,,,,,,,,105.95394928299073,75.47079782226646,108.42390359083885,108.42390359083885,61.504419864480354,77.35892040073982,2.1,2.11,-188,267,0,290,189,-251,69.76473879814148,69.7648606300354,69.76775574684143,69.77888703346252,69.92134618759155,69.92134618759155,69.92134618759155,69.92134618759155,69.92134618759155,69.92134618759155,69.92134618759155,71.25524711608887,2,1.4741756916046143,None,,,,,,,,,,,,,,,,,,197,2,2025-03-05_14h28.26.128,comp,2024.2.4,57.93429616451374,2025-03-05 14h28.50.584252 -0500,
20,20,0,critical,hdw,20.0,3.0,upper,200.0,125.0,141.0,141.0,125.0,200.0,3,1.9897072315216064,None,,,,,0,0,0,0,0,20,20,117,71.27089715003967,,,,,,,,,,,,,,,,,,,,,,,,,,,,,,,,,,,,,,,,,,,,,,,,,,,,,,,,,,,,,,,,,,,,,,,,,,,,,,,,,200.0,125.0,141.0,141.0,125.0,200.0,3.0,3.1,-229,281,0,-8,266,-288,71.25692439079285,71.25700426101685,71.26031112670898,71.27089715003967,71.41852521896362,71.41852521896362,71.41852521896362,71.41852521896362,71.41852521896362,71.41852521896362,71.41852521896362,73.2721951007843,3,1.9897072315216064,None,,,,,,,,,,,,,,,,,,197,2,2025-03-05_14h28.26.128,comp,2024.2.4,57.93429616451374,2025-03-05 14h28.50.584252 -0500,
21,21,0,filler_square,None,None,None,None,None,None,None,None,None,None,3,1.6037192344665527,None,,,,,0,0,0,0,0,21,21,181,73.28886389732361,,,,,,,,,,,,,,,,,,,,,,,,,,,,,,,,,,,,,,,,,,,,,,,,,,,,,,,,,,,,,,,,,,,,,,,,,,,,,,,,,61.9382831319279,59.710456945398434,67.16291168332069,67.16291168332069,67.13104449653027,66.61097480521354,4.0,4.1,-159,-281,0,4,163,-268,73.27433586120605,73.27447080612183,73.27800226211548,73.28886389732361,73.44119334220886,73.44119334220886,73.44119334220886,73.44119334220886,73.44119334220886,73.44119334220886,73.44119334220886,74.90396356582642,3,1.6037192344665527,None,,,,,,,,,,,,,,,,,,197,2,2025-03-05_14h28.26.128,comp,2024.2.4,57.93429616451374,2025-03-05 14h28.50.584252 -0500,
22,22,0,critical,dwh,20.0,1.0,lower,78.0,78.0,57.0,133.0,133.0,57.0,3,2.4023547172546387,None,,,,,0,0,0,0,0,22,22,66,74.9222400188446,,,,,,,,,,,,,,,,,,,,,,,,,,,,,,,,,,,,,,,,,,,,,,,,,,,,,,,,,,,,,,,,,,,,,,,,,,,,,,,,,78.0,78.0,57.0,133.0,133.0,57.0,1.0,1.1,-682,276,-480,274,-289,277,74.90550208091736,74.90557861328125,74.90858054161072,74.9222400188446,75.07731223106384,75.07731223106384,75.07731223106384,75.07731223106384,75.07731223106384,75.07731223106384,75.07731223106384,77.34115815162659,3,2.4023547172546387,None,,,,,,,,,,,,,,,,,,197,2,2025-03-05_14h28.26.128,comp,2024.2.4,57.93429616451374,2025-03-05 14h28.50.584252 -0500,
23,23,0,critical,whd,35.0,2.1,upper,125.0,200.0,200.0,125.0,127.0,127.0,1,2.3199334144592285,None,,,,,0,0,0,0,0,23,23,37,77.356609582901,,,,,,,,,,,,,,,,,,,,,,,,,,,,,,,,,,,,,,,,,,,,,,,,,,,,,,,,,,,,,,,,,,,,,,,,,,,,,,,,,125.0,200.0,200.0,125.0,127.0,127.0,2.1,2.12,-258,-267,0,-280,222,283,77.34270024299622,77.34277653694153,77.34616613388062,77.356609582901,77.50483465194702,77.50483465194702,77.50483465194702,77.50483465194702,77.50483465194702,77.50483465194702,77.50483465194702,79.68942379951477,1,2.3199334144592285,None,,,,,,,,,,,,,,,,,,197,2,2025-03-05_14h28.26.128,comp,2024.2.4,57.93429616451374,2025-03-05 14h28.50.584252 -0500,
24,24,0,critical,dhw,20.0,2.1,upper,141.0,141.0,200.0,125.0,125.0,200.0,3,2.368516206741333,None,,,,,0,0,0,0,0,24,24,3,79.70805835723877,,,,,,,,,,,,,,,,,,,,,,,,,,,,,,,,,,,,,,,,,,,,,,,,,,,,,,,,,,,,,,,,,,,,,,,,,,,,,,,,,141.0,141.0,200.0,125.0,125.0,200.0,2.1,2.11,-229,288,0,268,258,-250,79.69099760055542,79.69107294082642,79.6943428516388,79.70805835723877,79.85652136802673,79.85652136802673,79.85652136802673,79.85652136802673,79.85652136802673,79.85652136802673,79.85652136802673,82.09208798408508,3,2.368516206741333,None,,,,,,,,,,,,,,,,,,197,2,2025-03-05_14h28.26.128,comp,2024.2.4,57.93429616451374,2025-03-05 14h28.50.584252 -0500,
25,25,0,critical,hwd,35.0,2.1,lower,133.0,57.0,57.0,133.0,70.0,70.0,1,2.658780574798584,None,,,,,0,0,0,0,0,25,25,16,82.10833072662354,,,,,,,,,,,,,,,,,,,,,,,,,,,,,,,,,,,,,,,,,,,,,,,,,,,,,,,,,,,,,,,,,,,,,,,,,,,,,,,,,133.0,57.0,57.0,133.0,70.0,70.0,2.1,2.11,-191,288,0,290,198,-259,82.0939679145813,82.09404802322388,82.09799194335938,82.10833072662354,82.2624351978302,82.2624351978302,82.2624351978302,82.2624351978302,82.2624351978302,82.2624351978302,82.2624351978302,84.77322268486023,1,2.658780574798584,None,,,,,,,,,,,,,,,,,,197,2,2025-03-05_14h28.26.128,comp,2024.2.4,57.93429616451374,2025-03-05 14h28.50.584252 -0500,
26,26,0,critical,dhw,20.0,3.0,lower,78.0,78.0,133.0,57.0,57.0,133.0,3,3.374617576599121,None,,,,,0,0,0,0,0,26,26,56,84.78999543190002,,,,,,,,,,,,,,,,,,,,,,,,,,,,,,,,,,,,,,,,,,,,,,,,,,,,,,,,,,,,,,,,,,,,,,,,,,,,,,,,,78.0,78.0,133.0,57.0,57.0,133.0,3.0,3.1,-164,258,0,-13,191,-258,84.7749092578888,84.7750039100647,84.77833867073059,84.78999543190002,84.94201374053955,84.94201374053955,84.94201374053955,84.94201374053955,84.94201374053955,84.94201374053955,84.94201374053955,88.17475461959839,3,3.374617576599121,None,,,,,,,,,,,,,,,,,,197,2,2025-03-05_14h28.26.128,comp,2024.2.4,57.93429616451374,2025-03-05 14h28.50.584252 -0500,
27,27,0,filler_random,None,None,None,None,None,None,None,None,None,None,3,1.3687288761138916,None,,,,,0,0,0,0,0,27,27,164,88.19588470458984,,,,,,,,,,,,,,,,,,,,,,,,,,,,,,,,,,,,,,,,,,,,,,,,,,,,,,,,,,,,,,,,,,,,,,,,,,,,,,,,,94.24974050068056,117.78963683782942,75.62045060965261,187.700563734147,190.76747144054337,173.31031300670315,2.2,2.21,-249,-267,0,284,277,256,88.17653632164001,88.17666840553284,88.18006753921509,88.19588470458984,88.34388995170593,88.34388995170593,88.34388995170593,88.34388995170593,88.34388995170593,88.34388995170593,88.34388995170593,89.57462286949158,3,1.3687288761138916,None,,,,,,,,,,,,,,,,,,197,2,2025-03-05_14h28.26.128,comp,2024.2.4,57.93429616451374,2025-03-05 14h28.50.584252 -0500,
28,28,0,critical,wdh,35.0,1.0,upper,125.0,200.0,127.0,127.0,200.0,125.0,1,2.910560131072998,None,,,,,0,0,0,0,0,28,28,73,89.59067869186401,,,,,,,,,,,,,,,,,,,,,,,,,,,,,,,,,,,,,,,,,,,,,,,,,,,,,,,,,,,,,,,,,,,,,,,,,,,,,,,,,125.0,200.0,127.0,127.0,200.0,125.0,1.0,1.2,-260,0,0,-11,222,-18,89.57619047164917,89.57627081871033,89.57962417602539,89.59067869186401,89.73438906669617,89.73438906669617,89.73438906669617,89.73438906669617,89.73438906669617,89.73438906669617,89.73438906669617,92.50984859466553,1,2.910560131072998,None,,,,,,,,,,,,,,,,,,197,2,2025-03-05_14h28.26.128,comp,2024.2.4,57.93429616451374,2025-03-05 14h28.50.584252 -0500,
29,29,0,critical,whd,20.0,1.0,upper,125.0,200.0,200.0,125.0,141.0,141.0,2,3.016178607940674,None,,,,,0,0,0,0,0,29,29,91,92.52600455284119,,,,,,,,,,,,,,,,,,,,,,,,,,,,,,,,,,,,,,,,,,,,,,,,,,,,,,,,,,,,,,,,,,,,,,,,,,,,,,,,,125.0,200.0,200.0,125.0,141.0,141.0,1.0,1.2,-258,-15,0,-2,229,12,92.51138353347778,92.51146388053894,92.51436853408813,92.52600455284119,92.68397545814514,92.68397545814514,92.68397545814514,92.68397545814514,92.68397545814514,92.68397545814514,92.68397545814514,95.54478216171265,2,3.016178607940674,None,,,,,,,,,,,,,,,,,,197,2,2025-03-05_14h28.26.128,comp,2024.2.4,57.93429616451374,2025-03-05 14h28.50.584252 -0500,
30,30,0,filler_random,None,None,None,None,None,None,None,None,None,None,1,1.178682565689087,None,,,,,0,0,0,0,0,30,30,162,95.56244421005249,,,,,,,,,,,,,,,,,,,,,,,,,,,,,,,,,,,,,,,,,,,,,,,,,,,,,,,,,,,,,,,,,,,,,,,,,,,,,,,,,178.27258523619815,98.38547227588268,87.35251049986678,94.92838970891523,134.70107613275894,69.19051545434355,3.0,3.1,-193,255,0,-19,178,-273,95.54703855514526,95.54712176322937,95.55113172531128,95.56244421005249,95.7126350402832,95.7126350402832,95.7126350402832,95.7126350402832,95.7126350402832,95.7126350402832,95.7126350402832,96.74796915054321,1,1.178682565689087,None,,,,,,,,,,,,,,,,,,197,2,2025-03-05_14h28.26.128,comp,2024.2.4,57.93429616451374,2025-03-05 14h28.50.584252 -0500,
31,31,0,filler_square,None,None,None,None,None,None,None,None,None,None,2,1.4200208187103271,None,,,,,0,0,0,0,0,31,31,173,96.76948165893555,,,,,,,,,,,,,,,,,,,,,,,,,,,,,,,,,,,,,,,,,,,,,,,,,,,,,,,,,,,,,,,,,,,,,,,,,,,,,,,,,92.42859077344627,69.09362285737376,110.26020698514571,110.26020698514571,67.10946947183614,77.40735011633372,2.2,2.21,-186,-260,0,280,190,254,96.7502372264862,96.75031638145447,96.7536792755127,96.76948165893555,96.91191244125366,96.91191244125366,96.91191244125366,96.91191244125366,96.91191244125366,96.91191244125366,96.91191244125366,98.1967236995697,2,1.4200208187103271,None,,,,,,,,,,,,,,,,,,197,2,2025-03-05_14h28.26.128,comp,2024.2.4,57.93429616451374,2025-03-05 14h28.50.584252 -0500,
32,32,0,critical,dhw,20.0,2.1,upper,141.0,141.0,200.0,125.0,125.0,200.0,2,2.8719687461853027,None,,,,,0,0,0,0,0,32,32,27,98.21286273002625,,,,,,,,,,,,,,,,,,,,,,,,,,,,,,,,,,,,,,,,,,,,,,,,,,,,,,,,,,,,,,,,,,,,,,,,,,,,,,,,,141.0,141.0,200.0,125.0,125.0,200.0,2.1,2.11,-229,257,0,289,258,-279,98.19841384887695,98.19854688644409,98.20211338996887,98.21286273002625,98.37312889099121,98.37312889099121,98.37312889099121,98.37312889099121,98.37312889099121,98.37312889099121,98.37312889099121,101.09762644767761,2,2.8719687461853027,None,,,,,,,,,,,,,,,,,,197,2,2025-03-05_14h28.26.128,comp,2024.2.4,57.93429616451374,2025-03-05 14h28.50.584252 -0500,
33,33,0,critical,hdw,20.0,4.0,lower,133.0,57.0,78.0,78.0,57.0,133.0,3,3.2246599197387695,None,,,,,0,0,0,0,0,33,33,118,101.1159131526947,,,,,,,,,,,,,,,,,,,,,,,,,,,,,,,,,,,,,,,,,,,,,,,,,,,,,,,,,,,,,,,,,,,,,,,,,,,,,,,,,133.0,57.0,78.0,78.0,57.0,133.0,4.0,4.1,-164,-272,0,-1,202,-256,101.09930920600891,101.09944176673889,101.1028482913971,101.1159131526947,101.26557326316833,101.26557326316833,101.26557326316833,101.26557326316833,101.26557326316833,101.26557326316833,101.26557326316833,104.34969210624695,3,3.2246599197387695,None,,,,,,,,,,,,,,,,,,197,2,2025-03-05_14h28.26.128,comp,2024.2.4,57.93429616451374,2025-03-05 14h28.50.584252 -0500,
34,34,0,catch,None,None,None,None,None,None,None,None,None,None,3,1.1429390907287598,None,,,,,0,0,0,0,0,34,34,121,104.36586022377014,,,,,,,,,,,,,,,,,,,,,,,,,,,,,,,,,,,,,,,,,,,,,,,,,,,,,,,,,,,,,,,,,,,,,,,,,,,,,,,,,65,125,89,101,182,143,3.0,3.2,-209,-251,0,13,218,271,104.35170888900757,104.35180854797363,104.35500597953796,104.36586022377014,104.51492524147034,104.51492524147034,104.51492524147034,104.51492524147034,104.51492524147034,104.51492524147034,104.51492524147034,105.52147245407104,3,1.1429390907287598,None,,,,,,,,,,,,,,,,,,197,2,2025-03-05_14h28.26.128,comp,2024.2.4,57.93429616451374,2025-03-05 14h28.50.584252 -0500,
35,35,0,filler_random,None,None,None,None,None,None,None,None,None,None,1,1.7468321323394775,None,,,,,0,0,0,0,0,35,35,144,105.5378565788269,,,,,,,,,,,,,,,,,,,,,,,,,,,,,,,,,,,,,,,,,,,,,,,,,,,,,,,,,,,,,,,,,,,,,,,,,,,,,,,,,164.95076615266387,171.19564527314316,177.49539995113332,178.49429237892923,179.52936044338384,95.91724688863786,2.2,2.21,-271,-273,0,252,233,275,105.52356767654419,105.52364921569824,105.52685546875,105.5378565788269,105.68655133247375,105.68655133247375,105.68655133247375,105.68655133247375,105.68655133247375,105.68655133247375,105.68655133247375,107.30058526992798,1,1.7468321323394775,None,,,,,,,,,,,,,,,,,,197,2,2025-03-05_14h28.26.128,comp,2024.2.4,57.93429616451374,2025-03-05 14h28.50.584252 -0500,
36,36,0,critical,dwh,35.0,3.0,lower,70.0,70.0,57.0,133.0,133.0,57.0,2,2.9291906356811523,None,,,,,0,0,0,0,0,36,36,62,107.31570982933044,,,,,,,,,,,,,,,,,,,,,,,,,,,,,,,,,,,,,,,,,,,,,,,,,,,,,,,,,,,,,,,,,,,,,,,,,,,,,,,,,70.0,70.0,57.0,133.0,133.0,57.0,3.0,3.2,-198,-281,0,1,191,261,107.30213189125061,107.30221152305603,107.30535364151001,107.31570982933044,107.46943640708923,107.46943640708923,107.46943640708923,107.46943640708923,107.46943640708923,107.46943640708923,107.46943640708923,110.25028371810913,2,2.9291906356811523,None,,,,,,,,,,,,,,,,,,197,2,2025-03-05_14h28.26.128,comp,2024.2.4,57.93429616451374,2025-03-05 14h28.50.584252 -0500,
37,37,0,filler_random,None,None,None,None,None,None,None,None,None,None,1,2.018831968307495,None,,,,,0,0,0,0,0,37,37,150,110.26620244979858,,,,,,,,,,,,,,,,,,,,,,,,,,,,,,,,,,,,,,,,,,,,,,,,,,,,,,,,,,,,,,,,,,,,,,,,,,,,,,,,,152.6277035950834,182.73404509329475,103.44882004888598,64.56888473024566,115.2816590121945,159.26451888949182,4.0,4.1,-220,-285,0,6,208,-288,110.25199937820435,110.25207948684692,110.25546669960022,110.26620244979858,110.4154577255249,110.4154577255249,110.4154577255249,110.4154577255249,110.4154577255249,110.4154577255249,110.4154577255249,112.28752613067627,1,2.018831968307495,None,,,,,,,,,,,,,,,,,,197,2,2025-03-05_14h28.26.128,comp,2024.2.4,57.93429616451374,2025-03-05 14h28.50.584252 -0500,
38,38,0,catch,None,None,None,None,None,None,None,None,None,None,2,1.1772682666778564,None,,,,,0,0,0,0,0,38,38,124,112.30738496780396,,,,,,,,,,,,,,,,,,,,,,,,,,,,,,,,,,,,,,,,,,,,,,,,,,,,,,,,,,,,,,,,,,,,,,,,,,,,,,,,,105,85,153,172,72,118,4.0,4.1,-224,-279,0,-20,241,-278,112.2895941734314,112.28967356681824,112.29255056381226,112.30738496780396,112.45116090774536,112.45116090774536,112.45116090774536,112.45116090774536,112.45116090774536,112.45116090774536,112.45116090774536,113.50038719177246,2,1.1772682666778564,None,,,,,,,,,,,,,,,,,,197,2,2025-03-05_14h28.26.128,comp,2024.2.4,57.93429616451374,2025-03-05 14h28.50.584252 -0500,
39,39,0,filler_random,None,None,None,None,None,None,None,None,None,None,1,1.3528392314910889,None,,,,,0,0,0,0,0,39,39,141,113.51578688621521,,,,,,,,,,,,,,,,,,,,,,,,,,,,,,,,,,,,,,,,,,,,,,,,,,,,,,,,,,,,,,,,,,,,,,,,,,,,,,,,,94.28610430225342,126.66157132503156,80.67355123983602,60.48688147948766,69.3534295301996,73.18641355860562,2.2,2.22,-190,266,0,-250,163,-271,113.50210475921631,113.5021812915802,113.50554537773132,113.51578688621521,113.66472434997559,113.66472434997559,113.66472434997559,113.66472434997559,113.66472434997559,113.66472434997559,113.66472434997559,114.88408041000366,1,1.3528392314910889,None,,,,,,,,,,,,,,,,,,197,2,2025-03-05_14h28.26.128,comp,2024.2.4,57.93429616451374,2025-03-05 14h28.50.584252 -0500,
40,40,0,critical,hdw,35.0,4.0,lower,133.0,57.0,70.0,70.0,57.0,133.0,1,1.5047435760498047,None,,,,,0,0,0,0,0,40,40,112,114.90002202987671,,,,,,,,,,,,,,,,,,,,,,,,,,,,,,,,,,,,,,,,,,,,,,,,,,,,,,,,,,,,,,,,,,,,,,,,,,,,,,,,,133.0,57.0,70.0,70.0,57.0,133.0,4.0,4.2,-160,-19,0,-251,198,-15,114.88586854934692,114.88599872589111,114.88958477973938,114.90002202987671,115.05092549324036,115.05092549324036,115.05092549324036,115.05092549324036,115.05092549324036,115.05092549324036,115.05092549324036,116.42266035079956,1,1.5047435760498047,None,,,,,,,,,,,,,,,,,,197,2,2025-03-05_14h28.26.128,comp,2024.2.4,57.93429616451374,2025-03-05 14h28.50.584252 -0500,
41,41,0,critical,whd,20.0,2.1,lower,57.0,133.0,133.0,57.0,78.0,78.0,1,3.6943519115448,None,,,,,0,0,0,0,0,41,41,38,116.43886590003967,,,,,,,,,,,,,,,,,,,,,,,,,,,,,,,,,,,,,,,,,,,,,,,,,,,,,,,,,,,,,,,,,,,,,,,,,,,,,,,,,57.0,133.0,133.0,57.0,78.0,78.0,2.1,2.11,-191,271,0,283,164,-266,116.42458128929138,116.42471170425415,116.42771577835083,116.43886590003967,116.58722925186157,116.58722925186157,116.58722925186157,116.58722925186157,116.58722925186157,116.58722925186157,116.58722925186157,120.13864350318909,1,3.6943519115448,None,,,,,,,,,,,,,,,,,,197,2,2025-03-05_14h28.26.128,comp,2024.2.4,57.93429616451374,2025-03-05 14h28.50.584252 -0500,
42,42,0,critical,hdw,35.0,2.1,lower,133.0,57.0,70.0,70.0,57.0,133.0,1,2.386228322982788,None,,,,,0,0,0,0,0,42,42,20,120.15472221374512,,,,,,,,,,,,,,,,,,,,,,,,,,,,,,,,,,,,,,,,,,,,,,,,,,,,,,,,,,,,,,,,,,,,,,,,,,,,,,,,,133.0,57.0,70.0,70.0,57.0,133.0,2.1,2.12,-160,-263,0,-288,198,257,120.1404173374176,120.14053893089294,120.14389157295227,120.15472221374512,120.31077647209167,120.31077647209167,120.31077647209167,120.31077647209167,120.31077647209167,120.31077647209167,120.31077647209167,122.54329514503479,1,2.386228322982788,None,,,,,,,,,,,,,,,,,,197,2,2025-03-05_14h28.26.128,comp,2024.2.4,57.93429616451374,2025-03-05 14h28.50.584252 -0500,
43,43,0,filler_random,None,None,None,None,None,None,None,None,None,None,3,1.1687064170837402,None,,,,,0,0,0,0,0,43,43,143,122.56439447402954,,,,,,,,,,,,,,,,,,,,,,,,,,,,,,,,,,,,,,,,,,,,,,,,,,,,,,,,,,,,,,,,,,,,,,,,,,,,,,,,,164.02173621189397,144.34858045786066,160.48410888276052,156.3085452833418,166.63352030600126,185.1057128296099,1.0,1.3,234,-283,480,-275,747,-264,122.54519295692444,122.54527735710144,122.54846215248108,122.56439447402954,122.70424103736877,122.70424103736877,122.70424103736877,122.70424103736877,122.70424103736877,122.70424103736877,122.70424103736877,123.73544073104858,3,1.1687064170837402,None,,,,,,,,,,,,,,,,,,197,2,2025-03-05_14h28.26.128,comp,2024.2.4,57.93429616451374,2025-03-05 14h28.50.584252 -0500,
44,44,0,filler_random,None,None,None,None,None,None,None,None,None,None,1,1.3963651657104492,None,,,,,0,0,0,0,0,44,44,168,123.7524631023407,,,,,,,,,,,,,,,,,,,,,,,,,,,,,,,,,,,,,,,,,,,,,,,,,,,,,,,,,,,,,,,,,,,,,,,,,,,,,,,,,114.08288838231702,184.92447016249577,91.3081814772381,171.18771282338116,73.93409974312108,188.68471202282302,4.0,4.2,-274,-8,0,-286,276,-17,123.73726320266724,123.73735356330872,123.74063181877136,123.7524631023407,123.90556335449219,123.90556335449219,123.90556335449219,123.90556335449219,123.90556335449219,123.90556335449219,123.90556335449219,125.16082000732422,1,1.3963651657104492,None,,,,,,,,,,,,,,,,,,197,2,2025-03-05_14h28.26.128,comp,2024.2.4,57.93429616451374,2025-03-05 14h28.50.584252 -0500,
45,45,0,catch,None,None,None,None,None,None,None,None,None,None,1,1.825920581817627,None,,,,,0,0,0,0,0,45,45,125,125.1796088218689,,,,,,,,,,,,,,,,,,,,,,,,,,,,,,,,,,,,,,,,,,,,,,,,,,,,,,,,,,,,,,,,,,,,,,,,,,,,,,,,,133,192,133,57,132,58,3.0,3.1,-220,283,0,-12,154,-266,125.1629900932312,125.1630699634552,125.16632652282715,125.1796088218689,125.32091784477234,125.32091784477234,125.32091784477234,125.32091784477234,125.32091784477234,125.32091784477234,125.32091784477234,127.01301622390747,1,1.825920581817627,None,,,,,,,,,,,,,,,,,,197,2,2025-03-05_14h28.26.128,comp,2024.2.4,57.93429616451374,2025-03-05 14h28.50.584252 -0500,
46,46,0,critical,whd,35.0,2.1,lower,57.0,133.0,133.0,57.0,70.0,70.0,2,1.5049915313720703,None,,,,,0,0,0,0,0,46,46,36,127.02852725982666,,,,,,,,,,,,,,,,,,,,,,,,,,,,,,,,,,,,,,,,,,,,,,,,,,,,,,,,,,,,,,,,,,,,,,,,,,,,,,,,,57.0,133.0,133.0,57.0,70.0,70.0,2.1,2.12,-191,-255,0,-276,160,282,127.01453304290771,127.01461267471313,127.01754021644592,127.02852725982666,127.17127680778503,127.17127680778503,127.17127680778503,127.17127680778503,127.17127680778503,127.17127680778503,127.17127680778503,128.53868770599365,2,1.5049915313720703,None,,,,,,,,,,,,,,,,,,197,2,2025-03-05_14h28.26.128,comp,2024.2.4,57.93429616451374,2025-03-05 14h28.50.584252 -0500,
47,47,0,critical,hwd,20.0,4.0,lower,133.0,57.0,57.0,133.0,78.0,78.0,1,1.234677791595459,None,,,,,0,0,0,0,0,47,47,106,128.55459427833557,,,,,,,,,,,,,,,,,,,,,,,,,,,,,,,,,,,,,,,,,,,,,,,,,,,,,,,,,,,,,,,,,,,,,,,,,,,,,,,,,133.0,57.0,57.0,133.0,78.0,78.0,4.0,4.1,-191,-289,0,7,202,-277,128.54024028778076,128.54031777381897,128.54358911514282,128.55459427833557,128.70936727523804,128.70936727523804,128.70936727523804,128.70936727523804,128.70936727523804,128.70936727523804,128.70936727523804,129.7931990623474,1,1.234677791595459,None,,,,,,,,,,,,,,,,,,197,2,2025-03-05_14h28.26.128,comp,2024.2.4,57.93429616451374,2025-03-05 14h28.50.584252 -0500,
48,48,0,critical,hdw,35.0,4.0,upper,200.0,125.0,127.0,127.0,125.0,200.0,1,1.36466646194458,None,,,,,0,0,0,0,0,48,48,113,129.80914855003357,,,,,,,,,,,,,,,,,,,,,,,,,,,,,,,,,,,,,,,,,,,,,,,,,,,,,,,,,,,,,,,,,,,,,,,,,,,,,,,,,200.0,125.0,127.0,127.0,125.0,200.0,4.0,4.1,-222,-251,0,-13,260,-265,129.79484295845032,129.79492783546448,129.7981083393097,129.80914855003357,129.95488357543945,129.95488357543945,129.95488357543945,129.95488357543945,129.95488357543945,129.95488357543945,129.95488357543945,131.17848753929138,1,1.36466646194458,None,,,,,,,,,,,,,,,,,,197,2,2025-03-05_14h28.26.128,comp,2024.2.4,57.93429616451374,2025-03-05 14h28.50.584252 -0500,
49,49,0,filler_random,None,None,None,None,None,None,None,None,None,None,2,1.0424635410308838,None,,,,,0,0,0,0,0,49,49,145,131.19489669799805,,,,,,,,,,,,,,,,,,,,,,,,,,,,,,,,,,,,,,,,,,,,,,,,,,,,,,,,,,,,,,,,,,,,,,,,,,,,,,,,,61.858174918987835,132.66158295895303,147.6881701048638,178.12633866962432,135.01804183134558,61.859239882946945,2.1,2.11,-251,269,0,255,216,-252,131.18029475212097,131.18037486076355,131.18329095840454,131.19489669799805,131.3407814502716,131.3407814502716,131.3407814502716,131.3407814502716,131.3407814502716,131.3407814502716,131.3407814502716,132.24085187911987,2,1.0424635410308838,None,,,,,,,,,,,,,,,,,,197,2,2025-03-05_14h28.26.128,comp,2024.2.4,57.93429616451374,2025-03-05 14h28.50.584252 -0500,
50,50,0,critical,wdh,20.0,2.1,lower,57.0,133.0,78.0,78.0,133.0,57.0,3,1.7242074012756348,None,,,,,0,0,0,0,0,50,50,34,132.25702786445618,,,,,,,,,,,,,,,,,,,,,,,,,,,,,,,,,,,,,,,,,,,,,,,,,,,,,,,,,,,,,,,,,,,,,,,,,,,,,,,,,57.0,133.0,78.0,78.0,133.0,57.0,2.1,2.11,-202,283,0,257,164,-281,132.24252367019653,132.24262523651123,132.24619841575623,132.25702786445618,132.40582704544067,132.40582704544067,132.40582704544067,132.40582704544067,132.40582704544067,132.40582704544067,132.40582704544067,133.9917232990265,3,1.7242074012756348,None,,,,,,,,,,,,,,,,,,197,2,2025-03-05_14h28.26.128,comp,2024.2.4,57.93429616451374,2025-03-05 14h28.50.584252 -0500,
51,51,0,critical,hdw,35.0,2.1,upper,200.0,125.0,127.0,127.0,125.0,200.0,1,1.6293754577636719,None,,,,,0,0,0,0,0,51,51,21,134.00761675834656,,,,,,,,,,,,,,,,,,,,,,,,,,,,,,,,,,,,,,,,,,,,,,,,,,,,,,,,,,,,,,,,,,,,,,,,,,,,,,,,,200.0,125.0,127.0,127.0,125.0,200.0,2.1,2.12,-222,-275,0,-262,260,268,133.9933478832245,133.9934561252594,133.9969403743744,134.00761675834656,134.15694403648376,134.15694403648376,134.15694403648376,134.15694403648376,134.15694403648376,134.15694403648376,134.15694403648376,135.64203524589539,1,1.6293754577636719,None,,,,,,,,,,,,,,,,,,197,2,2025-03-05_14h28.26.128,comp,2024.2.4,57.93429616451374,2025-03-05 14h28.50.584252 -0500,
52,52,0,filler_random,None,None,None,None,None,None,None,None,None,None,3,0.9426453113555908,None,,,,,0,0,0,0,0,52,52,139,135.66262245178223,,,,,,,,,,,,,,,,,,,,,,,,,,,,,,,,,,,,,,,,,,,,,,,,,,,,,,,,,,,,,,,,,,,,,,,,,,,,,,,,,125.7718934653257,130.39418271573976,163.9394842021029,124.84482485387979,183.66332723442991,187.46373041549717,4.0,4.1,-224,-267,0,-13,252,-282,135.6437544822693,135.64386510849,135.64686274528503,135.66262245178223,135.80650067329407,135.80650067329407,135.80650067329407,135.80650067329407,135.80650067329407,135.80650067329407,135.80650067329407,136.61009407043457,3,0.9426453113555908,None,,,,,,,,,,,,,,,,,,197,2,2025-03-05_14h28.26.128,comp,2024.2.4,57.93429616451374,2025-03-05 14h28.50.584252 -0500,
53,53,0,critical,hwd,20.0,1.0,lower,133.0,57.0,57.0,133.0,78.0,78.0,2,2.7299740314483643,None,,,,,0,0,0,0,0,53,53,102,136.62704300880432,,,,,,,,,,,,,,,,,,,,,,,,,,,,,,,,,,,,,,,,,,,,,,,,,,,,,,,,,,,,,,,,,,,,,,,,,,,,,,,,,133.0,57.0,57.0,133.0,78.0,78.0,1.0,1.1,-671,274,-480,285,-278,285,136.61173152923584,136.61188292503357,136.61529517173767,136.62704300880432,136.77609515190125,136.77609515190125,136.77609515190125,136.77609515190125,136.77609515190125,136.77609515190125,136.77609515190125,139.3748960494995,2,2.7299740314483643,None,,,,,,,,,,,,,,,,,,197,2,2025-03-05_14h28.26.128,comp,2024.2.4,57.93429616451374,2025-03-05 14h28.50.584252 -0500,
54,54,0,filler_square,None,None,None,None,None,None,None,None,None,None,1,1.3328356742858887,None,,,,,0,0,0,0,0,54,54,202,139.39285397529602,,,,,,,,,,,,,,,,,,,,,,,,,,,,,,,,,,,,,,,,,,,,,,,,,,,,,,,,,,,,,,,,,,,,,,,,,,,,,,,,,149.51920229325032,149.51920229325032,81.67247379028416,90.57706556254932,77.82066147393684,125.56797922828417,2.1,2.12,-216,-263,0,-282,204,251,139.37683272361755,139.37692594528198,139.38011145591736,139.39285397529602,139.5424666404724,139.5424666404724,139.5424666404724,139.5424666404724,139.5424666404724,139.5424666404724,139.5424666404724,140.74437189102173,1,1.3328356742858887,None,,,,,,,,,,,,,,,,,,197,2,2025-03-05_14h28.26.128,comp,2024.2.4,57.93429616451374,2025-03-05 14h28.50.584252 -0500,
55,55,0,critical,hdw,35.0,3.0,upper,200.0,125.0,127.0,127.0,125.0,200.0,1,2.388934373855591,None,,,,,0,0,0,0,0,55,55,111,140.76051473617554,,,,,,,,,,,,,,,,,,,,,,,,,,,,,,,,,,,,,,,,,,,,,,,,,,,,,,,,,,,,,,,,,,,,,,,,,,,,,,,,,200.0,125.0,127.0,127.0,125.0,200.0,3.0,3.2,-222,-289,0,11,260,285,140.7448160648346,140.74483513832092,140.74564743041992,140.76051473617554,140.9099040031433,140.9099040031433,140.9099040031433,140.9099040031433,140.9099040031433,140.9099040031433,140.9099040031433,143.16352939605713,1,2.388934373855591,None,,,,,,,,,,,,,,,,,,197,2,2025-03-05_14h28.26.128,comp,2024.2.4,57.93429616451374,2025-03-05 14h28.50.584252 -0500,
56,56,0,filler_square,None,None,None,None,None,None,None,None,None,None,1,1.93648362159729,None,,,,,0,0,0,0,0,56,56,197,143.1804015636444,,,,,,,,,,,,,,,,,,,,,,,,,,,,,,,,,,,,,,,,,,,,,,,,,,,,,,,,,,,,,,,,,,,,,,,,,,,,,,,,,186.28850973719355,186.28850973719355,93.19626465020526,171.95977800994075,121.53970917475951,179.11925127403208,3.0,3.1,-275,262,0,-15,272,-286,143.1656482219696,143.16573333740234,143.16911673545837,143.1804015636444,143.33022570610046,143.33022570610046,143.33022570610046,143.33022570610046,143.33022570610046,143.33022570610046,143.33022570610046,145.12792015075684,1,1.93648362159729,None,,,,,,,,,,,,,,,,,,197,2,2025-03-05_14h28.26.128,comp,2024.2.4,57.93429616451374,2025-03-05 14h28.50.584252 -0500,
57,57,0,critical,dhw,35.0,2.1,upper,127.0,127.0,200.0,125.0,125.0,200.0,3,1.0775866508483887,None,,,,,0,0,0,0,0,57,57,1,145.14448976516724,,,,,,,,,,,,,,,,,,,,,,,,,,,,,,,,,,,,,,,,,,,,,,,,,,,,,,,,,,,,,,,,,,,,,,,,,,,,,,,,,127.0,127.0,200.0,125.0,125.0,200.0,2.1,2.11,-222,281,0,273,258,-264,145.12954020500183,145.12961626052856,145.13375782966614,145.14448976516724,145.293048620224,145.293048620224,145.293048620224,145.293048620224,145.293048620224,145.293048620224,145.293048620224,146.2283058166504,3,1.0775866508483887,None,,,,,,,,,,,,,,,,,,197,2,2025-03-05_14h28.26.128,comp,2024.2.4,57.93429616451374,2025-03-05 14h28.50.584252 -0500,
58,58,0,filler_square,None,None,None,None,None,None,None,None,None,None,2,2.048341751098633,None,,,,,0,0,0,0,0,58,58,175,146.24445939064026,,,,,,,,,,,,,,,,,,,,,,,,,,,,,,,,,,,,,,,,,,,,,,,,,,,,,,,,,,,,,,,,,,,,,,,,,,,,,,,,,78.01101116729885,78.01101116729885,77.33744142798669,75.72580028330928,64.63550687380948,61.559707498750406,2.2,2.21,-173,-259,0,251,165,280,146.23014569282532,146.2302234172821,146.23374009132385,146.24445939064026,146.39433598518372,146.39433598518372,146.39433598518372,146.39433598518372,146.39433598518372,146.39433598518372,146.39433598518372,148.31055808067322,2,2.048341751098633,None,,,,,,,,,,,,,,,,,,197,2,2025-03-05_14h28.26.128,comp,2024.2.4,57.93429616451374,2025-03-05 14h28.50.584252 -0500,
59,59,0,critical,wdh,20.0,2.1,lower,57.0,133.0,78.0,78.0,133.0,57.0,1,2.7500646114349365,None,,,,,0,0,0,0,0,59,59,10,148.3267047405243,,,,,,,,,,,,,,,,,,,,,,,,,,,,,,,,,,,,,,,,,,,,,,,,,,,,,,,,,,,,,,,,,,,,,,,,,,,,,,,,,57.0,133.0,78.0,78.0,133.0,57.0,2.1,2.12,-202,-272,0,-254,164,286,148.31211471557617,148.31218814849854,148.31536960601807,148.3267047405243,148.46704721450806,148.46704721450806,148.46704721450806,148.46704721450806,148.46704721450806,148.46704721450806,148.46704721450806,151.08035230636597,1,2.7500646114349365,None,,,,,,,,,,,,,,,,,,197,2,2025-03-05_14h28.26.128,comp,2024.2.4,57.93429616451374,2025-03-05 14h28.50.584252 -0500,
60,60,0,filler_random,None,None,None,None,None,None,None,None,None,None,2,1.3484301567077637,None,,,,,0,0,0,0,0,60,60,156,151.09650707244873,,,,,,,,,,,,,,,,,,,,,,,,,,,,,,,,,,,,,,,,,,,,,,,,,,,,,,,,,,,,,,,,,,,,,,,,,,,,,,,,,139.3636498449995,162.88363920623954,131.15045630580795,150.4315692271294,103.34965631070541,160.3455779175785,4.0,4.2,-253,-8,0,-285,251,-6,151.0822513103485,151.08233261108398,151.08569502830505,151.09650707244873,151.25212407112122,151.25212407112122,151.25212407112122,151.25212407112122,151.25212407112122,151.25212407112122,151.25212407112122,152.46224212646484,2,1.3484301567077637,None,,,,,,,,,,,,,,,,,,197,2,2025-03-05_14h28.26.128,comp,2024.2.4,57.93429616451374,2025-03-05 14h28.50.584252 -0500,
61,61,0,filler_square,None,None,None,None,None,None,None,None,None,None,2,0.9101691246032715,None,,,,,0,0,0,0,0,61,61,185,152.47851514816284,,,,,,,,,,,,,,,,,,,,,,,,,,,,,,,,,,,,,,,,,,,,,,,,,,,,,,,,,,,,,,,,,,,,,,,,,,,,,,,,,87.42068269396293,99.10799179207203,137.69432756173825,137.69432756173825,72.28610017682708,86.61742415914831,2.1,2.12,-214,-268,0,-284,208,259,152.4639389514923,152.4640166759491,152.46712732315063,152.47851514816284,152.63126134872437,152.63126134872437,152.63126134872437,152.63126134872437,152.63126134872437,152.63126134872437,152.63126134872437,153.39861798286438,2,0.9101691246032715,None,,,,,,,,,,,,,,,,,,197,2,2025-03-05_14h28.26.128,comp,2024.2.4,57.93429616451374,2025-03-05 14h28.50.584252 -0500,
62,62,0,filler_square,None,None,None,None,None,None,None,None,None,None,3,5.205901622772217,None,,,,,0,0,0,0,0,62,62,206,153.41494178771973,,,,,,,,,,,,,,,,,,,,,,,,,,,,,,,,,,,,,,,,,,,,,,,,,,,,,,,,,,,,,,,,,,,,,,,,,,,,,,,,,57.50815546628606,58.19525936507393,57.719617643928274,58.22284251204865,58.34469657543145,58.34469657543145,1.0,1.1,-634,278,-480,279,-326,254,153.4005582332611,153.40064001083374,153.40374445915222,153.41494178771973,153.56194877624512,153.56194877624512,153.56194877624512,153.56194877624512,153.56194877624512,153.56194877624512,153.56194877624512,158.62552523612976,3,5.205901622772217,None,,,,,,,,,,,,,,,,,,197,2,2025-03-05_14h28.26.128,comp,2024.2.4,57.93429616451374,2025-03-05 14h28.50.584252 -0500,
63,63,0,filler_random,None,None,None,None,None,None,None,None,None,None,3,1.6825015544891357,None,,,,,0,0,0,0,0,63,63,146,158.64309167861938,,,,,,,,,,,,,,,,,,,,,,,,,,,,,,,,,,,,,,,,,,,,,,,,,,,,,,,,,,,,,,,,,,,,,,,,,,,,,,,,,113.16786899921894,66.23737137641353,88.24865570599063,110.74193247780856,134.9160091864607,149.89632486714945,2.2,2.21,-184,-252,0,268,226,286,158.62726259231567,158.62734174728394,158.63022637367249,158.64309167861938,158.78172302246094,158.78172302246094,158.78172302246094,158.78172302246094,158.78172302246094,158.78172302246094,158.78172302246094,160.33209013938904,3,1.6825015544891357,None,,,,,,,,,,,,,,,,,,197,2,2025-03-05_14h28.26.128,comp,2024.2.4,57.93429616451374,2025-03-05 14h28.50.584252 -0500,
64,64,0,critical,hwd,35.0,3.0,lower,133.0,57.0,57.0,133.0,70.0,70.0,2,1.7779605388641357,None,,,,,0,0,0,0,0,64,64,98,160.34722137451172,,,,,,,,,,,,,,,,,,,,,,,,,,,,,,,,,,,,,,,,,,,,,,,,,,,,,,,,,,,,,,,,,,,,,,,,,,,,,,,,,133.0,57.0,57.0,133.0,70.0,70.0,3.0,3.1,-191,290,0,5,198,-268,160.33382058143616,160.33396315574646,160.33743333816528,160.34722137451172,160.49745345115662,160.49745345115662,160.49745345115662,160.49745345115662,160.49745345115662,160.49745345115662,160.49745345115662,162.14189338684082,2,1.7779605388641357,None,,,,,,,,,,,,,,,,,,197,2,2025-03-05_14h28.26.128,comp,2024.2.4,57.93429616451374,2025-03-05 14h28.50.584252 -0500,
65,65,0,filler_random,None,None,None,None,None,None,None,None,None,None,2,1.8953142166137695,None,,,,,0,0,0,0,0,65,65,154,162.15772485733032,,,,,,,,,,,,,,,,,,,,,,,,,,,,,,,,,,,,,,,,,,,,,,,,,,,,,,,,,,,,,,,,,,,,,,,,,,,,,,,,,146.46292056927282,63.709333608130365,110.91150919812367,195.31155815141327,145.02633622282505,111.67480394910694,1.0,1.1,-706,254,-480,258,-231,286,162.14358973503113,162.14366912841797,162.14653897285461,162.15772485733032,162.2981095314026,162.2981095314026,162.2981095314026,162.2981095314026,162.2981095314026,162.2981095314026,162.2981095314026,164.06894755363464,2,1.8953142166137695,None,,,,,,,,,,,,,,,,,,197,2,2025-03-05_14h28.26.128,comp,2024.2.4,57.93429616451374,2025-03-05 14h28.50.584252 -0500,
66,66,0,filler_square,None,None,None,None,None,None,None,None,None,None,2,1.4796371459960938,None,,,,,0,0,0,0,0,66,66,196,164.08518505096436,,,,,,,,,,,,,,,,,,,,,,,,,,,,,,,,,,,,,,,,,,,,,,,,,,,,,,,,,,,,,,,,,,,,,,,,,,,,,,,,,148.31634441943407,127.3630060754691,196.79108152819904,196.79108152819904,149.2990315358145,180.93769983478273,3.0,3.1,-258,255,0,-2,285,-268,164.0708622932434,164.0709421634674,164.07407069206238,164.08518505096436,164.2324562072754,164.2324562072754,164.2324562072754,164.2324562072754,164.2324562072754,164.2324562072754,164.2324562072754,165.56702756881714,2,1.4796371459960938,None,,,,,,,,,,,,,,,,,,197,2,2025-03-05_14h28.26.128,comp,2024.2.4,57.93429616451374,2025-03-05 14h28.50.584252 -0500,
67,67,0,critical,wdh,35.0,3.0,upper,125.0,200.0,127.0,127.0,200.0,125.0,1,3.686008930206299,None,,,,,0,0,0,0,0,67,67,75,165.58282136917114,,,,,,,,,,,,,,,,,,,,,,,,,,,,,,,,,,,,,,,,,,,,,,,,,,,,,,,,,,,,,,,,,,,,,,,,,,,,,,,,,125.0,200.0,127.0,127.0,200.0,125.0,3.0,3.2,-260,-265,0,-10,222,263,165.56856489181519,165.56864380836487,165.57210230827332,165.58282136917114,165.73045778274536,165.73045778274536,165.73045778274536,165.73045778274536,165.73045778274536,165.73045778274536,165.73045778274536,169.28264355659485,1,3.686008930206299,None,,,,,,,,,,,,,,,,,,197,2,2025-03-05_14h28.26.128,comp,2024.2.4,57.93429616451374,2025-03-05 14h28.50.584252 -0500,
68,68,0,critical,dhw,20.0,1.0,lower,78.0,78.0,133.0,57.0,57.0,133.0,2,4.330782413482666,None,,,,,0,0,0,0,0,68,68,54,169.29868459701538,,,,,,,,,,,,,,,,,,,,,,,,,,,,,,,,,,,,,,,,,,,,,,,,,,,,,,,,,,,,,,,,,,,,,,,,,,,,,,,,,78.0,78.0,133.0,57.0,57.0,133.0,1.0,1.2,-164,-13,0,-3,191,-2,169.28414869308472,169.28422617912292,169.28732299804688,169.29868459701538,169.43412733078003,169.43412733078003,169.43412733078003,169.43412733078003,169.43412733078003,169.43412733078003,169.43412733078003,173.63727617263794,2,4.330782413482666,None,,,,,,,,,,,,,,,,,,197,2,2025-03-05_14h28.26.128,comp,2024.2.4,57.93429616451374,2025-03-05 14h28.50.584252 -0500,
69,69,0,filler_random,None,None,None,None,None,None,None,None,None,None,1,4.430460453033447,None,,,,,0,0,0,0,0,69,69,165,173.6543333530426,,,,,,,,,,,,,,,,,,,,,,,,,,,,,,,,,,,,,,,,,,,,,,,,,,,,,,,,,,,,,,,,,,,,,,,,,,,,,,,,,133.45318342939075,193.6845839970221,184.85888873709226,135.25266445552418,111.07179274510817,160.15867318461176,2.1,2.11,-260,252,0,290,244,-290,173.6391317844391,173.63926911354065,173.64257287979126,173.6543333530426,173.8023762702942,173.8023762702942,173.8023762702942,173.8023762702942,173.8023762702942,173.8023762702942,173.8023762702942,178.08870267868042,1,4.430460453033447,None,,,,,,,,,,,,,,,,,,197,2,2025-03-05_14h28.26.128,comp,2024.2.4,57.93429616451374,2025-03-05 14h28.50.584252 -0500,
70,70,0,filler_random,None,None,None,None,None,None,None,None,None,None,3,1.0520837306976318,None,,,,,0,0,0,0,0,70,70,137,178.10491013526917,,,,,,,,,,,,,,,,,,,,,,,,,,,,,,,,,,,,,,,,,,,,,,,,,,,,,,,,,,,,,,,,,,,,,,,,,,,,,,,,,66.07370563599272,62.33538103442303,148.0112081539828,155.33317483805138,145.93555092633375,198.70926729445515,1.0,1.2,-205,-15,0,7,273,2,178.09054470062256,178.09067845344543,178.09406852722168,178.10491013526917,178.25481581687927,178.25481581687927,178.25481581687927,178.25481581687927,178.25481581687927,178.25481581687927,178.25481581687927,179.1595094203949,3,1.0520837306976318,None,,,,,,,,,,,,,,,,,,197,2,2025-03-05_14h28.26.128,comp,2024.2.4,57.93429616451374,2025-03-05 14h28.50.584252 -0500,
71,71,0,critical,wdh,35.0,2.1,lower,57.0,133.0,70.0,70.0,133.0,57.0,1,1.7379226684570312,None,,,,,0,0,0,0,0,71,71,32,179.17925381660461,,,,,,,,,,,,,,,,,,,,,,,,,,,,,,,,,,,,,,,,,,,,,,,,,,,,,,,,,,,,,,,,,,,,,,,,,,,,,,,,,57.0,133.0,70.0,70.0,133.0,57.0,2.1,2.12,-198,-276,0,-261,160,282,179.16107606887817,179.16115498542786,179.16406083106995,179.17925381660461,179.32173252105713,179.32173252105713,179.32173252105713,179.32173252105713,179.32173252105713,179.32173252105713,179.32173252105713,180.92178201675415,1,1.7379226684570312,None,,,,,,,,,,,,,,,,,,197,2,2025-03-05_14h28.26.128,comp,2024.2.4,57.93429616451374,2025-03-05 14h28.50.584252 -0500,
72,72,0,filler_random,None,None,None,None,None,None,None,None,None,None,1,2.1463029384613037,None,,,,,0,0,0,0,0,72,72,134,180.93855118751526,,,,,,,,,,,,,,,,,,,,,,,,,,,,,,,,,,,,,,,,,,,,,,,,,,,,,,,,,,,,,,,,,,,,,,,,,,,,,,,,,151.37984094291613,130.22265375137272,92.75038592267138,101.43486734033166,58.79847845838259,170.55600312547705,2.2,2.22,-212,273,0,-256,232,-273,180.92377352714539,180.92389178276062,180.9274513721466,180.93855118751526,181.08658981323242,181.08658981323242,181.08658981323242,181.08658981323242,181.08658981323242,181.08658981323242,181.08658981323242,183.09488558769226,1,2.1463029384613037,None,,,,,,,,,,,,,,,,,,197,2,2025-03-05_14h28.26.128,comp,2024.2.4,57.93429616451374,2025-03-05 14h28.50.584252 -0500,
73,73,0,critical,hwd,20.0,1.0,upper,200.0,125.0,125.0,200.0,141.0,141.0,2,3.813337802886963,None,,,,,0,0,0,0,0,73,73,103,183.11164474487305,,,,,,,,,,,,,,,,,,,,,,,,,,,,,,,,,,,,,,,,,,,,,,,,,,,,,,,,,,,,,,,,,,,,,,,,,,,,,,,,,200.0,125.0,125.0,200.0,141.0,141.0,1.0,1.1,-738,285,-480,278,-214,263,183.09651803970337,183.09659814834595,183.09990668296814,183.11164474487305,183.25813364982605,183.25813364982605,183.25813364982605,183.25813364982605,183.25813364982605,183.25813364982605,183.25813364982605,186.94034624099731,2,3.813337802886963,None,,,,,,,,,,,,,,,,,,197,2,2025-03-05_14h28.26.128,comp,2024.2.4,57.93429616451374,2025-03-05 14h28.50.584252 -0500,
74,74,0,critical,dhw,35.0,1.0,lower,70.0,70.0,133.0,57.0,57.0,133.0,2,3.833296537399292,None,,,,,0,0,0,0,0,74,74,48,186.9563431739807,,,,,,,,,,,,,,,,,,,,,,,,,,,,,,,,,,,,,,,,,,,,,,,,,,,,,,,,,,,,,,,,,,,,,,,,,,,,,,,,,70.0,70.0,133.0,57.0,57.0,133.0,1.0,1.3,320,-259,480,-269,671,-269,186.94190955162048,186.94200491905212,186.94610214233398,186.9563431739807,187.10393738746643,187.10393738746643,187.10393738746643,187.10393738746643,187.10393738746643,187.10393738746643,187.10393738746643,190.80896162986755,2,3.833296537399292,None,,,,,,,,,,,,,,,,,,197,2,2025-03-05_14h28.26.128,comp,2024.2.4,57.93429616451374,2025-03-05 14h28.50.584252 -0500,
75,75,0,critical,hwd,35.0,2.1,lower,133.0,57.0,57.0,133.0,70.0,70.0,1,2.6774818897247314,None,,,,,0,0,0,0,0,75,75,40,190.82493114471436,,,,,,,,,,,,,,,,,,,,,,,,,,,,,,,,,,,,,,,,,,,,,,,,,,,,,,,,,,,,,,,,,,,,,,,,,,,,,,,,,133.0,57.0,57.0,133.0,70.0,70.0,2.1,2.12,-191,-283,0,-252,198,287,190.81056547164917,190.81064224243164,190.81469440460205,190.82493114471436,190.97243642807007,190.97243642807007,190.97243642807007,190.97243642807007,190.97243642807007,190.97243642807007,190.97243642807007,193.5075340270996,1,2.6774818897247314,None,,,,,,,,,,,,,,,,,,197,2,2025-03-05_14h28.26.128,comp,2024.2.4,57.93429616451374,2025-03-05 14h28.50.584252 -0500,
76,76,0,critical,whd,20.0,3.0,lower,57.0,133.0,133.0,57.0,78.0,78.0,2,1.2423324584960938,None,,,,,0,0,0,0,0,76,76,92,193.52366161346436,,,,,,,,,,,,,,,,,,,,,,,,,,,,,,,,,,,,,,,,,,,,,,,,,,,,,,,,,,,,,,,,,,,,,,,,,,,,,,,,,57.0,133.0,133.0,57.0,78.0,78.0,3.0,3.2,-191,-270,0,13,164,260,193.50919818878174,193.50927758216858,193.51261401176453,193.52366161346436,193.67873764038086,193.67873764038086,193.67873764038086,193.67873764038086,193.67873764038086,193.67873764038086,193.67873764038086,194.77722835540771,2,1.2423324584960938,None,,,,,,,,,,,,,,,,,,197,2,2025-03-05_14h28.26.128,comp,2024.2.4,57.93429616451374,2025-03-05 14h28.50.584252 -0500,
77,77,0,critical,dwh,20.0,4.0,lower,78.0,78.0,57.0,133.0,133.0,57.0,2,2.820185422897339,None,,,,,0,0,0,0,0,77,77,70,194.79269170761108,,,,,,,,,,,,,,,,,,,,,,,,,,,,,,,,,,,,,,,,,,,,,,,,,,,,,,,,,,,,,,,,,,,,,,,,,,,,,,,,,78.0,78.0,57.0,133.0,133.0,57.0,4.0,4.2,-202,-4,0,-265,191,-2,194.77877402305603,194.77887630462646,194.7821159362793,194.79269170761108,194.94324493408203,194.94324493408203,194.94324493408203,194.94324493408203,194.94324493408203,194.94324493408203,194.94324493408203,197.62645483016968,2,2.820185422897339,None,,,,,,,,,,,,,,,,,,197,2,2025-03-05_14h28.26.128,comp,2024.2.4,57.93429616451374,2025-03-05 14h28.50.584252 -0500,
78,78,0,filler_square,None,None,None,None,None,None,None,None,None,None,1,2.0484626293182373,None,,,,,0,0,0,0,0,78,78,184,197.6446340084076,,,,,,,,,,,,,,,,,,,,,,,,,,,,,,,,,,,,,,,,,,,,,,,,,,,,,,,,,,,,,,,,,,,,,,,,,,,,,,,,,126.878308860222,126.878308860222,121.43208481694911,83.44578336298748,90.74713888557704,58.68104581704246,2.2,2.22,-201,258,0,-283,167,-270,197.6283187866211,197.62839674949646,197.63137459754944,197.6446340084076,197.79727506637573,197.79727506637573,197.79727506637573,197.79727506637573,197.79727506637573,197.79727506637573,197.79727506637573,199.69894933700562,1,2.0484626293182373,None,,,,,,,,,,,,,,,,,,197,2,2025-03-05_14h28.26.128,comp,2024.2.4,57.93429616451374,2025-03-05 14h28.50.584252 -0500,
79,79,0,critical,whd,35.0,3.0,upper,125.0,200.0,200.0,125.0,127.0,127.0,1,2.9524641036987305,None,,,,,0,0,0,0,0,79,79,87,199.7165982723236,,,,,,,,,,,,,,,,,,,,,,,,,,,,,,,,,,,,,,,,,,,,,,,,,,,,,,,,,,,,,,,,,,,,,,,,,,,,,,,,,125.0,200.0,200.0,125.0,127.0,127.0,3.0,3.2,-258,-278,0,-2,222,262,199.7004725933075,199.7005534172058,199.70349860191345,199.7165982723236,199.86083889007568,199.86083889007568,199.86083889007568,199.86083889007568,199.86083889007568,199.86083889007568,199.86083889007568,202.69012761116028,1,2.9524641036987305,None,,,,,,,,,,,,,,,,,,197,2,2025-03-05_14h28.26.128,comp,2024.2.4,57.93429616451374,2025-03-05 14h28.50.584252 -0500,
80,80,0,catch,None,None,None,None,None,None,None,None,None,None,1,2.2645177841186523,None,,,,,0,0,0,0,0,80,80,122,202.70840692520142,,,,,,,,,,,,,,,,,,,,,,,,,,,,,,,,,,,,,,,,,,,,,,,,,,,,,,,,,,,,,,,,,,,,,,,,,,,,,,,,,186,139,102,88,60,130,2.2,2.22,-210,276,0,-256,205,-276,202.69233012199402,202.69240736961365,202.69566559791565,202.70840692520142,202.848703622818,202.848703622818,202.848703622818,202.848703622818,202.848703622818,202.848703622818,202.848703622818,204.98757123947144,1,2.2645177841186523,None,,,,,,,,,,,,,,,,,,197,2,2025-03-05_14h28.26.128,comp,2024.2.4,57.93429616451374,2025-03-05 14h28.50.584252 -0500,
81,81,0,filler_square,None,None,None,None,None,None,None,None,None,None,2,2.1172678470611572,None,,,,,0,0,0,0,0,81,81,198,205.00796151161194,,,,,,,,,,,,,,,,,,,,,,,,,,,,,,,,,,,,,,,,,,,,,,,,,,,,,,,,,,,,,,,,,,,,,,,,,,,,,,,,,93.95699284522125,82.56674151337009,109.07040876520253,109.07040876520253,95.68065803390483,88.45158764762144,2.1,2.11,-192,259,0,283,195,-256,204.9892885684967,204.9893651008606,204.99226236343384,205.00796151161194,205.14635229110718,205.14635229110718,205.14635229110718,205.14635229110718,205.14635229110718,205.14635229110718,205.14635229110718,207.13041067123413,2,2.1172678470611572,None,,,,,,,,,,,,,,,,,,197,2,2025-03-05_14h28.26.128,comp,2024.2.4,57.93429616451374,2025-03-05 14h28.50.584252 -0500,
82,82,0,critical,hdw,20.0,2.1,upper,200.0,125.0,141.0,141.0,125.0,200.0,3,3.7416958808898926,None,,,,,0,0,0,0,0,82,82,47,207.15163946151733,,,,,,,,,,,,,,,,,,,,,,,,,,,,,,,,,,,,,,,,,,,,,,,,,,,,,,,,,,,,,,,,,,,,,,,,,,,,,,,,,200.0,125.0,141.0,141.0,125.0,200.0,2.1,2.11,-229,254,0,282,266,-277,207.1319921016693,207.1320674419403,207.13532829284668,207.15163946151733,207.29999613761902,207.29999613761902,207.29999613761902,207.29999613761902,207.29999613761902,207.29999613761902,207.29999613761902,210.89713168144226,3,3.7416958808898926,None,,,,,,,,,,,,,,,,,,197,2,2025-03-05_14h28.26.128,comp,2024.2.4,57.93429616451374,2025-03-05 14h28.50.584252 -0500,
83,83,0,critical,hwd,20.0,3.0,upper,200.0,125.0,125.0,200.0,141.0,141.0,1,2.635638952255249,None,,,,,0,0,0,0,0,83,83,105,210.91347789764404,,,,,,,,,,,,,,,,,,,,,,,,,,,,,,,,,,,,,,,,,,,,,,,,,,,,,,,,,,,,,,,,,,,,,,,,,,,,,,,,,200.0,125.0,125.0,200.0,141.0,141.0,3.0,3.2,-258,-266,0,8,266,266,210.89868569374084,210.8987648487091,210.901926279068,210.91347789764404,211.07085371017456,211.07085371017456,211.07085371017456,211.07085371017456,211.07085371017456,211.07085371017456,211.07085371017456,213.5510880947113,1,2.635638952255249,None,,,,,,,,,,,,,,,,,,197,2,2025-03-05_14h28.26.128,comp,2024.2.4,57.93429616451374,2025-03-05 14h28.50.584252 -0500,
84,84,0,filler_square,None,None,None,None,None,None,None,None,None,None,2,3.8583884239196777,None,,,,,0,0,0,0,0,84,84,177,213.57072925567627,,,,,,,,,,,,,,,,,,,,,,,,,,,,,,,,,,,,,,,,,,,,,,,,,,,,,,,,,,,,,,,,,,,,,,,,,,,,,,,,,58.68123927733509,58.34495028816673,62.973215438269925,62.973215438269925,61.52019126859591,62.02372323812429,3.0,3.2,-157,-262,0,-4,158,280,213.55329871177673,213.55342507362366,213.55686616897583,213.57072925567627,213.7108223438263,213.7108223438263,213.7108223438263,213.7108223438263,213.7108223438263,213.7108223438263,213.7108223438263,217.43460178375244,2,3.8583884239196777,None,,,,,,,,,,,,,,,,,,197,2,2025-03-05_14h28.26.128,comp,2024.2.4,57.93429616451374,2025-03-05 14h28.50.584252 -0500,
85,85,0,critical,hdw,20.0,1.0,upper,200.0,125.0,141.0,141.0,125.0,200.0,3,1.7785866260528564,None,,,,,0,0,0,0,0,85,85,115,217.4508454799652,,,,,,,,,,,,,,,,,,,,,,,,,,,,,,,,,,,,,,,,,,,,,,,,,,,,,,,,,,,,,,,,,,,,,,,,,,,,,,,,,200.0,125.0,141.0,141.0,125.0,200.0,1.0,1.1,-709,261,-480,258,-214,277,217.43622660636902,217.4363555908203,217.4401614665985,217.4508454799652,217.60720300674438,217.60720300674438,217.60720300674438,217.60720300674438,217.60720300674438,217.60720300674438,217.60720300674438,219.23285961151123,3,1.7785866260528564,None,,,,,,,,,,,,,,,,,,197,2,2025-03-05_14h28.26.128,comp,2024.2.4,57.93429616451374,2025-03-05 14h28.50.584252 -0500,
86,86,0,critical,hwd,35.0,2.1,upper,200.0,125.0,125.0,200.0,127.0,127.0,2,3.3164916038513184,None,,,,,0,0,0,0,0,86,86,17,219.24905681610107,,,,,,,,,,,,,,,,,,,,,,,,,,,,,,,,,,,,,,,,,,,,,,,,,,,,,,,,,,,,,,,,,,,,,,,,,,,,,,,,,200.0,125.0,125.0,200.0,127.0,127.0,2.1,2.12,-258,-263,0,-276,260,273,219.2343807220459,219.2344582080841,219.23816871643066,219.24905681610107,219.40101599693298,219.40101599693298,219.40101599693298,219.40101599693298,219.40101599693298,219.40101599693298,219.40101599693298,222.57014894485474,2,3.3164916038513184,None,,,,,,,,,,,,,,,,,,197,2,2025-03-05_14h28.26.128,comp,2024.2.4,57.93429616451374,2025-03-05 14h28.50.584252 -0500,
87,87,0,critical,dwh,20.0,3.0,upper,141.0,141.0,125.0,200.0,200.0,125.0,2,1.922943115234375,None,,,,,0,0,0,0,0,87,87,69,222.58648085594177,,,,,,,,,,,,,,,,,,,,,,,,,,,,,,,,,,,,,,,,,,,,,,,,,,,,,,,,,,,,,,,,,,,,,,,,,,,,,,,,,141.0,141.0,125.0,200.0,200.0,125.0,3.0,3.1,-266,268,0,-3,258,-265,222.57204031944275,222.57212328910828,222.57556748390198,222.58648085594177,222.73284697532654,222.73284697532654,222.73284697532654,222.73284697532654,222.73284697532654,222.73284697532654,222.73284697532654,224.51844358444214,2,1.922943115234375,None,,,,,,,,,,,,,,,,,,197,2,2025-03-05_14h28.26.128,comp,2024.2.4,57.93429616451374,2025-03-05 14h28.50.584252 -0500,
88,88,0,critical,dwh,35.0,4.0,upper,127.0,127.0,125.0,200.0,200.0,125.0,2,1.195913314819336,None,,,,,0,0,0,0,0,88,88,65,224.53714299201965,,,,,,,,,,,,,,,,,,,,,,,,,,,,,,,,,,,,,,,,,,,,,,,,,,,,,,,,,,,,,,,,,,,,,,,,,,,,,,,,,127.0,127.0,125.0,200.0,200.0,125.0,4.0,4.2,-260,16,0,-270,258,-18,224.5200219154358,224.5201017856598,224.5239667892456,224.53714299201965,224.6852297782898,224.6852297782898,224.6852297782898,224.6852297782898,224.6852297782898,224.6852297782898,224.6852297782898,225.74774956703186,2,1.195913314819336,None,,,,,,,,,,,,,,,,,,197,2,2025-03-05_14h28.26.128,comp,2024.2.4,57.93429616451374,2025-03-05 14h28.50.584252 -0500,
89,89,0,critical,dwh,35.0,2.1,lower,70.0,70.0,57.0,133.0,133.0,57.0,2,1.7133359909057617,None,,,,,0,0,0,0,0,89,89,4,225.7635633945465,,,,,,,,,,,,,,,,,,,,,,,,,,,,,,,,,,,,,,,,,,,,,,,,,,,,,,,,,,,,,,,,,,,,,,,,,,,,,,,,,70.0,70.0,57.0,133.0,133.0,57.0,2.1,2.12,-198,-270,0,-267,191,255,225.74934935569763,225.749427318573,225.75230836868286,225.7635633945465,225.90185141563416,225.90185141563416,225.90185141563416,225.90185141563416,225.90185141563416,225.90185141563416,225.90185141563416,227.48776412010193,2,1.7133359909057617,None,,,,,,,,,,,,,,,,,,197,2,2025-03-05_14h28.26.128,comp,2024.2.4,57.93429616451374,2025-03-05 14h28.50.584252 -0500,
90,90,0,filler_square,None,None,None,None,None,None,None,None,None,None,1,1.0620355606079102,None,,,,,0,0,0,0,0,90,90,194,227.5033814907074,,,,,,,,,,,,,,,,,,,,,,,,,,,,,,,,,,,,,,,,,,,,,,,,,,,,,,,,,,,,,,,,,,,,,,,,,,,,,,,,,133.6370194314863,133.6370194314863,77.66191710233235,132.06947360643366,106.15119672951744,86.62294964616073,3.0,3.2,-229,-283,0,-5,205,289,227.48973965644836,227.48984384536743,227.49271202087402,227.5033814907074,227.65304470062256,227.65304470062256,227.65304470062256,227.65304470062256,227.65304470062256,227.65304470062256,227.65304470062256,228.57174921035767,1,1.0620355606079102,None,,,,,,,,,,,,,,,,,,197,2,2025-03-05_14h28.26.128,comp,2024.2.4,57.93429616451374,2025-03-05 14h28.50.584252 -0500,
91,91,0,filler_square,None,None,None,None,None,None,None,None,None,None,2,0.8917584419250488,None,,,,,0,0,0,0,0,91,91,199,228.5931806564331,,,,,,,,,,,,,,,,,,,,,,,,,,,,,,,,,,,,,,,,,,,,,,,,,,,,,,,,,,,,,,,,,,,,,,,,,,,,,,,,,105.1859893277159,74.50550791467614,189.27089016184698,189.27089016184698,134.08851913323224,81.70927685295658,2.1,2.11,-228,277,0,267,231,-269,228.57393336296082,228.57401704788208,228.57735204696655,228.5931806564331,228.7422468662262,228.7422468662262,228.7422468662262,228.7422468662262,228.7422468662262,228.7422468662262,228.7422468662262,229.50440335273743,2,0.8917584419250488,None,,,,,,,,,,,,,,,,,,197,2,2025-03-05_14h28.26.128,comp,2024.2.4,57.93429616451374,2025-03-05 14h28.50.584252 -0500,
92,92,0,filler_square,None,None,None,None,None,None,None,None,None,None,3,1.0827422142028809,None,,,,,0,0,0,0,0,92,92,188,229.52231884002686,,,,,,,,,,,,,,,,,,,,,,,,,,,,,,,,,,,,,,,,,,,,,,,,,,,,,,,,,,,,,,,,,,,,,,,,,,,,,,,,,148.57433864403293,105.56151677173568,90.62936634327775,161.88867741714847,167.7419506676987,167.7419506676987,4.0,4.1,-230,-251,0,18,261,-257,229.50642800331116,229.5065050125122,229.5099856853485,229.52231884002686,229.6690583229065,229.6690583229065,229.6690583229065,229.6690583229065,229.6690583229065,229.6690583229065,229.6690583229065,230.62065434455872,3,1.0827422142028809,None,,,,,,,,,,,,,,,,,,197,2,2025-03-05_14h28.26.128,comp,2024.2.4,57.93429616451374,2025-03-05 14h28.50.584252 -0500,
93,93,0,critical,dhw,20.0,2.1,lower,78.0,78.0,133.0,57.0,57.0,133.0,2,3.9371254444122314,None,,,,,0,0,0,0,0,93,93,26,230.63599061965942,,,,,,,,,,,,,,,,,,,,,,,,,,,,,,,,,,,,,,,,,,,,,,,,,,,,,,,,,,,,,,,,,,,,,,,,,,,,,,,,,78.0,78.0,133.0,57.0,57.0,133.0,2.1,2.12,-164,-264,0,-281,191,275,230.62227606773376,230.62235355377197,230.6257655620575,230.63599061965942,230.78814554214478,230.78814554214478,230.78814554214478,230.78814554214478,230.78814554214478,230.78814554214478,230.78814554214478,234.58852887153625,2,3.9371254444122314,None,,,,,,,,,,,,,,,,,,197,2,2025-03-05_14h28.26.128,comp,2024.2.4,57.93429616451374,2025-03-05 14h28.50.584252 -0500,
94,94,0,critical,dwh,20.0,4.0,upper,141.0,141.0,125.0,200.0,200.0,125.0,3,2.0912234783172607,None,,,,,0,0,0,0,0,94,94,71,234.61065244674683,,,,,,,,,,,,,,,,,,,,,,,,,,,,,,,,,,,,,,,,,,,,,,,,,,,,,,,,,,,,,,,,,,,,,,,,,,,,,,,,,141.0,141.0,125.0,200.0,200.0,125.0,4.0,4.1,-266,-275,0,4,258,-271,234.5900902748108,234.5901665687561,234.59333419799805,234.61065244674683,234.75743651390076,234.75743651390076,234.75743651390076,234.75743651390076,234.75743651390076,234.75743651390076,234.75743651390076,236.7061207294464,3,2.0912234783172607,None,,,,,,,,,,,,,,,,,,197,2,2025-03-05_14h28.26.128,comp,2024.2.4,57.93429616451374,2025-03-05 14h28.50.584252 -0500,
95,95,0,filler_square,None,None,None,None,None,None,None,None,None,None,2,1.1393938064575195,None,,,,,0,0,0,0,0,95,95,190,236.72201871871948,,,,,,,,,,,,,,,,,,,,,,,,,,,,,,,,,,,,,,,,,,,,,,,,,,,,,,,,,,,,,,,,,,,,,,,,,,,,,,,,,149.7925207154605,150.28282860499735,170.53543277661885,170.53543277661885,154.5266286170979,58.11307075806735,3.0,3.1,-256,269,0,-2,210,-288,236.70795798301697,236.7080376148224,236.7113275527954,236.72201871871948,236.8765549659729,236.8765549659729,236.8765549659729,236.8765549659729,236.8765549659729,236.8765549659729,236.8765549659729,237.8791286945343,2,1.1393938064575195,None,,,,,,,,,,,,,,,,,,197,2,2025-03-05_14h28.26.128,comp,2024.2.4,57.93429616451374,2025-03-05 14h28.50.584252 -0500,
96,96,0,critical,hdw,20.0,2.1,lower,133.0,57.0,78.0,78.0,57.0,133.0,1,3.693150281906128,None,,,,,0,0,0,0,0,96,96,22,237.89621257781982,,,,,,,,,,,,,,,,,,,,,,,,,,,,,,,,,,,,,,,,,,,,,,,,,,,,,,,,,,,,,,,,,,,,,,,,,,,,,,,,,133.0,57.0,78.0,78.0,57.0,133.0,2.1,2.11,-164,278,0,269,202,-250,237.88064670562744,237.8807258605957,237.8836054801941,237.89621257781982,238.03767347335815,238.03767347335815,238.03767347335815,238.03767347335815,238.03767347335815,238.03767347335815,238.03767347335815,241.60692381858826,1,3.693150281906128,None,,,,,,,,,,,,,,,,,,197,2,2025-03-05_14h28.26.128,comp,2024.2.4,57.93429616451374,2025-03-05 14h28.50.584252 -0500,
97,97,0,catch,None,None,None,None,None,None,None,None,None,None,1,1.8254168033599854,None,,,,,0,0,0,0,0,97,97,120,241.62808299064636,,,,,,,,,,,,,,,,,,,,,,,,,,,,,,,,,,,,,,,,,,,,,,,,,,,,,,,,,,,,,,,,,,,,,,,,,,,,,,,,,178,147,76,114,100,90,2.1,2.11,-226,288,0,259,198,-272,241.6090908050537,241.6091697216034,241.6128330230713,241.62808299064636,241.7748818397522,241.7748818397522,241.7748818397522,241.7748818397522,241.7748818397522,241.7748818397522,241.7748818397522,243.45718574523926,1,1.8254168033599854,None,,,,,,,,,,,,,,,,,,197,2,2025-03-05_14h28.26.128,comp,2024.2.4,57.93429616451374,2025-03-05 14h28.50.584252 -0500,
98,98,0,critical,whd,35.0,2.1,lower,57.0,133.0,133.0,57.0,70.0,70.0,1,3.904679775238037,None,,,,,0,0,0,0,0,98,98,12,243.47748112678528,,,,,,,,,,,,,,,,,,,,,,,,,,,,,,,,,,,,,,,,,,,,,,,,,,,,,,,,,,,,,,,,,,,,,,,,,,,,,,,,,57.0,133.0,133.0,57.0,70.0,70.0,2.1,2.11,-191,268,0,276,160,-287,243.45881986618042,243.45890545845032,243.46253991127014,243.47748112678528,243.62890815734863,243.62890815734863,243.62890815734863,243.62890815734863,243.62890815734863,243.62890815734863,243.62890815734863,247.38966059684753,1,3.904679775238037,None,,,,,,,,,,,,,,,,,,197,2,2025-03-05_14h28.26.128,comp,2024.2.4,57.93429616451374,2025-03-05 14h28.50.584252 -0500,
99,99,0,critical,dhw,35.0,2.1,lower,70.0,70.0,133.0,57.0,57.0,133.0,2,2.4306864738464355,None,,,,,0,0,0,0,0,99,99,0,247.40727305412292,,,,,,,,,,,,,,,,,,,,,,,,,,,,,,,,,,,,,,,,,,,,,,,,,,,,,,,,,,,,,,,,,,,,,,,,,,,,,,,,,70.0,70.0,133.0,57.0,57.0,133.0,2.1,2.12,-160,-276,0,-280,191,270,247.39124655723572,247.39132404327393,247.39423179626465,247.40727305412292,247.54643893241882,247.54643893241882,247.54643893241882,247.54643893241882,247.54643893241882,247.54643893241882,247.54643893241882,249.84549260139465,2,2.4306864738464355,None,,,,,,,,,,,,,,,,,,197,2,2025-03-05_14h28.26.128,comp,2024.2.4,57.93429616451374,2025-03-05 14h28.50.584252 -0500,
100,100,0,critical,dhw,20.0,1.0,upper,141.0,141.0,200.0,125.0,125.0,200.0,2,2.5760715007781982,None,,,,,0,0,0,0,0,100,100,55,249.86200094223022,,,,,,,,,,,,,,,,,,,,,,,,,,,,,,,,,,,,,,,,,,,,,,,,,,,,,,,,,,,,,,,,,,,,,,,,,,,,,,,,,141.0,141.0,200.0,125.0,125.0,200.0,1.0,1.1,-709,258,-480,257,-222,251,249.84735679626465,249.84743857383728,249.8509750366211,249.86200094223022,250.01087713241577,250.01087713241577,250.01087713241577,250.01087713241577,250.01087713241577,250.01087713241577,250.01087713241577,252.44454622268677,2,2.5760715007781982,None,,,,,,,,,,,,,,,,,,197,2,2025-03-05_14h28.26.128,comp,2024.2.4,57.93429616451374,2025-03-05 14h28.50.584252 -0500,
101,101,0,filler_random,None,None,None,None,None,None,None,None,None,None,3,2.377373218536377,None,,,,,0,0,0,0,0,101,101,166,252.46052074432373,,,,,,,,,,,,,,,,,,,,,,,,,,,,,,,,,,,,,,,,,,,,,,,,,,,,,,,,,,,,,,,,,,,,,,,,,,,,,,,,,59.33113243768105,73.65286062022909,63.11392185517434,96.0056942640824,65.24658989556745,102.96950066665264,3.0,3.1,-181,283,0,-4,195,-290,252.4463312625885,252.44641423225403,252.4496467113495,252.46052074432373,252.6103401184082,252.6103401184082,252.6103401184082,252.6103401184082,252.6103401184082,252.6103401184082,252.6103401184082,254.84589862823486,3,2.377373218536377,None,,,,,,,,,,,,,,,,,,197,2,2025-03-05_14h28.26.128,comp,2024.2.4,57.93429616451374,2025-03-05 14h28.50.584252 -0500,
102,102,0,critical,hdw,20.0,2.1,upper,200.0,125.0,141.0,141.0,125.0,200.0,3,3.063462495803833,None,,,,,0,0,0,0,0,102,102,23,254.86168599128723,,,,,,,,,,,,,,,,,,,,,,,,,,,,,,,,,,,,,,,,,,,,,,,,,,,,,,,,,,,,,,,,,,,,,,,,,,,,,,,,,200.0,125.0,141.0,141.0,125.0,200.0,2.1,2.11,-229,272,0,269,266,-265,254.84745573997498,254.84753513336182,254.85098123550415,254.86168599128723,255.01263689994812,255.01263689994812,255.01263689994812,255.01263689994812,255.01263689994812,255.01263689994812,255.01263689994812,257.94470047950745,3,3.063462495803833,None,,,,,,,,,,,,,,,,,,197,2,2025-03-05_14h28.26.128,comp,2024.2.4,57.93429616451374,2025-03-05 14h28.50.584252 -0500,
103,103,0,filler_random,None,None,None,None,None,None,None,None,None,None,2,1.364393711090088,None,,,,,0,0,0,0,0,103,103,140,257.9606502056122,,,,,,,,,,,,,,,,,,,,,,,,,,,,,,,,,,,,,,,,,,,,,,,,,,,,,,,,,,,,,,,,,,,,,,,,,,,,,,,,,163.91011632177526,154.23538626559264,192.13079800161904,168.46744058756627,89.65756028823267,128.01889559456956,2.1,2.11,-257,259,0,271,244,-288,257.9464211463928,257.9465000629425,257.94969034194946,257.9606502056122,258.1118371486664,258.1118371486664,258.1118371486664,258.1118371486664,258.1118371486664,258.1118371486664,258.1118371486664,259.33844017982483,2,1.364393711090088,None,,,,,,,,,,,,,,,,,,197,2,2025-03-05_14h28.26.128,comp,2024.2.4,57.93429616451374,2025-03-05 14h28.50.584252 -0500,
104,104,0,critical,dhw,35.0,2.1,upper,127.0,127.0,200.0,125.0,125.0,200.0,2,1.9062871932983398,None,,,,,0,0,0,0,0,104,104,25,259.3548963069916,,,,,,,,,,,,,,,,,,,,,,,,,,,,,,,,,,,,,,,,,,,,,,,,,,,,,,,,,,,,,,,,,,,,,,,,,,,,,,,,,127.0,127.0,200.0,125.0,125.0,200.0,2.1,2.11,-222,267,0,270,258,-287,259.3401176929474,259.34020805358887,259.3435046672821,259.3548963069916,259.4997556209564,259.4997556209564,259.4997556209564,259.4997556209564,259.4997556209564,259.4997556209564,259.4997556209564,261.26365423202515,2,1.9062871932983398,None,,,,,,,,,,,,,,,,,,197,2,2025-03-05_14h28.26.128,comp,2024.2.4,57.93429616451374,2025-03-05 14h28.50.584252 -0500,
105,105,0,critical,wdh,20.0,1.0,lower,57.0,133.0,78.0,78.0,133.0,57.0,1,2.765397787094116,None,,,,,0,0,0,0,0,105,105,78,261.2797522544861,,,,,,,,,,,,,,,,,,,,,,,,,,,,,,,,,,,,,,,,,,,,,,,,,,,,,,,,,,,,,,,,,,,,,,,,,,,,,,,,,57.0,133.0,78.0,78.0,133.0,57.0,1.0,1.1,-682,272,-480,263,-316,261,261.26529574394226,261.2654056549072,261.2688443660736,261.2797522544861,261.43014788627625,261.43014788627625,261.43014788627625,261.43014788627625,261.43014788627625,261.43014788627625,261.43014788627625,264.0486032962799,1,2.765397787094116,None,,,,,,,,,,,,,,,,,,197,2,2025-03-05_14h28.26.128,comp,2024.2.4,57.93429616451374,2025-03-05 14h28.50.584252 -0500,
106,106,0,critical,dhw,35.0,1.0,upper,127.0,127.0,200.0,125.0,125.0,200.0,2,1.452056884765625,None,,,,,0,0,0,0,0,106,106,49,264.0650155544281,,,,,,,,,,,,,,,,,,,,,,,,,,,,,,,,,,,,,,,,,,,,,,,,,,,,,,,,,,,,,,,,,,,,,,,,,,,,,,,,,127.0,127.0,200.0,125.0,125.0,200.0,1.0,1.3,258,-265,480,-272,738,-262,264.0501618385315,264.05024123191833,264.05330443382263,264.0650155544281,264.2150113582611,264.2150113582611,264.2150113582611,264.2150113582611,264.2150113582611,264.2150113582611,264.2150113582611,265.5304665565491,2,1.452056884765625,None,,,,,,,,,,,,,,,,,,197,2,2025-03-05_14h28.26.128,comp,2024.2.4,57.93429616451374,2025-03-05 14h28.50.584252 -0500,
107,107,0,critical,whd,20.0,4.0,lower,57.0,133.0,133.0,57.0,78.0,78.0,1,3.9801697731018066,None,,,,,0,0,0,0,0,107,107,94,265.54655289649963,,,,,,,,,,,,,,,,,,,,,,,,,,,,,,,,,,,,,,,,,,,,,,,,,,,,,,,,,,,,,,,,,,,,,,,,,,,,,,,,,57.0,133.0,133.0,57.0,78.0,78.0,4.0,4.1,-191,-279,0,1,164,-257,265.5320119857788,265.53208780288696,265.5351564884186,265.54655289649963,265.70057463645935,265.70057463645935,265.70057463645935,265.70057463645935,265.70057463645935,265.70057463645935,265.70057463645935,269.5321795940399,1,3.9801697731018066,None,,,,,,,,,,,,,,,,,,197,2,2025-03-05_14h28.26.128,comp,2024.2.4,57.93429616451374,2025-03-05 14h28.50.584252 -0500,
108,108,0,critical,dhw,20.0,4.0,upper,141.0,141.0,200.0,125.0,125.0,200.0,2,2.1127817630767822,None,,,,,0,0,0,0,0,108,108,59,269.54886651039124,,,,,,,,,,,,,,,,,,,,,,,,,,,,,,,,,,,,,,,,,,,,,,,,,,,,,,,,,,,,,,,,,,,,,,,,,,,,,,,,,141.0,141.0,200.0,125.0,125.0,200.0,4.0,4.2,-229,12,0,-254,258,-1,269.53365421295166,269.53373312950134,269.536922454834,269.54886651039124,269.69976353645325,269.69976353645325,269.69976353645325,269.69976353645325,269.69976353645325,269.69976353645325,269.69976353645325,271.6647732257843,2,2.1127817630767822,None,,,,,,,,,,,,,,,,,,197,2,2025-03-05_14h28.26.128,comp,2024.2.4,57.93429616451374,2025-03-05 14h28.50.584252 -0500,
109,109,0,filler_random,None,None,None,None,None,None,None,None,None,None,2,1.4450297355651855,None,,,,,0,0,0,0,0,109,109,160,271.68106484413147,,,,,,,,,,,,,,,,,,,,,,,,,,,,,,,,,,,,,,,,,,,,,,,,,,,,,,,,,,,,,,,,,,,,,,,,,,,,,,,,,109.48990162006191,107.98801864959475,84.03728905509873,152.01780581873646,78.72652888269924,66.58527234939316,2.2,2.22,-226,281,0,-281,205,-269,271.66617012023926,271.6662344932556,271.6685678958893,271.68106484413147,271.8169975280762,271.8169975280762,271.8169975280762,271.8169975280762,271.8169975280762,271.8169975280762,271.8169975280762,273.13470911979675,2,1.4450297355651855,None,,,,,,,,,,,,,,,,,,197,2,2025-03-05_14h28.26.128,comp,2024.2.4,57.93429616451374,2025-03-05 14h28.50.584252 -0500,
110,110,0,critical,whd,20.0,3.0,upper,125.0,200.0,200.0,125.0,141.0,141.0,2,4.199382781982422,None,,,,,0,0,0,0,0,110,110,93,273.1502959728241,,,,,,,,,,,,,,,,,,,,,,,,,,,,,,,,,,,,,,,,,,,,,,,,,,,,,,,,,,,,,,,,,,,,,,,,,,,,,,,,,125.0,200.0,200.0,125.0,141.0,141.0,3.0,3.1,-258,275,0,-1,229,-284,273.1362249851227,273.1363022327423,273.1391987800598,273.1502959728241,273.30035281181335,273.30035281181335,273.30035281181335,273.30035281181335,273.30035281181335,273.30035281181335,273.30035281181335,277.3683123588562,2,4.199382781982422,None,,,,,,,,,,,,,,,,,,197,2,2025-03-05_14h28.26.128,comp,2024.2.4,57.93429616451374,2025-03-05 14h28.50.584252 -0500,
111,111,0,filler_square,None,None,None,None,None,None,None,None,None,None,2,1.1811344623565674,None,,,,,0,0,0,0,0,111,111,195,277.38485836982727,,,,,,,,,,,,,,,,,,,,,,,,,,,,,,,,,,,,,,,,,,,,,,,,,,,,,,,,,,,,,,,,,,,,,,,,,,,,,,,,,142.45859843703863,102.88959229093555,169.39935327373195,169.39935327373195,57.06997771826607,143.65034566020597,2.1,2.11,-232,276,0,274,253,-289,277.37028908729553,277.3703646659851,277.3735902309418,277.38485836982727,277.5362284183502,277.5362284183502,277.5362284183502,277.5362284183502,277.5362284183502,277.5362284183502,277.5362284183502,278.5741457939148,2,1.1811344623565674,None,,,,,,,,,,,,,,,,,,197,2,2025-03-05_14h28.26.128,comp,2024.2.4,57.93429616451374,2025-03-05 14h28.50.584252 -0500,
112,112,0,critical,dwh,20.0,3.0,lower,78.0,78.0,57.0,133.0,133.0,57.0,2,1.9878323078155518,None,,,,,0,0,0,0,0,112,112,68,278.59357810020447,,,,,,,,,,,,,,,,,,,,,,,,,,,,,,,,,,,,,,,,,,,,,,,,,,,,,,,,,,,,,,,,,,,,,,,,,,,,,,,,,78.0,78.0,57.0,133.0,133.0,57.0,3.0,3.2,-202,-263,0,-13,191,282,278.5756549835205,278.57573080062866,278.5785872936249,278.59357810020447,278.7370617389679,278.7370617389679,278.7370617389679,278.7370617389679,278.7370617389679,278.7370617389679,278.7370617389679,280.5859537124634,2,1.9878323078155518,None,,,,,,,,,,,,,,,,,,197,2,2025-03-05_14h28.26.128,comp,2024.2.4,57.93429616451374,2025-03-05 14h28.50.584252 -0500,
113,113,0,filler_square,None,None,None,None,None,None,None,None,None,None,2,1.3310096263885498,None,,,,,0,0,0,0,0,113,113,191,280.60221123695374,,,,,,,,,,,,,,,,,,,,,,,,,,,,,,,,,,,,,,,,,,,,,,,,,,,,,,,,,,,,,,,,,,,,,,,,,,,,,,,,,62.028802681783475,68.00707117680187,98.17756679888225,98.17756679888225,74.4983082374279,70.48527507354423,3.0,3.1,-179,283,0,-6,180,-285,280.58771300315857,280.5877892971039,280.59100890159607,280.60221123695374,280.75385093688965,280.75385093688965,280.75385093688965,280.75385093688965,280.75385093688965,280.75385093688965,280.75385093688965,281.93737959861755,2,1.3310096263885498,None,,,,,,,,,,,,,,,,,,197,2,2025-03-05_14h28.26.128,comp,2024.2.4,57.93429616451374,2025-03-05 14h28.50.584252 -0500,
114,114,0,filler_random,None,None,None,None,None,None,None,None,None,None,2,1.027238368988037,None,,,,,0,0,0,0,0,114,114,133,281.9546389579773,,,,,,,,,,,,,,,,,,,,,,,,,,,,,,,,,,,,,,,,,,,,,,,,,,,,,,,,,,,,,,,,,,,,,,,,,,,,,,,,,105.45818558899893,135.7463985179265,145.2549311028135,133.96398007441255,68.53987795788643,70.2659069959543,1.0,1.2,-231,-7,0,-17,198,-4,281.9392249584198,281.9393165111542,281.942919254303,281.9546389579773,282.10230898857117,282.10230898857117,282.10230898857117,282.10230898857117,282.10230898857117,282.10230898857117,282.10230898857117,282.98739862442017,2,1.027238368988037,None,,,,,,,,,,,,,,,,,,197,2,2025-03-05_14h28.26.128,comp,2024.2.4,57.93429616451374,2025-03-05 14h28.50.584252 -0500,
115,115,0,filler_square,None,None,None,None,None,None,None,None,None,None,3,0.8992676734924316,None,,,,,0,0,0,0,0,115,115,170,283.00202655792236,,,,,,,,,,,,,,,,,,,,,,,,,,,,,,,,,,,,,,,,,,,,,,,,,,,,,,,,,,,,,,,,,,,,,,,,,,,,,,,,,80.62094470530742,127.48081621824055,59.54520459054598,106.27200408327793,162.03568295867382,162.03568295867382,1.0,1.1,-693,280,-480,264,-250,269,282.98917603492737,282.9892542362213,282.9925022125244,283.00202655792236,283.1532142162323,283.1532142162323,283.1532142162323,283.1532142162323,283.1532142162323,283.1532142162323,283.1532142162323,283.91154289245605,3,0.8992676734924316,None,,,,,,,,,,,,,,,,,,197,2,2025-03-05_14h28.26.128,comp,2024.2.4,57.93429616451374,2025-03-05 14h28.50.584252 -0500,
116,116,0,filler_square,None,None,None,None,None,None,None,None,None,None,3,1.325901746749878,None,,,,,0,0,0,0,0,116,116,172,283.92774724960327,,,,,,,,,,,,,,,,,,,,,,,,,,,,,,,,,,,,,,,,,,,,,,,,,,,,,,,,,,,,,,,,,,,,,,,,,,,,,,,,,79.43878759701695,71.21450856760939,61.08839051402759,85.04527530392883,101.17679698497379,101.17679698497379,4.0,4.1,-174,-270,0,-19,189,-263,283.9135766029358,283.9136564731598,283.9169054031372,283.92774724960327,284.0716769695282,284.0716769695282,284.0716769695282,284.0716769695282,284.0716769695282,284.0716769695282,284.0716769695282,285.2560410499573,3,1.325901746749878,None,,,,,,,,,,,,,,,,,,197,2,2025-03-05_14h28.26.128,comp,2024.2.4,57.93429616451374,2025-03-05 14h28.50.584252 -0500,
117,117,0,filler_square,None,None,None,None,None,None,None,None,None,None,3,2.900434732437134,None,,,,,0,0,0,0,0,117,117,189,285.2727506160736,,,,,,,,,,,,,,,,,,,,,,,,,,,,,,,,,,,,,,,,,,,,,,,,,,,,,,,,,,,,,,,,,,,,,,,,,,,,,,,,,75.24668093481637,68.40718900554131,66.17074899306263,70.23694174469098,79.64613858452695,79.64613858452695,3.0,3.1,-165,251,0,-13,171,-290,285.25808596611023,285.2581660747528,285.262020111084,285.2727506160736,285.42194533348083,285.42194533348083,285.42194533348083,285.42194533348083,285.42194533348083,285.42194533348083,285.42194533348083,288.1890456676483,3,2.900434732437134,None,,,,,,,,,,,,,,,,,,197,2,2025-03-05_14h28.26.128,comp,2024.2.4,57.93429616451374,2025-03-05 14h28.50.584252 -0500,
118,118,0,critical,whd,20.0,1.0,lower,57.0,133.0,133.0,57.0,78.0,78.0,1,1.5447592735290527,None,,,,,0,0,0,0,0,118,118,90,288.20502376556396,,,,,,,,,,,,,,,,,,,,,,,,,,,,,,,,,,,,,,,,,,,,,,,,,,,,,,,,,,,,,,,,,,,,,,,,,,,,,,,,,57.0,133.0,133.0,57.0,78.0,78.0,1.0,1.3,289,-276,480,-268,644,-254,288.19062638282776,288.1907048225403,288.1947581768036,288.20502376556396,288.35309529304504,288.35309529304504,288.35309529304504,288.35309529304504,288.35309529304504,288.35309529304504,288.35309529304504,289.7544457912445,1,1.5447592735290527,None,,,,,,,,,,,,,,,,,,197,2,2025-03-05_14h28.26.128,comp,2024.2.4,57.93429616451374,2025-03-05 14h28.50.584252 -0500,
119,119,0,filler_square,None,None,None,None,None,None,None,None,None,None,3,1.1470887660980225,None,,,,,0,0,0,0,0,119,119,208,289.7709684371948,,,,,,,,,,,,,,,,,,,,,,,,,,,,,,,,,,,,,,,,,,,,,,,,,,,,,,,,,,,,,,,,,,,,,,,,,,,,,,,,,101.97963862419921,165.41127623880726,107.83732108497443,152.3841043421737,172.83029216056576,172.83029216056576,4.0,4.2,-255,-18,0,-270,259,-16,289.7562003135681,289.7562806606293,289.7592980861664,289.7709684371948,289.90958285331726,289.90958285331726,289.90958285331726,289.90958285331726,289.90958285331726,289.90958285331726,289.90958285331726,290.92328906059265,3,1.1470887660980225,None,,,,,,,,,,,,,,,,,,197,2,2025-03-05_14h28.26.128,comp,2024.2.4,57.93429616451374,2025-03-05 14h28.50.584252 -0500,
120,120,0,filler_random,None,None,None,None,None,None,None,None,None,None,2,0.9149038791656494,None,,,,,0,0,0,0,0,120,120,135,290.9391658306122,,,,,,,,,,,,,,,,,,,,,,,,,,,,,,,,,,,,,,,,,,,,,,,,,,,,,,,,,,,,,,,,,,,,,,,,,,,,,,,,,121.79383307844934,121.64081853792761,177.40832015053658,171.08251038901358,188.84305344832111,119.81008883270897,2.1,2.12,-242,-288,0,-281,241,267,290.9249792098999,290.92506170272827,290.9284875392914,290.9391658306122,291.09104013442993,291.09104013442993,291.09104013442993,291.09104013442993,291.09104013442993,291.09104013442993,291.09104013442993,291.8582489490509,2,0.9149038791656494,None,,,,,,,,,,,,,,,,,,197,2,2025-03-05_14h28.26.128,comp,2024.2.4,57.93429616451374,2025-03-05 14h28.50.584252 -0500,
121,121,0,filler_square,None,None,None,None,None,None,None,None,None,None,2,0.8903553485870361,None,,,,,0,0,0,0,0,121,121,182,291.875036239624,,,,,,,,,,,,,,,,,,,,,,,,,,,,,,,,,,,,,,,,,,,,,,,,,,,,,,,,,,,,,,,,,,,,,,,,,,,,,,,,,102.54172773069767,94.3160120085492,135.1161579532838,135.1161579532838,89.6823411048818,102.24671239575747,2.2,2.21,-211,-264,0,250,215,277,291.86032128334045,291.8604257106781,291.86386942863464,291.875036239624,292.0243570804596,292.0243570804596,292.0243570804596,292.0243570804596,292.0243570804596,292.0243570804596,292.0243570804596,292.7829101085663,2,0.8903553485870361,None,,,,,,,,,,,,,,,,,,197,2,2025-03-05_14h28.26.128,comp,2024.2.4,57.93429616451374,2025-03-05 14h28.50.584252 -0500,
122,122,0,filler_square,None,None,None,None,None,None,None,None,None,None,2,1.117626428604126,None,,,,,0,0,0,0,0,122,122,207,292.80037117004395,,,,,,,,,,,,,,,,,,,,,,,,,,,,,,,,,,,,,,,,,,,,,,,,,,,,,,,,,,,,,,,,,,,,,,,,,,,,,,,,,96.24876030472566,111.17886321403597,184.61625352708336,184.61625352708336,167.11027888379095,151.7492498870636,3.0,3.1,-244,274,0,-2,264,-275,292.78470969200134,292.7847864627838,292.7876696586609,292.80037117004395,292.9384467601776,292.9384467601776,292.9384467601776,292.9384467601776,292.9384467601776,292.9384467601776,292.9384467601776,293.9223780632019,2,1.117626428604126,None,,,,,,,,,,,,,,,,,,197,2,2025-03-05_14h28.26.128,comp,2024.2.4,57.93429616451374,2025-03-05 14h28.50.584252 -0500,
123,123,0,filler_square,None,None,None,None,None,None,None,None,None,None,3,1.840914011001587,None,,,,,0,0,0,0,0,123,123,186,293.94150948524475,,,,,,,,,,,,,,,,,,,,,,,,,,,,,,,,,,,,,,,,,,,,,,,,,,,,,,,,,,,,,,,,,,,,,,,,,,,,,,,,,124.57763290306497,126.9384565472745,64.08388012787644,140.91158657652232,151.8151035049005,151.8151035049005,3.0,3.2,-230,-287,0,8,242,262,293.9242572784424,293.9243371486664,293.92739176750183,293.94150948524475,294.0958888530731,294.0958888530731,294.0958888530731,294.0958888530731,294.0958888530731,294.0958888530731,294.0958888530731,295.7919783592224,3,1.840914011001587,None,,,,,,,,,,,,,,,,,,197,2,2025-03-05_14h28.26.128,comp,2024.2.4,57.93429616451374,2025-03-05 14h28.50.584252 -0500,
124,124,0,critical,hdw,20.0,4.0,upper,200.0,125.0,141.0,141.0,125.0,200.0,1,2.7735302448272705,None,,,,,0,0,0,0,0,124,124,119,295.8078281879425,,,,,,,,,,,,,,,,,,,,,,,,,,,,,,,,,,,,,,,,,,,,,,,,,,,,,,,,,,,,,,,,,,,,,,,,,,,,,,,,,200.0,125.0,141.0,141.0,125.0,200.0,4.0,4.1,-229,-256,0,10,266,-272,295.7935106754303,295.79359221458435,295.7970850467682,295.8078281879425,295.95677065849304,295.95677065849304,295.95677065849304,295.95677065849304,295.95677065849304,295.95677065849304,295.95677065849304,298.5909068584442,1,2.7735302448272705,None,,,,,,,,,,,,,,,,,,197,2,2025-03-05_14h28.26.128,comp,2024.2.4,57.93429616451374,2025-03-05 14h28.50.584252 -0500,
125,125,0,critical,hwd,35.0,2.1,upper,200.0,125.0,125.0,200.0,127.0,127.0,2,1.3027167320251465,None,,,,,0,0,0,0,0,125,125,41,298.607213973999,,,,,,,,,,,,,,,,,,,,,,,,,,,,,,,,,,,,,,,,,,,,,,,,,,,,,,,,,,,,,,,,,,,,,,,,,,,,,,,,,200.0,125.0,125.0,200.0,127.0,127.0,2.1,2.12,-258,-269,0,-280,260,268,298.5923933982849,298.5924723148346,298.59567523002625,298.607213973999,298.7477607727051,298.7477607727051,298.7477607727051,298.7477607727051,298.7477607727051,298.7477607727051,298.7477607727051,299.92813634872437,2,1.3027167320251465,None,,,,,,,,,,,,,,,,,,197,2,2025-03-05_14h28.26.128,comp,2024.2.4,57.93429616451374,2025-03-05 14h28.50.584252 -0500,
126,126,0,critical,whd,35.0,4.0,lower,57.0,133.0,133.0,57.0,70.0,70.0,2,2.1592559814453125,None,,,,,0,0,0,0,0,126,126,88,299.9440178871155,,,,,,,,,,,,,,,,,,,,,,,,,,,,,,,,,,,,,,,,,,,,,,,,,,,,,,,,,,,,,,,,,,,,,,,,,,,,,,,,,57.0,133.0,133.0,57.0,70.0,70.0,4.0,4.2,-191,7,0,-289,160,12,299.9297831058502,299.92989897727966,299.9337739944458,299.9440178871155,300.0916712284088,300.0916712284088,300.0916712284088,300.0916712284088,300.0916712284088,300.0916712284088,300.0916712284088,302.10905838012695,2,2.1592559814453125,None,,,,,,,,,,,,,,,,,,197,2,2025-03-05_14h28.26.128,comp,2024.2.4,57.93429616451374,2025-03-05 14h28.50.584252 -0500,
127,127,0,critical,whd,20.0,4.0,upper,125.0,200.0,200.0,125.0,141.0,141.0,2,2.460675001144409,None,,,,,0,0,0,0,0,127,127,95,302.12923884391785,,,,,,,,,,,,,,,,,,,,,,,,,,,,,,,,,,,,,,,,,,,,,,,,,,,,,,,,,,,,,,,,,,,,,,,,,,,,,,,,,125.0,200.0,200.0,125.0,141.0,141.0,4.0,4.2,-258,-1,0,-253,229,9,302.11066246032715,302.11074018478394,302.113835811615,302.12923884391785,302.2760615348816,302.2760615348816,302.2760615348816,302.2760615348816,302.2760615348816,302.2760615348816,302.2760615348816,304.5985653400421,2,2.460675001144409,None,,,,,,,,,,,,,,,,,,197,2,2025-03-05_14h28.26.128,comp,2024.2.4,57.93429616451374,2025-03-05 14h28.50.584252 -0500,
128,128,0,critical,wdh,35.0,4.0,lower,57.0,133.0,70.0,70.0,133.0,57.0,3,4.981799364089966,None,,,,,0,0,0,0,0,128,128,76,304.61539602279663,,,,,,,,,,,,,,,,,,,,,,,,,,,,,,,,,,,,,,,,,,,,,,,,,,,,,,,,,,,,,,,,,,,,,,,,,,,,,,,,,57.0,133.0,70.0,70.0,133.0,57.0,4.0,4.2,-198,6,0,-267,160,-9,304.60039043426514,304.6004681587219,304.6036705970764,304.61539602279663,304.7633686065674,304.7633686065674,304.7633686065674,304.7633686065674,304.7633686065674,304.7633686065674,304.7633686065674,309.6132655143738,3,4.981799364089966,None,,,,,,,,,,,,,,,,,,197,2,2025-03-05_14h28.26.128,comp,2024.2.4,57.93429616451374,2025-03-05 14h28.50.584252 -0500,
129,129,0,critical,wdh,35.0,3.0,lower,57.0,133.0,70.0,70.0,133.0,57.0,1,1.7522594928741455,None,,,,,0,0,0,0,0,129,129,74,309.6289188861847,,,,,,,,,,,,,,,,,,,,,,,,,,,,,,,,,,,,,,,,,,,,,,,,,,,,,,,,,,,,,,,,,,,,,,,,,,,,,,,,,57.0,133.0,70.0,70.0,133.0,57.0,3.0,3.2,-198,-259,0,19,160,289,309.6150186061859,309.61514830589294,309.61854887008667,309.6289188861847,309.779981136322,309.779981136322,309.779981136322,309.779981136322,309.779981136322,309.779981136322,309.779981136322,311.3970353603363,1,1.7522594928741455,None,,,,,,,,,,,,,,,,,,197,2,2025-03-05_14h28.26.128,comp,2024.2.4,57.93429616451374,2025-03-05 14h28.50.584252 -0500,
130,130,0,critical,wdh,35.0,2.1,lower,57.0,133.0,70.0,70.0,133.0,57.0,3,1.6166653633117676,None,,,,,0,0,0,0,0,130,130,8,311.41270422935486,,,,,,,,,,,,,,,,,,,,,,,,,,,,,,,,,,,,,,,,,,,,,,,,,,,,,,,,,,,,,,,,,,,,,,,,,,,,,,,,,57.0,133.0,70.0,70.0,133.0,57.0,2.1,2.12,-198,-271,0,-284,160,265,311.39869475364685,311.3988482952118,311.4023766517639,311.41270422935486,311.56262278556824,311.56262278556824,311.56262278556824,311.56262278556824,311.56262278556824,311.56262278556824,311.56262278556824,313.0474216938019,3,1.6166653633117676,None,,,,,,,,,,,,,,,,,,197,2,2025-03-05_14h28.26.128,comp,2024.2.4,57.93429616451374,2025-03-05 14h28.50.584252 -0500,
131,131,0,critical,dhw,35.0,3.0,upper,127.0,127.0,200.0,125.0,125.0,200.0,2,1.095405101776123,None,,,,,0,0,0,0,0,131,131,51,313.06275820732117,,,,,,,,,,,,,,,,,,,,,,,,,,,,,,,,,,,,,,,,,,,,,,,,,,,,,,,,,,,,,,,,,,,,,,,,,,,,,,,,,127.0,127.0,200.0,125.0,125.0,200.0,3.0,3.2,-222,-277,0,18,258,253,313.0489809513092,313.0490605831146,313.0525004863739,313.06275820732117,313.21470284461975,313.21470284461975,313.21470284461975,313.21470284461975,313.21470284461975,313.21470284461975,313.21470284461975,314.16220450401306,2,1.095405101776123,None,,,,,,,,,,,,,,,,,,197,2,2025-03-05_14h28.26.128,comp,2024.2.4,57.93429616451374,2025-03-05 14h28.50.584252 -0500,
132,132,0,filler_square,None,None,None,None,None,None,None,None,None,None,3,1.4032700061798096,None,,,,,0,0,0,0,0,132,132,193,314.17888164520264,,,,,,,,,,,,,,,,,,,,,,,,,,,,,,,,,,,,,,,,,,,,,,,,,,,,,,,,,,,,,,,,,,,,,,,,,,,,,,,,,169.61326372847594,186.46967437016457,117.77336361461667,110.89815813984927,190.91020535042412,190.91020535042412,1.0,1.3,235,-275,480,-260,727,-256,314.1641938686371,314.16427636146545,314.1676182746887,314.17888164520264,314.33068776130676,314.33068776130676,314.33068776130676,314.33068776130676,314.33068776130676,314.33068776130676,314.33068776130676,315.58821845054626,3,1.4032700061798096,None,,,,,,,,,,,,,,,,,,197,2,2025-03-05_14h28.26.128,comp,2024.2.4,57.93429616451374,2025-03-05 14h28.50.584252 -0500,
133,133,0,catch,None,None,None,None,None,None,None,None,None,None,2,0.9541139602661133,None,,,,,0,0,0,0,0,133,133,128,315.60377311706543,,,,,,,,,,,,,,,,,,,,,,,,,,,,,,,,,,,,,,,,,,,,,,,,,,,,,,,,,,,,,,,,,,,,,,,,,,,,,,,,,81,109,159,166,110,80,4.0,4.1,-234,-272,0,7,219,-260,315.5901372432709,315.5902178287506,315.5931828022003,315.60377311706543,315.7507131099701,315.7507131099701,315.7507131099701,315.7507131099701,315.7507131099701,315.7507131099701,315.7507131099701,316.561411857605,2,0.9541139602661133,None,,,,,,,,,,,,,,,,,,197,2,2025-03-05_14h28.26.128,comp,2024.2.4,57.93429616451374,2025-03-05 14h28.50.584252 -0500,
134,134,0,critical,hwd,20.0,2.1,upper,200.0,125.0,125.0,200.0,141.0,141.0,1,2.034963607788086,None,,,,,0,0,0,0,0,134,134,43,316.57888770103455,,,,,,,,,,,,,,,,,,,,,,,,,,,,,,,,,,,,,,,,,,,,,,,,,,,,,,,,,,,,,,,,,,,,,,,,,,,,,,,,,200.0,125.0,125.0,200.0,141.0,141.0,2.1,2.12,-258,-265,0,-272,266,277,316.5629918575287,316.5630729198456,316.5659747123718,316.57888770103455,316.7146213054657,316.7146213054657,316.7146213054657,316.7146213054657,316.7146213054657,316.7146213054657,316.7146213054657,318.61592173576355,1,2.034963607788086,None,,,,,,,,,,,,,,,,,,197,2,2025-03-05_14h28.26.128,comp,2024.2.4,57.93429616451374,2025-03-05 14h28.50.584252 -0500,
135,135,0,critical,hwd,35.0,3.0,upper,200.0,125.0,125.0,200.0,127.0,127.0,2,1.3088350296020508,None,,,,,0,0,0,0,0,135,135,99,318.633305311203,,,,,,,,,,,,,,,,,,,,,,,,,,,,,,,,,,,,,,,,,,,,,,,,,,,,,,,,,,,,,,,,,,,,,,,,,,,,,,,,,200.0,125.0,125.0,200.0,127.0,127.0,3.0,3.1,-258,283,0,20,260,-282,318.6177725791931,318.6179037094116,318.6216239929199,318.633305311203,318.78190636634827,318.78190636634827,318.78190636634827,318.78190636634827,318.78190636634827,318.78190636634827,318.78190636634827,319.950471162796,2,1.3088350296020508,None,,,,,,,,,,,,,,,,,,197,2,2025-03-05_14h28.26.128,comp,2024.2.4,57.93429616451374,2025-03-05 14h28.50.584252 -0500,
136,136,0,filler_square,None,None,None,None,None,None,None,None,None,None,2,0.5591037273406982,None,,,,,0,0,0,0,0,136,136,209,319.9670057296753,,,,,,,,,,,,,,,,,,,,,,,,,,,,,,,,,,,,,,,,,,,,,,,,,,,,,,,,,,,,,,,,,,,,,,,,,,,,,,,,,142.5828606736194,83.57428785706787,179.05412009272078,179.05412009272078,176.23027723319254,97.21132605251029,3.0,3.1,-227,257,0,-14,234,-274,319.9525570869446,319.9526369571686,319.95554780960083,319.9670057296753,320.1153185367584,320.1153185367584,320.1153185367584,320.1153185367584,320.1153185367584,320.1153185367584,320.1153185367584,320.53155994415283,2,0.5591037273406982,None,,,,,,,,,,,,,,,,,,197,2,2025-03-05_14h28.26.128,comp,2024.2.4,57.93429616451374,2025-03-05 14h28.50.584252 -0500,
137,137,0,critical,wdh,35.0,4.0,upper,125.0,200.0,127.0,127.0,200.0,125.0,1,1.457679033279419,None,,,,,0,0,0,0,0,137,137,77,320.5476129055023,,,,,,,,,,,,,,,,,,,,,,,,,,,,,,,,,,,,,,,,,,,,,,,,,,,,,,,,,,,,,,,,,,,,,,,,,,,,,,,,,125.0,200.0,127.0,127.0,200.0,125.0,4.0,4.2,-260,-12,0,-278,222,-14,320.5331015586853,320.5331802368164,320.5360474586487,320.5476129055023,320.69962906837463,320.69962906837463,320.69962906837463,320.69962906837463,320.69962906837463,320.69962906837463,320.69962906837463,322.01522493362427,1,1.457679033279419,None,,,,,,,,,,,,,,,,,,197,2,2025-03-05_14h28.26.128,comp,2024.2.4,57.93429616451374,2025-03-05 14h28.50.584252 -0500,
138,138,0,critical,dwh,35.0,4.0,lower,70.0,70.0,57.0,133.0,133.0,57.0,2,1.539583444595337,None,,,,,0,0,0,0,0,138,138,64,322.03361105918884,,,,,,,,,,,,,,,,,,,,,,,,,,,,,,,,,,,,,,,,,,,,,,,,,,,,,,,,,,,,,,,,,,,,,,,,,,,,,,,,,70.0,70.0,57.0,133.0,133.0,57.0,4.0,4.1,-198,-264,0,-16,191,-290,322.01681756973267,322.01692366600037,322.0202317237854,322.03361105918884,322.1688497066498,322.1688497066498,322.1688497066498,322.1688497066498,322.1688497066498,322.1688497066498,322.1688497066498,323.58789682388306,2,1.539583444595337,None,,,,,,,,,,,,,,,,,,197,2,2025-03-05_14h28.26.128,comp,2024.2.4,57.93429616451374,2025-03-05 14h28.50.584252 -0500,
139,139,0,filler_square,None,None,None,None,None,None,None,None,None,None,3,1.6325647830963135,None,,,,,0,0,0,0,0,139,139,205,323.6047840118408,,,,,,,,,,,,,,,,,,,,,,,,,,,,,,,,,,,,,,,,,,,,,,,,,,,,,,,,,,,,,,,,,,,,,,,,,,,,,,,,,124.07551855914521,123.08236935803681,123.41768127270825,80.37892927356837,130.36888653192298,130.36888653192298,3.0,3.2,-198,-260,0,-3,201,279,323.5896315574646,323.58970975875854,323.59259557724,323.6047840118408,323.747590303421,323.747590303421,323.747590303421,323.747590303421,323.747590303421,323.747590303421,323.747590303421,325.2517726421356,3,1.6325647830963135,None,,,,,,,,,,,,,,,,,,197,2,2025-03-05_14h28.26.128,comp,2024.2.4,57.93429616451374,2025-03-05 14h28.50.584252 -0500,
