thisN,thisTrialN,thisRepN,effect,order,distance,config,diag,h_1,w_1,h_2,w_2,h_3,w_3,rect_choice.keys,rect_choice.rt,rect_choice.duration,instructions_loop.thisRepN,instructions_loop.thisTrialN,instructions_loop.thisN,instructions_loop.thisIndex,blocks.thisRepN,blocks.thisTrialN,blocks.thisN,blocks.thisIndex,trials.thisRepN,trials.thisTrialN,trials.thisN,trials.thisIndex,thisRow.t,notes,consent.started,agree_button.started,decline_button.started,consent_img.started,mouse.started,consent.stopped,agree_button.numClicks,agree_button.timesOn,agree_button.timesOff,decline_button.numClicks,decline_button.timesOn,decline_button.timesOff,mouse.x,mouse.y,mouse.leftButton,mouse.midButton,mouse.rightButton,mouse.time,mouse.clicked_name,exp_params.started,exp_params.stopped,welcome.started,welcome_text.started,welcome.stopped,instructions_1.started,instructions_1_text_1.started,instructions_1_text_2.started,key_resp.started,instructions_1.stopped,instructions_loop.key_resp.keys,instructions_loop.key_resp.rt,instructions_loop.key_resp.duration,instructions_2.started,instructions_2_text_1.started,instructions_2_text_2.started,key_resp_2.started,instructions_2.stopped,instructions_loop.key_resp_2.keys,instructions_loop.key_resp_2.rt,instructions_loop.key_resp_2.duration,instructions_3.started,instructions_3_text_1.started,r1_instr3.started,r2_instr3.started,r3_instr3.started,r1_instr3_label.started,r2_instr3_label.started,r3_instr3_label.started,instructions_3_text_3.started,instructions_3_text_4.started,key_resp_3.started,instructions_3.stopped,instructions_loop.key_resp_3.keys,instructions_loop.key_resp_3.rt,instructions_loop.key_resp_3.duration,instructions_4.started,instructions_4_text_1.started,instructions_4_text_3.started,instructions_4_text_2.started,key_resp_4.started,instructions_4.stopped,instructions_loop.key_resp_4.keys,instructions_loop.key_resp_4.rt,instructions_loop.key_resp_4.duration,instructions_5.started,instructions_5_text_1.started,instructions_5_text_2.started,key_resp_5.started,instructions_5.stopped,instructions_loop.key_resp_5.keys,instructions_loop.key_resp_5.rt,instructions_loop.key_resp_5.duration,start_exp.started,start_exp_text.started,key_resp_6.started,start_exp.stopped,key_resp_6.keys,key_resp_6.rt,key_resp_6.duration,h_1_tmp,w_1_tmp,h_2_tmp,w_2_tmp,h_3_tmp,w_3_tmp,config_tmp,config_tmp_1,r_1_x,r_1_y,r_2_x,r_2_y,r_3_x,r_3_y,pre_trial.started,pre_trial.stopped,choice_trial.started,rect_choice.started,r_1.started,r_2.started,r_3.started,r_1_label.started,r_2_label.started,r_3_label.started,prompt.started,choice_trial.stopped,trials.rect_choice.keys,trials.rect_choice.rt,trials.rect_choice.duration,end_block.started,end_block_text.started,end_block.stopped,end.started,end_text.started,key_resp_7.started,end.stopped,key_resp_7.keys,key_resp_7.rt,key_resp_7.duration,debriefing.started,debrief_form.started,end_debrief.started,debriefing.stopped,end_debrief.keys,end_debrief.rt,end_debrief.duration,participant,computer,date,expName,psychopyVersion,frameRate,expStart,
,,,,,,,,,,,,,,,,,,,,,,,,,,,,,,,0.015133380889892578,0.0979156494140625,0.0979156494140625,0.0979156494140625,0.014684915542602539,7.691805601119995,1,[7.592672348022461],[7.592684507369995],0,,,[-96.0],[-490.0],[1],[0],[0],[7.659842252731323],['agree_button'],,,,,,,,,,,,,,,,,,,,,,,,,,,,,,,,,,,,,,,,,,,,,,,,,,,,,,,,,,,,,,,,,,,,,,,,,,,,,,,,,,,,,,,,,,,,,,,,,,,,,,,,,,,198,3,2025-03-06_09h32.00.501,comp,2024.2.4,63.709624255901524,2025-03-06 09h33.01.852125 -0500,
,,,,,,,,,,,,,,,,,,,,,,,,,,,,,,,,,,,,,,,,,,,,,,,,,,7.692116022109985,7.6921491622924805,,,,,,,,,,,,,,,,,,,,,,,,,,,,,,,,,,,,,,,,,,,,,,,,,,,,,,,,,,,,,,,,,,,,,,,,,,,,,,,,,,,,,,,,,,,,,,,,,,,,,,,,,198,3,2025-03-06_09h32.00.501,comp,2024.2.4,63.709624255901524,2025-03-06 09h33.01.852125 -0500,
,,,,,,,,,,,,,,,,,,,,,,,,,,,,,,,,,,,,,,,,,,,,,,,,,,,,7.692170858383179,7.706140995025635,9.703349590301514,,,,,,,,,,,,,,,,,,,,,,,,,,,,,,,,,,,,,,,,,,,,,,,,,,,,,,,,,,,,,,,,,,,,,,,,,,,,,,,,,,,,,,,,,,,,,,,,,,,,,,198,3,2025-03-06_09h32.00.501,comp,2024.2.4,63.709624255901524,2025-03-06 09h33.01.852125 -0500,
0,0,0,,,,,,,,,,,,,,,0,0,0,0,,,,,,,,,9.720067739486694,,,,,,,,,,,,,,,,,,,,,,,,,,9.703881025314331,9.720067739486694,9.720067739486694,11.203328132629395,14.888067483901978,space,3.667133331298828,None,14.888150691986084,14.903536558151245,14.903536558151245,16.40341019630432,20.837788820266724,space,4.416853189468384,None,20.837872743606567,20.89823269844055,20.89823269844055,20.89823269844055,20.89823269844055,20.89823269844055,20.89823269844055,20.89823269844055,20.89823269844055,20.89823269844055,22.336992979049683,27.438250064849854,space,5.083596467971802,None,27.438331127166748,27.453592777252197,27.453592777252197,27.453592777252197,28.953317880630493,36.770973682403564,space,7.810107469558716,None,36.771058797836304,36.78686332702637,36.78686332702637,38.2864944934845,39.604395627975464,space,1.3014931678771973,None,39.60450577735901,39.61984419822693,39.61984419822693,40.90420126914978,space,1.280275583267212,None,,,,,,,,,,,,,,,,,,,,,,,,,,,,,,,,,,,,,,,,,,,,,,,198,3,2025-03-06_09h32.00.501,comp,2024.2.4,63.709624255901524,2025-03-06 09h33.01.852125 -0500,
0,0,0,critical,dwh,35.0,1.0,lower,70.0,70.0,57.0,133.0,133.0,57.0,3,5.187605142593384,None,,,,,0,0,0,0,0,0,0,60,41.11894249916077,,,,,,,,,,,,,,,,,,,,,,,,,,,,,,,,,,,,,,,,,,,,,,,,,,,,,,,,,,,,,,,,,,,,,,,,,,,,,,,,,70.0,70.0,57.0,133.0,133.0,57.0,1.0,1.3,282,-253,480,-254,671,-276,41.104352951049805,41.10441708564758,41.10718894004822,41.11894249916077,41.259424686431885,41.259424686431885,41.259424686431885,41.259424686431885,41.259424686431885,41.259424686431885,41.259424686431885,46.32097506523132,3,5.187605142593384,None,,,,,,,,,,,,,,,,,,198,3,2025-03-06_09h32.00.501,comp,2024.2.4,63.709624255901524,2025-03-06 09h33.01.852125 -0500,
1,1,0,critical,dhw,35.0,4.0,upper,127.0,127.0,200.0,125.0,125.0,200.0,3,4.5058910846710205,None,,,,,0,0,0,0,0,1,1,53,46.33642315864563,,,,,,,,,,,,,,,,,,,,,,,,,,,,,,,,,,,,,,,,,,,,,,,,,,,,,,,,,,,,,,,,,,,,,,,,,,,,,,,,,127.0,127.0,200.0,125.0,125.0,200.0,4.0,4.2,-222,17,0,-252,258,14,46.32171154022217,46.32174873352051,46.32499718666077,46.33642315864563,46.486998081207275,46.486998081207275,46.486998081207275,46.486998081207275,46.486998081207275,46.486998081207275,46.486998081207275,50.854658126831055,3,4.5058910846710205,None,,,,,,,,,,,,,,,,,,198,3,2025-03-06_09h32.00.501,comp,2024.2.4,63.709624255901524,2025-03-06 09h33.01.852125 -0500,
2,2,0,critical,whd,20.0,4.0,lower,57.0,133.0,133.0,57.0,78.0,78.0,3,10.430078029632568,None,,,,,0,0,0,0,0,2,2,94,50.86973571777344,,,,,,,,,,,,,,,,,,,,,,,,,,,,,,,,,,,,,,,,,,,,,,,,,,,,,,,,,,,,,,,,,,,,,,,,,,,,,,,,,57.0,133.0,133.0,57.0,78.0,78.0,4.0,4.1,-191,-277,0,15,164,-273,50.85549211502075,50.85553312301636,50.85816502571106,50.86973571777344,51.01972770690918,51.01972770690918,51.01972770690918,51.01972770690918,51.01972770690918,51.01972770690918,51.01972770690918,61.304214000701904,3,10.430078029632568,None,,,,,,,,,,,,,,,,,,198,3,2025-03-06_09h32.00.501,comp,2024.2.4,63.709624255901524,2025-03-06 09h33.01.852125 -0500,
3,3,0,critical,hdw,35.0,1.0,upper,200.0,125.0,127.0,127.0,125.0,200.0,1,2.5955450534820557,None,,,,,0,0,0,0,0,3,3,109,61.31983923912048,,,,,,,,,,,,,,,,,,,,,,,,,,,,,,,,,,,,,,,,,,,,,,,,,,,,,,,,,,,,,,,,,,,,,,,,,,,,,,,,,200.0,125.0,127.0,127.0,125.0,200.0,1.0,1.1,-702,284,-480,260,-220,266,61.305004835128784,61.30504488945007,61.307408571243286,61.31983923912048,61.47006344795227,61.47006344795227,61.47006344795227,61.47006344795227,61.47006344795227,61.47006344795227,61.47006344795227,63.92115831375122,1,2.5955450534820557,None,,,,,,,,,,,,,,,,,,198,3,2025-03-06_09h32.00.501,comp,2024.2.4,63.709624255901524,2025-03-06 09h33.01.852125 -0500,
4,4,0,critical,dhw,20.0,1.0,upper,141.0,141.0,200.0,125.0,125.0,200.0,2,3.2505335807800293,None,,,,,0,0,0,0,0,4,4,55,63.936657428741455,,,,,,,,,,,,,,,,,,,,,,,,,,,,,,,,,,,,,,,,,,,,,,,,,,,,,,,,,,,,,,,,,,,,,,,,,,,,,,,,,141.0,141.0,200.0,125.0,125.0,200.0,1.0,1.1,-709,253,-480,279,-222,282,63.9219491481781,63.92199087142944,63.92410445213318,63.936657428741455,64.08667516708374,64.08667516708374,64.08667516708374,64.08667516708374,64.08667516708374,64.08667516708374,64.08667516708374,67.20449995994568,2,3.2505335807800293,None,,,,,,,,,,,,,,,,,,198,3,2025-03-06_09h32.00.501,comp,2024.2.4,63.709624255901524,2025-03-06 09h33.01.852125 -0500,
5,5,0,filler_square,None,None,None,None,None,None,None,None,None,None,3,1.8227596282958984,None,,,,,0,0,0,0,0,5,5,197,67.21961045265198,,,,,,,,,,,,,,,,,,,,,,,,,,,,,,,,,,,,,,,,,,,,,,,,,,,,,,,,,,,,,,,,,,,,,,,,,,,,,,,,,127.73760772712019,84.65168115560522,154.01952782137454,98.7407290743291,166.5930376486004,166.5930376486004,4.0,4.2,-188,-9,0,-261,229,-15,67.20545744895935,67.20549774169922,67.20794725418091,67.21961045265198,67.36984205245972,67.36984205245972,67.36984205245972,67.36984205245972,67.36984205245972,67.36984205245972,67.36984205245972,69.05457520484924,3,1.8227596282958984,None,,,,,,,,,,,,,,,,,,198,3,2025-03-06_09h32.00.501,comp,2024.2.4,63.709624255901524,2025-03-06 09h33.01.852125 -0500,
6,6,0,critical,whd,35.0,3.0,upper,125.0,200.0,200.0,125.0,127.0,127.0,1,3.077601432800293,None,,,,,0,0,0,0,0,6,6,87,69.06969928741455,,,,,,,,,,,,,,,,,,,,,,,,,,,,,,,,,,,,,,,,,,,,,,,,,,,,,,,,,,,,,,,,,,,,,,,,,,,,,,,,,125.0,200.0,200.0,125.0,127.0,127.0,3.0,3.2,-258,-255,0,-5,222,252,69.05540943145752,69.05545020103455,69.05745100975037,69.06969928741455,69.21983981132507,69.21983981132507,69.21983981132507,69.21983981132507,69.21983981132507,69.21983981132507,69.21983981132507,72.15432500839233,1,3.077601432800293,None,,,,,,,,,,,,,,,,,,198,3,2025-03-06_09h32.00.501,comp,2024.2.4,63.709624255901524,2025-03-06 09h33.01.852125 -0500,
7,7,0,filler_random,None,None,None,None,None,None,None,None,None,None,3,2.817481279373169,None,,,,,0,0,0,0,0,7,7,158,72.16976428031921,,,,,,,,,,,,,,,,,,,,,,,,,,,,,,,,,,,,,,,,,,,,,,,,,,,,,,,,,,,,,,,,,,,,,,,,,,,,,,,,,125.13724049649683,139.66800948684366,179.8552114777751,198.91840591041864,197.5079057198986,199.25716209511384,3.0,3.2,-265,-268,0,-15,295,271,72.15522599220276,72.15526723861694,72.15794062614441,72.16976428031921,72.31995415687561,72.31995415687561,72.31995415687561,72.31995415687561,72.31995415687561,72.31995415687561,72.31995415687561,75.00438475608826,3,2.817481279373169,None,,,,,,,,,,,,,,,,,,198,3,2025-03-06_09h32.00.501,comp,2024.2.4,63.709624255901524,2025-03-06 09h33.01.852125 -0500,
8,8,0,critical,dhw,20.0,4.0,upper,141.0,141.0,200.0,125.0,125.0,200.0,3,2.222543239593506,None,,,,,0,0,0,0,0,8,8,59,75.01956868171692,,,,,,,,,,,,,,,,,,,,,,,,,,,,,,,,,,,,,,,,,,,,,,,,,,,,,,,,,,,,,,,,,,,,,,,,,,,,,,,,,141.0,141.0,200.0,125.0,125.0,200.0,4.0,4.1,-229,-283,0,1,258,-279,75.00515675544739,75.00519442558289,75.00756430625916,75.01956868171692,75.16988372802734,75.16988372802734,75.16988372802734,75.16988372802734,75.16988372802734,75.16988372802734,75.16988372802734,77.2546157836914,3,2.222543239593506,None,,,,,,,,,,,,,,,,,,198,3,2025-03-06_09h32.00.501,comp,2024.2.4,63.709624255901524,2025-03-06 09h33.01.852125 -0500,
9,9,0,critical,hwd,20.0,1.0,upper,200.0,125.0,125.0,200.0,141.0,141.0,1,4.733943223953247,None,,,,,0,0,0,0,0,9,9,103,77.26951122283936,,,,,,,,,,,,,,,,,,,,,,,,,,,,,,,,,,,,,,,,,,,,,,,,,,,,,,,,,,,,,,,,,,,,,,,,,,,,,,,,,200.0,125.0,125.0,200.0,141.0,141.0,1.0,1.1,-738,275,-480,275,-214,283,77.2554099559784,77.25544714927673,77.25808787345886,77.26951122283936,77.41989302635193,77.41989302635193,77.41989302635193,77.41989302635193,77.41989302635193,77.41989302635193,77.41989302635193,82.02123260498047,1,4.733943223953247,None,,,,,,,,,,,,,,,,,,198,3,2025-03-06_09h32.00.501,comp,2024.2.4,63.709624255901524,2025-03-06 09h33.01.852125 -0500,
10,10,0,filler_square,None,None,None,None,None,None,None,None,None,None,3,6.333910226821899,None,,,,,0,0,0,0,0,10,10,174,82.03626489639282,,,,,,,,,,,,,,,,,,,,,,,,,,,,,,,,,,,,,,,,,,,,,,,,,,,,,,,,,,,,,,,,,,,,,,,,,,,,,,,,,58.49257772473245,57.69719490250213,58.02617938208349,59.55399761386779,59.71053513355652,59.71053513355652,4.0,4.2,-155,2,0,-252,156,-9,82.02219009399414,82.02222990989685,82.02434372901917,82.03626489639282,82.1865062713623,82.1865062713623,82.1865062713623,82.1865062713623,82.1865062713623,82.1865062713623,82.1865062713623,88.38729977607727,3,6.333910226821899,None,,,,,,,,,,,,,,,,,,198,3,2025-03-06_09h32.00.501,comp,2024.2.4,63.709624255901524,2025-03-06 09h33.01.852125 -0500,
11,11,0,critical,wdh,35.0,4.0,lower,57.0,133.0,70.0,70.0,133.0,57.0,3,5.024178504943848,None,,,,,0,0,0,0,0,11,11,76,88.40275883674622,,,,,,,,,,,,,,,,,,,,,,,,,,,,,,,,,,,,,,,,,,,,,,,,,,,,,,,,,,,,,,,,,,,,,,,,,,,,,,,,,57.0,133.0,70.0,70.0,133.0,57.0,4.0,4.2,-198,6,0,-290,160,8,88.38807153701782,88.388112783432,88.39055895805359,88.40275883674622,88.55289268493652,88.55289268493652,88.55289268493652,88.55289268493652,88.55289268493652,88.55289268493652,88.55289268493652,93.4373242855072,3,5.024178504943848,None,,,,,,,,,,,,,,,,,,198,3,2025-03-06_09h32.00.501,comp,2024.2.4,63.709624255901524,2025-03-06 09h33.01.852125 -0500,
12,12,0,catch,None,None,None,None,None,None,None,None,None,None,3,1.3009629249572754,None,,,,,0,0,0,0,0,12,12,120,93.45316195487976,,,,,,,,,,,,,,,,,,,,,,,,,,,,,,,,,,,,,,,,,,,,,,,,,,,,,,,,,,,,,,,,,,,,,,,,,,,,,,,,,88,102,67,123,129,196,3.0,3.1,-208,262,0,9,256,-285,93.43837642669678,93.4384195804596,93.44092774391174,93.45316195487976,93.60306930541992,93.60306930541992,93.60306930541992,93.60306930541992,93.60306930541992,93.60306930541992,93.60306930541992,94.77092909812927,3,1.3009629249572754,None,,,,,,,,,,,,,,,,,,198,3,2025-03-06_09h32.00.501,comp,2024.2.4,63.709624255901524,2025-03-06 09h33.01.852125 -0500,
13,13,0,critical,dhw,35.0,3.0,upper,127.0,127.0,200.0,125.0,125.0,200.0,3,8.320035219192505,None,,,,,0,0,0,0,0,13,13,51,94.78608655929565,,,,,,,,,,,,,,,,,,,,,,,,,,,,,,,,,,,,,,,,,,,,,,,,,,,,,,,,,,,,,,,,,,,,,,,,,,,,,,,,,127.0,127.0,200.0,125.0,125.0,200.0,3.0,3.2,-222,-287,0,-5,258,272,94.77174782752991,94.77178859710693,94.77410626411438,94.78608655929565,94.93639397621155,94.93639397621155,94.93639397621155,94.93639397621155,94.93639397621155,94.93639397621155,94.93639397621155,103.12096810340881,3,8.320035219192505,None,,,,,,,,,,,,,,,,,,198,3,2025-03-06_09h32.00.501,comp,2024.2.4,63.709624255901524,2025-03-06 09h33.01.852125 -0500,
14,14,0,filler_random,None,None,None,None,None,None,None,None,None,None,1,2.3331005573272705,None,,,,,0,0,0,0,0,14,14,140,103.13598799705505,,,,,,,,,,,,,,,,,,,,,,,,,,,,,,,,,,,,,,,,,,,,,,,,,,,,,,,,,,,,,,,,,,,,,,,,,,,,,,,,,118.24036968310536,126.1025621629622,163.85640833443463,94.1150508840957,103.84513885198717,183.96288139931056,4.0,4.2,-206,-5,0,-278,235,-10,103.12186026573181,103.12191319465637,103.1242208480835,103.13598799705505,103.2863359451294,103.2863359451294,103.2863359451294,103.2863359451294,103.2863359451294,103.2863359451294,103.2863359451294,105.471843957901,1,2.3331005573272705,None,,,,,,,,,,,,,,,,,,198,3,2025-03-06_09h32.00.501,comp,2024.2.4,63.709624255901524,2025-03-06 09h33.01.852125 -0500,
15,15,0,filler_random,None,None,None,None,None,None,None,None,None,None,3,2.0117015838623047,None,,,,,0,0,0,0,0,15,15,161,105.48823261260986,,,,,,,,,,,,,,,,,,,,,,,,,,,,,,,,,,,,,,,,,,,,,,,,,,,,,,,,,,,,,,,,,,,,,,,,,,,,,,,,,72.33337002901189,111.62788369774677,86.5833755517539,176.47403921112044,96.11335817667528,169.0983597605774,1.0,1.1,-720,261,-480,287,-211,282,105.47387433052063,105.47392225265503,105.47588658332825,105.48823261260986,105.6377260684967,105.6377260684967,105.6377260684967,105.6377260684967,105.6377260684967,105.6377260684967,105.6377260684967,107.50413012504578,3,2.0117015838623047,None,,,,,,,,,,,,,,,,,,198,3,2025-03-06_09h32.00.501,comp,2024.2.4,63.709624255901524,2025-03-06 09h33.01.852125 -0500,
16,16,0,filler_random,None,None,None,None,None,None,None,None,None,None,1,1.33831787109375,None,,,,,0,0,0,0,0,16,16,130,107.51961493492126,,,,,,,,,,,,,,,,,,,,,,,,,,,,,,,,,,,,,,,,,,,,,,,,,,,,,,,,,,,,,,,,,,,,,,,,,,,,,,,,,173.02165618160362,183.64443190876386,120.22956841152032,88.90513861410085,65.65627353846253,167.14149605024807,4.0,4.1,-232,-257,0,14,224,-262,107.5050220489502,107.50506353378296,107.50756669044495,107.51961493492126,107.66962242126465,107.66962242126465,107.66962242126465,107.66962242126465,107.66962242126465,107.66962242126465,107.66962242126465,108.87081956863403,1,1.33831787109375,None,,,,,,,,,,,,,,,,,,198,3,2025-03-06_09h32.00.501,comp,2024.2.4,63.709624255901524,2025-03-06 09h33.01.852125 -0500,
17,17,0,critical,hdw,20.0,2.1,upper,200.0,125.0,141.0,141.0,125.0,200.0,3,2.6842260360717773,None,,,,,0,0,0,0,0,17,17,47,108.8859224319458,,,,,,,,,,,,,,,,,,,,,,,,,,,,,,,,,,,,,,,,,,,,,,,,,,,,,,,,,,,,,,,,,,,,,,,,,,,,,,,,,200.0,125.0,141.0,141.0,125.0,200.0,2.1,2.11,-229,270,0,287,266,-260,108.87162661552429,108.87166690826416,108.87393474578857,108.8859224319458,109.03645277023315,109.03645277023315,109.03645277023315,109.03645277023315,109.03645277023315,109.03645277023315,109.03645277023315,111.58739948272705,3,2.6842260360717773,None,,,,,,,,,,,,,,,,,,198,3,2025-03-06_09h32.00.501,comp,2024.2.4,63.709624255901524,2025-03-06 09h33.01.852125 -0500,
18,18,0,filler_random,None,None,None,None,None,None,None,None,None,None,3,0.9759342670440674,None,,,,,0,0,0,0,0,18,18,146,111.6028220653534,,,,,,,,,,,,,,,,,,,,,,,,,,,,,,,,,,,,,,,,,,,,,,,,,,,,,,,,,,,,,,,,,,,,,,,,,,,,,,,,,99.73912678746757,107.71309695516484,61.0680111641066,157.80660811069237,157.53685838762377,193.31901623765464,1.0,1.1,-709,265,-480,262,-208,265,111.58828473091125,111.58832430839539,111.59075045585632,111.6028220653534,111.75286865234375,111.75286865234375,111.75286865234375,111.75286865234375,111.75286865234375,111.75286865234375,111.75286865234375,112.58729243278503,3,0.9759342670440674,None,,,,,,,,,,,,,,,,,,198,3,2025-03-06_09h32.00.501,comp,2024.2.4,63.709624255901524,2025-03-06 09h33.01.852125 -0500,
19,19,0,critical,dwh,20.0,2.1,lower,78.0,78.0,57.0,133.0,133.0,57.0,2,7.327785491943359,None,,,,,0,0,0,0,0,19,19,6,112.60301423072815,,,,,,,,,,,,,,,,,,,,,,,,,,,,,,,,,,,,,,,,,,,,,,,,,,,,,,,,,,,,,,,,,,,,,,,,,,,,,,,,,78.0,78.0,57.0,133.0,133.0,57.0,2.1,2.12,-202,-254,0,-261,191,288,112.58809924125671,112.58814096450806,112.59056067466736,112.60301423072815,112.75281000137329,112.75281000137329,112.75281000137329,112.75281000137329,112.75281000137329,112.75281000137329,112.75281000137329,119.93713974952698,2,7.327785491943359,None,,,,,,,,,,,,,,,,,,198,3,2025-03-06_09h32.00.501,comp,2024.2.4,63.709624255901524,2025-03-06 09h33.01.852125 -0500,
20,20,0,critical,dhw,35.0,1.0,upper,127.0,127.0,200.0,125.0,125.0,200.0,2,1.6741302013397217,None,,,,,0,0,0,0,0,20,20,49,119.95280504226685,,,,,,,,,,,,,,,,,,,,,,,,,,,,,,,,,,,,,,,,,,,,,,,,,,,,,,,,,,,,,,,,,,,,,,,,,,,,,,,,,127.0,127.0,200.0,125.0,125.0,200.0,1.0,1.2,-222,11,0,-17,258,-12,119.93792128562927,119.93796229362488,119.94033718109131,119.95280504226685,120.10309076309204,120.10309076309204,120.10309076309204,120.10309076309204,120.10309076309204,120.10309076309204,120.10309076309204,121.63732481002808,2,1.6741302013397217,None,,,,,,,,,,,,,,,,,,198,3,2025-03-06_09h32.00.501,comp,2024.2.4,63.709624255901524,2025-03-06 09h33.01.852125 -0500,
21,21,0,filler_square,None,None,None,None,None,None,None,None,None,None,3,1.8853304386138916,None,,,,,0,0,0,0,0,21,21,182,121.65278601646423,,,,,,,,,,,,,,,,,,,,,,,,,,,,,,,,,,,,,,,,,,,,,,,,,,,,,,,,,,,,,,,,,,,,,,,,,,,,,,,,,152.2615308454047,185.2879748703814,141.76931601615104,155.29951639860715,191.58149302418522,191.58149302418522,1.0,1.3,214,-285,480,-250,749,-250,121.63832664489746,121.63836932182312,121.64082431793213,121.65278601646423,121.80322742462158,121.80322742462158,121.80322742462158,121.80322742462158,121.80322742462158,121.80322742462158,121.80322742462158,123.5540075302124,3,1.8853304386138916,None,,,,,,,,,,,,,,,,,,198,3,2025-03-06_09h32.00.501,comp,2024.2.4,63.709624255901524,2025-03-06 09h33.01.852125 -0500,
22,22,0,critical,hwd,20.0,3.0,upper,200.0,125.0,125.0,200.0,141.0,141.0,2,3.6340115070343018,None,,,,,0,0,0,0,0,22,22,105,123.56913447380066,,,,,,,,,,,,,,,,,,,,,,,,,,,,,,,,,,,,,,,,,,,,,,,,,,,,,,,,,,,,,,,,,,,,,,,,,,,,,,,,,200.0,125.0,125.0,200.0,141.0,141.0,3.0,3.2,-258,-260,0,14,266,288,123.5547845363617,123.55482196807861,123.55710411071777,123.56913447380066,123.7195794582367,123.7195794582367,123.7195794582367,123.7195794582367,123.7195794582367,123.7195794582367,123.7195794582367,127.20431208610535,2,3.6340115070343018,None,,,,,,,,,,,,,,,,,,198,3,2025-03-06_09h32.00.501,comp,2024.2.4,63.709624255901524,2025-03-06 09h33.01.852125 -0500,
23,23,0,filler_random,None,None,None,None,None,None,None,None,None,None,2,1.8712575435638428,None,,,,,0,0,0,0,0,23,23,166,127.2194938659668,,,,,,,,,,,,,,,,,,,,,,,,,,,,,,,,,,,,,,,,,,,,,,,,,,,,,,,,,,,,,,,,,,,,,,,,,,,,,,,,,85.52319354991512,119.19636353120532,173.56194372722956,113.82942615227341,71.41134323022567,114.50932193870518,2.2,2.21,-213,-278,0,257,210,266,127.20520615577698,127.20524597167969,127.20760822296143,127.2194938659668,127.36944913864136,127.36944913864136,127.36944913864136,127.36944913864136,127.36944913864136,127.36944913864136,127.36944913864136,129.1040427684784,2,1.8712575435638428,None,,,,,,,,,,,,,,,,,,198,3,2025-03-06_09h32.00.501,comp,2024.2.4,63.709624255901524,2025-03-06 09h33.01.852125 -0500,
24,24,0,filler_random,None,None,None,None,None,None,None,None,None,None,3,7.138476371765137,None,,,,,0,0,0,0,0,24,24,134,129.11925649642944,,,,,,,,,,,,,,,,,,,,,,,,,,,,,,,,,,,,,,,,,,,,,,,,,,,,,,,,,,,,,,,,,,,,,,,,,,,,,,,,,130.12977828457997,158.13261260674818,89.55793925545863,117.8902667939899,117.89100754775596,156.34218734216654,2.2,2.22,-234,271,0,-281,233,-289,129.10497570037842,129.10501623153687,129.10710167884827,129.11925649642944,129.2694103717804,129.2694103717804,129.2694103717804,129.2694103717804,129.2694103717804,129.2694103717804,129.2694103717804,136.27057218551636,3,7.138476371765137,None,,,,,,,,,,,,,,,,,,198,3,2025-03-06_09h32.00.501,comp,2024.2.4,63.709624255901524,2025-03-06 09h33.01.852125 -0500,
25,25,0,critical,whd,20.0,2.1,lower,57.0,133.0,133.0,57.0,78.0,78.0,2,2.8047831058502197,None,,,,,0,0,0,0,0,25,25,14,136.2858428955078,,,,,,,,,,,,,,,,,,,,,,,,,,,,,,,,,,,,,,,,,,,,,,,,,,,,,,,,,,,,,,,,,,,,,,,,,,,,,,,,,57.0,133.0,133.0,57.0,78.0,78.0,2.1,2.12,-191,-282,0,-284,164,274,136.2713816165924,136.271422624588,136.27370595932007,136.2858428955078,136.43592476844788,136.43592476844788,136.43592476844788,136.43592476844788,136.43592476844788,136.43592476844788,136.43592476844788,139.1038374900818,2,2.8047831058502197,None,,,,,,,,,,,,,,,,,,198,3,2025-03-06_09h32.00.501,comp,2024.2.4,63.709624255901524,2025-03-06 09h33.01.852125 -0500,
26,26,0,critical,wdh,35.0,2.1,upper,125.0,200.0,127.0,127.0,200.0,125.0,1,3.618969678878784,None,,,,,0,0,0,0,0,26,26,33,139.11901116371155,,,,,,,,,,,,,,,,,,,,,,,,,,,,,,,,,,,,,,,,,,,,,,,,,,,,,,,,,,,,,,,,,,,,,,,,,,,,,,,,,125.0,200.0,127.0,127.0,200.0,125.0,2.1,2.11,-260,285,0,287,222,-289,139.10464668273926,139.10468554496765,139.1069188117981,139.11901116371155,139.26953172683716,139.26953172683716,139.26953172683716,139.26953172683716,139.26953172683716,139.26953172683716,139.26953172683716,142.75389218330383,1,3.618969678878784,None,,,,,,,,,,,,,,,,,,198,3,2025-03-06_09h32.00.501,comp,2024.2.4,63.709624255901524,2025-03-06 09h33.01.852125 -0500,
27,27,0,filler_square,None,None,None,None,None,None,None,None,None,None,1,1.6575636863708496,None,,,,,0,0,0,0,0,27,27,207,142.76907110214233,,,,,,,,,,,,,,,,,,,,,,,,,,,,,,,,,,,,,,,,,,,,,,,,,,,,,,,,,,,,,,,,,,,,,,,,,,,,,,,,,105.59411755577902,105.59411755577902,87.74607487314846,91.11163543108684,72.2818120585834,78.9702655399434,1.0,1.2,-194,11,0,-4,181,-1,142.7548360824585,142.75487756729126,142.75719666481018,142.76907110214233,142.91924786567688,142.91924786567688,142.91924786567688,142.91924786567688,142.91924786567688,142.91924786567688,142.91924786567688,144.43697500228882,1,1.6575636863708496,None,,,,,,,,,,,,,,,,,,198,3,2025-03-06_09h32.00.501,comp,2024.2.4,63.709624255901524,2025-03-06 09h33.01.852125 -0500,
28,28,0,filler_random,None,None,None,None,None,None,None,None,None,None,3,2.830861806869507,None,,,,,0,0,0,0,0,28,28,132,144.45262122154236,,,,,,,,,,,,,,,,,,,,,,,,,,,,,,,,,,,,,,,,,,,,,,,,,,,,,,,,,,,,,,,,,,,,,,,,,,,,,,,,,130.72225362073857,189.04721351483076,129.57492731921099,152.27315482271948,195.41991488489793,152.71066041653793,4.0,4.1,-267,-275,0,4,248,-267,144.43785858154297,144.4379141330719,144.4400041103363,144.45262122154236,144.602863073349,144.602863073349,144.602863073349,144.602863073349,144.602863073349,144.602863073349,144.602863073349,147.28731989860535,3,2.830861806869507,None,,,,,,,,,,,,,,,,,,198,3,2025-03-06_09h32.00.501,comp,2024.2.4,63.709624255901524,2025-03-06 09h33.01.852125 -0500,
29,29,0,critical,whd,20.0,2.1,upper,125.0,200.0,200.0,125.0,141.0,141.0,1,2.092090606689453,None,,,,,0,0,0,0,0,29,29,39,147.3026087284088,,,,,,,,,,,,,,,,,,,,,,,,,,,,,,,,,,,,,,,,,,,,,,,,,,,,,,,,,,,,,,,,,,,,,,,,,,,,,,,,,125.0,200.0,200.0,125.0,141.0,141.0,2.1,2.12,-258,-256,0,-285,229,287,147.28811526298523,147.28815484046936,147.29059863090515,147.3026087284088,147.4527027606964,147.4527027606964,147.4527027606964,147.4527027606964,147.4527027606964,147.4527027606964,147.4527027606964,149.40381455421448,1,2.092090606689453,None,,,,,,,,,,,,,,,,,,198,3,2025-03-06_09h32.00.501,comp,2024.2.4,63.709624255901524,2025-03-06 09h33.01.852125 -0500,
30,30,0,critical,hdw,35.0,1.0,lower,133.0,57.0,70.0,70.0,57.0,133.0,1,3.4953606128692627,None,,,,,0,0,0,0,0,30,30,108,149.4192066192627,,,,,,,,,,,,,,,,,,,,,,,,,,,,,,,,,,,,,,,,,,,,,,,,,,,,,,,,,,,,,,,,,,,,,,,,,,,,,,,,,133.0,57.0,70.0,70.0,57.0,133.0,1.0,1.2,-160,5,0,19,198,17,149.40458917617798,149.40462827682495,149.40678882598877,149.4192066192627,149.5691568851471,149.5691568851471,149.5691568851471,149.5691568851471,149.5691568851471,149.5691568851471,149.5691568851471,152.9203908443451,1,3.4953606128692627,None,,,,,,,,,,,,,,,,,,198,3,2025-03-06_09h32.00.501,comp,2024.2.4,63.709624255901524,2025-03-06 09h33.01.852125 -0500,
31,31,0,filler_square,None,None,None,None,None,None,None,None,None,None,3,4.13238787651062,None,,,,,0,0,0,0,0,31,31,200,152.93596291542053,,,,,,,,,,,,,,,,,,,,,,,,,,,,,,,,,,,,,,,,,,,,,,,,,,,,,,,,,,,,,,,,,,,,,,,,,,,,,,,,,65.33806920923688,71.55811989246996,92.90235679285361,82.10486233352768,99.38857622754662,99.38857622754662,2.1,2.11,-173,255,0,282,187,-254,152.9213674068451,152.92141032218933,152.923814535141,152.93596291542053,153.08572816848755,153.08572816848755,153.08572816848755,153.08572816848755,153.08572816848755,153.08572816848755,153.08572816848755,157.08687806129456,3,4.13238787651062,None,,,,,,,,,,,,,,,,,,198,3,2025-03-06_09h32.00.501,comp,2024.2.4,63.709624255901524,2025-03-06 09h33.01.852125 -0500,
32,32,0,critical,hwd,35.0,3.0,upper,200.0,125.0,125.0,200.0,127.0,127.0,2,2.550088882446289,None,,,,,0,0,0,0,0,32,32,99,157.10236620903015,,,,,,,,,,,,,,,,,,,,,,,,,,,,,,,,,,,,,,,,,,,,,,,,,,,,,,,,,,,,,,,,,,,,,,,,,,,,,,,,,200.0,125.0,125.0,200.0,127.0,127.0,3.0,3.2,-258,-271,0,17,260,284,157.08769607543945,157.08773636817932,157.08979678153992,157.10236620903015,157.25288939476013,157.25288939476013,157.25288939476013,157.25288939476013,157.25288939476013,157.25288939476013,157.25288939476013,159.65400552749634,2,2.550088882446289,None,,,,,,,,,,,,,,,,,,198,3,2025-03-06_09h32.00.501,comp,2024.2.4,63.709624255901524,2025-03-06 09h33.01.852125 -0500,
33,33,0,critical,dhw,20.0,2.1,upper,141.0,141.0,200.0,125.0,125.0,200.0,3,2.0932013988494873,None,,,,,0,0,0,0,0,33,33,3,159.669273853302,,,,,,,,,,,,,,,,,,,,,,,,,,,,,,,,,,,,,,,,,,,,,,,,,,,,,,,,,,,,,,,,,,,,,,,,,,,,,,,,,141.0,141.0,200.0,125.0,125.0,200.0,2.1,2.12,-229,-267,0,-251,258,262,159.65481042861938,159.6548490524292,159.65728878974915,159.669273853302,159.8193395137787,159.8193395137787,159.8193395137787,159.8193395137787,159.8193395137787,159.8193395137787,159.8193395137787,161.77039432525635,3,2.0932013988494873,None,,,,,,,,,,,,,,,,,,198,3,2025-03-06_09h32.00.501,comp,2024.2.4,63.709624255901524,2025-03-06 09h33.01.852125 -0500,
34,34,0,critical,dwh,20.0,1.0,upper,141.0,141.0,125.0,200.0,200.0,125.0,3,2.20049786567688,None,,,,,0,0,0,0,0,34,34,67,161.78597331047058,,,,,,,,,,,,,,,,,,,,,,,,,,,,,,,,,,,,,,,,,,,,,,,,,,,,,,,,,,,,,,,,,,,,,,,,,,,,,,,,,141.0,141.0,125.0,200.0,200.0,125.0,1.0,1.3,214,-280,480,-263,738,-267,161.7712047100067,161.77124500274658,161.773362159729,161.78597331047058,161.93588638305664,161.93588638305664,161.93588638305664,161.93588638305664,161.93588638305664,161.93588638305664,161.93588638305664,164.00373435020447,3,2.20049786567688,None,,,,,,,,,,,,,,,,,,198,3,2025-03-06_09h32.00.501,comp,2024.2.4,63.709624255901524,2025-03-06 09h33.01.852125 -0500,
35,35,0,critical,wdh,20.0,2.1,upper,125.0,200.0,141.0,141.0,200.0,125.0,3,4.07986855506897,None,,,,,0,0,0,0,0,35,35,11,164.01892638206482,,,,,,,,,,,,,,,,,,,,,,,,,,,,,,,,,,,,,,,,,,,,,,,,,,,,,,,,,,,,,,,,,,,,,,,,,,,,,,,,,125.0,200.0,141.0,141.0,200.0,125.0,2.1,2.11,-266,289,0,257,229,-281,164.0045313835144,164.00457048416138,164.00708603858948,164.01892638206482,164.16919612884521,164.16919612884521,164.16919612884521,164.16919612884521,164.16919612884521,164.16919612884521,164.16919612884521,168.10423183441162,3,4.07986855506897,None,,,,,,,,,,,,,,,,,,198,3,2025-03-06_09h32.00.501,comp,2024.2.4,63.709624255901524,2025-03-06 09h33.01.852125 -0500,
36,36,0,critical,dwh,35.0,2.1,lower,70.0,70.0,57.0,133.0,133.0,57.0,3,4.464497804641724,None,,,,,0,0,0,0,0,36,36,4,168.12164449691772,,,,,,,,,,,,,,,,,,,,,,,,,,,,,,,,,,,,,,,,,,,,,,,,,,,,,,,,,,,,,,,,,,,,,,,,,,,,,,,,,70.0,70.0,57.0,133.0,133.0,57.0,2.1,2.11,-198,259,0,270,191,-290,168.10504722595215,168.1050887107849,168.10929536819458,168.12164449691772,168.26902294158936,168.26902294158936,168.26902294158936,168.26902294158936,168.26902294158936,168.26902294158936,168.26902294158936,172.6036536693573,3,4.464497804641724,None,,,,,,,,,,,,,,,,,,198,3,2025-03-06_09h32.00.501,comp,2024.2.4,63.709624255901524,2025-03-06 09h33.01.852125 -0500,
37,37,0,critical,hwd,20.0,4.0,lower,133.0,57.0,57.0,133.0,78.0,78.0,2,2.8225526809692383,None,,,,,0,0,0,0,0,37,37,106,172.61895895004272,,,,,,,,,,,,,,,,,,,,,,,,,,,,,,,,,,,,,,,,,,,,,,,,,,,,,,,,,,,,,,,,,,,,,,,,,,,,,,,,,133.0,57.0,57.0,133.0,78.0,78.0,4.0,4.2,-191,6,0,-274,202,-3,172.60444712638855,172.60448741912842,172.6070613861084,172.61895895004272,172.76899600028992,172.76899600028992,172.76899600028992,172.76899600028992,172.76899600028992,172.76899600028992,172.76899600028992,175.45365619659424,2,2.8225526809692383,None,,,,,,,,,,,,,,,,,,198,3,2025-03-06_09h32.00.501,comp,2024.2.4,63.709624255901524,2025-03-06 09h33.01.852125 -0500,
38,38,0,critical,hdw,35.0,2.1,lower,133.0,57.0,70.0,70.0,57.0,133.0,1,3.0368387699127197,None,,,,,0,0,0,0,0,38,38,44,175.4688470363617,,,,,,,,,,,,,,,,,,,,,,,,,,,,,,,,,,,,,,,,,,,,,,,,,,,,,,,,,,,,,,,,,,,,,,,,,,,,,,,,,133.0,57.0,70.0,70.0,57.0,133.0,2.1,2.12,-160,-283,0,-251,198,285,175.45444321632385,175.45448303222656,175.45697283744812,175.4688470363617,175.6190001964569,175.6190001964569,175.6190001964569,175.6190001964569,175.6190001964569,175.6190001964569,175.6190001964569,178.52004551887512,1,3.0368387699127197,None,,,,,,,,,,,,,,,,,,198,3,2025-03-06_09h32.00.501,comp,2024.2.4,63.709624255901524,2025-03-06 09h33.01.852125 -0500,
39,39,0,catch,None,None,None,None,None,None,None,None,None,None,2,1.2182037830352783,None,,,,,0,0,0,0,0,39,39,121,178.53538632392883,,,,,,,,,,,,,,,,,,,,,,,,,,,,,,,,,,,,,,,,,,,,,,,,,,,,,,,,,,,,,,,,,,,,,,,,,,,,,,,,,122,68,143,182,94,96,4.0,4.1,-221,-260,0,8,235,-260,178.52108716964722,178.52112746238708,178.52357625961304,178.53538632392883,178.68605279922485,178.68605279922485,178.68605279922485,178.68605279922485,178.68605279922485,178.68605279922485,178.68605279922485,179.7701177597046,2,1.2182037830352783,None,,,,,,,,,,,,,,,,,,198,3,2025-03-06_09h32.00.501,comp,2024.2.4,63.709624255901524,2025-03-06 09h33.01.852125 -0500,
40,40,0,critical,hdw,20.0,1.0,lower,133.0,57.0,78.0,78.0,57.0,133.0,1,5.4824628829956055,None,,,,,0,0,0,0,0,40,40,114,179.78538417816162,,,,,,,,,,,,,,,,,,,,,,,,,,,,,,,,,,,,,,,,,,,,,,,,,,,,,,,,,,,,,,,,,,,,,,,,,,,,,,,,,133.0,57.0,78.0,78.0,57.0,133.0,1.0,1.3,316,-270,480,-284,682,-282,179.7708921432495,179.77094435691833,179.77339124679565,179.78538417816162,179.93553256988525,179.93553256988525,179.93553256988525,179.93553256988525,179.93553256988525,179.93553256988525,179.93553256988525,185.2701735496521,1,5.4824628829956055,None,,,,,,,,,,,,,,,,,,198,3,2025-03-06_09h32.00.501,comp,2024.2.4,63.709624255901524,2025-03-06 09h33.01.852125 -0500,
41,41,0,critical,dwh,35.0,2.1,upper,127.0,127.0,125.0,200.0,200.0,125.0,2,4.124637603759766,None,,,,,0,0,0,0,0,41,41,5,185.28577518463135,,,,,,,,,,,,,,,,,,,,,,,,,,,,,,,,,,,,,,,,,,,,,,,,,,,,,,,,,,,,,,,,,,,,,,,,,,,,,,,,,127.0,127.0,125.0,200.0,200.0,125.0,2.1,2.11,-260,287,0,254,258,-263,185.27097177505493,185.27101278305054,185.27314352989197,185.28577518463135,185.4359450340271,185.4359450340271,185.4359450340271,185.4359450340271,185.4359450340271,185.4359450340271,185.4359450340271,189.4202208518982,2,4.124637603759766,None,,,,,,,,,,,,,,,,,,198,3,2025-03-06_09h32.00.501,comp,2024.2.4,63.709624255901524,2025-03-06 09h33.01.852125 -0500,
42,42,0,critical,wdh,20.0,2.1,lower,57.0,133.0,78.0,78.0,133.0,57.0,3,3.566666603088379,None,,,,,0,0,0,0,0,42,42,10,189.43579149246216,,,,,,,,,,,,,,,,,,,,,,,,,,,,,,,,,,,,,,,,,,,,,,,,,,,,,,,,,,,,,,,,,,,,,,,,,,,,,,,,,57.0,133.0,78.0,78.0,133.0,57.0,2.1,2.11,-202,261,0,285,164,-266,189.42112278938293,189.42116355895996,189.42334818840027,189.43579149246216,189.5858383178711,189.5858383178711,189.5858383178711,189.5858383178711,189.5858383178711,189.5858383178711,189.5858383178711,193.01995158195496,3,3.566666603088379,None,,,,,,,,,,,,,,,,,,198,3,2025-03-06_09h32.00.501,comp,2024.2.4,63.709624255901524,2025-03-06 09h33.01.852125 -0500,
43,43,0,critical,dwh,35.0,3.0,lower,70.0,70.0,57.0,133.0,133.0,57.0,3,2.286360502243042,None,,,,,0,0,0,0,0,43,43,62,193.03531050682068,,,,,,,,,,,,,,,,,,,,,,,,,,,,,,,,,,,,,,,,,,,,,,,,,,,,,,,,,,,,,,,,,,,,,,,,,,,,,,,,,70.0,70.0,57.0,133.0,133.0,57.0,3.0,3.1,-198,281,0,-9,191,-269,193.02071332931519,193.020751953125,193.02279615402222,193.03531050682068,193.18552422523499,193.18552422523499,193.18552422523499,193.18552422523499,193.18552422523499,193.18552422523499,193.18552422523499,195.3366425037384,3,2.286360502243042,None,,,,,,,,,,,,,,,,,,198,3,2025-03-06_09h32.00.501,comp,2024.2.4,63.709624255901524,2025-03-06 09h33.01.852125 -0500,
44,44,0,filler_square,None,None,None,None,None,None,None,None,None,None,3,1.889092206954956,None,,,,,0,0,0,0,0,44,44,203,195.3522243499756,,,,,,,,,,,,,,,,,,,,,,,,,,,,,,,,,,,,,,,,,,,,,,,,,,,,,,,,,,,,,,,,,,,,,,,,,,,,,,,,,58.62755132613586,164.82286865916802,99.53058531399883,115.36061103151629,167.22374152537273,167.22374152537273,2.2,2.21,-236,-282,0,252,237,262,195.33762764930725,195.33766794204712,195.34028720855713,195.3522243499756,195.50244808197021,195.50244808197021,195.50244808197021,195.50244808197021,195.50244808197021,195.50244808197021,195.50244808197021,197.25376987457275,3,1.889092206954956,None,,,,,,,,,,,,,,,,,,198,3,2025-03-06_09h32.00.501,comp,2024.2.4,63.709624255901524,2025-03-06 09h33.01.852125 -0500,
45,45,0,filler_random,None,None,None,None,None,None,None,None,None,None,3,1.3886241912841797,None,,,,,0,0,0,0,0,45,45,165,197.2688193321228,,,,,,,,,,,,,,,,,,,,,,,,,,,,,,,,,,,,,,,,,,,,,,,,,,,,,,,,,,,,,,,,,,,,,,,,,,,,,,,,,177.55710275323798,82.84622952699046,165.99113301261968,104.85621834859718,162.10010360349273,163.07461012937762,2.2,2.22,-190,285,0,-254,230,-250,197.25471997261047,197.2547607421875,197.25729393959045,197.2688193321228,197.4189670085907,197.4189670085907,197.4189670085907,197.4189670085907,197.4189670085907,197.4189670085907,197.4189670085907,198.6700475215912,3,1.3886241912841797,None,,,,,,,,,,,,,,,,,,198,3,2025-03-06_09h32.00.501,comp,2024.2.4,63.709624255901524,2025-03-06 09h33.01.852125 -0500,
46,46,0,filler_square,None,None,None,None,None,None,None,None,None,None,2,2.75596284866333,None,,,,,0,0,0,0,0,46,46,178,198.68540406227112,,,,,,,,,,,,,,,,,,,,,,,,,,,,,,,,,,,,,,,,,,,,,,,,,,,,,,,,,,,,,,,,,,,,,,,,,,,,,,,,,158.76523362037744,68.57810526609823,173.1258492235836,173.1258492235836,154.92382784316618,154.7799535148443,2.1,2.11,-217,278,0,258,260,-267,198.6710066795349,198.67104721069336,198.67338180541992,198.68540406227112,198.83562755584717,198.83562755584717,198.83562755584717,198.83562755584717,198.83562755584717,198.83562755584717,198.83562755584717,201.4538450241089,2,2.75596284866333,None,,,,,,,,,,,,,,,,,,198,3,2025-03-06_09h32.00.501,comp,2024.2.4,63.709624255901524,2025-03-06 09h33.01.852125 -0500,
47,47,0,filler_random,None,None,None,None,None,None,None,None,None,None,3,1.9170522689819336,None,,,,,0,0,0,0,0,47,47,150,201.4686951637268,,,,,,,,,,,,,,,,,,,,,,,,,,,,,,,,,,,,,,,,,,,,,,,,,,,,,,,,,,,,,,,,,,,,,,,,,,,,,,,,,70.70558302335864,113.22290712996073,73.91554725129072,61.889690214110324,159.31064362009874,71.79131396842511,1.0,1.2,-184,12,0,15,163,-13,201.4547302722931,201.45477056503296,201.45725464820862,201.4686951637268,201.6189193725586,201.6189193725586,201.6189193725586,201.6189193725586,201.6189193725586,201.6189193725586,201.6189193725586,203.40322709083557,3,1.9170522689819336,None,,,,,,,,,,,,,,,,,,198,3,2025-03-06_09h32.00.501,comp,2024.2.4,63.709624255901524,2025-03-06 09h33.01.852125 -0500,
48,48,0,critical,hdw,20.0,2.1,lower,133.0,57.0,78.0,78.0,57.0,133.0,3,5.454797744750977,None,,,,,0,0,0,0,0,48,48,46,203.4186146259308,,,,,,,,,,,,,,,,,,,,,,,,,,,,,,,,,,,,,,,,,,,,,,,,,,,,,,,,,,,,,,,,,,,,,,,,,,,,,,,,,133.0,57.0,78.0,78.0,57.0,133.0,2.1,2.11,-164,274,0,258,202,-283,203.40401482582092,203.40405344963074,203.40648126602173,203.4186146259308,203.5687394142151,203.5687394142151,203.5687394142151,203.5687394142151,203.5687394142151,203.5687394142151,203.5687394142151,208.8865966796875,3,5.454797744750977,None,,,,,,,,,,,,,,,,,,198,3,2025-03-06_09h32.00.501,comp,2024.2.4,63.709624255901524,2025-03-06 09h33.01.852125 -0500,
49,49,0,filler_random,None,None,None,None,None,None,None,None,None,None,2,4.267416000366211,None,,,,,0,0,0,0,0,49,49,164,208.90196228027344,,,,,,,,,,,,,,,,,,,,,,,,,,,,,,,,,,,,,,,,,,,,,,,,,,,,,,,,,,,,,,,,,,,,,,,,,,,,,,,,,154.46837802225957,91.82783360948152,139.13210773135958,94.30347275110992,175.41587925394967,63.59692476962905,2.2,2.22,-189,279,0,-258,175,-259,208.88748717308044,208.88752627372742,208.8900284767151,208.90196228027344,209.05274772644043,209.05274772644043,209.05274772644043,209.05274772644043,209.05274772644043,209.05274772644043,209.05274772644043,213.18655157089233,2,4.267416000366211,None,,,,,,,,,,,,,,,,,,198,3,2025-03-06_09h32.00.501,comp,2024.2.4,63.709624255901524,2025-03-06 09h33.01.852125 -0500,
50,50,0,critical,wdh,20.0,1.0,upper,125.0,200.0,141.0,141.0,200.0,125.0,3,4.785090923309326,None,,,,,0,0,0,0,0,50,50,79,213.20190954208374,,,,,,,,,,,,,,,,,,,,,,,,,,,,,,,,,,,,,,,,,,,,,,,,,,,,,,,,,,,,,,,,,,,,,,,,,,,,,,,,,125.0,200.0,141.0,141.0,200.0,125.0,1.0,1.2,-266,14,0,-7,229,19,213.18730974197388,213.18734979629517,213.1898226737976,213.20190954208374,213.3523211479187,213.3523211479187,213.3523211479187,213.3523211479187,213.3523211479187,213.3523211479187,213.3523211479187,218.00334882736206,3,4.785090923309326,None,,,,,,,,,,,,,,,,,,198,3,2025-03-06_09h32.00.501,comp,2024.2.4,63.709624255901524,2025-03-06 09h33.01.852125 -0500,
51,51,0,critical,wdh,35.0,2.1,upper,125.0,200.0,127.0,127.0,200.0,125.0,1,8.017074346542358,None,,,,,0,0,0,0,0,51,51,9,218.01855969429016,,,,,,,,,,,,,,,,,,,,,,,,,,,,,,,,,,,,,,,,,,,,,,,,,,,,,,,,,,,,,,,,,,,,,,,,,,,,,,,,,125.0,200.0,127.0,127.0,200.0,125.0,2.1,2.12,-260,-269,0,-264,222,270,218.0041582584381,218.00419902801514,218.0066647529602,218.01855969429016,218.16887855529785,218.16887855529785,218.16887855529785,218.16887855529785,218.16887855529785,218.16887855529785,218.16887855529785,226.05323100090027,1,8.017074346542358,None,,,,,,,,,,,,,,,,,,198,3,2025-03-06_09h32.00.501,comp,2024.2.4,63.709624255901524,2025-03-06 09h33.01.852125 -0500,
52,52,0,filler_random,None,None,None,None,None,None,None,None,None,None,3,1.7339227199554443,None,,,,,0,0,0,0,0,52,52,144,226.0684633255005,,,,,,,,,,,,,,,,,,,,,,,,,,,,,,,,,,,,,,,,,,,,,,,,,,,,,,,,,,,,,,,,,,,,,,,,,,,,,,,,,161.0005418553484,131.1369314281667,80.00267497806004,193.30387636281793,160.33148588245416,161.22140324788924,2.2,2.21,-258,-269,0,283,273,284,226.05420446395874,226.05424237251282,226.05666041374207,226.0684633255005,226.21882796287537,226.21882796287537,226.21882796287537,226.21882796287537,226.21882796287537,226.21882796287537,226.21882796287537,227.81980633735657,3,1.7339227199554443,None,,,,,,,,,,,,,,,,,,198,3,2025-03-06_09h32.00.501,comp,2024.2.4,63.709624255901524,2025-03-06 09h33.01.852125 -0500,
53,53,0,critical,hwd,35.0,2.1,lower,133.0,57.0,57.0,133.0,70.0,70.0,1,3.3268864154815674,None,,,,,0,0,0,0,0,53,53,40,227.83509373664856,,,,,,,,,,,,,,,,,,,,,,,,,,,,,,,,,,,,,,,,,,,,,,,,,,,,,,,,,,,,,,,,,,,,,,,,,,,,,,,,,133.0,57.0,57.0,133.0,70.0,70.0,2.1,2.12,-191,-253,0,-287,198,266,227.82062602043152,227.8206672668457,227.8227505683899,227.83509373664856,227.98521089553833,227.98521089553833,227.98521089553833,227.98521089553833,227.98521089553833,227.98521089553833,227.98521089553833,231.16963505744934,1,3.3268864154815674,None,,,,,,,,,,,,,,,,,,198,3,2025-03-06_09h32.00.501,comp,2024.2.4,63.709624255901524,2025-03-06 09h33.01.852125 -0500,
54,54,0,filler_random,None,None,None,None,None,None,None,None,None,None,1,1.3604865074157715,None,,,,,0,0,0,0,0,54,54,169,231.18542075157166,,,,,,,,,,,,,,,,,,,,,,,,,,,,,,,,,,,,,,,,,,,,,,,,,,,,,,,,,,,,,,,,,,,,,,,,,,,,,,,,,112.87146235149427,195.96219102548568,80.90623977906822,86.72839523948052,106.03916213537448,120.81517232951677,3.0,3.2,-237,-285,0,18,200,256,231.17051577568054,231.17055559158325,231.1730499267578,231.18542075157166,231.3353569507599,231.3353569507599,231.3353569507599,231.3353569507599,231.3353569507599,231.3353569507599,231.3353569507599,232.55311059951782,1,1.3604865074157715,None,,,,,,,,,,,,,,,,,,198,3,2025-03-06_09h32.00.501,comp,2024.2.4,63.709624255901524,2025-03-06 09h33.01.852125 -0500,
55,55,0,critical,wdh,20.0,4.0,lower,57.0,133.0,78.0,78.0,133.0,57.0,3,6.483030080795288,None,,,,,0,0,0,0,0,55,55,82,232.56867623329163,,,,,,,,,,,,,,,,,,,,,,,,,,,,,,,,,,,,,,,,,,,,,,,,,,,,,,,,,,,,,,,,,,,,,,,,,,,,,,,,,57.0,133.0,78.0,78.0,133.0,57.0,4.0,4.1,-202,-253,0,17,164,-261,232.55386090278625,232.55392003059387,232.55619597434998,232.56867623329163,232.71869158744812,232.71869158744812,232.71869158744812,232.71869158744812,232.71869158744812,232.71869158744812,232.71869158744812,239.05315327644348,3,6.483030080795288,None,,,,,,,,,,,,,,,,,,198,3,2025-03-06_09h32.00.501,comp,2024.2.4,63.709624255901524,2025-03-06 09h33.01.852125 -0500,
56,56,0,filler_random,None,None,None,None,None,None,None,None,None,None,3,1.8773510456085205,None,,,,,0,0,0,0,0,56,56,159,239.06864190101624,,,,,,,,,,,,,,,,,,,,,,,,,,,,,,,,,,,,,,,,,,,,,,,,,,,,,,,,,,,,,,,,,,,,,,,,,,,,,,,,,197.96275511742658,92.05671511488944,101.69989940868481,166.05897797083037,159.24089351970235,156.69943464650632,2.1,2.11,-225,268,0,281,257,-272,239.05400729179382,239.05404543876648,239.05641341209412,239.06864190101624,239.21879744529724,239.21879744529724,239.21879744529724,239.21879744529724,239.21879744529724,239.21879744529724,239.21879744529724,240.95328569412231,3,1.8773510456085205,None,,,,,,,,,,,,,,,,,,198,3,2025-03-06_09h32.00.501,comp,2024.2.4,63.709624255901524,2025-03-06 09h33.01.852125 -0500,
57,57,0,catch,None,None,None,None,None,None,None,None,None,None,3,0.9297065734863281,None,,,,,0,0,0,0,0,57,57,126,240.96875715255737,,,,,,,,,,,,,,,,,,,,,,,,,,,,,,,,,,,,,,,,,,,,,,,,,,,,,,,,,,,,,,,,,,,,,,,,,,,,,,,,,66,124,80,110,173,152,2.1,2.11,-213,283,0,272,227,-274,240.95435667037964,240.95439910888672,240.95691847801208,240.96875715255737,241.1189205646515,241.1189205646515,241.1189205646515,241.1189205646515,241.1189205646515,241.1189205646515,241.1189205646515,241.9030408859253,3,0.9297065734863281,None,,,,,,,,,,,,,,,,,,198,3,2025-03-06_09h32.00.501,comp,2024.2.4,63.709624255901524,2025-03-06 09h33.01.852125 -0500,
58,58,0,critical,whd,20.0,1.0,lower,57.0,133.0,133.0,57.0,78.0,78.0,2,2.1546130180358887,None,,,,,0,0,0,0,0,58,58,90,241.91851210594177,,,,,,,,,,,,,,,,,,,,,,,,,,,,,,,,,,,,,,,,,,,,,,,,,,,,,,,,,,,,,,,,,,,,,,,,,,,,,,,,,57.0,133.0,133.0,57.0,78.0,78.0,1.0,1.2,-191,9,0,9,164,8,241.9038281440735,241.90386843681335,241.90622210502625,241.91851210594177,242.0685498714447,242.0685498714447,242.0685498714447,242.0685498714447,242.0685498714447,242.0685498714447,242.0685498714447,244.08624815940857,2,2.1546130180358887,None,,,,,,,,,,,,,,,,,,198,3,2025-03-06_09h32.00.501,comp,2024.2.4,63.709624255901524,2025-03-06 09h33.01.852125 -0500,
59,59,0,critical,hdw,20.0,3.0,upper,200.0,125.0,141.0,141.0,125.0,200.0,3,2.84415864944458,None,,,,,0,0,0,0,0,59,59,117,244.10172295570374,,,,,,,,,,,,,,,,,,,,,,,,,,,,,,,,,,,,,,,,,,,,,,,,,,,,,,,,,,,,,,,,,,,,,,,,,,,,,,,,,200.0,125.0,141.0,141.0,125.0,200.0,3.0,3.1,-229,282,0,-19,266,-259,244.0870292186737,244.08706903457642,244.08952260017395,244.10172295570374,244.25205087661743,244.25205087661743,244.25205087661743,244.25205087661743,244.25205087661743,244.25205087661743,244.25205087661743,246.953138589859,3,2.84415864944458,None,,,,,,,,,,,,,,,,,,198,3,2025-03-06_09h32.00.501,comp,2024.2.4,63.709624255901524,2025-03-06 09h33.01.852125 -0500,
60,60,0,critical,dwh,35.0,2.1,upper,127.0,127.0,125.0,200.0,200.0,125.0,2,2.721175193786621,None,,,,,0,0,0,0,0,60,60,29,246.96858596801758,,,,,,,,,,,,,,,,,,,,,,,,,,,,,,,,,,,,,,,,,,,,,,,,,,,,,,,,,,,,,,,,,,,,,,,,,,,,,,,,,127.0,127.0,125.0,200.0,200.0,125.0,2.1,2.12,-260,-264,0,-260,258,271,246.95397067070007,246.95401048660278,246.95639538764954,246.96858596801758,247.1187834739685,247.1187834739685,247.1187834739685,247.1187834739685,247.1187834739685,247.1187834739685,247.1187834739685,249.7031319141388,2,2.721175193786621,None,,,,,,,,,,,,,,,,,,198,3,2025-03-06_09h32.00.501,comp,2024.2.4,63.709624255901524,2025-03-06 09h33.01.852125 -0500,
61,61,0,critical,whd,35.0,2.1,lower,57.0,133.0,133.0,57.0,70.0,70.0,2,2.1226131916046143,None,,,,,0,0,0,0,0,61,61,12,249.7183403968811,,,,,,,,,,,,,,,,,,,,,,,,,,,,,,,,,,,,,,,,,,,,,,,,,,,,,,,,,,,,,,,,,,,,,,,,,,,,,,,,,57.0,133.0,133.0,57.0,70.0,70.0,2.1,2.12,-191,-266,0,-289,160,252,249.70392107963562,249.70396184921265,249.70714807510376,249.7183403968811,249.86834597587585,249.86834597587585,249.86834597587585,249.86834597587585,249.86834597587585,249.86834597587585,249.86834597587585,251.85341811180115,2,2.1226131916046143,None,,,,,,,,,,,,,,,,,,198,3,2025-03-06_09h32.00.501,comp,2024.2.4,63.709624255901524,2025-03-06 09h33.01.852125 -0500,
62,62,0,critical,dhw,35.0,2.1,upper,127.0,127.0,200.0,125.0,125.0,200.0,2,6.709363222122192,None,,,,,0,0,0,0,0,62,62,1,251.8683979511261,,,,,,,,,,,,,,,,,,,,,,,,,,,,,,,,,,,,,,,,,,,,,,,,,,,,,,,,,,,,,,,,,,,,,,,,,,,,,,,,,127.0,127.0,200.0,125.0,125.0,200.0,2.1,2.12,-222,-290,0,-256,258,260,251.85420989990234,251.85424900054932,251.8563630580902,251.8683979511261,252.01867151260376,252.01867151260376,252.01867151260376,252.01867151260376,252.01867151260376,252.01867151260376,252.01867151260376,258.5863583087921,2,6.709363222122192,None,,,,,,,,,,,,,,,,,,198,3,2025-03-06_09h32.00.501,comp,2024.2.4,63.709624255901524,2025-03-06 09h33.01.852125 -0500,
63,63,0,filler_square,None,None,None,None,None,None,None,None,None,None,2,3.638909339904785,None,,,,,0,0,0,0,0,63,63,204,258.60196685791016,,,,,,,,,,,,,,,,,,,,,,,,,,,,,,,,,,,,,,,,,,,,,,,,,,,,,,,,,,,,,,,,,,,,,,,,,,,,,,,,,66.3361458554597,63.99728784779997,129.42937005959533,129.42937005959533,89.16372952168982,124.65108077901951,2.1,2.11,-193,259,0,287,223,-265,258.58728289604187,258.58732199668884,258.58941411972046,258.60196685791016,258.75182843208313,258.75182843208313,258.75182843208313,258.75182843208313,258.75182843208313,258.75182843208313,258.75182843208313,262.253249168396,2,3.638909339904785,None,,,,,,,,,,,,,,,,,,198,3,2025-03-06_09h32.00.501,comp,2024.2.4,63.709624255901524,2025-03-06 09h33.01.852125 -0500,
64,64,0,critical,dhw,20.0,3.0,lower,78.0,78.0,133.0,57.0,57.0,133.0,2,3.4688708782196045,None,,,,,0,0,0,0,0,64,64,56,262.2683129310608,,,,,,,,,,,,,,,,,,,,,,,,,,,,,,,,,,,,,,,,,,,,,,,,,,,,,,,,,,,,,,,,,,,,,,,,,,,,,,,,,78.0,78.0,133.0,57.0,57.0,133.0,3.0,3.2,-164,-273,0,6,191,257,262.25403594970703,262.2540762424469,262.2561733722687,262.2683129310608,262.4183964729309,262.4183964729309,262.4183964729309,262.4183964729309,262.4183964729309,262.4183964729309,262.4183964729309,265.75289273262024,2,3.4688708782196045,None,,,,,,,,,,,,,,,,,,198,3,2025-03-06_09h32.00.501,comp,2024.2.4,63.709624255901524,2025-03-06 09h33.01.852125 -0500,
65,65,0,critical,dhw,35.0,2.1,upper,127.0,127.0,200.0,125.0,125.0,200.0,2,4.520937204360962,None,,,,,0,0,0,0,0,65,65,25,265.76827812194824,,,,,,,,,,,,,,,,,,,,,,,,,,,,,,,,,,,,,,,,,,,,,,,,,,,,,,,,,,,,,,,,,,,,,,,,,,,,,,,,,127.0,127.0,200.0,125.0,125.0,200.0,2.1,2.12,-222,-264,0,-254,258,268,265.75369691848755,265.7537362575531,265.75582003593445,265.76827812194824,265.91867852211,265.91867852211,265.91867852211,265.91867852211,265.91867852211,265.91867852211,265.91867852211,270.30296778678894,2,4.520937204360962,None,,,,,,,,,,,,,,,,,,198,3,2025-03-06_09h32.00.501,comp,2024.2.4,63.709624255901524,2025-03-06 09h33.01.852125 -0500,
66,66,0,filler_random,None,None,None,None,None,None,None,None,None,None,2,3.24342679977417,None,,,,,0,0,0,0,0,66,66,151,270.3182053565979,,,,,,,,,,,,,,,,,,,,,,,,,,,,,,,,,,,,,,,,,,,,,,,,,,,,,,,,,,,,,,,,,,,,,,,,,,,,,,,,,85.85537476336764,140.86897795543564,124.33162768294486,137.30630547102976,108.1246360524575,96.83062753338842,3.0,3.1,-235,251,0,15,213,-272,270.30384349823,270.3038830757141,270.3062219619751,270.3182053565979,270.4684488773346,270.4684488773346,270.4684488773346,270.4684488773346,270.4684488773346,270.4684488773346,270.4684488773346,273.5694570541382,2,3.24342679977417,None,,,,,,,,,,,,,,,,,,198,3,2025-03-06_09h32.00.501,comp,2024.2.4,63.709624255901524,2025-03-06 09h33.01.852125 -0500,
67,67,0,critical,dwh,20.0,4.0,lower,78.0,78.0,57.0,133.0,133.0,57.0,2,2.9837546348571777,None,,,,,0,0,0,0,0,67,67,70,273.58512353897095,,,,,,,,,,,,,,,,,,,,,,,,,,,,,,,,,,,,,,,,,,,,,,,,,,,,,,,,,,,,,,,,,,,,,,,,,,,,,,,,,78.0,78.0,57.0,133.0,133.0,57.0,4.0,4.2,-202,16,0,-268,191,10,273.57025265693665,273.5702929496765,273.5727572441101,273.58512353897095,273.7350058555603,273.7350058555603,273.7350058555603,273.7350058555603,273.7350058555603,273.7350058555603,273.7350058555603,276.58595991134644,2,2.9837546348571777,None,,,,,,,,,,,,,,,,,,198,3,2025-03-06_09h32.00.501,comp,2024.2.4,63.709624255901524,2025-03-06 09h33.01.852125 -0500,
68,68,0,critical,dwh,35.0,3.0,upper,127.0,127.0,125.0,200.0,200.0,125.0,3,2.184110641479492,None,,,,,0,0,0,0,0,68,68,63,276.6015796661377,,,,,,,,,,,,,,,,,,,,,,,,,,,,,,,,,,,,,,,,,,,,,,,,,,,,,,,,,,,,,,,,,,,,,,,,,,,,,,,,,127.0,127.0,125.0,200.0,200.0,125.0,3.0,3.2,-260,-261,0,-13,258,282,276.586727142334,276.5867669582367,276.5890967845917,276.6015796661377,276.75187397003174,276.75187397003174,276.75187397003174,276.75187397003174,276.75187397003174,276.75187397003174,276.75187397003174,278.8028767108917,3,2.184110641479492,None,,,,,,,,,,,,,,,,,,198,3,2025-03-06_09h32.00.501,comp,2024.2.4,63.709624255901524,2025-03-06 09h33.01.852125 -0500,
69,69,0,critical,whd,20.0,2.1,upper,125.0,200.0,200.0,125.0,141.0,141.0,2,4.633226156234741,None,,,,,0,0,0,0,0,69,69,15,278.8181653022766,,,,,,,,,,,,,,,,,,,,,,,,,,,,,,,,,,,,,,,,,,,,,,,,,,,,,,,,,,,,,,,,,,,,,,,,,,,,,,,,,125.0,200.0,200.0,125.0,141.0,141.0,2.1,2.12,-258,-261,0,-281,229,277,278.8036997318268,278.80374026298523,278.807049036026,278.8181653022766,278.96842885017395,278.96842885017395,278.96842885017395,278.96842885017395,278.96842885017395,278.96842885017395,278.96842885017395,283.4530622959137,2,4.633226156234741,None,,,,,,,,,,,,,,,,,,198,3,2025-03-06_09h32.00.501,comp,2024.2.4,63.709624255901524,2025-03-06 09h33.01.852125 -0500,
70,70,0,filler_square,None,None,None,None,None,None,None,None,None,None,3,1.2451906204223633,None,,,,,0,0,0,0,0,70,70,202,283.46844005584717,,,,,,,,,,,,,,,,,,,,,,,,,,,,,,,,,,,,,,,,,,,,,,,,,,,,,,,,,,,,,,,,,,,,,,,,,,,,,,,,,67.05998148244224,88.84242832189567,114.4430741981601,155.56392145941595,168.0591089833075,168.0591089833075,3.0,3.1,-218,262,0,-5,258,-285,283.4540057182312,283.4540455341339,283.457062959671,283.46844005584717,283.61851167678833,283.61851167678833,283.61851167678833,283.61851167678833,283.61851167678833,283.61851167678833,283.61851167678833,284.7197597026825,3,1.2451906204223633,None,,,,,,,,,,,,,,,,,,198,3,2025-03-06_09h32.00.501,comp,2024.2.4,63.709624255901524,2025-03-06 09h33.01.852125 -0500,
71,71,0,critical,dwh,20.0,2.1,lower,78.0,78.0,57.0,133.0,133.0,57.0,2,7.163215160369873,None,,,,,0,0,0,0,0,71,71,30,284.7350072860718,,,,,,,,,,,,,,,,,,,,,,,,,,,,,,,,,,,,,,,,,,,,,,,,,,,,,,,,,,,,,,,,,,,,,,,,,,,,,,,,,78.0,78.0,57.0,133.0,133.0,57.0,2.1,2.12,-202,-252,0,-264,191,289,284.72055983543396,284.72059893608093,284.7230348587036,284.7350072860718,284.885281085968,284.885281085968,284.885281085968,284.885281085968,284.885281085968,284.885281085968,284.885281085968,291.9026424884796,2,7.163215160369873,None,,,,,,,,,,,,,,,,,,198,3,2025-03-06_09h32.00.501,comp,2024.2.4,63.709624255901524,2025-03-06 09h33.01.852125 -0500,
72,72,0,critical,hwd,35.0,3.0,lower,133.0,57.0,57.0,133.0,70.0,70.0,2,1.8186969757080078,None,,,,,0,0,0,0,0,72,72,98,291.91827368736267,,,,,,,,,,,,,,,,,,,,,,,,,,,,,,,,,,,,,,,,,,,,,,,,,,,,,,,,,,,,,,,,,,,,,,,,,,,,,,,,,133.0,57.0,57.0,133.0,70.0,70.0,3.0,3.1,-191,262,0,7,198,-266,291.90346097946167,291.90350341796875,291.9062376022339,291.91827368736267,292.06864166259766,292.06864166259766,292.06864166259766,292.06864166259766,292.06864166259766,292.06864166259766,292.06864166259766,293.7525861263275,2,1.8186969757080078,None,,,,,,,,,,,,,,,,,,198,3,2025-03-06_09h32.00.501,comp,2024.2.4,63.709624255901524,2025-03-06 09h33.01.852125 -0500,
73,73,0,catch,None,None,None,None,None,None,None,None,None,None,3,1.2094550132751465,None,,,,,0,0,0,0,0,73,73,127,293.76802825927734,,,,,,,,,,,,,,,,,,,,,,,,,,,,,,,,,,,,,,,,,,,,,,,,,,,,,,,,,,,,,,,,,,,,,,,,,,,,,,,,,122,68,62,128,194,131,4.0,4.2,-194,-7,0,-256,226,7,293.7535946369171,293.7536344528198,293.75615644454956,293.76802825927734,293.9182810783386,293.9182810783386,293.9182810783386,293.9182810783386,293.9182810783386,293.9182810783386,293.9182810783386,294.9858741760254,3,1.2094550132751465,None,,,,,,,,,,,,,,,,,,198,3,2025-03-06_09h32.00.501,comp,2024.2.4,63.709624255901524,2025-03-06 09h33.01.852125 -0500,
74,74,0,critical,dwh,20.0,3.0,upper,141.0,141.0,125.0,200.0,200.0,125.0,2,6.066235065460205,None,,,,,0,0,0,0,0,74,74,69,295.0014967918396,,,,,,,,,,,,,,,,,,,,,,,,,,,,,,,,,,,,,,,,,,,,,,,,,,,,,,,,,,,,,,,,,,,,,,,,,,,,,,,,,141.0,141.0,125.0,200.0,200.0,125.0,3.0,3.2,-266,-289,0,-16,258,288,294.9866633415222,294.98670411109924,294.9890022277832,295.0014967918396,295.1518597602844,295.1518597602844,295.1518597602844,295.1518597602844,295.1518597602844,295.1518597602844,295.1518597602844,301.06956577301025,2,6.066235065460205,None,,,,,,,,,,,,,,,,,,198,3,2025-03-06_09h32.00.501,comp,2024.2.4,63.709624255901524,2025-03-06 09h33.01.852125 -0500,
75,75,0,filler_random,None,None,None,None,None,None,None,None,None,None,1,1.4604780673980713,None,,,,,0,0,0,0,0,75,75,149,301.08498215675354,,,,,,,,,,,,,,,,,,,,,,,,,,,,,,,,,,,,,,,,,,,,,,,,,,,,,,,,,,,,,,,,,,,,,,,,,,,,,,,,,166.9540627763536,173.37651497074648,106.80859175958722,180.82966459479104,85.45887106663145,161.11014736438437,2.1,2.12,-273,-274,0,-259,267,254,301.07049584388733,301.0705375671387,301.07261061668396,301.08498215675354,301.23497462272644,301.23497462272644,301.23497462272644,301.23497462272644,301.23497462272644,301.23497462272644,301.23497462272644,302.5526876449585,1,1.4604780673980713,None,,,,,,,,,,,,,,,,,,198,3,2025-03-06_09h32.00.501,comp,2024.2.4,63.709624255901524,2025-03-06 09h33.01.852125 -0500,
76,76,0,critical,wdh,35.0,4.0,upper,125.0,200.0,127.0,127.0,200.0,125.0,3,4.472347974777222,None,,,,,0,0,0,0,0,76,76,77,302.5681576728821,,,,,,,,,,,,,,,,,,,,,,,,,,,,,,,,,,,,,,,,,,,,,,,,,,,,,,,,,,,,,,,,,,,,,,,,,,,,,,,,,125.0,200.0,127.0,127.0,200.0,125.0,4.0,4.1,-260,-259,0,-13,222,-274,302.55344820022583,302.55348777770996,302.55558037757874,302.5681576728821,302.718204498291,302.718204498291,302.718204498291,302.718204498291,302.718204498291,302.718204498291,302.718204498291,307.0528633594513,3,4.472347974777222,None,,,,,,,,,,,,,,,,,,198,3,2025-03-06_09h32.00.501,comp,2024.2.4,63.709624255901524,2025-03-06 09h33.01.852125 -0500,
77,77,0,filler_random,None,None,None,None,None,None,None,None,None,None,1,2.5421509742736816,None,,,,,0,0,0,0,0,77,77,167,307.0678687095642,,,,,,,,,,,,,,,,,,,,,,,,,,,,,,,,,,,,,,,,,,,,,,,,,,,,,,,,,,,,,,,,,,,,,,,,,,,,,,,,,179.62570324732633,182.70311420399867,174.64441973332129,117.53084514891252,140.5957961969404,138.5231591973745,3.0,3.2,-246,-262,0,-3,224,263,307.05379581451416,307.0538363456726,307.05608439445496,307.0678687095642,307.21828842163086,307.21828842163086,307.21828842163086,307.21828842163086,307.21828842163086,307.21828842163086,307.21828842163086,309.61950516700745,1,2.5421509742736816,None,,,,,,,,,,,,,,,,,,198,3,2025-03-06_09h32.00.501,comp,2024.2.4,63.709624255901524,2025-03-06 09h33.01.852125 -0500,
78,78,0,critical,hwd,20.0,2.1,lower,133.0,57.0,57.0,133.0,78.0,78.0,1,2.416512966156006,None,,,,,0,0,0,0,0,78,78,42,309.634889125824,,,,,,,,,,,,,,,,,,,,,,,,,,,,,,,,,,,,,,,,,,,,,,,,,,,,,,,,,,,,,,,,,,,,,,,,,,,,,,,,,133.0,57.0,57.0,133.0,78.0,78.0,2.1,2.12,-191,-279,0,-279,202,275,309.6202869415283,309.62032747268677,309.6227431297302,309.634889125824,309.7845904827118,309.7845904827118,309.7845904827118,309.7845904827118,309.7845904827118,309.7845904827118,309.7845904827118,312.0691030025482,1,2.416512966156006,None,,,,,,,,,,,,,,,,,,198,3,2025-03-06_09h32.00.501,comp,2024.2.4,63.709624255901524,2025-03-06 09h33.01.852125 -0500,
79,79,0,filler_square,None,None,None,None,None,None,None,None,None,None,2,1.3343431949615479,None,,,,,0,0,0,0,0,79,79,186,312.08453011512756,,,,,,,,,,,,,,,,,,,,,,,,,,,,,,,,,,,,,,,,,,,,,,,,,,,,,,,,,,,,,,,,,,,,,,,,,,,,,,,,,139.42724370592543,152.1351109323806,186.4513004902004,186.4513004902004,113.45646229905324,102.00659093335196,2.1,2.12,-265,-274,0,-277,240,266,312.0700385570526,312.0700786113739,312.07248640060425,312.08453011512756,312.2349557876587,312.2349557876587,312.2349557876587,312.2349557876587,312.2349557876587,312.2349557876587,312.2349557876587,313.4358763694763,2,1.3343431949615479,None,,,,,,,,,,,,,,,,,,198,3,2025-03-06_09h32.00.501,comp,2024.2.4,63.709624255901524,2025-03-06 09h33.01.852125 -0500,
80,80,0,critical,dhw,20.0,4.0,lower,78.0,78.0,133.0,57.0,57.0,133.0,2,3.021461009979248,None,,,,,0,0,0,0,0,80,80,58,313.45115900039673,,,,,,,,,,,,,,,,,,,,,,,,,,,,,,,,,,,,,,,,,,,,,,,,,,,,,,,,,,,,,,,,,,,,,,,,,,,,,,,,,78.0,78.0,133.0,57.0,57.0,133.0,4.0,4.2,-164,-6,0,-251,191,-6,313.436644077301,313.4366846084595,313.4387860298157,313.45115900039673,313.6014401912689,313.6014401912689,313.6014401912689,313.6014401912689,313.6014401912689,313.6014401912689,313.6014401912689,316.48574137687683,2,3.021461009979248,None,,,,,,,,,,,,,,,,,,198,3,2025-03-06_09h32.00.501,comp,2024.2.4,63.709624255901524,2025-03-06 09h33.01.852125 -0500,
81,81,0,critical,dwh,35.0,1.0,upper,127.0,127.0,125.0,200.0,200.0,125.0,3,4.396399974822998,None,,,,,0,0,0,0,0,81,81,61,316.50110363960266,,,,,,,,,,,,,,,,,,,,,,,,,,,,,,,,,,,,,,,,,,,,,,,,,,,,,,,,,,,,,,,,,,,,,,,,,,,,,,,,,127.0,127.0,125.0,200.0,200.0,125.0,1.0,1.2,-260,-15,0,-3,258,-14,316.4865345954895,316.48657488822937,316.48917031288147,316.50110363960266,316.65144968032837,316.65144968032837,316.65144968032837,316.65144968032837,316.65144968032837,316.65144968032837,316.65144968032837,320.90263628959656,3,4.396399974822998,None,,,,,,,,,,,,,,,,,,198,3,2025-03-06_09h32.00.501,comp,2024.2.4,63.709624255901524,2025-03-06 09h33.01.852125 -0500,
82,82,0,filler_square,None,None,None,None,None,None,None,None,None,None,2,2.5224196910858154,None,,,,,0,0,0,0,0,82,82,195,320.91807103157043,,,,,,,,,,,,,,,,,,,,,,,,,,,,,,,,,,,,,,,,,,,,,,,,,,,,,,,,,,,,,,,,,,,,,,,,,,,,,,,,,62.05991195362606,89.5962267268099,163.88393452890273,163.88393452890273,82.23225269964009,74.06477435588502,1.0,1.3,257,-288,480,-276,695,-280,320.9035894870758,320.90363025665283,320.9062035083771,320.91807103157043,321.0680387020111,321.0680387020111,321.0680387020111,321.0680387020111,321.0680387020111,321.0680387020111,321.0680387020111,323.45281314849854,2,2.5224196910858154,None,,,,,,,,,,,,,,,,,,198,3,2025-03-06_09h32.00.501,comp,2024.2.4,63.709624255901524,2025-03-06 09h33.01.852125 -0500,
83,83,0,critical,whd,35.0,1.0,upper,125.0,200.0,200.0,125.0,127.0,127.0,2,3.245298385620117,None,,,,,0,0,0,0,0,83,83,85,323.467933177948,,,,,,,,,,,,,,,,,,,,,,,,,,,,,,,,,,,,,,,,,,,,,,,,,,,,,,,,,,,,,,,,,,,,,,,,,,,,,,,,,125.0,200.0,200.0,125.0,127.0,127.0,1.0,1.3,222,-251,480,-268,702,-263,323.4536118507385,323.45365166664124,323.4561731815338,323.467933177948,323.61823296546936,323.61823296546936,323.61823296546936,323.61823296546936,323.61823296546936,323.61823296546936,323.61823296546936,326.7192049026489,2,3.245298385620117,None,,,,,,,,,,,,,,,,,,198,3,2025-03-06_09h32.00.501,comp,2024.2.4,63.709624255901524,2025-03-06 09h33.01.852125 -0500,
84,84,0,critical,hdw,20.0,1.0,upper,200.0,125.0,141.0,141.0,125.0,200.0,3,3.994462013244629,None,,,,,0,0,0,0,0,84,84,115,326.73476099967957,,,,,,,,,,,,,,,,,,,,,,,,,,,,,,,,,,,,,,,,,,,,,,,,,,,,,,,,,,,,,,,,,,,,,,,,,,,,,,,,,200.0,125.0,141.0,141.0,125.0,200.0,1.0,1.3,251,-256,480,-266,746,-272,326.71998381614685,326.7200231552124,326.7221169471741,326.73476099967957,326.8849115371704,326.8849115371704,326.8849115371704,326.8849115371704,326.8849115371704,326.8849115371704,326.8849115371704,330.73580837249756,3,3.994462013244629,None,,,,,,,,,,,,,,,,,,198,3,2025-03-06_09h32.00.501,comp,2024.2.4,63.709624255901524,2025-03-06 09h33.01.852125 -0500,
85,85,0,critical,whd,35.0,3.0,lower,57.0,133.0,133.0,57.0,70.0,70.0,1,3.233560562133789,None,,,,,0,0,0,0,0,85,85,86,330.75128531455994,,,,,,,,,,,,,,,,,,,,,,,,,,,,,,,,,,,,,,,,,,,,,,,,,,,,,,,,,,,,,,,,,,,,,,,,,,,,,,,,,57.0,133.0,133.0,57.0,70.0,70.0,3.0,3.2,-191,-258,0,-18,160,262,330.7365686893463,330.73660826683044,330.7385723590851,330.75128531455994,330.90116000175476,330.90116000175476,330.90116000175476,330.90116000175476,330.90116000175476,330.90116000175476,330.90116000175476,334.0023274421692,1,3.233560562133789,None,,,,,,,,,,,,,,,,,,198,3,2025-03-06_09h32.00.501,comp,2024.2.4,63.709624255901524,2025-03-06 09h33.01.852125 -0500,
86,86,0,critical,whd,35.0,1.0,lower,57.0,133.0,133.0,57.0,70.0,70.0,2,2.374953508377075,None,,,,,0,0,0,0,0,86,86,84,334.03437638282776,,,,,,,,,,,,,,,,,,,,,,,,,,,,,,,,,,,,,,,,,,,,,,,,,,,,,,,,,,,,,,,,,,,,,,,,,,,,,,,,,57.0,133.0,133.0,57.0,70.0,70.0,1.0,1.3,289,-272,480,-281,640,-263,334.0031478404999,334.00318789482117,334.0055718421936,334.03437638282776,334.167857170105,334.167857170105,334.167857170105,334.167857170105,334.167857170105,334.167857170105,334.167857170105,336.4188640117645,2,2.374953508377075,None,,,,,,,,,,,,,,,,,,198,3,2025-03-06_09h32.00.501,comp,2024.2.4,63.709624255901524,2025-03-06 09h33.01.852125 -0500,
87,87,0,critical,wdh,20.0,4.0,upper,125.0,200.0,141.0,141.0,200.0,125.0,3,3.885693311691284,None,,,,,0,0,0,0,0,87,87,83,336.43472242355347,,,,,,,,,,,,,,,,,,,,,,,,,,,,,,,,,,,,,,,,,,,,,,,,,,,,,,,,,,,,,,,,,,,,,,,,,,,,,,,,,125.0,200.0,141.0,141.0,200.0,125.0,4.0,4.1,-266,-269,0,-7,229,-282,336.41966128349304,336.4197008609772,336.4217643737793,336.43472242355347,336.5847198963165,336.5847198963165,336.5847198963165,336.5847198963165,336.5847198963165,336.5847198963165,336.5847198963165,340.33578181266785,3,3.885693311691284,None,,,,,,,,,,,,,,,,,,198,3,2025-03-06_09h32.00.501,comp,2024.2.4,63.709624255901524,2025-03-06 09h33.01.852125 -0500,
88,88,0,critical,hdw,35.0,2.1,upper,200.0,125.0,127.0,127.0,125.0,200.0,1,3.1380343437194824,None,,,,,0,0,0,0,0,88,88,21,340.3510663509369,,,,,,,,,,,,,,,,,,,,,,,,,,,,,,,,,,,,,,,,,,,,,,,,,,,,,,,,,,,,,,,,,,,,,,,,,,,,,,,,,200.0,125.0,127.0,127.0,125.0,200.0,2.1,2.12,-222,-264,0,-260,260,275,340.3365716934204,340.33661222457886,340.33914828300476,340.3510663509369,340.5013053417206,340.5013053417206,340.5013053417206,340.5013053417206,340.5013053417206,340.5013053417206,340.5013053417206,343.50245332717896,1,3.1380343437194824,None,,,,,,,,,,,,,,,,,,198,3,2025-03-06_09h32.00.501,comp,2024.2.4,63.709624255901524,2025-03-06 09h33.01.852125 -0500,
89,89,0,critical,hdw,20.0,3.0,lower,133.0,57.0,78.0,78.0,57.0,133.0,1,2.771453619003296,None,,,,,0,0,0,0,0,89,89,116,343.51766324043274,,,,,,,,,,,,,,,,,,,,,,,,,,,,,,,,,,,,,,,,,,,,,,,,,,,,,,,,,,,,,,,,,,,,,,,,,,,,,,,,,133.0,57.0,78.0,78.0,57.0,133.0,3.0,3.1,-164,261,0,-6,202,-261,343.50325632095337,343.50329542160034,343.5057463645935,343.51766324043274,343.6680648326874,343.6680648326874,343.6680648326874,343.6680648326874,343.6680648326874,343.6680648326874,343.6680648326874,346.30218982696533,1,2.771453619003296,None,,,,,,,,,,,,,,,,,,198,3,2025-03-06_09h32.00.501,comp,2024.2.4,63.709624255901524,2025-03-06 09h33.01.852125 -0500,
90,90,0,filler_square,None,None,None,None,None,None,None,None,None,None,3,1.1547954082489014,None,,,,,0,0,0,0,0,90,90,183,346.31780099868774,,,,,,,,,,,,,,,,,,,,,,,,,,,,,,,,,,,,,,,,,,,,,,,,,,,,,,,,,,,,,,,,,,,,,,,,,,,,,,,,,121.83844757537642,150.5929246925558,98.70608056237133,73.08593213421685,182.14232648780228,182.14232648780228,2.2,2.22,-208,259,0,-280,224,-267,346.303156375885,346.3031961917877,346.30563163757324,346.31780099868774,346.46799421310425,346.46799421310425,346.46799421310425,346.46799421310425,346.46799421310425,346.46799421310425,346.46799421310425,347.485830783844,3,1.1547954082489014,None,,,,,,,,,,,,,,,,,,198,3,2025-03-06_09h32.00.501,comp,2024.2.4,63.709624255901524,2025-03-06 09h33.01.852125 -0500,
91,91,0,critical,whd,35.0,4.0,lower,57.0,133.0,133.0,57.0,70.0,70.0,2,2.283888101577759,None,,,,,0,0,0,0,0,91,91,88,347.5010085105896,,,,,,,,,,,,,,,,,,,,,,,,,,,,,,,,,,,,,,,,,,,,,,,,,,,,,,,,,,,,,,,,,,,,,,,,,,,,,,,,,57.0,133.0,133.0,57.0,70.0,70.0,4.0,4.2,-191,-17,0,-269,160,15,347.48661637306213,347.4866578578949,347.4887728691101,347.5010085105896,347.6514980792999,347.6514980792999,347.6514980792999,347.6514980792999,347.6514980792999,347.6514980792999,347.6514980792999,349.8022892475128,2,2.283888101577759,None,,,,,,,,,,,,,,,,,,198,3,2025-03-06_09h32.00.501,comp,2024.2.4,63.709624255901524,2025-03-06 09h33.01.852125 -0500,
92,92,0,filler_random,None,None,None,None,None,None,None,None,None,None,3,2.4226298332214355,None,,,,,0,0,0,0,0,92,92,160,349.81759691238403,,,,,,,,,,,,,,,,,,,,,,,,,,,,,,,,,,,,,,,,,,,,,,,,,,,,,,,,,,,,,,,,,,,,,,,,,,,,,,,,,139.08024845578515,71.86625754359687,87.69353817921046,70.43919882514102,168.66166275311457,158.17041950033234,3.0,3.2,-167,-261,0,16,210,270,349.80322003364563,349.8032600879669,349.8055167198181,349.81759691238403,349.9678237438202,349.9678237438202,349.9678237438202,349.9678237438202,349.9678237438202,349.9678237438202,349.9678237438202,352.2526261806488,3,2.4226298332214355,None,,,,,,,,,,,,,,,,,,198,3,2025-03-06_09h32.00.501,comp,2024.2.4,63.709624255901524,2025-03-06 09h33.01.852125 -0500,
93,93,0,filler_random,None,None,None,None,None,None,None,None,None,None,1,1.3991601467132568,None,,,,,0,0,0,0,0,93,93,133,352.2677869796753,,,,,,,,,,,,,,,,,,,,,,,,,,,,,,,,,,,,,,,,,,,,,,,,,,,,,,,,,,,,,,,,,,,,,,,,,,,,,,,,,194.13160282433353,100.04463554156763,174.66921964932823,81.01884309310594,98.60995852834611,187.08889493659484,2.1,2.12,-187,-251,0,-269,230,271,352.25352931022644,352.2535705566406,352.25608134269714,352.2677869796753,352.41795325279236,352.41795325279236,352.41795325279236,352.41795325279236,352.41795325279236,352.41795325279236,352.41795325279236,353.6692793369293,1,1.3991601467132568,None,,,,,,,,,,,,,,,,,,198,3,2025-03-06_09h32.00.501,comp,2024.2.4,63.709624255901524,2025-03-06 09h33.01.852125 -0500,
94,94,0,critical,wdh,20.0,2.1,lower,57.0,133.0,78.0,78.0,133.0,57.0,1,2.8766419887542725,None,,,,,0,0,0,0,0,94,94,34,353.68454790115356,,,,,,,,,,,,,,,,,,,,,,,,,,,,,,,,,,,,,,,,,,,,,,,,,,,,,,,,,,,,,,,,,,,,,,,,,,,,,,,,,57.0,133.0,78.0,78.0,133.0,57.0,2.1,2.12,-202,-267,0,-281,164,266,353.67006158828735,353.6701011657715,353.67229533195496,353.68454790115356,353.8347969055176,353.8347969055176,353.8347969055176,353.8347969055176,353.8347969055176,353.8347969055176,353.8347969055176,356.5688478946686,1,2.8766419887542725,None,,,,,,,,,,,,,,,,,,198,3,2025-03-06_09h32.00.501,comp,2024.2.4,63.709624255901524,2025-03-06 09h33.01.852125 -0500,
95,95,0,critical,wdh,35.0,1.0,lower,57.0,133.0,70.0,70.0,133.0,57.0,1,1.8410882949829102,None,,,,,0,0,0,0,0,95,95,72,356.58453130722046,,,,,,,,,,,,,,,,,,,,,,,,,,,,,,,,,,,,,,,,,,,,,,,,,,,,,,,,,,,,,,,,,,,,,,,,,,,,,,,,,57.0,133.0,70.0,70.0,133.0,57.0,1.0,1.2,-198,-14,0,19,160,0,356.5696380138397,356.56967854499817,356.57195949554443,356.58453130722046,356.734411239624,356.734411239624,356.734411239624,356.734411239624,356.734411239624,356.734411239624,356.734411239624,358.43559980392456,1,1.8410882949829102,None,,,,,,,,,,,,,,,,,,198,3,2025-03-06_09h32.00.501,comp,2024.2.4,63.709624255901524,2025-03-06 09h33.01.852125 -0500,
96,96,0,filler_random,None,None,None,None,None,None,None,None,None,None,1,2.085151433944702,None,,,,,0,0,0,0,0,96,96,141,358.4512474536896,,,,,,,,,,,,,,,,,,,,,,,,,,,,,,,,,,,,,,,,,,,,,,,,,,,,,,,,,,,,,,,,,,,,,,,,,,,,,,,,,101.88675727733488,149.25629341575456,158.08065666705792,73.22438603428122,61.45924181753047,192.79313992298668,2.1,2.11,-207,253,0,256,229,-263,358.43651008605957,358.4365510940552,358.4390103816986,358.4512474536896,358.60123348236084,358.60123348236084,358.60123348236084,358.60123348236084,358.60123348236084,358.60123348236084,358.60123348236084,360.55214643478394,1,2.085151433944702,None,,,,,,,,,,,,,,,,,,198,3,2025-03-06_09h32.00.501,comp,2024.2.4,63.709624255901524,2025-03-06 09h33.01.852125 -0500,
97,97,0,filler_random,None,None,None,None,None,None,None,None,None,None,3,1.345508098602295,None,,,,,0,0,0,0,0,97,97,148,360.5675230026245,,,,,,,,,,,,,,,,,,,,,,,,,,,,,,,,,,,,,,,,,,,,,,,,,,,,,,,,,,,,,,,,,,,,,,,,,,,,,,,,,106.06524924364972,121.20093273019481,79.42423474526966,187.15119726408125,146.29833068280766,198.01098314616561,2.2,2.21,-250,-256,0,265,289,264,360.5530562400818,360.5530984401703,360.5554747581482,360.5675230026245,360.7177035808563,360.7177035808563,360.7177035808563,360.7177035808563,360.7177035808563,360.7177035808563,360.7177035808563,361.91896867752075,3,1.345508098602295,None,,,,,,,,,,,,,,,,,,198,3,2025-03-06_09h32.00.501,comp,2024.2.4,63.709624255901524,2025-03-06 09h33.01.852125 -0500,
98,98,0,critical,hwd,20.0,2.1,upper,200.0,125.0,125.0,200.0,141.0,141.0,1,3.178603172302246,None,,,,,0,0,0,0,0,98,98,19,361.9344336986542,,,,,,,,,,,,,,,,,,,,,,,,,,,,,,,,,,,,,,,,,,,,,,,,,,,,,,,,,,,,,,,,,,,,,,,,,,,,,,,,,200.0,125.0,125.0,200.0,141.0,141.0,2.1,2.12,-258,-267,0,-257,266,263,361.9197475910187,361.9197881221771,361.9218854904175,361.9344336986542,362.08451199531555,362.08451199531555,362.08451199531555,362.08451199531555,362.08451199531555,362.08451199531555,362.08451199531555,365.1190288066864,1,3.178603172302246,None,,,,,,,,,,,,,,,,,,198,3,2025-03-06_09h32.00.501,comp,2024.2.4,63.709624255901524,2025-03-06 09h33.01.852125 -0500,
99,99,0,filler_square,None,None,None,None,None,None,None,None,None,None,2,3.994556188583374,None,,,,,0,0,0,0,0,99,99,199,365.13448572158813,,,,,,,,,,,,,,,,,,,,,,,,,,,,,,,,,,,,,,,,,,,,,,,,,,,,,,,,,,,,,,,,,,,,,,,,,,,,,,,,,59.11938627852283,70.16658784366946,98.8312992434771,98.8312992434771,60.59864460409876,69.96065808471171,2.2,2.22,-180,279,0,-277,180,-278,365.1199531555176,365.1199927330017,365.12218403816223,365.13448572158813,365.2842946052551,365.2842946052551,365.2842946052551,365.2842946052551,365.2842946052551,365.2842946052551,365.2842946052551,369.13537645339966,2,3.994556188583374,None,,,,,,,,,,,,,,,,,,198,3,2025-03-06_09h32.00.501,comp,2024.2.4,63.709624255901524,2025-03-06 09h33.01.852125 -0500,
100,100,0,critical,hwd,35.0,2.1,lower,133.0,57.0,57.0,133.0,70.0,70.0,1,2.4421908855438232,None,,,,,0,0,0,0,0,100,100,16,369.1510558128357,,,,,,,,,,,,,,,,,,,,,,,,,,,,,,,,,,,,,,,,,,,,,,,,,,,,,,,,,,,,,,,,,,,,,,,,,,,,,,,,,133.0,57.0,57.0,133.0,70.0,70.0,2.1,2.11,-191,256,0,262,198,-270,369.1361503601074,369.1361918449402,369.13866090774536,369.1510558128357,369.3009743690491,369.3009743690491,369.3009743690491,369.3009743690491,369.3009743690491,369.3009743690491,369.3009743690491,371.60201358795166,1,2.4421908855438232,None,,,,,,,,,,,,,,,,,,198,3,2025-03-06_09h32.00.501,comp,2024.2.4,63.709624255901524,2025-03-06 09h33.01.852125 -0500,
101,101,0,filler_square,None,None,None,None,None,None,None,None,None,None,2,2.7592008113861084,None,,,,,0,0,0,0,0,101,101,206,371.6177794933319,,,,,,,,,,,,,,,,,,,,,,,,,,,,,,,,,,,,,,,,,,,,,,,,,,,,,,,,,,,,,,,,,,,,,,,,,,,,,,,,,74.44612610912894,72.3002638678313,89.03269910338636,89.03269910338636,75.17710960350493,82.59354815085209,1.0,1.1,-657,252,-480,253,-298,279,371.60296654701233,371.60300850868225,371.6050055027008,371.6177794933319,371.76761198043823,371.76761198043823,371.76761198043823,371.76761198043823,371.76761198043823,371.76761198043823,371.76761198043823,374.385538816452,2,2.7592008113861084,None,,,,,,,,,,,,,,,,,,198,3,2025-03-06_09h32.00.501,comp,2024.2.4,63.709624255901524,2025-03-06 09h33.01.852125 -0500,
102,102,0,critical,hwd,20.0,3.0,lower,133.0,57.0,57.0,133.0,78.0,78.0,1,2.1509876251220703,None,,,,,0,0,0,0,0,102,102,104,374.4012014865875,,,,,,,,,,,,,,,,,,,,,,,,,,,,,,,,,,,,,,,,,,,,,,,,,,,,,,,,,,,,,,,,,,,,,,,,,,,,,,,,,133.0,57.0,57.0,133.0,78.0,78.0,3.0,3.2,-191,-251,0,9,202,262,374.38639092445374,374.38643193244934,374.38891792297363,374.4012014865875,374.5509741306305,374.5509741306305,374.5509741306305,374.5509741306305,374.5509741306305,374.5509741306305,374.5509741306305,376.56899404525757,1,2.1509876251220703,None,,,,,,,,,,,,,,,,,,198,3,2025-03-06_09h32.00.501,comp,2024.2.4,63.709624255901524,2025-03-06 09h33.01.852125 -0500,
103,103,0,critical,dhw,35.0,2.1,lower,70.0,70.0,133.0,57.0,57.0,133.0,1,1.7679164409637451,None,,,,,0,0,0,0,0,103,103,24,376.584223985672,,,,,,,,,,,,,,,,,,,,,,,,,,,,,,,,,,,,,,,,,,,,,,,,,,,,,,,,,,,,,,,,,,,,,,,,,,,,,,,,,70.0,70.0,133.0,57.0,57.0,133.0,2.1,2.11,-160,271,0,284,191,-273,376.5698809623718,376.56993412971497,376.5728678703308,376.584223985672,376.73448157310486,376.73448157310486,376.73448157310486,376.73448157310486,376.73448157310486,376.73448157310486,376.73448157310486,378.36858677864075,1,1.7679164409637451,None,,,,,,,,,,,,,,,,,,198,3,2025-03-06_09h32.00.501,comp,2024.2.4,63.709624255901524,2025-03-06 09h33.01.852125 -0500,
104,104,0,critical,dwh,35.0,2.1,lower,70.0,70.0,57.0,133.0,133.0,57.0,3,2.96807861328125,None,,,,,0,0,0,0,0,104,104,28,378.3840899467468,,,,,,,,,,,,,,,,,,,,,,,,,,,,,,,,,,,,,,,,,,,,,,,,,,,,,,,,,,,,,,,,,,,,,,,,,,,,,,,,,70.0,70.0,57.0,133.0,133.0,57.0,2.1,2.11,-198,269,0,274,191,-284,378.3693768978119,378.3694176673889,378.3719367980957,378.3840899467468,378.5345001220703,378.5345001220703,378.5345001220703,378.5345001220703,378.5345001220703,378.5345001220703,378.5345001220703,381.3686339855194,3,2.96807861328125,None,,,,,,,,,,,,,,,,,,198,3,2025-03-06_09h32.00.501,comp,2024.2.4,63.709624255901524,2025-03-06 09h33.01.852125 -0500,
105,105,0,critical,whd,35.0,2.1,upper,125.0,200.0,200.0,125.0,127.0,127.0,2,3.4719953536987305,None,,,,,0,0,0,0,0,105,105,13,381.38399171829224,,,,,,,,,,,,,,,,,,,,,,,,,,,,,,,,,,,,,,,,,,,,,,,,,,,,,,,,,,,,,,,,,,,,,,,,,,,,,,,,,125.0,200.0,200.0,125.0,127.0,127.0,2.1,2.12,-258,-270,0,-259,222,272,381.36943769454956,381.3694772720337,381.3720314502716,381.38399171829224,381.53437185287476,381.53437185287476,381.53437185287476,381.53437185287476,381.53437185287476,381.53437185287476,381.53437185287476,384.8689754009247,2,3.4719953536987305,None,,,,,,,,,,,,,,,,,,198,3,2025-03-06_09h32.00.501,comp,2024.2.4,63.709624255901524,2025-03-06 09h33.01.852125 -0500,
106,106,0,filler_square,None,None,None,None,None,None,None,None,None,None,2,3.1170225143432617,None,,,,,0,0,0,0,0,106,106,181,384.8840174674988,,,,,,,,,,,,,,,,,,,,,,,,,,,,,,,,,,,,,,,,,,,,,,,,,,,,,,,,,,,,,,,,,,,,,,,,,,,,,,,,,61.760351267690424,58.59679028248983,68.19476554596864,68.19476554596864,63.523025854909456,62.85813249248615,1.0,1.3,321,-262,480,-261,642,-288,384.869877576828,384.86993169784546,384.87194180488586,384.8840174674988,385.03406739234924,385.03406739234924,385.03406739234924,385.03406739234924,385.03406739234924,385.03406739234924,385.03406739234924,388.00217294692993,2,3.1170225143432617,None,,,,,,,,,,,,,,,,,,198,3,2025-03-06_09h32.00.501,comp,2024.2.4,63.709624255901524,2025-03-06 09h33.01.852125 -0500,
107,107,0,filler_square,None,None,None,None,None,None,None,None,None,None,2,2.3751323223114014,None,,,,,0,0,0,0,0,107,107,176,388.01765394210815,,,,,,,,,,,,,,,,,,,,,,,,,,,,,,,,,,,,,,,,,,,,,,,,,,,,,,,,,,,,,,,,,,,,,,,,,,,,,,,,,100.08981572975671,73.50545848420421,111.45462866947031,111.45462866947031,106.69087524874554,77.18296594055963,1.0,1.3,292,-263,480,-270,670,-279,388.00317573547363,388.003231048584,388.00577449798584,388.01765394210815,388.1676390171051,388.1676390171051,388.1676390171051,388.1676390171051,388.1676390171051,388.1676390171051,388.1676390171051,390.402361869812,2,2.3751323223114014,None,,,,,,,,,,,,,,,,,,198,3,2025-03-06_09h32.00.501,comp,2024.2.4,63.709624255901524,2025-03-06 09h33.01.852125 -0500,
108,108,0,filler_square,None,None,None,None,None,None,None,None,None,None,3,2.2944743633270264,None,,,,,0,0,0,0,0,108,108,201,390.4344012737274,,,,,,,,,,,,,,,,,,,,,,,,,,,,,,,,,,,,,,,,,,,,,,,,,,,,,,,,,,,,,,,,,,,,,,,,,,,,,,,,,74.9815048506678,75.74296419136834,63.1937999281435,81.58348837669988,89.6158452916329,89.6158452916329,2.2,2.22,-175,286,0,-278,182,-258,390.40336179733276,390.4034061431885,390.40654277801514,390.4344012737274,390.5674488544464,390.5674488544464,390.5674488544464,390.5674488544464,390.5674488544464,390.5674488544464,390.5674488544464,392.7353894710541,3,2.2944743633270264,None,,,,,,,,,,,,,,,,,,198,3,2025-03-06_09h32.00.501,comp,2024.2.4,63.709624255901524,2025-03-06 09h33.01.852125 -0500,
109,109,0,critical,hwd,35.0,4.0,lower,133.0,57.0,57.0,133.0,70.0,70.0,2,1.546539068222046,None,,,,,0,0,0,0,0,109,109,100,392.7511496543884,,,,,,,,,,,,,,,,,,,,,,,,,,,,,,,,,,,,,,,,,,,,,,,,,,,,,,,,,,,,,,,,,,,,,,,,,,,,,,,,,133.0,57.0,57.0,133.0,70.0,70.0,4.0,4.1,-191,-257,0,-6,198,-277,392.7363121509552,392.73635363578796,392.738831281662,392.7511496543884,392.900737285614,392.900737285614,392.900737285614,392.900737285614,392.900737285614,392.900737285614,392.900737285614,394.3018763065338,2,1.546539068222046,None,,,,,,,,,,,,,,,,,,198,3,2025-03-06_09h32.00.501,comp,2024.2.4,63.709624255901524,2025-03-06 09h33.01.852125 -0500,
110,110,0,critical,wdh,35.0,2.1,lower,57.0,133.0,70.0,70.0,133.0,57.0,3,3.1865901947021484,None,,,,,0,0,0,0,0,110,110,8,394.31753635406494,,,,,,,,,,,,,,,,,,,,,,,,,,,,,,,,,,,,,,,,,,,,,,,,,,,,,,,,,,,,,,,,,,,,,,,,,,,,,,,,,57.0,133.0,70.0,70.0,133.0,57.0,2.1,2.12,-198,-287,0,-268,160,268,394.3026559352875,394.30269742012024,394.30468249320984,394.31753635406494,394.46741700172424,394.46741700172424,394.46741700172424,394.46741700172424,394.46741700172424,394.46741700172424,394.46741700172424,397.5185492038727,3,3.1865901947021484,None,,,,,,,,,,,,,,,,,,198,3,2025-03-06_09h32.00.501,comp,2024.2.4,63.709624255901524,2025-03-06 09h33.01.852125 -0500,
111,111,0,filler_square,None,None,None,None,None,None,None,None,None,None,2,4.948455810546875,None,,,,,0,0,0,0,0,111,111,172,397.53398275375366,,,,,,,,,,,,,,,,,,,,,,,,,,,,,,,,,,,,,,,,,,,,,,,,,,,,,,,,,,,,,,,,,,,,,,,,,,,,,,,,,82.77952547320561,99.44654719607894,112.32203803179715,112.32203803179715,74.5157477866346,78.52580755924845,4.0,4.2,-202,-3,0,-283,191,17,397.5194981098175,397.51953864097595,397.5220546722412,397.53398275375366,397.6841604709625,397.6841604709625,397.6841604709625,397.6841604709625,397.6841604709625,397.6841604709625,397.6841604709625,402.4853825569153,2,4.948455810546875,None,,,,,,,,,,,,,,,,,,198,3,2025-03-06_09h32.00.501,comp,2024.2.4,63.709624255901524,2025-03-06 09h33.01.852125 -0500,
112,112,0,filler_square,None,None,None,None,None,None,None,None,None,None,3,4.965613126754761,None,,,,,0,0,0,0,0,112,112,188,402.5008556842804,,,,,,,,,,,,,,,,,,,,,,,,,,,,,,,,,,,,,,,,,,,,,,,,,,,,,,,,,,,,,,,,,,,,,,,,,,,,,,,,,79.30360808526352,79.30360808526352,65.00975809516629,57.864780781913616,79.05423661698288,75.09883499005046,4.0,4.1,-165,-272,0,-17,162,-267,402.4863533973694,402.48639464378357,402.4887866973877,402.5008556842804,402.65066051483154,402.65066051483154,402.65066051483154,402.65066051483154,402.65066051483154,402.65066051483154,402.65066051483154,407.4685037136078,3,4.965613126754761,None,,,,,,,,,,,,,,,,,,198,3,2025-03-06_09h32.00.501,comp,2024.2.4,63.709624255901524,2025-03-06 09h33.01.852125 -0500,
113,113,0,critical,dhw,20.0,2.1,lower,78.0,78.0,133.0,57.0,57.0,133.0,2,2.8929495811462402,None,,,,,0,0,0,0,0,113,113,2,407.48412466049194,,,,,,,,,,,,,,,,,,,,,,,,,,,,,,,,,,,,,,,,,,,,,,,,,,,,,,,,,,,,,,,,,,,,,,,,,,,,,,,,,78.0,78.0,133.0,57.0,57.0,133.0,2.1,2.12,-164,-258,0,-267,191,268,407.4692962169647,407.46933603286743,407.47142457962036,407.48412466049194,407.6340684890747,407.6340684890747,407.6340684890747,407.6340684890747,407.6340684890747,407.6340684890747,407.6340684890747,410.38518357276917,2,2.8929495811462402,None,,,,,,,,,,,,,,,,,,198,3,2025-03-06_09h32.00.501,comp,2024.2.4,63.709624255901524,2025-03-06 09h33.01.852125 -0500,
114,114,0,critical,dhw,35.0,2.1,lower,70.0,70.0,133.0,57.0,57.0,133.0,2,1.5758237838745117,None,,,,,0,0,0,0,0,114,114,0,410.40087389945984,,,,,,,,,,,,,,,,,,,,,,,,,,,,,,,,,,,,,,,,,,,,,,,,,,,,,,,,,,,,,,,,,,,,,,,,,,,,,,,,,70.0,70.0,133.0,57.0,57.0,133.0,2.1,2.12,-160,-286,0,-278,191,286,410.385977268219,410.3860194683075,410.3881335258484,410.40087389945984,410.55073952674866,410.55073952674866,410.55073952674866,410.55073952674866,410.55073952674866,410.55073952674866,410.55073952674866,411.98498487472534,2,1.5758237838745117,None,,,,,,,,,,,,,,,,,,198,3,2025-03-06_09h32.00.501,comp,2024.2.4,63.709624255901524,2025-03-06 09h33.01.852125 -0500,
115,115,0,critical,wdh,35.0,2.1,lower,57.0,133.0,70.0,70.0,133.0,57.0,3,1.567229986190796,None,,,,,0,0,0,0,0,115,115,32,412.0006399154663,,,,,,,,,,,,,,,,,,,,,,,,,,,,,,,,,,,,,,,,,,,,,,,,,,,,,,,,,,,,,,,,,,,,,,,,,,,,,,,,,57.0,133.0,70.0,70.0,133.0,57.0,2.1,2.12,-198,-278,0,-256,160,257,411.98578238487244,411.9858229160309,411.9881708621979,412.0006399154663,412.1506950855255,412.1506950855255,412.1506950855255,412.1506950855255,412.1506950855255,412.1506950855255,412.1506950855255,413.5849907398224,3,1.567229986190796,None,,,,,,,,,,,,,,,,,,198,3,2025-03-06_09h32.00.501,comp,2024.2.4,63.709624255901524,2025-03-06 09h33.01.852125 -0500,
116,116,0,critical,dwh,20.0,2.1,upper,141.0,141.0,125.0,200.0,200.0,125.0,3,2.2553603649139404,None,,,,,0,0,0,0,0,116,116,31,413.60043811798096,,,,,,,,,,,,,,,,,,,,,,,,,,,,,,,,,,,,,,,,,,,,,,,,,,,,,,,,,,,,,,,,,,,,,,,,,,,,,,,,,141.0,141.0,125.0,200.0,200.0,125.0,2.1,2.12,-266,-260,0,-270,258,288,413.5857627391815,413.5858027935028,413.58813524246216,413.60043811798096,413.7507619857788,413.7507619857788,413.7507619857788,413.7507619857788,413.7507619857788,413.7507619857788,413.7507619857788,415.8686866760254,3,2.2553603649139404,None,,,,,,,,,,,,,,,,,,198,3,2025-03-06_09h32.00.501,comp,2024.2.4,63.709624255901524,2025-03-06 09h33.01.852125 -0500,
117,117,0,critical,hdw,20.0,4.0,lower,133.0,57.0,78.0,78.0,57.0,133.0,1,3.788029432296753,None,,,,,0,0,0,0,0,117,117,118,415.8838572502136,,,,,,,,,,,,,,,,,,,,,,,,,,,,,,,,,,,,,,,,,,,,,,,,,,,,,,,,,,,,,,,,,,,,,,,,,,,,,,,,,133.0,57.0,78.0,78.0,57.0,133.0,4.0,4.2,-164,-2,0,-273,202,-1,415.86946082115173,415.86949944496155,415.87214756011963,415.8838572502136,416.03400588035583,416.03400588035583,416.03400588035583,416.03400588035583,416.03400588035583,416.03400588035583,416.03400588035583,419.68498516082764,1,3.788029432296753,None,,,,,,,,,,,,,,,,,,198,3,2025-03-06_09h32.00.501,comp,2024.2.4,63.709624255901524,2025-03-06 09h33.01.852125 -0500,
118,118,0,filler_square,None,None,None,None,None,None,None,None,None,None,3,3.6602141857147217,None,,,,,0,0,0,0,0,118,118,193,419.7004556655884,,,,,,,,,,,,,,,,,,,,,,,,,,,,,,,,,,,,,,,,,,,,,,,,,,,,,,,,,,,,,,,,,,,,,,,,,,,,,,,,,59.990804763737444,59.990804763737444,57.758344474776564,58.228694372832244,59.31590645173586,58.78541391291685,4.0,4.2,-155,-13,0,-251,155,17,419.6859118938446,419.6859543323517,419.6883056163788,419.7004556655884,419.8506534099579,419.8506534099579,419.8506534099579,419.8506534099579,419.8506534099579,419.8506534099579,419.8506534099579,423.3681814670563,3,3.6602141857147217,None,,,,,,,,,,,,,,,,,,198,3,2025-03-06_09h32.00.501,comp,2024.2.4,63.709624255901524,2025-03-06 09h33.01.852125 -0500,
119,119,0,critical,hwd,35.0,2.1,upper,200.0,125.0,125.0,200.0,127.0,127.0,1,6.4006311893463135,None,,,,,0,0,0,0,0,119,119,41,423.3840115070343,,,,,,,,,,,,,,,,,,,,,,,,,,,,,,,,,,,,,,,,,,,,,,,,,,,,,,,,,,,,,,,,,,,,,,,,,,,,,,,,,200.0,125.0,125.0,200.0,127.0,127.0,2.1,2.11,-258,278,0,283,260,-283,423.36899733543396,423.36903834342957,423.3714473247528,423.3840115070343,423.5341272354126,423.5341272354126,423.5341272354126,423.5341272354126,423.5341272354126,423.5341272354126,423.5341272354126,429.80181074142456,1,6.4006311893463135,None,,,,,,,,,,,,,,,,,,198,3,2025-03-06_09h32.00.501,comp,2024.2.4,63.709624255901524,2025-03-06 09h33.01.852125 -0500,
120,120,0,critical,dhw,35.0,4.0,lower,70.0,70.0,133.0,57.0,57.0,133.0,2,2.5026369094848633,None,,,,,0,0,0,0,0,120,120,52,429.8171033859253,,,,,,,,,,,,,,,,,,,,,,,,,,,,,,,,,,,,,,,,,,,,,,,,,,,,,,,,,,,,,,,,,,,,,,,,,,,,,,,,,70.0,70.0,133.0,57.0,57.0,133.0,4.0,4.1,-160,-252,0,5,191,-268,429.80274271965027,429.80278158187866,429.805871963501,429.8171033859253,429.9674644470215,429.9674644470215,429.9674644470215,429.9674644470215,429.9674644470215,429.9674644470215,429.9674644470215,432.33491468429565,2,2.5026369094848633,None,,,,,,,,,,,,,,,,,,198,3,2025-03-06_09h32.00.501,comp,2024.2.4,63.709624255901524,2025-03-06 09h33.01.852125 -0500,
121,121,0,critical,hdw,35.0,4.0,upper,200.0,125.0,127.0,127.0,125.0,200.0,1,2.689255714416504,None,,,,,0,0,0,0,0,121,121,113,432.3504445552826,,,,,,,,,,,,,,,,,,,,,,,,,,,,,,,,,,,,,,,,,,,,,,,,,,,,,,,,,,,,,,,,,,,,,,,,,,,,,,,,,200.0,125.0,127.0,127.0,125.0,200.0,4.0,4.2,-222,3,0,-253,260,-9,432.33567786216736,432.33571887016296,432.33806681632996,432.3504445552826,432.50068616867065,432.50068616867065,432.50068616867065,432.50068616867065,432.50068616867065,432.50068616867065,432.50068616867065,435.0524890422821,1,2.689255714416504,None,,,,,,,,,,,,,,,,,,198,3,2025-03-06_09h32.00.501,comp,2024.2.4,63.709624255901524,2025-03-06 09h33.01.852125 -0500,
122,122,0,critical,whd,20.0,4.0,upper,125.0,200.0,200.0,125.0,141.0,141.0,2,2.3574743270874023,None,,,,,0,0,0,0,0,122,122,95,435.06736636161804,,,,,,,,,,,,,,,,,,,,,,,,,,,,,,,,,,,,,,,,,,,,,,,,,,,,,,,,,,,,,,,,,,,,,,,,,,,,,,,,,125.0,200.0,200.0,125.0,141.0,141.0,4.0,4.2,-258,6,0,-272,229,-11,435.0532832145691,435.0533220767975,435.0553135871887,435.06736636161804,435.2176353931427,435.2176353931427,435.2176353931427,435.2176353931427,435.2176353931427,435.2176353931427,435.2176353931427,437.43522477149963,2,2.3574743270874023,None,,,,,,,,,,,,,,,,,,198,3,2025-03-06_09h32.00.501,comp,2024.2.4,63.709624255901524,2025-03-06 09h33.01.852125 -0500,
123,123,0,filler_random,None,None,None,None,None,None,None,None,None,None,1,1.8613941669464111,None,,,,,0,0,0,0,0,123,123,163,437.4510381221771,,,,,,,,,,,,,,,,,,,,,,,,,,,,,,,,,,,,,,,,,,,,,,,,,,,,,,,,,,,,,,,,,,,,,,,,,,,,,,,,,129.40204666074152,143.0072396865171,77.40786934154448,72.10780781744889,114.60443401542943,139.7714255895483,1.0,1.2,-204,6,0,17,202,-20,437.43609952926636,437.436142206192,437.4382815361023,437.4510381221771,437.6005835533142,437.6005835533142,437.6005835533142,437.6005835533142,437.6005835533142,437.6005835533142,437.6005835533142,439.31865072250366,1,1.8613941669464111,None,,,,,,,,,,,,,,,,,,198,3,2025-03-06_09h32.00.501,comp,2024.2.4,63.709624255901524,2025-03-06 09h33.01.852125 -0500,
124,124,0,critical,whd,20.0,3.0,upper,125.0,200.0,200.0,125.0,141.0,141.0,2,2.3002281188964844,None,,,,,0,0,0,0,0,124,124,93,439.333931684494,,,,,,,,,,,,,,,,,,,,,,,,,,,,,,,,,,,,,,,,,,,,,,,,,,,,,,,,,,,,,,,,,,,,,,,,,,,,,,,,,125.0,200.0,200.0,125.0,141.0,141.0,3.0,3.2,-258,-290,0,-12,229,272,439.31944608688354,439.31948614120483,439.32159399986267,439.333931684494,439.48407888412476,439.48407888412476,439.48407888412476,439.48407888412476,439.48407888412476,439.48407888412476,439.48407888412476,441.6354739665985,2,2.3002281188964844,None,,,,,,,,,,,,,,,,,,198,3,2025-03-06_09h32.00.501,comp,2024.2.4,63.709624255901524,2025-03-06 09h33.01.852125 -0500,
125,125,0,filler_random,None,None,None,None,None,None,None,None,None,None,3,0.958061933517456,None,,,,,0,0,0,0,0,125,125,154,441.65093898773193,,,,,,,,,,,,,,,,,,,,,,,,,,,,,,,,,,,,,,,,,,,,,,,,,,,,,,,,,,,,,,,,,,,,,,,,,,,,,,,,,196.4757587808435,61.731360272149224,126.37116741325494,81.23532082239322,158.56511534915217,107.15241622428067,4.0,4.1,-167,-265,0,-12,190,-284,441.6363914012909,441.63643288612366,441.63853216171265,441.65093898773193,441.8005669116974,441.8005669116974,441.8005669116974,441.8005669116974,441.8005669116974,441.8005669116974,441.8005669116974,442.61817383766174,3,0.958061933517456,None,,,,,,,,,,,,,,,,,,198,3,2025-03-06_09h32.00.501,comp,2024.2.4,63.709624255901524,2025-03-06 09h33.01.852125 -0500,
126,126,0,filler_random,None,None,None,None,None,None,None,None,None,None,3,1.1837329864501953,None,,,,,0,0,0,0,0,126,126,142,442.633798122406,,,,,,,,,,,,,,,,,,,,,,,,,,,,,,,,,,,,,,,,,,,,,,,,,,,,,,,,,,,,,,,,,,,,,,,,,,,,,,,,,180.94106848269138,105.23718032201614,176.02626227275644,87.59465795754276,199.7450834439379,199.1412888164521,2.1,2.11,-192,253,0,287,239,-256,442.6190550327301,442.61909580230713,442.6214556694031,442.633798122406,442.78435492515564,442.78435492515564,442.78435492515564,442.78435492515564,442.78435492515564,442.78435492515564,442.78435492515564,443.83508348464966,3,1.1837329864501953,None,,,,,,,,,,,,,,,,,,198,3,2025-03-06_09h32.00.501,comp,2024.2.4,63.709624255901524,2025-03-06 09h33.01.852125 -0500,
127,127,0,filler_square,None,None,None,None,None,None,None,None,None,None,1,1.7419705390930176,None,,,,,0,0,0,0,0,127,127,198,443.850460767746,,,,,,,,,,,,,,,,,,,,,,,,,,,,,,,,,,,,,,,,,,,,,,,,,,,,,,,,,,,,,,,,,,,,,,,,,,,,,,,,,116.77365663653246,116.77365663653246,62.44798624382816,101.62508115084688,69.50026138061608,112.03682103389076,2.2,2.21,-205,-284,0,262,203,272,443.83602237701416,443.8360629081726,443.8393449783325,443.850460767746,444.00042486190796,444.00042486190796,444.00042486190796,444.00042486190796,444.00042486190796,444.00042486190796,444.00042486190796,445.601553440094,1,1.7419705390930176,None,,,,,,,,,,,,,,,,,,198,3,2025-03-06_09h32.00.501,comp,2024.2.4,63.709624255901524,2025-03-06 09h33.01.852125 -0500,
128,128,0,critical,whd,35.0,4.0,upper,125.0,200.0,200.0,125.0,127.0,127.0,2,2.400336503982544,None,,,,,0,0,0,0,0,128,128,89,445.6173632144928,,,,,,,,,,,,,,,,,,,,,,,,,,,,,,,,,,,,,,,,,,,,,,,,,,,,,,,,,,,,,,,,,,,,,,,,,,,,,,,,,125.0,200.0,200.0,125.0,127.0,127.0,4.0,4.2,-258,-4,0,-284,222,-13,445.60232400894165,445.6023666858673,445.604971408844,445.6173632144928,445.76717472076416,445.76717472076416,445.76717472076416,445.76717472076416,445.76717472076416,445.76717472076416,445.76717472076416,448.035258769989,2,2.400336503982544,None,,,,,,,,,,,,,,,,,,198,3,2025-03-06_09h32.00.501,comp,2024.2.4,63.709624255901524,2025-03-06 09h33.01.852125 -0500,
129,129,0,critical,hdw,35.0,2.1,upper,200.0,125.0,127.0,127.0,125.0,200.0,3,3.0214788913726807,None,,,,,0,0,0,0,0,129,129,45,448.0502643585205,,,,,,,,,,,,,,,,,,,,,,,,,,,,,,,,,,,,,,,,,,,,,,,,,,,,,,,,,,,,,,,,,,,,,,,,,,,,,,,,,200.0,125.0,127.0,127.0,125.0,200.0,2.1,2.12,-222,-261,0,-286,260,284,448.0360519886017,448.03609132766724,448.0381829738617,448.0502643585205,448.20051765441895,448.20051765441895,448.20051765441895,448.20051765441895,448.20051765441895,448.20051765441895,448.20051765441895,451.08499693870544,3,3.0214788913726807,None,,,,,,,,,,,,,,,,,,198,3,2025-03-06_09h32.00.501,comp,2024.2.4,63.709624255901524,2025-03-06 09h33.01.852125 -0500,
130,130,0,critical,hdw,35.0,3.0,lower,133.0,57.0,70.0,70.0,57.0,133.0,1,1.228205919265747,None,,,,,0,0,0,0,0,130,130,110,451.1002404689789,,,,,,,,,,,,,,,,,,,,,,,,,,,,,,,,,,,,,,,,,,,,,,,,,,,,,,,,,,,,,,,,,,,,,,,,,,,,,,,,,133.0,57.0,70.0,70.0,57.0,133.0,3.0,3.1,-160,279,0,-16,198,-270,451.08575344085693,451.0857934951782,451.0878210067749,451.1002404689789,451.25053453445435,451.25053453445435,451.25053453445435,451.25053453445435,451.25053453445435,451.25053453445435,451.25053453445435,452.33477807044983,1,1.228205919265747,None,,,,,,,,,,,,,,,,,,198,3,2025-03-06_09h32.00.501,comp,2024.2.4,63.709624255901524,2025-03-06 09h33.01.852125 -0500,
131,131,0,critical,wdh,20.0,1.0,lower,57.0,133.0,78.0,78.0,133.0,57.0,3,5.28314733505249,None,,,,,0,0,0,0,0,131,131,78,452.35058403015137,,,,,,,,,,,,,,,,,,,,,,,,,,,,,,,,,,,,,,,,,,,,,,,,,,,,,,,,,,,,,,,,,,,,,,,,,,,,,,,,,57.0,133.0,78.0,78.0,133.0,57.0,1.0,1.3,278,-283,480,-256,644,-252,452.3356223106384,452.3356623649597,452.33827686309814,452.35058403015137,452.5003638267517,452.5003638267517,452.5003638267517,452.5003638267517,452.5003638267517,452.5003638267517,452.5003638267517,457.6515157222748,3,5.28314733505249,None,,,,,,,,,,,,,,,,,,198,3,2025-03-06_09h32.00.501,comp,2024.2.4,63.709624255901524,2025-03-06 09h33.01.852125 -0500,
132,132,0,filler_random,None,None,None,None,None,None,None,None,None,None,1,1.1337578296661377,None,,,,,0,0,0,0,0,132,132,153,457.6669466495514,,,,,,,,,,,,,,,,,,,,,,,,,,,,,,,,,,,,,,,,,,,,,,,,,,,,,,,,,,,,,,,,,,,,,,,,,,,,,,,,,161.21522403638667,132.66383958879248,126.46339240383936,99.6164603300441,71.32338768650258,66.40479699747347,1.0,1.2,-212,9,0,0,179,-1,457.65241503715515,457.65245509147644,457.65493273735046,457.6669466495514,457.81726837158203,457.81726837158203,457.81726837158203,457.81726837158203,457.81726837158203,457.81726837158203,457.81726837158203,458.81818151474,1,1.1337578296661377,None,,,,,,,,,,,,,,,,,,198,3,2025-03-06_09h32.00.501,comp,2024.2.4,63.709624255901524,2025-03-06 09h33.01.852125 -0500,
133,133,0,critical,dwh,35.0,4.0,lower,70.0,70.0,57.0,133.0,133.0,57.0,3,2.1180739402770996,None,,,,,0,0,0,0,0,133,133,64,458.8335406780243,,,,,,,,,,,,,,,,,,,,,,,,,,,,,,,,,,,,,,,,,,,,,,,,,,,,,,,,,,,,,,,,,,,,,,,,,,,,,,,,,70.0,70.0,57.0,133.0,133.0,57.0,4.0,4.2,-198,-14,0,-257,191,-7,458.8189628124237,458.81900548934937,458.82155537605286,458.8335406780243,458.9835305213928,458.9835305213928,458.9835305213928,458.9835305213928,458.9835305213928,458.9835305213928,458.9835305213928,460.9681386947632,3,2.1180739402770996,None,,,,,,,,,,,,,,,,,,198,3,2025-03-06_09h32.00.501,comp,2024.2.4,63.709624255901524,2025-03-06 09h33.01.852125 -0500,
134,134,0,critical,hdw,20.0,2.1,upper,200.0,125.0,141.0,141.0,125.0,200.0,3,2.266683340072632,None,,,,,0,0,0,0,0,134,134,23,460.9833974838257,,,,,,,,,,,,,,,,,,,,,,,,,,,,,,,,,,,,,,,,,,,,,,,,,,,,,,,,,,,,,,,,,,,,,,,,,,,,,,,,,200.0,125.0,141.0,141.0,125.0,200.0,2.1,2.11,-229,272,0,275,266,-260,460.96891689300537,460.9689588546753,460.9713490009308,460.9833974838257,461.1338586807251,461.1338586807251,461.1338586807251,461.1338586807251,461.1338586807251,461.1338586807251,461.1338586807251,463.2517442703247,3,2.266683340072632,None,,,,,,,,,,,,,,,,,,198,3,2025-03-06_09h32.00.501,comp,2024.2.4,63.709624255901524,2025-03-06 09h33.01.852125 -0500,
135,135,0,filler_random,None,None,None,None,None,None,None,None,None,None,1,1.109337568283081,None,,,,,0,0,0,0,0,135,135,138,463.26707768440247,,,,,,,,,,,,,,,,,,,,,,,,,,,,,,,,,,,,,,,,,,,,,,,,,,,,,,,,,,,,,,,,,,,,,,,,,,,,,,,,,156.58235610144482,179.98364515639827,111.50675266309861,140.13511081487678,94.35951311199288,139.53921490487005,3.0,3.1,-256,267,0,-2,236,-267,463.2526354789734,463.2526762485504,463.2553563117981,463.26707768440247,463.4171380996704,463.4171380996704,463.4171380996704,463.4171380996704,463.4171380996704,463.4171380996704,463.4171380996704,464.3850300312042,1,1.109337568283081,None,,,,,,,,,,,,,,,,,,198,3,2025-03-06_09h32.00.501,comp,2024.2.4,63.709624255901524,2025-03-06 09h33.01.852125 -0500,
136,136,0,catch,None,None,None,None,None,None,None,None,None,None,2,0.992145299911499,None,,,,,0,0,0,0,0,136,136,128,464.4004576206207,,,,,,,,,,,,,,,,,,,,,,,,,,,,,,,,,,,,,,,,,,,,,,,,,,,,,,,,,,,,,,,,,,,,,,,,,,,,,,,,,93,97,154,171,104,86,1.0,1.1,-710,276,-480,268,-256,258,464.3860659599304,464.3861072063446,464.38821148872375,464.4004576206207,464.5506024360657,464.5506024360657,464.5506024360657,464.5506024360657,464.5506024360657,464.5506024360657,464.5506024360657,465.4015712738037,2,0.992145299911499,None,,,,,,,,,,,,,,,,,,198,3,2025-03-06_09h32.00.501,comp,2024.2.4,63.709624255901524,2025-03-06 09h33.01.852125 -0500,
137,137,0,filler_square,None,None,None,None,None,None,None,None,None,None,1,1.3835439682006836,None,,,,,0,0,0,0,0,137,137,177,465.41710233688354,,,,,,,,,,,,,,,,,,,,,,,,,,,,,,,,,,,,,,,,,,,,,,,,,,,,,,,,,,,,,,,,,,,,,,,,,,,,,,,,,131.12276563774088,131.12276563774088,66.1343885245056,111.32699641468434,101.50257159049421,130.56036245516304,4.0,4.2,-217,-14,0,-260,217,-20,465.40255975723267,465.4026005268097,465.405348777771,465.41710233688354,465.5671100616455,465.5671100616455,465.5671100616455,465.5671100616455,465.5671100616455,465.5671100616455,465.5671100616455,466.8181526660919,1,1.3835439682006836,None,,,,,,,,,,,,,,,,,,198,3,2025-03-06_09h32.00.501,comp,2024.2.4,63.709624255901524,2025-03-06 09h33.01.852125 -0500,
138,138,0,filler_random,None,None,None,None,None,None,None,None,None,None,1,2.200385570526123,None,,,,,0,0,0,0,0,138,138,145,466.833482503891,,,,,,,,,,,,,,,,,,,,,,,,,,,,,,,,,,,,,,,,,,,,,,,,,,,,,,,,,,,,,,,,,,,,,,,,,,,,,,,,,151.08177415351838,180.62572428106654,132.68817782795776,131.2772152383491,145.6505669607168,111.24503331732082,3.0,3.1,-252,289,0,-7,217,-250,466.8190085887909,466.8190474510193,466.82139897346497,466.833482503891,466.9837715625763,466.9837715625763,466.9837715625763,466.9837715625763,466.9837715625763,466.9837715625763,466.9837715625763,469.0351896286011,1,2.200385570526123,None,,,,,,,,,,,,,,,,,,198,3,2025-03-06_09h32.00.501,comp,2024.2.4,63.709624255901524,2025-03-06 09h33.01.852125 -0500,
139,139,0,filler_random,None,None,None,None,None,None,None,None,None,None,1,1.837862253189087,None,,,,,0,0,0,0,0,139,139,155,469.05041098594666,,,,,,,,,,,,,,,,,,,,,,,,,,,,,,,,,,,,,,,,,,,,,,,,,,,,,,,,,,,,,,,,,,,,,,,,,,,,,,,,,191.10298202175255,143.50460080068223,169.07253719396488,154.5585545612541,115.45460337368745,157.9468896174862,3.0,3.2,-245,-252,0,14,252,263,469.0360629558563,469.0361030101776,469.03819274902344,469.05041098594666,469.20055317878723,469.20055317878723,469.20055317878723,469.20055317878723,469.20055317878723,469.20055317878723,469.20055317878723,470.9016442298889,1,1.837862253189087,None,,,,,,,,,,,,,,,,,,198,3,2025-03-06_09h32.00.501,comp,2024.2.4,63.709624255901524,2025-03-06 09h33.01.852125 -0500,
140,140,0,critical,dwh,35.0,4.0,upper,127.0,127.0,125.0,200.0,200.0,125.0,3,3.211566925048828,None,,,,,0,0,0,0,0,140,140,65,470.9166741371155,,,,,,,,,,,,,,,,,,,,,,,,,,,,,,,,,,,,,,,,,,,,,,,,,,,,,,,,,,,,,,,,,,,,,,,,,,,,,,,,,127.0,127.0,125.0,200.0,200.0,125.0,4.0,4.2,-260,-1,0,-270,258,14,470.9024336338043,470.90247416496277,470.90494751930237,470.9166741371155,471.06715512275696,471.06715512275696,471.06715512275696,471.06715512275696,471.06715512275696,471.06715512275696,471.06715512275696,474.1348340511322,3,3.211566925048828,None,,,,,,,,,,,,,,,,,,198,3,2025-03-06_09h32.00.501,comp,2024.2.4,63.709624255901524,2025-03-06 09h33.01.852125 -0500,
