thisN,thisTrialN,thisRepN,effect,order,distance,config,diag,h_1,w_1,h_2,w_2,h_3,w_3,rect_choice.keys,rect_choice.rt,rect_choice.duration,instructions_loop.thisRepN,instructions_loop.thisTrialN,instructions_loop.thisN,instructions_loop.thisIndex,blocks.thisRepN,blocks.thisTrialN,blocks.thisN,blocks.thisIndex,trials.thisRepN,trials.thisTrialN,trials.thisN,trials.thisIndex,thisRow.t,notes,consent.started,agree_button.started,decline_button.started,consent_img.started,mouse.started,consent.stopped,agree_button.numClicks,agree_button.timesOn,agree_button.timesOff,decline_button.numClicks,decline_button.timesOn,decline_button.timesOff,mouse.x,mouse.y,mouse.leftButton,mouse.midButton,mouse.rightButton,mouse.time,mouse.clicked_name,exp_params.started,exp_params.stopped,welcome.started,welcome_text.started,welcome.stopped,instructions_1.started,instructions_1_text_1.started,instructions_1_text_2.started,key_resp.started,instructions_1.stopped,instructions_loop.key_resp.keys,instructions_loop.key_resp.rt,instructions_loop.key_resp.duration,instructions_2.started,instructions_2_text_1.started,instructions_2_text_2.started,key_resp_2.started,instructions_2.stopped,instructions_loop.key_resp_2.keys,instructions_loop.key_resp_2.rt,instructions_loop.key_resp_2.duration,instructions_3.started,instructions_3_text_1.started,r1_instr3.started,r2_instr3.started,r3_instr3.started,r1_instr3_label.started,r2_instr3_label.started,r3_instr3_label.started,instructions_3_text_3.started,instructions_3_text_4.started,key_resp_3.started,instructions_3.stopped,instructions_loop.key_resp_3.keys,instructions_loop.key_resp_3.rt,instructions_loop.key_resp_3.duration,instructions_4.started,instructions_4_text_1.started,instructions_4_text_3.started,instructions_4_text_2.started,key_resp_4.started,instructions_4.stopped,instructions_loop.key_resp_4.keys,instructions_loop.key_resp_4.rt,instructions_loop.key_resp_4.duration,instructions_5.started,instructions_5_text_1.started,instructions_5_text_2.started,key_resp_5.started,instructions_5.stopped,instructions_loop.key_resp_5.keys,instructions_loop.key_resp_5.rt,instructions_loop.key_resp_5.duration,start_exp.started,start_exp_text.started,key_resp_6.started,start_exp.stopped,key_resp_6.keys,key_resp_6.rt,key_resp_6.duration,h_1_tmp,w_1_tmp,h_2_tmp,w_2_tmp,h_3_tmp,w_3_tmp,config_tmp,config_tmp_1,r_1_x,r_1_y,r_2_x,r_2_y,r_3_x,r_3_y,pre_trial.started,pre_trial.stopped,choice_trial.started,rect_choice.started,r_1.started,r_2.started,r_3.started,r_1_label.started,r_2_label.started,r_3_label.started,prompt.started,choice_trial.stopped,trials.rect_choice.keys,trials.rect_choice.rt,trials.rect_choice.duration,end_block.started,end_block_text.started,end_block.stopped,end.started,end_text.started,key_resp_7.started,end.stopped,key_resp_7.keys,key_resp_7.rt,key_resp_7.duration,debriefing.started,debrief_form.started,end_debrief.started,debriefing.stopped,end_debrief.keys,end_debrief.rt,end_debrief.duration,participant,computer,date,expName,psychopyVersion,frameRate,expStart,
,,,,,,,,,,,,,,,,,,,,,,,,,,,,,,,0.015812158584594727,0.04311013221740723,0.04311013221740723,0.04311013221740723,0.015408754348754883,49.978753328323364,1,[49.93450689315796],[49.93451762199402],0,,,[-93.0],[-506.0],[1],[0],[0],[49.96159744262695],['agree_button'],,,,,,,,,,,,,,,,,,,,,,,,,,,,,,,,,,,,,,,,,,,,,,,,,,,,,,,,,,,,,,,,,,,,,,,,,,,,,,,,,,,,,,,,,,,,,,,,,,,,,,,,,,,199,3,2025-03-06_12h57.31.221,comp,2024.2.4,60.02229565063087,2025-03-06 12h57.56.367392 -0500,
,,,,,,,,,,,,,,,,,,,,,,,,,,,,,,,,,,,,,,,,,,,,,,,,,,49.97898888587952,49.97902154922485,,,,,,,,,,,,,,,,,,,,,,,,,,,,,,,,,,,,,,,,,,,,,,,,,,,,,,,,,,,,,,,,,,,,,,,,,,,,,,,,,,,,,,,,,,,,,,,,,,,,,,,,,199,3,2025-03-06_12h57.31.221,comp,2024.2.4,60.02229565063087,2025-03-06 12h57.56.367392 -0500,
,,,,,,,,,,,,,,,,,,,,,,,,,,,,,,,,,,,,,,,,,,,,,,,,,,,,49.97904300689697,49.99249792098999,51.98549270629883,,,,,,,,,,,,,,,,,,,,,,,,,,,,,,,,,,,,,,,,,,,,,,,,,,,,,,,,,,,,,,,,,,,,,,,,,,,,,,,,,,,,,,,,,,,,,,,,,,,,,,199,3,2025-03-06_12h57.31.221,comp,2024.2.4,60.02229565063087,2025-03-06 12h57.56.367392 -0500,
0,0,0,,,,,,,,,,,,,,,0,0,0,0,,,,,,,,,52.002082109451294,,,,,,,,,,,,,,,,,,,,,,,,,,51.98610234260559,52.002082109451294,52.002082109451294,53.48499369621277,57.202393770217896,space,3.7085649967193604,None,57.202475786209106,57.218430280685425,57.218430280685425,58.717899799346924,66.25249457359314,space,7.5329766273498535,None,66.25257992744446,66.27447199821472,66.27447199821472,66.27447199821472,66.27447199821472,66.27447199821472,66.27447199821472,66.27447199821472,66.27447199821472,66.27447199821472,67.76818108558655,72.6861629486084,space,4.9141693115234375,None,72.68625593185425,72.70161080360413,72.70161080360413,72.70161080360413,74.20168089866638,79.91919755935669,space,5.71159815788269,None,79.91928362846375,79.93464207649231,79.93464207649231,81.4342634677887,83.58538722991943,space,2.142887830734253,None,83.58550024032593,83.60117959976196,83.60117959976196,85.41867804527283,space,1.800004482269287,None,,,,,,,,,,,,,,,,,,,,,,,,,,,,,,,,,,,,,,,,,,,,,,,199,3,2025-03-06_12h57.31.221,comp,2024.2.4,60.02229565063087,2025-03-06 12h57.56.367392 -0500,
0,0,0,filler_square,None,None,None,None,None,None,None,None,None,None,3,2.9880080223083496,None,,,,,0,0,0,0,0,0,0,208,85.478919506073,,,,,,,,,,,,,,,,,,,,,,,,,,,,,,,,,,,,,,,,,,,,,,,,,,,,,,,,,,,,,,,,,,,,,,,,,,,,,,,,,125.86404216626117,61.74395585731961,114.28921855214979,149.64238227727708,182.00336777798265,182.00336777798265,2.2,2.22,-202,265,0,-279,262,-277,85.46552586555481,85.46557307243347,85.46751165390015,85.478919506073,85.62398862838745,85.62398862838745,85.62398862838745,85.62398862838745,85.62398862838745,85.62398862838745,85.62398862838745,88.4692313671112,3,2.9880080223083496,None,,,,,,,,,,,,,,,,,,199,3,2025-03-06_12h57.31.221,comp,2024.2.4,60.02229565063087,2025-03-06 12h57.56.367392 -0500,
1,1,0,filler_random,None,None,None,None,None,None,None,None,None,None,2,2.3661036491394043,None,,,,,0,0,0,0,0,1,1,133,88.4845323562622,,,,,,,,,,,,,,,,,,,,,,,,,,,,,,,,,,,,,,,,,,,,,,,,,,,,,,,,,,,,,,,,,,,,,,,,,,,,,,,,,147.40763201989398,132.409700263248,199.4567455495367,186.8824865705522,120.92124407166196,142.83542634473537,3.0,3.2,-256,-275,0,-17,261,275,88.47012662887573,88.47018480300903,88.47220969200134,88.4845323562622,88.63449192047119,88.63449192047119,88.63449192047119,88.63449192047119,88.63449192047119,88.63449192047119,88.63449192047119,90.86904430389404,2,2.3661036491394043,None,,,,,,,,,,,,,,,,,,199,3,2025-03-06_12h57.31.221,comp,2024.2.4,60.02229565063087,2025-03-06 12h57.56.367392 -0500,
2,2,0,filler_square,None,None,None,None,None,None,None,None,None,None,3,1.8202829360961914,None,,,,,0,0,0,0,0,2,2,185,90.88425374031067,,,,,,,,,,,,,,,,,,,,,,,,,,,,,,,,,,,,,,,,,,,,,,,,,,,,,,,,,,,,,,,,,,,,,,,,,,,,,,,,,108.29671194920022,115.83404311295564,145.26580177634526,147.96142772999576,173.34990408531775,173.34990408531775,2.1,2.12,-228,-281,0,-262,257,277,90.87001729011536,90.87006068229675,90.87247514724731,90.88425374031067,91.03443002700806,91.03443002700806,91.03443002700806,91.03443002700806,91.03443002700806,91.03443002700806,91.03443002700806,92.71899580955505,3,1.8202829360961914,None,,,,,,,,,,,,,,,,,,199,3,2025-03-06_12h57.31.221,comp,2024.2.4,60.02229565063087,2025-03-06 12h57.56.367392 -0500,
3,3,0,critical,hdw,35.0,2.1,lower,133.0,57.0,70.0,70.0,57.0,133.0,3,13.84269094467163,None,,,,,0,0,0,0,0,3,3,20,92.73425912857056,,,,,,,,,,,,,,,,,,,,,,,,,,,,,,,,,,,,,,,,,,,,,,,,,,,,,,,,,,,,,,,,,,,,,,,,,,,,,,,,,133.0,57.0,70.0,70.0,57.0,133.0,2.1,2.12,-160,-263,0,-257,198,263,92.71982717514038,92.71987009048462,92.72190642356873,92.73425912857056,92.88428688049316,92.88428688049316,92.88428688049316,92.88428688049316,92.88428688049316,92.88428688049316,92.88428688049316,106.58543562889099,3,13.84269094467163,None,,,,,,,,,,,,,,,,,,199,3,2025-03-06_12h57.31.221,comp,2024.2.4,60.02229565063087,2025-03-06 12h57.56.367392 -0500,
4,4,0,critical,whd,20.0,4.0,lower,57.0,133.0,133.0,57.0,78.0,78.0,1,8.033297061920166,None,,,,,0,0,0,0,0,4,4,94,106.60097122192383,,,,,,,,,,,,,,,,,,,,,,,,,,,,,,,,,,,,,,,,,,,,,,,,,,,,,,,,,,,,,,,,,,,,,,,,,,,,,,,,,57.0,133.0,133.0,57.0,78.0,78.0,4.0,4.2,-191,0,0,-262,164,2,106.58622097969055,106.58626389503479,106.58832454681396,106.60097122192383,106.75090479850769,106.75090479850769,106.75090479850769,106.75090479850769,106.75090479850769,106.75090479850769,106.75090479850769,114.63552641868591,1,8.033297061920166,None,,,,,,,,,,,,,,,,,,199,3,2025-03-06_12h57.31.221,comp,2024.2.4,60.02229565063087,2025-03-06 12h57.56.367392 -0500,
5,5,0,filler_random,None,None,None,None,None,None,None,None,None,None,1,3.293907880783081,None,,,,,0,0,0,0,0,5,5,130,114.65090894699097,,,,,,,,,,,,,,,,,,,,,,,,,,,,,,,,,,,,,,,,,,,,,,,,,,,,,,,,,,,,,,,,,,,,,,,,,,,,,,,,,166.96477030854652,136.52279567445984,115.61357589149418,114.52596901004767,59.99369928972867,59.941581124808486,1.0,1.1,-702,274,-480,273,-297,258,114.6364758014679,114.63651847839355,114.63878726959229,114.65090894699097,114.80098271369934,114.80098271369934,114.80098271369934,114.80098271369934,114.80098271369934,114.80098271369934,114.80098271369934,117.95199179649353,1,3.293907880783081,None,,,,,,,,,,,,,,,,,,199,3,2025-03-06_12h57.31.221,comp,2024.2.4,60.02229565063087,2025-03-06 12h57.56.367392 -0500,
6,6,0,critical,dwh,20.0,3.0,lower,78.0,78.0,57.0,133.0,133.0,57.0,2,5.8829803466796875,None,,,,,0,0,0,0,0,6,6,68,117.96777367591858,,,,,,,,,,,,,,,,,,,,,,,,,,,,,,,,,,,,,,,,,,,,,,,,,,,,,,,,,,,,,,,,,,,,,,,,,,,,,,,,,78.0,78.0,57.0,133.0,133.0,57.0,3.0,3.2,-202,-250,0,1,191,286,117.95279359817505,117.95283722877502,117.95524096488953,117.96777367591858,118.11760473251343,118.11760473251343,118.11760473251343,118.11760473251343,118.11760473251343,118.11760473251343,118.11760473251343,123.8520278930664,2,5.8829803466796875,None,,,,,,,,,,,,,,,,,,199,3,2025-03-06_12h57.31.221,comp,2024.2.4,60.02229565063087,2025-03-06 12h57.56.367392 -0500,
7,7,0,critical,dhw,20.0,3.0,upper,141.0,141.0,200.0,125.0,125.0,200.0,3,7.541656732559204,None,,,,,0,0,0,0,0,7,7,57,123.86748814582825,,,,,,,,,,,,,,,,,,,,,,,,,,,,,,,,,,,,,,,,,,,,,,,,,,,,,,,,,,,,,,,,,,,,,,,,,,,,,,,,,141.0,141.0,200.0,125.0,125.0,200.0,3.0,3.1,-229,279,0,-11,258,-279,123.85285472869873,123.85289645195007,123.85543060302734,123.86748814582825,124.01765179634094,124.01765179634094,124.01765179634094,124.01765179634094,124.01765179634094,124.01765179634094,124.01765179634094,131.41865038871765,3,7.541656732559204,None,,,,,,,,,,,,,,,,,,199,3,2025-03-06_12h57.31.221,comp,2024.2.4,60.02229565063087,2025-03-06 12h57.56.367392 -0500,
8,8,0,critical,wdh,35.0,2.1,lower,57.0,133.0,70.0,70.0,133.0,57.0,1,3.8945350646972656,None,,,,,0,0,0,0,0,8,8,32,131.4341218471527,,,,,,,,,,,,,,,,,,,,,,,,,,,,,,,,,,,,,,,,,,,,,,,,,,,,,,,,,,,,,,,,,,,,,,,,,,,,,,,,,57.0,133.0,70.0,70.0,133.0,57.0,2.1,2.11,-198,271,0,251,160,-252,131.4194552898407,131.41949725151062,131.42150449752808,131.4341218471527,131.58421754837036,131.58421754837036,131.58421754837036,131.58421754837036,131.58421754837036,131.58421754837036,131.58421754837036,135.33504104614258,1,3.8945350646972656,None,,,,,,,,,,,,,,,,,,199,3,2025-03-06_12h57.31.221,comp,2024.2.4,60.02229565063087,2025-03-06 12h57.56.367392 -0500,
9,9,0,filler_square,None,None,None,None,None,None,None,None,None,None,3,7.994081020355225,None,,,,,0,0,0,0,0,9,9,180,135.35078144073486,,,,,,,,,,,,,,,,,,,,,,,,,,,,,,,,,,,,,,,,,,,,,,,,,,,,,,,,,,,,,,,,,,,,,,,,,,,,,,,,,115.42653771863593,140.22041916840368,78.01452283919367,57.968600755010065,142.47231451757284,142.47231451757284,2.1,2.11,-195,265,0,283,196,-275,135.33598279953003,135.33602333068848,135.33796787261963,135.35078144073486,135.5008511543274,135.5008511543274,135.5008511543274,135.5008511543274,135.5008511543274,135.5008511543274,135.5008511543274,143.3517713546753,3,7.994081020355225,None,,,,,,,,,,,,,,,,,,199,3,2025-03-06_12h57.31.221,comp,2024.2.4,60.02229565063087,2025-03-06 12h57.56.367392 -0500,
10,10,0,critical,dwh,35.0,1.0,lower,70.0,70.0,57.0,133.0,133.0,57.0,2,2.5613410472869873,None,,,,,0,0,0,0,0,10,10,60,143.36731696128845,,,,,,,,,,,,,,,,,,,,,,,,,,,,,,,,,,,,,,,,,,,,,,,,,,,,,,,,,,,,,,,,,,,,,,,,,,,,,,,,,70.0,70.0,57.0,133.0,133.0,57.0,1.0,1.2,-198,-6,0,11,191,3,143.3525218963623,143.3525619506836,143.35492730140686,143.36731696128845,143.51729655265808,143.51729655265808,143.51729655265808,143.51729655265808,143.51729655265808,143.51729655265808,143.51729655265808,145.93502283096313,2,2.5613410472869873,None,,,,,,,,,,,,,,,,,,199,3,2025-03-06_12h57.31.221,comp,2024.2.4,60.02229565063087,2025-03-06 12h57.56.367392 -0500,
11,11,0,filler_square,None,None,None,None,None,None,None,None,None,None,2,6.288837909698486,None,,,,,0,0,0,0,0,11,11,202,145.9508454799652,,,,,,,,,,,,,,,,,,,,,,,,,,,,,,,,,,,,,,,,,,,,,,,,,,,,,,,,,,,,,,,,,,,,,,,,,,,,,,,,,60.15179544498455,63.666750708902846,68.75184346478247,68.75184346478247,58.39348918587543,65.78395943497424,3.0,3.2,-162,-266,0,3,163,277,145.9359827041626,145.93602442741394,145.93850374221802,145.9508454799652,146.10065388679504,146.10065388679504,146.10065388679504,146.10065388679504,146.10065388679504,146.10065388679504,146.10065388679504,152.25192427635193,2,6.288837909698486,None,,,,,,,,,,,,,,,,,,199,3,2025-03-06_12h57.31.221,comp,2024.2.4,60.02229565063087,2025-03-06 12h57.56.367392 -0500,
12,12,0,filler_random,None,None,None,None,None,None,None,None,None,None,1,3.645352602005005,None,,,,,0,0,0,0,0,12,12,158,152.26716995239258,,,,,,,,,,,,,,,,,,,,,,,,,,,,,,,,,,,,,,,,,,,,,,,,,,,,,,,,,,,,,,,,,,,,,,,,,,,,,,,,,96.94284760983554,104.19894449954938,136.63482871690462,59.64896767056765,75.07841367865828,71.54049615385068,2.1,2.11,-178,285,0,254,162,-256,152.25281238555908,152.2528522014618,152.25543403625488,152.26716995239258,152.41717624664307,152.41717624664307,152.41717624664307,152.41717624664307,152.41717624664307,152.41717624664307,152.41717624664307,155.91841959953308,1,3.645352602005005,None,,,,,,,,,,,,,,,,,,199,3,2025-03-06_12h57.31.221,comp,2024.2.4,60.02229565063087,2025-03-06 12h57.56.367392 -0500,
13,13,0,critical,wdh,35.0,2.1,upper,125.0,200.0,127.0,127.0,200.0,125.0,1,2.9545931816101074,None,,,,,0,0,0,0,0,13,13,9,155.93396043777466,,,,,,,,,,,,,,,,,,,,,,,,,,,,,,,,,,,,,,,,,,,,,,,,,,,,,,,,,,,,,,,,,,,,,,,,,,,,,,,,,125.0,200.0,127.0,127.0,200.0,125.0,2.1,2.12,-260,-252,0,-274,222,257,155.91920351982117,155.91924452781677,155.92129826545715,155.93396043777466,156.0840756893158,156.0840756893158,156.0840756893158,156.0840756893158,156.0840756893158,156.0840756893158,156.0840756893158,158.9018201828003,1,2.9545931816101074,None,,,,,,,,,,,,,,,,,,199,3,2025-03-06_12h57.31.221,comp,2024.2.4,60.02229565063087,2025-03-06 12h57.56.367392 -0500,
14,14,0,critical,whd,35.0,2.1,upper,125.0,200.0,200.0,125.0,127.0,127.0,1,2.659482479095459,None,,,,,0,0,0,0,0,14,14,37,158.91705965995789,,,,,,,,,,,,,,,,,,,,,,,,,,,,,,,,,,,,,,,,,,,,,,,,,,,,,,,,,,,,,,,,,,,,,,,,,,,,,,,,,125.0,200.0,200.0,125.0,127.0,127.0,2.1,2.11,-258,253,0,269,222,-267,158.90261006355286,158.90265107154846,158.90498757362366,158.91705965995789,159.0673623085022,159.0673623085022,159.0673623085022,159.0673623085022,159.0673623085022,159.0673623085022,159.0673623085022,161.58504223823547,1,2.659482479095459,None,,,,,,,,,,,,,,,,,,199,3,2025-03-06_12h57.31.221,comp,2024.2.4,60.02229565063087,2025-03-06 12h57.56.367392 -0500,
15,15,0,filler_random,None,None,None,None,None,None,None,None,None,None,1,2.2551662921905518,None,,,,,0,0,0,0,0,15,15,165,161.6005961894989,,,,,,,,,,,,,,,,,,,,,,,,,,,,,,,,,,,,,,,,,,,,,,,,,,,,,,,,,,,,,,,,,,,,,,,,,,,,,,,,,178.8009713758566,180.55144153339,159.65122309641632,142.8253477083059,101.4581680811722,104.47063397698577,4.0,4.2,-258,-5,0,-280,220,8,161.58597207069397,161.5860152244568,161.58826088905334,161.6005961894989,161.75102043151855,161.75102043151855,161.75102043151855,161.75102043151855,161.75102043151855,161.75102043151855,161.75102043151855,163.8684823513031,1,2.2551662921905518,None,,,,,,,,,,,,,,,,,,199,3,2025-03-06_12h57.31.221,comp,2024.2.4,60.02229565063087,2025-03-06 12h57.56.367392 -0500,
16,16,0,critical,whd,20.0,2.1,upper,125.0,200.0,200.0,125.0,141.0,141.0,1,4.876773834228516,None,,,,,0,0,0,0,0,16,16,15,163.88367986679077,,,,,,,,,,,,,,,,,,,,,,,,,,,,,,,,,,,,,,,,,,,,,,,,,,,,,,,,,,,,,,,,,,,,,,,,,,,,,,,,,125.0,200.0,200.0,125.0,141.0,141.0,2.1,2.11,-258,261,0,289,229,-265,163.86930775642395,163.86934971809387,163.87166333198547,163.88367986679077,164.03431272506714,164.03431272506714,164.03431272506714,164.03431272506714,164.03431272506714,164.03431272506714,164.03431272506714,168.76849675178528,1,4.876773834228516,None,,,,,,,,,,,,,,,,,,199,3,2025-03-06_12h57.31.221,comp,2024.2.4,60.02229565063087,2025-03-06 12h57.56.367392 -0500,
17,17,0,critical,hdw,35.0,1.0,upper,200.0,125.0,127.0,127.0,125.0,200.0,3,2.482023239135742,None,,,,,0,0,0,0,0,17,17,109,168.784006357193,,,,,,,,,,,,,,,,,,,,,,,,,,,,,,,,,,,,,,,,,,,,,,,,,,,,,,,,,,,,,,,,,,,,,,,,,,,,,,,,,200.0,125.0,127.0,127.0,125.0,200.0,1.0,1.1,-702,288,-480,270,-220,270,168.76930713653564,168.7693510055542,168.77137899398804,168.784006357193,168.93406414985657,168.93406414985657,168.93406414985657,168.93406414985657,168.93406414985657,168.93406414985657,168.93406414985657,171.26852798461914,3,2.482023239135742,None,,,,,,,,,,,,,,,,,,199,3,2025-03-06_12h57.31.221,comp,2024.2.4,60.02229565063087,2025-03-06 12h57.56.367392 -0500,
18,18,0,critical,dhw,20.0,4.0,lower,78.0,78.0,133.0,57.0,57.0,133.0,3,3.2445578575134277,None,,,,,0,0,0,0,0,18,18,58,171.28387999534607,,,,,,,,,,,,,,,,,,,,,,,,,,,,,,,,,,,,,,,,,,,,,,,,,,,,,,,,,,,,,,,,,,,,,,,,,,,,,,,,,78.0,78.0,133.0,57.0,57.0,133.0,4.0,4.1,-164,-264,0,13,191,-281,171.2693088054657,171.26935076713562,171.27144837379456,171.28387999534607,171.43404507637024,171.43404507637024,171.43404507637024,171.43404507637024,171.43404507637024,171.43404507637024,171.43404507637024,174.53478360176086,3,3.2445578575134277,None,,,,,,,,,,,,,,,,,,199,3,2025-03-06_12h57.31.221,comp,2024.2.4,60.02229565063087,2025-03-06 12h57.56.367392 -0500,
19,19,0,filler_random,None,None,None,None,None,None,None,None,None,None,3,6.8419270515441895,None,,,,,0,0,0,0,0,19,19,150,174.5504856109619,,,,,,,,,,,,,,,,,,,,,,,,,,,,,,,,,,,,,,,,,,,,,,,,,,,,,,,,,,,,,,,,,,,,,,,,,,,,,,,,,65.50868417348596,186.8057758380072,146.74294186675115,113.8644974860479,187.97499774445149,119.42978475629046,2.1,2.12,-246,-274,0,-262,213,277,174.53567552566528,174.53571701049805,174.5381920337677,174.5504856109619,174.70066809654236,174.70066809654236,174.70066809654236,174.70066809654236,174.70066809654236,174.70066809654236,174.70066809654236,181.4015188217163,3,6.8419270515441895,None,,,,,,,,,,,,,,,,,,199,3,2025-03-06_12h57.31.221,comp,2024.2.4,60.02229565063087,2025-03-06 12h57.56.367392 -0500,
20,20,0,filler_square,None,None,None,None,None,None,None,None,None,None,1,1.807875633239746,None,,,,,0,0,0,0,0,20,20,175,181.41712760925293,,,,,,,,,,,,,,,,,,,,,,,,,,,,,,,,,,,,,,,,,,,,,,,,,,,,,,,,,,,,,,,,,,,,,,,,,,,,,,,,,160.95771651021835,160.95771651021835,119.21303740451339,67.02657907866968,105.21007380290102,69.82730315908447,4.0,4.1,-210,-264,0,-15,164,-272,181.40245652198792,181.40249872207642,181.40485048294067,181.41712760925293,181.5671796798706,181.5671796798706,181.5671796798706,181.5671796798706,181.5671796798706,181.5671796798706,181.5671796798706,183.23500275611877,1,1.807875633239746,None,,,,,,,,,,,,,,,,,,199,3,2025-03-06_12h57.31.221,comp,2024.2.4,60.02229565063087,2025-03-06 12h57.56.367392 -0500,
21,21,0,critical,dwh,35.0,2.1,upper,127.0,127.0,125.0,200.0,200.0,125.0,2,2.493913173675537,None,,,,,0,0,0,0,0,21,21,5,183.2505922317505,,,,,,,,,,,,,,,,,,,,,,,,,,,,,,,,,,,,,,,,,,,,,,,,,,,,,,,,,,,,,,,,,,,,,,,,,,,,,,,,,127.0,127.0,125.0,200.0,200.0,125.0,2.1,2.11,-260,279,0,256,258,-259,183.23581719398499,183.23586010932922,183.2382893562317,183.2505922317505,183.40047597885132,183.40047597885132,183.40047597885132,183.40047597885132,183.40047597885132,183.40047597885132,183.40047597885132,185.75235652923584,2,2.493913173675537,None,,,,,,,,,,,,,,,,,,199,3,2025-03-06_12h57.31.221,comp,2024.2.4,60.02229565063087,2025-03-06 12h57.56.367392 -0500,
22,22,0,critical,dhw,35.0,1.0,upper,127.0,127.0,200.0,125.0,125.0,200.0,3,2.0719168186187744,None,,,,,0,0,0,0,0,22,22,49,185.7676272392273,,,,,,,,,,,,,,,,,,,,,,,,,,,,,,,,,,,,,,,,,,,,,,,,,,,,,,,,,,,,,,,,,,,,,,,,,,,,,,,,,127.0,127.0,200.0,125.0,125.0,200.0,1.0,1.3,258,-257,480,-253,738,-271,185.75306606292725,185.7531018257141,185.75481414794922,185.7676272392273,185.9172487258911,185.9172487258911,185.9172487258911,185.9172487258911,185.9172487258911,185.9172487258911,185.9172487258911,187.8517370223999,3,2.0719168186187744,None,,,,,,,,,,,,,,,,,,199,3,2025-03-06_12h57.31.221,comp,2024.2.4,60.02229565063087,2025-03-06 12h57.56.367392 -0500,
23,23,0,critical,dhw,35.0,4.0,upper,127.0,127.0,200.0,125.0,125.0,200.0,3,2.0146098136901855,None,,,,,0,0,0,0,0,23,23,53,187.8668622970581,,,,,,,,,,,,,,,,,,,,,,,,,,,,,,,,,,,,,,,,,,,,,,,,,,,,,,,,,,,,,,,,,,,,,,,,,,,,,,,,,127.0,127.0,200.0,125.0,125.0,200.0,4.0,4.2,-222,-18,0,-286,258,-8,187.8525354862213,187.85257697105408,187.8548858165741,187.8668622970581,188.01710200309753,188.01710200309753,188.01710200309753,188.01710200309753,188.01710200309753,188.01710200309753,188.01710200309753,189.8850657939911,3,2.0146098136901855,None,,,,,,,,,,,,,,,,,,199,3,2025-03-06_12h57.31.221,comp,2024.2.4,60.02229565063087,2025-03-06 12h57.56.367392 -0500,
24,24,0,filler_square,None,None,None,None,None,None,None,None,None,None,1,1.219292402267456,None,,,,,0,0,0,0,0,24,24,191,189.90043902397156,,,,,,,,,,,,,,,,,,,,,,,,,,,,,,,,,,,,,,,,,,,,,,,,,,,,,,,,,,,,,,,,,,,,,,,,,,,,,,,,,160.08899399683958,160.08899399683958,112.68835117559368,137.02055691075907,137.16612108704487,85.73310073661918,4.0,4.2,-245,-13,0,-257,207,4,189.8860228061676,189.8860638141632,189.88808703422546,189.90043902397156,190.05039358139038,190.05039358139038,190.05039358139038,190.05039358139038,190.05039358139038,190.05039358139038,190.05039358139038,191.13490629196167,1,1.219292402267456,None,,,,,,,,,,,,,,,,,,199,3,2025-03-06_12h57.31.221,comp,2024.2.4,60.02229565063087,2025-03-06 12h57.56.367392 -0500,
25,25,0,filler_square,None,None,None,None,None,None,None,None,None,None,3,5.001367568969727,None,,,,,0,0,0,0,0,25,25,171,191.15019345283508,,,,,,,,,,,,,,,,,,,,,,,,,,,,,,,,,,,,,,,,,,,,,,,,,,,,,,,,,,,,,,,,,,,,,,,,,,,,,,,,,168.2714788377672,186.66071370537313,67.22492040517454,74.45667209179372,191.58615123534074,191.58615123534074,1.0,1.3,253,-256,480,-250,709,-273,191.13585114479065,191.1358926296234,191.13830947875977,191.15019345283508,191.30040836334229,191.30040836334229,191.30040836334229,191.30040836334229,191.30040836334229,191.30040836334229,191.30040836334229,196.16825318336487,3,5.001367568969727,None,,,,,,,,,,,,,,,,,,199,3,2025-03-06_12h57.31.221,comp,2024.2.4,60.02229565063087,2025-03-06 12h57.56.367392 -0500,
26,26,0,filler_square,None,None,None,None,None,None,None,None,None,None,1,1.1608693599700928,None,,,,,0,0,0,0,0,26,26,188,196.18344402313232,,,,,,,,,,,,,,,,,,,,,,,,,,,,,,,,,,,,,,,,,,,,,,,,,,,,,,,,,,,,,,,,,,,,,,,,,,,,,,,,,181.33888748293538,181.33888748293538,89.12240146597371,110.50060663759484,84.58442186114614,134.02083498466615,4.0,4.2,-242,0,0,-257,218,12,196.16919589042664,196.1692397594452,196.1714789867401,196.18344402313232,196.33373641967773,196.33373641967773,196.33373641967773,196.33373641967773,196.33373641967773,196.33373641967773,196.33373641967773,197.35152435302734,1,1.1608693599700928,None,,,,,,,,,,,,,,,,,,199,3,2025-03-06_12h57.31.221,comp,2024.2.4,60.02229565063087,2025-03-06 12h57.56.367392 -0500,
27,27,0,filler_square,None,None,None,None,None,None,None,None,None,None,1,4.977315187454224,None,,,,,0,0,0,0,0,27,27,181,197.36707830429077,,,,,,,,,,,,,,,,,,,,,,,,,,,,,,,,,,,,,,,,,,,,,,,,,,,,,,,,,,,,,,,,,,,,,,,,,,,,,,,,,98.67467420101427,98.67467420101427,86.6347744237393,62.51901065910199,65.18580392727645,63.050426609040336,2.2,2.22,-177,269,0,-283,159,-278,197.35246801376343,197.3525104522705,197.35491466522217,197.36707830429077,197.51686000823975,197.51686000823975,197.51686000823975,197.51686000823975,197.51686000823975,197.51686000823975,197.51686000823975,202.35126161575317,1,4.977315187454224,None,,,,,,,,,,,,,,,,,,199,3,2025-03-06_12h57.31.221,comp,2024.2.4,60.02229565063087,2025-03-06 12h57.56.367392 -0500,
28,28,0,critical,whd,20.0,2.1,lower,57.0,133.0,133.0,57.0,78.0,78.0,1,1.968536138534546,None,,,,,0,0,0,0,0,28,28,38,202.36699318885803,,,,,,,,,,,,,,,,,,,,,,,,,,,,,,,,,,,,,,,,,,,,,,,,,,,,,,,,,,,,,,,,,,,,,,,,,,,,,,,,,57.0,133.0,133.0,57.0,78.0,78.0,2.1,2.12,-191,-274,0,-268,164,277,202.3520848751068,202.3521294593811,202.35434579849243,202.36699318885803,202.51675987243652,202.51675987243652,202.51675987243652,202.51675987243652,202.51675987243652,202.51675987243652,202.51675987243652,204.35130882263184,1,1.968536138534546,None,,,,,,,,,,,,,,,,,,199,3,2025-03-06_12h57.31.221,comp,2024.2.4,60.02229565063087,2025-03-06 12h57.56.367392 -0500,
29,29,0,catch,None,None,None,None,None,None,None,None,None,None,1,1.4726531505584717,None,,,,,0,0,0,0,0,29,29,120,204.3667027950287,,,,,,,,,,,,,,,,,,,,,,,,,,,,,,,,,,,,,,,,,,,,,,,,,,,,,,,,,,,,,,,,,,,,,,,,,,,,,,,,,187,138,88,102,68,122,1.0,1.1,-696,256,-480,272,-272,282,204.35234546661377,204.35238671302795,204.35464763641357,204.3667027950287,204.51695203781128,204.51695203781128,204.51695203781128,204.51695203781128,204.51695203781128,204.51695203781128,204.51695203781128,205.8517141342163,1,1.4726531505584717,None,,,,,,,,,,,,,,,,,,199,3,2025-03-06_12h57.31.221,comp,2024.2.4,60.02229565063087,2025-03-06 12h57.56.367392 -0500,
30,30,0,critical,hdw,20.0,3.0,upper,200.0,125.0,141.0,141.0,125.0,200.0,3,2.0454585552215576,None,,,,,0,0,0,0,0,30,30,117,205.86677479743958,,,,,,,,,,,,,,,,,,,,,,,,,,,,,,,,,,,,,,,,,,,,,,,,,,,,,,,,,,,,,,,,,,,,,,,,,,,,,,,,,200.0,125.0,141.0,141.0,125.0,200.0,3.0,3.1,-229,269,0,13,266,-250,205.8525207042694,205.85256266593933,205.85487151145935,205.86677479743958,206.0169997215271,206.0169997215271,206.0169997215271,206.0169997215271,206.0169997215271,206.0169997215271,206.0169997215271,207.9182026386261,3,2.0454585552215576,None,,,,,,,,,,,,,,,,,,199,3,2025-03-06_12h57.31.221,comp,2024.2.4,60.02229565063087,2025-03-06 12h57.56.367392 -0500,
31,31,0,filler_square,None,None,None,None,None,None,None,None,None,None,2,1.4103989601135254,None,,,,,0,0,0,0,0,31,31,189,207.93375611305237,,,,,,,,,,,,,,,,,,,,,,,,,,,,,,,,,,,,,,,,,,,,,,,,,,,,,,,,,,,,,,,,,,,,,,,,,,,,,,,,,86.90494282623673,95.33258686847391,104.76241436119895,104.76241436119895,82.7515029517156,97.225279581802,3.0,3.1,-196,253,0,0,197,-278,207.91911458969116,207.91917085647583,207.92119193077087,207.93375611305237,208.08358764648438,208.08358764648438,208.08358764648438,208.08358764648438,208.08358764648438,208.08358764648438,208.08358764648438,209.3512909412384,2,1.4103989601135254,None,,,,,,,,,,,,,,,,,,199,3,2025-03-06_12h57.31.221,comp,2024.2.4,60.02229565063087,2025-03-06 12h57.56.367392 -0500,
32,32,0,filler_random,None,None,None,None,None,None,None,None,None,None,2,1.4254188537597656,None,,,,,0,0,0,0,0,32,32,147,209.36685752868652,,,,,,,,,,,,,,,,,,,,,,,,,,,,,,,,,,,,,,,,,,,,,,,,,,,,,,,,,,,,,,,,,,,,,,,,,,,,,,,,,89.9467588581733,114.16810622007145,182.01085852574633,143.82187364792622,186.5765154553561,99.26498947018067,1.0,1.2,-225,0,0,7,218,17,209.3521752357483,209.3522183895111,209.35444331169128,209.36685752868652,209.51689791679382,209.51689791679382,209.51689791679382,209.51689791679382,209.51689791679382,209.51689791679382,209.51689791679382,210.80140709877014,2,1.4254188537597656,None,,,,,,,,,,,,,,,,,,199,3,2025-03-06_12h57.31.221,comp,2024.2.4,60.02229565063087,2025-03-06 12h57.56.367392 -0500,
33,33,0,critical,hdw,20.0,2.1,upper,200.0,125.0,141.0,141.0,125.0,200.0,3,1.4544732570648193,None,,,,,0,0,0,0,0,33,33,23,210.81699109077454,,,,,,,,,,,,,,,,,,,,,,,,,,,,,,,,,,,,,,,,,,,,,,,,,,,,,,,,,,,,,,,,,,,,,,,,,,,,,,,,,200.0,125.0,141.0,141.0,125.0,200.0,2.1,2.12,-229,-277,0,-251,266,253,210.8022108078003,210.80225253105164,210.80449438095093,210.81699109077454,210.96705150604248,210.96705150604248,210.96705150604248,210.96705150604248,210.96705150604248,210.96705150604248,210.96705150604248,212.28481221199036,3,1.4544732570648193,None,,,,,,,,,,,,,,,,,,199,3,2025-03-06_12h57.31.221,comp,2024.2.4,60.02229565063087,2025-03-06 12h57.56.367392 -0500,
34,34,0,critical,whd,35.0,1.0,lower,57.0,133.0,133.0,57.0,70.0,70.0,1,1.5553433895111084,None,,,,,0,0,0,0,0,34,34,84,212.29994010925293,,,,,,,,,,,,,,,,,,,,,,,,,,,,,,,,,,,,,,,,,,,,,,,,,,,,,,,,,,,,,,,,,,,,,,,,,,,,,,,,,57.0,133.0,133.0,57.0,70.0,70.0,1.0,1.1,-671,280,-480,256,-320,279,212.28563237190247,212.28567457199097,212.28813242912292,212.29994010925293,212.45006561279297,212.45006561279297,212.45006561279297,212.45006561279297,212.45006561279297,212.45006561279297,212.45006561279297,213.86800837516785,1,1.5553433895111084,None,,,,,,,,,,,,,,,,,,199,3,2025-03-06_12h57.31.221,comp,2024.2.4,60.02229565063087,2025-03-06 12h57.56.367392 -0500,
35,35,0,critical,hdw,35.0,3.0,lower,133.0,57.0,70.0,70.0,57.0,133.0,3,1.4930999279022217,None,,,,,0,0,0,0,0,35,35,110,213.88332152366638,,,,,,,,,,,,,,,,,,,,,,,,,,,,,,,,,,,,,,,,,,,,,,,,,,,,,,,,,,,,,,,,,,,,,,,,,,,,,,,,,133.0,57.0,70.0,70.0,57.0,133.0,3.0,3.1,-160,281,0,-9,198,-289,213.86879110336304,213.86883234977722,213.8707947731018,213.88332152366638,214.03374886512756,214.03374886512756,214.03374886512756,214.03374886512756,214.03374886512756,214.03374886512756,214.03374886512756,215.38457465171814,3,1.4930999279022217,None,,,,,,,,,,,,,,,,,,199,3,2025-03-06_12h57.31.221,comp,2024.2.4,60.02229565063087,2025-03-06 12h57.56.367392 -0500,
36,36,0,filler_random,None,None,None,None,None,None,None,None,None,None,3,3.360001802444458,None,,,,,0,0,0,0,0,36,36,143,215.40024709701538,,,,,,,,,,,,,,,,,,,,,,,,,,,,,,,,,,,,,,,,,,,,,,,,,,,,,,,,,,,,,,,,,,,,,,,,,,,,,,,,,132.8977088374106,61.13442179164593,144.31900190980525,103.83512490557601,131.3845492441714,179.8031190507853,1.0,1.1,-658,250,-480,276,-242,262,215.38548970222473,215.38553261756897,215.38795447349548,215.40024709701538,215.55058884620667,215.55058884620667,215.55058884620667,215.55058884620667,215.55058884620667,215.55058884620667,215.55058884620667,218.767915725708,3,3.360001802444458,None,,,,,,,,,,,,,,,,,,199,3,2025-03-06_12h57.31.221,comp,2024.2.4,60.02229565063087,2025-03-06 12h57.56.367392 -0500,
37,37,0,catch,None,None,None,None,None,None,None,None,None,None,1,1.2338590621948242,None,,,,,0,0,0,0,0,37,37,126,218.78362250328064,,,,,,,,,,,,,,,,,,,,,,,,,,,,,,,,,,,,,,,,,,,,,,,,,,,,,,,,,,,,,,,,,,,,,,,,,,,,,,,,,169,156,110,80,127,63,2.2,2.22,-214,265,0,-254,168,-282,218.768981218338,218.76902508735657,218.7714421749115,218.78362250328064,218.93356204032898,218.93356204032898,218.93356204032898,218.93356204032898,218.93356204032898,218.93356204032898,218.93356204032898,220.03450798988342,1,1.2338590621948242,None,,,,,,,,,,,,,,,,,,199,3,2025-03-06_12h57.31.221,comp,2024.2.4,60.02229565063087,2025-03-06 12h57.56.367392 -0500,
38,38,0,filler_square,None,None,None,None,None,None,None,None,None,None,2,1.5262651443481445,None,,,,,0,0,0,0,0,38,38,209,220.04989433288574,,,,,,,,,,,,,,,,,,,,,,,,,,,,,,,,,,,,,,,,,,,,,,,,,,,,,,,,,,,,,,,,,,,,,,,,,,,,,,,,,88.37546311489713,96.97789294772174,97.28336397923925,97.28336397923925,85.22785145357054,70.38374917478335,2.2,2.21,-193,-252,0,265,180,282,220.0354619026184,220.0355043411255,220.03788995742798,220.04989433288574,220.20016503334045,220.20016503334045,220.20016503334045,220.20016503334045,220.20016503334045,220.20016503334045,220.20016503334045,221.58444786071777,2,1.5262651443481445,None,,,,,,,,,,,,,,,,,,199,3,2025-03-06_12h57.31.221,comp,2024.2.4,60.02229565063087,2025-03-06 12h57.56.367392 -0500,
39,39,0,filler_square,None,None,None,None,None,None,None,None,None,None,3,1.5919320583343506,None,,,,,0,0,0,0,0,39,39,196,221.6001420021057,,,,,,,,,,,,,,,,,,,,,,,,,,,,,,,,,,,,,,,,,,,,,,,,,,,,,,,,,,,,,,,,,,,,,,,,,,,,,,,,,91.16671011145107,90.52336326460109,106.76185007831512,61.17111887932221,108.97730380204848,108.97730380204848,4.0,4.1,-172,-278,0,-19,181,-252,221.58540201187134,221.58544611930847,221.5877673625946,221.6001420021057,221.75018405914307,221.75018405914307,221.75018405914307,221.75018405914307,221.75018405914307,221.75018405914307,221.75018405914307,223.20116090774536,3,1.5919320583343506,None,,,,,,,,,,,,,,,,,,199,3,2025-03-06_12h57.31.221,comp,2024.2.4,60.02229565063087,2025-03-06 12h57.56.367392 -0500,
40,40,0,filler_square,None,None,None,None,None,None,None,None,None,None,1,1.4329180717468262,None,,,,,0,0,0,0,0,40,40,184,223.216890335083,,,,,,,,,,,,,,,,,,,,,,,,,,,,,,,,,,,,,,,,,,,,,,,,,,,,,,,,,,,,,,,,,,,,,,,,,,,,,,,,,134.12947381308106,134.12947381308106,109.56551072382862,127.5322756724841,70.28062567680442,94.58564045056863,2.1,2.12,-227,-283,0,-284,207,267,223.20210075378418,223.2021565437317,223.20440578460693,223.216890335083,223.3666832447052,223.3666832447052,223.3666832447052,223.3666832447052,223.3666832447052,223.3666832447052,223.3666832447052,224.65142703056335,1,1.4329180717468262,None,,,,,,,,,,,,,,,,,,199,3,2025-03-06_12h57.31.221,comp,2024.2.4,60.02229565063087,2025-03-06 12h57.56.367392 -0500,
41,41,0,critical,dhw,35.0,3.0,lower,70.0,70.0,133.0,57.0,57.0,133.0,3,1.8152995109558105,None,,,,,0,0,0,0,0,41,41,50,224.66680550575256,,,,,,,,,,,,,,,,,,,,,,,,,,,,,,,,,,,,,,,,,,,,,,,,,,,,,,,,,,,,,,,,,,,,,,,,,,,,,,,,,70.0,70.0,133.0,57.0,57.0,133.0,3.0,3.2,-160,-272,0,-18,191,256,224.65218043327332,224.65222358703613,224.65443110466003,224.66680550575256,224.81685090065002,224.81685090065002,224.81685090065002,224.81685090065002,224.81685090065002,224.81685090065002,224.81685090065002,226.48456358909607,3,1.8152995109558105,None,,,,,,,,,,,,,,,,,,199,3,2025-03-06_12h57.31.221,comp,2024.2.4,60.02229565063087,2025-03-06 12h57.56.367392 -0500,
42,42,0,filler_square,None,None,None,None,None,None,None,None,None,None,3,1.5001802444458008,None,,,,,0,0,0,0,0,42,42,205,226.5002157688141,,,,,,,,,,,,,,,,,,,,,,,,,,,,,,,,,,,,,,,,,,,,,,,,,,,,,,,,,,,,,,,,,,,,,,,,,,,,,,,,,147.72040751069204,72.37285195642893,70.49809206457667,92.97225841409897,169.18011907937546,169.18011907937546,2.2,2.21,-179,-261,0,263,227,267,226.4855387210846,226.48558068275452,226.48764848709106,226.5002157688141,226.65020728111267,226.65020728111267,226.65020728111267,226.65020728111267,226.65020728111267,226.65020728111267,226.65020728111267,228.0015685558319,3,1.5001802444458008,None,,,,,,,,,,,,,,,,,,199,3,2025-03-06_12h57.31.221,comp,2024.2.4,60.02229565063087,2025-03-06 12h57.56.367392 -0500,
43,43,0,critical,wdh,35.0,2.1,upper,125.0,200.0,127.0,127.0,200.0,125.0,1,2.102292537689209,None,,,,,0,0,0,0,0,43,43,33,228.01694321632385,,,,,,,,,,,,,,,,,,,,,,,,,,,,,,,,,,,,,,,,,,,,,,,,,,,,,,,,,,,,,,,,,,,,,,,,,,,,,,,,,125.0,200.0,127.0,127.0,200.0,125.0,2.1,2.12,-260,-262,0,-268,222,282,228.00238037109375,228.00242352485657,228.00570011138916,228.01694321632385,228.1672260761261,228.1672260761261,228.1672260761261,228.1672260761261,228.1672260761261,228.1672260761261,228.1672260761261,230.13466691970825,1,2.102292537689209,None,,,,,,,,,,,,,,,,,,199,3,2025-03-06_12h57.31.221,comp,2024.2.4,60.02229565063087,2025-03-06 12h57.56.367392 -0500,
44,44,0,critical,whd,20.0,2.1,upper,125.0,200.0,200.0,125.0,141.0,141.0,1,2.010340452194214,None,,,,,0,0,0,0,0,44,44,39,230.1498122215271,,,,,,,,,,,,,,,,,,,,,,,,,,,,,,,,,,,,,,,,,,,,,,,,,,,,,,,,,,,,,,,,,,,,,,,,,,,,,,,,,125.0,200.0,200.0,125.0,141.0,141.0,2.1,2.12,-258,-256,0,-260,229,289,230.1354739665985,230.135516166687,230.13853240013123,230.1498122215271,230.30025792121887,230.30025792121887,230.30025792121887,230.30025792121887,230.30025792121887,230.30025792121887,230.30025792121887,232.16807770729065,1,2.010340452194214,None,,,,,,,,,,,,,,,,,,199,3,2025-03-06_12h57.31.221,comp,2024.2.4,60.02229565063087,2025-03-06 12h57.56.367392 -0500,
45,45,0,critical,dwh,20.0,1.0,lower,78.0,78.0,57.0,133.0,133.0,57.0,2,1.8824436664581299,None,,,,,0,0,0,0,0,45,45,66,232.183598279953,,,,,,,,,,,,,,,,,,,,,,,,,,,,,,,,,,,,,,,,,,,,,,,,,,,,,,,,,,,,,,,,,,,,,,,,,,,,,,,,,78.0,78.0,57.0,133.0,133.0,57.0,1.0,1.2,-202,2,0,-4,191,1,232.1688792705536,232.16892194747925,232.17131280899048,232.183598279953,232.3333809375763,232.3333809375763,232.3333809375763,232.3333809375763,232.3333809375763,232.3333809375763,232.3333809375763,234.06788182258606,2,1.8824436664581299,None,,,,,,,,,,,,,,,,,,199,3,2025-03-06_12h57.31.221,comp,2024.2.4,60.02229565063087,2025-03-06 12h57.56.367392 -0500,
46,46,0,critical,hdw,20.0,2.1,upper,200.0,125.0,141.0,141.0,125.0,200.0,3,1.6927118301391602,None,,,,,0,0,0,0,0,46,46,47,234.08345580101013,,,,,,,,,,,,,,,,,,,,,,,,,,,,,,,,,,,,,,,,,,,,,,,,,,,,,,,,,,,,,,,,,,,,,,,,,,,,,,,,,200.0,125.0,141.0,141.0,125.0,200.0,2.1,2.12,-229,-256,0,-251,266,272,234.06868863105774,234.06873106956482,234.07079982757568,234.08345580101013,234.23349142074585,234.23349142074585,234.23349142074585,234.23349142074585,234.23349142074585,234.23349142074585,234.23349142074585,235.78457117080688,3,1.6927118301391602,None,,,,,,,,,,,,,,,,,,199,3,2025-03-06_12h57.31.221,comp,2024.2.4,60.02229565063087,2025-03-06 12h57.56.367392 -0500,
47,47,0,critical,dwh,35.0,4.0,lower,70.0,70.0,57.0,133.0,133.0,57.0,2,1.6711664199829102,None,,,,,0,0,0,0,0,47,47,64,235.80009961128235,,,,,,,,,,,,,,,,,,,,,,,,,,,,,,,,,,,,,,,,,,,,,,,,,,,,,,,,,,,,,,,,,,,,,,,,,,,,,,,,,70.0,70.0,57.0,133.0,133.0,57.0,4.0,4.2,-198,-12,0,-277,191,-13,235.78536415100098,235.7854061126709,235.78789401054382,235.80009961128235,235.9499490261078,235.9499490261078,235.9499490261078,235.9499490261078,235.9499490261078,235.9499490261078,235.9499490261078,237.48438358306885,2,1.6711664199829102,None,,,,,,,,,,,,,,,,,,199,3,2025-03-06_12h57.31.221,comp,2024.2.4,60.02229565063087,2025-03-06 12h57.56.367392 -0500,
48,48,0,filler_random,None,None,None,None,None,None,None,None,None,None,2,1.6514146327972412,None,,,,,0,0,0,0,0,48,48,136,237.4998767375946,,,,,,,,,,,,,,,,,,,,,,,,,,,,,,,,,,,,,,,,,,,,,,,,,,,,,,,,,,,,,,,,,,,,,,,,,,,,,,,,,163.63176295844215,64.10649662486705,160.15505815997113,195.22586751491565,82.82089155617413,188.07929660814227,2.1,2.11,-226,283,0,262,288,-276,237.4855091571808,237.48555183410645,237.4878385066986,237.4998767375946,237.65006756782532,237.65006756782532,237.65006756782532,237.65006756782532,237.65006756782532,237.65006756782532,237.65006756782532,239.16791439056396,2,1.6514146327972412,None,,,,,,,,,,,,,,,,,,199,3,2025-03-06_12h57.31.221,comp,2024.2.4,60.02229565063087,2025-03-06 12h57.56.367392 -0500,
49,49,0,critical,hwd,20.0,2.1,upper,200.0,125.0,125.0,200.0,141.0,141.0,2,1.7131574153900146,None,,,,,0,0,0,0,0,49,49,43,239.1831395626068,,,,,,,,,,,,,,,,,,,,,,,,,,,,,,,,,,,,,,,,,,,,,,,,,,,,,,,,,,,,,,,,,,,,,,,,,,,,,,,,,200.0,125.0,125.0,200.0,141.0,141.0,2.1,2.11,-258,281,0,280,266,-285,239.1686954498291,239.16873598098755,239.17111253738403,239.1831395626068,239.33351588249207,239.33351588249207,239.33351588249207,239.33351588249207,239.33351588249207,239.33351588249207,239.33351588249207,240.90133213996887,2,1.7131574153900146,None,,,,,,,,,,,,,,,,,,199,3,2025-03-06_12h57.31.221,comp,2024.2.4,60.02229565063087,2025-03-06 12h57.56.367392 -0500,
50,50,0,filler_random,None,None,None,None,None,None,None,None,None,None,3,10.018424987792969,None,,,,,0,0,0,0,0,50,50,156,240.91672492027283,,,,,,,,,,,,,,,,,,,,,,,,,,,,,,,,,,,,,,,,,,,,,,,,,,,,,,,,,,,,,,,,,,,,,,,,,,,,,,,,,138.4854642317527,194.72392720464828,106.71686898257806,134.82756648857773,142.08754293817617,187.83269763098272,4.0,4.1,-261,-282,0,12,257,-266,240.9022319316864,240.90227246284485,240.9045124053955,240.91672492027283,241.0668511390686,241.0668511390686,241.0668511390686,241.0668511390686,241.0668511390686,241.0668511390686,241.0668511390686,250.95120763778687,3,10.018424987792969,None,,,,,,,,,,,,,,,,,,199,3,2025-03-06_12h57.31.221,comp,2024.2.4,60.02229565063087,2025-03-06 12h57.56.367392 -0500,
51,51,0,critical,hwd,20.0,1.0,upper,200.0,125.0,125.0,200.0,141.0,141.0,2,1.8726437091827393,None,,,,,0,0,0,0,0,51,51,103,250.96638298034668,,,,,,,,,,,,,,,,,,,,,,,,,,,,,,,,,,,,,,,,,,,,,,,,,,,,,,,,,,,,,,,,,,,,,,,,,,,,,,,,,200.0,125.0,125.0,200.0,141.0,141.0,1.0,1.2,-258,18,0,-15,266,9,250.9519476890564,250.95198893547058,250.95512199401855,250.96638298034668,251.11677932739258,251.11677932739258,251.11677932739258,251.11677932739258,251.11677932739258,251.11677932739258,251.11677932739258,252.8514130115509,2,1.8726437091827393,None,,,,,,,,,,,,,,,,,,199,3,2025-03-06_12h57.31.221,comp,2024.2.4,60.02229565063087,2025-03-06 12h57.56.367392 -0500,
52,52,0,critical,hwd,35.0,3.0,lower,133.0,57.0,57.0,133.0,70.0,70.0,2,1.0454351902008057,None,,,,,0,0,0,0,0,52,52,98,252.8664710521698,,,,,,,,,,,,,,,,,,,,,,,,,,,,,,,,,,,,,,,,,,,,,,,,,,,,,,,,,,,,,,,,,,,,,,,,,,,,,,,,,133.0,57.0,57.0,133.0,70.0,70.0,3.0,3.1,-191,289,0,-8,198,-256,252.85219383239746,252.8522343635559,252.85423707962036,252.8664710521698,253.0165102481842,253.0165102481842,253.0165102481842,253.0165102481842,253.0165102481842,253.0165102481842,253.0165102481842,253.91773414611816,2,1.0454351902008057,None,,,,,,,,,,,,,,,,,,199,3,2025-03-06_12h57.31.221,comp,2024.2.4,60.02229565063087,2025-03-06 12h57.56.367392 -0500,
53,53,0,critical,whd,20.0,4.0,upper,125.0,200.0,200.0,125.0,141.0,141.0,1,1.2107653617858887,None,,,,,0,0,0,0,0,53,53,95,253.93330311775208,,,,,,,,,,,,,,,,,,,,,,,,,,,,,,,,,,,,,,,,,,,,,,,,,,,,,,,,,,,,,,,,,,,,,,,,,,,,,,,,,125.0,200.0,200.0,125.0,141.0,141.0,4.0,4.2,-258,-4,0,-280,229,-13,253.9185254573822,253.91856813430786,253.92085599899292,253.93330311775208,254.0833899974823,254.0833899974823,254.0833899974823,254.0833899974823,254.0833899974823,254.0833899974823,254.0833899974823,255.15118169784546,1,1.2107653617858887,None,,,,,,,,,,,,,,,,,,199,3,2025-03-06_12h57.31.221,comp,2024.2.4,60.02229565063087,2025-03-06 12h57.56.367392 -0500,
54,54,0,critical,whd,20.0,3.0,upper,125.0,200.0,200.0,125.0,141.0,141.0,1,1.241539716720581,None,,,,,0,0,0,0,0,54,54,93,255.16648626327515,,,,,,,,,,,,,,,,,,,,,,,,,,,,,,,,,,,,,,,,,,,,,,,,,,,,,,,,,,,,,,,,,,,,,,,,,,,,,,,,,125.0,200.0,200.0,125.0,141.0,141.0,3.0,3.2,-258,-262,0,-19,229,289,255.15196657180786,255.15200805664062,255.15420746803284,255.16648626327515,255.3166687488556,255.3166687488556,255.3166687488556,255.3166687488556,255.3166687488556,255.3166687488556,255.3166687488556,256.4177887439728,1,1.241539716720581,None,,,,,,,,,,,,,,,,,,199,3,2025-03-06_12h57.31.221,comp,2024.2.4,60.02229565063087,2025-03-06 12h57.56.367392 -0500,
55,55,0,critical,hwd,20.0,4.0,lower,133.0,57.0,57.0,133.0,78.0,78.0,2,2.1179168224334717,None,,,,,0,0,0,0,0,55,55,106,256.43320178985596,,,,,,,,,,,,,,,,,,,,,,,,,,,,,,,,,,,,,,,,,,,,,,,,,,,,,,,,,,,,,,,,,,,,,,,,,,,,,,,,,133.0,57.0,57.0,133.0,78.0,78.0,4.0,4.1,-191,-287,0,8,202,-251,256.4185929298401,256.4186339378357,256.42097997665405,256.43320178985596,256.58323860168457,256.58323860168457,256.58323860168457,256.58323860168457,256.58323860168457,256.58323860168457,256.58323860168457,258.5676209926605,2,2.1179168224334717,None,,,,,,,,,,,,,,,,,,199,3,2025-03-06_12h57.31.221,comp,2024.2.4,60.02229565063087,2025-03-06 12h57.56.367392 -0500,
56,56,0,critical,dhw,35.0,1.0,lower,70.0,70.0,133.0,57.0,57.0,133.0,3,1.4827325344085693,None,,,,,0,0,0,0,0,56,56,48,258.58305740356445,,,,,,,,,,,,,,,,,,,,,,,,,,,,,,,,,,,,,,,,,,,,,,,,,,,,,,,,,,,,,,,,,,,,,,,,,,,,,,,,,70.0,70.0,133.0,57.0,57.0,133.0,1.0,1.2,-160,11,0,0,191,2,258.56840419769287,258.56844568252563,258.5708165168762,258.58305740356445,258.7332763671875,258.7332763671875,258.7332763671875,258.7332763671875,258.7332763671875,258.7332763671875,258.7332763671875,260.0843315124512,3,1.4827325344085693,None,,,,,,,,,,,,,,,,,,199,3,2025-03-06_12h57.31.221,comp,2024.2.4,60.02229565063087,2025-03-06 12h57.56.367392 -0500,
57,57,0,critical,hdw,20.0,1.0,upper,200.0,125.0,141.0,141.0,125.0,200.0,3,2.292238712310791,None,,,,,0,0,0,0,0,57,57,115,260.0996284484863,,,,,,,,,,,,,,,,,,,,,,,,,,,,,,,,,,,,,,,,,,,,,,,,,,,,,,,,,,,,,,,,,,,,,,,,,,,,,,,,,200.0,125.0,141.0,141.0,125.0,200.0,1.0,1.2,-229,-6,0,12,266,-15,260.0850884914398,260.0851299762726,260.08739709854126,260.0996284484863,260.24999356269836,260.24999356269836,260.24999356269836,260.24999356269836,260.24999356269836,260.24999356269836,260.24999356269836,262.4011399745941,3,2.292238712310791,None,,,,,,,,,,,,,,,,,,199,3,2025-03-06_12h57.31.221,comp,2024.2.4,60.02229565063087,2025-03-06 12h57.56.367392 -0500,
58,58,0,critical,whd,35.0,3.0,lower,57.0,133.0,133.0,57.0,70.0,70.0,1,1.3835902214050293,None,,,,,0,0,0,0,0,58,58,86,262.416455745697,,,,,,,,,,,,,,,,,,,,,,,,,,,,,,,,,,,,,,,,,,,,,,,,,,,,,,,,,,,,,,,,,,,,,,,,,,,,,,,,,57.0,133.0,133.0,57.0,70.0,70.0,3.0,3.1,-191,285,0,-6,160,-258,262.4019331932068,262.40197563171387,262.4041588306427,262.416455745697,262.5664200782776,262.5664200782776,262.5664200782776,262.5664200782776,262.5664200782776,262.5664200782776,262.5664200782776,263.81756019592285,1,1.3835902214050293,None,,,,,,,,,,,,,,,,,,199,3,2025-03-06_12h57.31.221,comp,2024.2.4,60.02229565063087,2025-03-06 12h57.56.367392 -0500,
59,59,0,critical,dwh,20.0,2.1,upper,141.0,141.0,125.0,200.0,200.0,125.0,2,1.534127950668335,None,,,,,0,0,0,0,0,59,59,31,263.83303904533386,,,,,,,,,,,,,,,,,,,,,,,,,,,,,,,,,,,,,,,,,,,,,,,,,,,,,,,,,,,,,,,,,,,,,,,,,,,,,,,,,141.0,141.0,125.0,200.0,200.0,125.0,2.1,2.12,-266,-282,0,-263,258,286,263.81835985183716,263.8184027671814,263.82077646255493,263.83303904533386,263.98329520225525,263.98329520225525,263.98329520225525,263.98329520225525,263.98329520225525,263.98329520225525,263.98329520225525,265.38429021835327,2,1.534127950668335,None,,,,,,,,,,,,,,,,,,199,3,2025-03-06_12h57.31.221,comp,2024.2.4,60.02229565063087,2025-03-06 12h57.56.367392 -0500,
60,60,0,critical,dhw,20.0,3.0,lower,78.0,78.0,133.0,57.0,57.0,133.0,3,2.017119884490967,None,,,,,0,0,0,0,0,60,60,56,265.39958691596985,,,,,,,,,,,,,,,,,,,,,,,,,,,,,,,,,,,,,,,,,,,,,,,,,,,,,,,,,,,,,,,,,,,,,,,,,,,,,,,,,78.0,78.0,133.0,57.0,57.0,133.0,3.0,3.2,-164,-258,0,-8,191,282,265.3850750923157,265.3851170539856,265.3874001502991,265.39958691596985,265.54981565475464,265.54981565475464,265.54981565475464,265.54981565475464,265.54981565475464,265.54981565475464,265.54981565475464,267.43425488471985,3,2.017119884490967,None,,,,,,,,,,,,,,,,,,199,3,2025-03-06_12h57.31.221,comp,2024.2.4,60.02229565063087,2025-03-06 12h57.56.367392 -0500,
61,61,0,filler_square,None,None,None,None,None,None,None,None,None,None,2,3.269451379776001,None,,,,,0,0,0,0,0,61,61,204,267.44960951805115,,,,,,,,,,,,,,,,,,,,,,,,,,,,,,,,,,,,,,,,,,,,,,,,,,,,,,,,,,,,,,,,,,,,,,,,,,,,,,,,,116.84932799474095,84.76692880715201,125.82200394173394,125.82200394173394,108.94092503182796,60.45192232290053,4.0,4.1,-201,-256,0,-6,189,-279,267.43520641326904,267.43524861335754,267.4375834465027,267.44960951805115,267.599871635437,267.599871635437,267.599871635437,267.599871635437,267.599871635437,267.599871635437,267.599871635437,270.73442220687866,2,3.269451379776001,None,,,,,,,,,,,,,,,,,,199,3,2025-03-06_12h57.31.221,comp,2024.2.4,60.02229565063087,2025-03-06 12h57.56.367392 -0500,
62,62,0,filler_random,None,None,None,None,None,None,None,None,None,None,1,1.6581275463104248,None,,,,,0,0,0,0,0,62,62,149,270.7496757507324,,,,,,,,,,,,,,,,,,,,,,,,,,,,,,,,,,,,,,,,,,,,,,,,,,,,,,,,,,,,,,,,,,,,,,,,,,,,,,,,,151.55540985127567,138.60747763606992,119.84339753794026,104.48465998521118,160.85433583777166,109.72362610963152,2.2,2.22,-218,254,0,-261,203,-275,270.7353267669678,270.7353684902191,270.73760414123535,270.7496757507324,270.8999111652374,270.8999111652374,270.8999111652374,270.8999111652374,270.8999111652374,270.8999111652374,270.8999111652374,272.417653799057,1,1.6581275463104248,None,,,,,,,,,,,,,,,,,,199,3,2025-03-06_12h57.31.221,comp,2024.2.4,60.02229565063087,2025-03-06 12h57.56.367392 -0500,
63,63,0,filler_square,None,None,None,None,None,None,None,None,None,None,3,3.221586227416992,None,,,,,0,0,0,0,0,63,63,192,272.4332981109619,,,,,,,,,,,,,,,,,,,,,,,,,,,,,,,,,,,,,,,,,,,,,,,,,,,,,,,,,,,,,,,,,,,,,,,,,,,,,,,,,160.87168115130567,65.07410132352909,161.76280217270948,62.766475801679576,191.4223751619506,191.4223751619506,1.0,1.2,-160,16,0,9,223,14,272.41858649253845,272.418630361557,272.42092084884644,272.4332981109619,272.5832817554474,272.5832817554474,272.5832817554474,272.5832817554474,272.5832817554474,272.5832817554474,272.5832817554474,275.6677281856537,3,3.221586227416992,None,,,,,,,,,,,,,,,,,,199,3,2025-03-06_12h57.31.221,comp,2024.2.4,60.02229565063087,2025-03-06 12h57.56.367392 -0500,
64,64,0,filler_square,None,None,None,None,None,None,None,None,None,None,1,2.4769413471221924,None,,,,,0,0,0,0,0,64,64,207,275.6830096244812,,,,,,,,,,,,,,,,,,,,,,,,,,,,,,,,,,,,,,,,,,,,,,,,,,,,,,,,,,,,,,,,,,,,,,,,,,,,,,,,,104.58969196202165,104.58969196202165,102.68426626560584,73.22212887008092,79.23565414951597,81.96104272083063,4.0,4.2,-185,0,0,-288,174,-13,275.66869592666626,275.66873812675476,275.6711096763611,275.6830096244812,275.8331320285797,275.8331320285797,275.8331320285797,275.8331320285797,275.8331320285797,275.8331320285797,275.8331320285797,278.16747212409973,1,2.4769413471221924,None,,,,,,,,,,,,,,,,,,199,3,2025-03-06_12h57.31.221,comp,2024.2.4,60.02229565063087,2025-03-06 12h57.56.367392 -0500,
65,65,0,critical,wdh,35.0,1.0,lower,57.0,133.0,70.0,70.0,133.0,57.0,1,2.0982725620269775,None,,,,,0,0,0,0,0,65,65,72,278.18334579467773,,,,,,,,,,,,,,,,,,,,,,,,,,,,,,,,,,,,,,,,,,,,,,,,,,,,,,,,,,,,,,,,,,,,,,,,,,,,,,,,,57.0,133.0,70.0,70.0,133.0,57.0,1.0,1.3,282,-287,480,-250,640,-282,278.16822814941406,278.1682677268982,278.1705422401428,278.18334579467773,278.3329849243164,278.3329849243164,278.3329849243164,278.3329849243164,278.3329849243164,278.3329849243164,278.3329849243164,280.2841684818268,1,2.0982725620269775,None,,,,,,,,,,,,,,,,,,199,3,2025-03-06_12h57.31.221,comp,2024.2.4,60.02229565063087,2025-03-06 12h57.56.367392 -0500,
66,66,0,critical,hwd,20.0,2.1,lower,133.0,57.0,57.0,133.0,78.0,78.0,2,1.316728115081787,None,,,,,0,0,0,0,0,66,66,18,280.2997136116028,,,,,,,,,,,,,,,,,,,,,,,,,,,,,,,,,,,,,,,,,,,,,,,,,,,,,,,,,,,,,,,,,,,,,,,,,,,,,,,,,133.0,57.0,57.0,133.0,78.0,78.0,2.1,2.11,-191,281,0,257,202,-263,280.28494906425476,280.2849907875061,280.2872290611267,280.2997136116028,280.4498019218445,280.4498019218445,280.4498019218445,280.4498019218445,280.4498019218445,280.4498019218445,280.4498019218445,281.6176075935364,2,1.316728115081787,None,,,,,,,,,,,,,,,,,,199,3,2025-03-06_12h57.31.221,comp,2024.2.4,60.02229565063087,2025-03-06 12h57.56.367392 -0500,
67,67,0,filler_random,None,None,None,None,None,None,None,None,None,None,1,1.694654941558838,None,,,,,0,0,0,0,0,67,67,132,281.63305139541626,,,,,,,,,,,,,,,,,,,,,,,,,,,,,,,,,,,,,,,,,,,,,,,,,,,,,,,,,,,,,,,,,,,,,,,,,,,,,,,,,196.93907796287917,175.0405468515255,58.12295908411822,80.93944485397563,132.34449525955333,152.44136966674745,2.1,2.12,-224,-250,0,-255,213,254,281.6185426712036,281.61858558654785,281.62091636657715,281.63305139541626,281.78315806388855,281.78315806388855,281.78315806388855,281.78315806388855,281.78315806388855,281.78315806388855,281.78315806388855,283.334166765213,1,1.694654941558838,None,,,,,,,,,,,,,,,,,,199,3,2025-03-06_12h57.31.221,comp,2024.2.4,60.02229565063087,2025-03-06 12h57.56.367392 -0500,
68,68,0,filler_square,None,None,None,None,None,None,None,None,None,None,3,1.7854397296905518,None,,,,,0,0,0,0,0,68,68,174,283.3496153354645,,,,,,,,,,,,,,,,,,,,,,,,,,,,,,,,,,,,,,,,,,,,,,,,,,,,,,,,,,,,,,,,,,,,,,,,,,,,,,,,,99.96013227860024,142.09446534297024,100.39856916061935,86.57576929957249,145.72562634035097,145.72562634035097,4.0,4.1,-210,-280,0,18,212,-284,283.3350877761841,283.33513259887695,283.33739399909973,283.3496153354645,283.49971985816956,283.49971985816956,283.49971985816956,283.49971985816956,283.49971985816956,283.49971985816956,283.49971985816956,285.1508197784424,3,1.7854397296905518,None,,,,,,,,,,,,,,,,,,199,3,2025-03-06_12h57.31.221,comp,2024.2.4,60.02229565063087,2025-03-06 12h57.56.367392 -0500,
69,69,0,critical,hwd,20.0,2.1,upper,200.0,125.0,125.0,200.0,141.0,141.0,2,2.499488115310669,None,,,,,0,0,0,0,0,69,69,19,285.1661159992218,,,,,,,,,,,,,,,,,,,,,,,,,,,,,,,,,,,,,,,,,,,,,,,,,,,,,,,,,,,,,,,,,,,,,,,,,,,,,,,,,200.0,125.0,125.0,200.0,141.0,141.0,2.1,2.12,-258,-281,0,-286,266,255,285.15159940719604,285.1516399383545,285.1540505886078,285.1661159992218,285.31656670570374,285.31656670570374,285.31656670570374,285.31656670570374,285.31656670570374,285.31656670570374,285.31656670570374,287.6676948070526,2,2.499488115310669,None,,,,,,,,,,,,,,,,,,199,3,2025-03-06_12h57.31.221,comp,2024.2.4,60.02229565063087,2025-03-06 12h57.56.367392 -0500,
70,70,0,critical,wdh,35.0,4.0,lower,57.0,133.0,70.0,70.0,133.0,57.0,1,2.998047351837158,None,,,,,0,0,0,0,0,70,70,76,287.68300580978394,,,,,,,,,,,,,,,,,,,,,,,,,,,,,,,,,,,,,,,,,,,,,,,,,,,,,,,,,,,,,,,,,,,,,,,,,,,,,,,,,57.0,133.0,70.0,70.0,133.0,57.0,4.0,4.1,-198,-278,0,-7,160,-286,287.668484210968,287.6685242652893,287.67077684402466,287.68300580978394,287.83291459083557,287.83291459083557,287.83291459083557,287.83291459083557,287.83291459083557,287.83291459083557,287.83291459083557,290.68403816223145,1,2.998047351837158,None,,,,,,,,,,,,,,,,,,199,3,2025-03-06_12h57.31.221,comp,2024.2.4,60.02229565063087,2025-03-06 12h57.56.367392 -0500,
71,71,0,filler_random,None,None,None,None,None,None,None,None,None,None,2,9.116757154464722,None,,,,,0,0,0,0,0,71,71,148,290.6997768878937,,,,,,,,,,,,,,,,,,,,,,,,,,,,,,,,,,,,,,,,,,,,,,,,,,,,,,,,,,,,,,,,,,,,,,,,,,,,,,,,,127.64052693776135,96.65282405819883,85.67848805189278,134.65776273675434,147.0881064211179,103.7686148821422,2.1,2.11,-212,282,0,265,215,-253,290.68493008613586,290.68497133255005,290.6879770755768,290.6997768878937,290.849960565567,290.849960565567,290.849960565567,290.849960565567,290.849960565567,290.849960565567,290.849960565567,299.83392691612244,2,9.116757154464722,None,,,,,,,,,,,,,,,,,,199,3,2025-03-06_12h57.31.221,comp,2024.2.4,60.02229565063087,2025-03-06 12h57.56.367392 -0500,
72,72,0,filler_random,None,None,None,None,None,None,None,None,None,None,3,3.0377843379974365,None,,,,,0,0,0,0,0,72,72,157,299.8493604660034,,,,,,,,,,,,,,,,,,,,,,,,,,,,,,,,,,,,,,,,,,,,,,,,,,,,,,,,,,,,,,,,,,,,,,,,,,,,,,,,,77.9786084260058,170.46616028135898,149.23619043111628,87.91949544800332,142.93068351595042,177.95899454065335,3.0,3.2,-225,-256,0,-8,229,270,299.8348412513733,299.83488416671753,299.83685779571533,299.8493604660034,299.99959349632263,299.99959349632263,299.99959349632263,299.99959349632263,299.99959349632263,299.99959349632263,299.99959349632263,302.90090775489807,3,3.0377843379974365,None,,,,,,,,,,,,,,,,,,199,3,2025-03-06_12h57.31.221,comp,2024.2.4,60.02229565063087,2025-03-06 12h57.56.367392 -0500,
73,73,0,filler_random,None,None,None,None,None,None,None,None,None,None,1,3.3077902793884277,None,,,,,0,0,0,0,0,73,73,134,302.9161717891693,,,,,,,,,,,,,,,,,,,,,,,,,,,,,,,,,,,,,,,,,,,,,,,,,,,,,,,,,,,,,,,,,,,,,,,,,,,,,,,,,93.04648828995187,198.23030810867138,66.68008398642506,146.81377476977508,159.24250257977064,119.18454202913225,1.0,1.1,-749,276,-480,272,-251,288,302.90179562568665,302.9018371105194,302.90425729751587,302.9161717891693,303.06623363494873,303.06623363494873,303.06623363494873,303.06623363494873,303.06623363494873,303.06623363494873,303.06623363494873,306.2340016365051,1,3.3077902793884277,None,,,,,,,,,,,,,,,,,,199,3,2025-03-06_12h57.31.221,comp,2024.2.4,60.02229565063087,2025-03-06 12h57.56.367392 -0500,
74,74,0,critical,hdw,20.0,4.0,upper,200.0,125.0,141.0,141.0,125.0,200.0,3,3.7340846061706543,None,,,,,0,0,0,0,0,74,74,119,306.2494926452637,,,,,,,,,,,,,,,,,,,,,,,,,,,,,,,,,,,,,,,,,,,,,,,,,,,,,,,,,,,,,,,,,,,,,,,,,,,,,,,,,200.0,125.0,141.0,141.0,125.0,200.0,4.0,4.1,-229,-266,0,-2,266,-268,306.2347996234894,306.2348418235779,306.23739194869995,306.2494926452637,306.39958691596985,306.39958691596985,306.39958691596985,306.39958691596985,306.39958691596985,306.39958691596985,306.39958691596985,310.00080847740173,3,3.7340846061706543,None,,,,,,,,,,,,,,,,,,199,3,2025-03-06_12h57.31.221,comp,2024.2.4,60.02229565063087,2025-03-06 12h57.56.367392 -0500,
75,75,0,critical,hwd,35.0,3.0,upper,200.0,125.0,125.0,200.0,127.0,127.0,2,3.3754324913024902,None,,,,,0,0,0,0,0,75,75,99,310.0160744190216,,,,,,,,,,,,,,,,,,,,,,,,,,,,,,,,,,,,,,,,,,,,,,,,,,,,,,,,,,,,,,,,,,,,,,,,,,,,,,,,,200.0,125.0,125.0,200.0,127.0,127.0,3.0,3.2,-258,-256,0,13,260,289,310.00161957740784,310.0016610622406,310.0040533542633,310.0160744190216,310.1662971973419,310.1662971973419,310.1662971973419,310.1662971973419,310.1662971973419,310.1662971973419,310.1662971973419,313.4007122516632,2,3.3754324913024902,None,,,,,,,,,,,,,,,,,,199,3,2025-03-06_12h57.31.221,comp,2024.2.4,60.02229565063087,2025-03-06 12h57.56.367392 -0500,
76,76,0,filler_random,None,None,None,None,None,None,None,None,None,None,1,4.518512964248657,None,,,,,0,0,0,0,0,76,76,168,313.4163076877594,,,,,,,,,,,,,,,,,,,,,,,,,,,,,,,,,,,,,,,,,,,,,,,,,,,,,,,,,,,,,,,,,,,,,,,,,,,,,,,,,190.7916799693992,134.3846625261886,77.16232525258928,179.91835838058086,107.88275454950178,148.82862864293799,1.0,1.1,-733,267,-480,264,-220,258,313.4016809463501,313.40172290802,313.403751373291,313.4163076877594,313.56628608703613,313.56628608703613,313.56628608703613,313.56628608703613,313.56628608703613,313.56628608703613,313.56628608703613,317.9508821964264,1,4.518512964248657,None,,,,,,,,,,,,,,,,,,199,3,2025-03-06_12h57.31.221,comp,2024.2.4,60.02229565063087,2025-03-06 12h57.56.367392 -0500,
77,77,0,critical,wdh,35.0,3.0,lower,57.0,133.0,70.0,70.0,133.0,57.0,1,2.2885546684265137,None,,,,,0,0,0,0,0,77,77,74,317.9659879207611,,,,,,,,,,,,,,,,,,,,,,,,,,,,,,,,,,,,,,,,,,,,,,,,,,,,,,,,,,,,,,,,,,,,,,,,,,,,,,,,,57.0,133.0,70.0,70.0,133.0,57.0,3.0,3.2,-198,-275,0,-3,160,270,317.9519510269165,317.9519913196564,317.9544003009796,317.9659879207611,318.1162545681,318.1162545681,318.1162545681,318.1162545681,318.1162545681,318.1162545681,318.1162545681,320.2672243118286,1,2.2885546684265137,None,,,,,,,,,,,,,,,,,,199,3,2025-03-06_12h57.31.221,comp,2024.2.4,60.02229565063087,2025-03-06 12h57.56.367392 -0500,
78,78,0,critical,dwh,35.0,4.0,upper,127.0,127.0,125.0,200.0,200.0,125.0,2,1.6610524654388428,None,,,,,0,0,0,0,0,78,78,65,320.2825186252594,,,,,,,,,,,,,,,,,,,,,,,,,,,,,,,,,,,,,,,,,,,,,,,,,,,,,,,,,,,,,,,,,,,,,,,,,,,,,,,,,127.0,127.0,125.0,200.0,200.0,125.0,4.0,4.1,-260,-274,0,12,258,-283,320.26798033714294,320.2680220603943,320.270170211792,320.2825186252594,320.43317198753357,320.43317198753357,320.43317198753357,320.43317198753357,320.43317198753357,320.43317198753357,320.43317198753357,321.95084977149963,2,1.6610524654388428,None,,,,,,,,,,,,,,,,,,199,3,2025-03-06_12h57.31.221,comp,2024.2.4,60.02229565063087,2025-03-06 12h57.56.367392 -0500,
79,79,0,critical,wdh,20.0,3.0,upper,125.0,200.0,141.0,141.0,200.0,125.0,1,4.817315340042114,None,,,,,0,0,0,0,0,79,79,81,321.9661965370178,,,,,,,,,,,,,,,,,,,,,,,,,,,,,,,,,,,,,,,,,,,,,,,,,,,,,,,,,,,,,,,,,,,,,,,,,,,,,,,,,125.0,200.0,141.0,141.0,200.0,125.0,3.0,3.2,-266,-262,0,0,229,276,321.9516317844391,321.9516749382019,321.95383882522583,321.9661965370178,322.11644077301025,322.11644077301025,322.11644077301025,322.11644077301025,322.11644077301025,322.11644077301025,322.11644077301025,326.800683259964,1,4.817315340042114,None,,,,,,,,,,,,,,,,,,199,3,2025-03-06_12h57.31.221,comp,2024.2.4,60.02229565063087,2025-03-06 12h57.56.367392 -0500,
80,80,0,filler_random,None,None,None,None,None,None,None,None,None,None,2,5.575467348098755,None,,,,,0,0,0,0,0,80,80,154,326.8159866333008,,,,,,,,,,,,,,,,,,,,,,,,,,,,,,,,,,,,,,,,,,,,,,,,,,,,,,,,,,,,,,,,,,,,,,,,,,,,,,,,,114.12631476492427,165.69015973229642,121.89941022337017,154.3535568943612,145.67633084357237,98.26298043006676,3.0,3.2,-256,-259,0,19,222,252,326.8016438484192,326.8016879558563,326.80401825904846,326.8159866333008,326.9662022590637,326.9662022590637,326.9662022590637,326.9662022590637,326.9662022590637,326.9662022590637,326.9662022590637,332.40050315856934,2,5.575467348098755,None,,,,,,,,,,,,,,,,,,199,3,2025-03-06_12h57.31.221,comp,2024.2.4,60.02229565063087,2025-03-06 12h57.56.367392 -0500,
81,81,0,critical,dwh,20.0,2.1,lower,78.0,78.0,57.0,133.0,133.0,57.0,2,1.0865252017974854,None,,,,,0,0,0,0,0,81,81,30,332.4161157608032,,,,,,,,,,,,,,,,,,,,,,,,,,,,,,,,,,,,,,,,,,,,,,,,,,,,,,,,,,,,,,,,,,,,,,,,,,,,,,,,,78.0,78.0,57.0,133.0,133.0,57.0,2.1,2.12,-202,-263,0,-280,191,256,332.40129566192627,332.4013373851776,332.40336894989014,332.4161157608032,332.5658459663391,332.5658459663391,332.5658459663391,332.5658459663391,332.5658459663391,332.5658459663391,332.5658459663391,333.5169942378998,2,1.0865252017974854,None,,,,,,,,,,,,,,,,,,199,3,2025-03-06_12h57.31.221,comp,2024.2.4,60.02229565063087,2025-03-06 12h57.56.367392 -0500,
82,82,0,critical,whd,20.0,1.0,upper,125.0,200.0,200.0,125.0,141.0,141.0,1,4.4917144775390625,None,,,,,0,0,0,0,0,82,82,91,333.53245401382446,,,,,,,,,,,,,,,,,,,,,,,,,,,,,,,,,,,,,,,,,,,,,,,,,,,,,,,,,,,,,,,,,,,,,,,,,,,,,,,,,125.0,200.0,200.0,125.0,141.0,141.0,1.0,1.1,-738,261,-480,271,-251,278,333.5178029537201,333.5178451538086,333.52036690711975,333.53245401382446,333.682822227478,333.682822227478,333.682822227478,333.682822227478,333.682822227478,333.682822227478,333.682822227478,338.03397274017334,1,4.4917144775390625,None,,,,,,,,,,,,,,,,,,199,3,2025-03-06_12h57.31.221,comp,2024.2.4,60.02229565063087,2025-03-06 12h57.56.367392 -0500,
83,83,0,critical,whd,35.0,4.0,lower,57.0,133.0,133.0,57.0,70.0,70.0,1,1.8047749996185303,None,,,,,0,0,0,0,0,83,83,88,338.04967403411865,,,,,,,,,,,,,,,,,,,,,,,,,,,,,,,,,,,,,,,,,,,,,,,,,,,,,,,,,,,,,,,,,,,,,,,,,,,,,,,,,57.0,133.0,133.0,57.0,70.0,70.0,4.0,4.2,-191,0,0,-275,160,-8,338.03473258018494,338.0347731113434,338.03712821006775,338.04967403411865,338.1993215084076,338.1993215084076,338.1993215084076,338.1993215084076,338.1993215084076,338.1993215084076,338.1993215084076,339.8672122955322,1,1.8047749996185303,None,,,,,,,,,,,,,,,,,,199,3,2025-03-06_12h57.31.221,comp,2024.2.4,60.02229565063087,2025-03-06 12h57.56.367392 -0500,
84,84,0,critical,hdw,35.0,4.0,lower,133.0,57.0,70.0,70.0,57.0,133.0,3,1.1502549648284912,None,,,,,0,0,0,0,0,84,84,112,339.88246989250183,,,,,,,,,,,,,,,,,,,,,,,,,,,,,,,,,,,,,,,,,,,,,,,,,,,,,,,,,,,,,,,,,,,,,,,,,,,,,,,,,133.0,57.0,70.0,70.0,57.0,133.0,4.0,4.2,-160,5,0,-286,198,17,339.86798787117004,339.8680281639099,339.86998534202576,339.88246989250183,340.0325274467468,340.0325274467468,340.0325274467468,340.0325274467468,340.0325274467468,340.0325274467468,340.0325274467468,341.0503270626068,3,1.1502549648284912,None,,,,,,,,,,,,,,,,,,199,3,2025-03-06_12h57.31.221,comp,2024.2.4,60.02229565063087,2025-03-06 12h57.56.367392 -0500,
85,85,0,catch,None,None,None,None,None,None,None,None,None,None,1,1.3416788578033447,None,,,,,0,0,0,0,0,85,85,124,341.0656898021698,,,,,,,,,,,,,,,,,,,,,,,,,,,,,,,,,,,,,,,,,,,,,,,,,,,,,,,,,,,,,,,,,,,,,,,,,,,,,,,,,164,161,103,87,92,98,2.1,2.12,-220,-278,0,-269,188,274,341.05135798454285,341.05139994621277,341.0537106990814,341.0656898021698,341.2160246372223,341.2160246372223,341.2160246372223,341.2160246372223,341.2160246372223,341.2160246372223,341.2160246372223,342.4170653820038,1,1.3416788578033447,None,,,,,,,,,,,,,,,,,,199,3,2025-03-06_12h57.31.221,comp,2024.2.4,60.02229565063087,2025-03-06 12h57.56.367392 -0500,
86,86,0,critical,dhw,35.0,4.0,lower,70.0,70.0,133.0,57.0,57.0,133.0,3,1.1501359939575195,None,,,,,0,0,0,0,0,86,86,52,342.4326467514038,,,,,,,,,,,,,,,,,,,,,,,,,,,,,,,,,,,,,,,,,,,,,,,,,,,,,,,,,,,,,,,,,,,,,,,,,,,,,,,,,70.0,70.0,133.0,57.0,57.0,133.0,4.0,4.1,-160,-284,0,4,191,-260,342.4178509712219,342.4178924560547,342.42004585266113,342.4326467514038,342.5825791358948,342.5825791358948,342.5825791358948,342.5825791358948,342.5825791358948,342.5825791358948,342.5825791358948,343.5840187072754,3,1.1501359939575195,None,,,,,,,,,,,,,,,,,,199,3,2025-03-06_12h57.31.221,comp,2024.2.4,60.02229565063087,2025-03-06 12h57.56.367392 -0500,
87,87,0,critical,hdw,35.0,4.0,upper,200.0,125.0,127.0,127.0,125.0,200.0,3,2.3191347122192383,None,,,,,0,0,0,0,0,87,87,113,343.5993666648865,,,,,,,,,,,,,,,,,,,,,,,,,,,,,,,,,,,,,,,,,,,,,,,,,,,,,,,,,,,,,,,,,,,,,,,,,,,,,,,,,200.0,125.0,127.0,127.0,125.0,200.0,4.0,4.2,-222,7,0,-261,260,-17,343.5848743915558,343.5849177837372,343.5870614051819,343.5993666648865,343.74943256378174,343.74943256378174,343.74943256378174,343.74943256378174,343.74943256378174,343.74943256378174,343.74943256378174,345.93385195732117,3,2.3191347122192383,None,,,,,,,,,,,,,,,,,,199,3,2025-03-06_12h57.31.221,comp,2024.2.4,60.02229565063087,2025-03-06 12h57.56.367392 -0500,
88,88,0,critical,whd,35.0,1.0,upper,125.0,200.0,200.0,125.0,127.0,127.0,1,1.3942036628723145,None,,,,,0,0,0,0,0,88,88,85,345.94913625717163,,,,,,,,,,,,,,,,,,,,,,,,,,,,,,,,,,,,,,,,,,,,,,,,,,,,,,,,,,,,,,,,,,,,,,,,,,,,,,,,,125.0,200.0,200.0,125.0,127.0,127.0,1.0,1.2,-258,17,0,-15,222,-11,345.9346444606781,345.934686422348,345.9370319843292,345.94913625717163,346.09937834739685,346.09937834739685,346.09937834739685,346.09937834739685,346.09937834739685,346.09937834739685,346.09937834739685,347.3506820201874,1,1.3942036628723145,None,,,,,,,,,,,,,,,,,,199,3,2025-03-06_12h57.31.221,comp,2024.2.4,60.02229565063087,2025-03-06 12h57.56.367392 -0500,
89,89,0,filler_square,None,None,None,None,None,None,None,None,None,None,1,12.616790056228638,None,,,,,0,0,0,0,0,89,89,170,347.366042137146,,,,,,,,,,,,,,,,,,,,,,,,,,,,,,,,,,,,,,,,,,,,,,,,,,,,,,,,,,,,,,,,,,,,,,,,,,,,,,,,,121.67358387520001,121.67358387520001,63.526295599825616,69.6407880686735,112.78649281168241,92.20167056357042,2.2,2.22,-192,273,0,-262,177,-250,347.3516457080841,347.3516888618469,347.353728055954,347.366042137146,347.5158567428589,347.5158567428589,347.5158567428589,347.5158567428589,347.5158567428589,347.5158567428589,347.5158567428589,360.00023555755615,1,12.616790056228638,None,,,,,,,,,,,,,,,,,,199,3,2025-03-06_12h57.31.221,comp,2024.2.4,60.02229565063087,2025-03-06 12h57.56.367392 -0500,
90,90,0,critical,whd,35.0,2.1,lower,57.0,133.0,133.0,57.0,70.0,70.0,1,8.265558242797852,None,,,,,0,0,0,0,0,90,90,36,360.015442609787,,,,,,,,,,,,,,,,,,,,,,,,,,,,,,,,,,,,,,,,,,,,,,,,,,,,,,,,,,,,,,,,,,,,,,,,,,,,,,,,,57.0,133.0,133.0,57.0,70.0,70.0,2.1,2.12,-191,-282,0,-281,160,274,360.0010070800781,360.00104904174805,360.00325536727905,360.015442609787,360.1657524108887,360.1657524108887,360.1657524108887,360.1657524108887,360.1657524108887,360.1657524108887,360.1657524108887,368.2837998867035,1,8.265558242797852,None,,,,,,,,,,,,,,,,,,199,3,2025-03-06_12h57.31.221,comp,2024.2.4,60.02229565063087,2025-03-06 12h57.56.367392 -0500,
91,91,0,catch,None,None,None,None,None,None,None,None,None,None,2,14.507906913757324,None,,,,,0,0,0,0,0,91,91,125,368.29928755760193,,,,,,,,,,,,,,,,,,,,,,,,,,,,,,,,,,,,,,,,,,,,,,,,,,,,,,,,,,,,,,,,,,,,,,,,,,,,,,,,,103,87,195,130,112,78,3.0,3.1,-204,287,0,-15,200,-253,368.28479623794556,368.2848370075226,368.28685188293457,368.29928755760193,368.4492702484131,368.4492702484131,368.4492702484131,368.4492702484131,368.4492702484131,368.4492702484131,368.4492702484131,382.8167712688446,2,14.507906913757324,None,,,,,,,,,,,,,,,,,,199,3,2025-03-06_12h57.31.221,comp,2024.2.4,60.02229565063087,2025-03-06 12h57.56.367392 -0500,
92,92,0,critical,wdh,20.0,2.1,upper,125.0,200.0,141.0,141.0,200.0,125.0,1,3.983583450317383,None,,,,,0,0,0,0,0,92,92,35,382.83236861228943,,,,,,,,,,,,,,,,,,,,,,,,,,,,,,,,,,,,,,,,,,,,,,,,,,,,,,,,,,,,,,,,,,,,,,,,,,,,,,,,,125.0,200.0,141.0,141.0,200.0,125.0,2.1,2.11,-266,279,0,250,229,-279,382.8175525665283,382.8175938129425,382.8199362754822,382.83236861228943,382.98243165016174,382.98243165016174,382.98243165016174,382.98243165016174,382.98243165016174,382.98243165016174,382.98243165016174,386.8335428237915,1,3.983583450317383,None,,,,,,,,,,,,,,,,,,199,3,2025-03-06_12h57.31.221,comp,2024.2.4,60.02229565063087,2025-03-06 12h57.56.367392 -0500,
93,93,0,critical,dhw,20.0,2.1,upper,141.0,141.0,200.0,125.0,125.0,200.0,3,1.301496982574463,None,,,,,0,0,0,0,0,93,93,27,386.848748922348,,,,,,,,,,,,,,,,,,,,,,,,,,,,,,,,,,,,,,,,,,,,,,,,,,,,,,,,,,,,,,,,,,,,,,,,,,,,,,,,,141.0,141.0,200.0,125.0,125.0,200.0,2.1,2.12,-229,-278,0,-273,258,268,386.834347486496,386.8343894481659,386.83675169944763,386.848748922348,386.9991281032562,386.9991281032562,386.9991281032562,386.9991281032562,386.9991281032562,386.9991281032562,386.9991281032562,388.166939496994,3,1.301496982574463,None,,,,,,,,,,,,,,,,,,199,3,2025-03-06_12h57.31.221,comp,2024.2.4,60.02229565063087,2025-03-06 12h57.56.367392 -0500,
94,94,0,critical,hdw,20.0,2.1,lower,133.0,57.0,78.0,78.0,57.0,133.0,3,2.5201058387756348,None,,,,,0,0,0,0,0,94,94,46,388.18220043182373,,,,,,,,,,,,,,,,,,,,,,,,,,,,,,,,,,,,,,,,,,,,,,,,,,,,,,,,,,,,,,,,,,,,,,,,,,,,,,,,,133.0,57.0,78.0,78.0,57.0,133.0,2.1,2.12,-164,-257,0,-278,202,266,388.1677429676056,388.16778588294983,388.1698524951935,388.18220043182373,388.33221673965454,388.33221673965454,388.33221673965454,388.33221673965454,388.33221673965454,388.33221673965454,388.33221673965454,390.7167315483093,3,2.5201058387756348,None,,,,,,,,,,,,,,,,,,199,3,2025-03-06_12h57.31.221,comp,2024.2.4,60.02229565063087,2025-03-06 12h57.56.367392 -0500,
95,95,0,critical,wdh,35.0,3.0,upper,125.0,200.0,127.0,127.0,200.0,125.0,1,1.3382117748260498,None,,,,,0,0,0,0,0,95,95,75,390.7321083545685,,,,,,,,,,,,,,,,,,,,,,,,,,,,,,,,,,,,,,,,,,,,,,,,,,,,,,,,,,,,,,,,,,,,,,,,,,,,,,,,,125.0,200.0,127.0,127.0,200.0,125.0,3.0,3.2,-260,-264,0,2,222,263,390.71749901771545,390.71753907203674,390.719922542572,390.7321083545685,390.8824553489685,390.8824553489685,390.8824553489685,390.8824553489685,390.8824553489685,390.8824553489685,390.8824553489685,392.0836343765259,1,1.3382117748260498,None,,,,,,,,,,,,,,,,,,199,3,2025-03-06_12h57.31.221,comp,2024.2.4,60.02229565063087,2025-03-06 12h57.56.367392 -0500,
96,96,0,filler_random,None,None,None,None,None,None,None,None,None,None,2,6.851431608200073,None,,,,,0,0,0,0,0,96,96,161,392.098739862442,,,,,,,,,,,,,,,,,,,,,,,,,,,,,,,,,,,,,,,,,,,,,,,,,,,,,,,,,,,,,,,,,,,,,,,,,,,,,,,,,117.21984922772526,139.41647155423476,183.51553609952475,114.38258741595345,67.33145909698439,91.57512606152723,2.2,2.21,-223,-288,0,289,199,270,392.08452582359314,392.0845682621002,392.0868446826935,392.098739862442,392.24898767471313,392.24898767471313,392.24898767471313,392.24898767471313,392.24898767471313,392.24898767471313,392.24898767471313,398.9667387008667,2,6.851431608200073,None,,,,,,,,,,,,,,,,,,199,3,2025-03-06_12h57.31.221,comp,2024.2.4,60.02229565063087,2025-03-06 12h57.56.367392 -0500,
97,97,0,critical,hwd,35.0,2.1,upper,200.0,125.0,125.0,200.0,127.0,127.0,2,1.9448633193969727,None,,,,,0,0,0,0,0,97,97,17,398.9820222854614,,,,,,,,,,,,,,,,,,,,,,,,,,,,,,,,,,,,,,,,,,,,,,,,,,,,,,,,,,,,,,,,,,,,,,,,,,,,,,,,,200.0,125.0,125.0,200.0,127.0,127.0,2.1,2.12,-258,-262,0,-265,260,282,398.9675316810608,398.9675738811493,398.9699273109436,398.9820222854614,399.13246178627014,399.13246178627014,399.13246178627014,399.13246178627014,399.13246178627014,399.13246178627014,399.13246178627014,400.93341636657715,2,1.9448633193969727,None,,,,,,,,,,,,,,,,,,199,3,2025-03-06_12h57.31.221,comp,2024.2.4,60.02229565063087,2025-03-06 12h57.56.367392 -0500,
98,98,0,filler_random,None,None,None,None,None,None,None,None,None,None,3,1.8996469974517822,None,,,,,0,0,0,0,0,98,98,151,400.9489448070526,,,,,,,,,,,,,,,,,,,,,,,,,,,,,,,,,,,,,,,,,,,,,,,,,,,,,,,,,,,,,,,,,,,,,,,,,,,,,,,,,79.16915899838546,159.375390905526,104.30292816039918,150.8879014635741,196.80479822111823,171.92550896608185,4.0,4.1,-251,-254,0,14,257,-264,400.93431186676025,400.93435406684875,400.93666076660156,400.9489448070526,401.0989422798157,401.0989422798157,401.0989422798157,401.0989422798157,401.0989422798157,401.0989422798157,401.0989422798157,402.85027289390564,3,1.8996469974517822,None,,,,,,,,,,,,,,,,,,199,3,2025-03-06_12h57.31.221,comp,2024.2.4,60.02229565063087,2025-03-06 12h57.56.367392 -0500,
99,99,0,critical,dwh,35.0,2.1,upper,127.0,127.0,125.0,200.0,200.0,125.0,2,2.125250816345215,None,,,,,0,0,0,0,0,99,99,29,402.8656380176544,,,,,,,,,,,,,,,,,,,,,,,,,,,,,,,,,,,,,,,,,,,,,,,,,,,,,,,,,,,,,,,,,,,,,,,,,,,,,,,,,127.0,127.0,125.0,200.0,200.0,125.0,2.1,2.11,-260,264,0,269,258,-262,402.8510534763336,402.8510937690735,402.8531084060669,402.8656380176544,403.0156786441803,403.0156786441803,403.0156786441803,403.0156786441803,403.0156786441803,403.0156786441803,403.0156786441803,405.0000970363617,2,2.125250816345215,None,,,,,,,,,,,,,,,,,,199,3,2025-03-06_12h57.31.221,comp,2024.2.4,60.02229565063087,2025-03-06 12h57.56.367392 -0500,
100,100,0,filler_square,None,None,None,None,None,None,None,None,None,None,1,2.5591959953308105,None,,,,,0,0,0,0,0,100,100,200,405.0156583786011,,,,,,,,,,,,,,,,,,,,,,,,,,,,,,,,,,,,,,,,,,,,,,,,,,,,,,,,,,,,,,,,,,,,,,,,,,,,,,,,,78.35020695325701,78.35020695325701,73.05074159293736,63.60001631479378,76.39946338741066,72.52716394143287,1.0,1.2,-167,4,0,7,164,-18,405.00117206573486,405.0012137889862,405.00320529937744,405.0156583786011,405.1653892993927,405.1653892993927,405.1653892993927,405.1653892993927,405.1653892993927,405.1653892993927,405.1653892993927,407.58334517478943,1,2.5591959953308105,None,,,,,,,,,,,,,,,,,,199,3,2025-03-06_12h57.31.221,comp,2024.2.4,60.02229565063087,2025-03-06 12h57.56.367392 -0500,
101,101,0,filler_square,None,None,None,None,None,None,None,None,None,None,2,2.0240213871002197,None,,,,,0,0,0,0,0,101,101,201,407.5990164279938,,,,,,,,,,,,,,,,,,,,,,,,,,,,,,,,,,,,,,,,,,,,,,,,,,,,,,,,,,,,,,,,,,,,,,,,,,,,,,,,,98.70519574352011,130.3533312387212,138.61804364248286,138.61804364248286,110.18265736004923,113.0221510175442,2.2,2.22,-230,262,0,-258,222,-267,407.58432269096375,407.5843667984009,407.5866837501526,407.5990164279938,407.748815536499,407.748815536499,407.748815536499,407.748815536499,407.748815536499,407.748815536499,407.748815536499,409.6332404613495,2,2.0240213871002197,None,,,,,,,,,,,,,,,,,,199,3,2025-03-06_12h57.31.221,comp,2024.2.4,60.02229565063087,2025-03-06 12h57.56.367392 -0500,
102,102,0,filler_square,None,None,None,None,None,None,None,None,None,None,3,1.2618050575256348,None,,,,,0,0,0,0,0,102,102,197,409.6489405632019,,,,,,,,,,,,,,,,,,,,,,,,,,,,,,,,,,,,,,,,,,,,,,,,,,,,,,,,,,,,,,,,,,,,,,,,,,,,,,,,,185.2168632662136,67.97726596378526,159.2063237318667,68.4479782846509,185.51183442476378,185.51183442476378,4.0,4.1,-164,-251,0,-11,223,-279,409.6341757774353,409.63421869277954,409.63648748397827,409.6489405632019,409.7989819049835,409.7989819049835,409.7989819049835,409.7989819049835,409.7989819049835,409.7989819049835,409.7989819049835,410.91668152809143,3,1.2618050575256348,None,,,,,,,,,,,,,,,,,,199,3,2025-03-06_12h57.31.221,comp,2024.2.4,60.02229565063087,2025-03-06 12h57.56.367392 -0500,
103,103,0,filler_square,None,None,None,None,None,None,None,None,None,None,3,0.9377965927124023,None,,,,,0,0,0,0,0,103,103,179,410.93226408958435,,,,,,,,,,,,,,,,,,,,,,,,,,,,,,,,,,,,,,,,,,,,,,,,,,,,,,,,,,,,,,,,,,,,,,,,,,,,,,,,,103.46950221945417,91.62354851465861,78.5764545483909,89.86344758702201,176.39359919276458,176.39359919276458,4.0,4.2,-187,19,0,-271,229,-1,410.9176335334778,410.9176757335663,410.91997718811035,410.93226408958435,411.0821783542633,411.0821783542633,411.0821783542633,411.0821783542633,411.0821783542633,411.0821783542633,411.0821783542633,411.8835277557373,3,0.9377965927124023,None,,,,,,,,,,,,,,,,,,199,3,2025-03-06_12h57.31.221,comp,2024.2.4,60.02229565063087,2025-03-06 12h57.56.367392 -0500,
104,104,0,critical,wdh,20.0,1.0,upper,125.0,200.0,141.0,141.0,200.0,125.0,1,3.667356014251709,None,,,,,0,0,0,0,0,104,104,79,411.8986313343048,,,,,,,,,,,,,,,,,,,,,,,,,,,,,,,,,,,,,,,,,,,,,,,,,,,,,,,,,,,,,,,,,,,,,,,,,,,,,,,,,125.0,200.0,141.0,141.0,200.0,125.0,1.0,1.3,214,-259,480,-278,709,-286,411.88434314727783,411.8843836784363,411.8867177963257,411.8986313343048,412.04939889907837,412.04939889907837,412.04939889907837,412.04939889907837,412.04939889907837,412.04939889907837,412.04939889907837,415.58351731300354,1,3.667356014251709,None,,,,,,,,,,,,,,,,,,199,3,2025-03-06_12h57.31.221,comp,2024.2.4,60.02229565063087,2025-03-06 12h57.56.367392 -0500,
105,105,0,critical,dhw,35.0,2.1,upper,127.0,127.0,200.0,125.0,125.0,200.0,3,1.2963428497314453,None,,,,,0,0,0,0,0,105,105,1,415.59866523742676,,,,,,,,,,,,,,,,,,,,,,,,,,,,,,,,,,,,,,,,,,,,,,,,,,,,,,,,,,,,,,,,,,,,,,,,,,,,,,,,,127.0,127.0,200.0,125.0,125.0,200.0,2.1,2.12,-222,-277,0,-251,258,274,415.58435344696045,415.58439660072327,415.5866882801056,415.59866523742676,415.7488696575165,415.7488696575165,415.7488696575165,415.7488696575165,415.7488696575165,415.7488696575165,415.7488696575165,416.9002454280853,3,1.2963428497314453,None,,,,,,,,,,,,,,,,,,199,3,2025-03-06_12h57.31.221,comp,2024.2.4,60.02229565063087,2025-03-06 12h57.56.367392 -0500,
106,106,0,filler_random,None,None,None,None,None,None,None,None,None,None,2,1.6917245388031006,None,,,,,0,0,0,0,0,106,106,140,416.9155149459839,,,,,,,,,,,,,,,,,,,,,,,,,,,,,,,,,,,,,,,,,,,,,,,,,,,,,,,,,,,,,,,,,,,,,,,,,,,,,,,,,171.9302316354134,76.83135808229565,169.28186499693555,99.26897729057828,127.67970807441662,112.93604874166053,4.0,4.2,-184,14,0,-266,202,19,416.90108489990234,416.9011254310608,416.90334033966064,416.9155149459839,417.06578397750854,417.06578397750854,417.06578397750854,417.06578397750854,417.06578397750854,417.06578397750854,417.06578397750854,418.6165907382965,2,1.6917245388031006,None,,,,,,,,,,,,,,,,,,199,3,2025-03-06_12h57.31.221,comp,2024.2.4,60.02229565063087,2025-03-06 12h57.56.367392 -0500,
107,107,0,filler_random,None,None,None,None,None,None,None,None,None,None,2,2.8857386112213135,None,,,,,0,0,0,0,0,107,107,159,418.63216185569763,,,,,,,,,,,,,,,,,,,,,,,,,,,,,,,,,,,,,,,,,,,,,,,,,,,,,,,,,,,,,,,,,,,,,,,,,,,,,,,,,122.92372296640261,150.4397894088647,191.54646857381286,129.0387476483446,77.50041967144942,82.87297051772029,3.0,3.1,-236,258,0,14,202,-285,418.61749386787415,418.61753582954407,418.61964178085327,418.63216185569763,418.7822849750519,418.7822849750519,418.7822849750519,418.7822849750519,418.7822849750519,418.7822849750519,418.7822849750519,421.5331585407257,2,2.8857386112213135,None,,,,,,,,,,,,,,,,,,199,3,2025-03-06_12h57.31.221,comp,2024.2.4,60.02229565063087,2025-03-06 12h57.56.367392 -0500,
108,108,0,filler_random,None,None,None,None,None,None,None,None,None,None,2,2.6421940326690674,None,,,,,0,0,0,0,0,108,108,152,421.5485601425171,,,,,,,,,,,,,,,,,,,,,,,,,,,,,,,,,,,,,,,,,,,,,,,,,,,,,,,,,,,,,,,,,,,,,,,,,,,,,,,,,130.80041412222138,117.30110316102318,173.67433657247875,134.14480281264727,139.33216760987517,131.2407244854574,3.0,3.2,-222,-273,0,-1,229,261,421.5340328216553,421.5340750217438,421.53732228279114,421.5485601425171,421.69881224632263,421.69881224632263,421.69881224632263,421.69881224632263,421.69881224632263,421.69881224632263,421.69881224632263,424.1999499797821,2,2.6421940326690674,None,,,,,,,,,,,,,,,,,,199,3,2025-03-06_12h57.31.221,comp,2024.2.4,60.02229565063087,2025-03-06 12h57.56.367392 -0500,
109,109,0,filler_square,None,None,None,None,None,None,None,None,None,None,1,0.9913198947906494,None,,,,,0,0,0,0,0,109,109,195,424.21555280685425,,,,,,,,,,,,,,,,,,,,,,,,,,,,,,,,,,,,,,,,,,,,,,,,,,,,,,,,,,,,,,,,,,,,,,,,,,,,,,,,,181.70416715446015,181.70416715446015,146.45780195699444,145.46996039634752,104.22152221520545,131.9791293669555,1.0,1.2,-260,8,0,-13,235,-15,424.2009263038635,424.2009687423706,424.2031168937683,424.21555280685425,424.3657777309418,424.3657777309418,424.3657777309418,424.3657777309418,424.3657777309418,424.3657777309418,424.3657777309418,425.21660900115967,1,0.9913198947906494,None,,,,,,,,,,,,,,,,,,199,3,2025-03-06_12h57.31.221,comp,2024.2.4,60.02229565063087,2025-03-06 12h57.56.367392 -0500,
110,110,0,critical,dhw,20.0,4.0,upper,141.0,141.0,200.0,125.0,125.0,200.0,3,2.232536554336548,None,,,,,0,0,0,0,0,110,110,59,425.2320156097412,,,,,,,,,,,,,,,,,,,,,,,,,,,,,,,,,,,,,,,,,,,,,,,,,,,,,,,,,,,,,,,,,,,,,,,,,,,,,,,,,141.0,141.0,200.0,125.0,125.0,200.0,4.0,4.2,-229,11,0,-257,258,-18,425.21738719940186,425.21742820739746,425.2197411060333,425.2320156097412,425.38244915008545,425.38244915008545,425.38244915008545,425.38244915008545,425.38244915008545,425.38244915008545,425.38244915008545,427.4670033454895,3,2.232536554336548,None,,,,,,,,,,,,,,,,,,199,3,2025-03-06_12h57.31.221,comp,2024.2.4,60.02229565063087,2025-03-06 12h57.56.367392 -0500,
111,111,0,critical,hdw,20.0,4.0,lower,133.0,57.0,78.0,78.0,57.0,133.0,3,1.9242193698883057,None,,,,,0,0,0,0,0,111,111,118,427.48255372047424,,,,,,,,,,,,,,,,,,,,,,,,,,,,,,,,,,,,,,,,,,,,,,,,,,,,,,,,,,,,,,,,,,,,,,,,,,,,,,,,,133.0,57.0,78.0,78.0,57.0,133.0,4.0,4.2,-164,-19,0,-283,202,3,427.46781182289124,427.46785497665405,427.4698951244354,427.48255372047424,427.6321544647217,427.6321544647217,427.6321544647217,427.6321544647217,427.6321544647217,427.6321544647217,427.6321544647217,429.41635394096375,3,1.9242193698883057,None,,,,,,,,,,,,,,,,,,199,3,2025-03-06_12h57.31.221,comp,2024.2.4,60.02229565063087,2025-03-06 12h57.56.367392 -0500,
112,112,0,filler_random,None,None,None,None,None,None,None,None,None,None,1,2.5178866386413574,None,,,,,0,0,0,0,0,112,112,144,429.4320409297943,,,,,,,,,,,,,,,,,,,,,,,,,,,,,,,,,,,,,,,,,,,,,,,,,,,,,,,,,,,,,,,,,,,,,,,,,,,,,,,,,134.82161676587452,179.85347925745847,146.93813306380616,184.35311091412788,115.9638804086487,144.52004933180234,2.1,2.11,-278,260,0,262,260,-271,429.4172532558441,429.41729402542114,429.419597864151,429.4320409297943,429.58210849761963,429.58210849761963,429.58210849761963,429.58210849761963,429.58210849761963,429.58210849761963,429.58210849761963,431.9666039943695,1,2.5178866386413574,None,,,,,,,,,,,,,,,,,,199,3,2025-03-06_12h57.31.221,comp,2024.2.4,60.02229565063087,2025-03-06 12h57.56.367392 -0500,
113,113,0,filler_random,None,None,None,None,None,None,None,None,None,None,1,1.4719607830047607,None,,,,,0,0,0,0,0,113,113,167,431.98178124427795,,,,,,,,,,,,,,,,,,,,,,,,,,,,,,,,,,,,,,,,,,,,,,,,,,,,,,,,,,,,,,,,,,,,,,,,,,,,,,,,,143.6685550423465,192.38138852953148,91.9323317440286,92.98728051293114,114.30613681624553,192.06193949584994,3.0,3.2,-239,-284,0,4,239,267,431.96748304367065,431.96752429008484,431.96981739997864,431.98178124427795,432.1321382522583,432.1321382522583,432.1321382522583,432.1321382522583,432.1321382522583,432.1321382522583,432.1321382522583,433.46654987335205,1,1.4719607830047607,None,,,,,,,,,,,,,,,,,,199,3,2025-03-06_12h57.31.221,comp,2024.2.4,60.02229565063087,2025-03-06 12h57.56.367392 -0500,
114,114,0,critical,hwd,35.0,1.0,lower,133.0,57.0,57.0,133.0,70.0,70.0,2,1.1824805736541748,None,,,,,0,0,0,0,0,114,114,96,433.4817566871643,,,,,,,,,,,,,,,,,,,,,,,,,,,,,,,,,,,,,,,,,,,,,,,,,,,,,,,,,,,,,,,,,,,,,,,,,,,,,,,,,133.0,57.0,57.0,133.0,70.0,70.0,1.0,1.2,-191,-3,0,-18,198,-5,433.46733951568604,433.46738147735596,433.46968388557434,433.4817566871643,433.6319603919983,433.6319603919983,433.6319603919983,433.6319603919983,433.6319603919983,433.6319603919983,433.6319603919983,434.66645860671997,2,1.1824805736541748,None,,,,,,,,,,,,,,,,,,199,3,2025-03-06_12h57.31.221,comp,2024.2.4,60.02229565063087,2025-03-06 12h57.56.367392 -0500,
115,115,0,critical,dhw,20.0,2.1,lower,78.0,78.0,133.0,57.0,57.0,133.0,3,1.2361640930175781,None,,,,,0,0,0,0,0,115,115,26,434.6819603443146,,,,,,,,,,,,,,,,,,,,,,,,,,,,,,,,,,,,,,,,,,,,,,,,,,,,,,,,,,,,,,,,,,,,,,,,,,,,,,,,,78.0,78.0,133.0,57.0,57.0,133.0,2.1,2.11,-164,260,0,280,191,-286,434.66726756095886,434.6673104763031,434.66936898231506,434.6819603443146,434.83192443847656,434.83192443847656,434.83192443847656,434.83192443847656,434.83192443847656,434.83192443847656,434.83192443847656,435.9330098628998,3,1.2361640930175781,None,,,,,,,,,,,,,,,,,,199,3,2025-03-06_12h57.31.221,comp,2024.2.4,60.02229565063087,2025-03-06 12h57.56.367392 -0500,
116,116,0,critical,whd,20.0,3.0,lower,57.0,133.0,133.0,57.0,78.0,78.0,1,1.233699083328247,None,,,,,0,0,0,0,0,116,116,92,435.9484577178955,,,,,,,,,,,,,,,,,,,,,,,,,,,,,,,,,,,,,,,,,,,,,,,,,,,,,,,,,,,,,,,,,,,,,,,,,,,,,,,,,57.0,133.0,133.0,57.0,78.0,78.0,3.0,3.2,-191,-279,0,13,164,250,435.93378353118896,435.933824300766,435.93625044822693,435.9484577178955,436.098605632782,436.098605632782,436.098605632782,436.098605632782,436.098605632782,436.098605632782,436.098605632782,437.19969058036804,1,1.233699083328247,None,,,,,,,,,,,,,,,,,,199,3,2025-03-06_12h57.31.221,comp,2024.2.4,60.02229565063087,2025-03-06 12h57.56.367392 -0500,
117,117,0,critical,dhw,20.0,2.1,lower,78.0,78.0,133.0,57.0,57.0,133.0,3,1.2073369026184082,None,,,,,0,0,0,0,0,117,117,2,437.2151291370392,,,,,,,,,,,,,,,,,,,,,,,,,,,,,,,,,,,,,,,,,,,,,,,,,,,,,,,,,,,,,,,,,,,,,,,,,,,,,,,,,78.0,78.0,133.0,57.0,57.0,133.0,2.1,2.11,-164,276,0,251,191,-278,437.20050573349,437.20054626464844,437.2025611400604,437.2151291370392,437.3652603626251,437.3652603626251,437.3652603626251,437.3652603626251,437.3652603626251,437.3652603626251,437.3652603626251,438.43290400505066,3,1.2073369026184082,None,,,,,,,,,,,,,,,,,,199,3,2025-03-06_12h57.31.221,comp,2024.2.4,60.02229565063087,2025-03-06 12h57.56.367392 -0500,
118,118,0,filler_square,None,None,None,None,None,None,None,None,None,None,3,2.399855852127075,None,,,,,0,0,0,0,0,118,118,190,438.44875144958496,,,,,,,,,,,,,,,,,,,,,,,,,,,,,,,,,,,,,,,,,,,,,,,,,,,,,,,,,,,,,,,,,,,,,,,,,,,,,,,,,126.06952977469939,61.48197283055085,79.53578847893783,79.97197341048178,129.75050000621403,129.75050000621403,2.2,2.22,-167,279,0,-270,201,-285,438.43388509750366,438.43392753601074,438.436017036438,438.44875144958496,438.5986032485962,438.5986032485962,438.5986032485962,438.5986032485962,438.5986032485962,438.5986032485962,438.5986032485962,440.84989953041077,3,2.399855852127075,None,,,,,,,,,,,,,,,,,,199,3,2025-03-06_12h57.31.221,comp,2024.2.4,60.02229565063087,2025-03-06 12h57.56.367392 -0500,
119,119,0,filler_square,None,None,None,None,None,None,None,None,None,None,1,2.2296459674835205,None,,,,,0,0,0,0,0,119,119,172,440.8653621673584,,,,,,,,,,,,,,,,,,,,,,,,,,,,,,,,,,,,,,,,,,,,,,,,,,,,,,,,,,,,,,,,,,,,,,,,,,,,,,,,,121.95003809948071,121.95003809948071,118.46036414331496,100.73237642393741,69.91057094814258,70.35678368592855,2.2,2.22,-207,266,0,-253,182,-258,440.85084319114685,440.8508868217468,440.85338592529297,440.8653621673584,441.01526498794556,441.01526498794556,441.01526498794556,441.01526498794556,441.01526498794556,441.01526498794556,441.01526498794556,443.0997314453125,1,2.2296459674835205,None,,,,,,,,,,,,,,,,,,199,3,2025-03-06_12h57.31.221,comp,2024.2.4,60.02229565063087,2025-03-06 12h57.56.367392 -0500,
120,120,0,filler_square,None,None,None,None,None,None,None,None,None,None,3,1.17128324508667,None,,,,,0,0,0,0,0,120,120,173,443.1152563095093,,,,,,,,,,,,,,,,,,,,,,,,,,,,,,,,,,,,,,,,,,,,,,,,,,,,,,,,,,,,,,,,,,,,,,,,,,,,,,,,,60.70321527689137,61.3688438193734,59.82101727213691,64.48713414620143,118.58671585169171,118.58671585169171,3.0,3.1,-159,260,0,7,188,-270,443.1006774902344,443.10072088241577,443.10323214530945,443.1152563095093,443.26522397994995,443.26522397994995,443.26522397994995,443.26522397994995,443.26522397994995,443.26522397994995,443.26522397994995,444.29960680007935,3,1.17128324508667,None,,,,,,,,,,,,,,,,,,199,3,2025-03-06_12h57.31.221,comp,2024.2.4,60.02229565063087,2025-03-06 12h57.56.367392 -0500,
121,121,0,filler_random,None,None,None,None,None,None,None,None,None,None,1,3.117048978805542,None,,,,,0,0,0,0,0,121,121,153,444.31500339508057,,,,,,,,,,,,,,,,,,,,,,,,,,,,,,,,,,,,,,,,,,,,,,,,,,,,,,,,,,,,,,,,,,,,,,,,,,,,,,,,,115.69295851103223,141.70528602779342,186.4412756605286,86.27345319587693,112.9652107012474,124.3514314415586,4.0,4.1,-210,-279,0,14,201,-271,444.30050134658813,444.30054235458374,444.30294728279114,444.31500339508057,444.4652259349823,444.4652259349823,444.4652259349823,444.4652259349823,444.4652259349823,444.4652259349823,444.4652259349823,447.43323373794556,1,3.117048978805542,None,,,,,,,,,,,,,,,,,,199,3,2025-03-06_12h57.31.221,comp,2024.2.4,60.02229565063087,2025-03-06 12h57.56.367392 -0500,
122,122,0,critical,wdh,35.0,4.0,upper,125.0,200.0,127.0,127.0,200.0,125.0,1,1.5010697841644287,None,,,,,0,0,0,0,0,122,122,77,447.4486258029938,,,,,,,,,,,,,,,,,,,,,,,,,,,,,,,,,,,,,,,,,,,,,,,,,,,,,,,,,,,,,,,,,,,,,,,,,,,,,,,,,125.0,200.0,127.0,127.0,200.0,125.0,4.0,4.2,-260,-19,0,-257,222,-14,447.43399024009705,447.4340295791626,447.43648886680603,447.4486258029938,447.598872423172,447.598872423172,447.598872423172,447.598872423172,447.598872423172,447.598872423172,447.598872423172,448.9663419723511,1,1.5010697841644287,None,,,,,,,,,,,,,,,,,,199,3,2025-03-06_12h57.31.221,comp,2024.2.4,60.02229565063087,2025-03-06 12h57.56.367392 -0500,
123,123,0,critical,hwd,35.0,2.1,lower,133.0,57.0,57.0,133.0,70.0,70.0,2,1.250544548034668,None,,,,,0,0,0,0,0,123,123,40,448.9816884994507,,,,,,,,,,,,,,,,,,,,,,,,,,,,,,,,,,,,,,,,,,,,,,,,,,,,,,,,,,,,,,,,,,,,,,,,,,,,,,,,,133.0,57.0,57.0,133.0,70.0,70.0,2.1,2.12,-191,-262,0,-272,198,289,448.9671223163605,448.96718287467957,448.9695098400116,448.9816884994507,449.13175535202026,449.13175535202026,449.13175535202026,449.13175535202026,449.13175535202026,449.13175535202026,449.13175535202026,450.24957156181335,2,1.250544548034668,None,,,,,,,,,,,,,,,,,,199,3,2025-03-06_12h57.31.221,comp,2024.2.4,60.02229565063087,2025-03-06 12h57.56.367392 -0500,
124,124,0,critical,wdh,20.0,2.1,upper,125.0,200.0,141.0,141.0,200.0,125.0,1,1.6047894954681396,None,,,,,0,0,0,0,0,124,124,11,450.2649915218353,,,,,,,,,,,,,,,,,,,,,,,,,,,,,,,,,,,,,,,,,,,,,,,,,,,,,,,,,,,,,,,,,,,,,,,,,,,,,,,,,125.0,200.0,141.0,141.0,200.0,125.0,2.1,2.12,-266,-259,0,-257,229,255,450.2503674030304,450.2504069805145,450.25275015830994,450.2649915218353,450.41526460647583,450.41526460647583,450.41526460647583,450.41526460647583,450.41526460647583,450.41526460647583,450.41526460647583,451.8831317424774,1,1.6047894954681396,None,,,,,,,,,,,,,,,,,,199,3,2025-03-06_12h57.31.221,comp,2024.2.4,60.02229565063087,2025-03-06 12h57.56.367392 -0500,
125,125,0,filler_square,None,None,None,None,None,None,None,None,None,None,1,2.188155174255371,None,,,,,0,0,0,0,0,125,125,194,451.8983368873596,,,,,,,,,,,,,,,,,,,,,,,,,,,,,,,,,,,,,,,,,,,,,,,,,,,,,,,,,,,,,,,,,,,,,,,,,,,,,,,,,66.12409156635171,66.12409156635171,62.41314452548396,59.620306562956756,61.380599493641995,61.2740303873504,3.0,3.2,-159,-271,0,19,156,274,451.88403820991516,451.88407921791077,451.88722920417786,451.8983368873596,452.04855132102966,452.04855132102966,452.04855132102966,452.04855132102966,452.04855132102966,452.04855132102966,452.04855132102966,454.0996050834656,1,2.188155174255371,None,,,,,,,,,,,,,,,,,,199,3,2025-03-06_12h57.31.221,comp,2024.2.4,60.02229565063087,2025-03-06 12h57.56.367392 -0500,
126,126,0,critical,wdh,20.0,3.0,lower,57.0,133.0,78.0,78.0,133.0,57.0,1,2.3807177543640137,None,,,,,0,0,0,0,0,126,126,80,454.11492681503296,,,,,,,,,,,,,,,,,,,,,,,,,,,,,,,,,,,,,,,,,,,,,,,,,,,,,,,,,,,,,,,,,,,,,,,,,,,,,,,,,57.0,133.0,78.0,78.0,133.0,57.0,3.0,3.1,-202,266,0,12,164,-285,454.1003806591034,454.1004219055176,454.1027636528015,454.11492681503296,454.26517128944397,454.26517128944397,454.26517128944397,454.26517128944397,454.26517128944397,454.26517128944397,454.26517128944397,456.49963998794556,1,2.3807177543640137,None,,,,,,,,,,,,,,,,,,199,3,2025-03-06_12h57.31.221,comp,2024.2.4,60.02229565063087,2025-03-06 12h57.56.367392 -0500,
127,127,0,filler_square,None,None,None,None,None,None,None,None,None,None,3,2.6272692680358887,None,,,,,0,0,0,0,0,127,127,206,456.51519560813904,,,,,,,,,,,,,,,,,,,,,,,,,,,,,,,,,,,,,,,,,,,,,,,,,,,,,,,,,,,,,,,,,,,,,,,,,,,,,,,,,57.80988412716054,64.77454836233359,57.30731126223376,62.01033902494228,69.19660213332995,69.19660213332995,1.0,1.3,321,-282,480,-274,642,-288,456.5005838871002,456.5006248950958,456.5030312538147,456.51519560813904,456.66497230529785,456.66497230529785,456.66497230529785,456.66497230529785,456.66497230529785,456.66497230529785,456.66497230529785,459.14952659606934,3,2.6272692680358887,None,,,,,,,,,,,,,,,,,,199,3,2025-03-06_12h57.31.221,comp,2024.2.4,60.02229565063087,2025-03-06 12h57.56.367392 -0500,
128,128,0,critical,wdh,20.0,2.1,lower,57.0,133.0,78.0,78.0,133.0,57.0,1,2.56127667427063,None,,,,,0,0,0,0,0,128,128,34,459.165212392807,,,,,,,,,,,,,,,,,,,,,,,,,,,,,,,,,,,,,,,,,,,,,,,,,,,,,,,,,,,,,,,,,,,,,,,,,,,,,,,,,57.0,133.0,78.0,78.0,133.0,57.0,2.1,2.11,-202,254,0,280,164,-280,459.1503143310547,459.15035605430603,459.15263843536377,459.165212392807,459.3151307106018,459.3151307106018,459.3151307106018,459.3151307106018,459.3151307106018,459.3151307106018,459.3151307106018,461.7327435016632,1,2.56127667427063,None,,,,,,,,,,,,,,,,,,199,3,2025-03-06_12h57.31.221,comp,2024.2.4,60.02229565063087,2025-03-06 12h57.56.367392 -0500,
129,129,0,critical,dwh,20.0,2.1,lower,78.0,78.0,57.0,133.0,133.0,57.0,2,1.6833031177520752,None,,,,,0,0,0,0,0,129,129,6,461.74849820137024,,,,,,,,,,,,,,,,,,,,,,,,,,,,,,,,,,,,,,,,,,,,,,,,,,,,,,,,,,,,,,,,,,,,,,,,,,,,,,,,,78.0,78.0,57.0,133.0,133.0,57.0,2.1,2.11,-202,286,0,254,191,-288,461.73353457450867,461.73357629776,461.73598313331604,461.74849820137024,461.8983087539673,461.8983087539673,461.8983087539673,461.8983087539673,461.8983087539673,461.8983087539673,461.8983087539673,463.449453830719,2,1.6833031177520752,None,,,,,,,,,,,,,,,,,,199,3,2025-03-06_12h57.31.221,comp,2024.2.4,60.02229565063087,2025-03-06 12h57.56.367392 -0500,
130,130,0,critical,hdw,35.0,2.1,lower,133.0,57.0,70.0,70.0,57.0,133.0,3,1.415290117263794,None,,,,,0,0,0,0,0,130,130,44,463.464937210083,,,,,,,,,,,,,,,,,,,,,,,,,,,,,,,,,,,,,,,,,,,,,,,,,,,,,,,,,,,,,,,,,,,,,,,,,,,,,,,,,133.0,57.0,70.0,70.0,57.0,133.0,2.1,2.12,-160,-251,0,-256,198,288,463.4503450393677,463.45038747787476,463.4524886608124,463.464937210083,463.6151924133301,463.6151924133301,463.6151924133301,463.6151924133301,463.6151924133301,463.6151924133301,463.6151924133301,464.8830018043518,3,1.415290117263794,None,,,,,,,,,,,,,,,,,,199,3,2025-03-06_12h57.31.221,comp,2024.2.4,60.02229565063087,2025-03-06 12h57.56.367392 -0500,
131,131,0,filler_square,None,None,None,None,None,None,None,None,None,None,2,2.4837868213653564,None,,,,,0,0,0,0,0,131,131,183,464.8985424041748,,,,,,,,,,,,,,,,,,,,,,,,,,,,,,,,,,,,,,,,,,,,,,,,,,,,,,,,,,,,,,,,,,,,,,,,,,,,,,,,,93.2841591657121,119.01506726223457,123.04077190021196,123.04077190021196,121.48809436375555,111.85442530386914,2.2,2.21,-217,-276,0,273,213,277,464.88391494750977,464.8839569091797,464.8859233856201,464.8985424041748,465.0485336780548,465.0485336780548,465.0485336780548,465.0485336780548,465.0485336780548,465.0485336780548,465.0485336780548,467.3996584415436,2,2.4837868213653564,None,,,,,,,,,,,,,,,,,,199,3,2025-03-06_12h57.31.221,comp,2024.2.4,60.02229565063087,2025-03-06 12h57.56.367392 -0500,
132,132,0,filler_random,None,None,None,None,None,None,None,None,None,None,2,1.833509922027588,None,,,,,0,0,0,0,0,132,132,138,467.4148280620575,,,,,,,,,,,,,,,,,,,,,,,,,,,,,,,,,,,,,,,,,,,,,,,,,,,,,,,,,,,,,,,,,,,,,,,,,,,,,,,,,131.1216081481025,133.90359688879144,149.70654719476005,126.04547538311259,78.72925582651737,83.10610357933575,1.0,1.2,-226,11,0,-12,201,-6,467.40051460266113,467.400554895401,467.4029369354248,467.4148280620575,467.56519865989685,467.56519865989685,467.56519865989685,467.56519865989685,467.56519865989685,467.56519865989685,467.56519865989685,469.24970960617065,2,1.833509922027588,None,,,,,,,,,,,,,,,,,,199,3,2025-03-06_12h57.31.221,comp,2024.2.4,60.02229565063087,2025-03-06 12h57.56.367392 -0500,
133,133,0,catch,None,None,None,None,None,None,None,None,None,None,1,1.3251852989196777,None,,,,,0,0,0,0,0,133,133,121,469.26519107818604,,,,,,,,,,,,,,,,,,,,,,,,,,,,,,,,,,,,,,,,,,,,,,,,,,,,,,,,,,,,,,,,,,,,,,,,,,,,,,,,,190,135,93,97,101,89,2.1,2.11,-212,264,0,260,189,-257,469.2507429122925,469.25078678131104,469.2531416416168,469.26519107818604,469.4151895046234,469.4151895046234,469.4151895046234,469.4151895046234,469.4151895046234,469.4151895046234,469.4151895046234,470.5994749069214,1,1.3251852989196777,None,,,,,,,,,,,,,,,,,,199,3,2025-03-06_12h57.31.221,comp,2024.2.4,60.02229565063087,2025-03-06 12h57.56.367392 -0500,
134,134,0,critical,whd,35.0,3.0,upper,125.0,200.0,200.0,125.0,127.0,127.0,1,2.2489705085754395,None,,,,,0,0,0,0,0,134,134,87,470.6150360107422,,,,,,,,,,,,,,,,,,,,,,,,,,,,,,,,,,,,,,,,,,,,,,,,,,,,,,,,,,,,,,,,,,,,,,,,,,,,,,,,,125.0,200.0,200.0,125.0,127.0,127.0,3.0,3.1,-258,261,0,-6,222,-266,470.60025119781494,470.60029315948486,470.6025583744049,470.6150360107422,470.76510214805603,470.76510214805603,470.76510214805603,470.76510214805603,470.76510214805603,470.76510214805603,470.76510214805603,472.86636114120483,1,2.2489705085754395,None,,,,,,,,,,,,,,,,,,199,3,2025-03-06_12h57.31.221,comp,2024.2.4,60.02229565063087,2025-03-06 12h57.56.367392 -0500,
135,135,0,critical,hdw,20.0,1.0,lower,133.0,57.0,78.0,78.0,57.0,133.0,3,1.3556838035583496,None,,,,,0,0,0,0,0,135,135,114,472.88175654411316,,,,,,,,,,,,,,,,,,,,,,,,,,,,,,,,,,,,,,,,,,,,,,,,,,,,,,,,,,,,,,,,,,,,,,,,,,,,,,,,,133.0,57.0,78.0,78.0,57.0,133.0,1.0,1.3,316,-255,480,-270,682,-252,472.8671283721924,472.86718249320984,472.8692581653595,472.88175654411316,473.03171157836914,473.03171157836914,473.03171157836914,473.03171157836914,473.03171157836914,473.03171157836914,473.03171157836914,474.2494854927063,3,1.3556838035583496,None,,,,,,,,,,,,,,,,,,199,3,2025-03-06_12h57.31.221,comp,2024.2.4,60.02229565063087,2025-03-06 12h57.56.367392 -0500,
136,136,0,filler_random,None,None,None,None,None,None,None,None,None,None,3,1.4526970386505127,None,,,,,0,0,0,0,0,136,136,164,474.2649173736572,,,,,,,,,,,,,,,,,,,,,,,,,,,,,,,,,,,,,,,,,,,,,,,,,,,,,,,,,,,,,,,,,,,,,,,,,,,,,,,,,110.68801492904967,100.7885078256011,66.6907999886651,87.61327009067563,172.95970866992684,158.18060393933217,1.0,1.3,290,-289,480,-270,699,-257,474.25040078163147,474.2504415512085,474.25369596481323,474.2649173736572,474.41505193710327,474.41505193710327,474.41505193710327,474.41505193710327,474.41505193710327,474.41505193710327,474.41505193710327,475.7328300476074,3,1.4526970386505127,None,,,,,,,,,,,,,,,,,,199,3,2025-03-06_12h57.31.221,comp,2024.2.4,60.02229565063087,2025-03-06 12h57.56.367392 -0500,
137,137,0,critical,dwh,35.0,1.0,upper,127.0,127.0,125.0,200.0,200.0,125.0,2,2.5474579334259033,None,,,,,0,0,0,0,0,137,137,61,475.7481219768524,,,,,,,,,,,,,,,,,,,,,,,,,,,,,,,,,,,,,,,,,,,,,,,,,,,,,,,,,,,,,,,,,,,,,,,,,,,,,,,,,127.0,127.0,125.0,200.0,200.0,125.0,1.0,1.1,-740,279,-480,289,-222,253,475.73366022109985,475.7337031364441,475.73612904548645,475.7481219768524,475.89845037460327,475.89845037460327,475.89845037460327,475.89845037460327,475.89845037460327,475.89845037460327,475.89845037460327,478.29973340034485,2,2.5474579334259033,None,,,,,,,,,,,,,,,,,,199,3,2025-03-06_12h57.31.221,comp,2024.2.4,60.02229565063087,2025-03-06 12h57.56.367392 -0500,
138,138,0,critical,hwd,20.0,3.0,upper,200.0,125.0,125.0,200.0,141.0,141.0,2,2.754582405090332,None,,,,,0,0,0,0,0,138,138,105,478.31501936912537,,,,,,,,,,,,,,,,,,,,,,,,,,,,,,,,,,,,,,,,,,,,,,,,,,,,,,,,,,,,,,,,,,,,,,,,,,,,,,,,,200.0,125.0,125.0,200.0,141.0,141.0,3.0,3.2,-258,-264,0,-5,266,283,478.30049753189087,478.30053901672363,478.3029510974884,478.31501936912537,478.46519804000854,478.46519804000854,478.46519804000854,478.46519804000854,478.46519804000854,478.46519804000854,478.46519804000854,481.0829219818115,2,2.754582405090332,None,,,,,,,,,,,,,,,,,,199,3,2025-03-06_12h57.31.221,comp,2024.2.4,60.02229565063087,2025-03-06 12h57.56.367392 -0500,
139,139,0,critical,wdh,20.0,4.0,upper,125.0,200.0,141.0,141.0,200.0,125.0,1,1.6445443630218506,None,,,,,0,0,0,0,0,139,139,83,481.0981035232544,,,,,,,,,,,,,,,,,,,,,,,,,,,,,,,,,,,,,,,,,,,,,,,,,,,,,,,,,,,,,,,,,,,,,,,,,,,,,,,,,125.0,200.0,141.0,141.0,200.0,125.0,4.0,4.2,-266,-1,0,-263,229,-8,481.0837278366089,481.0837707519531,481.0860438346863,481.0981035232544,481.2484314441681,481.2484314441681,481.2484314441681,481.2484314441681,481.2484314441681,481.2484314441681,481.2484314441681,482.74969005584717,1,1.6445443630218506,None,,,,,,,,,,,,,,,,,,199,3,2025-03-06_12h57.31.221,comp,2024.2.4,60.02229565063087,2025-03-06 12h57.56.367392 -0500,
