thisN,thisTrialN,thisRepN,effect,order,distance,config,diag,h_1,w_1,h_2,w_2,h_3,w_3,rect_choice.keys,rect_choice.rt,rect_choice.duration,instructions_loop.thisRepN,instructions_loop.thisTrialN,instructions_loop.thisN,instructions_loop.thisIndex,blocks.thisRepN,blocks.thisTrialN,blocks.thisN,blocks.thisIndex,trials.thisRepN,trials.thisTrialN,trials.thisN,trials.thisIndex,thisRow.t,notes,consent.started,agree_button.started,decline_button.started,consent_img.started,mouse.started,consent.stopped,agree_button.numClicks,agree_button.timesOn,agree_button.timesOff,decline_button.numClicks,decline_button.timesOn,decline_button.timesOff,mouse.x,mouse.y,mouse.leftButton,mouse.midButton,mouse.rightButton,mouse.time,mouse.clicked_name,exp_params.started,exp_params.stopped,welcome.started,welcome_text.started,welcome.stopped,instructions_1.started,instructions_1_text_1.started,instructions_1_text_2.started,key_resp.started,instructions_1.stopped,instructions_loop.key_resp.keys,instructions_loop.key_resp.rt,instructions_loop.key_resp.duration,instructions_2.started,instructions_2_text_1.started,instructions_2_text_2.started,key_resp_2.started,instructions_2.stopped,instructions_loop.key_resp_2.keys,instructions_loop.key_resp_2.rt,instructions_loop.key_resp_2.duration,instructions_3.started,instructions_3_text_1.started,r1_instr3.started,r2_instr3.started,r3_instr3.started,r1_instr3_label.started,r2_instr3_label.started,r3_instr3_label.started,instructions_3_text_3.started,instructions_3_text_4.started,key_resp_3.started,instructions_3.stopped,instructions_loop.key_resp_3.keys,instructions_loop.key_resp_3.rt,instructions_loop.key_resp_3.duration,instructions_4.started,instructions_4_text_1.started,instructions_4_text_3.started,instructions_4_text_2.started,key_resp_4.started,instructions_4.stopped,instructions_loop.key_resp_4.keys,instructions_loop.key_resp_4.rt,instructions_loop.key_resp_4.duration,instructions_5.started,instructions_5_text_1.started,instructions_5_text_2.started,key_resp_5.started,instructions_5.stopped,instructions_loop.key_resp_5.keys,instructions_loop.key_resp_5.rt,instructions_loop.key_resp_5.duration,start_exp.started,start_exp_text.started,key_resp_6.started,start_exp.stopped,key_resp_6.keys,key_resp_6.rt,key_resp_6.duration,h_1_tmp,w_1_tmp,h_2_tmp,w_2_tmp,h_3_tmp,w_3_tmp,config_tmp,config_tmp_1,r_1_x,r_1_y,r_2_x,r_2_y,r_3_x,r_3_y,pre_trial.started,pre_trial.stopped,choice_trial.started,rect_choice.started,r_1.started,r_2.started,r_3.started,r_1_label.started,r_2_label.started,r_3_label.started,prompt.started,choice_trial.stopped,trials.rect_choice.keys,trials.rect_choice.rt,trials.rect_choice.duration,end_block.started,end_block_text.started,end_block.stopped,end.started,end_text.started,key_resp_7.started,end.stopped,key_resp_7.keys,key_resp_7.rt,key_resp_7.duration,debriefing.started,debrief_form.started,end_debrief.started,debriefing.stopped,end_debrief.keys,end_debrief.rt,end_debrief.duration,participant,computer,date,expName,psychopyVersion,frameRate,expStart,
,,,,,,,,,,,,,,,,,,,,,,,,,,,,,,,0.015418291091918945,0.041841745376586914,0.041841745376586914,0.041841745376586914,0.014940738677978516,14.959791660308838,1,[14.916746616363525],[14.91675877571106],0,,,[-42.0],[-521.0],[1],[0],[0],[14.943839073181152],['agree_button'],,,,,,,,,,,,,,,,,,,,,,,,,,,,,,,,,,,,,,,,,,,,,,,,,,,,,,,,,,,,,,,,,,,,,,,,,,,,,,,,,,,,,,,,,,,,,,,,,,,,,,,,,,,19,3,2025-02-18_15h03.59.477,comp,2024.2.4,60.20477325804215,2025-02-18 15h04.11.462313 -0500,
,,,,,,,,,,,,,,,,,,,,,,,,,,,,,,,,,,,,,,,,,,,,,,,,,,14.960057258605957,14.960090637207031,,,,,,,,,,,,,,,,,,,,,,,,,,,,,,,,,,,,,,,,,,,,,,,,,,,,,,,,,,,,,,,,,,,,,,,,,,,,,,,,,,,,,,,,,,,,,,,,,,,,,,,,,19,3,2025-02-18_15h03.59.477,comp,2024.2.4,60.20477325804215,2025-02-18 15h04.11.462313 -0500,
,,,,,,,,,,,,,,,,,,,,,,,,,,,,,,,,,,,,,,,,,,,,,,,,,,,,14.96011233329773,14.97342324256897,16.960717916488647,,,,,,,,,,,,,,,,,,,,,,,,,,,,,,,,,,,,,,,,,,,,,,,,,,,,,,,,,,,,,,,,,,,,,,,,,,,,,,,,,,,,,,,,,,,,,,,,,,,,,,19,3,2025-02-18_15h03.59.477,comp,2024.2.4,60.20477325804215,2025-02-18 15h04.11.462313 -0500,
0,0,0,,,,,,,,,,,,,,,0,0,0,0,,,,,,,,,16.977506637573242,,,,,,,,,,,,,,,,,,,,,,,,,,16.961270332336426,16.977506637573242,16.977506637573242,18.4614200592041,22.479207277297974,space,4.00415825843811,None,22.479292154312134,22.494331121444702,22.494331121444702,23.99407434463501,27.34548568725586,space,3.3445911407470703,None,27.345571994781494,27.367626190185547,27.367626190185547,27.367626190185547,27.367626190185547,27.367626190185547,27.367626190185547,27.367626190185547,27.367626190185547,27.367626190185547,28.86111307144165,35.21241569519043,space,6.341563701629639,None,35.21250510215759,35.22789669036865,35.22789669036865,35.22789669036865,36.72797155380249,42.44582486152649,space,5.705322980880737,None,42.44591188430786,42.46074557304382,42.46074557304382,43.96056270599365,45.11177206039429,space,1.1457226276397705,None,45.11190748214722,45.12751793861389,45.12751793861389,45.828088998794556,space,0.6910369396209717,None,,,,,,,,,,,,,,,,,,,,,,,,,,,,,,,,,,,,,,,,,,,,,,,19,3,2025-02-18_15h03.59.477,comp,2024.2.4,60.20477325804215,2025-02-18 15h04.11.462313 -0500,
0,0,0,critical,hdw,20.0,3.0,upper,200.0,125.0,141.0,141.0,125.0,200.0,3,5.9296486377716064,None,,,,,0,0,0,0,0,0,0,117,45.889174938201904,,,,,,,,,,,,,,,,,,,,,,,,,,,,,,,,,,,,,,,,,,,,,,,,,,,,,,,,,,,,,,,,,,,,,,,,,,,,,,,,,200.0,125.0,141.0,141.0,125.0,200.0,3.0,3.1,-229,277,0,-15,266,-284,45.87550115585327,45.875548124313354,45.87784194946289,45.889174938201904,46.03363275527954,46.03363275527954,46.03363275527954,46.03363275527954,46.03363275527954,46.03363275527954,46.03363275527954,51.82851195335388,3,5.9296486377716064,None,,,,,,,,,,,,,,,,,,19,3,2025-02-18_15h03.59.477,comp,2024.2.4,60.20477325804215,2025-02-18 15h04.11.462313 -0500,
1,1,0,critical,whd,20.0,3.0,lower,57.0,133.0,133.0,57.0,78.0,78.0,1,13.774658679962158,None,,,,,0,0,0,0,0,1,1,92,51.84403109550476,,,,,,,,,,,,,,,,,,,,,,,,,,,,,,,,,,,,,,,,,,,,,,,,,,,,,,,,,,,,,,,,,,,,,,,,,,,,,,,,,57.0,133.0,133.0,57.0,78.0,78.0,3.0,3.2,-191,-250,0,10,164,265,51.82932949066162,51.82936906814575,51.83185410499573,51.84403109550476,51.99405837059021,51.99405837059021,51.99405837059021,51.99405837059021,51.99405837059021,51.99405837059021,51.99405837059021,65.628342628479,1,13.774658679962158,None,,,,,,,,,,,,,,,,,,19,3,2025-02-18_15h03.59.477,comp,2024.2.4,60.20477325804215,2025-02-18 15h04.11.462313 -0500,
2,2,0,critical,wdh,20.0,2.1,lower,57.0,133.0,78.0,78.0,133.0,57.0,3,6.647096872329712,None,,,,,0,0,0,0,0,2,2,10,65.64391660690308,,,,,,,,,,,,,,,,,,,,,,,,,,,,,,,,,,,,,,,,,,,,,,,,,,,,,,,,,,,,,,,,,,,,,,,,,,,,,,,,,57.0,133.0,78.0,78.0,133.0,57.0,2.1,2.11,-202,263,0,270,164,-262,65.62925720214844,65.62929630279541,65.63167548179626,65.64391660690308,65.79513931274414,65.79513931274414,65.79513931274414,65.79513931274414,65.79513931274414,65.79513931274414,65.79513931274414,72.29495024681091,3,6.647096872329712,None,,,,,,,,,,,,,,,,,,19,3,2025-02-18_15h03.59.477,comp,2024.2.4,60.20477325804215,2025-02-18 15h04.11.462313 -0500,
3,3,0,filler_random,None,None,None,None,None,None,None,None,None,None,2,1.9331634044647217,None,,,,,0,0,0,0,0,3,3,148,72.31054067611694,,,,,,,,,,,,,,,,,,,,,,,,,,,,,,,,,,,,,,,,,,,,,,,,,,,,,,,,,,,,,,,,,,,,,,,,,,,,,,,,,65.74977243602562,94.32046580528103,142.9883902066964,138.51904897321538,140.03731051053563,102.44157855388147,3.0,3.2,-212,-257,0,5,216,258,72.29588198661804,72.29592251777649,72.29802441596985,72.31054067611694,72.46051931381226,72.46051931381226,72.46051931381226,72.46051931381226,72.46051931381226,72.46051931381226,72.46051931381226,74.24522089958191,2,1.9331634044647217,None,,,,,,,,,,,,,,,,,,19,3,2025-02-18_15h03.59.477,comp,2024.2.4,60.20477325804215,2025-02-18 15h04.11.462313 -0500,
4,4,0,critical,dhw,35.0,3.0,lower,70.0,70.0,133.0,57.0,57.0,133.0,3,5.74169397354126,None,,,,,0,0,0,0,0,4,4,50,74.26056981086731,,,,,,,,,,,,,,,,,,,,,,,,,,,,,,,,,,,,,,,,,,,,,,,,,,,,,,,,,,,,,,,,,,,,,,,,,,,,,,,,,70.0,70.0,133.0,57.0,57.0,133.0,3.0,3.1,-160,274,0,0,191,-285,74.24601650238037,74.24605870246887,74.24820876121521,74.26056981086731,74.41031837463379,74.41031837463379,74.41031837463379,74.41031837463379,74.41031837463379,74.41031837463379,74.41031837463379,80.01156830787659,3,5.74169397354126,None,,,,,,,,,,,,,,,,,,19,3,2025-02-18_15h03.59.477,comp,2024.2.4,60.20477325804215,2025-02-18 15h04.11.462313 -0500,
5,5,0,critical,hdw,20.0,1.0,lower,133.0,57.0,78.0,78.0,57.0,133.0,1,2.3834571838378906,None,,,,,0,0,0,0,0,5,5,114,80.02719831466675,,,,,,,,,,,,,,,,,,,,,,,,,,,,,,,,,,,,,,,,,,,,,,,,,,,,,,,,,,,,,,,,,,,,,,,,,,,,,,,,,133.0,57.0,78.0,78.0,57.0,133.0,1.0,1.1,-644,288,-480,290,-278,254,80.01238656044006,80.01242756843567,80.01493668556213,80.02719831466675,80.17697024345398,80.17697024345398,80.17697024345398,80.17697024345398,80.17697024345398,80.17697024345398,80.17697024345398,82.42815327644348,1,2.3834571838378906,None,,,,,,,,,,,,,,,,,,19,3,2025-02-18_15h03.59.477,comp,2024.2.4,60.20477325804215,2025-02-18 15h04.11.462313 -0500,
6,6,0,critical,hdw,20.0,2.1,lower,133.0,57.0,78.0,78.0,57.0,133.0,3,2.510448455810547,None,,,,,0,0,0,0,0,6,6,22,82.44349217414856,,,,,,,,,,,,,,,,,,,,,,,,,,,,,,,,,,,,,,,,,,,,,,,,,,,,,,,,,,,,,,,,,,,,,,,,,,,,,,,,,133.0,57.0,78.0,78.0,57.0,133.0,2.1,2.11,-164,284,0,284,202,-284,82.42895364761353,82.42899513244629,82.43147778511047,82.44349217414856,82.59359407424927,82.59359407424927,82.59359407424927,82.59359407424927,82.59359407424927,82.59359407424927,82.59359407424927,84.96144509315491,3,2.510448455810547,None,,,,,,,,,,,,,,,,,,19,3,2025-02-18_15h03.59.477,comp,2024.2.4,60.20477325804215,2025-02-18 15h04.11.462313 -0500,
7,7,0,critical,wdh,20.0,2.1,lower,57.0,133.0,78.0,78.0,133.0,57.0,1,1.7045495510101318,None,,,,,0,0,0,0,0,7,7,34,84.97708988189697,,,,,,,,,,,,,,,,,,,,,,,,,,,,,,,,,,,,,,,,,,,,,,,,,,,,,,,,,,,,,,,,,,,,,,,,,,,,,,,,,57.0,133.0,78.0,78.0,133.0,57.0,2.1,2.12,-202,-284,0,-266,164,289,84.96225690841675,84.96229839324951,84.96484017372131,84.97708988189697,85.12696433067322,85.12696433067322,85.12696433067322,85.12696433067322,85.12696433067322,85.12696433067322,85.12696433067322,86.69483137130737,1,1.7045495510101318,None,,,,,,,,,,,,,,,,,,19,3,2025-02-18_15h03.59.477,comp,2024.2.4,60.20477325804215,2025-02-18 15h04.11.462313 -0500,
8,8,0,critical,wdh,35.0,1.0,lower,57.0,133.0,70.0,70.0,133.0,57.0,3,1.708644151687622,None,,,,,0,0,0,0,0,8,8,72,86.71009516716003,,,,,,,,,,,,,,,,,,,,,,,,,,,,,,,,,,,,,,,,,,,,,,,,,,,,,,,,,,,,,,,,,,,,,,,,,,,,,,,,,57.0,133.0,70.0,70.0,133.0,57.0,1.0,1.1,-678,278,-480,277,-320,251,86.69561171531677,86.69565200805664,86.69763565063477,86.71009516716003,86.86063623428345,86.86063623428345,86.86063623428345,86.86063623428345,86.86063623428345,86.86063623428345,86.86063623428345,88.42804741859436,3,1.708644151687622,None,,,,,,,,,,,,,,,,,,19,3,2025-02-18_15h03.59.477,comp,2024.2.4,60.20477325804215,2025-02-18 15h04.11.462313 -0500,
9,9,0,filler_square,None,None,None,None,None,None,None,None,None,None,3,1.9262497425079346,None,,,,,0,0,0,0,0,9,9,190,88.44367170333862,,,,,,,,,,,,,,,,,,,,,,,,,,,,,,,,,,,,,,,,,,,,,,,,,,,,,,,,,,,,,,,,,,,,,,,,,,,,,,,,,92.88812138796567,74.8320387541574,72.68426502180026,89.91035428757478,100.93317714620963,100.93317714620963,4.0,4.2,-178,16,0,-273,191,5,88.42898654937744,88.42902851104736,88.43136358261108,88.44367170333862,88.59361577033997,88.59361577033997,88.59361577033997,88.59361577033997,88.59361577033997,88.59361577033997,88.59361577033997,90.37805247306824,3,1.9262497425079346,None,,,,,,,,,,,,,,,,,,19,3,2025-02-18_15h03.59.477,comp,2024.2.4,60.20477325804215,2025-02-18 15h04.11.462313 -0500,
10,10,0,filler_random,None,None,None,None,None,None,None,None,None,None,1,1.560164213180542,None,,,,,0,0,0,0,0,10,10,141,90.39368629455566,,,,,,,,,,,,,,,,,,,,,,,,,,,,,,,,,,,,,,,,,,,,,,,,,,,,,,,,,,,,,,,,,,,,,,,,,,,,,,,,,128.96766092931847,180.07593077926308,66.08014969511562,156.3855922123181,144.70392975086082,97.3412963609433,3.0,3.2,-264,-277,0,17,223,288,90.37897181510925,90.37901496887207,90.38144779205322,90.39368629455566,90.54357290267944,90.54357290267944,90.54357290267944,90.54357290267944,90.54357290267944,90.54357290267944,90.54357290267944,91.96149945259094,1,1.560164213180542,None,,,,,,,,,,,,,,,,,,19,3,2025-02-18_15h03.59.477,comp,2024.2.4,60.20477325804215,2025-02-18 15h04.11.462313 -0500,
11,11,0,critical,hwd,35.0,1.0,upper,200.0,125.0,125.0,200.0,127.0,127.0,1,2.09826397895813,None,,,,,0,0,0,0,0,11,11,97,91.97714185714722,,,,,,,,,,,,,,,,,,,,,,,,,,,,,,,,,,,,,,,,,,,,,,,,,,,,,,,,,,,,,,,,,,,,,,,,,,,,,,,,,200.0,125.0,125.0,200.0,127.0,127.0,1.0,1.1,-738,289,-480,253,-220,268,91.96231389045715,91.96235513687134,91.96496415138245,91.97714185714722,92.127023935318,92.127023935318,92.127023935318,92.127023935318,92.127023935318,92.127023935318,92.127023935318,94.07856726646423,1,2.09826397895813,None,,,,,,,,,,,,,,,,,,19,3,2025-02-18_15h03.59.477,comp,2024.2.4,60.20477325804215,2025-02-18 15h04.11.462313 -0500,
12,12,0,critical,whd,20.0,2.1,upper,125.0,200.0,200.0,125.0,141.0,141.0,2,3.950160264968872,None,,,,,0,0,0,0,0,12,12,15,94.09377098083496,,,,,,,,,,,,,,,,,,,,,,,,,,,,,,,,,,,,,,,,,,,,,,,,,,,,,,,,,,,,,,,,,,,,,,,,,,,,,,,,,125.0,200.0,200.0,125.0,141.0,141.0,2.1,2.12,-258,-289,0,-252,229,261,94.07938051223755,94.079421043396,94.0815749168396,94.09377098083496,94.24379992485046,94.24379992485046,94.24379992485046,94.24379992485046,94.24379992485046,94.24379992485046,94.24379992485046,98.04519033432007,2,3.950160264968872,None,,,,,,,,,,,,,,,,,,19,3,2025-02-18_15h03.59.477,comp,2024.2.4,60.20477325804215,2025-02-18 15h04.11.462313 -0500,
13,13,0,catch,None,None,None,None,None,None,None,None,None,None,2,1.7336537837982178,None,,,,,0,0,0,0,0,13,13,129,98.06035542488098,,,,,,,,,,,,,,,,,,,,,,,,,,,,,,,,,,,,,,,,,,,,,,,,,,,,,,,,,,,,,,,,,,,,,,,,,,,,,,,,,112,78,169,156,82,108,4.0,4.2,-213,7,0,-251,228,-5,98.04622220993042,98.04626512527466,98.04838752746582,98.06035542488098,98.21030449867249,98.21030449867249,98.21030449867249,98.21030449867249,98.21030449867249,98.21030449867249,98.21030449867249,99.81129193305969,2,1.7336537837982178,None,,,,,,,,,,,,,,,,,,19,3,2025-02-18_15h03.59.477,comp,2024.2.4,60.20477325804215,2025-02-18 15h04.11.462313 -0500,
14,14,0,critical,dwh,35.0,3.0,upper,127.0,127.0,125.0,200.0,200.0,125.0,2,2.3839950561523438,None,,,,,0,0,0,0,0,14,14,63,99.82661509513855,,,,,,,,,,,,,,,,,,,,,,,,,,,,,,,,,,,,,,,,,,,,,,,,,,,,,,,,,,,,,,,,,,,,,,,,,,,,,,,,,127.0,127.0,125.0,200.0,200.0,125.0,3.0,3.2,-260,-273,0,-19,258,272,99.81212401390076,99.81216406822205,99.81465363502502,99.82661509513855,99.97696661949158,99.97696661949158,99.97696661949158,99.97696661949158,99.97696661949158,99.97696661949158,99.97696661949158,102.2281973361969,2,2.3839950561523438,None,,,,,,,,,,,,,,,,,,19,3,2025-02-18_15h03.59.477,comp,2024.2.4,60.20477325804215,2025-02-18 15h04.11.462313 -0500,
15,15,0,catch,None,None,None,None,None,None,None,None,None,None,3,1.0856657028198242,None,,,,,0,0,0,0,0,15,15,127,102.24342632293701,,,,,,,,,,,,,,,,,,,,,,,,,,,,,,,,,,,,,,,,,,,,,,,,,,,,,,,,,,,,,,,,,,,,,,,,,,,,,,,,,62,128,78,112,134,191,1.0,1.1,-696,267,-480,288,-232,281,102.22925996780396,102.2292993068695,102.23168540000916,102.24342632293701,102.3935272693634,102.3935272693634,102.3935272693634,102.3935272693634,102.3935272693634,102.3935272693634,102.3935272693634,103.34470629692078,3,1.0856657028198242,None,,,,,,,,,,,,,,,,,,19,3,2025-02-18_15h03.59.477,comp,2024.2.4,60.20477325804215,2025-02-18 15h04.11.462313 -0500,
16,16,0,critical,hwd,35.0,3.0,upper,200.0,125.0,125.0,200.0,127.0,127.0,2,3.7848825454711914,None,,,,,0,0,0,0,0,16,16,99,103.36007356643677,,,,,,,,,,,,,,,,,,,,,,,,,,,,,,,,,,,,,,,,,,,,,,,,,,,,,,,,,,,,,,,,,,,,,,,,,,,,,,,,,200.0,125.0,125.0,200.0,127.0,127.0,3.0,3.1,-258,270,0,12,260,-275,103.34551239013672,103.34555244445801,103.34810400009155,103.36007356643677,103.51025629043579,103.51025629043579,103.51025629043579,103.51025629043579,103.51025629043579,103.51025629043579,103.51025629043579,107.16154742240906,2,3.7848825454711914,None,,,,,,,,,,,,,,,,,,19,3,2025-02-18_15h03.59.477,comp,2024.2.4,60.20477325804215,2025-02-18 15h04.11.462313 -0500,
17,17,0,critical,whd,35.0,2.1,lower,57.0,133.0,133.0,57.0,70.0,70.0,2,3.1930935382843018,None,,,,,0,0,0,0,0,17,17,12,107.17673873901367,,,,,,,,,,,,,,,,,,,,,,,,,,,,,,,,,,,,,,,,,,,,,,,,,,,,,,,,,,,,,,,,,,,,,,,,,,,,,,,,,57.0,133.0,133.0,57.0,70.0,70.0,2.1,2.11,-191,287,0,289,160,-260,107.16234922409058,107.16238927841187,107.16487383842468,107.17673873901367,107.3269190788269,107.3269190788269,107.3269190788269,107.3269190788269,107.3269190788269,107.3269190788269,107.3269190788269,110.37784433364868,2,3.1930935382843018,None,,,,,,,,,,,,,,,,,,19,3,2025-02-18_15h03.59.477,comp,2024.2.4,60.20477325804215,2025-02-18 15h04.11.462313 -0500,
18,18,0,critical,hdw,35.0,2.1,lower,133.0,57.0,70.0,70.0,57.0,133.0,3,5.967261791229248,None,,,,,0,0,0,0,0,18,18,44,110.39354538917542,,,,,,,,,,,,,,,,,,,,,,,,,,,,,,,,,,,,,,,,,,,,,,,,,,,,,,,,,,,,,,,,,,,,,,,,,,,,,,,,,133.0,57.0,70.0,70.0,57.0,133.0,2.1,2.11,-160,270,0,254,198,-273,110.3786609172821,110.37870216369629,110.38070726394653,110.39354538917542,110.54341411590576,110.54341411590576,110.54341411590576,110.54341411590576,110.54341411590576,110.54341411590576,110.54341411590576,116.37819981575012,3,5.967261791229248,None,,,,,,,,,,,,,,,,,,19,3,2025-02-18_15h03.59.477,comp,2024.2.4,60.20477325804215,2025-02-18 15h04.11.462313 -0500,
19,19,0,filler_square,None,None,None,None,None,None,None,None,None,None,3,1.7283661365509033,None,,,,,0,0,0,0,0,19,19,174,116.39326429367065,,,,,,,,,,,,,,,,,,,,,,,,,,,,,,,,,,,,,,,,,,,,,,,,,,,,,,,,,,,,,,,,,,,,,,,,,,,,,,,,,145.3241021751262,157.9647911690431,96.92223166148244,144.34682969272805,159.4032936608313,159.4032936608313,2.1,2.11,-247,256,0,284,248,-261,116.37916731834412,116.37921023368835,116.38139128684998,116.39326429367065,116.54375767707825,116.54375767707825,116.54375767707825,116.54375767707825,116.54375767707825,116.54375767707825,116.54375767707825,118.12793731689453,3,1.7283661365509033,None,,,,,,,,,,,,,,,,,,19,3,2025-02-18_15h03.59.477,comp,2024.2.4,60.20477325804215,2025-02-18 15h04.11.462313 -0500,
20,20,0,critical,whd,35.0,3.0,upper,125.0,200.0,200.0,125.0,127.0,127.0,1,1.4012751579284668,None,,,,,0,0,0,0,0,20,20,87,118.14344096183777,,,,,,,,,,,,,,,,,,,,,,,,,,,,,,,,,,,,,,,,,,,,,,,,,,,,,,,,,,,,,,,,,,,,,,,,,,,,,,,,,125.0,200.0,200.0,125.0,127.0,127.0,3.0,3.2,-258,-265,0,-16,222,262,118.12873578071594,118.12877583503723,118.13116097450256,118.14344096183777,118.29358887672424,118.29358887672424,118.29358887672424,118.29358887672424,118.29358887672424,118.29358887672424,118.29358887672424,119.5613226890564,1,1.4012751579284668,None,,,,,,,,,,,,,,,,,,19,3,2025-02-18_15h03.59.477,comp,2024.2.4,60.20477325804215,2025-02-18 15h04.11.462313 -0500,
21,21,0,filler_random,None,None,None,None,None,None,None,None,None,None,3,1.288208246231079,None,,,,,0,0,0,0,0,21,21,145,119.57652139663696,,,,,,,,,,,,,,,,,,,,,,,,,,,,,,,,,,,,,,,,,,,,,,,,,,,,,,,,,,,,,,,,,,,,,,,,,,,,,,,,,74.56470232871686,124.21796623825308,82.53661029079272,81.902217349222,86.58344771816157,167.94783772514407,4.0,4.1,-199,-256,0,17,221,-271,119.56233477592468,119.56237649917603,119.56495237350464,119.57652139663696,119.7266583442688,119.7266583442688,119.7266583442688,119.7266583442688,119.7266583442688,119.7266583442688,119.7266583442688,120.8777003288269,3,1.288208246231079,None,,,,,,,,,,,,,,,,,,19,3,2025-02-18_15h03.59.477,comp,2024.2.4,60.20477325804215,2025-02-18 15h04.11.462313 -0500,
22,22,0,critical,dhw,35.0,1.0,lower,70.0,70.0,133.0,57.0,57.0,133.0,2,1.5825128555297852,None,,,,,0,0,0,0,0,22,22,48,120.89312553405762,,,,,,,,,,,,,,,,,,,,,,,,,,,,,,,,,,,,,,,,,,,,,,,,,,,,,,,,,,,,,,,,,,,,,,,,,,,,,,,,,70.0,70.0,133.0,57.0,57.0,133.0,1.0,1.2,-160,7,0,-9,191,4,120.87846994400024,120.87851023674011,120.88055634498596,120.89312553405762,121.0434832572937,121.0434832572937,121.0434832572937,121.0434832572937,121.0434832572937,121.0434832572937,121.0434832572937,122.47779679298401,2,1.5825128555297852,None,,,,,,,,,,,,,,,,,,19,3,2025-02-18_15h03.59.477,comp,2024.2.4,60.20477325804215,2025-02-18 15h04.11.462313 -0500,
23,23,0,filler_square,None,None,None,None,None,None,None,None,None,None,2,1.5815093517303467,None,,,,,0,0,0,0,0,23,23,183,122.49353456497192,,,,,,,,,,,,,,,,,,,,,,,,,,,,,,,,,,,,,,,,,,,,,,,,,,,,,,,,,,,,,,,,,,,,,,,,,,,,,,,,,116.91305557525726,122.0010052466658,189.82418373972345,189.82418373972345,186.85628542553752,93.70234824224121,4.0,4.2,-252,5,0,-284,238,9,122.47874855995178,122.47879028320312,122.48093104362488,122.49353456497192,122.64353609085083,122.64353609085083,122.64353609085083,122.64353609085083,122.64353609085083,122.64353609085083,122.64353609085083,124.07803392410278,2,1.5815093517303467,None,,,,,,,,,,,,,,,,,,19,3,2025-02-18_15h03.59.477,comp,2024.2.4,60.20477325804215,2025-02-18 15h04.11.462313 -0500,
24,24,0,critical,hwd,20.0,1.0,lower,133.0,57.0,57.0,133.0,78.0,78.0,1,2.2194976806640625,None,,,,,0,0,0,0,0,24,24,102,124.09371566772461,,,,,,,,,,,,,,,,,,,,,,,,,,,,,,,,,,,,,,,,,,,,,,,,,,,,,,,,,,,,,,,,,,,,,,,,,,,,,,,,,133.0,57.0,57.0,133.0,78.0,78.0,1.0,1.2,-191,-4,0,7,202,16,124.07885146141052,124.07889223098755,124.08100199699402,124.09371566772461,124.24359250068665,124.24359250068665,124.24359250068665,124.24359250068665,124.24359250068665,124.24359250068665,124.24359250068665,126.32770276069641,1,2.2194976806640625,None,,,,,,,,,,,,,,,,,,19,3,2025-02-18_15h03.59.477,comp,2024.2.4,60.20477325804215,2025-02-18 15h04.11.462313 -0500,
25,25,0,filler_random,None,None,None,None,None,None,None,None,None,None,1,1.4424657821655273,None,,,,,0,0,0,0,0,25,25,146,126.34309411048889,,,,,,,,,,,,,,,,,,,,,,,,,,,,,,,,,,,,,,,,,,,,,,,,,,,,,,,,,,,,,,,,,,,,,,,,,,,,,,,,,171.4518187147928,197.81489184317115,163.30906476520505,158.74216442894897,76.15850999105216,89.27043999676854,2.2,2.22,-274,266,0,-284,220,-258,126.32863235473633,126.32867383956909,126.3312394618988,126.34309411048889,126.49352788925171,126.49352788925171,126.49352788925171,126.49352788925171,126.49352788925171,126.49352788925171,126.49352788925171,127.79464030265808,1,1.4424657821655273,None,,,,,,,,,,,,,,,,,,19,3,2025-02-18_15h03.59.477,comp,2024.2.4,60.20477325804215,2025-02-18 15h04.11.462313 -0500,
26,26,0,critical,dhw,35.0,3.0,upper,127.0,127.0,200.0,125.0,125.0,200.0,3,3.167302370071411,None,,,,,0,0,0,0,0,26,26,51,127.81006383895874,,,,,,,,,,,,,,,,,,,,,,,,,,,,,,,,,,,,,,,,,,,,,,,,,,,,,,,,,,,,,,,,,,,,,,,,,,,,,,,,,127.0,127.0,200.0,125.0,125.0,200.0,3.0,3.2,-222,-275,0,-10,258,285,127.7954478263855,127.79548859596252,127.79794144630432,127.81006383895874,127.96010398864746,127.96010398864746,127.96010398864746,127.96010398864746,127.96010398864746,127.96010398864746,127.96010398864746,130.99462985992432,3,3.167302370071411,None,,,,,,,,,,,,,,,,,,19,3,2025-02-18_15h03.59.477,comp,2024.2.4,60.20477325804215,2025-02-18 15h04.11.462313 -0500,
27,27,0,filler_square,None,None,None,None,None,None,None,None,None,None,2,1.0956056118011475,None,,,,,0,0,0,0,0,27,27,189,131.0098171234131,,,,,,,,,,,,,,,,,,,,,,,,,,,,,,,,,,,,,,,,,,,,,,,,,,,,,,,,,,,,,,,,,,,,,,,,,,,,,,,,,57.928954737284606,58.82836923268502,112.09873812480103,112.09873812480103,77.86272954048526,86.8624679527212,2.2,2.21,-181,-276,0,270,195,276,130.99559569358826,130.9956352710724,130.99815821647644,131.0098171234131,131.15985894203186,131.15985894203186,131.15985894203186,131.15985894203186,131.15985894203186,131.15985894203186,131.15985894203186,132.11104130744934,2,1.0956056118011475,None,,,,,,,,,,,,,,,,,,19,3,2025-02-18_15h03.59.477,comp,2024.2.4,60.20477325804215,2025-02-18 15h04.11.462313 -0500,
28,28,0,filler_square,None,None,None,None,None,None,None,None,None,None,2,2.8428945541381836,None,,,,,0,0,0,0,0,28,28,206,132.12667536735535,,,,,,,,,,,,,,,,,,,,,,,,,,,,,,,,,,,,,,,,,,,,,,,,,,,,,,,,,,,,,,,,,,,,,,,,,,,,,,,,,81.37276829452598,74.97187654560265,81.72627403171873,81.72627403171873,72.40372306315425,76.44922343173582,2.2,2.21,-174,-277,0,290,175,272,132.11199688911438,132.11203980445862,132.11443066596985,132.12667536735535,132.27658653259277,132.27658653259277,132.27658653259277,132.27658653259277,132.27658653259277,132.27658653259277,132.27658653259277,134.97766852378845,2,2.8428945541381836,None,,,,,,,,,,,,,,,,,,19,3,2025-02-18_15h03.59.477,comp,2024.2.4,60.20477325804215,2025-02-18 15h04.11.462313 -0500,
29,29,0,filler_square,None,None,None,None,None,None,None,None,None,None,2,0.9033334255218506,None,,,,,0,0,0,0,0,29,29,193,134.99339318275452,,,,,,,,,,,,,,,,,,,,,,,,,,,,,,,,,,,,,,,,,,,,,,,,,,,,,,,,,,,,,,,,,,,,,,,,,,,,,,,,,83.47893267519387,70.577871043768,126.56400932561337,126.56400932561337,92.54403867548476,60.348269307863426,1.0,1.2,-195,14,0,3,189,7,134.97862720489502,134.97866940498352,134.98078846931458,134.99339318275452,135.14334559440613,135.14334559440613,135.14334559440613,135.14334559440613,135.14334559440613,135.14334559440613,135.14334559440613,135.91105604171753,2,0.9033334255218506,None,,,,,,,,,,,,,,,,,,19,3,2025-02-18_15h03.59.477,comp,2024.2.4,60.20477325804215,2025-02-18 15h04.11.462313 -0500,
30,30,0,critical,wdh,20.0,3.0,lower,57.0,133.0,78.0,78.0,133.0,57.0,1,1.722139835357666,None,,,,,0,0,0,0,0,30,30,80,135.92646050453186,,,,,,,,,,,,,,,,,,,,,,,,,,,,,,,,,,,,,,,,,,,,,,,,,,,,,,,,,,,,,,,,,,,,,,,,,,,,,,,,,57.0,133.0,78.0,78.0,133.0,57.0,3.0,3.2,-202,-254,0,-16,164,252,135.91196513175964,135.91200470924377,135.91445350646973,135.92646050453186,136.07647562026978,136.07647562026978,136.07647562026978,136.07647562026978,136.07647562026978,136.07647562026978,136.07647562026978,137.6609959602356,1,1.722139835357666,None,,,,,,,,,,,,,,,,,,19,3,2025-02-18_15h03.59.477,comp,2024.2.4,60.20477325804215,2025-02-18 15h04.11.462313 -0500,
31,31,0,filler_square,None,None,None,None,None,None,None,None,None,None,2,1.0681638717651367,None,,,,,0,0,0,0,0,31,31,175,137.67646598815918,,,,,,,,,,,,,,,,,,,,,,,,,,,,,,,,,,,,,,,,,,,,,,,,,,,,,,,,,,,,,,,,,,,,,,,,,,,,,,,,,65.10633275082408,65.55449055693124,112.79279552858767,112.79279552858767,96.11710089899226,96.47126160830398,1.0,1.3,295,-252,480,-259,681,-252,137.66198921203613,137.6620316505432,137.66459441184998,137.67646598815918,137.8267514705658,137.8267514705658,137.8267514705658,137.8267514705658,137.8267514705658,137.8267514705658,137.8267514705658,138.76094675064087,2,1.0681638717651367,None,,,,,,,,,,,,,,,,,,19,3,2025-02-18_15h03.59.477,comp,2024.2.4,60.20477325804215,2025-02-18 15h04.11.462313 -0500,
32,32,0,critical,dwh,20.0,2.1,lower,78.0,78.0,57.0,133.0,133.0,57.0,2,4.456129312515259,None,,,,,0,0,0,0,0,32,32,6,138.7763900756836,,,,,,,,,,,,,,,,,,,,,,,,,,,,,,,,,,,,,,,,,,,,,,,,,,,,,,,,,,,,,,,,,,,,,,,,,,,,,,,,,78.0,78.0,57.0,133.0,133.0,57.0,2.1,2.11,-202,271,0,257,191,-270,138.7617437839508,138.76178574562073,138.76416182518005,138.7763900756836,138.92645502090454,138.92645502090454,138.92645502090454,138.92645502090454,138.92645502090454,138.92645502090454,138.92645502090454,143.24425959587097,2,4.456129312515259,None,,,,,,,,,,,,,,,,,,19,3,2025-02-18_15h03.59.477,comp,2024.2.4,60.20477325804215,2025-02-18 15h04.11.462313 -0500,
33,33,0,critical,whd,35.0,1.0,lower,57.0,133.0,133.0,57.0,70.0,70.0,2,2.093559980392456,None,,,,,0,0,0,0,0,33,33,84,143.25985455513,,,,,,,,,,,,,,,,,,,,,,,,,,,,,,,,,,,,,,,,,,,,,,,,,,,,,,,,,,,,,,,,,,,,,,,,,,,,,,,,,57.0,133.0,133.0,57.0,70.0,70.0,1.0,1.3,289,-263,480,-260,640,-270,143.245050907135,143.24509167671204,143.2475733757019,143.25985455513,143.4098198413849,143.4098198413849,143.4098198413849,143.4098198413849,143.4098198413849,143.4098198413849,143.4098198413849,145.36083841323853,2,2.093559980392456,None,,,,,,,,,,,,,,,,,,19,3,2025-02-18_15h03.59.477,comp,2024.2.4,60.20477325804215,2025-02-18 15h04.11.462313 -0500,
34,34,0,filler_square,None,None,None,None,None,None,None,None,None,None,3,0.9447500705718994,None,,,,,0,0,0,0,0,34,34,187,145.37658953666687,,,,,,,,,,,,,,,,,,,,,,,,,,,,,,,,,,,,,,,,,,,,,,,,,,,,,,,,,,,,,,,,,,,,,,,,,,,,,,,,,181.80560792022044,90.09116840800431,74.42264052401248,77.35964388970595,192.17167382004044,192.17167382004044,2.2,2.22,-180,262,0,-257,231,-284,145.36176228523254,145.3618140220642,145.36410546302795,145.37658953666687,145.5267698764801,145.5267698764801,145.5267698764801,145.5267698764801,145.5267698764801,145.5267698764801,145.5267698764801,146.3277382850647,3,0.9447500705718994,None,,,,,,,,,,,,,,,,,,19,3,2025-02-18_15h03.59.477,comp,2024.2.4,60.20477325804215,2025-02-18 15h04.11.462313 -0500,
35,35,0,catch,None,None,None,None,None,None,None,None,None,None,3,0.801318883895874,None,,,,,0,0,0,0,0,35,35,122,146.34323406219482,,,,,,,,,,,,,,,,,,,,,,,,,,,,,,,,,,,,,,,,,,,,,,,,,,,,,,,,,,,,,,,,,,,,,,,,,,,,,,,,,108,82,130,60,170,155,3.0,3.2,-167,-272,0,11,204,259,146.32881903648376,146.32886385917664,146.3314552307129,146.34323406219482,146.49325275421143,146.49325275421143,146.49325275421143,146.49325275421143,146.49325275421143,146.49325275421143,146.49325275421143,147.1609320640564,3,0.801318883895874,None,,,,,,,,,,,,,,,,,,19,3,2025-02-18_15h03.59.477,comp,2024.2.4,60.20477325804215,2025-02-18 15h04.11.462313 -0500,
36,36,0,filler_random,None,None,None,None,None,None,None,None,None,None,3,2.2417359352111816,None,,,,,0,0,0,0,0,36,36,149,147.17633032798767,,,,,,,,,,,,,,,,,,,,,,,,,,,,,,,,,,,,,,,,,,,,,,,,,,,,,,,,,,,,,,,,,,,,,,,,,,,,,,,,,117.19367353269791,153.59146440358808,181.74426858660644,98.59625758153533,149.78185200640723,186.67110235618583,2.2,2.22,-222,279,0,-277,239,-271,147.161851644516,147.16189289093018,147.16424679756165,147.17633032798767,147.32661700248718,147.32661700248718,147.32661700248718,147.32661700248718,147.32661700248718,147.32661700248718,147.32661700248718,149.4277822971344,3,2.2417359352111816,None,,,,,,,,,,,,,,,,,,19,3,2025-02-18_15h03.59.477,comp,2024.2.4,60.20477325804215,2025-02-18 15h04.11.462313 -0500,
37,37,0,critical,dhw,35.0,2.1,upper,127.0,127.0,200.0,125.0,125.0,200.0,3,8.278211116790771,None,,,,,0,0,0,0,0,37,37,25,149.44320845603943,,,,,,,,,,,,,,,,,,,,,,,,,,,,,,,,,,,,,,,,,,,,,,,,,,,,,,,,,,,,,,,,,,,,,,,,,,,,,,,,,127.0,127.0,200.0,125.0,125.0,200.0,2.1,2.11,-222,281,0,265,258,-280,149.42861151695251,149.42865300178528,149.43094682693481,149.44320845603943,149.59318280220032,149.59318280220032,149.59318280220032,149.59318280220032,149.59318280220032,149.59318280220032,149.59318280220032,157.72762894630432,3,8.278211116790771,None,,,,,,,,,,,,,,,,,,19,3,2025-02-18_15h03.59.477,comp,2024.2.4,60.20477325804215,2025-02-18 15h04.11.462313 -0500,
38,38,0,critical,hdw,20.0,4.0,lower,133.0,57.0,78.0,78.0,57.0,133.0,1,1.6421637535095215,None,,,,,0,0,0,0,0,38,38,118,157.74317860603333,,,,,,,,,,,,,,,,,,,,,,,,,,,,,,,,,,,,,,,,,,,,,,,,,,,,,,,,,,,,,,,,,,,,,,,,,,,,,,,,,133.0,57.0,78.0,78.0,57.0,133.0,4.0,4.1,-164,-258,0,-20,202,-278,157.72843718528748,157.72847867012024,157.73106026649475,157.74317860603333,157.89295029640198,157.89295029640198,157.89295029640198,157.89295029640198,157.89295029640198,157.89295029640198,157.89295029640198,159.39402890205383,1,1.6421637535095215,None,,,,,,,,,,,,,,,,,,19,3,2025-02-18_15h03.59.477,comp,2024.2.4,60.20477325804215,2025-02-18 15h04.11.462313 -0500,
39,39,0,filler_square,None,None,None,None,None,None,None,None,None,None,3,1.3187167644500732,None,,,,,0,0,0,0,0,39,39,201,159.40970396995544,,,,,,,,,,,,,,,,,,,,,,,,,,,,,,,,,,,,,,,,,,,,,,,,,,,,,,,,,,,,,,,,,,,,,,,,,,,,,,,,,60.44166842257652,63.32971999465226,69.26581506251196,66.48191905978041,100.92007987921416,100.92007987921416,3.0,3.2,-161,-252,0,-16,180,271,159.39498209953308,159.39502215385437,159.39705419540405,159.40970396995544,159.5595986843109,159.5595986843109,159.5595986843109,159.5595986843109,159.5595986843109,159.5595986843109,159.5595986843109,160.7444531917572,3,1.3187167644500732,None,,,,,,,,,,,,,,,,,,19,3,2025-02-18_15h03.59.477,comp,2024.2.4,60.20477325804215,2025-02-18 15h04.11.462313 -0500,
40,40,0,filler_random,None,None,None,None,None,None,None,None,None,None,3,4.258121967315674,None,,,,,0,0,0,0,0,40,40,169,160.7595145702362,,,,,,,,,,,,,,,,,,,,,,,,,,,,,,,,,,,,,,,,,,,,,,,,,,,,,,,,,,,,,,,,,,,,,,,,,,,,,,,,,75.61219176567619,175.71721425861006,75.93857131654372,134.12649075133828,69.99670036116042,194.2732253507329,4.0,4.2,-251,1,0,-259,260,16,160.74535155296326,160.74539375305176,160.74787020683289,160.7595145702362,160.90966057777405,160.90966057777405,160.90966057777405,160.90966057777405,160.90966057777405,160.90966057777405,160.90966057777405,165.02741050720215,3,4.258121967315674,None,,,,,,,,,,,,,,,,,,19,3,2025-02-18_15h03.59.477,comp,2024.2.4,60.20477325804215,2025-02-18 15h04.11.462313 -0500,
41,41,0,critical,wdh,20.0,4.0,upper,125.0,200.0,141.0,141.0,200.0,125.0,3,5.342127323150635,None,,,,,0,0,0,0,0,41,41,83,165.04301238059998,,,,,,,,,,,,,,,,,,,,,,,,,,,,,,,,,,,,,,,,,,,,,,,,,,,,,,,,,,,,,,,,,,,,,,,,,,,,,,,,,125.0,200.0,141.0,141.0,200.0,125.0,4.0,4.1,-266,-266,0,-3,229,-277,165.02822089195251,165.02826261520386,165.03068494796753,165.04301238059998,165.19318151474,165.19318151474,165.19318151474,165.19318151474,165.19318151474,165.19318151474,165.19318151474,170.39427876472473,3,5.342127323150635,None,,,,,,,,,,,,,,,,,,19,3,2025-02-18_15h03.59.477,comp,2024.2.4,60.20477325804215,2025-02-18 15h04.11.462313 -0500,
42,42,0,critical,hwd,35.0,2.1,lower,133.0,57.0,57.0,133.0,70.0,70.0,1,1.1668524742126465,None,,,,,0,0,0,0,0,42,42,40,170.40976238250732,,,,,,,,,,,,,,,,,,,,,,,,,,,,,,,,,,,,,,,,,,,,,,,,,,,,,,,,,,,,,,,,,,,,,,,,,,,,,,,,,133.0,57.0,57.0,133.0,70.0,70.0,2.1,2.11,-191,261,0,285,198,-270,170.39505553245544,170.39509654045105,170.3971619606018,170.40976238250732,170.55950021743774,170.55950021743774,170.55950021743774,170.55950021743774,170.55950021743774,170.55950021743774,170.55950021743774,171.59424495697021,1,1.1668524742126465,None,,,,,,,,,,,,,,,,,,19,3,2025-02-18_15h03.59.477,comp,2024.2.4,60.20477325804215,2025-02-18 15h04.11.462313 -0500,
43,43,0,critical,dwh,35.0,2.1,lower,70.0,70.0,57.0,133.0,133.0,57.0,3,2.638749122619629,None,,,,,0,0,0,0,0,43,43,28,171.6094353199005,,,,,,,,,,,,,,,,,,,,,,,,,,,,,,,,,,,,,,,,,,,,,,,,,,,,,,,,,,,,,,,,,,,,,,,,,,,,,,,,,70.0,70.0,57.0,133.0,133.0,57.0,2.1,2.11,-198,256,0,253,191,-255,171.59504961967468,171.59509110450745,171.59749698638916,171.6094353199005,171.75953245162964,171.75953245162964,171.75953245162964,171.75953245162964,171.75953245162964,171.75953245162964,171.75953245162964,174.26083827018738,3,2.638749122619629,None,,,,,,,,,,,,,,,,,,19,3,2025-02-18_15h03.59.477,comp,2024.2.4,60.20477325804215,2025-02-18 15h04.11.462313 -0500,
44,44,0,critical,whd,35.0,3.0,lower,57.0,133.0,133.0,57.0,70.0,70.0,1,2.2144298553466797,None,,,,,0,0,0,0,0,44,44,86,174.27627611160278,,,,,,,,,,,,,,,,,,,,,,,,,,,,,,,,,,,,,,,,,,,,,,,,,,,,,,,,,,,,,,,,,,,,,,,,,,,,,,,,,57.0,133.0,133.0,57.0,70.0,70.0,3.0,3.2,-191,-261,0,10,160,262,174.26164722442627,174.26168775558472,174.26500368118286,174.27627611160278,174.42617535591125,174.42617535591125,174.42617535591125,174.42617535591125,174.42617535591125,174.42617535591125,174.42617535591125,176.49418139457703,1,2.2144298553466797,None,,,,,,,,,,,,,,,,,,19,3,2025-02-18_15h03.59.477,comp,2024.2.4,60.20477325804215,2025-02-18 15h04.11.462313 -0500,
45,45,0,filler_square,None,None,None,None,None,None,None,None,None,None,2,1.0113639831542969,None,,,,,0,0,0,0,0,45,45,178,176.50969314575195,,,,,,,,,,,,,,,,,,,,,,,,,,,,,,,,,,,,,,,,,,,,,,,,,,,,,,,,,,,,,,,,,,,,,,,,,,,,,,,,,96.89746361710701,97.8589064552771,122.67238638433518,122.67238638433518,59.84456126456794,88.01184264457021,3.0,3.1,-206,274,0,-3,201,-265,176.495099067688,176.49513912200928,176.49717807769775,176.50969314575195,176.65968298912048,176.65968298912048,176.65968298912048,176.65968298912048,176.65968298912048,176.65968298912048,176.65968298912048,177.5273129940033,2,1.0113639831542969,None,,,,,,,,,,,,,,,,,,19,3,2025-02-18_15h03.59.477,comp,2024.2.4,60.20477325804215,2025-02-18 15h04.11.462313 -0500,
46,46,0,filler_random,None,None,None,None,None,None,None,None,None,None,2,1.5000479221343994,None,,,,,0,0,0,0,0,46,46,135,177.542897939682,,,,,,,,,,,,,,,,,,,,,,,,,,,,,,,,,,,,,,,,,,,,,,,,,,,,,,,,,,,,,,,,,,,,,,,,,,,,,,,,,113.42464330074232,167.17365350487785,129.77749876290076,190.76629652340176,70.72962953481672,119.05417377797743,2.1,2.12,-275,-275,0,-281,251,278,177.52822613716125,177.5282678604126,177.530770778656,177.542897939682,177.6929111480713,177.6929111480713,177.6929111480713,177.6929111480713,177.6929111480713,177.6929111480713,177.6929111480713,179.04428243637085,2,1.5000479221343994,None,,,,,,,,,,,,,,,,,,19,3,2025-02-18_15h03.59.477,comp,2024.2.4,60.20477325804215,2025-02-18 15h04.11.462313 -0500,
47,47,0,filler_random,None,None,None,None,None,None,None,None,None,None,2,1.5725018978118896,None,,,,,0,0,0,0,0,47,47,143,179.05961203575134,,,,,,,,,,,,,,,,,,,,,,,,,,,,,,,,,,,,,,,,,,,,,,,,,,,,,,,,,,,,,,,,,,,,,,,,,,,,,,,,,167.58553486088815,98.82378952170903,135.62102923132005,169.23846475283145,79.49483684219304,146.83651650031828,2.2,2.22,-230,278,0,-255,254,-282,179.04519891738892,179.04523992538452,179.04735732078552,179.05961203575134,179.20953631401062,179.20953631401062,179.20953631401062,179.20953631401062,179.20953631401062,179.20953631401062,179.20953631401062,180.64451146125793,2,1.5725018978118896,None,,,,,,,,,,,,,,,,,,19,3,2025-02-18_15h03.59.477,comp,2024.2.4,60.20477325804215,2025-02-18 15h04.11.462313 -0500,
48,48,0,filler_random,None,None,None,None,None,None,None,None,None,None,3,4.141790390014648,None,,,,,0,0,0,0,0,48,48,138,180.65932416915894,,,,,,,,,,,,,,,,,,,,,,,,,,,,,,,,,,,,,,,,,,,,,,,,,,,,,,,,,,,,,,,,,,,,,,,,,,,,,,,,,115.65780705233115,59.22446354155631,98.43267732317715,90.08473362415015,80.60011969692857,120.55795877010391,2.2,2.21,-171,-285,0,271,201,254,180.6454153060913,180.64545512199402,180.6478991508484,180.65932416915894,180.8096466064453,180.8096466064453,180.8096466064453,180.8096466064453,180.8096466064453,180.8096466064453,180.8096466064453,184.81050729751587,3,4.141790390014648,None,,,,,,,,,,,,,,,,,,19,3,2025-02-18_15h03.59.477,comp,2024.2.4,60.20477325804215,2025-02-18 15h04.11.462313 -0500,
49,49,0,filler_square,None,None,None,None,None,None,None,None,None,None,1,2.864136219024658,None,,,,,0,0,0,0,0,49,49,200,184.82633709907532,,,,,,,,,,,,,,,,,,,,,,,,,,,,,,,,,,,,,,,,,,,,,,,,,,,,,,,,,,,,,,,,,,,,,,,,,,,,,,,,,145.85752388926434,145.85752388926434,144.25456913091472,138.35599365880643,132.73715714516965,118.29810885081275,4.0,4.2,-238,6,0,-264,224,-9,184.8114824295044,184.8115234375,184.81406664848328,184.82633709907532,184.976158618927,184.976158618927,184.976158618927,184.976158618927,184.976158618927,184.976158618927,184.976158618927,187.69414448738098,1,2.864136219024658,None,,,,,,,,,,,,,,,,,,19,3,2025-02-18_15h03.59.477,comp,2024.2.4,60.20477325804215,2025-02-18 15h04.11.462313 -0500,
50,50,0,filler_square,None,None,None,None,None,None,None,None,None,None,1,2.1865713596343994,None,,,,,0,0,0,0,0,50,50,202,187.70964574813843,,,,,,,,,,,,,,,,,,,,,,,,,,,,,,,,,,,,,,,,,,,,,,,,,,,,,,,,,,,,,,,,,,,,,,,,,,,,,,,,,83.1920837565353,83.1920837565353,67.46022655824241,63.35064859990801,65.4647722123942,65.03005342023077,2.2,2.21,-169,-255,0,281,160,270,187.69511604309082,187.69515681266785,187.697265625,187.70964574813843,187.85932326316833,187.85932326316833,187.85932326316833,187.85932326316833,187.85932326316833,187.85932326316833,187.85932326316833,189.91036558151245,1,2.1865713596343994,None,,,,,,,,,,,,,,,,,,19,3,2025-02-18_15h03.59.477,comp,2024.2.4,60.20477325804215,2025-02-18 15h04.11.462313 -0500,
51,51,0,critical,dwh,35.0,1.0,upper,127.0,127.0,125.0,200.0,200.0,125.0,3,0.9547967910766602,None,,,,,0,0,0,0,0,51,51,61,189.92592334747314,,,,,,,,,,,,,,,,,,,,,,,,,,,,,,,,,,,,,,,,,,,,,,,,,,,,,,,,,,,,,,,,,,,,,,,,,,,,,,,,,127.0,127.0,125.0,200.0,200.0,125.0,1.0,1.2,-260,8,0,5,258,-10,189.91118550300598,189.91122603416443,189.91372156143188,189.92592334747314,190.07621455192566,190.07621455192566,190.07621455192566,190.07621455192566,190.07621455192566,190.07621455192566,190.07621455192566,190.8941261768341,3,0.9547967910766602,None,,,,,,,,,,,,,,,,,,19,3,2025-02-18_15h03.59.477,comp,2024.2.4,60.20477325804215,2025-02-18 15h04.11.462313 -0500,
52,52,0,filler_random,None,None,None,None,None,None,None,None,None,None,1,1.186748743057251,None,,,,,0,0,0,0,0,52,52,153,190.90950632095337,,,,,,,,,,,,,,,,,,,,,,,,,,,,,,,,,,,,,,,,,,,,,,,,,,,,,,,,,,,,,,,,,,,,,,,,,,,,,,,,,199.412522135957,135.92729985863878,174.42665643369722,83.76573605338845,100.91853084922184,79.46933535711437,1.0,1.1,-686,273,-480,259,-302,264,190.89506554603577,190.8951060771942,190.89847445487976,190.90950632095337,191.05949020385742,191.05949020385742,191.05949020385742,191.05949020385742,191.05949020385742,191.05949020385742,191.05949020385742,192.1107177734375,1,1.186748743057251,None,,,,,,,,,,,,,,,,,,19,3,2025-02-18_15h03.59.477,comp,2024.2.4,60.20477325804215,2025-02-18 15h04.11.462313 -0500,
53,53,0,filler_random,None,None,None,None,None,None,None,None,None,None,1,1.9061386585235596,None,,,,,0,0,0,0,0,53,53,154,192.1258659362793,,,,,,,,,,,,,,,,,,,,,,,,,,,,,,,,,,,,,,,,,,,,,,,,,,,,,,,,,,,,,,,,,,,,,,,,,,,,,,,,,171.60481521182618,150.08735893431174,114.69510249500928,111.6529211631002,168.90319314328008,66.7344267996827,2.1,2.11,-227,287,0,269,185,-267,192.1116588115692,192.11170029640198,192.1142704486847,192.1258659362793,192.27617383003235,192.27617383003235,192.27617383003235,192.27617383003235,192.27617383003235,192.27617383003235,192.27617383003235,194.0439431667328,1,1.9061386585235596,None,,,,,,,,,,,,,,,,,,19,3,2025-02-18_15h03.59.477,comp,2024.2.4,60.20477325804215,2025-02-18 15h04.11.462313 -0500,
54,54,0,critical,wdh,20.0,2.1,upper,125.0,200.0,141.0,141.0,200.0,125.0,1,3.967174530029297,None,,,,,0,0,0,0,0,54,54,35,194.05919313430786,,,,,,,,,,,,,,,,,,,,,,,,,,,,,,,,,,,,,,,,,,,,,,,,,,,,,,,,,,,,,,,,,,,,,,,,,,,,,,,,,125.0,200.0,141.0,141.0,200.0,125.0,2.1,2.11,-266,269,0,260,229,-282,194.04473853111267,194.04477977752686,194.04714274406433,194.05919313430786,194.20948934555054,194.20948934555054,194.20948934555054,194.20948934555054,194.20948934555054,194.20948934555054,194.20948934555054,198.04410672187805,1,3.967174530029297,None,,,,,,,,,,,,,,,,,,19,3,2025-02-18_15h03.59.477,comp,2024.2.4,60.20477325804215,2025-02-18 15h04.11.462313 -0500,
55,55,0,critical,hdw,35.0,3.0,lower,133.0,57.0,70.0,70.0,57.0,133.0,1,4.815148591995239,None,,,,,0,0,0,0,0,55,55,110,198.05921506881714,,,,,,,,,,,,,,,,,,,,,,,,,,,,,,,,,,,,,,,,,,,,,,,,,,,,,,,,,,,,,,,,,,,,,,,,,,,,,,,,,133.0,57.0,70.0,70.0,57.0,133.0,3.0,3.2,-160,-253,0,-17,198,267,198.04488801956177,198.04492688179016,198.04692578315735,198.05921506881714,198.20935440063477,198.20935440063477,198.20935440063477,198.20935440063477,198.20935440063477,198.20935440063477,198.20935440063477,202.8772051334381,1,4.815148591995239,None,,,,,,,,,,,,,,,,,,19,3,2025-02-18_15h03.59.477,comp,2024.2.4,60.20477325804215,2025-02-18 15h04.11.462313 -0500,
56,56,0,filler_square,None,None,None,None,None,None,None,None,None,None,1,1.0353500843048096,None,,,,,0,0,0,0,0,56,56,192,202.89275574684143,,,,,,,,,,,,,,,,,,,,,,,,,,,,,,,,,,,,,,,,,,,,,,,,,,,,,,,,,,,,,,,,,,,,,,,,,,,,,,,,,140.40825352633482,140.40825352633482,97.19831264126583,80.58854826966464,86.53674895661904,125.29900465576084,4.0,4.1,-206,-268,0,-13,199,-279,202.87817406654358,202.8782148361206,202.88032698631287,202.89275574684143,203.04265832901,203.04265832901,203.04265832901,203.04265832901,203.04265832901,203.04265832901,203.04265832901,203.94371438026428,1,1.0353500843048096,None,,,,,,,,,,,,,,,,,,19,3,2025-02-18_15h03.59.477,comp,2024.2.4,60.20477325804215,2025-02-18 15h04.11.462313 -0500,
57,57,0,critical,whd,20.0,3.0,upper,125.0,200.0,200.0,125.0,141.0,141.0,1,2.1777100563049316,None,,,,,0,0,0,0,0,57,57,93,203.95918345451355,,,,,,,,,,,,,,,,,,,,,,,,,,,,,,,,,,,,,,,,,,,,,,,,,,,,,,,,,,,,,,,,,,,,,,,,,,,,,,,,,125.0,200.0,200.0,125.0,141.0,141.0,3.0,3.2,-258,-273,0,-19,229,258,203.9446201324463,203.94466090202332,203.9472532272339,203.95918345451355,204.10939526557922,204.10939526557922,204.10939526557922,204.10939526557922,204.10939526557922,204.10939526557922,204.10939526557922,206.1439459323883,1,2.1777100563049316,None,,,,,,,,,,,,,,,,,,19,3,2025-02-18_15h03.59.477,comp,2024.2.4,60.20477325804215,2025-02-18 15h04.11.462313 -0500,
58,58,0,filler_square,None,None,None,None,None,None,None,None,None,None,2,1.0725314617156982,None,,,,,0,0,0,0,0,58,58,171,206.15936064720154,,,,,,,,,,,,,,,,,,,,,,,,,,,,,,,,,,,,,,,,,,,,,,,,,,,,,,,,,,,,,,,,,,,,,,,,,,,,,,,,,126.2190437368355,141.66324843928913,154.91006445896244,154.91006445896244,70.97777528415189,98.00585375590929,1.0,1.3,236,-271,480,-259,702,-279,206.14491391181946,206.14495491981506,206.1470696926117,206.15936064720154,206.30928325653076,206.30928325653076,206.30928325653076,206.30928325653076,206.30928325653076,206.30928325653076,206.30928325653076,207.2439410686493,2,1.0725314617156982,None,,,,,,,,,,,,,,,,,,19,3,2025-02-18_15h03.59.477,comp,2024.2.4,60.20477325804215,2025-02-18 15h04.11.462313 -0500,
59,59,0,filler_random,None,None,None,None,None,None,None,None,None,None,3,1.3504774570465088,None,,,,,0,0,0,0,0,59,59,142,207.25905442237854,,,,,,,,,,,,,,,,,,,,,,,,,,,,,,,,,,,,,,,,,,,,,,,,,,,,,,,,,,,,,,,,,,,,,,,,,,,,,,,,,113.96703467536477,71.26539692798956,109.34251952130214,181.65454595562534,143.7528838555955,147.55412783399862,2.2,2.22,-222,280,0,-278,261,-264,207.24486660957336,207.2449073791504,207.24710083007812,207.25905442237854,207.40920996665955,207.40920996665955,207.40920996665955,207.40920996665955,207.40920996665955,207.40920996665955,207.40920996665955,208.6107475757599,3,1.3504774570465088,None,,,,,,,,,,,,,,,,,,19,3,2025-02-18_15h03.59.477,comp,2024.2.4,60.20477325804215,2025-02-18 15h04.11.462313 -0500,
60,60,0,critical,wdh,35.0,4.0,upper,125.0,200.0,127.0,127.0,200.0,125.0,3,1.433081865310669,None,,,,,0,0,0,0,0,60,60,77,208.62592673301697,,,,,,,,,,,,,,,,,,,,,,,,,,,,,,,,,,,,,,,,,,,,,,,,,,,,,,,,,,,,,,,,,,,,,,,,,,,,,,,,,125.0,200.0,127.0,127.0,200.0,125.0,4.0,4.2,-260,-19,0,-282,222,-13,208.61154222488403,208.61158275604248,208.61372208595276,208.62592673301697,208.77609014511108,208.77609014511108,208.77609014511108,208.77609014511108,208.77609014511108,208.77609014511108,208.77609014511108,210.07717943191528,3,1.433081865310669,None,,,,,,,,,,,,,,,,,,19,3,2025-02-18_15h03.59.477,comp,2024.2.4,60.20477325804215,2025-02-18 15h04.11.462313 -0500,
61,61,0,filler_square,None,None,None,None,None,None,None,None,None,None,2,4.492512941360474,None,,,,,0,0,0,0,0,61,61,207,210.09232473373413,,,,,,,,,,,,,,,,,,,,,,,,,,,,,,,,,,,,,,,,,,,,,,,,,,,,,,,,,,,,,,,,,,,,,,,,,,,,,,,,,67.71373491711365,67.71373491711365,67.36745933903156,65.74761537653795,66.31445575493375,64.82543804023808,3.0,3.1,-163,253,0,17,161,-281,210.07816362380981,210.0782060623169,210.08066082000732,210.09232473373413,210.24269342422485,210.24269342422485,210.24269342422485,210.24269342422485,210.24269342422485,210.24269342422485,210.24269342422485,214.59348940849304,2,4.492512941360474,None,,,,,,,,,,,,,,,,,,19,3,2025-02-18_15h03.59.477,comp,2024.2.4,60.20477325804215,2025-02-18 15h04.11.462313 -0500,
62,62,0,catch,None,None,None,None,None,None,None,None,None,None,1,0.9346275329589844,None,,,,,0,0,0,0,0,62,62,120,214.60931873321533,,,,,,,,,,,,,,,,,,,,,,,,,,,,,,,,,,,,,,,,,,,,,,,,,,,,,,,,,,,,,,,,,,,,,,,,,,,,,,,,,181,144,107,83,69,121,2.2,2.22,-210,255,0,-261,198,-282,214.59454083442688,214.59458231925964,214.59709882736206,214.60931873321533,214.75931811332703,214.75931811332703,214.75931811332703,214.75931811332703,214.75931811332703,214.75931811332703,214.75931811332703,215.5603542327881,1,0.9346275329589844,None,,,,,,,,,,,,,,,,,,19,3,2025-02-18_15h03.59.477,comp,2024.2.4,60.20477325804215,2025-02-18 15h04.11.462313 -0500,
63,63,0,critical,hdw,35.0,2.1,upper,200.0,125.0,127.0,127.0,125.0,200.0,1,8.208991289138794,None,,,,,0,0,0,0,0,63,63,45,215.5756287574768,,,,,,,,,,,,,,,,,,,,,,,,,,,,,,,,,,,,,,,,,,,,,,,,,,,,,,,,,,,,,,,,,,,,,,,,,,,,,,,,,200.0,125.0,127.0,127.0,125.0,200.0,2.1,2.11,-222,250,0,256,260,-257,215.56115984916687,215.56119918823242,215.5636396408081,215.5756287574768,215.72607159614563,215.72607159614563,215.72607159614563,215.72607159614563,215.72607159614563,215.72607159614563,215.72607159614563,223.79374766349792,1,8.208991289138794,None,,,,,,,,,,,,,,,,,,19,3,2025-02-18_15h03.59.477,comp,2024.2.4,60.20477325804215,2025-02-18 15h04.11.462313 -0500,
64,64,0,filler_square,None,None,None,None,None,None,None,None,None,None,2,0.9113619327545166,None,,,,,0,0,0,0,0,64,64,209,223.80925965309143,,,,,,,,,,,,,,,,,,,,,,,,,,,,,,,,,,,,,,,,,,,,,,,,,,,,,,,,,,,,,,,,,,,,,,,,,,,,,,,,,57.99517393821254,68.18327920176586,90.14509068445074,90.14509068445074,79.26750500758158,57.21308011157416,1.0,1.2,-175,-17,0,-17,170,7,223.79469656944275,223.7947380542755,223.79721999168396,223.80925965309143,223.95902585983276,223.95902585983276,223.95902585983276,223.95902585983276,223.95902585983276,223.95902585983276,223.95902585983276,224.7268567085266,2,0.9113619327545166,None,,,,,,,,,,,,,,,,,,19,3,2025-02-18_15h03.59.477,comp,2024.2.4,60.20477325804215,2025-02-18 15h04.11.462313 -0500,
65,65,0,critical,hdw,35.0,1.0,lower,133.0,57.0,70.0,70.0,57.0,133.0,1,1.683281660079956,None,,,,,0,0,0,0,0,65,65,108,224.7425615787506,,,,,,,,,,,,,,,,,,,,,,,,,,,,,,,,,,,,,,,,,,,,,,,,,,,,,,,,,,,,,,,,,,,,,,,,,,,,,,,,,133.0,57.0,70.0,70.0,57.0,133.0,1.0,1.2,-160,6,0,10,198,7,224.72761988639832,224.72765946388245,224.72961139678955,224.7425615787506,224.89239192008972,224.89239192008972,224.89239192008972,224.89239192008972,224.89239192008972,224.89239192008972,224.89239192008972,226.42701148986816,1,1.683281660079956,None,,,,,,,,,,,,,,,,,,19,3,2025-02-18_15h03.59.477,comp,2024.2.4,60.20477325804215,2025-02-18 15h04.11.462313 -0500,
66,66,0,filler_random,None,None,None,None,None,None,None,None,None,None,2,0.9835958480834961,None,,,,,0,0,0,0,0,66,66,152,226.4424591064453,,,,,,,,,,,,,,,,,,,,,,,,,,,,,,,,,,,,,,,,,,,,,,,,,,,,,,,,,,,,,,,,,,,,,,,,,,,,,,,,,89.65450860180617,139.6114277440313,137.4508470383015,191.50238621921915,137.9934470567935,169.54066327454154,2.1,2.11,-262,275,0,255,277,-264,226.42793345451355,226.42797374725342,226.43039083480835,226.4424591064453,226.59261059761047,226.59261059761047,226.59261059761047,226.59261059761047,226.59261059761047,226.59261059761047,226.59261059761047,227.44359159469604,2,0.9835958480834961,None,,,,,,,,,,,,,,,,,,19,3,2025-02-18_15h03.59.477,comp,2024.2.4,60.20477325804215,2025-02-18 15h04.11.462313 -0500,
67,67,0,filler_square,None,None,None,None,None,None,None,None,None,None,3,3.542008399963379,None,,,,,0,0,0,0,0,67,67,173,227.45887517929077,,,,,,,,,,,,,,,,,,,,,,,,,,,,,,,,,,,,,,,,,,,,,,,,,,,,,,,,,,,,,,,,,,,,,,,,,,,,,,,,,62.24321529381225,60.86720934310286,68.00482777789273,66.7023907336497,71.53793424385758,71.53793424385758,2.2,2.21,-160,-280,0,264,165,264,227.44455647468567,227.44459915161133,227.44716596603394,227.45887517929077,227.60898971557617,227.60898971557617,227.60898971557617,227.60898971557617,227.60898971557617,227.60898971557617,227.60898971557617,231.01013326644897,3,3.542008399963379,None,,,,,,,,,,,,,,,,,,19,3,2025-02-18_15h03.59.477,comp,2024.2.4,60.20477325804215,2025-02-18 15h04.11.462313 -0500,
68,68,0,critical,whd,35.0,4.0,lower,57.0,133.0,133.0,57.0,70.0,70.0,1,2.3747146129608154,None,,,,,0,0,0,0,0,68,68,88,231.02584385871887,,,,,,,,,,,,,,,,,,,,,,,,,,,,,,,,,,,,,,,,,,,,,,,,,,,,,,,,,,,,,,,,,,,,,,,,,,,,,,,,,57.0,133.0,133.0,57.0,70.0,70.0,4.0,4.1,-191,-280,0,-9,160,-290,231.01092219352722,231.01096320152283,231.01340246200562,231.02584385871887,231.17562103271484,231.17562103271484,231.17562103271484,231.17562103271484,231.17562103271484,231.17562103271484,231.17562103271484,233.41007256507874,1,2.3747146129608154,None,,,,,,,,,,,,,,,,,,19,3,2025-02-18_15h03.59.477,comp,2024.2.4,60.20477325804215,2025-02-18 15h04.11.462313 -0500,
69,69,0,critical,dwh,35.0,2.1,upper,127.0,127.0,125.0,200.0,200.0,125.0,2,4.464031457901001,None,,,,,0,0,0,0,0,69,69,29,233.42578721046448,,,,,,,,,,,,,,,,,,,,,,,,,,,,,,,,,,,,,,,,,,,,,,,,,,,,,,,,,,,,,,,,,,,,,,,,,,,,,,,,,127.0,127.0,125.0,200.0,200.0,125.0,2.1,2.11,-260,255,0,281,258,-276,233.41091442108154,233.41095542907715,233.41332411766052,233.42578721046448,233.57688331604004,233.57688331604004,233.57688331604004,233.57688331604004,233.57688331604004,233.57688331604004,233.57688331604004,237.89369702339172,2,4.464031457901001,None,,,,,,,,,,,,,,,,,,19,3,2025-02-18_15h03.59.477,comp,2024.2.4,60.20477325804215,2025-02-18 15h04.11.462313 -0500,
70,70,0,critical,hdw,20.0,1.0,upper,200.0,125.0,141.0,141.0,125.0,200.0,1,3.933236598968506,None,,,,,0,0,0,0,0,70,70,115,237.9091157913208,,,,,,,,,,,,,,,,,,,,,,,,,,,,,,,,,,,,,,,,,,,,,,,,,,,,,,,,,,,,,,,,,,,,,,,,,,,,,,,,,200.0,125.0,141.0,141.0,125.0,200.0,1.0,1.2,-229,-16,0,-6,266,7,237.89448952674866,237.89452981948853,237.89699625968933,237.9091157913208,238.0591287612915,238.0591287612915,238.0591287612915,238.0591287612915,238.0591287612915,238.0591287612915,238.0591287612915,241.8437876701355,1,3.933236598968506,None,,,,,,,,,,,,,,,,,,19,3,2025-02-18_15h03.59.477,comp,2024.2.4,60.20477325804215,2025-02-18 15h04.11.462313 -0500,
71,71,0,catch,None,None,None,None,None,None,None,None,None,None,1,1.3414831161499023,None,,,,,0,0,0,0,0,71,71,126,241.85903882980347,,,,,,,,,,,,,,,,,,,,,,,,,,,,,,,,,,,,,,,,,,,,,,,,,,,,,,,,,,,,,,,,,,,,,,,,,,,,,,,,,175,150,68,122,90,100,4.0,4.2,-232,6,0,-282,207,9,241.84484219551086,241.8448851108551,241.8470540046692,241.85903882980347,242.00892233848572,242.00892233848572,242.00892233848572,242.00892233848572,242.00892233848572,242.00892233848572,242.00892233848572,243.21010065078735,1,1.3414831161499023,None,,,,,,,,,,,,,,,,,,19,3,2025-02-18_15h03.59.477,comp,2024.2.4,60.20477325804215,2025-02-18 15h04.11.462313 -0500,
72,72,0,critical,dwh,20.0,1.0,upper,141.0,141.0,125.0,200.0,200.0,125.0,3,7.085862874984741,None,,,,,0,0,0,0,0,72,72,67,243.22569227218628,,,,,,,,,,,,,,,,,,,,,,,,,,,,,,,,,,,,,,,,,,,,,,,,,,,,,,,,,,,,,,,,,,,,,,,,,,,,,,,,,141.0,141.0,125.0,200.0,200.0,125.0,1.0,1.2,-266,-18,0,-3,258,-17,243.21089267730713,243.2109339237213,243.21337866783142,243.22569227218628,243.3760883808136,243.3760883808136,243.3760883808136,243.3760883808136,243.3760883808136,243.3760883808136,243.3760883808136,250.32682752609253,3,7.085862874984741,None,,,,,,,,,,,,,,,,,,19,3,2025-02-18_15h03.59.477,comp,2024.2.4,60.20477325804215,2025-02-18 15h04.11.462313 -0500,
73,73,0,critical,dhw,20.0,3.0,lower,78.0,78.0,133.0,57.0,57.0,133.0,2,3.185612916946411,None,,,,,0,0,0,0,0,73,73,56,250.3419952392578,,,,,,,,,,,,,,,,,,,,,,,,,,,,,,,,,,,,,,,,,,,,,,,,,,,,,,,,,,,,,,,,,,,,,,,,,,,,,,,,,78.0,78.0,133.0,57.0,57.0,133.0,3.0,3.1,-164,283,0,-8,191,-276,250.32761907577515,250.32765865325928,250.33094215393066,250.3419952392578,250.49223065376282,250.49223065376282,250.49223065376282,250.49223065376282,250.49223065376282,250.49223065376282,250.49223065376282,253.5433270931244,2,3.185612916946411,None,,,,,,,,,,,,,,,,,,19,3,2025-02-18_15h03.59.477,comp,2024.2.4,60.20477325804215,2025-02-18 15h04.11.462313 -0500,
74,74,0,filler_square,None,None,None,None,None,None,None,None,None,None,1,1.7368428707122803,None,,,,,0,0,0,0,0,74,74,179,253.5587441921234,,,,,,,,,,,,,,,,,,,,,,,,,,,,,,,,,,,,,,,,,,,,,,,,,,,,,,,,,,,,,,,,,,,,,,,,,,,,,,,,,155.4789805058239,155.4789805058239,57.53803425771116,70.41361973604506,144.74340554994293,146.42739555721153,1.0,1.1,-689,261,-480,284,-276,253,253.5443184375763,253.544358253479,253.5468258857727,253.5587441921234,253.70899987220764,253.70899987220764,253.70899987220764,253.70899987220764,253.70899987220764,253.70899987220764,253.70899987220764,255.3100118637085,1,1.7368428707122803,None,,,,,,,,,,,,,,,,,,19,3,2025-02-18_15h03.59.477,comp,2024.2.4,60.20477325804215,2025-02-18 15h04.11.462313 -0500,
75,75,0,catch,None,None,None,None,None,None,None,None,None,None,3,1.1060817241668701,None,,,,,0,0,0,0,0,75,75,121,255.3253653049469,,,,,,,,,,,,,,,,,,,,,,,,,,,,,,,,,,,,,,,,,,,,,,,,,,,,,,,,,,,,,,,,,,,,,,,,,,,,,,,,,73,117,73,117,136,189,1.0,1.2,-213,12,0,18,249,-3,255.3110375404358,255.31107926368713,255.31422066688538,255.3253653049469,255.47554516792297,255.47554516792297,255.47554516792297,255.47554516792297,255.47554516792297,255.47554516792297,255.47554516792297,256.4433307647705,3,1.1060817241668701,None,,,,,,,,,,,,,,,,,,19,3,2025-02-18_15h03.59.477,comp,2024.2.4,60.20477325804215,2025-02-18 15h04.11.462313 -0500,
76,76,0,critical,dwh,20.0,2.1,lower,78.0,78.0,57.0,133.0,133.0,57.0,2,2.9098126888275146,None,,,,,0,0,0,0,0,76,76,30,256.4585955142975,,,,,,,,,,,,,,,,,,,,,,,,,,,,,,,,,,,,,,,,,,,,,,,,,,,,,,,,,,,,,,,,,,,,,,,,,,,,,,,,,78.0,78.0,57.0,133.0,133.0,57.0,2.1,2.11,-202,275,0,256,191,-275,256.44410490989685,256.44414496421814,256.4465961456299,256.4585955142975,256.60879778862,256.60879778862,256.60879778862,256.60879778862,256.60879778862,256.60879778862,256.60879778862,259.37652683258057,2,2.9098126888275146,None,,,,,,,,,,,,,,,,,,19,3,2025-02-18_15h03.59.477,comp,2024.2.4,60.20477325804215,2025-02-18 15h04.11.462313 -0500,
77,77,0,filler_random,None,None,None,None,None,None,None,None,None,None,1,1.9442369937896729,None,,,,,0,0,0,0,0,77,77,133,259.3921232223511,,,,,,,,,,,,,,,,,,,,,,,,,,,,,,,,,,,,,,,,,,,,,,,,,,,,,,,,,,,,,,,,,,,,,,,,,,,,,,,,,195.72793824585884,62.675561331390746,83.40800546742562,143.69455505181804,127.72374289453377,82.96471953639823,4.0,4.2,-199,18,0,-266,209,10,259.37742161750793,259.37746238708496,259.38005805015564,259.3921232223511,259.54224705696106,259.54224705696106,259.54224705696106,259.54224705696106,259.54224705696106,259.54224705696106,259.54224705696106,261.34338760375977,1,1.9442369937896729,None,,,,,,,,,,,,,,,,,,19,3,2025-02-18_15h03.59.477,comp,2024.2.4,60.20477325804215,2025-02-18 15h04.11.462313 -0500,
78,78,0,critical,wdh,20.0,2.1,upper,125.0,200.0,141.0,141.0,200.0,125.0,1,3.066765546798706,None,,,,,0,0,0,0,0,78,78,11,261.3592834472656,,,,,,,,,,,,,,,,,,,,,,,,,,,,,,,,,,,,,,,,,,,,,,,,,,,,,,,,,,,,,,,,,,,,,,,,,,,,,,,,,125.0,200.0,141.0,141.0,200.0,125.0,2.1,2.12,-266,-251,0,-252,229,257,261.3442142009735,261.3442554473877,261.3463976383209,261.3592834472656,261.508962392807,261.508962392807,261.508962392807,261.508962392807,261.508962392807,261.508962392807,261.508962392807,264.44339871406555,1,3.066765546798706,None,,,,,,,,,,,,,,,,,,19,3,2025-02-18_15h03.59.477,comp,2024.2.4,60.20477325804215,2025-02-18 15h04.11.462313 -0500,
79,79,0,filler_square,None,None,None,None,None,None,None,None,None,None,3,0.9727475643157959,None,,,,,0,0,0,0,0,79,79,191,264.45868158340454,,,,,,,,,,,,,,,,,,,,,,,,,,,,,,,,,,,,,,,,,,,,,,,,,,,,,,,,,,,,,,,,,,,,,,,,,,,,,,,,,57.1055985740261,57.82205254144184,60.852142689803806,64.04276054940567,74.64074771570189,74.64074771570189,1.0,1.2,-157,-5,0,17,165,6,264.4443643093109,264.44440507888794,264.44689989089966,264.45868158340454,264.60871410369873,264.60871410369873,264.60871410369873,264.60871410369873,264.60871410369873,264.60871410369873,264.60871410369873,265.44344544410706,3,0.9727475643157959,None,,,,,,,,,,,,,,,,,,19,3,2025-02-18_15h03.59.477,comp,2024.2.4,60.20477325804215,2025-02-18 15h04.11.462313 -0500,
80,80,0,critical,dwh,20.0,3.0,lower,78.0,78.0,57.0,133.0,133.0,57.0,3,2.3007185459136963,None,,,,,0,0,0,0,0,80,80,68,265.458838224411,,,,,,,,,,,,,,,,,,,,,,,,,,,,,,,,,,,,,,,,,,,,,,,,,,,,,,,,,,,,,,,,,,,,,,,,,,,,,,,,,78.0,78.0,57.0,133.0,133.0,57.0,3.0,3.1,-202,261,0,-18,191,-265,265.4442608356476,265.44430136680603,265.4477777481079,265.458838224411,265.6087312698364,265.6087312698364,265.6087312698364,265.6087312698364,265.6087312698364,265.6087312698364,265.6087312698364,267.7764964103699,3,2.3007185459136963,None,,,,,,,,,,,,,,,,,,19,3,2025-02-18_15h03.59.477,comp,2024.2.4,60.20477325804215,2025-02-18 15h04.11.462313 -0500,
81,81,0,filler_square,None,None,None,None,None,None,None,None,None,None,3,1.0553679466247559,None,,,,,0,0,0,0,0,81,81,196,267.7919776439667,,,,,,,,,,,,,,,,,,,,,,,,,,,,,,,,,,,,,,,,,,,,,,,,,,,,,,,,,,,,,,,,,,,,,,,,,,,,,,,,,64.80189893332107,125.03211786276326,71.96243511637454,60.21026145269703,129.9184735555695,129.9184735555695,1.0,1.2,-189,-19,0,0,191,-3,267.7774455547333,267.7774875164032,267.7800784111023,267.7919776439667,267.9421081542969,267.9421081542969,267.9421081542969,267.9421081542969,267.9421081542969,267.9421081542969,267.9421081542969,268.85978746414185,3,1.0553679466247559,None,,,,,,,,,,,,,,,,,,19,3,2025-02-18_15h03.59.477,comp,2024.2.4,60.20477325804215,2025-02-18 15h04.11.462313 -0500,
82,82,0,critical,hwd,35.0,4.0,upper,200.0,125.0,125.0,200.0,127.0,127.0,1,1.1090421676635742,None,,,,,0,0,0,0,0,82,82,101,268.87518429756165,,,,,,,,,,,,,,,,,,,,,,,,,,,,,,,,,,,,,,,,,,,,,,,,,,,,,,,,,,,,,,,,,,,,,,,,,,,,,,,,,200.0,125.0,125.0,200.0,127.0,127.0,4.0,4.2,-258,0,0,-285,260,0,268.86061120033264,268.8606524467468,268.86271691322327,268.87518429756165,269.0255699157715,269.0255699157715,269.0255699157715,269.0255699157715,269.0255699157715,269.0255699157715,269.0255699157715,269.99340891838074,1,1.1090421676635742,None,,,,,,,,,,,,,,,,,,19,3,2025-02-18_15h03.59.477,comp,2024.2.4,60.20477325804215,2025-02-18 15h04.11.462313 -0500,
83,83,0,critical,dhw,20.0,2.1,upper,141.0,141.0,200.0,125.0,125.0,200.0,2,2.9505720138549805,None,,,,,0,0,0,0,0,83,83,3,270.0088436603546,,,,,,,,,,,,,,,,,,,,,,,,,,,,,,,,,,,,,,,,,,,,,,,,,,,,,,,,,,,,,,,,,,,,,,,,,,,,,,,,,141.0,141.0,200.0,125.0,125.0,200.0,2.1,2.12,-229,-275,0,-261,258,279,269.9942054748535,269.9942488670349,269.996374130249,270.0088436603546,270.1588714122772,270.1588714122772,270.1588714122772,270.1588714122772,270.1588714122772,270.1588714122772,270.1588714122772,272.97658586502075,2,2.9505720138549805,None,,,,,,,,,,,,,,,,,,19,3,2025-02-18_15h03.59.477,comp,2024.2.4,60.20477325804215,2025-02-18 15h04.11.462313 -0500,
84,84,0,critical,hwd,35.0,2.1,upper,200.0,125.0,125.0,200.0,127.0,127.0,1,1.9840080738067627,None,,,,,0,0,0,0,0,84,84,41,272.9918735027313,,,,,,,,,,,,,,,,,,,,,,,,,,,,,,,,,,,,,,,,,,,,,,,,,,,,,,,,,,,,,,,,,,,,,,,,,,,,,,,,,200.0,125.0,125.0,200.0,127.0,127.0,2.1,2.11,-258,253,0,273,260,-255,272.97738313674927,272.97742223739624,272.9800019264221,272.9918735027313,273.14215564727783,273.14215564727783,273.14215564727783,273.14215564727783,273.14215564727783,273.14215564727783,273.14215564727783,274.9935495853424,1,1.9840080738067627,None,,,,,,,,,,,,,,,,,,19,3,2025-02-18_15h03.59.477,comp,2024.2.4,60.20477325804215,2025-02-18 15h04.11.462313 -0500,
85,85,0,filler_random,None,None,None,None,None,None,None,None,None,None,2,1.7595958709716797,None,,,,,0,0,0,0,0,85,85,165,275.00856590270996,,,,,,,,,,,,,,,,,,,,,,,,,,,,,,,,,,,,,,,,,,,,,,,,,,,,,,,,,,,,,,,,,,,,,,,,,,,,,,,,,165.93605260283744,90.40661111176067,73.78062577881468,176.45586340506927,110.12771395501207,167.87706827085015,3.0,3.2,-229,-251,0,19,268,256,274.9944784641266,274.9945192337036,274.99696588516235,275.00856590270996,275.1586241722107,275.1586241722107,275.1586241722107,275.1586241722107,275.1586241722107,275.1586241722107,275.1586241722107,276.7764620780945,2,1.7595958709716797,None,,,,,,,,,,,,,,,,,,19,3,2025-02-18_15h03.59.477,comp,2024.2.4,60.20477325804215,2025-02-18 15h04.11.462313 -0500,
86,86,0,critical,dhw,35.0,1.0,upper,127.0,127.0,200.0,125.0,125.0,200.0,3,2.071272373199463,None,,,,,0,0,0,0,0,86,86,49,276.79199957847595,,,,,,,,,,,,,,,,,,,,,,,,,,,,,,,,,,,,,,,,,,,,,,,,,,,,,,,,,,,,,,,,,,,,,,,,,,,,,,,,,127.0,127.0,200.0,125.0,125.0,200.0,1.0,1.3,258,-260,480,-253,738,-264,276.77725982666016,276.7772994041443,276.7798397541046,276.79199957847595,276.94223141670227,276.94223141670227,276.94223141670227,276.94223141670227,276.94223141670227,276.94223141670227,276.94223141670227,278.87657141685486,3,2.071272373199463,None,,,,,,,,,,,,,,,,,,19,3,2025-02-18_15h03.59.477,comp,2024.2.4,60.20477325804215,2025-02-18 15h04.11.462313 -0500,
87,87,0,filler_random,None,None,None,None,None,None,None,None,None,None,3,4.044266939163208,None,,,,,0,0,0,0,0,87,87,137,278.89179968833923,,,,,,,,,,,,,,,,,,,,,,,,,,,,,,,,,,,,,,,,,,,,,,,,,,,,,,,,,,,,,,,,,,,,,,,,,,,,,,,,,160.50155160339853,71.84194381061548,165.77325376126197,98.72137721742978,113.33365598042698,137.77250994091173,4.0,4.1,-181,-272,0,11,214,-272,278.8774559497833,278.87749433517456,278.8800323009491,278.89179968833923,279.0419900417328,279.0419900417328,279.0419900417328,279.0419900417328,279.0419900417328,279.0419900417328,279.0419900417328,282.94306087493896,3,4.044266939163208,None,,,,,,,,,,,,,,,,,,19,3,2025-02-18_15h03.59.477,comp,2024.2.4,60.20477325804215,2025-02-18 15h04.11.462313 -0500,
88,88,0,critical,wdh,20.0,1.0,lower,57.0,133.0,78.0,78.0,133.0,57.0,3,2.2417564392089844,None,,,,,0,0,0,0,0,88,88,78,282.9587469100952,,,,,,,,,,,,,,,,,,,,,,,,,,,,,,,,,,,,,,,,,,,,,,,,,,,,,,,,,,,,,,,,,,,,,,,,,,,,,,,,,57.0,133.0,78.0,78.0,133.0,57.0,1.0,1.1,-682,257,-480,275,-316,282,282.94384598731995,282.94388723373413,282.9460062980652,282.9587469100952,283.1084635257721,283.1084635257721,283.1084635257721,283.1084635257721,283.1084635257721,283.1084635257721,283.1084635257721,285.2096872329712,3,2.2417564392089844,None,,,,,,,,,,,,,,,,,,19,3,2025-02-18_15h03.59.477,comp,2024.2.4,60.20477325804215,2025-02-18 15h04.11.462313 -0500,
89,89,0,critical,dhw,20.0,1.0,lower,78.0,78.0,133.0,57.0,57.0,133.0,2,1.902723789215088,None,,,,,0,0,0,0,0,89,89,54,285.2253963947296,,,,,,,,,,,,,,,,,,,,,,,,,,,,,,,,,,,,,,,,,,,,,,,,,,,,,,,,,,,,,,,,,,,,,,,,,,,,,,,,,78.0,78.0,133.0,57.0,57.0,133.0,1.0,1.3,316,-274,480,-280,671,-274,285.21051239967346,285.21055269241333,285.21312522888184,285.2253963947296,285.3750796318054,285.3750796318054,285.3750796318054,285.3750796318054,285.3750796318054,285.3750796318054,285.3750796318054,287.14313530921936,2,1.902723789215088,None,,,,,,,,,,,,,,,,,,19,3,2025-02-18_15h03.59.477,comp,2024.2.4,60.20477325804215,2025-02-18 15h04.11.462313 -0500,
90,90,0,critical,whd,20.0,4.0,upper,125.0,200.0,200.0,125.0,141.0,141.0,1,4.450442314147949,None,,,,,0,0,0,0,0,90,90,95,287.1584174633026,,,,,,,,,,,,,,,,,,,,,,,,,,,,,,,,,,,,,,,,,,,,,,,,,,,,,,,,,,,,,,,,,,,,,,,,,,,,,,,,,125.0,200.0,200.0,125.0,141.0,141.0,4.0,4.1,-258,-264,0,-1,229,-263,287.1439390182495,287.14397859573364,287.14615535736084,287.1584174633026,287.30871868133545,287.30871868133545,287.30871868133545,287.30871868133545,287.30871868133545,287.30871868133545,287.30871868133545,291.61004757881165,1,4.450442314147949,None,,,,,,,,,,,,,,,,,,19,3,2025-02-18_15h03.59.477,comp,2024.2.4,60.20477325804215,2025-02-18 15h04.11.462313 -0500,
91,91,0,filler_square,None,None,None,None,None,None,None,None,None,None,3,2.0862605571746826,None,,,,,0,0,0,0,0,91,91,186,291.62529015541077,,,,,,,,,,,,,,,,,,,,,,,,,,,,,,,,,,,,,,,,,,,,,,,,,,,,,,,,,,,,,,,,,,,,,,,,,,,,,,,,,102.93987168169679,101.23150676898351,111.14817405563191,86.41992594884891,117.63125165404969,117.63125165404969,4.0,4.1,-190,-282,0,8,198,-274,291.6109974384308,291.61103987693787,291.61331129074097,291.62529015541077,291.7751569747925,291.7751569747925,291.7751569747925,291.7751569747925,291.7751569747925,291.7751569747925,291.7751569747925,293.72626972198486,3,2.0862605571746826,None,,,,,,,,,,,,,,,,,,19,3,2025-02-18_15h03.59.477,comp,2024.2.4,60.20477325804215,2025-02-18 15h04.11.462313 -0500,
92,92,0,filler_square,None,None,None,None,None,None,None,None,None,None,1,1.2671470642089844,None,,,,,0,0,0,0,0,92,92,188,293.74166798591614,,,,,,,,,,,,,,,,,,,,,,,,,,,,,,,,,,,,,,,,,,,,,,,,,,,,,,,,,,,,,,,,,,,,,,,,,,,,,,,,,169.199453030261,169.199453030261,119.42163252514831,66.65092370485179,164.37059269279075,122.85149025621243,2.1,2.12,-214,-260,0,-252,191,272,293.72719645500183,293.72723484039307,293.72963857650757,293.74166798591614,293.89196586608887,293.89196586608887,293.89196586608887,293.89196586608887,293.89196586608887,293.89196586608887,293.89196586608887,295.0099992752075,1,1.2671470642089844,None,,,,,,,,,,,,,,,,,,19,3,2025-02-18_15h03.59.477,comp,2024.2.4,60.20477325804215,2025-02-18 15h04.11.462313 -0500,
93,93,0,critical,hwd,20.0,1.0,upper,200.0,125.0,125.0,200.0,141.0,141.0,1,1.3750581741333008,None,,,,,0,0,0,0,0,93,93,103,295.0252516269684,,,,,,,,,,,,,,,,,,,,,,,,,,,,,,,,,,,,,,,,,,,,,,,,,,,,,,,,,,,,,,,,,,,,,,,,,,,,,,,,,200.0,125.0,125.0,200.0,141.0,141.0,1.0,1.2,-258,-17,0,14,266,-12,295.0107979774475,295.01085662841797,295.01324677467346,295.0252516269684,295.1752715110779,295.1752715110779,295.1752715110779,295.1752715110779,295.1752715110779,295.1752715110779,295.1752715110779,296.4097912311554,1,1.3750581741333008,None,,,,,,,,,,,,,,,,,,19,3,2025-02-18_15h03.59.477,comp,2024.2.4,60.20477325804215,2025-02-18 15h04.11.462313 -0500,
94,94,0,filler_square,None,None,None,None,None,None,None,None,None,None,2,0.8859529495239258,None,,,,,0,0,0,0,0,94,94,204,296.42531633377075,,,,,,,,,,,,,,,,,,,,,,,,,,,,,,,,,,,,,,,,,,,,,,,,,,,,,,,,,,,,,,,,,,,,,,,,,,,,,,,,,58.24884287066589,59.80615955961213,137.13140268122172,137.13140268122172,80.16614522693251,134.43137474347685,1.0,1.2,-194,-3,0,-14,232,-17,296.4107086658478,296.41074776649475,296.4130790233612,296.42531633377075,296.5749897956848,296.5749897956848,296.5749897956848,296.5749897956848,296.5749897956848,296.5749897956848,296.5749897956848,297.3261528015137,2,0.8859529495239258,None,,,,,,,,,,,,,,,,,,19,3,2025-02-18_15h03.59.477,comp,2024.2.4,60.20477325804215,2025-02-18 15h04.11.462313 -0500,
95,95,0,critical,dwh,35.0,4.0,lower,70.0,70.0,57.0,133.0,133.0,57.0,2,2.1002330780029297,None,,,,,0,0,0,0,0,95,95,64,297.34157633781433,,,,,,,,,,,,,,,,,,,,,,,,,,,,,,,,,,,,,,,,,,,,,,,,,,,,,,,,,,,,,,,,,,,,,,,,,,,,,,,,,70.0,70.0,57.0,133.0,133.0,57.0,4.0,4.2,-198,3,0,-279,191,20,297.32696080207825,297.3270003795624,297.32944989204407,297.34157633781433,297.4920778274536,297.4920778274536,297.4920778274536,297.4920778274536,297.4920778274536,297.4920778274536,297.4920778274536,299.4594581127167,2,2.1002330780029297,None,,,,,,,,,,,,,,,,,,19,3,2025-02-18_15h03.59.477,comp,2024.2.4,60.20477325804215,2025-02-18 15h04.11.462313 -0500,
96,96,0,critical,hdw,20.0,2.1,upper,200.0,125.0,141.0,141.0,125.0,200.0,3,1.1173670291900635,None,,,,,0,0,0,0,0,96,96,23,299.4748606681824,,,,,,,,,,,,,,,,,,,,,,,,,,,,,,,,,,,,,,,,,,,,,,,,,,,,,,,,,,,,,,,,,,,,,,,,,,,,,,,,,200.0,125.0,141.0,141.0,125.0,200.0,2.1,2.11,-229,256,0,285,266,-253,299.4602677822113,299.460307598114,299.4628448486328,299.4748606681824,299.62578558921814,299.62578558921814,299.62578558921814,299.62578558921814,299.62578558921814,299.62578558921814,299.62578558921814,300.59347128868103,3,1.1173670291900635,None,,,,,,,,,,,,,,,,,,19,3,2025-02-18_15h03.59.477,comp,2024.2.4,60.20477325804215,2025-02-18 15h04.11.462313 -0500,
97,97,0,critical,hdw,35.0,3.0,upper,200.0,125.0,127.0,127.0,125.0,200.0,1,1.7273564338684082,None,,,,,0,0,0,0,0,97,97,111,300.6085913181305,,,,,,,,,,,,,,,,,,,,,,,,,,,,,,,,,,,,,,,,,,,,,,,,,,,,,,,,,,,,,,,,,,,,,,,,,,,,,,,,,200.0,125.0,127.0,127.0,125.0,200.0,3.0,3.2,-222,-285,0,4,260,283,300.5942690372467,300.59430956840515,300.5967469215393,300.6085913181305,300.7585508823395,300.7585508823395,300.7585508823395,300.7585508823395,300.7585508823395,300.7585508823395,300.7585508823395,302.3430018424988,1,1.7273564338684082,None,,,,,,,,,,,,,,,,,,19,3,2025-02-18_15h03.59.477,comp,2024.2.4,60.20477325804215,2025-02-18 15h04.11.462313 -0500,
98,98,0,critical,whd,20.0,2.1,lower,57.0,133.0,133.0,57.0,78.0,78.0,2,1.5452125072479248,None,,,,,0,0,0,0,0,98,98,14,302.3587155342102,,,,,,,,,,,,,,,,,,,,,,,,,,,,,,,,,,,,,,,,,,,,,,,,,,,,,,,,,,,,,,,,,,,,,,,,,,,,,,,,,57.0,133.0,133.0,57.0,78.0,78.0,2.1,2.12,-191,-254,0,-270,164,281,302.3437936306,302.3438470363617,302.34611558914185,302.3587155342102,302.5083227157593,302.5083227157593,302.5083227157593,302.5083227157593,302.5083227157593,302.5083227157593,302.5083227157593,303.90956020355225,2,1.5452125072479248,None,,,,,,,,,,,,,,,,,,19,3,2025-02-18_15h03.59.477,comp,2024.2.4,60.20477325804215,2025-02-18 15h04.11.462313 -0500,
99,99,0,critical,hwd,35.0,3.0,lower,133.0,57.0,57.0,133.0,70.0,70.0,1,1.8916585445404053,None,,,,,0,0,0,0,0,99,99,98,303.92508149147034,,,,,,,,,,,,,,,,,,,,,,,,,,,,,,,,,,,,,,,,,,,,,,,,,,,,,,,,,,,,,,,,,,,,,,,,,,,,,,,,,133.0,57.0,57.0,133.0,70.0,70.0,3.0,3.2,-191,-265,0,-11,198,256,303.91034293174744,303.9103834629059,303.91285848617554,303.92508149147034,304.07510209083557,304.07510209083557,304.07510209083557,304.07510209083557,304.07510209083557,304.07510209083557,304.07510209083557,305.82609605789185,1,1.8916585445404053,None,,,,,,,,,,,,,,,,,,19,3,2025-02-18_15h03.59.477,comp,2024.2.4,60.20477325804215,2025-02-18 15h04.11.462313 -0500,
100,100,0,filler_random,None,None,None,None,None,None,None,None,None,None,2,5.437934875488281,None,,,,,0,0,0,0,0,100,100,144,305.8417055606842,,,,,,,,,,,,,,,,,,,,,,,,,,,,,,,,,,,,,,,,,,,,,,,,,,,,,,,,,,,,,,,,,,,,,,,,,,,,,,,,,106.1753955325805,196.01921775071372,124.15391606289619,188.47880872099483,103.31712250179021,188.26863735036423,4.0,4.1,-288,-265,0,7,284,-287,305.8269941806793,305.8270335197449,305.8294155597687,305.8417055606842,305.99202394485474,305.99202394485474,305.99202394485474,305.99202394485474,305.99202394485474,305.99202394485474,305.99202394485474,311.29299783706665,2,5.437934875488281,None,,,,,,,,,,,,,,,,,,19,3,2025-02-18_15h03.59.477,comp,2024.2.4,60.20477325804215,2025-02-18 15h04.11.462313 -0500,
101,101,0,filler_random,None,None,None,None,None,None,None,None,None,None,2,0.9171135425567627,None,,,,,0,0,0,0,0,101,101,155,311.3081419467926,,,,,,,,,,,,,,,,,,,,,,,,,,,,,,,,,,,,,,,,,,,,,,,,,,,,,,,,,,,,,,,,,,,,,,,,,,,,,,,,,136.28208965638277,134.76744090685094,164.60086197055486,187.00391778656805,137.83971911731885,79.34472212530744,3.0,3.2,-257,-261,0,-2,229,270,311.29388308525085,311.2939248085022,311.29607939720154,311.3081419467926,311.458491563797,311.458491563797,311.458491563797,311.458491563797,311.458491563797,311.458491563797,311.458491563797,312.2430610656738,2,0.9171135425567627,None,,,,,,,,,,,,,,,,,,19,3,2025-02-18_15h03.59.477,comp,2024.2.4,60.20477325804215,2025-02-18 15h04.11.462313 -0500,
102,102,0,critical,dhw,20.0,1.0,upper,141.0,141.0,200.0,125.0,125.0,200.0,3,2.645648241043091,None,,,,,0,0,0,0,0,102,102,55,312.25815773010254,,,,,,,,,,,,,,,,,,,,,,,,,,,,,,,,,,,,,,,,,,,,,,,,,,,,,,,,,,,,,,,,,,,,,,,,,,,,,,,,,141.0,141.0,200.0,125.0,125.0,200.0,1.0,1.3,251,-275,480,-288,738,-288,312.24388790130615,312.24392652511597,312.24602460861206,312.25815773010254,312.4086980819702,312.4086980819702,312.4086980819702,312.4086980819702,312.4086980819702,312.4086980819702,312.4086980819702,314.90961956977844,3,2.645648241043091,None,,,,,,,,,,,,,,,,,,19,3,2025-02-18_15h03.59.477,comp,2024.2.4,60.20477325804215,2025-02-18 15h04.11.462313 -0500,
103,103,0,critical,wdh,35.0,3.0,upper,125.0,200.0,127.0,127.0,200.0,125.0,3,7.93290114402771,None,,,,,0,0,0,0,0,103,103,75,314.92511916160583,,,,,,,,,,,,,,,,,,,,,,,,,,,,,,,,,,,,,,,,,,,,,,,,,,,,,,,,,,,,,,,,,,,,,,,,,,,,,,,,,125.0,200.0,127.0,127.0,200.0,125.0,3.0,3.1,-260,258,0,-17,222,-277,314.9104619026184,314.91050243377686,314.9130220413208,314.92511916160583,315.07532930374146,315.07532930374146,315.07532930374146,315.07532930374146,315.07532930374146,315.07532930374146,315.07532930374146,322.87624645233154,3,7.93290114402771,None,,,,,,,,,,,,,,,,,,19,3,2025-02-18_15h03.59.477,comp,2024.2.4,60.20477325804215,2025-02-18 15h04.11.462313 -0500,
104,104,0,critical,hwd,20.0,3.0,upper,200.0,125.0,125.0,200.0,141.0,141.0,1,4.708558082580566,None,,,,,0,0,0,0,0,104,104,105,322.89145135879517,,,,,,,,,,,,,,,,,,,,,,,,,,,,,,,,,,,,,,,,,,,,,,,,,,,,,,,,,,,,,,,,,,,,,,,,,,,,,,,,,200.0,125.0,125.0,200.0,141.0,141.0,3.0,3.2,-258,-278,0,-11,266,277,322.87704586982727,322.8770878314972,322.8794689178467,322.89145135879517,323.04175877571106,323.04175877571106,323.04175877571106,323.04175877571106,323.04175877571106,323.04175877571106,323.04175877571106,327.609578371048,1,4.708558082580566,None,,,,,,,,,,,,,,,,,,19,3,2025-02-18_15h03.59.477,comp,2024.2.4,60.20477325804215,2025-02-18 15h04.11.462313 -0500,
105,105,0,critical,wdh,20.0,1.0,upper,125.0,200.0,141.0,141.0,200.0,125.0,1,4.558736801147461,None,,,,,0,0,0,0,0,105,105,79,327.6249966621399,,,,,,,,,,,,,,,,,,,,,,,,,,,,,,,,,,,,,,,,,,,,,,,,,,,,,,,,,,,,,,,,,,,,,,,,,,,,,,,,,125.0,200.0,141.0,141.0,200.0,125.0,1.0,1.1,-746,282,-480,275,-251,260,327.61038160324097,327.6104242801666,327.6129207611084,327.6249966621399,327.7751159667969,327.7751159667969,327.7751159667969,327.7751159667969,327.7751159667969,327.7751159667969,327.7751159667969,332.19269466400146,1,4.558736801147461,None,,,,,,,,,,,,,,,,,,19,3,2025-02-18_15h03.59.477,comp,2024.2.4,60.20477325804215,2025-02-18 15h04.11.462313 -0500,
106,106,0,filler_random,None,None,None,None,None,None,None,None,None,None,3,2.91141414642334,None,,,,,0,0,0,0,0,106,106,164,332.20824003219604,,,,,,,,,,,,,,,,,,,,,,,,,,,,,,,,,,,,,,,,,,,,,,,,,,,,,,,,,,,,,,,,,,,,,,,,,,,,,,,,,78.81924949509933,113.13718278488457,87.89337954918926,98.23098358320459,75.16520058466088,180.179488824328,4.0,4.1,-202,-281,0,-14,235,-257,332.1935729980469,332.19361329078674,332.19610357284546,332.20824003219604,332.3580632209778,332.3580632209778,332.3580632209778,332.3580632209778,332.3580632209778,332.3580632209778,332.3580632209778,335.12595081329346,3,2.91141414642334,None,,,,,,,,,,,,,,,,,,19,3,2025-02-18_15h03.59.477,comp,2024.2.4,60.20477325804215,2025-02-18 15h04.11.462313 -0500,
107,107,0,critical,dwh,35.0,1.0,lower,70.0,70.0,57.0,133.0,133.0,57.0,3,4.9052650928497314,None,,,,,0,0,0,0,0,107,107,60,335.1414484977722,,,,,,,,,,,,,,,,,,,,,,,,,,,,,,,,,,,,,,,,,,,,,,,,,,,,,,,,,,,,,,,,,,,,,,,,,,,,,,,,,70.0,70.0,57.0,133.0,133.0,57.0,1.0,1.3,282,-279,480,-287,671,-276,335.1267182826996,335.12675738334656,335.12908458709717,335.1414484977722,335.2915086746216,335.2915086746216,335.2915086746216,335.2915086746216,335.2915086746216,335.2915086746216,335.2915086746216,340.0592350959778,3,4.9052650928497314,None,,,,,,,,,,,,,,,,,,19,3,2025-02-18_15h03.59.477,comp,2024.2.4,60.20477325804215,2025-02-18 15h04.11.462313 -0500,
108,108,0,filler_square,None,None,None,None,None,None,None,None,None,None,1,1.117002010345459,None,,,,,0,0,0,0,0,108,108,205,340.07466173171997,,,,,,,,,,,,,,,,,,,,,,,,,,,,,,,,,,,,,,,,,,,,,,,,,,,,,,,,,,,,,,,,,,,,,,,,,,,,,,,,,102.54477180512006,102.54477180512006,77.30085415029052,74.05161899442152,102.09413010225768,58.2111408260193,3.0,3.2,-184,-288,0,-6,162,274,340.06019592285156,340.06023716926575,340.0626573562622,340.07466173171997,340.22466135025024,340.22466135025024,340.22466135025024,340.22466135025024,340.22466135025024,340.22466135025024,340.22466135025024,341.209095954895,1,1.117002010345459,None,,,,,,,,,,,,,,,,,,19,3,2025-02-18_15h03.59.477,comp,2024.2.4,60.20477325804215,2025-02-18 15h04.11.462313 -0500,
109,109,0,critical,wdh,35.0,4.0,lower,57.0,133.0,70.0,70.0,133.0,57.0,3,1.527052879333496,None,,,,,0,0,0,0,0,109,109,76,341.224573135376,,,,,,,,,,,,,,,,,,,,,,,,,,,,,,,,,,,,,,,,,,,,,,,,,,,,,,,,,,,,,,,,,,,,,,,,,,,,,,,,,57.0,133.0,70.0,70.0,133.0,57.0,4.0,4.2,-198,10,0,-276,160,-15,341.21016001701355,341.2102007865906,341.2123427391052,341.224573135376,341.37465500831604,341.37465500831604,341.37465500831604,341.37465500831604,341.37465500831604,341.37465500831604,341.37465500831604,342.7590866088867,3,1.527052879333496,None,,,,,,,,,,,,,,,,,,19,3,2025-02-18_15h03.59.477,comp,2024.2.4,60.20477325804215,2025-02-18 15h04.11.462313 -0500,
110,110,0,critical,hwd,35.0,1.0,lower,133.0,57.0,57.0,133.0,70.0,70.0,1,0.9679763317108154,None,,,,,0,0,0,0,0,110,110,96,342.77484941482544,,,,,,,,,,,,,,,,,,,,,,,,,,,,,,,,,,,,,,,,,,,,,,,,,,,,,,,,,,,,,,,,,,,,,,,,,,,,,,,,,133.0,57.0,57.0,133.0,70.0,70.0,1.0,1.2,-191,-10,0,16,198,-14,342.75986528396606,342.7599050998688,342.7624170780182,342.77484941482544,342.9246332645416,342.9246332645416,342.9246332645416,342.9246332645416,342.9246332645416,342.9246332645416,342.9246332645416,343.7590847015381,1,0.9679763317108154,None,,,,,,,,,,,,,,,,,,19,3,2025-02-18_15h03.59.477,comp,2024.2.4,60.20477325804215,2025-02-18 15h04.11.462313 -0500,
111,111,0,critical,hwd,20.0,2.1,lower,133.0,57.0,57.0,133.0,78.0,78.0,2,2.650207042694092,None,,,,,0,0,0,0,0,111,111,18,343.7745108604431,,,,,,,,,,,,,,,,,,,,,,,,,,,,,,,,,,,,,,,,,,,,,,,,,,,,,,,,,,,,,,,,,,,,,,,,,,,,,,,,,133.0,57.0,57.0,133.0,78.0,78.0,2.1,2.12,-191,-271,0,-254,202,261,343.7599058151245,343.75994658470154,343.762348651886,343.7745108604431,343.9246156215668,343.9246156215668,343.9246156215668,343.9246156215668,343.9246156215668,343.9246156215668,343.9246156215668,346.4260096549988,2,2.650207042694092,None,,,,,,,,,,,,,,,,,,19,3,2025-02-18_15h03.59.477,comp,2024.2.4,60.20477325804215,2025-02-18 15h04.11.462313 -0500,
112,112,0,filler_square,None,None,None,None,None,None,None,None,None,None,3,1.2212252616882324,None,,,,,0,0,0,0,0,112,112,172,346.4414622783661,,,,,,,,,,,,,,,,,,,,,,,,,,,,,,,,,,,,,,,,,,,,,,,,,,,,,,,,,,,,,,,,,,,,,,,,,,,,,,,,,99.85759417149325,121.39380086539273,75.03739435354936,66.35806125272688,125.8168894095068,125.8168894095068,2.2,2.21,-190,-261,0,289,192,261,346.42699456214905,346.42705154418945,346.4296827316284,346.4414622783661,346.59134125709534,346.59134125709534,346.59134125709534,346.59134125709534,346.59134125709534,346.59134125709534,346.59134125709534,347.6757085323334,3,1.2212252616882324,None,,,,,,,,,,,,,,,,,,19,3,2025-02-18_15h03.59.477,comp,2024.2.4,60.20477325804215,2025-02-18 15h04.11.462313 -0500,
113,113,0,filler_random,None,None,None,None,None,None,None,None,None,None,1,1.2675707340240479,None,,,,,0,0,0,0,0,113,113,140,347.6911370754242,,,,,,,,,,,,,,,,,,,,,,,,,,,,,,,,,,,,,,,,,,,,,,,,,,,,,,,,,,,,,,,,,,,,,,,,,,,,,,,,,129.1777961156757,187.7693213291532,94.85195900532389,142.96415054021213,194.43118686407414,96.09485264430373,2.1,2.12,-261,-283,0,-282,216,267,347.6766414642334,347.6766839027405,347.679260969162,347.6911370754242,347.84188866615295,347.84188866615295,347.84188866615295,347.84188866615295,347.84188866615295,347.84188866615295,347.84188866615295,348.9759171009064,1,1.2675707340240479,None,,,,,,,,,,,,,,,,,,19,3,2025-02-18_15h03.59.477,comp,2024.2.4,60.20477325804215,2025-02-18 15h04.11.462313 -0500,
114,114,0,critical,whd,35.0,2.1,upper,125.0,200.0,200.0,125.0,127.0,127.0,1,2.655322313308716,None,,,,,0,0,0,0,0,114,114,37,348.9912459850311,,,,,,,,,,,,,,,,,,,,,,,,,,,,,,,,,,,,,,,,,,,,,,,,,,,,,,,,,,,,,,,,,,,,,,,,,,,,,,,,,125.0,200.0,200.0,125.0,127.0,127.0,2.1,2.11,-258,281,0,284,222,-279,348.9767186641693,348.97675919532776,348.9788398742676,348.9912459850311,349.14151430130005,349.14151430130005,349.14151430130005,349.14151430130005,349.14151430130005,349.14151430130005,349.14151430130005,351.6593487262726,1,2.655322313308716,None,,,,,,,,,,,,,,,,,,19,3,2025-02-18_15h03.59.477,comp,2024.2.4,60.20477325804215,2025-02-18 15h04.11.462313 -0500,
115,115,0,critical,dhw,35.0,2.1,lower,70.0,70.0,133.0,57.0,57.0,133.0,2,1.5829987525939941,None,,,,,0,0,0,0,0,115,115,24,351.6744818687439,,,,,,,,,,,,,,,,,,,,,,,,,,,,,,,,,,,,,,,,,,,,,,,,,,,,,,,,,,,,,,,,,,,,,,,,,,,,,,,,,70.0,70.0,133.0,57.0,57.0,133.0,2.1,2.12,-160,-286,0,-273,191,268,351.66016149520874,351.66020154953003,351.6627562046051,351.6744818687439,351.82487773895264,351.82487773895264,351.82487773895264,351.82487773895264,351.82487773895264,351.82487773895264,351.82487773895264,353.2593653202057,2,1.5829987525939941,None,,,,,,,,,,,,,,,,,,19,3,2025-02-18_15h03.59.477,comp,2024.2.4,60.20477325804215,2025-02-18 15h04.11.462313 -0500,
116,116,0,critical,dwh,20.0,2.1,upper,141.0,141.0,125.0,200.0,200.0,125.0,2,1.6933181285858154,None,,,,,0,0,0,0,0,116,116,7,353.2746708393097,,,,,,,,,,,,,,,,,,,,,,,,,,,,,,,,,,,,,,,,,,,,,,,,,,,,,,,,,,,,,,,,,,,,,,,,,,,,,,,,,141.0,141.0,125.0,200.0,200.0,125.0,2.1,2.12,-266,-284,0,-268,258,253,353.2601537704468,353.2601945400238,353.2625608444214,353.2746708393097,353.42470932006836,353.42470932006836,353.42470932006836,353.42470932006836,353.42470932006836,353.42470932006836,353.42470932006836,354.97606348991394,2,1.6933181285858154,None,,,,,,,,,,,,,,,,,,19,3,2025-02-18_15h03.59.477,comp,2024.2.4,60.20477325804215,2025-02-18 15h04.11.462313 -0500,
117,117,0,critical,hwd,20.0,4.0,upper,200.0,125.0,125.0,200.0,141.0,141.0,1,1.3759913444519043,None,,,,,0,0,0,0,0,117,117,107,354.9916253089905,,,,,,,,,,,,,,,,,,,,,,,,,,,,,,,,,,,,,,,,,,,,,,,,,,,,,,,,,,,,,,,,,,,,,,,,,,,,,,,,,200.0,125.0,125.0,200.0,141.0,141.0,4.0,4.2,-258,-18,0,-287,266,-8,354.97684597969055,354.97688841819763,354.9790394306183,354.9916253089905,355.1413595676422,355.1413595676422,355.1413595676422,355.1413595676422,355.1413595676422,355.1413595676422,355.1413595676422,356.3759469985962,1,1.3759913444519043,None,,,,,,,,,,,,,,,,,,19,3,2025-02-18_15h03.59.477,comp,2024.2.4,60.20477325804215,2025-02-18 15h04.11.462313 -0500,
118,118,0,critical,dwh,20.0,1.0,lower,78.0,78.0,57.0,133.0,133.0,57.0,3,1.4971024990081787,None,,,,,0,0,0,0,0,118,118,66,356.3912558555603,,,,,,,,,,,,,,,,,,,,,,,,,,,,,,,,,,,,,,,,,,,,,,,,,,,,,,,,,,,,,,,,,,,,,,,,,,,,,,,,,78.0,78.0,57.0,133.0,133.0,57.0,1.0,1.1,-682,269,-480,288,-289,252,356.3767297267914,356.3767714500427,356.3791551589966,356.3912558555603,356.54148387908936,356.54148387908936,356.54148387908936,356.54148387908936,356.54148387908936,356.54148387908936,356.54148387908936,357.8924386501312,3,1.4971024990081787,None,,,,,,,,,,,,,,,,,,19,3,2025-02-18_15h03.59.477,comp,2024.2.4,60.20477325804215,2025-02-18 15h04.11.462313 -0500,
119,119,0,filler_random,None,None,None,None,None,None,None,None,None,None,3,1.1650750637054443,None,,,,,0,0,0,0,0,119,119,162,357.9079918861389,,,,,,,,,,,,,,,,,,,,,,,,,,,,,,,,,,,,,,,,,,,,,,,,,,,,,,,,,,,,,,,,,,,,,,,,,,,,,,,,,119.86761676098712,77.69491483057003,166.8931743267372,79.10212814549676,153.423957392837,187.1992724254901,2.1,2.11,-174,267,0,256,229,-255,357.89335656166077,357.8933985233307,357.8958978652954,357.9079918861389,358.05790638923645,358.05790638923645,358.05790638923645,358.05790638923645,358.05790638923645,358.05790638923645,358.05790638923645,359.07600235939026,3,1.1650750637054443,None,,,,,,,,,,,,,,,,,,19,3,2025-02-18_15h03.59.477,comp,2024.2.4,60.20477325804215,2025-02-18 15h04.11.462313 -0500,
120,120,0,filler_square,None,None,None,None,None,None,None,None,None,None,1,1.139176845550537,None,,,,,0,0,0,0,0,120,120,170,359.0913586616516,,,,,,,,,,,,,,,,,,,,,,,,,,,,,,,,,,,,,,,,,,,,,,,,,,,,,,,,,,,,,,,,,,,,,,,,,,,,,,,,,190.63254002505772,190.63254002505772,157.0126199555222,59.772145066940396,147.37858599331702,187.4346090890328,2.1,2.11,-221,289,0,272,220,-265,359.0770933628082,359.0771358013153,359.07934379577637,359.0913586616516,359.2414574623108,359.2414574623108,359.2414574623108,359.2414574623108,359.2414574623108,359.2414574623108,359.2414574623108,360.2427394390106,1,1.139176845550537,None,,,,,,,,,,,,,,,,,,19,3,2025-02-18_15h03.59.477,comp,2024.2.4,60.20477325804215,2025-02-18 15h04.11.462313 -0500,
121,121,0,filler_square,None,None,None,None,None,None,None,None,None,None,2,0.9727206230163574,None,,,,,0,0,0,0,0,121,121,180,360.25772428512573,,,,,,,,,,,,,,,,,,,,,,,,,,,,,,,,,,,,,,,,,,,,,,,,,,,,,,,,,,,,,,,,,,,,,,,,,,,,,,,,,124.02082968526219,63.83398181406149,172.6074372184391,172.6074372184391,58.96443536467023,79.02518687038746,4.0,4.2,-214,10,0,-269,222,2,360.24370527267456,360.2437472343445,360.24606227874756,360.25772428512573,360.40795850753784,360.40795850753784,360.40795850753784,360.40795850753784,360.40795850753784,360.40795850753784,360.40795850753784,361.24307894706726,2,0.9727206230163574,None,,,,,,,,,,,,,,,,,,19,3,2025-02-18_15h03.59.477,comp,2024.2.4,60.20477325804215,2025-02-18 15h04.11.462313 -0500,
122,122,0,critical,wdh,35.0,2.1,upper,125.0,200.0,127.0,127.0,200.0,125.0,1,1.8690171241760254,None,,,,,0,0,0,0,0,122,122,33,361.25769543647766,,,,,,,,,,,,,,,,,,,,,,,,,,,,,,,,,,,,,,,,,,,,,,,,,,,,,,,,,,,,,,,,,,,,,,,,,,,,,,,,,125.0,200.0,127.0,127.0,200.0,125.0,2.1,2.11,-260,270,0,278,222,-277,361.2438371181488,361.2438762187958,361.2459125518799,361.25769543647766,361.4081058502197,361.4081058502197,361.4081058502197,361.4081058502197,361.4081058502197,361.4081058502197,361.4081058502197,363.14279866218567,1,1.8690171241760254,None,,,,,,,,,,,,,,,,,,19,3,2025-02-18_15h03.59.477,comp,2024.2.4,60.20477325804215,2025-02-18 15h04.11.462313 -0500,
123,123,0,filler_random,None,None,None,None,None,None,None,None,None,None,3,3.0008316040039062,None,,,,,0,0,0,0,0,123,123,158,363.15779089927673,,,,,,,,,,,,,,,,,,,,,,,,,,,,,,,,,,,,,,,,,,,,,,,,,,,,,,,,,,,,,,,,,,,,,,,,,,,,,,,,,141.21680835907108,119.24904669340546,80.07550349294877,105.599448517099,163.68493217307545,109.64758003418729,2.1,2.12,-208,-267,0,-273,204,262,363.1436746120453,363.1437132358551,363.1462776660919,363.15779089927673,363.3078570365906,363.3078570365906,363.3078570365906,363.3078570365906,363.3078570365906,363.3078570365906,363.3078570365906,366.17572140693665,3,3.0008316040039062,None,,,,,,,,,,,,,,,,,,19,3,2025-02-18_15h03.59.477,comp,2024.2.4,60.20477325804215,2025-02-18 15h04.11.462313 -0500,
124,124,0,critical,dhw,35.0,4.0,lower,70.0,70.0,133.0,57.0,57.0,133.0,2,2.2245585918426514,None,,,,,0,0,0,0,0,124,124,52,366.1909794807434,,,,,,,,,,,,,,,,,,,,,,,,,,,,,,,,,,,,,,,,,,,,,,,,,,,,,,,,,,,,,,,,,,,,,,,,,,,,,,,,,70.0,70.0,133.0,57.0,57.0,133.0,4.0,4.1,-160,-261,0,-12,191,-261,366.1765251159668,366.17656540870667,366.1787612438202,366.1909794807434,366.3414487838745,366.3414487838745,366.3414487838745,366.3414487838745,366.3414487838745,366.3414487838745,366.3414487838745,368.42581510543823,2,2.2245585918426514,None,,,,,,,,,,,,,,,,,,19,3,2025-02-18_15h03.59.477,comp,2024.2.4,60.20477325804215,2025-02-18 15h04.11.462313 -0500,
125,125,0,critical,dwh,20.0,3.0,upper,141.0,141.0,125.0,200.0,200.0,125.0,2,2.2318599224090576,None,,,,,0,0,0,0,0,125,125,69,368.4412455558777,,,,,,,,,,,,,,,,,,,,,,,,,,,,,,,,,,,,,,,,,,,,,,,,,,,,,,,,,,,,,,,,,,,,,,,,,,,,,,,,,141.0,141.0,125.0,200.0,200.0,125.0,3.0,3.2,-266,-263,0,16,258,258,368.4265556335449,368.42659425735474,368.4286222457886,368.4412455558777,368.5912184715271,368.5912184715271,368.5912184715271,368.5912184715271,368.5912184715271,368.5912184715271,368.5912184715271,370.6759033203125,2,2.2318599224090576,None,,,,,,,,,,,,,,,,,,19,3,2025-02-18_15h03.59.477,comp,2024.2.4,60.20477325804215,2025-02-18 15h04.11.462313 -0500,
126,126,0,filler_random,None,None,None,None,None,None,None,None,None,None,1,1.124734878540039,None,,,,,0,0,0,0,0,126,126,134,370.6912245750427,,,,,,,,,,,,,,,,,,,,,,,,,,,,,,,,,,,,,,,,,,,,,,,,,,,,,,,,,,,,,,,,,,,,,,,,,,,,,,,,,173.0380759168359,102.25673640039898,139.4364848718045,95.97897990555461,171.03430396446964,79.9477469203389,4.0,4.1,-195,-280,0,-17,184,-265,370.67678141593933,370.67683935165405,370.6791079044342,370.6912245750427,370.84154510498047,370.84154510498047,370.84154510498047,370.84154510498047,370.84154510498047,370.84154510498047,370.84154510498047,371.8256297111511,1,1.124734878540039,None,,,,,,,,,,,,,,,,,,19,3,2025-02-18_15h03.59.477,comp,2024.2.4,60.20477325804215,2025-02-18 15h04.11.462313 -0500,
127,127,0,critical,hwd,20.0,4.0,lower,133.0,57.0,57.0,133.0,78.0,78.0,1,2.589076519012451,None,,,,,0,0,0,0,0,127,127,106,371.84131956100464,,,,,,,,,,,,,,,,,,,,,,,,,,,,,,,,,,,,,,,,,,,,,,,,,,,,,,,,,,,,,,,,,,,,,,,,,,,,,,,,,133.0,57.0,57.0,133.0,78.0,78.0,4.0,4.1,-191,-273,0,4,202,-259,371.8264081478119,371.8264467716217,371.8290023803711,371.84131956100464,371.9912004470825,371.9912004470825,371.9912004470825,371.9912004470825,371.9912004470825,371.9912004470825,371.9912004470825,374.4427914619446,1,2.589076519012451,None,,,,,,,,,,,,,,,,,,19,3,2025-02-18_15h03.59.477,comp,2024.2.4,60.20477325804215,2025-02-18 15h04.11.462313 -0500,
128,128,0,filler_square,None,None,None,None,None,None,None,None,None,None,2,0.9502639770507812,None,,,,,0,0,0,0,0,128,128,185,374.4576766490936,,,,,,,,,,,,,,,,,,,,,,,,,,,,,,,,,,,,,,,,,,,,,,,,,,,,,,,,,,,,,,,,,,,,,,,,,,,,,,,,,73.41429477883825,67.93964615207193,140.37994921936163,140.37994921936163,106.48868543786425,108.1663151184419,3.0,3.1,-200,275,0,-4,220,-284,374.4437355995178,374.4437756538391,374.44626569747925,374.4576766490936,374.6080503463745,374.6080503463745,374.6080503463745,374.6080503463745,374.6080503463745,374.6080503463745,374.6080503463745,375.42547726631165,2,0.9502639770507812,None,,,,,,,,,,,,,,,,,,19,3,2025-02-18_15h03.59.477,comp,2024.2.4,60.20477325804215,2025-02-18 15h04.11.462313 -0500,
129,129,0,filler_square,None,None,None,None,None,None,None,None,None,None,3,1.0946528911590576,None,,,,,0,0,0,0,0,129,129,203,375.44090485572815,,,,,,,,,,,,,,,,,,,,,,,,,,,,,,,,,,,,,,,,,,,,,,,,,,,,,,,,,,,,,,,,,,,,,,,,,,,,,,,,,181.05234248027716,183.9934028260179,136.93956902239586,96.14376936186929,184.0232144225845,184.0232144225845,2.1,2.11,-236,282,0,260,236,-261,375.4264450073242,375.4264860153198,375.42900562286377,375.44090485572815,375.59150528907776,375.59150528907776,375.59150528907776,375.59150528907776,375.59150528907776,375.59150528907776,375.59150528907776,376.5425407886505,3,1.0946528911590576,None,,,,,,,,,,,,,,,,,,19,3,2025-02-18_15h03.59.477,comp,2024.2.4,60.20477325804215,2025-02-18 15h04.11.462313 -0500,
130,130,0,critical,hwd,20.0,3.0,lower,133.0,57.0,57.0,133.0,78.0,78.0,2,1.5935161113739014,None,,,,,0,0,0,0,0,130,130,104,376.55779480934143,,,,,,,,,,,,,,,,,,,,,,,,,,,,,,,,,,,,,,,,,,,,,,,,,,,,,,,,,,,,,,,,,,,,,,,,,,,,,,,,,133.0,57.0,57.0,133.0,78.0,78.0,3.0,3.1,-191,288,0,-18,202,-270,376.5433192253113,376.54335951805115,376.54542303085327,376.55779480934143,376.70775985717773,376.70775985717773,376.70775985717773,376.70775985717773,376.70775985717773,376.70775985717773,376.70775985717773,378.158846616745,2,1.5935161113739014,None,,,,,,,,,,,,,,,,,,19,3,2025-02-18_15h03.59.477,comp,2024.2.4,60.20477325804215,2025-02-18 15h04.11.462313 -0500,
131,131,0,filler_square,None,None,None,None,None,None,None,None,None,None,3,1.1521906852722168,None,,,,,0,0,0,0,0,131,131,197,378.17442536354065,,,,,,,,,,,,,,,,,,,,,,,,,,,,,,,,,,,,,,,,,,,,,,,,,,,,,,,,,,,,,,,,,,,,,,,,,,,,,,,,,145.67407960484513,144.05850130320266,167.36201006004217,148.6461487383928,178.6537360793822,178.6537360793822,4.0,4.2,-242,17,0,-289,260,-10,378.1597511768341,378.159793138504,378.16237711906433,378.17442536354065,378.3245837688446,378.3245837688446,378.3245837688446,378.3245837688446,378.3245837688446,378.3245837688446,378.3245837688446,379.3424463272095,3,1.1521906852722168,None,,,,,,,,,,,,,,,,,,19,3,2025-02-18_15h03.59.477,comp,2024.2.4,60.20477325804215,2025-02-18 15h04.11.462313 -0500,
132,132,0,critical,dwh,20.0,4.0,lower,78.0,78.0,57.0,133.0,133.0,57.0,2,0.977562427520752,None,,,,,0,0,0,0,0,132,132,70,379.3576695919037,,,,,,,,,,,,,,,,,,,,,,,,,,,,,,,,,,,,,,,,,,,,,,,,,,,,,,,,,,,,,,,,,,,,,,,,,,,,,,,,,78.0,78.0,57.0,133.0,133.0,57.0,4.0,4.2,-202,10,0,-265,191,5,379.34324288368225,379.3432819843292,379.3457155227661,379.3576695919037,379.50772857666016,379.50772857666016,379.50772857666016,379.50772857666016,379.50772857666016,379.50772857666016,379.50772857666016,380.3421070575714,2,0.977562427520752,None,,,,,,,,,,,,,,,,,,19,3,2025-02-18_15h03.59.477,comp,2024.2.4,60.20477325804215,2025-02-18 15h04.11.462313 -0500,
133,133,0,filler_random,None,None,None,None,None,None,None,None,None,None,3,1.0580909252166748,None,,,,,0,0,0,0,0,133,133,156,380.3577799797058,,,,,,,,,,,,,,,,,,,,,,,,,,,,,,,,,,,,,,,,,,,,,,,,,,,,,,,,,,,,,,,,,,,,,,,,,,,,,,,,,104.91093977087323,120.82519920387966,58.609331643269584,174.1277524853037,124.83958075442449,189.72656763122922,2.2,2.22,-243,277,0,-273,278,-268,380.3430075645447,380.34304785728455,380.34516644477844,380.3577799797058,380.5076971054077,380.5076971054077,380.5076971054077,380.5076971054077,380.5076971054077,380.5076971054077,380.5076971054077,381.4255602359772,3,1.0580909252166748,None,,,,,,,,,,,,,,,,,,19,3,2025-02-18_15h03.59.477,comp,2024.2.4,60.20477325804215,2025-02-18 15h04.11.462313 -0500,
134,134,0,filler_square,None,None,None,None,None,None,None,None,None,None,1,0.910137414932251,None,,,,,0,0,0,0,0,134,134,194,381.44109082221985,,,,,,,,,,,,,,,,,,,,,,,,,,,,,,,,,,,,,,,,,,,,,,,,,,,,,,,,,,,,,,,,,,,,,,,,,,,,,,,,,165.23505734758447,165.23505734758447,151.27380387785985,129.92449207061492,108.6359449104992,158.79876726303863,2.1,2.11,-244,266,0,262,240,-282,381.42649030685425,381.42653226852417,381.4290449619293,381.44109082221985,381.59111976623535,381.59111976623535,381.59111976623535,381.59111976623535,381.59111976623535,381.59111976623535,381.59111976623535,382.35895133018494,1,0.910137414932251,None,,,,,,,,,,,,,,,,,,19,3,2025-02-18_15h03.59.477,comp,2024.2.4,60.20477325804215,2025-02-18 15h04.11.462313 -0500,
135,135,0,filler_random,None,None,None,None,None,None,None,None,None,None,3,1.2089715003967285,None,,,,,0,0,0,0,0,135,135,130,382.37444257736206,,,,,,,,,,,,,,,,,,,,,,,,,,,,,,,,,,,,,,,,,,,,,,,,,,,,,,,,,,,,,,,,,,,,,,,,,,,,,,,,,184.54421917429286,88.14166024713064,151.20325492442748,77.6167139972573,165.72260434818182,120.5384156005535,3.0,3.1,-179,268,0,-11,195,-282,382.3597981929779,382.3598494529724,382.36185812950134,382.37444257736206,382.5244414806366,382.5244414806366,382.5244414806366,382.5244414806366,382.5244414806366,382.5244414806366,382.5244414806366,383.592173576355,3,1.2089715003967285,None,,,,,,,,,,,,,,,,,,19,3,2025-02-18_15h03.59.477,comp,2024.2.4,60.20477325804215,2025-02-18 15h04.11.462313 -0500,
136,136,0,critical,dhw,20.0,2.1,lower,78.0,78.0,133.0,57.0,57.0,133.0,2,1.2085208892822266,None,,,,,0,0,0,0,0,136,136,26,383.60766100883484,,,,,,,,,,,,,,,,,,,,,,,,,,,,,,,,,,,,,,,,,,,,,,,,,,,,,,,,,,,,,,,,,,,,,,,,,,,,,,,,,78.0,78.0,133.0,57.0,57.0,133.0,2.1,2.12,-164,-284,0,-256,191,280,383.5929934978485,383.59303402900696,383.5954656600952,383.60766100883484,383.75762963294983,383.75762963294983,383.75762963294983,383.75762963294983,383.75762963294983,383.75762963294983,383.75762963294983,384.82540702819824,2,1.2085208892822266,None,,,,,,,,,,,,,,,,,,19,3,2025-02-18_15h03.59.477,comp,2024.2.4,60.20477325804215,2025-02-18 15h04.11.462313 -0500,
137,137,0,critical,whd,35.0,1.0,upper,125.0,200.0,200.0,125.0,127.0,127.0,2,2.021228313446045,None,,,,,0,0,0,0,0,137,137,85,384.84104561805725,,,,,,,,,,,,,,,,,,,,,,,,,,,,,,,,,,,,,,,,,,,,,,,,,,,,,,,,,,,,,,,,,,,,,,,,,,,,,,,,,125.0,200.0,200.0,125.0,127.0,127.0,1.0,1.3,222,-255,480,-264,702,-262,384.82621455192566,384.8262560367584,384.828736782074,384.84104561805725,384.99115347862244,384.99115347862244,384.99115347862244,384.99115347862244,384.99115347862244,384.99115347862244,384.99115347862244,386.875599861145,2,2.021228313446045,None,,,,,,,,,,,,,,,,,,19,3,2025-02-18_15h03.59.477,comp,2024.2.4,60.20477325804215,2025-02-18 15h04.11.462313 -0500,
138,138,0,critical,whd,20.0,2.1,upper,125.0,200.0,200.0,125.0,141.0,141.0,2,1.844421625137329,None,,,,,0,0,0,0,0,138,138,39,386.8908007144928,,,,,,,,,,,,,,,,,,,,,,,,,,,,,,,,,,,,,,,,,,,,,,,,,,,,,,,,,,,,,,,,,,,,,,,,,,,,,,,,,125.0,200.0,200.0,125.0,141.0,141.0,2.1,2.12,-258,-260,0,-252,229,256,386.8764269351959,386.8764669895172,386.8790090084076,386.8908007144928,387.04097509384155,387.04097509384155,387.04097509384155,387.04097509384155,387.04097509384155,387.04097509384155,387.04097509384155,388.742479801178,2,1.844421625137329,None,,,,,,,,,,,,,,,,,,19,3,2025-02-18_15h03.59.477,comp,2024.2.4,60.20477325804215,2025-02-18 15h04.11.462313 -0500,
139,139,0,filler_square,None,None,None,None,None,None,None,None,None,None,3,1.3452847003936768,None,,,,,0,0,0,0,0,139,139,182,388.7578263282776,,,,,,,,,,,,,,,,,,,,,,,,,,,,,,,,,,,,,,,,,,,,,,,,,,,,,,,,,,,,,,,,,,,,,,,,,,,,,,,,,98.29302571044255,61.410925605025255,82.90083193671927,88.73169716298204,98.45543567826432,98.45543567826432,1.0,1.3,309,-250,480,-279,670,-281,388.74345350265503,388.7434947490692,388.74560952186584,388.7578263282776,388.9078805446625,388.9078805446625,388.9078805446625,388.9078805446625,388.9078805446625,388.9078805446625,388.9078805446625,390.10873913764954,3,1.3452847003936768,None,,,,,,,,,,,,,,,,,,19,3,2025-02-18_15h03.59.477,comp,2024.2.4,60.20477325804215,2025-02-18 15h04.11.462313 -0500,
