thisN,thisTrialN,thisRepN,effect,order,distance,config,diag,h_1,w_1,h_2,w_2,h_3,w_3,rect_choice.keys,rect_choice.rt,rect_choice.duration,instructions_loop.thisRepN,instructions_loop.thisTrialN,instructions_loop.thisN,instructions_loop.thisIndex,blocks.thisRepN,blocks.thisTrialN,blocks.thisN,blocks.thisIndex,trials.thisRepN,trials.thisTrialN,trials.thisN,trials.thisIndex,thisRow.t,notes,consent.started,agree_button.started,decline_button.started,consent_img.started,mouse.started,consent.stopped,agree_button.numClicks,agree_button.timesOn,agree_button.timesOff,decline_button.numClicks,decline_button.timesOn,decline_button.timesOff,mouse.x,mouse.y,mouse.leftButton,mouse.midButton,mouse.rightButton,mouse.time,mouse.clicked_name,exp_params.started,exp_params.stopped,welcome.started,welcome_text.started,welcome.stopped,instructions_1.started,instructions_1_text_1.started,instructions_1_text_2.started,key_resp.started,instructions_1.stopped,instructions_loop.key_resp.keys,instructions_loop.key_resp.rt,instructions_loop.key_resp.duration,instructions_2.started,instructions_2_text_1.started,instructions_2_text_2.started,key_resp_2.started,instructions_2.stopped,instructions_loop.key_resp_2.keys,instructions_loop.key_resp_2.rt,instructions_loop.key_resp_2.duration,instructions_3.started,instructions_3_text_1.started,r1_instr3.started,r2_instr3.started,r3_instr3.started,r1_instr3_label.started,r2_instr3_label.started,r3_instr3_label.started,instructions_3_text_3.started,instructions_3_text_4.started,key_resp_3.started,instructions_3.stopped,instructions_loop.key_resp_3.keys,instructions_loop.key_resp_3.rt,instructions_loop.key_resp_3.duration,instructions_4.started,instructions_4_text_1.started,instructions_4_text_3.started,instructions_4_text_2.started,key_resp_4.started,instructions_4.stopped,instructions_loop.key_resp_4.keys,instructions_loop.key_resp_4.rt,instructions_loop.key_resp_4.duration,instructions_5.started,instructions_5_text_1.started,instructions_5_text_2.started,key_resp_5.started,instructions_5.stopped,instructions_loop.key_resp_5.keys,instructions_loop.key_resp_5.rt,instructions_loop.key_resp_5.duration,start_exp.started,start_exp_text.started,key_resp_6.started,start_exp.stopped,key_resp_6.keys,key_resp_6.rt,key_resp_6.duration,h_1_tmp,w_1_tmp,h_2_tmp,w_2_tmp,h_3_tmp,w_3_tmp,config_tmp,config_tmp_1,r_1_x,r_1_y,r_2_x,r_2_y,r_3_x,r_3_y,pre_trial.started,pre_trial.stopped,choice_trial.started,rect_choice.started,r_1.started,r_2.started,r_3.started,r_1_label.started,r_2_label.started,r_3_label.started,prompt.started,choice_trial.stopped,trials.rect_choice.keys,trials.rect_choice.rt,trials.rect_choice.duration,end_block.started,end_block_text.started,end_block.stopped,end.started,end_text.started,key_resp_7.started,end.stopped,key_resp_7.keys,key_resp_7.rt,key_resp_7.duration,debriefing.started,debrief_form.started,end_debrief.started,debriefing.stopped,end_debrief.keys,end_debrief.rt,end_debrief.duration,participant,computer,date,expName,psychopyVersion,frameRate,expStart,
,,,,,,,,,,,,,,,,,,,,,,,,,,,,,,,0.014700651168823242,0.03679919242858887,0.03679919242858887,0.03679919242858887,0.014503717422485352,40.5832359790802,1,[40.54390549659729],[40.54392957687378],0,,,[-58.0],[-535.0],[1],[0],[0],[40.568154096603394],['agree_button'],,,,,,,,,,,,,,,,,,,,,,,,,,,,,,,,,,,,,,,,,,,,,,,,,,,,,,,,,,,,,,,,,,,,,,,,,,,,,,,,,,,,,,,,,,,,,,,,,,,,,,,,,,,1,1,2025-02-18_10h01.09.056,comp,2024.2.4,58.857594310564274,2025-02-18 10h02.22.411712 -0500,
,,,,,,,,,,,,,,,,,,,,,,,,,,,,,,,,,,,,,,,,,,,,,,,,,,40.58394956588745,40.584041595458984,,,,,,,,,,,,,,,,,,,,,,,,,,,,,,,,,,,,,,,,,,,,,,,,,,,,,,,,,,,,,,,,,,,,,,,,,,,,,,,,,,,,,,,,,,,,,,,,,,,,,,,,,1,1,2025-02-18_10h01.09.056,comp,2024.2.4,58.857594310564274,2025-02-18 10h02.22.411712 -0500,
,,,,,,,,,,,,,,,,,,,,,,,,,,,,,,,,,,,,,,,,,,,,,,,,,,,,40.58408713340759,40.60193467140198,42.596712827682495,,,,,,,,,,,,,,,,,,,,,,,,,,,,,,,,,,,,,,,,,,,,,,,,,,,,,,,,,,,,,,,,,,,,,,,,,,,,,,,,,,,,,,,,,,,,,,,,,,,,,,1,1,2025-02-18_10h01.09.056,comp,2024.2.4,58.857594310564274,2025-02-18 10h02.22.411712 -0500,
0,0,0,,,,,,,,,,,,,,,0,0,0,0,,,,,,,,,42.613744258880615,,,,,,,,,,,,,,,,,,,,,,,,,,42.59760761260986,42.613744258880615,42.613744258880615,44.09679198265076,46.80029058456421,space,2.6830697059631348,None,46.80044913291931,46.81824994087219,46.81824994087219,48.315136432647705,56.13586902618408,space,7.81619119644165,None,56.13605546951294,56.16349911689758,56.16349911689758,56.16349911689758,56.16349911689758,56.16349911689758,56.16349911689758,56.16349911689758,56.16349911689758,56.16349911689758,57.64308261871338,61.82589507102966,space,4.177088022232056,None,61.826106548309326,61.843966484069824,61.843966484069824,61.843966484069824,63.33908462524414,68.97277545928955,space,5.625028371810913,None,68.97292804718018,68.98923635482788,68.98923635482788,70.47204732894897,70.77131223678589,space,0.29217052459716797,None,70.77151870727539,70.78708624839783,70.78708624839783,71.55815386772156,space,0.760899543762207,None,,,,,,,,,,,,,,,,,,,,,,,,,,,,,,,,,,,,,,,,,,,,,,,1,1,2025-02-18_10h01.09.056,comp,2024.2.4,58.857594310564274,2025-02-18 10h02.22.411712 -0500,
0,0,0,critical,hdw,20.0,2.1,lower,133.0,57.0,78.0,78.0,57.0,133.0,3,27.119999170303345,None,,,,,0,0,0,0,0,0,0,46,71.63587498664856,,,,,,,,,,,,,,,,,,,,,,,,,,,,,,,,,,,,,,,,,,,,,,,,,,,,,,,,,,,,,,,,,,,,,,,,,,,,,,,,,133.0,57.0,78.0,78.0,57.0,133.0,2.1,2.11,-164,253,0,266,202,-251,71.61946415901184,71.61950969696045,71.62064266204834,71.63587498664856,71.78522729873657,71.78522729873657,71.78522729873657,71.78522729873657,71.78522729873657,71.78522729873657,71.78522729873657,98.76914095878601,3,27.119999170303345,None,,,,,,,,,,,,,,,,,,1,1,2025-02-18_10h01.09.056,comp,2024.2.4,58.857594310564274,2025-02-18 10h02.22.411712 -0500,
1,1,0,filler_square,None,None,None,None,None,None,None,None,None,None,3,2.3151893615722656,None,,,,,0,0,0,0,0,1,1,193,98.78488111495972,,,,,,,,,,,,,,,,,,,,,,,,,,,,,,,,,,,,,,,,,,,,,,,,,,,,,,,,,,,,,,,,,,,,,,,,,,,,,,,,,123.6783342552893,124.98676660734164,83.23152410615148,67.63650845495786,155.71480196970123,155.71480196970123,2.1,2.12,-192,-260,0,-254,208,290,98.77160263061523,98.77168321609497,98.77453422546387,98.78488111495972,98.9321186542511,98.9321186542511,98.9321186542511,98.9321186542511,98.9321186542511,98.9321186542511,98.9321186542511,101.11643886566162,3,2.3151893615722656,None,,,,,,,,,,,,,,,,,,1,1,2025-02-18_10h01.09.056,comp,2024.2.4,58.857594310564274,2025-02-18 10h02.22.411712 -0500,
2,2,0,critical,dwh,20.0,1.0,lower,78.0,78.0,57.0,133.0,133.0,57.0,2,6.071594715118408,None,,,,,0,0,0,0,0,2,2,66,101.13204884529114,,,,,,,,,,,,,,,,,,,,,,,,,,,,,,,,,,,,,,,,,,,,,,,,,,,,,,,,,,,,,,,,,,,,,,,,,,,,,,,,,78.0,78.0,57.0,133.0,133.0,57.0,1.0,1.1,-682,277,-480,257,-289,271,101.11793446540833,101.11805200576782,101.1215307712555,101.13204884529114,101.2820692062378,101.2820692062378,101.2820692062378,101.2820692062378,101.2820692062378,101.2820692062378,101.2820692062378,107.21809244155884,2,6.071594715118408,None,,,,,,,,,,,,,,,,,,1,1,2025-02-18_10h01.09.056,comp,2024.2.4,58.857594310564274,2025-02-18 10h02.22.411712 -0500,
3,3,0,filler_square,None,None,None,None,None,None,None,None,None,None,2,5.048908948898315,None,,,,,0,0,0,0,0,3,3,174,107.23565483093262,,,,,,,,,,,,,,,,,,,,,,,,,,,,,,,,,,,,,,,,,,,,,,,,,,,,,,,,,,,,,,,,,,,,,,,,,,,,,,,,,89.33646361488056,85.16227944953587,93.1418798877114,93.1418798877114,82.322451222255,81.79074898318709,3.0,3.1,-185,261,0,-5,183,-271,107.21998071670532,107.22014594078064,107.22341322898865,107.23565483093262,107.38563227653503,107.38563227653503,107.38563227653503,107.38563227653503,107.38563227653503,107.38563227653503,107.38563227653503,112.29096174240112,2,5.048908948898315,None,,,,,,,,,,,,,,,,,,1,1,2025-02-18_10h01.09.056,comp,2024.2.4,58.857594310564274,2025-02-18 10h02.22.411712 -0500,
4,4,0,filler_square,None,None,None,None,None,None,None,None,None,None,2,6.408933162689209,None,,,,,0,0,0,0,0,4,4,196,112.30757164955139,,,,,,,,,,,,,,,,,,,,,,,,,,,,,,,,,,,,,,,,,,,,,,,,,,,,,,,,,,,,,,,,,,,,,,,,,,,,,,,,,98.14269246471007,112.20040950492321,158.40042510588066,158.40042510588066,150.69641104786828,133.1939452018641,2.2,2.22,-231,286,0,-265,242,-252,112.29318165779114,112.2932608127594,112.29651522636414,112.30757164955139,112.45343685150146,112.45343685150146,112.45343685150146,112.45343685150146,112.45343685150146,112.45343685150146,112.45343685150146,118.72161602973938,2,6.408933162689209,None,,,,,,,,,,,,,,,,,,1,1,2025-02-18_10h01.09.056,comp,2024.2.4,58.857594310564274,2025-02-18 10h02.22.411712 -0500,
5,5,0,critical,wdh,35.0,2.1,upper,125.0,200.0,127.0,127.0,200.0,125.0,1,2.7497718334198,None,,,,,0,0,0,0,0,5,5,33,118.74193930625916,,,,,,,,,,,,,,,,,,,,,,,,,,,,,,,,,,,,,,,,,,,,,,,,,,,,,,,,,,,,,,,,,,,,,,,,,,,,,,,,,125.0,200.0,127.0,127.0,200.0,125.0,2.1,2.12,-260,-257,0,-267,222,285,118.7233145236969,118.72341084480286,118.72694730758667,118.74193930625916,118.88902711868286,118.88902711868286,118.88902711868286,118.88902711868286,118.88902711868286,118.88902711868286,118.88902711868286,121.50603532791138,1,2.7497718334198,None,,,,,,,,,,,,,,,,,,1,1,2025-02-18_10h01.09.056,comp,2024.2.4,58.857594310564274,2025-02-18 10h02.22.411712 -0500,
6,6,0,filler_random,None,None,None,None,None,None,None,None,None,None,3,26.530221700668335,None,,,,,0,0,0,0,0,6,6,138,121.52169442176819,,,,,,,,,,,,,,,,,,,,,,,,,,,,,,,,,,,,,,,,,,,,,,,,,,,,,,,,,,,,,,,,,,,,,,,,,,,,,,,,,94.14532939102354,85.99811182886387,194.54667317435886,94.03235750668114,97.72807380739295,150.79806086078128,3.0,3.2,-186,-251,0,16,218,285,121.50775289535522,121.50782942771912,121.51106357574463,121.52169442176819,121.66277384757996,121.66277384757996,121.66277384757996,121.66277384757996,121.66277384757996,121.66277384757996,121.66277384757996,148.06450819969177,3,26.530221700668335,None,,,,,,,,,,,,,,,,,,1,1,2025-02-18_10h01.09.056,comp,2024.2.4,58.857594310564274,2025-02-18 10h02.22.411712 -0500,
7,7,0,critical,hdw,35.0,4.0,upper,200.0,125.0,127.0,127.0,125.0,200.0,3,28.501067876815796,None,,,,,0,0,0,0,0,7,7,113,148.0810670852661,,,,,,,,,,,,,,,,,,,,,,,,,,,,,,,,,,,,,,,,,,,,,,,,,,,,,,,,,,,,,,,,,,,,,,,,,,,,,,,,,200.0,125.0,127.0,127.0,125.0,200.0,4.0,4.1,-222,-270,0,-18,260,-278,148.0661482810974,148.06625986099243,148.0696849822998,148.0810670852661,148.22051644325256,148.22051644325256,148.22051644325256,148.22051644325256,148.22051644325256,148.22051644325256,148.22051644325256,176.59243035316467,3,28.501067876815796,None,,,,,,,,,,,,,,,,,,1,1,2025-02-18_10h01.09.056,comp,2024.2.4,58.857594310564274,2025-02-18 10h02.22.411712 -0500,
8,8,0,critical,hwd,35.0,3.0,lower,133.0,57.0,57.0,133.0,70.0,70.0,2,12.763207912445068,None,,,,,0,0,0,0,0,8,8,98,176.60914492607117,,,,,,,,,,,,,,,,,,,,,,,,,,,,,,,,,,,,,,,,,,,,,,,,,,,,,,,,,,,,,,,,,,,,,,,,,,,,,,,,,133.0,57.0,57.0,133.0,70.0,70.0,3.0,3.1,-191,276,0,-13,198,-277,176.59426069259644,176.5943443775177,176.5982587337494,176.60914492607117,176.75787949562073,176.75787949562073,176.75787949562073,176.75787949562073,176.75787949562073,176.75787949562073,176.75787949562073,189.38209986686707,2,12.763207912445068,None,,,,,,,,,,,,,,,,,,1,1,2025-02-18_10h01.09.056,comp,2024.2.4,58.857594310564274,2025-02-18 10h02.22.411712 -0500,
9,9,0,critical,dhw,35.0,2.1,lower,70.0,70.0,133.0,57.0,57.0,133.0,2,9.62732720375061,None,,,,,0,0,0,0,0,9,9,0,189.40155506134033,,,,,,,,,,,,,,,,,,,,,,,,,,,,,,,,,,,,,,,,,,,,,,,,,,,,,,,,,,,,,,,,,,,,,,,,,,,,,,,,,70.0,70.0,133.0,57.0,57.0,133.0,2.1,2.11,-160,257,0,261,191,-255,189.38375449180603,189.38388633728027,189.3871636390686,189.40155506134033,189.54470992088318,189.54470992088318,189.54470992088318,189.54470992088318,189.54470992088318,189.54470992088318,189.54470992088318,199.0468451976776,2,9.62732720375061,None,,,,,,,,,,,,,,,,,,1,1,2025-02-18_10h01.09.056,comp,2024.2.4,58.857594310564274,2025-02-18 10h02.22.411712 -0500,
10,10,0,critical,dwh,20.0,4.0,lower,78.0,78.0,57.0,133.0,133.0,57.0,3,18.2218918800354,None,,,,,0,0,0,0,0,10,10,70,199.06270956993103,,,,,,,,,,,,,,,,,,,,,,,,,,,,,,,,,,,,,,,,,,,,,,,,,,,,,,,,,,,,,,,,,,,,,,,,,,,,,,,,,78.0,78.0,57.0,133.0,133.0,57.0,4.0,4.1,-202,-258,0,-14,191,-288,199.04846096038818,199.0485441684723,199.05186986923218,199.06270956993103,199.2141351699829,199.2141351699829,199.2141351699829,199.2141351699829,199.2141351699829,199.2141351699829,199.2141351699829,217.28733849525452,3,18.2218918800354,None,,,,,,,,,,,,,,,,,,1,1,2025-02-18_10h01.09.056,comp,2024.2.4,58.857594310564274,2025-02-18 10h02.22.411712 -0500,
11,11,0,filler_random,None,None,None,None,None,None,None,None,None,None,1,5.470224142074585,None,,,,,0,0,0,0,0,11,11,139,217.30263590812683,,,,,,,,,,,,,,,,,,,,,,,,,,,,,,,,,,,,,,,,,,,,,,,,,,,,,,,,,,,,,,,,,,,,,,,,,,,,,,,,,181.6703610782405,199.2359026539225,170.25726498306182,178.59400787684984,67.29444444973,71.12257947052443,2.1,2.11,-285,262,0,284,221,-278,217.28935480117798,217.28948163986206,217.2928102016449,217.30263590812683,217.45292592048645,217.45292592048645,217.45292592048645,217.45292592048645,217.45292592048645,217.45292592048645,217.45292592048645,222.77631402015686,1,5.470224142074585,None,,,,,,,,,,,,,,,,,,1,1,2025-02-18_10h01.09.056,comp,2024.2.4,58.857594310564274,2025-02-18 10h02.22.411712 -0500,
12,12,0,critical,hdw,35.0,2.1,lower,133.0,57.0,70.0,70.0,57.0,133.0,3,11.543322801589966,None,,,,,0,0,0,0,0,12,12,44,222.79738306999207,,,,,,,,,,,,,,,,,,,,,,,,,,,,,,,,,,,,,,,,,,,,,,,,,,,,,,,,,,,,,,,,,,,,,,,,,,,,,,,,,133.0,57.0,70.0,70.0,57.0,133.0,2.1,2.11,-160,286,0,251,198,-284,222.7779312133789,222.7780637741089,222.78150463104248,222.79738306999207,222.93829345703125,222.93829345703125,222.93829345703125,222.93829345703125,222.93829345703125,222.93829345703125,222.93829345703125,234.34288883209229,3,11.543322801589966,None,,,,,,,,,,,,,,,,,,1,1,2025-02-18_10h01.09.056,comp,2024.2.4,58.857594310564274,2025-02-18 10h02.22.411712 -0500,
13,13,0,critical,hdw,35.0,4.0,lower,133.0,57.0,70.0,70.0,57.0,133.0,1,5.573635101318359,None,,,,,0,0,0,0,0,13,13,112,234.35908770561218,,,,,,,,,,,,,,,,,,,,,,,,,,,,,,,,,,,,,,,,,,,,,,,,,,,,,,,,,,,,,,,,,,,,,,,,,,,,,,,,,133.0,57.0,70.0,70.0,57.0,133.0,4.0,4.2,-160,13,0,-277,198,-2,234.34461498260498,234.34469389915466,234.3482174873352,234.35908770561218,234.50033831596375,234.50033831596375,234.50033831596375,234.50033831596375,234.50033831596375,234.50033831596375,234.50033831596375,239.943452835083,1,5.573635101318359,None,,,,,,,,,,,,,,,,,,1,1,2025-02-18_10h01.09.056,comp,2024.2.4,58.857594310564274,2025-02-18 10h02.22.411712 -0500,
14,14,0,critical,hdw,35.0,2.1,upper,200.0,125.0,127.0,127.0,125.0,200.0,1,25.757184982299805,None,,,,,0,0,0,0,0,14,14,45,239.95984148979187,,,,,,,,,,,,,,,,,,,,,,,,,,,,,,,,,,,,,,,,,,,,,,,,,,,,,,,,,,,,,,,,,,,,,,,,,,,,,,,,,200.0,125.0,127.0,127.0,125.0,200.0,2.1,2.12,-222,-283,0,-279,260,286,239.94502973556519,239.94510960578918,239.94818091392517,239.95984148979187,240.11128044128418,240.11128044128418,240.11128044128418,240.11128044128418,240.11128044128418,240.11128044128418,240.11128044128418,265.72676849365234,1,25.757184982299805,None,,,,,,,,,,,,,,,,,,1,1,2025-02-18_10h01.09.056,comp,2024.2.4,58.857594310564274,2025-02-18 10h02.22.411712 -0500,
15,15,0,critical,hwd,35.0,2.1,upper,200.0,125.0,125.0,200.0,127.0,127.0,1,4.887789011001587,None,,,,,0,0,0,0,0,15,15,41,265.7422173023224,,,,,,,,,,,,,,,,,,,,,,,,,,,,,,,,,,,,,,,,,,,,,,,,,,,,,,,,,,,,,,,,,,,,,,,,,,,,,,,,,200.0,125.0,125.0,200.0,127.0,127.0,2.1,2.12,-258,-285,0,-283,260,265,265.72832560539246,265.72840452194214,265.7312972545624,265.7422173023224,265.88457703590393,265.88457703590393,265.88457703590393,265.88457703590393,265.88457703590393,265.88457703590393,265.88457703590393,270.63825964927673,1,4.887789011001587,None,,,,,,,,,,,,,,,,,,1,1,2025-02-18_10h01.09.056,comp,2024.2.4,58.857594310564274,2025-02-18 10h02.22.411712 -0500,
16,16,0,filler_random,None,None,None,None,None,None,None,None,None,None,1,3.310554027557373,None,,,,,0,0,0,0,0,16,16,146,270.65501594543457,,,,,,,,,,,,,,,,,,,,,,,,,,,,,,,,,,,,,,,,,,,,,,,,,,,,,,,,,,,,,,,,,,,,,,,,,,,,,,,,,190.7228431258184,111.06788316181624,186.68136711215007,84.67863946145525,128.481470351633,78.17032284902525,1.0,1.1,-674,252,-480,252,-303,253,270.6399805545807,270.64008688926697,270.64412212371826,270.65501594543457,270.8050618171692,270.8050618171692,270.8050618171692,270.8050618171692,270.8050618171692,270.8050618171692,270.8050618171692,273.9731123447418,1,3.310554027557373,None,,,,,,,,,,,,,,,,,,1,1,2025-02-18_10h01.09.056,comp,2024.2.4,58.857594310564274,2025-02-18 10h02.22.411712 -0500,
17,17,0,critical,wdh,20.0,2.1,upper,125.0,200.0,141.0,141.0,200.0,125.0,1,11.026533842086792,None,,,,,0,0,0,0,0,17,17,11,273.98918747901917,,,,,,,,,,,,,,,,,,,,,,,,,,,,,,,,,,,,,,,,,,,,,,,,,,,,,,,,,,,,,,,,,,,,,,,,,,,,,,,,,125.0,200.0,141.0,141.0,200.0,125.0,2.1,2.12,-266,-288,0,-261,229,269,273.9747414588928,273.97482085227966,273.9784128665924,273.98918747901917,274.1389102935791,274.1389102935791,274.1389102935791,274.1389102935791,274.1389102935791,274.1389102935791,274.1389102935791,285.02616691589355,1,11.026533842086792,None,,,,,,,,,,,,,,,,,,1,1,2025-02-18_10h01.09.056,comp,2024.2.4,58.857594310564274,2025-02-18 10h02.22.411712 -0500,
18,18,0,filler_square,None,None,None,None,None,None,None,None,None,None,1,3.133610725402832,None,,,,,0,0,0,0,0,18,18,184,285.04303073883057,,,,,,,,,,,,,,,,,,,,,,,,,,,,,,,,,,,,,,,,,,,,,,,,,,,,,,,,,,,,,,,,,,,,,,,,,,,,,,,,,168.62125336700797,168.62125336700797,103.86466535668603,58.23484118925536,140.2132049310333,117.48286245301117,2.2,2.21,-209,-267,0,254,184,282,285.02805280685425,285.02813172340393,285.03217601776123,285.04303073883057,285.1934759616852,285.1934759616852,285.1934759616852,285.1934759616852,285.1934759616852,285.1934759616852,285.1934759616852,288.1936399936676,1,3.133610725402832,None,,,,,,,,,,,,,,,,,,1,1,2025-02-18_10h01.09.056,comp,2024.2.4,58.857594310564274,2025-02-18 10h02.22.411712 -0500,
19,19,0,critical,hdw,20.0,2.1,upper,200.0,125.0,141.0,141.0,125.0,200.0,3,12.095643520355225,None,,,,,0,0,0,0,0,19,19,23,288.21413564682007,,,,,,,,,,,,,,,,,,,,,,,,,,,,,,,,,,,,,,,,,,,,,,,,,,,,,,,,,,,,,,,,,,,,,,,,,,,,,,,,,200.0,125.0,141.0,141.0,125.0,200.0,2.1,2.11,-229,272,0,269,266,-283,288.1953091621399,288.1954433917999,288.19880414009094,288.21413564682007,288.3607792854309,288.3607792854309,288.3607792854309,288.3607792854309,288.3607792854309,288.3607792854309,288.3607792854309,300.31314611434937,3,12.095643520355225,None,,,,,,,,,,,,,,,,,,1,1,2025-02-18_10h01.09.056,comp,2024.2.4,58.857594310564274,2025-02-18 10h02.22.411712 -0500,
20,20,0,critical,hwd,20.0,3.0,lower,133.0,57.0,57.0,133.0,78.0,78.0,1,6.213736295700073,None,,,,,0,0,0,0,0,20,20,104,300.3288209438324,,,,,,,,,,,,,,,,,,,,,,,,,,,,,,,,,,,,,,,,,,,,,,,,,,,,,,,,,,,,,,,,,,,,,,,,,,,,,,,,,133.0,57.0,57.0,133.0,78.0,78.0,3.0,3.2,-191,-279,0,-15,202,267,300.3147006034851,300.3147814273834,300.3178641796112,300.3288209438324,300.4691393375397,300.4691393375397,300.4691393375397,300.4691393375397,300.4691393375397,300.4691393375397,300.4691393375397,306.54840111732483,1,6.213736295700073,None,,,,,,,,,,,,,,,,,,1,1,2025-02-18_10h01.09.056,comp,2024.2.4,58.857594310564274,2025-02-18 10h02.22.411712 -0500,
21,21,0,filler_square,None,None,None,None,None,None,None,None,None,None,2,2.008241653442383,None,,,,,0,0,0,0,0,21,21,198,306.56677317619324,,,,,,,,,,,,,,,,,,,,,,,,,,,,,,,,,,,,,,,,,,,,,,,,,,,,,,,,,,,,,,,,,,,,,,,,,,,,,,,,,78.2417794563762,106.4497590922719,112.67078794289718,112.67078794289718,65.19077245409937,80.04261796385701,1.0,1.2,-206,-11,0,13,192,1,306.55044293403625,306.5505213737488,306.5537486076355,306.56677317619324,306.71594071388245,306.71594071388245,306.71594071388245,306.71594071388245,306.71594071388245,306.71594071388245,306.71594071388245,308.5823817253113,2,2.008241653442383,None,,,,,,,,,,,,,,,,,,1,1,2025-02-18_10h01.09.056,comp,2024.2.4,58.857594310564274,2025-02-18 10h02.22.411712 -0500,
22,22,0,critical,wdh,20.0,2.1,lower,57.0,133.0,78.0,78.0,133.0,57.0,3,7.319002866744995,None,,,,,0,0,0,0,0,22,22,10,308.59858775138855,,,,,,,,,,,,,,,,,,,,,,,,,,,,,,,,,,,,,,,,,,,,,,,,,,,,,,,,,,,,,,,,,,,,,,,,,,,,,,,,,57.0,133.0,78.0,78.0,133.0,57.0,2.1,2.12,-202,-280,0,-266,164,288,308.58388781547546,308.58396768569946,308.5869755744934,308.59858775138855,308.7499454021454,308.7499454021454,308.7499454021454,308.7499454021454,308.7499454021454,308.7499454021454,308.7499454021454,315.9351010322571,3,7.319002866744995,None,,,,,,,,,,,,,,,,,,1,1,2025-02-18_10h01.09.056,comp,2024.2.4,58.857594310564274,2025-02-18 10h02.22.411712 -0500,
23,23,0,filler_square,None,None,None,None,None,None,None,None,None,None,2,1.6749389171600342,None,,,,,0,0,0,0,0,23,23,206,315.9554636478424,,,,,,,,,,,,,,,,,,,,,,,,,,,,,,,,,,,,,,,,,,,,,,,,,,,,,,,,,,,,,,,,,,,,,,,,,,,,,,,,,88.26579988297219,115.16437254646229,130.76905338822684,130.76905338822684,122.97922894314526,79.47804343012139,1.0,1.2,-219,-18,0,12,201,-7,315.93688797950745,315.93696570396423,315.9401457309723,315.9554636478424,316.1021122932434,316.1021122932434,316.1021122932434,316.1021122932434,316.1021122932434,316.1021122932434,316.1021122932434,317.63532423973083,2,1.6749389171600342,None,,,,,,,,,,,,,,,,,,1,1,2025-02-18_10h01.09.056,comp,2024.2.4,58.857594310564274,2025-02-18 10h02.22.411712 -0500,
24,24,0,filler_random,None,None,None,None,None,None,None,None,None,None,2,2.5691158771514893,None,,,,,0,0,0,0,0,24,24,134,317.6524410247803,,,,,,,,,,,,,,,,,,,,,,,,,,,,,,,,,,,,,,,,,,,,,,,,,,,,,,,,,,,,,,,,,,,,,,,,,,,,,,,,,98.43388412815358,98.33647632606355,116.29006306008606,126.71441681539793,87.24500273320723,85.39489666587565,1.0,1.3,271,-266,480,-263,682,-255,317.63719391822815,317.63731694221497,317.64073038101196,317.6524410247803,317.803085565567,317.803085565567,317.803085565567,317.803085565567,317.803085565567,317.803085565567,317.803085565567,320.23645281791687,2,2.5691158771514893,None,,,,,,,,,,,,,,,,,,1,1,2025-02-18_10h01.09.056,comp,2024.2.4,58.857594310564274,2025-02-18 10h02.22.411712 -0500,
25,25,0,filler_random,None,None,None,None,None,None,None,None,None,None,1,7.017269611358643,None,,,,,0,0,0,0,0,25,25,131,320.25246810913086,,,,,,,,,,,,,,,,,,,,,,,,,,,,,,,,,,,,,,,,,,,,,,,,,,,,,,,,,,,,,,,,,,,,,,,,,,,,,,,,,88.46215677282815,186.693662240344,66.15968937078573,75.01537815303246,185.3567501423182,81.84283776734725,4.0,4.2,-227,-9,0,-264,174,11,320.2381594181061,320.2382380962372,320.24143624305725,320.25246810913086,320.40877628326416,320.40877628326416,320.40877628326416,320.40877628326416,320.40877628326416,320.40877628326416,320.40877628326416,327.2883651256561,1,7.017269611358643,None,,,,,,,,,,,,,,,,,,1,1,2025-02-18_10h01.09.056,comp,2024.2.4,58.857594310564274,2025-02-18 10h02.22.411712 -0500,
26,26,0,critical,dhw,20.0,1.0,lower,78.0,78.0,133.0,57.0,57.0,133.0,2,8.66136884689331,None,,,,,0,0,0,0,0,26,26,54,327.3050334453583,,,,,,,,,,,,,,,,,,,,,,,,,,,,,,,,,,,,,,,,,,,,,,,,,,,,,,,,,,,,,,,,,,,,,,,,,,,,,,,,,78.0,78.0,133.0,57.0,57.0,133.0,1.0,1.1,-644,283,-480,278,-289,251,327.2900912761688,327.2901704311371,327.2935335636139,327.3050334453583,327.4590528011322,327.4590528011322,327.4590528011322,327.4590528011322,327.4590528011322,327.4590528011322,327.4590528011322,335.9744908809662,2,8.66136884689331,None,,,,,,,,,,,,,,,,,,1,1,2025-02-18_10h01.09.056,comp,2024.2.4,58.857594310564274,2025-02-18 10h02.22.411712 -0500,
27,27,0,filler_square,None,None,None,None,None,None,None,None,None,None,3,1.4602746963500977,None,,,,,0,0,0,0,0,27,27,176,335.9939172267914,,,,,,,,,,,,,,,,,,,,,,,,,,,,,,,,,,,,,,,,,,,,,,,,,,,,,,,,,,,,,,,,,,,,,,,,,,,,,,,,,146.64462444270177,120.65567558551689,112.91433935016599,150.70169790951104,184.36566604989184,184.36566604989184,4.0,4.2,-232,-15,0,-257,264,8,335.9763038158417,335.9763822555542,335.9793977737427,335.9939172267914,336.14645409584045,336.14645409584045,336.14645409584045,336.14645409584045,336.14645409584045,336.14645409584045,336.14645409584045,337.4585015773773,3,1.4602746963500977,None,,,,,,,,,,,,,,,,,,1,1,2025-02-18_10h01.09.056,comp,2024.2.4,58.857594310564274,2025-02-18 10h02.22.411712 -0500,
28,28,0,critical,dhw,20.0,2.1,lower,78.0,78.0,133.0,57.0,57.0,133.0,2,2.1772093772888184,None,,,,,0,0,0,0,0,28,28,26,337.4770612716675,,,,,,,,,,,,,,,,,,,,,,,,,,,,,,,,,,,,,,,,,,,,,,,,,,,,,,,,,,,,,,,,,,,,,,,,,,,,,,,,,78.0,78.0,133.0,57.0,57.0,133.0,2.1,2.11,-164,281,0,281,191,-266,337.4601995944977,337.4603319168091,337.463907957077,337.4770612716675,337.6255133152008,337.6255133152008,337.6255133152008,337.6255133152008,337.6255133152008,337.6255133152008,337.6255133152008,339.65887331962585,2,2.1772093772888184,None,,,,,,,,,,,,,,,,,,1,1,2025-02-18_10h01.09.056,comp,2024.2.4,58.857594310564274,2025-02-18 10h02.22.411712 -0500,
29,29,0,filler_random,None,None,None,None,None,None,None,None,None,None,2,31.49917459487915,None,,,,,0,0,0,0,0,29,29,140,339.67477107048035,,,,,,,,,,,,,,,,,,,,,,,,,,,,,,,,,,,,,,,,,,,,,,,,,,,,,,,,,,,,,,,,,,,,,,,,,,,,,,,,,109.2247976676669,95.34069627570571,99.06805522805564,130.25311545746789,179.06374024357007,69.64206091176813,3.0,3.2,-209,-252,0,-4,196,271,339.66063809394836,339.6607184410095,339.66401767730713,339.67477107048035,339.8269429206848,339.8269429206848,339.8269429206848,339.8269429206848,339.8269429206848,339.8269429206848,339.8269429206848,371.1871793270111,2,31.49917459487915,None,,,,,,,,,,,,,,,,,,1,1,2025-02-18_10h01.09.056,comp,2024.2.4,58.857594310564274,2025-02-18 10h02.22.411712 -0500,
30,30,0,catch,None,None,None,None,None,None,None,None,None,None,2,1.5383691787719727,None,,,,,0,0,0,0,0,30,30,129,371.20365929603577,,,,,,,,,,,,,,,,,,,,,,,,,,,,,,,,,,,,,,,,,,,,,,,,,,,,,,,,,,,,,,,,,,,,,,,,,,,,,,,,,98,92,141,184,96,94,2.1,2.12,-234,-259,0,-268,235,283,371.18922209739685,371.18930172920227,371.19334387779236,371.20365929603577,371.3535506725311,371.3535506725311,371.3535506725311,371.3535506725311,371.3535506725311,371.3535506725311,371.3535506725311,372.7552523612976,2,1.5383691787719727,None,,,,,,,,,,,,,,,,,,1,1,2025-02-18_10h01.09.056,comp,2024.2.4,58.857594310564274,2025-02-18 10h02.22.411712 -0500,
31,31,0,filler_square,None,None,None,None,None,None,None,None,None,None,1,6.369769096374512,None,,,,,0,0,0,0,0,31,31,180,372.77223944664,,,,,,,,,,,,,,,,,,,,,,,,,,,,,,,,,,,,,,,,,,,,,,,,,,,,,,,,,,,,,,,,,,,,,,,,,,,,,,,,,147.4096132841766,147.4096132841766,143.1728233794335,137.45297084634822,62.695724031048826,59.45582703552443,2.1,2.12,-238,-286,0,-283,194,280,372.7574369907379,372.757568359375,372.76106786727905,372.77223944664,372.9205949306488,372.9205949306488,372.9205949306488,372.9205949306488,372.9205949306488,372.9205949306488,372.9205949306488,379.1548430919647,1,6.369769096374512,None,,,,,,,,,,,,,,,,,,1,1,2025-02-18_10h01.09.056,comp,2024.2.4,58.857594310564274,2025-02-18 10h02.22.411712 -0500,
32,32,0,filler_random,None,None,None,None,None,None,None,None,None,None,2,1.9150309562683105,None,,,,,0,0,0,0,0,32,32,151,379.1714963912964,,,,,,,,,,,,,,,,,,,,,,,,,,,,,,,,,,,,,,,,,,,,,,,,,,,,,,,,,,,,,,,,,,,,,,,,,,,,,,,,,77.82473321735577,102.79179774341752,188.5322960531594,92.00504667837089,83.72181349284303,78.92914467505602,2.1,2.11,-193,261,0,283,181,-274,379.1567614078522,379.15689754486084,379.1602189540863,379.1714963912964,379.3232717514038,379.3232717514038,379.3232717514038,379.3232717514038,379.3232717514038,379.3232717514038,379.3232717514038,381.0901348590851,2,1.9150309562683105,None,,,,,,,,,,,,,,,,,,1,1,2025-02-18_10h01.09.056,comp,2024.2.4,58.857594310564274,2025-02-18 10h02.22.411712 -0500,
33,33,0,filler_random,None,None,None,None,None,None,None,None,None,None,3,3.0519564151763916,None,,,,,0,0,0,0,0,33,33,157,381.1062481403351,,,,,,,,,,,,,,,,,,,,,,,,,,,,,,,,,,,,,,,,,,,,,,,,,,,,,,,,,,,,,,,,,,,,,,,,,,,,,,,,,67.43735593551288,130.83638654114918,192.13496959421437,125.09552535345175,135.41811050497216,195.32265940878477,2.1,2.12,-224,-253,0,-259,256,256,381.0919404029846,381.09204292297363,381.0953230857849,381.1062481403351,381.26023960113525,381.26023960113525,381.26023960113525,381.26023960113525,381.26023960113525,381.26023960113525,381.26023960113525,384.1741192340851,3,3.0519564151763916,None,,,,,,,,,,,,,,,,,,1,1,2025-02-18_10h01.09.056,comp,2024.2.4,58.857594310564274,2025-02-18 10h02.22.411712 -0500,
34,34,0,critical,dwh,35.0,4.0,upper,127.0,127.0,125.0,200.0,200.0,125.0,2,2.2245543003082275,None,,,,,0,0,0,0,0,34,34,65,384.1895079612732,,,,,,,,,,,,,,,,,,,,,,,,,,,,,,,,,,,,,,,,,,,,,,,,,,,,,,,,,,,,,,,,,,,,,,,,,,,,,,,,,127.0,127.0,125.0,200.0,200.0,125.0,4.0,4.2,-260,-4,0,-255,258,-13,384.1757016181946,384.17578125,384.1792252063751,384.1895079612732,384.3389549255371,384.3389549255371,384.3389549255371,384.3389549255371,384.3389549255371,384.3389549255371,384.3389549255371,386.4255132675171,2,2.2245543003082275,None,,,,,,,,,,,,,,,,,,1,1,2025-02-18_10h01.09.056,comp,2024.2.4,58.857594310564274,2025-02-18 10h02.22.411712 -0500,
35,35,0,critical,hdw,35.0,2.1,upper,200.0,125.0,127.0,127.0,125.0,200.0,1,13.78832197189331,None,,,,,0,0,0,0,0,35,35,21,386.4419414997101,,,,,,,,,,,,,,,,,,,,,,,,,,,,,,,,,,,,,,,,,,,,,,,,,,,,,,,,,,,,,,,,,,,,,,,,,,,,,,,,,200.0,125.0,127.0,127.0,125.0,200.0,2.1,2.12,-222,-273,0,-269,260,284,386.4270739555359,386.42715096473694,386.4300203323364,386.4419414997101,386.5907244682312,386.5907244682312,386.5907244682312,386.5907244682312,386.5907244682312,386.5907244682312,386.5907244682312,400.2329092025757,1,13.78832197189331,None,,,,,,,,,,,,,,,,,,1,1,2025-02-18_10h01.09.056,comp,2024.2.4,58.857594310564274,2025-02-18 10h02.22.411712 -0500,
36,36,0,critical,dwh,20.0,2.1,upper,141.0,141.0,125.0,200.0,200.0,125.0,2,40.704445362091064,None,,,,,0,0,0,0,0,36,36,7,400.2540707588196,,,,,,,,,,,,,,,,,,,,,,,,,,,,,,,,,,,,,,,,,,,,,,,,,,,,,,,,,,,,,,,,,,,,,,,,,,,,,,,,,141.0,141.0,125.0,200.0,200.0,125.0,2.1,2.11,-266,279,0,288,258,-279,400.23455810546875,400.2346873283386,400.23827505111694,400.2540707588196,400.3956952095032,400.3956952095032,400.3956952095032,400.3956952095032,400.3956952095032,400.3956952095032,400.3956952095032,440.9607172012329,2,40.704445362091064,None,,,,,,,,,,,,,,,,,,1,1,2025-02-18_10h01.09.056,comp,2024.2.4,58.857594310564274,2025-02-18 10h02.22.411712 -0500,
37,37,0,filler_square,None,None,None,None,None,None,None,None,None,None,3,3.3101136684417725,None,,,,,0,0,0,0,0,37,37,188,440.9772536754608,,,,,,,,,,,,,,,,,,,,,,,,,,,,,,,,,,,,,,,,,,,,,,,,,,,,,,,,,,,,,,,,,,,,,,,,,,,,,,,,,126.59246521477594,127.93763851042225,117.89815682546619,131.4288856542795,184.19081248852996,184.19081248852996,3.0,3.2,-226,-259,0,-4,254,252,440.9629337787628,440.96309208869934,440.9664800167084,440.9772536754608,441.1333432197571,441.1333432197571,441.1333432197571,441.1333432197571,441.1333432197571,441.1333432197571,441.1333432197571,444.2940421104431,3,3.3101136684417725,None,,,,,,,,,,,,,,,,,,1,1,2025-02-18_10h01.09.056,comp,2024.2.4,58.857594310564274,2025-02-18 10h02.22.411712 -0500,
38,38,0,filler_random,None,None,None,None,None,None,None,None,None,None,1,1.6635849475860596,None,,,,,0,0,0,0,0,38,38,159,444.3119399547577,,,,,,,,,,,,,,,,,,,,,,,,,,,,,,,,,,,,,,,,,,,,,,,,,,,,,,,,,,,,,,,,,,,,,,,,,,,,,,,,,171.6206423954352,177.07987387672895,111.4108827245997,88.68752948462954,184.28614022868135,125.21607214197164,4.0,4.1,-229,-290,0,-3,203,-269,444.295773267746,444.29585456848145,444.2988004684448,444.3119399547577,444.4606659412384,444.4606659412384,444.4606659412384,444.4606659412384,444.4606659412384,444.4606659412384,444.4606659412384,445.9833810329437,1,1.6635849475860596,None,,,,,,,,,,,,,,,,,,1,1,2025-02-18_10h01.09.056,comp,2024.2.4,58.857594310564274,2025-02-18 10h02.22.411712 -0500,
39,39,0,catch,None,None,None,None,None,None,None,None,None,None,1,1.2674784660339355,None,,,,,0,0,0,0,0,39,39,120,446.003883600235,,,,,,,,,,,,,,,,,,,,,,,,,,,,,,,,,,,,,,,,,,,,,,,,,,,,,,,,,,,,,,,,,,,,,,,,,,,,,,,,,174,151,119,71,130,60,3.0,3.2,-207,-256,0,-13,162,283,445.98527908325195,445.9853572845459,445.98820638656616,446.003883600235,446.1415388584137,446.1415388584137,446.1415388584137,446.1415388584137,446.1415388584137,446.1415388584137,446.1415388584137,447.27826023101807,1,1.2674784660339355,None,,,,,,,,,,,,,,,,,,1,1,2025-02-18_10h01.09.056,comp,2024.2.4,58.857594310564274,2025-02-18 10h02.22.411712 -0500,
40,40,0,critical,hwd,20.0,2.1,lower,133.0,57.0,57.0,133.0,78.0,78.0,1,14.114107847213745,None,,,,,0,0,0,0,0,40,40,18,447.2937185764313,,,,,,,,,,,,,,,,,,,,,,,,,,,,,,,,,,,,,,,,,,,,,,,,,,,,,,,,,,,,,,,,,,,,,,,,,,,,,,,,,133.0,57.0,57.0,133.0,78.0,78.0,2.1,2.11,-191,261,0,261,202,-276,447.27981209754944,447.27989387512207,447.2829518318176,447.2937185764313,447.446195602417,447.446195602417,447.446195602417,447.446195602417,447.446195602417,447.446195602417,447.446195602417,461.4143269062042,1,14.114107847213745,None,,,,,,,,,,,,,,,,,,1,1,2025-02-18_10h01.09.056,comp,2024.2.4,58.857594310564274,2025-02-18 10h02.22.411712 -0500,
41,41,0,filler_random,None,None,None,None,None,None,None,None,None,None,2,2.6639468669891357,None,,,,,0,0,0,0,0,41,41,149,461.43176102638245,,,,,,,,,,,,,,,,,,,,,,,,,,,,,,,,,,,,,,,,,,,,,,,,,,,,,,,,,,,,,,,,,,,,,,,,,,,,,,,,,105.5947513033295,76.50568494481678,148.52777184136,183.15150399456977,186.05074547984484,125.76441213131662,2.2,2.22,-226,286,0,-257,250,-276,461.4162449836731,461.41632652282715,461.41956305503845,461.43176102638245,461.58233761787415,461.58233761787415,461.58233761787415,461.58233761787415,461.58233761787415,461.58233761787415,461.58233761787415,464.1012945175171,2,2.6639468669891357,None,,,,,,,,,,,,,,,,,,1,1,2025-02-18_10h01.09.056,comp,2024.2.4,58.857594310564274,2025-02-18 10h02.22.411712 -0500,
42,42,0,critical,hwd,20.0,4.0,upper,200.0,125.0,125.0,200.0,141.0,141.0,2,5.120970964431763,None,,,,,0,0,0,0,0,42,42,107,464.11781668663025,,,,,,,,,,,,,,,,,,,,,,,,,,,,,,,,,,,,,,,,,,,,,,,,,,,,,,,,,,,,,,,,,,,,,,,,,,,,,,,,,200.0,125.0,125.0,200.0,141.0,141.0,4.0,4.2,-258,9,0,-277,266,-11,464.1029682159424,464.1031174659729,464.1063425540924,464.11781668663025,464.2717318534851,464.2717318534851,464.2717318534851,464.2717318534851,464.2717318534851,464.2717318534851,464.2717318534851,469.2505352497101,2,5.120970964431763,None,,,,,,,,,,,,,,,,,,1,1,2025-02-18_10h01.09.056,comp,2024.2.4,58.857594310564274,2025-02-18 10h02.22.411712 -0500,
43,43,0,critical,whd,20.0,2.1,upper,125.0,200.0,200.0,125.0,141.0,141.0,1,19.135194778442383,None,,,,,0,0,0,0,0,43,43,39,469.2668068408966,,,,,,,,,,,,,,,,,,,,,,,,,,,,,,,,,,,,,,,,,,,,,,,,,,,,,,,,,,,,,,,,,,,,,,,,,,,,,,,,,125.0,200.0,200.0,125.0,141.0,141.0,2.1,2.12,-258,-273,0,-274,229,282,469.25215888023376,469.2522461414337,469.2555294036865,469.2668068408966,469.4179575443268,469.4179575443268,469.4179575443268,469.4179575443268,469.4179575443268,469.4179575443268,469.4179575443268,488.4069802761078,1,19.135194778442383,None,,,,,,,,,,,,,,,,,,1,1,2025-02-18_10h01.09.056,comp,2024.2.4,58.857594310564274,2025-02-18 10h02.22.411712 -0500,
44,44,0,filler_square,None,None,None,None,None,None,None,None,None,None,2,3.7418646812438965,None,,,,,0,0,0,0,0,44,44,183,488.4258437156677,,,,,,,,,,,,,,,,,,,,,,,,,,,,,,,,,,,,,,,,,,,,,,,,,,,,,,,,,,,,,,,,,,,,,,,,,,,,,,,,,63.851238257267866,78.1192215901481,86.96434076800227,86.96434076800227,65.49185088190194,57.868045744245144,2.2,2.22,-179,285,0,-276,168,-269,488.40878462791443,488.40889978408813,488.41245579719543,488.4258437156677,488.57502007484436,488.57502007484436,488.57502007484436,488.57502007484436,488.57502007484436,488.57502007484436,488.57502007484436,492.1745834350586,2,3.7418646812438965,None,,,,,,,,,,,,,,,,,,1,1,2025-02-18_10h01.09.056,comp,2024.2.4,58.857594310564274,2025-02-18 10h02.22.411712 -0500,
45,45,0,filler_square,None,None,None,None,None,None,None,None,None,None,1,1.5033857822418213,None,,,,,0,0,0,0,0,45,45,173,492.19167375564575,,,,,,,,,,,,,,,,,,,,,,,,,,,,,,,,,,,,,,,,,,,,,,,,,,,,,,,,,,,,,,,,,,,,,,,,,,,,,,,,,106.06055193320991,106.06055193320991,71.98937027053334,92.00805790647803,60.45851643587198,87.34090802461066,1.0,1.2,-195,15,0,-3,186,-20,492.176513671875,492.17659282684326,492.17986130714417,492.19167375564575,492.3410439491272,492.3410439491272,492.3410439491272,492.3410439491272,492.3410439491272,492.3410439491272,492.3410439491272,493.708904504776,1,1.5033857822418213,None,,,,,,,,,,,,,,,,,,1,1,2025-02-18_10h01.09.056,comp,2024.2.4,58.857594310564274,2025-02-18 10h02.22.411712 -0500,
46,46,0,critical,wdh,35.0,1.0,lower,57.0,133.0,70.0,70.0,133.0,57.0,3,33.61975860595703,None,,,,,0,0,0,0,0,46,46,72,493.7246615886688,,,,,,,,,,,,,,,,,,,,,,,,,,,,,,,,,,,,,,,,,,,,,,,,,,,,,,,,,,,,,,,,,,,,,,,,,,,,,,,,,57.0,133.0,70.0,70.0,133.0,57.0,1.0,1.3,282,-268,480,-261,640,-253,493.71047043800354,493.71054792404175,493.7136971950531,493.7246615886688,493.8809790611267,493.8809790611267,493.8809790611267,493.8809790611267,493.8809790611267,493.8809790611267,493.8809790611267,527.3546688556671,3,33.61975860595703,None,,,,,,,,,,,,,,,,,,1,1,2025-02-18_10h01.09.056,comp,2024.2.4,58.857594310564274,2025-02-18 10h02.22.411712 -0500,
47,47,0,filler_random,None,None,None,None,None,None,None,None,None,None,1,1.4678757190704346,None,,,,,0,0,0,0,0,47,47,130,527.3714859485626,,,,,,,,,,,,,,,,,,,,,,,,,,,,,,,,,,,,,,,,,,,,,,,,,,,,,,,,,,,,,,,,,,,,,,,,,,,,,,,,,160.86221930864048,152.45267408937158,141.72788033907543,66.92737910359065,155.84499544081928,97.83085808863629,4.0,4.1,-206,-252,0,0,178,-280,527.3566484451294,527.3567879199982,527.3605763912201,527.3714859485626,527.5227317810059,527.5227317810059,527.5227317810059,527.5227317810059,527.5227317810059,527.5227317810059,527.5227317810059,528.8559160232544,1,1.4678757190704346,None,,,,,,,,,,,,,,,,,,1,1,2025-02-18_10h01.09.056,comp,2024.2.4,58.857594310564274,2025-02-18 10h02.22.411712 -0500,
48,48,0,filler_random,None,None,None,None,None,None,None,None,None,None,2,1.4716911315917969,None,,,,,0,0,0,0,0,48,48,148,528.8715324401855,,,,,,,,,,,,,,,,,,,,,,,,,,,,,,,,,,,,,,,,,,,,,,,,,,,,,,,,,,,,,,,,,,,,,,,,,,,,,,,,,123.39226453171715,91.15812092558217,160.78959113417784,162.46084034391288,111.12495549303236,89.20965671344486,2.1,2.12,-223,-263,0,-262,222,265,528.8580613136292,528.8581426143646,528.8611545562744,528.8715324401855,529.0263512134552,529.0263512134552,529.0263512134552,529.0263512134552,529.0263512134552,529.0263512134552,529.0263512134552,530.3543457984924,2,1.4716911315917969,None,,,,,,,,,,,,,,,,,,1,1,2025-02-18_10h01.09.056,comp,2024.2.4,58.857594310564274,2025-02-18 10h02.22.411712 -0500,
49,49,0,critical,whd,35.0,1.0,upper,125.0,200.0,200.0,125.0,127.0,127.0,1,6.3413426876068115,None,,,,,0,0,0,0,0,49,49,85,530.3701550960541,,,,,,,,,,,,,,,,,,,,,,,,,,,,,,,,,,,,,,,,,,,,,,,,,,,,,,,,,,,,,,,,,,,,,,,,,,,,,,,,,125.0,200.0,200.0,125.0,127.0,127.0,1.0,1.3,222,-255,480,-257,702,-259,530.3558337688446,530.3559129238129,530.3593015670776,530.3701550960541,530.5200941562653,530.5200941562653,530.5200941562653,530.5200941562653,530.5200941562653,530.5200941562653,530.5200941562653,536.724693775177,1,6.3413426876068115,None,,,,,,,,,,,,,,,,,,1,1,2025-02-18_10h01.09.056,comp,2024.2.4,58.857594310564274,2025-02-18 10h02.22.411712 -0500,
50,50,0,critical,whd,35.0,3.0,lower,57.0,133.0,133.0,57.0,70.0,70.0,2,2.5875353813171387,None,,,,,0,0,0,0,0,50,50,86,536.7400631904602,,,,,,,,,,,,,,,,,,,,,,,,,,,,,,,,,,,,,,,,,,,,,,,,,,,,,,,,,,,,,,,,,,,,,,,,,,,,,,,,,57.0,133.0,133.0,57.0,70.0,70.0,3.0,3.2,-191,-257,0,-3,160,265,536.7264196872711,536.7265014648438,536.7297194004059,536.7400631904602,536.8960695266724,536.8960695266724,536.8960695266724,536.8960695266724,536.8960695266724,536.8960695266724,536.8960695266724,539.3418653011322,2,2.5875353813171387,None,,,,,,,,,,,,,,,,,,1,1,2025-02-18_10h01.09.056,comp,2024.2.4,58.857594310564274,2025-02-18 10h02.22.411712 -0500,
51,51,0,critical,hwd,35.0,1.0,lower,133.0,57.0,57.0,133.0,70.0,70.0,1,4.306318998336792,None,,,,,0,0,0,0,0,51,51,96,539.3574571609497,,,,,,,,,,,,,,,,,,,,,,,,,,,,,,,,,,,,,,,,,,,,,,,,,,,,,,,,,,,,,,,,,,,,,,,,,,,,,,,,,133.0,57.0,57.0,133.0,70.0,70.0,1.0,1.1,-671,260,-480,261,-282,256,539.3435995578766,539.3437366485596,539.3471467494965,539.3574571609497,539.508154630661,539.508154630661,539.508154630661,539.508154630661,539.508154630661,539.508154630661,539.508154630661,543.6762447357178,1,4.306318998336792,None,,,,,,,,,,,,,,,,,,1,1,2025-02-18_10h01.09.056,comp,2024.2.4,58.857594310564274,2025-02-18 10h02.22.411712 -0500,
52,52,0,filler_square,None,None,None,None,None,None,None,None,None,None,2,1.9961316585540771,None,,,,,0,0,0,0,0,52,52,200,543.6919181346893,,,,,,,,,,,,,,,,,,,,,,,,,,,,,,,,,,,,,,,,,,,,,,,,,,,,,,,,,,,,,,,,,,,,,,,,,,,,,,,,,86.00811101343481,83.59795497032847,113.75556225448713,113.75556225448713,85.63097600726412,107.39866839800607,2.1,2.12,-195,-256,0,-278,207,281,543.6780772209167,543.6781561374664,543.6811907291412,543.6919181346893,543.8464794158936,543.8464794158936,543.8464794158936,543.8464794158936,543.8464794158936,543.8464794158936,543.8464794158936,545.693437576294,2,1.9961316585540771,None,,,,,,,,,,,,,,,,,,1,1,2025-02-18_10h01.09.056,comp,2024.2.4,58.857594310564274,2025-02-18 10h02.22.411712 -0500,
53,53,0,critical,hwd,20.0,3.0,upper,200.0,125.0,125.0,200.0,141.0,141.0,1,6.90806770324707,None,,,,,0,0,0,0,0,53,53,105,545.7100851535797,,,,,,,,,,,,,,,,,,,,,,,,,,,,,,,,,,,,,,,,,,,,,,,,,,,,,,,,,,,,,,,,,,,,,,,,,,,,,,,,,200.0,125.0,125.0,200.0,141.0,141.0,3.0,3.1,-258,286,0,-2,266,-262,545.6950826644897,545.6951944828033,545.6993162631989,545.7100851535797,545.8693261146545,545.8693261146545,545.8693261146545,545.8693261146545,545.8693261146545,545.8693261146545,545.8693261146545,552.6293239593506,1,6.90806770324707,None,,,,,,,,,,,,,,,,,,1,1,2025-02-18_10h01.09.056,comp,2024.2.4,58.857594310564274,2025-02-18 10h02.22.411712 -0500,
54,54,0,catch,None,None,None,None,None,None,None,None,None,None,3,1.3456933498382568,None,,,,,0,0,0,0,0,54,54,127,552.6461350917816,,,,,,,,,,,,,,,,,,,,,,,,,,,,,,,,,,,,,,,,,,,,,,,,,,,,,,,,,,,,,,,,,,,,,,,,,,,,,,,,,121,69,91,99,177,148,1.0,1.1,-660,266,-480,288,-260,262,552.6316554546356,552.6317386627197,552.6352667808533,552.6461350917816,552.7977159023285,552.7977159023285,552.7977159023285,552.7977159023285,552.7977159023285,552.7977159023285,552.7977159023285,553.9959235191345,3,1.3456933498382568,None,,,,,,,,,,,,,,,,,,1,1,2025-02-18_10h01.09.056,comp,2024.2.4,58.857594310564274,2025-02-18 10h02.22.411712 -0500,
55,55,0,critical,dwh,20.0,4.0,upper,141.0,141.0,125.0,200.0,200.0,125.0,3,5.772217750549316,None,,,,,0,0,0,0,0,55,55,71,554.0117852687836,,,,,,,,,,,,,,,,,,,,,,,,,,,,,,,,,,,,,,,,,,,,,,,,,,,,,,,,,,,,,,,,,,,,,,,,,,,,,,,,,141.0,141.0,125.0,200.0,200.0,125.0,4.0,4.2,-266,-10,0,-284,258,-20,553.9974687099457,553.9975481033325,554.0007355213165,554.0117852687836,554.1608672142029,554.1608672142029,554.1608672142029,554.1608672142029,554.1608672142029,554.1608672142029,554.1608672142029,559.796745300293,3,5.772217750549316,None,,,,,,,,,,,,,,,,,,1,1,2025-02-18_10h01.09.056,comp,2024.2.4,58.857594310564274,2025-02-18 10h02.22.411712 -0500,
56,56,0,filler_square,None,None,None,None,None,None,None,None,None,None,1,3.029017925262451,None,,,,,0,0,0,0,0,56,56,185,559.8134264945984,,,,,,,,,,,,,,,,,,,,,,,,,,,,,,,,,,,,,,,,,,,,,,,,,,,,,,,,,,,,,,,,,,,,,,,,,,,,,,,,,111.14069624720474,111.14069624720474,74.56039041763498,77.47467201950164,64.1307192614236,98.68162742062711,2.2,2.21,-190,-258,0,286,184,269,559.7988150119781,559.798894405365,559.8020551204681,559.8134264945984,559.9671423435211,559.9671423435211,559.9671423435211,559.9671423435211,559.9671423435211,559.9671423435211,559.9671423435211,562.8470194339752,1,3.029017925262451,None,,,,,,,,,,,,,,,,,,1,1,2025-02-18_10h01.09.056,comp,2024.2.4,58.857594310564274,2025-02-18 10h02.22.411712 -0500,
57,57,0,critical,hdw,20.0,2.1,upper,200.0,125.0,141.0,141.0,125.0,200.0,1,8.015938997268677,None,,,,,0,0,0,0,0,57,57,47,562.8638546466827,,,,,,,,,,,,,,,,,,,,,,,,,,,,,,,,,,,,,,,,,,,,,,,,,,,,,,,,,,,,,,,,,,,,,,,,,,,,,,,,,200.0,125.0,141.0,141.0,125.0,200.0,2.1,2.12,-229,-259,0,-268,266,279,562.8485701084137,562.8486483097076,562.8518834114075,562.8638546466827,563.0026566982269,563.0026566982269,563.0026566982269,563.0026566982269,563.0026566982269,563.0026566982269,563.0026566982269,570.8841300010681,1,8.015938997268677,None,,,,,,,,,,,,,,,,,,1,1,2025-02-18_10h01.09.056,comp,2024.2.4,58.857594310564274,2025-02-18 10h02.22.411712 -0500,
58,58,0,filler_random,None,None,None,None,None,None,None,None,None,None,1,2.700244426727295,None,,,,,0,0,0,0,0,58,58,161,570.9000895023346,,,,,,,,,,,,,,,,,,,,,,,,,,,,,,,,,,,,,,,,,,,,,,,,,,,,,,,,,,,,,,,,,,,,,,,,,,,,,,,,,105.2215907718045,175.50003915055873,74.87085852133966,186.87834676512037,91.51363971904323,107.18242117587596,3.0,3.2,-277,-285,0,6,243,265,570.8858835697174,570.8859634399414,570.8893675804138,570.9000895023346,571.0484895706177,571.0484895706177,571.0484895706177,571.0484895706177,571.0484895706177,571.0484895706177,571.0484895706177,573.6193220615387,1,2.700244426727295,None,,,,,,,,,,,,,,,,,,1,1,2025-02-18_10h01.09.056,comp,2024.2.4,58.857594310564274,2025-02-18 10h02.22.411712 -0500,
59,59,0,critical,hdw,35.0,3.0,upper,200.0,125.0,127.0,127.0,125.0,200.0,1,2.781860589981079,None,,,,,0,0,0,0,0,59,59,111,573.6345808506012,,,,,,,,,,,,,,,,,,,,,,,,,,,,,,,,,,,,,,,,,,,,,,,,,,,,,,,,,,,,,,,,,,,,,,,,,,,,,,,,,200.0,125.0,127.0,127.0,125.0,200.0,3.0,3.1,-222,252,0,-9,260,-258,573.6208355426788,573.6209125518799,573.6239535808563,573.6345808506012,573.7773189544678,573.7773189544678,573.7773189544678,573.7773189544678,573.7773189544678,573.7773189544678,573.7773189544678,576.4194488525391,1,2.781860589981079,None,,,,,,,,,,,,,,,,,,1,1,2025-02-18_10h01.09.056,comp,2024.2.4,58.857594310564274,2025-02-18 10h02.22.411712 -0500,
60,60,0,filler_random,None,None,None,None,None,None,None,None,None,None,3,1.659320592880249,None,,,,,0,0,0,0,0,60,60,143,576.4372522830963,,,,,,,,,,,,,,,,,,,,,,,,,,,,,,,,,,,,,,,,,,,,,,,,,,,,,,,,,,,,,,,,,,,,,,,,,,,,,,,,,147.46070761375447,81.03888158018225,73.46837613212975,94.25011327143994,146.37805854835153,104.45638682179327,4.0,4.1,-184,-278,0,19,195,-268,576.4213705062866,576.4215052127838,576.4256212711334,576.4372522830963,576.5857963562012,576.5857963562012,576.5857963562012,576.5857963562012,576.5857963562012,576.5857963562012,576.5857963562012,578.1040532588959,3,1.659320592880249,None,,,,,,,,,,,,,,,,,,1,1,2025-02-18_10h01.09.056,comp,2024.2.4,58.857594310564274,2025-02-18 10h02.22.411712 -0500,
61,61,0,critical,wdh,35.0,2.1,lower,57.0,133.0,70.0,70.0,133.0,57.0,1,9.4875009059906,None,,,,,0,0,0,0,0,61,61,8,578.1202912330627,,,,,,,,,,,,,,,,,,,,,,,,,,,,,,,,,,,,,,,,,,,,,,,,,,,,,,,,,,,,,,,,,,,,,,,,,,,,,,,,,57.0,133.0,70.0,70.0,133.0,57.0,2.1,2.12,-198,-276,0,-289,160,267,578.1055662631989,578.10564494133,578.1093626022339,578.1202912330627,578.2668373584747,578.2668373584747,578.2668373584747,578.2668373584747,578.2668373584747,578.2668373584747,578.2668373584747,587.6218581199646,1,9.4875009059906,None,,,,,,,,,,,,,,,,,,1,1,2025-02-18_10h01.09.056,comp,2024.2.4,58.857594310564274,2025-02-18 10h02.22.411712 -0500,
62,62,0,critical,dhw,20.0,2.1,upper,141.0,141.0,200.0,125.0,125.0,200.0,2,4.226911783218384,None,,,,,0,0,0,0,0,62,62,27,587.6376495361328,,,,,,,,,,,,,,,,,,,,,,,,,,,,,,,,,,,,,,,,,,,,,,,,,,,,,,,,,,,,,,,,,,,,,,,,,,,,,,,,,141.0,141.0,200.0,125.0,125.0,200.0,2.1,2.12,-229,-266,0,-283,258,284,587.6234996318817,587.6235764026642,587.6269347667694,587.6376495361328,587.7880299091339,587.7880299091339,587.7880299091339,587.7880299091339,587.7880299091339,587.7880299091339,587.7880299091339,591.8748185634613,2,4.226911783218384,None,,,,,,,,,,,,,,,,,,1,1,2025-02-18_10h01.09.056,comp,2024.2.4,58.857594310564274,2025-02-18 10h02.22.411712 -0500,
63,63,0,critical,whd,35.0,4.0,lower,57.0,133.0,133.0,57.0,70.0,70.0,2,2.717238664627075,None,,,,,0,0,0,0,0,63,63,88,591.8912672996521,,,,,,,,,,,,,,,,,,,,,,,,,,,,,,,,,,,,,,,,,,,,,,,,,,,,,,,,,,,,,,,,,,,,,,,,,,,,,,,,,57.0,133.0,133.0,57.0,70.0,70.0,4.0,4.2,-191,12,0,-257,160,-16,591.8763427734375,591.8764233589172,591.880499124527,591.8912672996521,592.0430324077606,592.0430324077606,592.0430324077606,592.0430324077606,592.0430324077606,592.0430324077606,592.0430324077606,594.6158201694489,2,2.717238664627075,None,,,,,,,,,,,,,,,,,,1,1,2025-02-18_10h01.09.056,comp,2024.2.4,58.857594310564274,2025-02-18 10h02.22.411712 -0500,
64,64,0,filler_random,None,None,None,None,None,None,None,None,None,None,3,3.5956788063049316,None,,,,,0,0,0,0,0,64,64,164,594.6362388134003,,,,,,,,,,,,,,,,,,,,,,,,,,,,,,,,,,,,,,,,,,,,,,,,,,,,,,,,,,,,,,,,,,,,,,,,,,,,,,,,,81.41356268741825,149.95689840610632,71.88069131381401,81.05863522246301,157.6798980103831,126.12806179763965,3.0,3.1,-212,255,0,13,200,-265,594.6175227165222,594.6176002025604,594.6204721927643,594.6362388134003,594.7764132022858,594.7764132022858,594.7764132022858,594.7764132022858,594.7764132022858,594.7764132022858,594.7764132022858,598.2444150447845,3,3.5956788063049316,None,,,,,,,,,,,,,,,,,,1,1,2025-02-18_10h01.09.056,comp,2024.2.4,58.857594310564274,2025-02-18 10h02.22.411712 -0500,
65,65,0,critical,dhw,35.0,3.0,upper,127.0,127.0,200.0,125.0,125.0,200.0,3,5.841336488723755,None,,,,,0,0,0,0,0,65,65,51,598.2627034187317,,,,,,,,,,,,,,,,,,,,,,,,,,,,,,,,,,,,,,,,,,,,,,,,,,,,,,,,,,,,,,,,,,,,,,,,,,,,,,,,,127.0,127.0,200.0,125.0,125.0,200.0,3.0,3.2,-222,-271,0,19,258,271,598.246039390564,598.2461228370667,598.2494077682495,598.2627034187317,598.409145116806,598.409145116806,598.409145116806,598.409145116806,598.409145116806,598.409145116806,598.409145116806,604.1182286739349,3,5.841336488723755,None,,,,,,,,,,,,,,,,,,1,1,2025-02-18_10h01.09.056,comp,2024.2.4,58.857594310564274,2025-02-18 10h02.22.411712 -0500,
66,66,0,critical,wdh,35.0,2.1,lower,57.0,133.0,70.0,70.0,133.0,57.0,3,3.5684075355529785,None,,,,,0,0,0,0,0,66,66,32,604.1358225345612,,,,,,,,,,,,,,,,,,,,,,,,,,,,,,,,,,,,,,,,,,,,,,,,,,,,,,,,,,,,,,,,,,,,,,,,,,,,,,,,,57.0,133.0,70.0,70.0,133.0,57.0,2.1,2.11,-198,253,0,284,160,-270,604.1197772026062,604.1198575496674,604.1227324008942,604.1358225345612,604.2789113521576,604.2789113521576,604.2789113521576,604.2789113521576,604.2789113521576,604.2789113521576,604.2789113521576,607.7232587337494,3,3.5684075355529785,None,,,,,,,,,,,,,,,,,,1,1,2025-02-18_10h01.09.056,comp,2024.2.4,58.857594310564274,2025-02-18 10h02.22.411712 -0500,
67,67,0,filler_random,None,None,None,None,None,None,None,None,None,None,2,1.9968180656433105,None,,,,,0,0,0,0,0,67,67,142,607.7402849197388,,,,,,,,,,,,,,,,,,,,,,,,,,,,,,,,,,,,,,,,,,,,,,,,,,,,,,,,,,,,,,,,,,,,,,,,,,,,,,,,,69.85520345490225,105.56879414196356,189.73949375220894,178.75179165326722,185.31966688052444,67.95432261506367,1.0,1.2,-238,-16,0,-15,219,9,607.7248795032501,607.724954366684,607.7278017997742,607.7402849197388,607.8795442581177,607.8795442581177,607.8795442581177,607.8795442581177,607.8795442581177,607.8795442581177,607.8795442581177,609.746808052063,2,1.9968180656433105,None,,,,,,,,,,,,,,,,,,1,1,2025-02-18_10h01.09.056,comp,2024.2.4,58.857594310564274,2025-02-18 10h02.22.411712 -0500,
68,68,0,filler_random,None,None,None,None,None,None,None,None,None,None,1,5.8613128662109375,None,,,,,0,0,0,0,0,68,68,160,609.7628471851349,,,,,,,,,,,,,,,,,,,,,,,,,,,,,,,,,,,,,,,,,,,,,,,,,,,,,,,,,,,,,,,,,,,,,,,,,,,,,,,,,165.34682872639243,135.95962651666557,131.57240072147715,162.89294618694265,161.65121365717587,136.19923705432342,2.1,2.12,-245,-268,0,-262,246,258,609.748607635498,609.7486901283264,609.7520818710327,609.7628471851349,609.9147028923035,609.9147028923035,609.9147028923035,609.9147028923035,609.9147028923035,609.9147028923035,609.9147028923035,615.638513803482,1,5.8613128662109375,None,,,,,,,,,,,,,,,,,,1,1,2025-02-18_10h01.09.056,comp,2024.2.4,58.857594310564274,2025-02-18 10h02.22.411712 -0500,
69,69,0,critical,hdw,20.0,4.0,upper,200.0,125.0,141.0,141.0,125.0,200.0,3,10.6814444065094,None,,,,,0,0,0,0,0,69,69,119,615.6548063755035,,,,,,,,,,,,,,,,,,,,,,,,,,,,,,,,,,,,,,,,,,,,,,,,,,,,,,,,,,,,,,,,,,,,,,,,,,,,,,,,,200.0,125.0,141.0,141.0,125.0,200.0,4.0,4.1,-229,-279,0,-17,266,-284,615.6400866508484,615.6401786804199,615.6434652805328,615.6548063755035,615.7990891933441,615.7990891933441,615.7990891933441,615.7990891933441,615.7990891933441,615.7990891933441,615.7990891933441,626.3518187999725,3,10.6814444065094,None,,,,,,,,,,,,,,,,,,1,1,2025-02-18_10h01.09.056,comp,2024.2.4,58.857594310564274,2025-02-18 10h02.22.411712 -0500,
70,70,0,filler_square,None,None,None,None,None,None,None,None,None,None,3,1.2488183975219727,None,,,,,0,0,0,0,0,70,70,199,626.367725610733,,,,,,,,,,,,,,,,,,,,,,,,,,,,,,,,,,,,,,,,,,,,,,,,,,,,,,,,,,,,,,,,,,,,,,,,,,,,,,,,,81.86135634893029,83.0414282047258,98.45513966431739,124.73913086176226,194.5176482740303,194.5176482740303,1.0,1.2,-200,-20,0,-11,256,16,626.3538646697998,626.3539447784424,626.3573393821716,626.367725610733,626.5185375213623,626.5185375213623,626.5185375213623,626.5185375213623,626.5185375213623,626.5185375213623,626.5185375213623,627.6187918186188,3,1.2488183975219727,None,,,,,,,,,,,,,,,,,,1,1,2025-02-18_10h01.09.056,comp,2024.2.4,58.857594310564274,2025-02-18 10h02.22.411712 -0500,
71,71,0,critical,hwd,20.0,1.0,upper,200.0,125.0,125.0,200.0,141.0,141.0,2,6.776909351348877,None,,,,,0,0,0,0,0,71,71,103,627.6398355960846,,,,,,,,,,,,,,,,,,,,,,,,,,,,,,,,,,,,,,,,,,,,,,,,,,,,,,,,,,,,,,,,,,,,,,,,,,,,,,,,,200.0,125.0,125.0,200.0,141.0,141.0,1.0,1.2,-258,17,0,13,266,-3,627.6203696727753,627.6204481124878,627.6237077713013,627.6398355960846,627.7850434780121,627.7850434780121,627.7850434780121,627.7850434780121,627.7850434780121,627.7850434780121,627.7850434780121,634.4203968048096,2,6.776909351348877,None,,,,,,,,,,,,,,,,,,1,1,2025-02-18_10h01.09.056,comp,2024.2.4,58.857594310564274,2025-02-18 10h02.22.411712 -0500,
72,72,0,filler_square,None,None,None,None,None,None,None,None,None,None,2,1.740480661392212,None,,,,,0,0,0,0,0,72,72,201,634.4366207122803,,,,,,,,,,,,,,,,,,,,,,,,,,,,,,,,,,,,,,,,,,,,,,,,,,,,,,,,,,,,,,,,,,,,,,,,,,,,,,,,,165.11793973958095,87.83924548103512,192.84052979992973,192.84052979992973,57.27477249655549,140.54531917521763,3.0,3.1,-236,280,0,-16,263,-266,634.4222180843353,634.4222979545593,634.4253063201904,634.4366207122803,634.5913474559784,634.5913474559784,634.5913474559784,634.5913474559784,634.5913474559784,634.5913474559784,634.5913474559784,636.188568353653,2,1.740480661392212,None,,,,,,,,,,,,,,,,,,1,1,2025-02-18_10h01.09.056,comp,2024.2.4,58.857594310564274,2025-02-18 10h02.22.411712 -0500,
73,73,0,critical,hdw,35.0,3.0,lower,133.0,57.0,70.0,70.0,57.0,133.0,1,5.213971376419067,None,,,,,0,0,0,0,0,73,73,110,636.2041368484497,,,,,,,,,,,,,,,,,,,,,,,,,,,,,,,,,,,,,,,,,,,,,,,,,,,,,,,,,,,,,,,,,,,,,,,,,,,,,,,,,133.0,57.0,70.0,70.0,57.0,133.0,3.0,3.1,-160,269,0,-11,198,-289,636.190131187439,636.1902067661285,636.193532705307,636.2041368484497,636.3593719005585,636.3593719005585,636.3593719005585,636.3593719005585,636.3593719005585,636.3593719005585,636.3593719005585,641.4217166900635,1,5.213971376419067,None,,,,,,,,,,,,,,,,,,1,1,2025-02-18_10h01.09.056,comp,2024.2.4,58.857594310564274,2025-02-18 10h02.22.411712 -0500,
74,74,0,critical,dwh,20.0,3.0,lower,78.0,78.0,57.0,133.0,133.0,57.0,3,2.4982450008392334,None,,,,,0,0,0,0,0,74,74,68,641.4382548332214,,,,,,,,,,,,,,,,,,,,,,,,,,,,,,,,,,,,,,,,,,,,,,,,,,,,,,,,,,,,,,,,,,,,,,,,,,,,,,,,,78.0,78.0,57.0,133.0,133.0,57.0,3.0,3.2,-202,-256,0,-16,191,281,641.4233565330505,641.4234797954559,641.4267888069153,641.4382548332214,641.5790717601776,641.5790717601776,641.5790717601776,641.5790717601776,641.5790717601776,641.5790717601776,641.5790717601776,643.9408962726593,3,2.4982450008392334,None,,,,,,,,,,,,,,,,,,1,1,2025-02-18_10h01.09.056,comp,2024.2.4,58.857594310564274,2025-02-18 10h02.22.411712 -0500,
75,75,0,catch,None,None,None,None,None,None,None,None,None,None,1,1.4672067165374756,None,,,,,0,0,0,0,0,75,75,125,643.9577732086182,,,,,,,,,,,,,,,,,,,,,,,,,,,,,,,,,,,,,,,,,,,,,,,,,,,,,,,,,,,,,,,,,,,,,,,,,,,,,,,,,171,154,110,80,81,109,1.0,1.2,-213,8,0,-1,190,-2,643.9428586959839,643.9429397583008,643.9463789463043,643.9577732086182,644.1094799041748,644.1094799041748,644.1094799041748,644.1094799041748,644.1094799041748,644.1094799041748,644.1094799041748,645.4274680614471,1,1.4672067165374756,None,,,,,,,,,,,,,,,,,,1,1,2025-02-18_10h01.09.056,comp,2024.2.4,58.857594310564274,2025-02-18 10h02.22.411712 -0500,
76,76,0,critical,dhw,20.0,4.0,lower,78.0,78.0,133.0,57.0,57.0,133.0,2,5.596150875091553,None,,,,,0,0,0,0,0,76,76,58,645.4443986415863,,,,,,,,,,,,,,,,,,,,,,,,,,,,,,,,,,,,,,,,,,,,,,,,,,,,,,,,,,,,,,,,,,,,,,,,,,,,,,,,,78.0,78.0,133.0,57.0,57.0,133.0,4.0,4.1,-164,-281,0,3,191,-254,645.4293808937073,645.4295103549957,645.4327709674835,645.4443986415863,645.5920670032501,645.5920670032501,645.5920670032501,645.5920670032501,645.5920670032501,645.5920670032501,645.5920670032501,651.0438585281372,2,5.596150875091553,None,,,,,,,,,,,,,,,,,,1,1,2025-02-18_10h01.09.056,comp,2024.2.4,58.857594310564274,2025-02-18 10h02.22.411712 -0500,
77,77,0,filler_square,None,None,None,None,None,None,None,None,None,None,3,7.788928508758545,None,,,,,0,0,0,0,0,77,77,187,651.0595147609711,,,,,,,,,,,,,,,,,,,,,,,,,,,,,,,,,,,,,,,,,,,,,,,,,,,,,,,,,,,,,,,,,,,,,,,,,,,,,,,,,67.21666977485779,67.54618896524435,67.31335743961264,61.05418889111771,68.14613601923482,68.14613601923482,4.0,4.2,-160,18,0,-277,161,-12,651.0457670688629,651.0458467006683,651.0488741397858,651.0595147609711,651.2147603034973,651.2147603034973,651.2147603034973,651.2147603034973,651.2147603034973,651.2147603034973,651.2147603034973,658.8617606163025,3,7.788928508758545,None,,,,,,,,,,,,,,,,,,1,1,2025-02-18_10h01.09.056,comp,2024.2.4,58.857594310564274,2025-02-18 10h02.22.411712 -0500,
78,78,0,critical,whd,20.0,4.0,upper,125.0,200.0,200.0,125.0,141.0,141.0,1,15.403719186782837,None,,,,,0,0,0,0,0,78,78,95,658.8773036003113,,,,,,,,,,,,,,,,,,,,,,,,,,,,,,,,,,,,,,,,,,,,,,,,,,,,,,,,,,,,,,,,,,,,,,,,,,,,,,,,,125.0,200.0,200.0,125.0,141.0,141.0,4.0,4.1,-258,-257,0,14,229,-259,658.8633801937103,658.8634572029114,658.8666794300079,658.8773036003113,659.0300359725952,659.0300359725952,659.0300359725952,659.0300359725952,659.0300359725952,659.0300359725952,659.0300359725952,674.2832114696503,1,15.403719186782837,None,,,,,,,,,,,,,,,,,,1,1,2025-02-18_10h01.09.056,comp,2024.2.4,58.857594310564274,2025-02-18 10h02.22.411712 -0500,
79,79,0,filler_square,None,None,None,None,None,None,None,None,None,None,1,0.9709303379058838,None,,,,,0,0,0,0,0,79,79,192,674.3028075695038,,,,,,,,,,,,,,,,,,,,,,,,,,,,,,,,,,,,,,,,,,,,,,,,,,,,,,,,,,,,,,,,,,,,,,,,,,,,,,,,,142.83308219848197,142.83308219848197,79.75905648115295,77.8560551707277,129.00590011791525,92.29401599308443,3.0,3.2,-206,-266,0,18,181,287,674.285129070282,674.2852613925934,674.2886834144592,674.3028075695038,674.4510924816132,674.4510924816132,674.4510924816132,674.4510924816132,674.4510924816132,674.4510924816132,674.4510924816132,675.2853109836578,1,0.9709303379058838,None,,,,,,,,,,,,,,,,,,1,1,2025-02-18_10h01.09.056,comp,2024.2.4,58.857594310564274,2025-02-18 10h02.22.411712 -0500,
80,80,0,filler_square,None,None,None,None,None,None,None,None,None,None,3,1.6273462772369385,None,,,,,0,0,0,0,0,80,80,191,675.3018248081207,,,,,,,,,,,,,,,,,,,,,,,,,,,,,,,,,,,,,,,,,,,,,,,,,,,,,,,,,,,,,,,,,,,,,,,,,,,,,,,,,109.94566487547385,111.21988784002696,117.48100312573996,87.7508310005864,124.69276744691172,124.69276744691172,4.0,4.2,-195,16,0,-278,202,-8,675.2873697280884,675.287451505661,675.2910857200623,675.3018248081207,675.4529557228088,675.4529557228088,675.4529557228088,675.4529557228088,675.4529557228088,675.4529557228088,675.4529557228088,676.9317245483398,3,1.6273462772369385,None,,,,,,,,,,,,,,,,,,1,1,2025-02-18_10h01.09.056,comp,2024.2.4,58.857594310564274,2025-02-18 10h02.22.411712 -0500,
81,81,0,filler_random,None,None,None,None,None,None,None,None,None,None,2,1.0671181678771973,None,,,,,0,0,0,0,0,81,81,145,676.949560880661,,,,,,,,,,,,,,,,,,,,,,,,,,,,,,,,,,,,,,,,,,,,,,,,,,,,,,,,,,,,,,,,,,,,,,,,,,,,,,,,,130.55712330422108,58.21015506802498,186.9453036914007,141.80913200709418,135.2510612661228,72.04761159921622,2.2,2.21,-196,-280,0,279,203,263,676.9334754943848,676.9335544109344,676.93638920784,676.949560880661,677.1092088222504,677.1092088222504,677.1092088222504,677.1092088222504,677.1092088222504,677.1092088222504,677.1092088222504,678.0188007354736,2,1.0671181678771973,None,,,,,,,,,,,,,,,,,,1,1,2025-02-18_10h01.09.056,comp,2024.2.4,58.857594310564274,2025-02-18 10h02.22.411712 -0500,
82,82,0,critical,wdh,20.0,3.0,upper,125.0,200.0,141.0,141.0,200.0,125.0,3,10.663893938064575,None,,,,,0,0,0,0,0,82,82,81,678.035674571991,,,,,,,,,,,,,,,,,,,,,,,,,,,,,,,,,,,,,,,,,,,,,,,,,,,,,,,,,,,,,,,,,,,,,,,,,,,,,,,,,125.0,200.0,141.0,141.0,200.0,125.0,3.0,3.1,-266,266,0,-16,229,-259,678.0205731391907,678.0207092761993,678.0248820781708,678.035674571991,678.19176030159,678.19176030159,678.19176030159,678.19176030159,678.19176030159,678.19176030159,678.19176030159,688.7045066356659,3,10.663893938064575,None,,,,,,,,,,,,,,,,,,1,1,2025-02-18_10h01.09.056,comp,2024.2.4,58.857594310564274,2025-02-18 10h02.22.411712 -0500,
83,83,0,critical,dwh,20.0,1.0,upper,141.0,141.0,125.0,200.0,200.0,125.0,2,25.19246554374695,None,,,,,0,0,0,0,0,83,83,67,688.7205102443695,,,,,,,,,,,,,,,,,,,,,,,,,,,,,,,,,,,,,,,,,,,,,,,,,,,,,,,,,,,,,,,,,,,,,,,,,,,,,,,,,141.0,141.0,125.0,200.0,200.0,125.0,1.0,1.2,-266,9,0,-11,258,-17,688.7059733867645,688.7061178684235,688.7091467380524,688.7205102443695,688.8713221549988,688.8713221549988,688.8713221549988,688.8713221549988,688.8713221549988,688.8713221549988,688.8713221549988,713.9150614738464,2,25.19246554374695,None,,,,,,,,,,,,,,,,,,1,1,2025-02-18_10h01.09.056,comp,2024.2.4,58.857594310564274,2025-02-18 10h02.22.411712 -0500,
84,84,0,critical,dhw,20.0,2.1,upper,141.0,141.0,200.0,125.0,125.0,200.0,2,3.4214444160461426,None,,,,,0,0,0,0,0,84,84,3,713.9314260482788,,,,,,,,,,,,,,,,,,,,,,,,,,,,,,,,,,,,,,,,,,,,,,,,,,,,,,,,,,,,,,,,,,,,,,,,,,,,,,,,,141.0,141.0,200.0,125.0,125.0,200.0,2.1,2.12,-229,-272,0,-280,258,257,713.9167242050171,713.9168014526367,713.9203290939331,713.9314260482788,714.0822191238403,714.0822191238403,714.0822191238403,714.0822191238403,714.0822191238403,714.0822191238403,714.0822191238403,717.3694016933441,2,3.4214444160461426,None,,,,,,,,,,,,,,,,,,1,1,2025-02-18_10h01.09.056,comp,2024.2.4,58.857594310564274,2025-02-18 10h02.22.411712 -0500,
85,85,0,critical,wdh,35.0,4.0,lower,57.0,133.0,70.0,70.0,133.0,57.0,3,1.9195609092712402,None,,,,,0,0,0,0,0,85,85,76,717.3855125904083,,,,,,,,,,,,,,,,,,,,,,,,,,,,,,,,,,,,,,,,,,,,,,,,,,,,,,,,,,,,,,,,,,,,,,,,,,,,,,,,,57.0,133.0,70.0,70.0,133.0,57.0,4.0,4.2,-198,-15,0,-274,160,1,717.3710286617279,717.3711638450623,717.3751473426819,717.3855125904083,717.5347197055817,717.5347197055817,717.5347197055817,717.5347197055817,717.5347197055817,717.5347197055817,717.5347197055817,719.3074991703033,3,1.9195609092712402,None,,,,,,,,,,,,,,,,,,1,1,2025-02-18_10h01.09.056,comp,2024.2.4,58.857594310564274,2025-02-18 10h02.22.411712 -0500,
86,86,0,catch,None,None,None,None,None,None,None,None,None,None,3,1.2963168621063232,None,,,,,0,0,0,0,0,86,86,128,719.3287358283997,,,,,,,,,,,,,,,,,,,,,,,,,,,,,,,,,,,,,,,,,,,,,,,,,,,,,,,,,,,,,,,,,,,,,,,,,,,,,,,,,77,113,94,96,157,168,3.0,3.1,-200,254,0,5,228,-266,719.3096206188202,719.3097009658813,719.3130230903625,719.3287358283997,719.4644708633423,719.4644708633423,719.4644708633423,719.4644708633423,719.4644708633423,719.4644708633423,719.4644708633423,720.6374833583832,3,1.2963168621063232,None,,,,,,,,,,,,,,,,,,1,1,2025-02-18_10h01.09.056,comp,2024.2.4,58.857594310564274,2025-02-18 10h02.22.411712 -0500,
87,87,0,critical,dhw,35.0,4.0,upper,127.0,127.0,200.0,125.0,125.0,200.0,3,5.984256982803345,None,,,,,0,0,0,0,0,87,87,53,720.6569221019745,,,,,,,,,,,,,,,,,,,,,,,,,,,,,,,,,,,,,,,,,,,,,,,,,,,,,,,,,,,,,,,,,,,,,,,,,,,,,,,,,127.0,127.0,200.0,125.0,125.0,200.0,4.0,4.1,-222,-275,0,3,258,-259,720.6389358043671,720.639044046402,720.6419248580933,720.6569221019745,720.7983574867249,720.7983574867249,720.7983574867249,720.7983574867249,720.7983574867249,720.7983574867249,720.7983574867249,726.6553580760956,3,5.984256982803345,None,,,,,,,,,,,,,,,,,,1,1,2025-02-18_10h01.09.056,comp,2024.2.4,58.857594310564274,2025-02-18 10h02.22.411712 -0500,
88,88,0,filler_square,None,None,None,None,None,None,None,None,None,None,2,1.2337381839752197,None,,,,,0,0,0,0,0,88,88,181,726.6714200973511,,,,,,,,,,,,,,,,,,,,,,,,,,,,,,,,,,,,,,,,,,,,,,,,,,,,,,,,,,,,,,,,,,,,,,,,,,,,,,,,,103.8476246371462,113.22984324092187,148.86638504858038,148.86638504858038,71.21894673593756,117.895431691633,1.0,1.1,-707,260,-480,277,-251,250,726.6572878360748,726.6573660373688,726.6602730751038,726.6714200973511,726.8161971569061,726.8161971569061,726.8161971569061,726.8161971569061,726.8161971569061,726.8161971569061,726.8161971569061,727.9202036857605,2,1.2337381839752197,None,,,,,,,,,,,,,,,,,,1,1,2025-02-18_10h01.09.056,comp,2024.2.4,58.857594310564274,2025-02-18 10h02.22.411712 -0500,
89,89,0,critical,dhw,35.0,3.0,lower,70.0,70.0,133.0,57.0,57.0,133.0,2,1.6809813976287842,None,,,,,0,0,0,0,0,89,89,50,727.9361255168915,,,,,,,,,,,,,,,,,,,,,,,,,,,,,,,,,,,,,,,,,,,,,,,,,,,,,,,,,,,,,,,,,,,,,,,,,,,,,,,,,70.0,70.0,133.0,57.0,57.0,133.0,3.0,3.1,-160,271,0,-1,191,-257,727.9219090938568,727.9220695495605,727.925538778305,727.9361255168915,728.0847268104553,728.0847268104553,728.0847268104553,728.0847268104553,728.0847268104553,728.0847268104553,728.0847268104553,729.6193344593048,2,1.6809813976287842,None,,,,,,,,,,,,,,,,,,1,1,2025-02-18_10h01.09.056,comp,2024.2.4,58.857594310564274,2025-02-18 10h02.22.411712 -0500,
90,90,0,filler_square,None,None,None,None,None,None,None,None,None,None,2,1.7951483726501465,None,,,,,0,0,0,0,0,90,90,194,729.6385064125061,,,,,,,,,,,,,,,,,,,,,,,,,,,,,,,,,,,,,,,,,,,,,,,,,,,,,,,,,,,,,,,,,,,,,,,,,,,,,,,,,163.92936679961912,146.53251647661762,175.35027446436527,175.35027446436527,154.02871580054574,78.90644837234811,3.0,3.1,-257,259,0,2,223,-273,729.6213743686676,729.6214559078217,729.6249008178711,729.6385064125061,729.785863161087,729.785863161087,729.785863161087,729.785863161087,729.785863161087,729.785863161087,729.785863161087,731.4362063407898,2,1.7951483726501465,None,,,,,,,,,,,,,,,,,,1,1,2025-02-18_10h01.09.056,comp,2024.2.4,58.857594310564274,2025-02-18 10h02.22.411712 -0500,
91,91,0,filler_random,None,None,None,None,None,None,None,None,None,None,1,9.596058130264282,None,,,,,0,0,0,0,0,91,91,153,731.4530935287476,,,,,,,,,,,,,,,,,,,,,,,,,,,,,,,,,,,,,,,,,,,,,,,,,,,,,,,,,,,,,,,,,,,,,,,,,,,,,,,,,146.63618570696937,117.98551073908955,111.82668047160846,153.4086832415515,101.62948031196119,130.28067455823935,2.1,2.12,-232,-284,0,-269,238,260,731.4381070137024,731.4382317066193,731.4423189163208,731.4530935287476,731.6012361049652,731.6012361049652,731.6012361049652,731.6012361049652,731.6012361049652,731.6012361049652,731.6012361049652,741.062390089035,1,9.596058130264282,None,,,,,,,,,,,,,,,,,,1,1,2025-02-18_10h01.09.056,comp,2024.2.4,58.857594310564274,2025-02-18 10h02.22.411712 -0500,
92,92,0,filler_random,None,None,None,None,None,None,None,None,None,None,1,1.2465019226074219,None,,,,,0,0,0,0,0,92,92,150,741.0826442241669,,,,,,,,,,,,,,,,,,,,,,,,,,,,,,,,,,,,,,,,,,,,,,,,,,,,,,,,,,,,,,,,,,,,,,,,,,,,,,,,,178.72635717123603,124.91814823957974,118.45281787753638,82.0000513803241,107.53418619166595,122.56676169155858,3.0,3.1,-199,254,0,-2,198,-288,741.0640811920166,741.0641617774963,741.0670077800751,741.0826442241669,741.2227334976196,741.2227334976196,741.2227334976196,741.2227334976196,741.2227334976196,741.2227334976196,741.2227334976196,742.3416333198547,1,1.2465019226074219,None,,,,,,,,,,,,,,,,,,1,1,2025-02-18_10h01.09.056,comp,2024.2.4,58.857594310564274,2025-02-18 10h02.22.411712 -0500,
93,93,0,critical,dhw,35.0,4.0,lower,70.0,70.0,133.0,57.0,57.0,133.0,2,13.312825679779053,None,,,,,0,0,0,0,0,93,93,52,742.3614394664764,,,,,,,,,,,,,,,,,,,,,,,,,,,,,,,,,,,,,,,,,,,,,,,,,,,,,,,,,,,,,,,,,,,,,,,,,,,,,,,,,70.0,70.0,133.0,57.0,57.0,133.0,4.0,4.1,-160,-269,0,-10,191,-266,742.3433673381805,742.3434767723083,742.3468556404114,742.3614394664764,742.5087316036224,742.5087316036224,742.5087316036224,742.5087316036224,742.5087316036224,742.5087316036224,742.5087316036224,755.6784887313843,2,13.312825679779053,None,,,,,,,,,,,,,,,,,,1,1,2025-02-18_10h01.09.056,comp,2024.2.4,58.857594310564274,2025-02-18 10h02.22.411712 -0500,
94,94,0,critical,hdw,35.0,1.0,lower,133.0,57.0,70.0,70.0,57.0,133.0,3,1.8030810356140137,None,,,,,0,0,0,0,0,94,94,108,755.6951467990875,,,,,,,,,,,,,,,,,,,,,,,,,,,,,,,,,,,,,,,,,,,,,,,,,,,,,,,,,,,,,,,,,,,,,,,,,,,,,,,,,133.0,57.0,70.0,70.0,57.0,133.0,1.0,1.1,-640,258,-480,278,-282,283,755.6803090572357,755.6803905963898,755.6843132972717,755.6951467990875,755.8440132141113,755.8440132141113,755.8440132141113,755.8440132141113,755.8440132141113,755.8440132141113,755.8440132141113,757.514538526535,3,1.8030810356140137,None,,,,,,,,,,,,,,,,,,1,1,2025-02-18_10h01.09.056,comp,2024.2.4,58.857594310564274,2025-02-18 10h02.22.411712 -0500,
95,95,0,filler_square,None,None,None,None,None,None,None,None,None,None,1,2.12744140625,None,,,,,0,0,0,0,0,95,95,205,757.5306527614594,,,,,,,,,,,,,,,,,,,,,,,,,,,,,,,,,,,,,,,,,,,,,,,,,,,,,,,,,,,,,,,,,,,,,,,,,,,,,,,,,159.93554479703926,159.93554479703926,146.09600178086163,99.75757991213307,120.61358417980202,159.65172278232038,2.1,2.12,-226,-284,0,-266,226,289,757.5165541172028,757.5166351795197,757.5195093154907,757.5306527614594,757.6818704605103,757.6818704605103,757.6818704605103,757.6818704605103,757.6818704605103,757.6818704605103,757.6818704605103,759.6615302562714,1,2.12744140625,None,,,,,,,,,,,,,,,,,,1,1,2025-02-18_10h01.09.056,comp,2024.2.4,58.857594310564274,2025-02-18 10h02.22.411712 -0500,
96,96,0,critical,wdh,35.0,1.0,upper,125.0,200.0,127.0,127.0,200.0,125.0,1,6.31631326675415,None,,,,,0,0,0,0,0,96,96,73,759.6772131919861,,,,,,,,,,,,,,,,,,,,,,,,,,,,,,,,,,,,,,,,,,,,,,,,,,,,,,,,,,,,,,,,,,,,,,,,,,,,,,,,,125.0,200.0,127.0,127.0,200.0,125.0,1.0,1.1,-740,255,-480,268,-258,254,759.6630477905273,759.6631295681,759.6664600372314,759.6772131919861,759.8286156654358,759.8286156654358,759.8286156654358,759.8286156654358,759.8286156654358,759.8286156654358,759.8286156654358,765.9964511394501,1,6.31631326675415,None,,,,,,,,,,,,,,,,,,1,1,2025-02-18_10h01.09.056,comp,2024.2.4,58.857594310564274,2025-02-18 10h02.22.411712 -0500,
97,97,0,critical,whd,35.0,2.1,upper,125.0,200.0,200.0,125.0,127.0,127.0,1,5.507472515106201,None,,,,,0,0,0,0,0,97,97,13,766.014407157898,,,,,,,,,,,,,,,,,,,,,,,,,,,,,,,,,,,,,,,,,,,,,,,,,,,,,,,,,,,,,,,,,,,,,,,,,,,,,,,,,125.0,200.0,200.0,125.0,127.0,127.0,2.1,2.11,-258,272,0,261,222,-251,765.9979281425476,765.9980411529541,766.0011439323425,766.014407157898,766.164489030838,766.164489030838,766.164489030838,766.164489030838,766.164489030838,766.164489030838,766.164489030838,771.5309526920319,1,5.507472515106201,None,,,,,,,,,,,,,,,,,,1,1,2025-02-18_10h01.09.056,comp,2024.2.4,58.857594310564274,2025-02-18 10h02.22.411712 -0500,
98,98,0,filler_square,None,None,None,None,None,None,None,None,None,None,3,1.9732317924499512,None,,,,,0,0,0,0,0,98,98,175,771.5482759475708,,,,,,,,,,,,,,,,,,,,,,,,,,,,,,,,,,,,,,,,,,,,,,,,,,,,,,,,,,,,,,,,,,,,,,,,,,,,,,,,,80.55168168500164,72.82410452129506,67.3217079132111,63.27822230386127,86.51399676936538,86.51399676936538,3.0,3.1,-164,270,0,-10,171,-289,771.5327088832855,771.532787322998,771.5365424156189,771.5482759475708,771.6996512413025,771.6996512413025,771.6996512413025,771.6996512413025,771.6996512413025,771.6996512413025,771.6996512413025,773.5323495864868,3,1.9732317924499512,None,,,,,,,,,,,,,,,,,,1,1,2025-02-18_10h01.09.056,comp,2024.2.4,58.857594310564274,2025-02-18 10h02.22.411712 -0500,
99,99,0,filler_random,None,None,None,None,None,None,None,None,None,None,2,0.9586882591247559,None,,,,,0,0,0,0,0,99,99,156,773.5476143360138,,,,,,,,,,,,,,,,,,,,,,,,,,,,,,,,,,,,,,,,,,,,,,,,,,,,,,,,,,,,,,,,,,,,,,,,,,,,,,,,,82.81087793429688,110.7819436628993,133.49633751737133,148.08501371166128,65.7996957341141,79.4369496539689,3.0,3.1,-225,269,0,-13,210,-290,773.5341033935547,773.5342288017273,773.5376472473145,773.5476143360138,773.6985213756561,773.6985213756561,773.6985213756561,773.6985213756561,773.6985213756561,773.6985213756561,773.6985213756561,774.5174286365509,2,0.9586882591247559,None,,,,,,,,,,,,,,,,,,1,1,2025-02-18_10h01.09.056,comp,2024.2.4,58.857594310564274,2025-02-18 10h02.22.411712 -0500,
100,100,0,critical,dwh,35.0,2.1,lower,70.0,70.0,57.0,133.0,133.0,57.0,3,8.324087858200073,None,,,,,0,0,0,0,0,100,100,4,774.5334000587463,,,,,,,,,,,,,,,,,,,,,,,,,,,,,,,,,,,,,,,,,,,,,,,,,,,,,,,,,,,,,,,,,,,,,,,,,,,,,,,,,70.0,70.0,57.0,133.0,133.0,57.0,2.1,2.12,-198,-259,0,-283,191,262,774.5189716815948,774.51908826828,774.5225794315338,774.5334000587463,774.6832118034363,774.6832118034363,774.6832118034363,774.6832118034363,774.6832118034363,774.6832118034363,774.6832118034363,782.8678069114685,3,8.324087858200073,None,,,,,,,,,,,,,,,,,,1,1,2025-02-18_10h01.09.056,comp,2024.2.4,58.857594310564274,2025-02-18 10h02.22.411712 -0500,
101,101,0,filler_square,None,None,None,None,None,None,None,None,None,None,1,1.5161709785461426,None,,,,,0,0,0,0,0,101,101,177,782.8854825496674,,,,,,,,,,,,,,,,,,,,,,,,,,,,,,,,,,,,,,,,,,,,,,,,,,,,,,,,,,,,,,,,,,,,,,,,,,,,,,,,,162.36942261579088,162.36942261579088,139.8608587048837,65.16724945606204,84.81480870134956,110.76665884150705,2.1,2.11,-210,275,0,274,184,-250,782.869950056076,782.8700609207153,782.8734862804413,782.8854825496674,783.037969827652,783.037969827652,783.037969827652,783.037969827652,783.037969827652,783.037969827652,783.037969827652,784.4185454845428,1,1.5161709785461426,None,,,,,,,,,,,,,,,,,,1,1,2025-02-18_10h01.09.056,comp,2024.2.4,58.857594310564274,2025-02-18 10h02.22.411712 -0500,
102,102,0,critical,dwh,35.0,1.0,upper,127.0,127.0,125.0,200.0,200.0,125.0,3,22.42906355857849,None,,,,,0,0,0,0,0,102,102,61,784.4367816448212,,,,,,,,,,,,,,,,,,,,,,,,,,,,,,,,,,,,,,,,,,,,,,,,,,,,,,,,,,,,,,,,,,,,,,,,,,,,,,,,,127.0,127.0,125.0,200.0,200.0,125.0,1.0,1.3,220,-284,480,-267,738,-269,784.4202170372009,784.4203443527222,784.4236991405487,784.4367816448212,784.5861368179321,784.5861368179321,784.5861368179321,784.5861368179321,784.5861368179321,784.5861368179321,784.5861368179321,806.8807101249695,3,22.42906355857849,None,,,,,,,,,,,,,,,,,,1,1,2025-02-18_10h01.09.056,comp,2024.2.4,58.857594310564274,2025-02-18 10h02.22.411712 -0500,
103,103,0,filler_square,None,None,None,None,None,None,None,None,None,None,1,5.2178990840911865,None,,,,,0,0,0,0,0,103,103,197,806.8959457874298,,,,,,,,,,,,,,,,,,,,,,,,,,,,,,,,,,,,,,,,,,,,,,,,,,,,,,,,,,,,,,,,,,,,,,,,,,,,,,,,,130.85573032987264,130.85573032987264,75.0467705642926,84.63479378471989,129.72995664562333,94.04442232611409,3.0,3.1,-204,255,0,16,185,-267,806.8827011585236,806.8827791213989,806.8856830596924,806.8959457874298,807.0437009334564,807.0437009334564,807.0437009334564,807.0437009334564,807.0437009334564,807.0437009334564,807.0437009334564,812.1305003166199,1,5.2178990840911865,None,,,,,,,,,,,,,,,,,,1,1,2025-02-18_10h01.09.056,comp,2024.2.4,58.857594310564274,2025-02-18 10h02.22.411712 -0500,
104,104,0,filler_random,None,None,None,None,None,None,None,None,None,None,1,3.4078192710876465,None,,,,,0,0,0,0,0,104,104,147,812.1467654705048,,,,,,,,,,,,,,,,,,,,,,,,,,,,,,,,,,,,,,,,,,,,,,,,,,,,,,,,,,,,,,,,,,,,,,,,,,,,,,,,,64.25432602189659,148.86999981746422,79.47143739609545,58.9385676403596,133.59427093213333,74.31487512292125,2.1,2.11,-200,257,0,288,163,-288,812.1323997974396,812.132482290268,812.1363563537598,812.1467654705048,812.2988724708557,812.2988724708557,812.2988724708557,812.2988724708557,812.2988724708557,812.2988724708557,812.2988724708557,815.5646488666534,1,3.4078192710876465,None,,,,,,,,,,,,,,,,,,1,1,2025-02-18_10h01.09.056,comp,2024.2.4,58.857594310564274,2025-02-18 10h02.22.411712 -0500,
105,105,0,critical,dwh,35.0,4.0,lower,70.0,70.0,57.0,133.0,133.0,57.0,3,1.939697027206421,None,,,,,0,0,0,0,0,105,105,64,815.5829608440399,,,,,,,,,,,,,,,,,,,,,,,,,,,,,,,,,,,,,,,,,,,,,,,,,,,,,,,,,,,,,,,,,,,,,,,,,,,,,,,,,70.0,70.0,57.0,133.0,133.0,57.0,4.0,4.1,-198,-266,0,-7,191,-290,815.5663769245148,815.5665102005005,815.5697245597839,815.5829608440399,815.728357553482,815.728357553482,815.728357553482,815.728357553482,815.728357553482,815.728357553482,815.728357553482,817.5302650928497,3,1.939697027206421,None,,,,,,,,,,,,,,,,,,1,1,2025-02-18_10h01.09.056,comp,2024.2.4,58.857594310564274,2025-02-18 10h02.22.411712 -0500,
106,106,0,critical,wdh,20.0,3.0,lower,57.0,133.0,78.0,78.0,133.0,57.0,3,5.575695753097534,None,,,,,0,0,0,0,0,106,106,80,817.5461213588715,,,,,,,,,,,,,,,,,,,,,,,,,,,,,,,,,,,,,,,,,,,,,,,,,,,,,,,,,,,,,,,,,,,,,,,,,,,,,,,,,57.0,133.0,78.0,78.0,133.0,57.0,3.0,3.2,-202,-288,0,9,164,286,817.5318119525909,817.5318927764893,817.5352919101715,817.5461213588715,817.6882767677307,817.6882767677307,817.6882767677307,817.6882767677307,817.6882767677307,817.6882767677307,817.6882767677307,823.1315779685974,3,5.575695753097534,None,,,,,,,,,,,,,,,,,,1,1,2025-02-18_10h01.09.056,comp,2024.2.4,58.857594310564274,2025-02-18 10h02.22.411712 -0500,
107,107,0,critical,hwd,20.0,2.1,upper,200.0,125.0,125.0,200.0,141.0,141.0,1,7.263258218765259,None,,,,,0,0,0,0,0,107,107,19,823.1474571228027,,,,,,,,,,,,,,,,,,,,,,,,,,,,,,,,,,,,,,,,,,,,,,,,,,,,,,,,,,,,,,,,,,,,,,,,,,,,,,,,,200.0,125.0,125.0,200.0,141.0,141.0,2.1,2.11,-258,285,0,283,266,-290,823.1331095695496,823.1331875324249,823.1367135047913,823.1474571228027,823.2980661392212,823.2980661392212,823.2980661392212,823.2980661392212,823.2980661392212,823.2980661392212,823.2980661392212,830.417676448822,1,7.263258218765259,None,,,,,,,,,,,,,,,,,,1,1,2025-02-18_10h01.09.056,comp,2024.2.4,58.857594310564274,2025-02-18 10h02.22.411712 -0500,
108,108,0,critical,dwh,35.0,2.1,lower,70.0,70.0,57.0,133.0,133.0,57.0,2,10.99153757095337,None,,,,,0,0,0,0,0,108,108,28,830.4348509311676,,,,,,,,,,,,,,,,,,,,,,,,,,,,,,,,,,,,,,,,,,,,,,,,,,,,,,,,,,,,,,,,,,,,,,,,,,,,,,,,,70.0,70.0,57.0,133.0,133.0,57.0,2.1,2.12,-198,-263,0,-276,191,257,830.4193332195282,830.4194579124451,830.4230542182922,830.4348509311676,830.583954334259,830.583954334259,830.583954334259,830.583954334259,830.583954334259,830.583954334259,830.583954334259,841.4411218166351,2,10.99153757095337,None,,,,,,,,,,,,,,,,,,1,1,2025-02-18_10h01.09.056,comp,2024.2.4,58.857594310564274,2025-02-18 10h02.22.411712 -0500,
109,109,0,filler_square,None,None,None,None,None,None,None,None,None,None,1,3.9458084106445312,None,,,,,0,0,0,0,0,109,109,204,841.4562861919403,,,,,,,,,,,,,,,,,,,,,,,,,,,,,,,,,,,,,,,,,,,,,,,,,,,,,,,,,,,,,,,,,,,,,,,,,,,,,,,,,64.33204997637827,64.33204997637827,64.19370011588441,60.25578080919362,60.64621315981051,59.12331485337281,4.0,4.1,-158,-254,0,10,156,-287,841.4430673122406,841.4431464672089,841.4459977149963,841.4562861919403,841.6051046848297,841.6051046848297,841.6051046848297,841.6051046848297,841.6051046848297,841.6051046848297,841.6051046848297,845.4055879116058,1,3.9458084106445312,None,,,,,,,,,,,,,,,,,,1,1,2025-02-18_10h01.09.056,comp,2024.2.4,58.857594310564274,2025-02-18 10h02.22.411712 -0500,
110,110,0,filler_random,None,None,None,None,None,None,None,None,None,None,1,1.631035566329956,None,,,,,0,0,0,0,0,110,110,141,845.42001080513,,,,,,,,,,,,,,,,,,,,,,,,,,,,,,,,,,,,,,,,,,,,,,,,,,,,,,,,,,,,,,,,,,,,,,,,,,,,,,,,,169.18736461182067,188.7458861542742,91.56424610686693,190.20902158916186,174.95777393079186,97.55510444948305,2.2,2.21,-285,-284,0,273,240,254,845.4072890281677,845.407369852066,845.4104056358337,845.42001080513,845.5720818042755,845.5720818042755,845.5720818042755,845.5720818042755,845.5720818042755,845.5720818042755,845.5720818042755,847.0575735569,1,1.631035566329956,None,,,,,,,,,,,,,,,,,,1,1,2025-02-18_10h01.09.056,comp,2024.2.4,58.857594310564274,2025-02-18 10h02.22.411712 -0500,
111,111,0,filler_square,None,None,None,None,None,None,None,None,None,None,2,1.5604512691497803,None,,,,,0,0,0,0,0,111,111,189,847.0742452144623,,,,,,,,,,,,,,,,,,,,,,,,,,,,,,,,,,,,,,,,,,,,,,,,,,,,,,,,,,,,,,,,,,,,,,,,,,,,,,,,,81.50120433574267,76.03864545592327,83.23361635047661,83.23361635047661,71.48944201190987,78.90804519756011,2.2,2.21,-176,-271,0,277,177,284,847.0595760345459,847.0596573352814,847.0632903575897,847.0742452144623,847.2108566761017,847.2108566761017,847.2108566761017,847.2108566761017,847.2108566761017,847.2108566761017,847.2108566761017,848.6398241519928,2,1.5604512691497803,None,,,,,,,,,,,,,,,,,,1,1,2025-02-18_10h01.09.056,comp,2024.2.4,58.857594310564274,2025-02-18 10h02.22.411712 -0500,
112,112,0,critical,whd,20.0,1.0,upper,125.0,200.0,200.0,125.0,141.0,141.0,1,3.936676025390625,None,,,,,0,0,0,0,0,112,112,91,848.6578097343445,,,,,,,,,,,,,,,,,,,,,,,,,,,,,,,,,,,,,,,,,,,,,,,,,,,,,,,,,,,,,,,,,,,,,,,,,,,,,,,,,125.0,200.0,200.0,125.0,141.0,141.0,1.0,1.3,222,-263,480,-287,709,-251,848.6414511203766,848.641530752182,848.6448185443878,848.6578097343445,848.8061339855194,848.8061339855194,848.8061339855194,848.8061339855194,848.8061339855194,848.8061339855194,848.8061339855194,852.6090197563171,1,3.936676025390625,None,,,,,,,,,,,,,,,,,,1,1,2025-02-18_10h01.09.056,comp,2024.2.4,58.857594310564274,2025-02-18 10h02.22.411712 -0500,
113,113,0,filler_square,None,None,None,None,None,None,None,None,None,None,1,15.217238426208496,None,,,,,0,0,0,0,0,113,113,170,852.6256122589111,,,,,,,,,,,,,,,,,,,,,,,,,,,,,,,,,,,,,,,,,,,,,,,,,,,,,,,,,,,,,,,,,,,,,,,,,,,,,,,,,61.5979795961602,61.5979795961602,58.13420342094004,57.352791471905746,57.896245981850434,59.73130988707015,3.0,3.2,-155,-277,0,-4,155,271,852.6111493110657,852.6112296581268,852.6147136688232,852.6256122589111,852.7762384414673,852.7762384414673,852.7762384414673,852.7762384414673,852.7762384414673,852.7762384414673,852.7762384414673,867.8630185127258,1,15.217238426208496,None,,,,,,,,,,,,,,,,,,1,1,2025-02-18_10h01.09.056,comp,2024.2.4,58.857594310564274,2025-02-18 10h02.22.411712 -0500,
114,114,0,filler_square,None,None,None,None,None,None,None,None,None,None,1,1.203258991241455,None,,,,,0,0,0,0,0,114,114,209,867.8790996074677,,,,,,,,,,,,,,,,,,,,,,,,,,,,,,,,,,,,,,,,,,,,,,,,,,,,,,,,,,,,,,,,,,,,,,,,,,,,,,,,,162.62836097876237,162.62836097876237,145.83403692057578,65.87840428062023,138.9516614351395,127.27822642375827,2.2,2.21,-210,-284,0,275,193,285,867.8650679588318,867.8651633262634,867.8684494495392,867.8790996074677,868.0321931838989,868.0321931838989,868.0321931838989,868.0321931838989,868.0321931838989,868.0321931838989,868.0321931838989,869.0965352058411,1,1.203258991241455,None,,,,,,,,,,,,,,,,,,1,1,2025-02-18_10h01.09.056,comp,2024.2.4,58.857594310564274,2025-02-18 10h02.22.411712 -0500,
115,115,0,filler_square,None,None,None,None,None,None,None,None,None,None,1,3.9789717197418213,None,,,,,0,0,0,0,0,115,115,202,869.1122238636017,,,,,,,,,,,,,,,,,,,,,,,,,,,,,,,,,,,,,,,,,,,,,,,,,,,,,,,,,,,,,,,,,,,,,,,,,,,,,,,,,66.79492109317142,66.79492109317142,60.18093437226568,58.40694253131359,66.00332626895002,62.58237123956707,1.0,1.1,-639,264,-480,286,-324,267,869.0983905792236,869.0984692573547,869.1018521785736,869.1122238636017,869.260187625885,869.260187625885,869.260187625885,869.260187625885,869.260187625885,869.260187625885,869.260187625885,873.098349571228,1,3.9789717197418213,None,,,,,,,,,,,,,,,,,,1,1,2025-02-18_10h01.09.056,comp,2024.2.4,58.857594310564274,2025-02-18 10h02.22.411712 -0500,
116,116,0,critical,dhw,20.0,1.0,upper,141.0,141.0,200.0,125.0,125.0,200.0,3,5.35129976272583,None,,,,,0,0,0,0,0,116,116,55,873.1151037216187,,,,,,,,,,,,,,,,,,,,,,,,,,,,,,,,,,,,,,,,,,,,,,,,,,,,,,,,,,,,,,,,,,,,,,,,,,,,,,,,,141.0,141.0,200.0,125.0,125.0,200.0,1.0,1.3,251,-288,480,-260,738,-262,873.0998821258545,873.0999615192413,873.10404753685,873.1151037216187,873.2631406784058,873.2631406784058,873.2631406784058,873.2631406784058,873.2631406784058,873.2631406784058,873.2631406784058,878.4844748973846,3,5.35129976272583,None,,,,,,,,,,,,,,,,,,1,1,2025-02-18_10h01.09.056,comp,2024.2.4,58.857594310564274,2025-02-18 10h02.22.411712 -0500,
117,117,0,critical,hwd,20.0,2.1,lower,133.0,57.0,57.0,133.0,78.0,78.0,3,7.573990106582642,None,,,,,0,0,0,0,0,117,117,42,878.5025038719177,,,,,,,,,,,,,,,,,,,,,,,,,,,,,,,,,,,,,,,,,,,,,,,,,,,,,,,,,,,,,,,,,,,,,,,,,,,,,,,,,133.0,57.0,57.0,133.0,78.0,78.0,2.1,2.12,-191,-254,0,-256,202,279,878.4862201213837,878.486319065094,878.4900259971619,878.5025038719177,878.6487271785736,878.6487271785736,878.6487271785736,878.6487271785736,878.6487271785736,878.6487271785736,878.6487271785736,886.0827949047089,3,7.573990106582642,None,,,,,,,,,,,,,,,,,,1,1,2025-02-18_10h01.09.056,comp,2024.2.4,58.857594310564274,2025-02-18 10h02.22.411712 -0500,
118,118,0,critical,wdh,35.0,3.0,lower,57.0,133.0,70.0,70.0,133.0,57.0,3,19.822861909866333,None,,,,,0,0,0,0,0,118,118,74,886.0998492240906,,,,,,,,,,,,,,,,,,,,,,,,,,,,,,,,,,,,,,,,,,,,,,,,,,,,,,,,,,,,,,,,,,,,,,,,,,,,,,,,,57.0,133.0,70.0,70.0,133.0,57.0,3.0,3.2,-198,-261,0,2,160,289,886.0842990875244,886.0843770503998,886.0872077941895,886.0998492240906,886.2428531646729,886.2428531646729,886.2428531646729,886.2428531646729,886.2428531646729,886.2428531646729,886.2428531646729,905.9278223514557,3,19.822861909866333,None,,,,,,,,,,,,,,,,,,1,1,2025-02-18_10h01.09.056,comp,2024.2.4,58.857594310564274,2025-02-18 10h02.22.411712 -0500,
119,119,0,critical,hdw,20.0,2.1,lower,133.0,57.0,78.0,78.0,57.0,133.0,1,5.169088840484619,None,,,,,0,0,0,0,0,119,119,22,905.9476652145386,,,,,,,,,,,,,,,,,,,,,,,,,,,,,,,,,,,,,,,,,,,,,,,,,,,,,,,,,,,,,,,,,,,,,,,,,,,,,,,,,133.0,57.0,78.0,78.0,57.0,133.0,2.1,2.11,-164,277,0,289,202,-259,905.9296822547913,905.9298162460327,905.9329349994659,905.9476652145386,906.0924363136292,906.0924363136292,906.0924363136292,906.0924363136292,906.0924363136292,906.0924363136292,906.0924363136292,911.1269471645355,1,5.169088840484619,None,,,,,,,,,,,,,,,,,,1,1,2025-02-18_10h01.09.056,comp,2024.2.4,58.857594310564274,2025-02-18 10h02.22.411712 -0500,
120,120,0,critical,whd,20.0,2.1,lower,57.0,133.0,133.0,57.0,78.0,78.0,2,2.2839009761810303,None,,,,,0,0,0,0,0,120,120,14,911.1428623199463,,,,,,,,,,,,,,,,,,,,,,,,,,,,,,,,,,,,,,,,,,,,,,,,,,,,,,,,,,,,,,,,,,,,,,,,,,,,,,,,,57.0,133.0,133.0,57.0,78.0,78.0,2.1,2.12,-191,-283,0,-253,164,285,911.1285221576691,911.1286025047302,911.1319222450256,911.1428623199463,911.2957336902618,911.2957336902618,911.2957336902618,911.2957336902618,911.2957336902618,911.2957336902618,911.2957336902618,913.4435439109802,2,2.2839009761810303,None,,,,,,,,,,,,,,,,,,1,1,2025-02-18_10h01.09.056,comp,2024.2.4,58.857594310564274,2025-02-18 10h02.22.411712 -0500,
121,121,0,critical,dwh,35.0,3.0,upper,127.0,127.0,125.0,200.0,200.0,125.0,2,4.928004503250122,None,,,,,0,0,0,0,0,121,121,63,913.4596843719482,,,,,,,,,,,,,,,,,,,,,,,,,,,,,,,,,,,,,,,,,,,,,,,,,,,,,,,,,,,,,,,,,,,,,,,,,,,,,,,,,127.0,127.0,125.0,200.0,200.0,125.0,3.0,3.2,-260,-270,0,14,258,286,913.4451863765717,913.4452631473541,913.4485721588135,913.4596843719482,913.6169028282166,913.6169028282166,913.6169028282166,913.6169028282166,913.6169028282166,913.6169028282166,913.6169028282166,918.397274017334,2,4.928004503250122,None,,,,,,,,,,,,,,,,,,1,1,2025-02-18_10h01.09.056,comp,2024.2.4,58.857594310564274,2025-02-18 10h02.22.411712 -0500,
122,122,0,critical,hwd,35.0,1.0,upper,200.0,125.0,125.0,200.0,127.0,127.0,1,2.149308204650879,None,,,,,0,0,0,0,0,122,122,97,918.4139358997345,,,,,,,,,,,,,,,,,,,,,,,,,,,,,,,,,,,,,,,,,,,,,,,,,,,,,,,,,,,,,,,,,,,,,,,,,,,,,,,,,200.0,125.0,125.0,200.0,127.0,127.0,1.0,1.2,-258,2,0,19,260,-10,918.399139881134,918.3992233276367,918.4031796455383,918.4139358997345,918.5535755157471,918.5535755157471,918.5535755157471,918.5535755157471,918.5535755157471,918.5535755157471,918.5535755157471,920.5657067298889,1,2.149308204650879,None,,,,,,,,,,,,,,,,,,1,1,2025-02-18_10h01.09.056,comp,2024.2.4,58.857594310564274,2025-02-18 10h02.22.411712 -0500,
123,123,0,filler_random,None,None,None,None,None,None,None,None,None,None,3,1.8045098781585693,None,,,,,0,0,0,0,0,123,123,144,920.5822415351868,,,,,,,,,,,,,,,,,,,,,,,,,,,,,,,,,,,,,,,,,,,,,,,,,,,,,,,,,,,,,,,,,,,,,,,,,,,,,,,,,183.99858873964308,108.49859980670516,178.45637923697413,90.63374267185563,189.0426913299838,146.59985409888256,3.0,3.1,-196,251,0,-5,215,-273,920.5680298805237,920.5681159496307,920.5713453292847,920.5822415351868,920.7295794487,920.7295794487,920.7295794487,920.7295794487,920.7295794487,920.7295794487,920.7295794487,922.4032509326935,3,1.8045098781585693,None,,,,,,,,,,,,,,,,,,1,1,2025-02-18_10h01.09.056,comp,2024.2.4,58.857594310564274,2025-02-18 10h02.22.411712 -0500,
124,124,0,critical,whd,35.0,2.1,lower,57.0,133.0,133.0,57.0,70.0,70.0,2,9.457224607467651,None,,,,,0,0,0,0,0,124,124,12,922.418404340744,,,,,,,,,,,,,,,,,,,,,,,,,,,,,,,,,,,,,,,,,,,,,,,,,,,,,,,,,,,,,,,,,,,,,,,,,,,,,,,,,57.0,133.0,133.0,57.0,70.0,70.0,2.1,2.11,-191,286,0,258,160,-273,922.4048068523407,922.4048826694489,922.4077701568604,922.418404340744,922.5645575523376,922.5645575523376,922.5645575523376,922.5645575523376,922.5645575523376,922.5645575523376,922.5645575523376,931.8825511932373,2,9.457224607467651,None,,,,,,,,,,,,,,,,,,1,1,2025-02-18_10h01.09.056,comp,2024.2.4,58.857594310564274,2025-02-18 10h02.22.411712 -0500,
125,125,0,critical,dhw,35.0,1.0,upper,127.0,127.0,200.0,125.0,125.0,200.0,3,15.139300346374512,None,,,,,0,0,0,0,0,125,125,49,931.903562784195,,,,,,,,,,,,,,,,,,,,,,,,,,,,,,,,,,,,,,,,,,,,,,,,,,,,,,,,,,,,,,,,,,,,,,,,,,,,,,,,,127.0,127.0,200.0,125.0,125.0,200.0,1.0,1.1,-702,288,-480,279,-222,285,931.8842315673828,931.8843145370483,931.8878176212311,931.903562784195,932.0565710067749,932.0565710067749,932.0565710067749,932.0565710067749,932.0565710067749,932.0565710067749,932.0565710067749,947.061288356781,3,15.139300346374512,None,,,,,,,,,,,,,,,,,,1,1,2025-02-18_10h01.09.056,comp,2024.2.4,58.857594310564274,2025-02-18 10h02.22.411712 -0500,
126,126,0,filler_square,None,None,None,None,None,None,None,None,None,None,2,1.1270713806152344,None,,,,,0,0,0,0,0,126,126,179,947.0764105319977,,,,,,,,,,,,,,,,,,,,,,,,,,,,,,,,,,,,,,,,,,,,,,,,,,,,,,,,,,,,,,,,,,,,,,,,,,,,,,,,,110.82422673091648,84.35920448560142,134.0607441903046,134.0607441903046,73.78599235001373,126.51620122592644,3.0,3.1,-205,251,0,-17,226,-255,947.063127040863,947.0632054805756,947.0661132335663,947.0764105319977,947.2251415252686,947.2251415252686,947.2251415252686,947.2251415252686,947.2251415252686,947.2251415252686,947.2251415252686,948.2104649543762,2,1.1270713806152344,None,,,,,,,,,,,,,,,,,,1,1,2025-02-18_10h01.09.056,comp,2024.2.4,58.857594310564274,2025-02-18 10h02.22.411712 -0500,
127,127,0,critical,hwd,35.0,2.1,upper,200.0,125.0,125.0,200.0,127.0,127.0,2,5.740768671035767,None,,,,,0,0,0,0,0,127,127,17,948.2310652732849,,,,,,,,,,,,,,,,,,,,,,,,,,,,,,,,,,,,,,,,,,,,,,,,,,,,,,,,,,,,,,,,,,,,,,,,,,,,,,,,,200.0,125.0,125.0,200.0,127.0,127.0,2.1,2.11,-258,289,0,252,260,-265,948.2120082378387,948.2120988368988,948.2151594161987,948.2310652732849,948.3718752861023,948.3718752861023,948.3718752861023,948.3718752861023,948.3718752861023,948.3718752861023,948.3718752861023,953.9743762016296,2,5.740768671035767,None,,,,,,,,,,,,,,,,,,1,1,2025-02-18_10h01.09.056,comp,2024.2.4,58.857594310564274,2025-02-18 10h02.22.411712 -0500,
128,128,0,filler_square,None,None,None,None,None,None,None,None,None,None,1,2.5005314350128174,None,,,,,0,0,0,0,0,128,128,203,953.9906332492828,,,,,,,,,,,,,,,,,,,,,,,,,,,,,,,,,,,,,,,,,,,,,,,,,,,,,,,,,,,,,,,,,,,,,,,,,,,,,,,,,98.82654508923638,98.82654508923638,87.52206281690358,96.9058449367062,65.22505603715062,80.26324963452355,2.2,2.21,-194,-258,0,250,185,284,953.9762334823608,953.976313829422,953.9795939922333,953.9906332492828,954.1391644477844,954.1391644477844,954.1391644477844,954.1391644477844,954.1391644477844,954.1391644477844,954.1391644477844,956.507730960846,1,2.5005314350128174,None,,,,,,,,,,,,,,,,,,1,1,2025-02-18_10h01.09.056,comp,2024.2.4,58.857594310564274,2025-02-18 10h02.22.411712 -0500,
129,129,0,critical,dwh,20.0,2.1,lower,78.0,78.0,57.0,133.0,133.0,57.0,2,9.169385433197021,None,,,,,0,0,0,0,0,129,129,30,956.5219647884369,,,,,,,,,,,,,,,,,,,,,,,,,,,,,,,,,,,,,,,,,,,,,,,,,,,,,,,,,,,,,,,,,,,,,,,,,,,,,,,,,78.0,78.0,57.0,133.0,133.0,57.0,2.1,2.12,-202,-281,0,-271,191,284,956.509340763092,956.5094172954559,956.5127990245819,956.5219647884369,956.672684431076,956.672684431076,956.672684431076,956.672684431076,956.672684431076,956.672684431076,956.672684431076,965.6948843002319,2,9.169385433197021,None,,,,,,,,,,,,,,,,,,1,1,2025-02-18_10h01.09.056,comp,2024.2.4,58.857594310564274,2025-02-18 10h02.22.411712 -0500,
130,130,0,critical,wdh,35.0,2.1,upper,125.0,200.0,127.0,127.0,200.0,125.0,3,1.5946390628814697,None,,,,,0,0,0,0,0,130,130,9,965.7135248184204,,,,,,,,,,,,,,,,,,,,,,,,,,,,,,,,,,,,,,,,,,,,,,,,,,,,,,,,,,,,,,,,,,,,,,,,,,,,,,,,,125.0,200.0,127.0,127.0,200.0,125.0,2.1,2.12,-260,-271,0,-263,222,285,965.6964347362518,965.6965153217316,965.6996340751648,965.7135248184204,965.8618228435516,965.8618228435516,965.8618228435516,965.8618228435516,965.8618228435516,965.8618228435516,965.8618228435516,967.314201593399,3,1.5946390628814697,None,,,,,,,,,,,,,,,,,,1,1,2025-02-18_10h01.09.056,comp,2024.2.4,58.857594310564274,2025-02-18 10h02.22.411712 -0500,
131,131,0,critical,hwd,35.0,2.1,lower,133.0,57.0,57.0,133.0,70.0,70.0,1,2.180924415588379,None,,,,,0,0,0,0,0,131,131,16,967.3348937034607,,,,,,,,,,,,,,,,,,,,,,,,,,,,,,,,,,,,,,,,,,,,,,,,,,,,,,,,,,,,,,,,,,,,,,,,,,,,,,,,,133.0,57.0,57.0,133.0,70.0,70.0,2.1,2.12,-191,-258,0,-279,198,263,967.3157835006714,967.3158612251282,967.3191428184509,967.3348937034607,967.4776632785797,967.4776632785797,967.4776632785797,967.4776632785797,967.4776632785797,967.4776632785797,967.4776632785797,969.5312767028809,1,2.180924415588379,None,,,,,,,,,,,,,,,,,,1,1,2025-02-18_10h01.09.056,comp,2024.2.4,58.857594310564274,2025-02-18 10h02.22.411712 -0500,
132,132,0,filler_random,None,None,None,None,None,None,None,None,None,None,2,2.3363826274871826,None,,,,,0,0,0,0,0,132,132,154,969.5472195148468,,,,,,,,,,,,,,,,,,,,,,,,,,,,,,,,,,,,,,,,,,,,,,,,,,,,,,,,,,,,,,,,,,,,,,,,,,,,,,,,,102.58560258713334,93.48980242733111,144.49466413035626,141.18121951747602,65.65530764599738,129.7072875562905,3.0,3.2,-213,-270,0,8,231,269,969.5330851078033,969.5331664085388,969.5360114574432,969.5472195148468,969.6954448223114,969.6954448223114,969.6954448223114,969.6954448223114,969.6954448223114,969.6954448223114,969.6954448223114,971.8965814113617,2,2.3363826274871826,None,,,,,,,,,,,,,,,,,,1,1,2025-02-18_10h01.09.056,comp,2024.2.4,58.857594310564274,2025-02-18 10h02.22.411712 -0500,
133,133,0,critical,hwd,20.0,4.0,lower,133.0,57.0,57.0,133.0,78.0,78.0,1,14.419133424758911,None,,,,,0,0,0,0,0,133,133,106,971.9121997356415,,,,,,,,,,,,,,,,,,,,,,,,,,,,,,,,,,,,,,,,,,,,,,,,,,,,,,,,,,,,,,,,,,,,,,,,,,,,,,,,,133.0,57.0,57.0,133.0,78.0,78.0,4.0,4.2,-191,5,0,-271,202,5,971.8980603218079,971.8981413841248,971.9015667438507,971.9121997356415,972.0653433799744,972.0653433799744,972.0653433799744,972.0653433799744,972.0653433799744,972.0653433799744,972.0653433799744,986.3348937034607,1,14.419133424758911,None,,,,,,,,,,,,,,,,,,1,1,2025-02-18_10h01.09.056,comp,2024.2.4,58.857594310564274,2025-02-18 10h02.22.411712 -0500,
134,134,0,critical,wdh,20.0,1.0,lower,57.0,133.0,78.0,78.0,133.0,57.0,3,3.0287368297576904,None,,,,,0,0,0,0,0,134,134,78,986.3514502048492,,,,,,,,,,,,,,,,,,,,,,,,,,,,,,,,,,,,,,,,,,,,,,,,,,,,,,,,,,,,,,,,,,,,,,,,,,,,,,,,,57.0,133.0,78.0,78.0,133.0,57.0,1.0,1.3,278,-269,480,-285,644,-275,986.3364861011505,986.336564540863,986.3406329154968,986.3514502048492,986.4984557628632,986.4984557628632,986.4984557628632,986.4984557628632,986.4984557628632,986.4984557628632,986.4984557628632,989.3825709819794,3,3.0287368297576904,None,,,,,,,,,,,,,,,,,,1,1,2025-02-18_10h01.09.056,comp,2024.2.4,58.857594310564274,2025-02-18 10h02.22.411712 -0500,
135,135,0,critical,whd,20.0,1.0,lower,57.0,133.0,133.0,57.0,78.0,78.0,2,10.899816274642944,None,,,,,0,0,0,0,0,135,135,90,989.3996379375458,,,,,,,,,,,,,,,,,,,,,,,,,,,,,,,,,,,,,,,,,,,,,,,,,,,,,,,,,,,,,,,,,,,,,,,,,,,,,,,,,57.0,133.0,133.0,57.0,78.0,78.0,1.0,1.3,289,-260,480,-265,644,-286,989.3841149806976,989.3841931819916,989.3871257305145,989.3996379375458,989.5556573867798,989.5556573867798,989.5556573867798,989.5556573867798,989.5556573867798,989.5556573867798,989.5556573867798,1000.3164539337158,2,10.899816274642944,None,,,,,,,,,,,,,,,,,,1,1,2025-02-18_10h01.09.056,comp,2024.2.4,58.857594310564274,2025-02-18 10h02.22.411712 -0500,
136,136,0,filler_random,None,None,None,None,None,None,None,None,None,None,2,2.1064631938934326,None,,,,,0,0,0,0,0,136,136,152,1000.3370962142944,,,,,,,,,,,,,,,,,,,,,,,,,,,,,,,,,,,,,,,,,,,,,,,,,,,,,,,,,,,,,,,,,,,,,,,,,,,,,,,,,170.21682758232276,91.17356795434479,158.22293943326395,198.29933089472246,176.05299360051737,62.607097270370765,2.2,2.22,-241,284,0,-289,226,-286,1000.3184506893158,1000.3185453414917,1000.32173371315,1000.3370962142944,1000.4731116294861,1000.4731116294861,1000.4731116294861,1000.4731116294861,1000.4731116294861,1000.4731116294861,1000.4731116294861,1002.4611222743988,2,2.1064631938934326,None,,,,,,,,,,,,,,,,,,1,1,2025-02-18_10h01.09.056,comp,2024.2.4,58.857594310564274,2025-02-18 10h02.22.411712 -0500,
137,137,0,critical,hdw,20.0,3.0,lower,133.0,57.0,78.0,78.0,57.0,133.0,1,6.844878196716309,None,,,,,0,0,0,0,0,137,137,116,1002.478725194931,,,,,,,,,,,,,,,,,,,,,,,,,,,,,,,,,,,,,,,,,,,,,,,,,,,,,,,,,,,,,,,,,,,,,,,,,,,,,,,,,133.0,57.0,78.0,78.0,57.0,133.0,3.0,3.2,-164,-288,0,2,202,266,1002.4626889228821,1002.4627857208252,1002.4661238193512,1002.478725194931,1002.6237981319427,1002.6237981319427,1002.6237981319427,1002.6237981319427,1002.6237981319427,1002.6237981319427,1002.6237981319427,1009.3410942554474,1,6.844878196716309,None,,,,,,,,,,,,,,,,,,1,1,2025-02-18_10h01.09.056,comp,2024.2.4,58.857594310564274,2025-02-18 10h02.22.411712 -0500,
138,138,0,critical,whd,35.0,2.1,lower,57.0,133.0,133.0,57.0,70.0,70.0,2,4.566931962966919,None,,,,,0,0,0,0,0,138,138,36,1009.3572597503662,,,,,,,,,,,,,,,,,,,,,,,,,,,,,,,,,,,,,,,,,,,,,,,,,,,,,,,,,,,,,,,,,,,,,,,,,,,,,,,,,57.0,133.0,133.0,57.0,70.0,70.0,2.1,2.12,-191,-275,0,-252,160,260,1009.342615365982,1009.3426916599274,1009.3459284305573,1009.3572597503662,1009.5064940452576,1009.5064940452576,1009.5064940452576,1009.5064940452576,1009.5064940452576,1009.5064940452576,1009.5064940452576,1013.9323282241821,2,4.566931962966919,None,,,,,,,,,,,,,,,,,,1,1,2025-02-18_10h01.09.056,comp,2024.2.4,58.857594310564274,2025-02-18 10h02.22.411712 -0500,
139,139,0,critical,wdh,20.0,4.0,upper,125.0,200.0,141.0,141.0,200.0,125.0,3,5.829780340194702,None,,,,,0,0,0,0,0,139,139,83,1013.9499664306641,,,,,,,,,,,,,,,,,,,,,,,,,,,,,,,,,,,,,,,,,,,,,,,,,,,,,,,,,,,,,,,,,,,,,,,,,,,,,,,,,125.0,200.0,141.0,141.0,200.0,125.0,4.0,4.1,-266,-265,0,-10,229,-265,1013.9338488578796,1013.9339275360107,1013.9367883205414,1013.9499664306641,1014.091591835022,1014.091591835022,1014.091591835022,1014.091591835022,1014.091591835022,1014.091591835022,1014.091591835022,1019.7951416969299,3,5.829780340194702,None,,,,,,,,,,,,,,,,,,1,1,2025-02-18_10h01.09.056,comp,2024.2.4,58.857594310564274,2025-02-18 10h02.22.411712 -0500,
140,140,0,filler_square,None,None,None,None,None,None,None,None,None,None,1,3.42423415184021,None,,,,,0,0,0,0,0,140,140,182,1019.8114838600159,,,,,,,,,,,,,,,,,,,,,,,,,,,,,,,,,,,,,,,,,,,,,,,,,,,,,,,,,,,,,,,,,,,,,,,,,,,,,,,,,124.60200555028791,124.60200555028791,110.0590194735513,57.378115946867354,111.99094846314063,79.44500841710507,2.2,2.21,-187,-267,0,289,164,272,1019.7970371246338,1019.7971231937408,1019.8011825084686,1019.8114838600159,1019.9604887962341,1019.9604887962341,1019.9604887962341,1019.9604887962341,1019.9604887962341,1019.9604887962341,1019.9604887962341,1023.2488811016083,1,3.42423415184021,None,,,,,,,,,,,,,,,,,,1,1,2025-02-18_10h01.09.056,comp,2024.2.4,58.857594310564274,2025-02-18 10h02.22.411712 -0500,
