thisN,thisTrialN,thisRepN,effect,order,distance,config,diag,h_1,w_1,h_2,w_2,h_3,w_3,rect_choice.keys,rect_choice.rt,rect_choice.duration,instructions_loop.thisRepN,instructions_loop.thisTrialN,instructions_loop.thisN,instructions_loop.thisIndex,blocks.thisRepN,blocks.thisTrialN,blocks.thisN,blocks.thisIndex,trials.thisRepN,trials.thisTrialN,trials.thisN,trials.thisIndex,thisRow.t,notes,consent.started,agree_button.started,decline_button.started,consent_img.started,mouse.started,consent.stopped,agree_button.numClicks,agree_button.timesOn,agree_button.timesOff,decline_button.numClicks,decline_button.timesOn,decline_button.timesOff,mouse.x,mouse.y,mouse.leftButton,mouse.midButton,mouse.rightButton,mouse.time,mouse.clicked_name,exp_params.started,exp_params.stopped,welcome.started,welcome_text.started,welcome.stopped,instructions_1.started,instructions_1_text_1.started,instructions_1_text_2.started,key_resp.started,instructions_1.stopped,instructions_loop.key_resp.keys,instructions_loop.key_resp.rt,instructions_loop.key_resp.duration,instructions_2.started,instructions_2_text_1.started,instructions_2_text_2.started,key_resp_2.started,instructions_2.stopped,instructions_loop.key_resp_2.keys,instructions_loop.key_resp_2.rt,instructions_loop.key_resp_2.duration,instructions_3.started,instructions_3_text_1.started,r1_instr3.started,r2_instr3.started,r3_instr3.started,r1_instr3_label.started,r2_instr3_label.started,r3_instr3_label.started,instructions_3_text_3.started,instructions_3_text_4.started,key_resp_3.started,instructions_3.stopped,instructions_loop.key_resp_3.keys,instructions_loop.key_resp_3.rt,instructions_loop.key_resp_3.duration,instructions_4.started,instructions_4_text_1.started,instructions_4_text_3.started,instructions_4_text_2.started,key_resp_4.started,instructions_4.stopped,instructions_loop.key_resp_4.keys,instructions_loop.key_resp_4.rt,instructions_loop.key_resp_4.duration,instructions_5.started,instructions_5_text_1.started,instructions_5_text_2.started,key_resp_5.started,instructions_5.stopped,instructions_loop.key_resp_5.keys,instructions_loop.key_resp_5.rt,instructions_loop.key_resp_5.duration,start_exp.started,start_exp_text.started,key_resp_6.started,start_exp.stopped,key_resp_6.keys,key_resp_6.rt,key_resp_6.duration,h_1_tmp,w_1_tmp,h_2_tmp,w_2_tmp,h_3_tmp,w_3_tmp,config_tmp,config_tmp_1,r_1_x,r_1_y,r_2_x,r_2_y,r_3_x,r_3_y,pre_trial.started,pre_trial.stopped,choice_trial.started,rect_choice.started,r_1.started,r_2.started,r_3.started,r_1_label.started,r_2_label.started,r_3_label.started,prompt.started,choice_trial.stopped,trials.rect_choice.keys,trials.rect_choice.rt,trials.rect_choice.duration,end_block.started,end_block_text.started,end_block.stopped,end.started,end_text.started,key_resp_7.started,end.stopped,key_resp_7.keys,key_resp_7.rt,key_resp_7.duration,debriefing.started,debrief_form.started,end_debrief.started,debriefing.stopped,end_debrief.keys,end_debrief.rt,end_debrief.duration,participant,computer,date,expName,psychopyVersion,frameRate,expStart,
,,,,,,,,,,,,,,,,,,,,,,,,,,,,,,,0.014644622802734375,0.1045083999633789,0.1045083999633789,0.1045083999633789,0.014390945434570312,73.27362704277039,1,[73.16622948646545],[73.16625499725342],0,,,[-46.0],[-540.0],[1],[0],[0],[73.24031352996826],['agree_button'],,,,,,,,,,,,,,,,,,,,,,,,,,,,,,,,,,,,,,,,,,,,,,,,,,,,,,,,,,,,,,,,,,,,,,,,,,,,,,,,,,,,,,,,,,,,,,,,,,,,,,,,,,,200,2,2025-03-06_13h03.02.727,comp,2024.2.4,59.57395071372772,2025-03-06 13h03.26.758695 -0500,
,,,,,,,,,,,,,,,,,,,,,,,,,,,,,,,,,,,,,,,,,,,,,,,,,,73.27414059638977,73.27420902252197,,,,,,,,,,,,,,,,,,,,,,,,,,,,,,,,,,,,,,,,,,,,,,,,,,,,,,,,,,,,,,,,,,,,,,,,,,,,,,,,,,,,,,,,,,,,,,,,,,,,,,,,,200,2,2025-03-06_13h03.02.727,comp,2024.2.4,59.57395071372772,2025-03-06 13h03.26.758695 -0500,
,,,,,,,,,,,,,,,,,,,,,,,,,,,,,,,,,,,,,,,,,,,,,,,,,,,,73.27425217628479,73.30198359489441,75.28299641609192,,,,,,,,,,,,,,,,,,,,,,,,,,,,,,,,,,,,,,,,,,,,,,,,,,,,,,,,,,,,,,,,,,,,,,,,,,,,,,,,,,,,,,,,,,,,,,,,,,,,,,200,2,2025-03-06_13h03.02.727,comp,2024.2.4,59.57395071372772,2025-03-06 13h03.26.758695 -0500,
0,0,0,,,,,,,,,,,,,,,0,0,0,0,,,,,,,,,75.30375361442566,,,,,,,,,,,,,,,,,,,,,,,,,,75.2838921546936,75.30375361442566,75.30375361442566,76.78492307662964,79.2385745048523,space,2.4349350929260254,None,79.23871850967407,79.25866103172302,79.25866103172302,80.75286173820496,85.95384359359741,space,5.194836378097534,None,85.95399212837219,85.99651455879211,85.99651455879211,85.99651455879211,85.99651455879211,85.99651455879211,85.99651455879211,85.99651455879211,85.99651455879211,85.99651455879211,87.45682549476624,91.08551836013794,space,3.6265029907226562,None,91.08568239212036,91.10441303253174,91.10441303253174,91.10441303253174,92.586660861969,98.22638726234436,space,5.632918357849121,None,98.22653794288635,98.24422430992126,98.24422430992126,99.74455094337463,100.51023173332214,space,0.7552061080932617,None,100.51045846939087,100.52531433105469,100.52531433105469,101.8095908164978,space,1.2696664333343506,None,,,,,,,,,,,,,,,,,,,,,,,,,,,,,,,,,,,,,,,,,,,,,,,200,2,2025-03-06_13h03.02.727,comp,2024.2.4,59.57395071372772,2025-03-06 13h03.26.758695 -0500,
0,0,0,filler_square,None,None,None,None,None,None,None,None,None,None,1,3.750760316848755,None,,,,,0,0,0,0,0,0,0,184,101.98885250091553,,,,,,,,,,,,,,,,,,,,,,,,,,,,,,,,,,,,,,,,,,,,,,,,,,,,,,,,,,,,,,,,,,,,,,,,,,,,,,,,,70.86900316021158,70.86900316021158,60.22220499636156,57.536473048021385,63.439115226102956,57.924378399044265,2.2,2.21,-160,-272,0,289,154,260,101.97025728225708,101.97038841247559,101.97365975379944,101.98885250091553,102.13940906524658,102.13940906524658,102.13940906524658,102.13940906524658,102.13940906524658,102.13940906524658,102.13940906524658,105.74346399307251,1,3.750760316848755,None,,,,,,,,,,,,,,,,,,200,2,2025-03-06_13h03.02.727,comp,2024.2.4,59.57395071372772,2025-03-06 13h03.26.758695 -0500,
1,1,0,critical,whd,20.0,2.1,lower,57.0,133.0,133.0,57.0,78.0,78.0,3,6.828190565109253,None,,,,,0,0,0,0,0,1,1,38,105.75879240036011,,,,,,,,,,,,,,,,,,,,,,,,,,,,,,,,,,,,,,,,,,,,,,,,,,,,,,,,,,,,,,,,,,,,,,,,,,,,,,,,,57.0,133.0,133.0,57.0,78.0,78.0,2.1,2.12,-191,-286,0,-275,164,285,105.74495005607605,105.74502539634705,105.74791812896729,105.75879240036011,105.91751265525818,105.91751265525818,105.91751265525818,105.91751265525818,105.91751265525818,105.91751265525818,105.91751265525818,112.59867143630981,3,6.828190565109253,None,,,,,,,,,,,,,,,,,,200,2,2025-03-06_13h03.02.727,comp,2024.2.4,59.57395071372772,2025-03-06 13h03.26.758695 -0500,
2,2,0,filler_square,None,None,None,None,None,None,None,None,None,None,3,1.4992756843566895,None,,,,,0,0,0,0,0,2,2,208,112.61571264266968,,,,,,,,,,,,,,,,,,,,,,,,,,,,,,,,,,,,,,,,,,,,,,,,,,,,,,,,,,,,,,,,,,,,,,,,,,,,,,,,,62.614193583110605,85.47418783067552,70.89259006742594,66.28402784032914,103.87868794943597,103.87868794943597,2.1,2.12,-172,-267,0,-272,181,260,112.60056638717651,112.60068941116333,112.60400629043579,112.61571264266968,112.76322484016418,112.76322484016418,112.76322484016418,112.76322484016418,112.76322484016418,112.76322484016418,112.76322484016418,114.12818479537964,3,1.4992756843566895,None,,,,,,,,,,,,,,,,,,200,2,2025-03-06_13h03.02.727,comp,2024.2.4,59.57395071372772,2025-03-06 13h03.26.758695 -0500,
3,3,0,filler_square,None,None,None,None,None,None,None,None,None,None,2,2.3549818992614746,None,,,,,0,0,0,0,0,3,3,204,114.14435076713562,,,,,,,,,,,,,,,,,,,,,,,,,,,,,,,,,,,,,,,,,,,,,,,,,,,,,,,,,,,,,,,,,,,,,,,,,,,,,,,,,95.10600531908568,98.12486254317955,116.03437533086337,116.03437533086337,113.70622405577843,81.70176926289689,2.2,2.22,-203,284,0,-287,195,-277,114.13000965118408,114.13008570671082,114.1330132484436,114.14435076713562,114.30326104164124,114.30326104164124,114.30326104164124,114.30326104164124,114.30326104164124,114.30326104164124,114.30326104164124,116.51586627960205,2,2.3549818992614746,None,,,,,,,,,,,,,,,,,,200,2,2025-03-06_13h03.02.727,comp,2024.2.4,59.57395071372772,2025-03-06 13h03.26.758695 -0500,
4,4,0,critical,dhw,20.0,1.0,upper,141.0,141.0,200.0,125.0,125.0,200.0,1,3.9667093753814697,None,,,,,0,0,0,0,0,4,4,55,116.53235650062561,,,,,,,,,,,,,,,,,,,,,,,,,,,,,,,,,,,,,,,,,,,,,,,,,,,,,,,,,,,,,,,,,,,,,,,,,,,,,,,,,141.0,141.0,200.0,125.0,125.0,200.0,1.0,1.2,-229,-13,0,18,258,6,116.51743912696838,116.51755666732788,116.52114486694336,116.53235650062561,116.68276524543762,116.68276524543762,116.68276524543762,116.68276524543762,116.68276524543762,116.68276524543762,116.68276524543762,120.5194878578186,1,3.9667093753814697,None,,,,,,,,,,,,,,,,,,200,2,2025-03-06_13h03.02.727,comp,2024.2.4,59.57395071372772,2025-03-06 13h03.26.758695 -0500,
5,5,0,filler_square,None,None,None,None,None,None,None,None,None,None,3,1.8663194179534912,None,,,,,0,0,0,0,0,5,5,171,120.53704190254211,,,,,,,,,,,,,,,,,,,,,,,,,,,,,,,,,,,,,,,,,,,,,,,,,,,,,,,,,,,,,,,,,,,,,,,,,,,,,,,,,138.46566066085347,168.98988758303574,172.42786340126943,72.73130991800191,188.16287226570324,188.16287226570324,3.0,3.1,-217,288,0,10,226,-252,120.52141499519348,120.521493434906,120.52453374862671,120.53704190254211,120.68312883377075,120.68312883377075,120.68312883377075,120.68312883377075,120.68312883377075,120.68312883377075,120.68312883377075,122.41840028762817,3,1.8663194179534912,None,,,,,,,,,,,,,,,,,,200,2,2025-03-06_13h03.02.727,comp,2024.2.4,59.57395071372772,2025-03-06 13h03.26.758695 -0500,
6,6,0,critical,dhw,20.0,2.1,lower,78.0,78.0,133.0,57.0,57.0,133.0,2,11.513472080230713,None,,,,,0,0,0,0,0,6,6,26,122.43391180038452,,,,,,,,,,,,,,,,,,,,,,,,,,,,,,,,,,,,,,,,,,,,,,,,,,,,,,,,,,,,,,,,,,,,,,,,,,,,,,,,,78.0,78.0,133.0,57.0,57.0,133.0,2.1,2.12,-164,-281,0,-266,191,256,122.41993975639343,122.42001414299011,122.42340397834778,122.43391180038452,122.58539485931396,122.58539485931396,122.58539485931396,122.58539485931396,122.58539485931396,122.58539485931396,122.58539485931396,133.95825052261353,2,11.513472080230713,None,,,,,,,,,,,,,,,,,,200,2,2025-03-06_13h03.02.727,comp,2024.2.4,59.57395071372772,2025-03-06 13h03.26.758695 -0500,
7,7,0,critical,hwd,35.0,2.1,upper,200.0,125.0,125.0,200.0,127.0,127.0,2,11.924045085906982,None,,,,,0,0,0,0,0,7,7,17,133.97597670555115,,,,,,,,,,,,,,,,,,,,,,,,,,,,,,,,,,,,,,,,,,,,,,,,,,,,,,,,,,,,,,,,,,,,,,,,,,,,,,,,,200.0,125.0,125.0,200.0,127.0,127.0,2.1,2.11,-258,260,0,258,260,-256,133.9598467350006,133.95992517471313,133.9629044532776,133.97597670555115,134.12066912651062,134.12066912651062,134.12066912651062,134.12066912651062,134.12066912651062,134.12066912651062,134.12066912651062,145.9067883491516,2,11.924045085906982,None,,,,,,,,,,,,,,,,,,200,2,2025-03-06_13h03.02.727,comp,2024.2.4,59.57395071372772,2025-03-06 13h03.26.758695 -0500,
8,8,0,filler_random,None,None,None,None,None,None,None,None,None,None,2,1.7944297790527344,None,,,,,0,0,0,0,0,8,8,157,145.9285614490509,,,,,,,,,,,,,,,,,,,,,,,,,,,,,,,,,,,,,,,,,,,,,,,,,,,,,,,,,,,,,,,,,,,,,,,,,,,,,,,,,122.1757749027228,137.69646505472844,162.73783001318137,154.6375627580749,85.4189439761721,140.5099555198376,4.0,4.2,-242,7,0,-266,244,19,145.90866589546204,145.90877652168274,145.9121298789978,145.9285614490509,146.07418775558472,146.07418775558472,146.07418775558472,146.07418775558472,146.07418775558472,146.07418775558472,146.07418775558472,147.74096179008484,2,1.7944297790527344,None,,,,,,,,,,,,,,,,,,200,2,2025-03-06_13h03.02.727,comp,2024.2.4,59.57395071372772,2025-03-06 13h03.26.758695 -0500,
9,9,0,critical,hdw,20.0,2.1,lower,133.0,57.0,78.0,78.0,57.0,133.0,3,4.13764762878418,None,,,,,0,0,0,0,0,9,9,22,147.76132917404175,,,,,,,,,,,,,,,,,,,,,,,,,,,,,,,,,,,,,,,,,,,,,,,,,,,,,,,,,,,,,,,,,,,,,,,,,,,,,,,,,133.0,57.0,78.0,78.0,57.0,133.0,2.1,2.11,-164,272,0,271,202,-266,147.74261951446533,147.7426941394806,147.74595856666565,147.76132917404175,147.9083375930786,147.9083375930786,147.9083375930786,147.9083375930786,147.9083375930786,147.9083375930786,147.9083375930786,151.90925884246826,3,4.13764762878418,None,,,,,,,,,,,,,,,,,,200,2,2025-03-06_13h03.02.727,comp,2024.2.4,59.57395071372772,2025-03-06 13h03.26.758695 -0500,
10,10,0,filler_random,None,None,None,None,None,None,None,None,None,None,1,1.4615890979766846,None,,,,,0,0,0,0,0,10,10,162,151.92588257789612,,,,,,,,,,,,,,,,,,,,,,,,,,,,,,,,,,,,,,,,,,,,,,,,,,,,,,,,,,,,,,,,,,,,,,,,,,,,,,,,,188.3417387980846,197.23385360894122,58.217693950875464,124.65600390797073,184.50228643139684,68.60345576655956,1.0,1.2,-257,-13,0,-7,193,-3,151.91098737716675,151.91106462478638,151.9144504070282,151.92588257789612,152.07535481452942,152.07535481452942,152.07535481452942,152.07535481452942,152.07535481452942,152.07535481452942,152.07535481452942,153.3932318687439,1,1.4615890979766846,None,,,,,,,,,,,,,,,,,,200,2,2025-03-06_13h03.02.727,comp,2024.2.4,59.57395071372772,2025-03-06 13h03.26.758695 -0500,
11,11,0,critical,hwd,20.0,4.0,lower,133.0,57.0,57.0,133.0,78.0,78.0,2,3.970618963241577,None,,,,,0,0,0,0,0,11,11,106,153.40880632400513,,,,,,,,,,,,,,,,,,,,,,,,,,,,,,,,,,,,,,,,,,,,,,,,,,,,,,,,,,,,,,,,,,,,,,,,,,,,,,,,,133.0,57.0,57.0,133.0,78.0,78.0,4.0,4.1,-191,-268,0,-16,202,-278,153.39476585388184,153.39484238624573,153.39822363853455,153.40880632400513,153.55989718437195,153.55989718437195,153.55989718437195,153.55989718437195,153.55989718437195,153.55989718437195,153.55989718437195,157.3836691379547,2,3.970618963241577,None,,,,,,,,,,,,,,,,,,200,2,2025-03-06_13h03.02.727,comp,2024.2.4,59.57395071372772,2025-03-06 13h03.26.758695 -0500,
12,12,0,catch,None,None,None,None,None,None,None,None,None,None,3,1.3232429027557373,None,,,,,0,0,0,0,0,12,12,120,157.4002022743225,,,,,,,,,,,,,,,,,,,,,,,,,,,,,,,,,,,,,,,,,,,,,,,,,,,,,,,,,,,,,,,,,,,,,,,,,,,,,,,,,92,98,131,59,196,129,4.0,4.2,-174,-15,0,-268,190,11,157.38578414916992,157.3858618736267,157.38920617103577,157.4002022743225,157.54632091522217,157.54632091522217,157.54632091522217,157.54632091522217,157.54632091522217,157.54632091522217,157.54632091522217,158.7289638519287,3,1.3232429027557373,None,,,,,,,,,,,,,,,,,,200,2,2025-03-06_13h03.02.727,comp,2024.2.4,59.57395071372772,2025-03-06 13h03.26.758695 -0500,
13,13,0,filler_random,None,None,None,None,None,None,None,None,None,None,3,3.4175314903259277,None,,,,,0,0,0,0,0,13,13,130,158.74538731575012,,,,,,,,,,,,,,,,,,,,,,,,,,,,,,,,,,,,,,,,,,,,,,,,,,,,,,,,,,,,,,,,,,,,,,,,,,,,,,,,,180.4368461657537,156.59104723831442,167.44547925034368,138.5833477779018,169.6464038782234,172.7079041610754,2.2,2.21,-244,-251,0,285,252,288,158.7310950756073,158.73122549057007,158.73460984230042,158.74538731575012,158.8986039161682,158.8986039161682,158.8986039161682,158.8986039161682,158.8986039161682,158.8986039161682,158.8986039161682,162.1792597770691,3,3.4175314903259277,None,,,,,,,,,,,,,,,,,,200,2,2025-03-06_13h03.02.727,comp,2024.2.4,59.57395071372772,2025-03-06 13h03.26.758695 -0500,
14,14,0,filler_random,None,None,None,None,None,None,None,None,None,None,3,1.8419830799102783,None,,,,,0,0,0,0,0,14,14,158,162.19325041770935,,,,,,,,,,,,,,,,,,,,,,,,,,,,,,,,,,,,,,,,,,,,,,,,,,,,,,,,,,,,,,,,,,,,,,,,,,,,,,,,,111.05417125969461,90.03671465148525,146.24795240183198,81.00840238666092,131.215164924377,198.3370032514194,3.0,3.2,-182,-264,0,1,236,255,162.1810164451599,162.18109011650085,162.18430757522583,162.19325041770935,162.3447048664093,162.3447048664093,162.3447048664093,162.3447048664093,162.3447048664093,162.3447048664093,162.3447048664093,164.04643058776855,3,1.8419830799102783,None,,,,,,,,,,,,,,,,,,200,2,2025-03-06_13h03.02.727,comp,2024.2.4,59.57395071372772,2025-03-06 13h03.26.758695 -0500,
15,15,0,critical,dwh,35.0,1.0,upper,127.0,127.0,125.0,200.0,200.0,125.0,2,2.093088388442993,None,,,,,0,0,0,0,0,15,15,61,164.0626187324524,,,,,,,,,,,,,,,,,,,,,,,,,,,,,,,,,,,,,,,,,,,,,,,,,,,,,,,,,,,,,,,,,,,,,,,,,,,,,,,,,127.0,127.0,125.0,200.0,200.0,125.0,1.0,1.3,220,-267,480,-266,738,-256,164.04796314239502,164.0480396747589,164.05145406723022,164.0626187324524,164.2185516357422,164.2185516357422,164.2185516357422,164.2185516357422,164.2185516357422,164.2185516357422,164.2185516357422,166.16416144371033,2,2.093088388442993,None,,,,,,,,,,,,,,,,,,200,2,2025-03-06_13h03.02.727,comp,2024.2.4,59.57395071372772,2025-03-06 13h03.26.758695 -0500,
16,16,0,filler_random,None,None,None,None,None,None,None,None,None,None,2,1.3337786197662354,None,,,,,0,0,0,0,0,16,16,161,166.18118715286255,,,,,,,,,,,,,,,,,,,,,,,,,,,,,,,,,,,,,,,,,,,,,,,,,,,,,,,,,,,,,,,,,,,,,,,,,,,,,,,,,150.70022198749444,95.50337035551715,168.49484439987646,185.76292513684302,199.67170364176533,62.36744172598873,2.1,2.12,-237,-258,0,-265,220,286,166.16587662696838,166.16595363616943,166.17006301879883,166.18118715286255,166.32960534095764,166.32960534095764,166.32960534095764,166.32960534095764,166.32960534095764,166.32960534095764,166.32960534095764,167.52991461753845,2,1.3337786197662354,None,,,,,,,,,,,,,,,,,,200,2,2025-03-06_13h03.02.727,comp,2024.2.4,59.57395071372772,2025-03-06 13h03.26.758695 -0500,
17,17,0,filler_random,None,None,None,None,None,None,None,None,None,None,2,1.0667400360107422,None,,,,,0,0,0,0,0,17,17,144,167.54591536521912,,,,,,,,,,,,,,,,,,,,,,,,,,,,,,,,,,,,,,,,,,,,,,,,,,,,,,,,,,,,,,,,,,,,,,,,,,,,,,,,,113.13205117045484,189.87716207596827,174.06102462825027,194.139544453193,137.10289975997307,98.8189056252793,2.2,2.22,-288,277,0,-266,242,-274,167.53165864944458,167.5317325592041,167.534686088562,167.54591536521912,167.6837694644928,167.6837694644928,167.6837694644928,167.6837694644928,167.6837694644928,167.6837694644928,167.6837694644928,168.63477325439453,2,1.0667400360107422,None,,,,,,,,,,,,,,,,,,200,2,2025-03-06_13h03.02.727,comp,2024.2.4,59.57395071372772,2025-03-06 13h03.26.758695 -0500,
18,18,0,filler_random,None,None,None,None,None,None,None,None,None,None,2,0.9209473133087158,None,,,,,0,0,0,0,0,18,18,147,168.6501362323761,,,,,,,,,,,,,,,,,,,,,,,,,,,,,,,,,,,,,,,,,,,,,,,,,,,,,,,,,,,,,,,,,,,,,,,,,,,,,,,,,69.90675019587498,145.34052863002185,194.07810955935972,173.57649424900399,75.18776875580566,95.26192775426412,1.0,1.2,-255,-10,0,11,230,17,168.6366481781006,168.63672518730164,168.63968920707703,168.6501362323761,168.79845309257507,168.79845309257507,168.79845309257507,168.79845309257507,168.79845309257507,168.79845309257507,168.79845309257507,169.5800678730011,2,0.9209473133087158,None,,,,,,,,,,,,,,,,,,200,2,2025-03-06_13h03.02.727,comp,2024.2.4,59.57395071372772,2025-03-06 13h03.26.758695 -0500,
19,19,0,critical,hwd,20.0,1.0,lower,133.0,57.0,57.0,133.0,78.0,78.0,2,4.374070405960083,None,,,,,0,0,0,0,0,19,19,102,169.5968894958496,,,,,,,,,,,,,,,,,,,,,,,,,,,,,,,,,,,,,,,,,,,,,,,,,,,,,,,,,,,,,,,,,,,,,,,,,,,,,,,,,133.0,57.0,57.0,133.0,78.0,78.0,1.0,1.1,-671,257,-480,280,-278,280,169.58171343803406,169.581796169281,169.58515739440918,169.5968894958496,169.7508418560028,169.7508418560028,169.7508418560028,169.7508418560028,169.7508418560028,169.7508418560028,169.7508418560028,173.98559188842773,2,4.374070405960083,None,,,,,,,,,,,,,,,,,,200,2,2025-03-06_13h03.02.727,comp,2024.2.4,59.57395071372772,2025-03-06 13h03.26.758695 -0500,
20,20,0,filler_random,None,None,None,None,None,None,None,None,None,None,1,1.3050811290740967,None,,,,,0,0,0,0,0,20,20,151,174.0018129348755,,,,,,,,,,,,,,,,,,,,,,,,,,,,,,,,,,,,,,,,,,,,,,,,,,,,,,,,,,,,,,,,,,,,,,,,,,,,,,,,,175.8402274155411,160.24573267818403,167.76613562293326,88.55117895602957,99.52358845631323,95.13149502402345,2.2,2.22,-220,285,0,-289,188,-268,173.9875476360321,173.98762392997742,173.9915473461151,174.0018129348755,174.15877103805542,174.15877103805542,174.15877103805542,174.15877103805542,174.15877103805542,174.15877103805542,174.15877103805542,175.3232045173645,1,1.3050811290740967,None,,,,,,,,,,,,,,,,,,200,2,2025-03-06_13h03.02.727,comp,2024.2.4,59.57395071372772,2025-03-06 13h03.26.758695 -0500,
21,21,0,critical,hdw,20.0,3.0,upper,200.0,125.0,141.0,141.0,125.0,200.0,3,2.367739200592041,None,,,,,0,0,0,0,0,21,21,117,175.33944702148438,,,,,,,,,,,,,,,,,,,,,,,,,,,,,,,,,,,,,,,,,,,,,,,,,,,,,,,,,,,,,,,,,,,,,,,,,,,,,,,,,200.0,125.0,141.0,141.0,125.0,200.0,3.0,3.1,-229,260,0,-18,266,-261,175.32484912872314,175.3249237537384,175.32820773124695,175.33944702148438,175.483553647995,175.483553647995,175.483553647995,175.483553647995,175.483553647995,175.483553647995,175.483553647995,177.71673035621643,3,2.367739200592041,None,,,,,,,,,,,,,,,,,,200,2,2025-03-06_13h03.02.727,comp,2024.2.4,59.57395071372772,2025-03-06 13h03.26.758695 -0500,
22,22,0,critical,dwh,35.0,4.0,lower,70.0,70.0,57.0,133.0,133.0,57.0,2,4.710344552993774,None,,,,,0,0,0,0,0,22,22,64,177.73280334472656,,,,,,,,,,,,,,,,,,,,,,,,,,,,,,,,,,,,,,,,,,,,,,,,,,,,,,,,,,,,,,,,,,,,,,,,,,,,,,,,,70.0,70.0,57.0,133.0,133.0,57.0,4.0,4.2,-198,16,0,-271,191,19,177.71820783615112,177.71830987930298,177.72117114067078,177.73280334472656,177.8871784210205,177.8871784210205,177.8871784210205,177.8871784210205,177.8871784210205,177.8871784210205,177.8871784210205,182.45938658714294,2,4.710344552993774,None,,,,,,,,,,,,,,,,,,200,2,2025-03-06_13h03.02.727,comp,2024.2.4,59.57395071372772,2025-03-06 13h03.26.758695 -0500,
23,23,0,critical,whd,35.0,1.0,upper,125.0,200.0,200.0,125.0,127.0,127.0,1,4.679967880249023,None,,,,,0,0,0,0,0,23,23,85,182.47509121894836,,,,,,,,,,,,,,,,,,,,,,,,,,,,,,,,,,,,,,,,,,,,,,,,,,,,,,,,,,,,,,,,,,,,,,,,,,,,,,,,,125.0,200.0,200.0,125.0,127.0,127.0,1.0,1.2,-258,3,0,-2,222,-13,182.4608654975891,182.46094059944153,182.46390652656555,182.47509121894836,182.61848998069763,182.61848998069763,182.61848998069763,182.61848998069763,182.61848998069763,182.61848998069763,182.61848998069763,187.17451190948486,1,4.679967880249023,None,,,,,,,,,,,,,,,,,,200,2,2025-03-06_13h03.02.727,comp,2024.2.4,59.57395071372772,2025-03-06 13h03.26.758695 -0500,
24,24,0,critical,dhw,35.0,2.1,lower,70.0,70.0,133.0,57.0,57.0,133.0,3,2.1440417766571045,None,,,,,0,0,0,0,0,24,24,24,187.19500279426575,,,,,,,,,,,,,,,,,,,,,,,,,,,,,,,,,,,,,,,,,,,,,,,,,,,,,,,,,,,,,,,,,,,,,,,,,,,,,,,,,70.0,70.0,133.0,57.0,57.0,133.0,2.1,2.11,-160,279,0,288,191,-254,187.1761393547058,187.17621564865112,187.17963409423828,187.19500279426575,187.3380913734436,187.3380913734436,187.3380913734436,187.3380913734436,187.3380913734436,187.3380913734436,187.3380913734436,189.34346508979797,3,2.1440417766571045,None,,,,,,,,,,,,,,,,,,200,2,2025-03-06_13h03.02.727,comp,2024.2.4,59.57395071372772,2025-03-06 13h03.26.758695 -0500,
25,25,0,filler_square,None,None,None,None,None,None,None,None,None,None,1,2.0811712741851807,None,,,,,0,0,0,0,0,25,25,187,189.3617513179779,,,,,,,,,,,,,,,,,,,,,,,,,,,,,,,,,,,,,,,,,,,,,,,,,,,,,,,,,,,,,,,,,,,,,,,,,,,,,,,,,88.27138921368822,88.27138921368822,77.87486262707468,85.87527446650915,57.95021686738888,85.47216581019103,4.0,4.1,-183,-282,0,6,182,-250,189.3453507423401,189.34548258781433,189.3487310409546,189.3617513179779,189.5049443244934,189.5049443244934,189.5049443244934,189.5049443244934,189.5049443244934,189.5049443244934,189.5049443244934,191.4533977508545,1,2.0811712741851807,None,,,,,,,,,,,,,,,,,,200,2,2025-03-06_13h03.02.727,comp,2024.2.4,59.57395071372772,2025-03-06 13h03.26.758695 -0500,
26,26,0,critical,hwd,35.0,3.0,upper,200.0,125.0,125.0,200.0,127.0,127.0,2,1.6613218784332275,None,,,,,0,0,0,0,0,26,26,99,191.4701931476593,,,,,,,,,,,,,,,,,,,,,,,,,,,,,,,,,,,,,,,,,,,,,,,,,,,,,,,,,,,,,,,,,,,,,,,,,,,,,,,,,200.0,125.0,125.0,200.0,127.0,127.0,3.0,3.2,-258,-286,0,0,260,275,191.45497155189514,191.45504689216614,191.45839548110962,191.4701931476593,191.62372040748596,191.62372040748596,191.62372040748596,191.62372040748596,191.62372040748596,191.62372040748596,191.62372040748596,193.1391031742096,2,1.6613218784332275,None,,,,,,,,,,,,,,,,,,200,2,2025-03-06_13h03.02.727,comp,2024.2.4,59.57395071372772,2025-03-06 13h03.26.758695 -0500,
27,27,0,filler_square,None,None,None,None,None,None,None,None,None,None,3,1.0727643966674805,None,,,,,0,0,0,0,0,27,27,190,193.15549778938293,,,,,,,,,,,,,,,,,,,,,,,,,,,,,,,,,,,,,,,,,,,,,,,,,,,,,,,,,,,,,,,,,,,,,,,,,,,,,,,,,88.05141697419917,167.61638872749387,150.34719517010012,155.85901553577463,185.72624192517006,185.72624192517006,2.1,2.11,-258,272,0,281,267,-266,193.1409900188446,193.14112067222595,193.14461469650269,193.15549778938293,193.3081820011139,193.3081820011139,193.3081820011139,193.3081820011139,193.3081820011139,193.3081820011139,193.3081820011139,194.24410223960876,3,1.0727643966674805,None,,,,,,,,,,,,,,,,,,200,2,2025-03-06_13h03.02.727,comp,2024.2.4,59.57395071372772,2025-03-06 13h03.26.758695 -0500,
28,28,0,critical,wdh,20.0,1.0,lower,57.0,133.0,78.0,78.0,133.0,57.0,1,3.7825310230255127,None,,,,,0,0,0,0,0,28,28,78,194.26053476333618,,,,,,,,,,,,,,,,,,,,,,,,,,,,,,,,,,,,,,,,,,,,,,,,,,,,,,,,,,,,,,,,,,,,,,,,,,,,,,,,,57.0,133.0,78.0,78.0,133.0,57.0,1.0,1.1,-682,280,-480,265,-316,254,194.2456920146942,194.24576878547668,194.2493348121643,194.26053476333618,194.4059648513794,194.4059648513794,194.4059648513794,194.4059648513794,194.4059648513794,194.4059648513794,194.4059648513794,198.04570126533508,1,3.7825310230255127,None,,,,,,,,,,,,,,,,,,200,2,2025-03-06_13h03.02.727,comp,2024.2.4,59.57395071372772,2025-03-06 13h03.26.758695 -0500,
29,29,0,critical,hwd,35.0,3.0,lower,133.0,57.0,57.0,133.0,70.0,70.0,2,4.393600225448608,None,,,,,0,0,0,0,0,29,29,98,198.06586289405823,,,,,,,,,,,,,,,,,,,,,,,,,,,,,,,,,,,,,,,,,,,,,,,,,,,,,,,,,,,,,,,,,,,,,,,,,,,,,,,,,133.0,57.0,57.0,133.0,70.0,70.0,3.0,3.2,-191,-261,0,-9,198,269,198.04720330238342,198.0473141670227,198.05022549629211,198.06586289405823,198.20755577087402,198.20755577087402,198.20755577087402,198.20755577087402,198.20755577087402,198.20755577087402,198.20755577087402,202.4618034362793,2,4.393600225448608,None,,,,,,,,,,,,,,,,,,200,2,2025-03-06_13h03.02.727,comp,2024.2.4,59.57395071372772,2025-03-06 13h03.26.758695 -0500,
30,30,0,filler_random,None,None,None,None,None,None,None,None,None,None,1,1.5155682563781738,None,,,,,0,0,0,0,0,30,30,155,202.4793519973755,,,,,,,,,,,,,,,,,,,,,,,,,,,,,,,,,,,,,,,,,,,,,,,,,,,,,,,,,,,,,,,,,,,,,,,,,,,,,,,,,121.50652473509214,101.50030724052479,83.67312606086438,91.8398971122729,124.71525974695,74.20705362195854,1.0,1.3,287,-261,480,-272,659,-290,202.46381759643555,202.4638967514038,202.46763038635254,202.4793519973755,202.62607264518738,202.62607264518738,202.62607264518738,202.62607264518738,202.62607264518738,202.62607264518738,202.62607264518738,204.00736331939697,1,1.5155682563781738,None,,,,,,,,,,,,,,,,,,200,2,2025-03-06_13h03.02.727,comp,2024.2.4,59.57395071372772,2025-03-06 13h03.26.758695 -0500,
31,31,0,filler_random,None,None,None,None,None,None,None,None,None,None,2,1.1238527297973633,None,,,,,0,0,0,0,0,31,31,131,204.0231671333313,,,,,,,,,,,,,,,,,,,,,,,,,,,,,,,,,,,,,,,,,,,,,,,,,,,,,,,,,,,,,,,,,,,,,,,,,,,,,,,,,186.8025331403155,117.7731150639861,146.39599476433528,152.44775731189006,60.67510239098564,58.19399388816963,4.0,4.2,-231,16,0,-251,201,-1,204.0090503692627,204.00912427902222,204.01204109191895,204.0231671333313,204.16021299362183,204.16021299362183,204.16021299362183,204.16021299362183,204.16021299362183,204.16021299362183,204.16021299362183,205.1604781150818,2,1.1238527297973633,None,,,,,,,,,,,,,,,,,,200,2,2025-03-06_13h03.02.727,comp,2024.2.4,59.57395071372772,2025-03-06 13h03.26.758695 -0500,
32,32,0,critical,hwd,20.0,1.0,upper,200.0,125.0,125.0,200.0,141.0,141.0,2,2.130936622619629,None,,,,,0,0,0,0,0,32,32,103,205.1764693260193,,,,,,,,,,,,,,,,,,,,,,,,,,,,,,,,,,,,,,,,,,,,,,,,,,,,,,,,,,,,,,,,,,,,,,,,,,,,,,,,,200.0,125.0,125.0,200.0,141.0,141.0,1.0,1.3,222,-260,480,-289,746,-267,205.16202759742737,205.162104845047,205.16540026664734,205.1764693260193,205.33093547821045,205.33093547821045,205.33093547821045,205.33093547821045,205.33093547821045,205.33093547821045,205.33093547821045,207.30949354171753,2,2.130936622619629,None,,,,,,,,,,,,,,,,,,200,2,2025-03-06_13h03.02.727,comp,2024.2.4,59.57395071372772,2025-03-06 13h03.26.758695 -0500,
33,33,0,critical,wdh,35.0,2.1,lower,57.0,133.0,70.0,70.0,133.0,57.0,1,1.8371901512145996,None,,,,,0,0,0,0,0,33,33,8,207.32597875595093,,,,,,,,,,,,,,,,,,,,,,,,,,,,,,,,,,,,,,,,,,,,,,,,,,,,,,,,,,,,,,,,,,,,,,,,,,,,,,,,,57.0,133.0,70.0,70.0,133.0,57.0,2.1,2.11,-198,263,0,258,160,-266,207.31103801727295,207.3111174106598,207.31455254554749,207.32597875595093,207.48196268081665,207.48196268081665,207.48196268081665,207.48196268081665,207.48196268081665,207.48196268081665,207.48196268081665,209.17590808868408,1,1.8371901512145996,None,,,,,,,,,,,,,,,,,,200,2,2025-03-06_13h03.02.727,comp,2024.2.4,59.57395071372772,2025-03-06 13h03.26.758695 -0500,
34,34,0,critical,dwh,35.0,1.0,lower,70.0,70.0,57.0,133.0,133.0,57.0,2,9.549270629882812,None,,,,,0,0,0,0,0,34,34,60,209.19190979003906,,,,,,,,,,,,,,,,,,,,,,,,,,,,,,,,,,,,,,,,,,,,,,,,,,,,,,,,,,,,,,,,,,,,,,,,,,,,,,,,,70.0,70.0,57.0,133.0,133.0,57.0,1.0,1.3,282,-252,480,-259,671,-264,209.17747235298157,209.1775462627411,209.1806299686432,209.19190979003906,209.34316635131836,209.34316635131836,209.34316635131836,209.34316635131836,209.34316635131836,209.34316635131836,209.34316635131836,218.74605464935303,2,9.549270629882812,None,,,,,,,,,,,,,,,,,,200,2,2025-03-06_13h03.02.727,comp,2024.2.4,59.57395071372772,2025-03-06 13h03.26.758695 -0500,
35,35,0,critical,hwd,20.0,2.1,lower,133.0,57.0,57.0,133.0,78.0,78.0,3,1.7735595703125,None,,,,,0,0,0,0,0,35,35,18,218.76637363433838,,,,,,,,,,,,,,,,,,,,,,,,,,,,,,,,,,,,,,,,,,,,,,,,,,,,,,,,,,,,,,,,,,,,,,,,,,,,,,,,,133.0,57.0,57.0,133.0,78.0,78.0,2.1,2.11,-191,253,0,257,202,-254,218.7477250099182,218.74780178070068,218.75110697746277,218.76637363433838,218.91501021385193,218.91501021385193,218.91501021385193,218.91501021385193,218.91501021385193,218.91501021385193,218.91501021385193,220.5466446876526,3,1.7735595703125,None,,,,,,,,,,,,,,,,,,200,2,2025-03-06_13h03.02.727,comp,2024.2.4,59.57395071372772,2025-03-06 13h03.26.758695 -0500,
36,36,0,critical,hdw,20.0,2.1,upper,200.0,125.0,141.0,141.0,125.0,200.0,2,8.805031299591064,None,,,,,0,0,0,0,0,36,36,23,220.5665819644928,,,,,,,,,,,,,,,,,,,,,,,,,,,,,,,,,,,,,,,,,,,,,,,,,,,,,,,,,,,,,,,,,,,,,,,,,,,,,,,,,200.0,125.0,141.0,141.0,125.0,200.0,2.1,2.12,-229,-252,0,-280,266,268,220.54819560050964,220.54831719398499,220.55142283439636,220.5665819644928,220.71404576301575,220.71404576301575,220.71404576301575,220.71404576301575,220.71404576301575,220.71404576301575,220.71404576301575,229.378764629364,2,8.805031299591064,None,,,,,,,,,,,,,,,,,,200,2,2025-03-06_13h03.02.727,comp,2024.2.4,59.57395071372772,2025-03-06 13h03.26.758695 -0500,
37,37,0,filler_square,None,None,None,None,None,None,None,None,None,None,3,2.5750296115875244,None,,,,,0,0,0,0,0,37,37,209,229.39598846435547,,,,,,,,,,,,,,,,,,,,,,,,,,,,,,,,,,,,,,,,,,,,,,,,,,,,,,,,,,,,,,,,,,,,,,,,,,,,,,,,,87.30412352770489,61.305349601290175,67.02693906796023,88.68585078281463,97.48645501576223,97.48645501576223,3.0,3.2,-171,-261,0,-10,189,275,229.38076901435852,229.3808469772339,229.38419651985168,229.39598846435547,229.54676985740662,229.54676985740662,229.54676985740662,229.54676985740662,229.54676985740662,229.54676985740662,229.54676985740662,231.98973989486694,3,2.5750296115875244,None,,,,,,,,,,,,,,,,,,200,2,2025-03-06_13h03.02.727,comp,2024.2.4,59.57395071372772,2025-03-06 13h03.26.758695 -0500,
38,38,0,catch,None,None,None,None,None,None,None,None,None,None,2,1.1318345069885254,None,,,,,0,0,0,0,0,38,38,124,232.00789856910706,,,,,,,,,,,,,,,,,,,,,,,,,,,,,,,,,,,,,,,,,,,,,,,,,,,,,,,,,,,,,,,,,,,,,,,,,,,,,,,,,81,109,170,155,86,104,2.1,2.12,-228,-274,0,-258,226,286,231.99182510375977,231.99190020561218,231.9951798915863,232.00789856910706,232.15149545669556,232.15149545669556,232.15149545669556,232.15149545669556,232.15149545669556,232.15149545669556,232.15149545669556,233.1518771648407,2,1.1318345069885254,None,,,,,,,,,,,,,,,,,,200,2,2025-03-06_13h03.02.727,comp,2024.2.4,59.57395071372772,2025-03-06 13h03.26.758695 -0500,
39,39,0,catch,None,None,None,None,None,None,None,None,None,None,1,1.211555004119873,None,,,,,0,0,0,0,0,39,39,121,233.1676332950592,,,,,,,,,,,,,,,,,,,,,,,,,,,,,,,,,,,,,,,,,,,,,,,,,,,,,,,,,,,,,,,,,,,,,,,,,,,,,,,,,171,154,114,76,103,87,4.0,4.1,-211,-257,0,-6,178,-267,233.15375447273254,233.15383100509644,233.15731573104858,233.1676332950592,233.31835770606995,233.31835770606995,233.31835770606995,233.31835770606995,233.31835770606995,233.31835770606995,233.31835770606995,234.39436078071594,1,1.211555004119873,None,,,,,,,,,,,,,,,,,,200,2,2025-03-06_13h03.02.727,comp,2024.2.4,59.57395071372772,2025-03-06 13h03.26.758695 -0500,
40,40,0,critical,hwd,20.0,3.0,upper,200.0,125.0,125.0,200.0,141.0,141.0,2,4.834295034408569,None,,,,,0,0,0,0,0,40,40,105,234.40910649299622,,,,,,,,,,,,,,,,,,,,,,,,,,,,,,,,,,,,,,,,,,,,,,,,,,,,,,,,,,,,,,,,,,,,,,,,,,,,,,,,,200.0,125.0,125.0,200.0,141.0,141.0,3.0,3.1,-258,252,0,19,266,-258,234.39583468437195,234.39590764045715,234.39881372451782,234.40910649299622,234.55784273147583,234.55784273147583,234.55784273147583,234.55784273147583,234.55784273147583,234.55784273147583,234.55784273147583,239.25199341773987,2,4.834295034408569,None,,,,,,,,,,,,,,,,,,200,2,2025-03-06_13h03.02.727,comp,2024.2.4,59.57395071372772,2025-03-06 13h03.26.758695 -0500,
41,41,0,filler_random,None,None,None,None,None,None,None,None,None,None,2,0.9261507987976074,None,,,,,0,0,0,0,0,41,41,136,239.26873111724854,,,,,,,,,,,,,,,,,,,,,,,,,,,,,,,,,,,,,,,,,,,,,,,,,,,,,,,,,,,,,,,,,,,,,,,,,,,,,,,,,57.12628709502401,174.6188318684957,178.757015059338,197.89402781489707,93.97384141083572,144.84849105110666,2.1,2.11,-282,257,0,271,267,-262,239.25373148918152,239.25381016731262,239.2570505142212,239.26873111724854,239.42392086982727,239.42392086982727,239.42392086982727,239.42392086982727,239.42392086982727,239.42392086982727,239.42392086982727,240.2067835330963,2,0.9261507987976074,None,,,,,,,,,,,,,,,,,,200,2,2025-03-06_13h03.02.727,comp,2024.2.4,59.57395071372772,2025-03-06 13h03.26.758695 -0500,
42,42,0,catch,None,None,None,None,None,None,None,None,None,None,2,0.7403216361999512,None,,,,,0,0,0,0,0,42,42,126,240.22317624092102,,,,,,,,,,,,,,,,,,,,,,,,,,,,,,,,,,,,,,,,,,,,,,,,,,,,,,,,,,,,,,,,,,,,,,,,,,,,,,,,,100,90,150,175,110,80,3.0,3.1,-228,285,0,-5,224,-285,240.20883178710938,240.20891308784485,240.212473154068,240.22317624092102,240.362389087677,240.362389087677,240.362389087677,240.362389087677,240.362389087677,240.362389087677,240.362389087677,240.97071313858032,2,0.7403216361999512,None,,,,,,,,,,,,,,,,,,200,2,2025-03-06_13h03.02.727,comp,2024.2.4,59.57395071372772,2025-03-06 13h03.26.758695 -0500,
43,43,0,filler_square,None,None,None,None,None,None,None,None,None,None,1,1.111494779586792,None,,,,,0,0,0,0,0,43,43,198,240.9879195690155,,,,,,,,,,,,,,,,,,,,,,,,,,,,,,,,,,,,,,,,,,,,,,,,,,,,,,,,,,,,,,,,,,,,,,,,,,,,,,,,,176.6738026404882,176.6738026404882,145.60756582400546,159.6153899237661,95.50819553298902,139.84021798952904,2.1,2.11,-264,251,0,284,246,-255,240.97270274162292,240.9727807044983,240.97625422477722,240.9879195690155,241.13694167137146,241.13694167137146,241.13694167137146,241.13694167137146,241.13694167137146,241.13694167137146,241.13694167137146,242.10139274597168,1,1.111494779586792,None,,,,,,,,,,,,,,,,,,200,2,2025-03-06_13h03.02.727,comp,2024.2.4,59.57395071372772,2025-03-06 13h03.26.758695 -0500,
44,44,0,filler_square,None,None,None,None,None,None,None,None,None,None,1,1.7881004810333252,None,,,,,0,0,0,0,0,44,44,182,242.1188452243805,,,,,,,,,,,,,,,,,,,,,,,,,,,,,,,,,,,,,,,,,,,,,,,,,,,,,,,,,,,,,,,,,,,,,,,,,,,,,,,,,130.98409133111298,130.98409133111298,120.65945515386875,107.15296002468206,76.87704800333633,79.03468369152858,3.0,3.2,-215,-268,0,1,189,284,242.10336899757385,242.1034963130951,242.10677242279053,242.1188452243805,242.2735664844513,242.2735664844513,242.2735664844513,242.2735664844513,242.2735664844513,242.2735664844513,242.2735664844513,243.92269802093506,1,1.7881004810333252,None,,,,,,,,,,,,,,,,,,200,2,2025-03-06_13h03.02.727,comp,2024.2.4,59.57395071372772,2025-03-06 13h03.26.758695 -0500,
45,45,0,critical,dwh,20.0,4.0,lower,78.0,78.0,57.0,133.0,133.0,57.0,1,6.009206771850586,None,,,,,0,0,0,0,0,45,45,70,243.9385323524475,,,,,,,,,,,,,,,,,,,,,,,,,,,,,,,,,,,,,,,,,,,,,,,,,,,,,,,,,,,,,,,,,,,,,,,,,,,,,,,,,78.0,78.0,57.0,133.0,133.0,57.0,4.0,4.2,-202,6,0,-283,191,12,243.92433309555054,243.9244122505188,243.92786502838135,243.9385323524475,244.09080719947815,244.09080719947815,244.09080719947815,244.09080719947815,244.09080719947815,244.09080719947815,244.09080719947815,249.95737385749817,1,6.009206771850586,None,,,,,,,,,,,,,,,,,,200,2,2025-03-06_13h03.02.727,comp,2024.2.4,59.57395071372772,2025-03-06 13h03.26.758695 -0500,
46,46,0,critical,dwh,35.0,2.1,upper,127.0,127.0,125.0,200.0,200.0,125.0,2,7.011494874954224,None,,,,,0,0,0,0,0,46,46,29,249.97578930854797,,,,,,,,,,,,,,,,,,,,,,,,,,,,,,,,,,,,,,,,,,,,,,,,,,,,,,,,,,,,,,,,,,,,,,,,,,,,,,,,,127.0,127.0,125.0,200.0,200.0,125.0,2.1,2.11,-260,280,0,262,258,-257,249.95882725715637,249.95890426635742,249.9618124961853,249.97578930854797,250.12406706809998,250.12406706809998,250.12406706809998,250.12406706809998,250.12406706809998,250.12406706809998,250.12406706809998,256.9928894042969,2,7.011494874954224,None,,,,,,,,,,,,,,,,,,200,2,2025-03-06_13h03.02.727,comp,2024.2.4,59.57395071372772,2025-03-06 13h03.26.758695 -0500,
47,47,0,filler_random,None,None,None,None,None,None,None,None,None,None,1,1.3338623046875,None,,,,,0,0,0,0,0,47,47,143,257.013032913208,,,,,,,,,,,,,,,,,,,,,,,,,,,,,,,,,,,,,,,,,,,,,,,,,,,,,,,,,,,,,,,,,,,,,,,,,,,,,,,,,193.3407614527503,195.3887134229896,81.92524414078649,64.68765416082285,183.31235450351875,148.23915510655047,4.0,4.2,-226,-1,0,-282,202,-11,256.99464321136475,256.9947199821472,256.9980161190033,257.013032913208,257.14703464508057,257.14703464508057,257.14703464508057,257.14703464508057,257.14703464508057,257.14703464508057,257.14703464508057,258.3578898906708,1,1.3338623046875,None,,,,,,,,,,,,,,,,,,200,2,2025-03-06_13h03.02.727,comp,2024.2.4,59.57395071372772,2025-03-06 13h03.26.758695 -0500,
48,48,0,critical,hdw,20.0,1.0,lower,133.0,57.0,78.0,78.0,57.0,133.0,2,9.124388456344604,None,,,,,0,0,0,0,0,48,48,114,258.37476897239685,,,,,,,,,,,,,,,,,,,,,,,,,,,,,,,,,,,,,,,,,,,,,,,,,,,,,,,,,,,,,,,,,,,,,,,,,,,,,,,,,133.0,57.0,78.0,78.0,57.0,133.0,1.0,1.1,-644,261,-480,283,-278,260,258.35950803756714,258.35962867736816,258.3629765510559,258.37476897239685,258.52299213409424,258.52299213409424,258.52299213409424,258.52299213409424,258.52299213409424,258.52299213409424,258.52299213409424,267.5115156173706,2,9.124388456344604,None,,,,,,,,,,,,,,,,,,200,2,2025-03-06_13h03.02.727,comp,2024.2.4,59.57395071372772,2025-03-06 13h03.26.758695 -0500,
49,49,0,critical,hdw,35.0,3.0,upper,200.0,125.0,127.0,127.0,125.0,200.0,3,3.732292652130127,None,,,,,0,0,0,0,0,49,49,111,267.5274257659912,,,,,,,,,,,,,,,,,,,,,,,,,,,,,,,,,,,,,,,,,,,,,,,,,,,,,,,,,,,,,,,,,,,,,,,,,,,,,,,,,200.0,125.0,127.0,127.0,125.0,200.0,3.0,3.1,-222,277,0,17,260,-278,267.5129773616791,267.513055562973,267.5162031650543,267.5274257659912,267.6820156574249,267.6820156574249,267.6820156574249,267.6820156574249,267.6820156574249,267.6820156574249,267.6820156574249,271.2647542953491,3,3.732292652130127,None,,,,,,,,,,,,,,,,,,200,2,2025-03-06_13h03.02.727,comp,2024.2.4,59.57395071372772,2025-03-06 13h03.26.758695 -0500,
50,50,0,critical,dwh,35.0,3.0,lower,70.0,70.0,57.0,133.0,133.0,57.0,2,2.93047833442688,None,,,,,0,0,0,0,0,50,50,62,271.280725479126,,,,,,,,,,,,,,,,,,,,,,,,,,,,,,,,,,,,,,,,,,,,,,,,,,,,,,,,,,,,,,,,,,,,,,,,,,,,,,,,,70.0,70.0,57.0,133.0,133.0,57.0,3.0,3.2,-198,-258,0,8,191,259,271.26638746261597,271.26647877693176,271.26995301246643,271.280725479126,271.4312105178833,271.4312105178833,271.4312105178833,271.4312105178833,271.4312105178833,271.4312105178833,271.4312105178833,274.21624660491943,2,2.93047833442688,None,,,,,,,,,,,,,,,,,,200,2,2025-03-06_13h03.02.727,comp,2024.2.4,59.57395071372772,2025-03-06 13h03.26.758695 -0500,
51,51,0,filler_random,None,None,None,None,None,None,None,None,None,None,2,4.4888129234313965,None,,,,,0,0,0,0,0,51,51,133,274.2341330051422,,,,,,,,,,,,,,,,,,,,,,,,,,,,,,,,,,,,,,,,,,,,,,,,,,,,,,,,,,,,,,,,,,,,,,,,,,,,,,,,,121.34834739404317,163.77072712261918,167.01118499300634,141.40594505825624,167.09803073229094,62.84046887129814,2.2,2.21,-249,-263,0,253,198,268,274.21803092956543,274.21810960769653,274.22114729881287,274.2341330051422,274.38060235977173,274.38060235977173,274.38060235977173,274.38060235977173,274.38060235977173,274.38060235977173,274.38060235977173,278.73593378067017,2,4.4888129234313965,None,,,,,,,,,,,,,,,,,,200,2,2025-03-06_13h03.02.727,comp,2024.2.4,59.57395071372772,2025-03-06 13h03.26.758695 -0500,
52,52,0,critical,dwh,20.0,3.0,lower,78.0,78.0,57.0,133.0,133.0,57.0,3,4.048478364944458,None,,,,,0,0,0,0,0,52,52,68,278.7550036907196,,,,,,,,,,,,,,,,,,,,,,,,,,,,,,,,,,,,,,,,,,,,,,,,,,,,,,,,,,,,,,,,,,,,,,,,,,,,,,,,,78.0,78.0,57.0,133.0,133.0,57.0,3.0,3.1,-202,265,0,-6,191,-266,278.73761510849,278.7376947402954,278.74071884155273,278.7550036907196,278.90538907051086,278.90538907051086,278.90538907051086,278.90538907051086,278.90538907051086,278.90538907051086,278.90538907051086,282.81291604042053,3,4.048478364944458,None,,,,,,,,,,,,,,,,,,200,2,2025-03-06_13h03.02.727,comp,2024.2.4,59.57395071372772,2025-03-06 13h03.26.758695 -0500,
53,53,0,critical,hdw,20.0,2.1,upper,200.0,125.0,141.0,141.0,125.0,200.0,3,2.0834572315216064,None,,,,,0,0,0,0,0,53,53,47,282.83147644996643,,,,,,,,,,,,,,,,,,,,,,,,,,,,,,,,,,,,,,,,,,,,,,,,,,,,,,,,,,,,,,,,,,,,,,,,,,,,,,,,,200.0,125.0,141.0,141.0,125.0,200.0,2.1,2.11,-229,254,0,265,266,-267,282.8144543170929,282.8145306110382,282.8175039291382,282.83147644996643,282.982381105423,282.982381105423,282.982381105423,282.982381105423,282.982381105423,282.982381105423,282.982381105423,284.91958141326904,3,2.0834572315216064,None,,,,,,,,,,,,,,,,,,200,2,2025-03-06_13h03.02.727,comp,2024.2.4,59.57395071372772,2025-03-06 13h03.26.758695 -0500,
54,54,0,filler_random,None,None,None,None,None,None,None,None,None,None,1,1.9100680351257324,None,,,,,0,0,0,0,0,54,54,163,284.9352583885193,,,,,,,,,,,,,,,,,,,,,,,,,,,,,,,,,,,,,,,,,,,,,,,,,,,,,,,,,,,,,,,,,,,,,,,,,,,,,,,,,161.31913900991285,156.09504798330158,127.77804133950968,118.68962336843956,137.91624644824174,89.53460027927085,2.2,2.21,-233,-260,0,263,200,290,284.921302318573,284.92139410972595,284.9245090484619,284.9352583885193,285.0733439922333,285.0733439922333,285.0733439922333,285.0733439922333,285.0733439922333,285.0733439922333,285.0733439922333,286.8503155708313,1,1.9100680351257324,None,,,,,,,,,,,,,,,,,,200,2,2025-03-06_13h03.02.727,comp,2024.2.4,59.57395071372772,2025-03-06 13h03.26.758695 -0500,
55,55,0,critical,wdh,20.0,1.0,upper,125.0,200.0,141.0,141.0,200.0,125.0,1,8.464505910873413,None,,,,,0,0,0,0,0,55,55,79,286.8668189048767,,,,,,,,,,,,,,,,,,,,,,,,,,,,,,,,,,,,,,,,,,,,,,,,,,,,,,,,,,,,,,,,,,,,,,,,,,,,,,,,,125.0,200.0,141.0,141.0,200.0,125.0,1.0,1.1,-746,265,-480,259,-251,267,286.8518297672272,286.8519072532654,286.85507440567017,286.8668189048767,287.0213391780853,287.0213391780853,287.0213391780853,287.0213391780853,287.0213391780853,287.0213391780853,287.0213391780853,295.3400981426239,1,8.464505910873413,None,,,,,,,,,,,,,,,,,,200,2,2025-03-06_13h03.02.727,comp,2024.2.4,59.57395071372772,2025-03-06 13h03.26.758695 -0500,
56,56,0,critical,dwh,20.0,2.1,upper,141.0,141.0,125.0,200.0,200.0,125.0,1,2.708307981491089,None,,,,,0,0,0,0,0,56,56,7,295.3590407371521,,,,,,,,,,,,,,,,,,,,,,,,,,,,,,,,,,,,,,,,,,,,,,,,,,,,,,,,,,,,,,,,,,,,,,,,,,,,,,,,,141.0,141.0,125.0,200.0,200.0,125.0,2.1,2.11,-266,280,0,270,258,-272,295.3416049480438,295.34168219566345,295.3447985649109,295.3590407371521,295.50608468055725,295.50608468055725,295.50608468055725,295.50608468055725,295.50608468055725,295.50608468055725,295.50608468055725,298.080185174942,1,2.708307981491089,None,,,,,,,,,,,,,,,,,,200,2,2025-03-06_13h03.02.727,comp,2024.2.4,59.57395071372772,2025-03-06 13h03.26.758695 -0500,
57,57,0,filler_square,None,None,None,None,None,None,None,None,None,None,2,1.2038121223449707,None,,,,,0,0,0,0,0,57,57,200,298.09569668769836,,,,,,,,,,,,,,,,,,,,,,,,,,,,,,,,,,,,,,,,,,,,,,,,,,,,,,,,,,,,,,,,,,,,,,,,,,,,,,,,,61.35823936982882,66.04616405896192,90.82785054943184,90.82785054943184,74.26781038541591,64.66101474337911,1.0,1.2,-174,-16,0,9,174,9,298.08193802833557,298.08201599121094,298.08493757247925,298.09569668769836,298.23944902420044,298.23944902420044,298.23944902420044,298.23944902420044,298.23944902420044,298.23944902420044,298.23944902420044,299.3037395477295,2,1.2038121223449707,None,,,,,,,,,,,,,,,,,,200,2,2025-03-06_13h03.02.727,comp,2024.2.4,59.57395071372772,2025-03-06 13h03.26.758695 -0500,
58,58,0,critical,hwd,35.0,4.0,lower,133.0,57.0,57.0,133.0,70.0,70.0,3,3.322476625442505,None,,,,,0,0,0,0,0,58,58,100,299.32051515579224,,,,,,,,,,,,,,,,,,,,,,,,,,,,,,,,,,,,,,,,,,,,,,,,,,,,,,,,,,,,,,,,,,,,,,,,,,,,,,,,,133.0,57.0,57.0,133.0,70.0,70.0,4.0,4.2,-191,16,0,-285,198,10,299.3052155971527,299.3053262233734,299.3086884021759,299.32051515579224,299.457683801651,299.457683801651,299.457683801651,299.457683801651,299.457683801651,299.457683801651,299.457683801651,302.65483045578003,3,3.322476625442505,None,,,,,,,,,,,,,,,,,,200,2,2025-03-06_13h03.02.727,comp,2024.2.4,59.57395071372772,2025-03-06 13h03.26.758695 -0500,
59,59,0,critical,dwh,35.0,2.1,lower,70.0,70.0,57.0,133.0,133.0,57.0,2,7.277166843414307,None,,,,,0,0,0,0,0,59,59,4,302.6697406768799,,,,,,,,,,,,,,,,,,,,,,,,,,,,,,,,,,,,,,,,,,,,,,,,,,,,,,,,,,,,,,,,,,,,,,,,,,,,,,,,,70.0,70.0,57.0,133.0,133.0,57.0,2.1,2.12,-198,-269,0,-279,191,270,302.65631580352783,302.6563935279846,302.6593403816223,302.6697406768799,302.8247048854828,302.8247048854828,302.8247048854828,302.8247048854828,302.8247048854828,302.8247048854828,302.8247048854828,309.9577808380127,2,7.277166843414307,None,,,,,,,,,,,,,,,,,,200,2,2025-03-06_13h03.02.727,comp,2024.2.4,59.57395071372772,2025-03-06 13h03.26.758695 -0500,
60,60,0,critical,hdw,20.0,4.0,upper,200.0,125.0,141.0,141.0,125.0,200.0,2,3.2169058322906494,None,,,,,0,0,0,0,0,60,60,119,309.97823190689087,,,,,,,,,,,,,,,,,,,,,,,,,,,,,,,,,,,,,,,,,,,,,,,,,,,,,,,,,,,,,,,,,,,,,,,,,,,,,,,,,200.0,125.0,141.0,141.0,125.0,200.0,4.0,4.2,-229,-14,0,-261,266,11,309.9593777656555,309.95945382118225,309.9627938270569,309.97823190689087,310.12559604644775,310.12559604644775,310.12559604644775,310.12559604644775,310.12559604644775,310.12559604644775,310.12559604644775,313.198100566864,2,3.2169058322906494,None,,,,,,,,,,,,,,,,,,200,2,2025-03-06_13h03.02.727,comp,2024.2.4,59.57395071372772,2025-03-06 13h03.26.758695 -0500,
61,61,0,critical,wdh,35.0,2.1,upper,125.0,200.0,127.0,127.0,200.0,125.0,1,2.913601875305176,None,,,,,0,0,0,0,0,61,61,33,313.21725034713745,,,,,,,,,,,,,,,,,,,,,,,,,,,,,,,,,,,,,,,,,,,,,,,,,,,,,,,,,,,,,,,,,,,,,,,,,,,,,,,,,125.0,200.0,127.0,127.0,200.0,125.0,2.1,2.11,-260,271,0,270,222,-278,313.1996695995331,313.19976329803467,313.2027130126953,313.21725034713745,313.3607792854309,313.3607792854309,313.3607792854309,313.3607792854309,313.3607792854309,313.3607792854309,313.3607792854309,316.14241790771484,1,2.913601875305176,None,,,,,,,,,,,,,,,,,,200,2,2025-03-06_13h03.02.727,comp,2024.2.4,59.57395071372772,2025-03-06 13h03.26.758695 -0500,
62,62,0,filler_square,None,None,None,None,None,None,None,None,None,None,3,2.429692506790161,None,,,,,0,0,0,0,0,62,62,185,316.15738558769226,,,,,,,,,,,,,,,,,,,,,,,,,,,,,,,,,,,,,,,,,,,,,,,,,,,,,,,,,,,,,,,,,,,,,,,,,,,,,,,,,88.52591266011474,77.20375468858137,80.32415430364956,72.84422572791641,89.99742706769155,89.99742706769155,2.1,2.11,-171,288,0,262,177,-269,316.1441807746887,316.14425778388977,316.1474561691284,316.15738558769226,316.3097062110901,316.3097062110901,316.3097062110901,316.3097062110901,316.3097062110901,316.3097062110901,316.3097062110901,318.60400319099426,3,2.429692506790161,None,,,,,,,,,,,,,,,,,,200,2,2025-03-06_13h03.02.727,comp,2024.2.4,59.57395071372772,2025-03-06 13h03.26.758695 -0500,
63,63,0,critical,wdh,35.0,2.1,lower,57.0,133.0,70.0,70.0,133.0,57.0,1,2.4132792949676514,None,,,,,0,0,0,0,0,63,63,32,318.6216998100281,,,,,,,,,,,,,,,,,,,,,,,,,,,,,,,,,,,,,,,,,,,,,,,,,,,,,,,,,,,,,,,,,,,,,,,,,,,,,,,,,57.0,133.0,70.0,70.0,133.0,57.0,2.1,2.12,-198,-263,0,-262,160,258,318.6055841445923,318.60565876960754,318.6090090274811,318.6216998100281,318.7603735923767,318.7603735923767,318.7603735923767,318.7603735923767,318.7603735923767,318.7603735923767,318.7603735923767,321.04751205444336,1,2.4132792949676514,None,,,,,,,,,,,,,,,,,,200,2,2025-03-06_13h03.02.727,comp,2024.2.4,59.57395071372772,2025-03-06 13h03.26.758695 -0500,
64,64,0,critical,dwh,20.0,1.0,upper,141.0,141.0,125.0,200.0,200.0,125.0,2,4.796344041824341,None,,,,,0,0,0,0,0,64,64,67,321.0632598400116,,,,,,,,,,,,,,,,,,,,,,,,,,,,,,,,,,,,,,,,,,,,,,,,,,,,,,,,,,,,,,,,,,,,,,,,,,,,,,,,,141.0,141.0,125.0,200.0,200.0,125.0,1.0,1.3,214,-284,480,-271,738,-253,321.0494909286499,321.04961800575256,321.05301570892334,321.0632598400116,321.2129445075989,321.2129445075989,321.2129445075989,321.2129445075989,321.2129445075989,321.2129445075989,321.2129445075989,325.8654046058655,2,4.796344041824341,None,,,,,,,,,,,,,,,,,,200,2,2025-03-06_13h03.02.727,comp,2024.2.4,59.57395071372772,2025-03-06 13h03.26.758695 -0500,
65,65,0,filler_square,None,None,None,None,None,None,None,None,None,None,1,1.3553237915039062,None,,,,,0,0,0,0,0,65,65,207,325.88137459754944,,,,,,,,,,,,,,,,,,,,,,,,,,,,,,,,,,,,,,,,,,,,,,,,,,,,,,,,,,,,,,,,,,,,,,,,,,,,,,,,,172.7976210186157,172.7976210186157,97.76108861176434,170.8477309197587,91.3424419556998,131.06862878796164,2.1,2.12,-268,-286,0,-263,247,287,325.8673701286316,325.86745023727417,325.8706843852997,325.88137459754944,326.0288643836975,326.0288643836975,326.0288643836975,326.0288643836975,326.0288643836975,326.0288643836975,326.0288643836975,327.2482101917267,1,1.3553237915039062,None,,,,,,,,,,,,,,,,,,200,2,2025-03-06_13h03.02.727,comp,2024.2.4,59.57395071372772,2025-03-06 13h03.26.758695 -0500,
66,66,0,filler_random,None,None,None,None,None,None,None,None,None,None,3,3.0587668418884277,None,,,,,0,0,0,0,0,66,66,141,327.2647969722748,,,,,,,,,,,,,,,,,,,,,,,,,,,,,,,,,,,,,,,,,,,,,,,,,,,,,,,,,,,,,,,,,,,,,,,,,,,,,,,,,97.10124846581951,180.2138234461516,175.82959387753806,88.50291283280129,187.79282749883689,133.5826057226809,1.0,1.3,250,-263,480,-256,687,-282,327.2499370574951,327.2500162124634,327.2540419101715,327.2647969722748,327.4226620197296,327.4226620197296,327.4226620197296,327.4226620197296,327.4226620197296,327.4226620197296,327.4226620197296,330.33206939697266,3,3.0587668418884277,None,,,,,,,,,,,,,,,,,,200,2,2025-03-06_13h03.02.727,comp,2024.2.4,59.57395071372772,2025-03-06 13h03.26.758695 -0500,
67,67,0,filler_random,None,None,None,None,None,None,None,None,None,None,1,1.3908238410949707,None,,,,,0,0,0,0,0,67,67,139,330.34812092781067,,,,,,,,,,,,,,,,,,,,,,,,,,,,,,,,,,,,,,,,,,,,,,,,,,,,,,,,,,,,,,,,,,,,,,,,,,,,,,,,,185.80649241402207,128.19284432719058,122.95994174403118,90.52684795137033,171.01095499387563,76.44183549436119,2.1,2.11,-205,273,0,279,179,-281,330.333779335022,330.3338577747345,330.3374559879303,330.34812092781067,330.4979958534241,330.4979958534241,330.4979958534241,330.4979958534241,330.4979958534241,330.4979958534241,330.4979958534241,331.7515912055969,1,1.3908238410949707,None,,,,,,,,,,,,,,,,,,200,2,2025-03-06_13h03.02.727,comp,2024.2.4,59.57395071372772,2025-03-06 13h03.26.758695 -0500,
68,68,0,filler_square,None,None,None,None,None,None,None,None,None,None,2,1.3422553539276123,None,,,,,0,0,0,0,0,68,68,177,331.77283477783203,,,,,,,,,,,,,,,,,,,,,,,,,,,,,,,,,,,,,,,,,,,,,,,,,,,,,,,,,,,,,,,,,,,,,,,,,,,,,,,,,81.92753953240364,96.45448728664738,111.73324505340247,111.73324505340247,68.82317013724143,92.60279613814032,1.0,1.1,-680,271,-480,253,-282,254,331.75375032424927,331.753874540329,331.7572588920593,331.77283477783203,331.9157989025116,331.9157989025116,331.9157989025116,331.9157989025116,331.9157989025116,331.9157989025116,331.9157989025116,333.133593082428,2,1.3422553539276123,None,,,,,,,,,,,,,,,,,,200,2,2025-03-06_13h03.02.727,comp,2024.2.4,59.57395071372772,2025-03-06 13h03.26.758695 -0500,
69,69,0,filler_random,None,None,None,None,None,None,None,None,None,None,2,1.8777401447296143,None,,,,,0,0,0,0,0,69,69,140,333.1496651172638,,,,,,,,,,,,,,,,,,,,,,,,,,,,,,,,,,,,,,,,,,,,,,,,,,,,,,,,,,,,,,,,,,,,,,,,,,,,,,,,,137.30896249016268,116.56274794239971,140.36157145936045,180.34654282395917,75.0145632127401,98.08656090287197,4.0,4.1,-244,-278,0,19,235,-255,333.1354126930237,333.13548946380615,333.13944816589355,333.1496651172638,333.29929184913635,333.29929184913635,333.29929184913635,333.29929184913635,333.29929184913635,333.29929184913635,333.29929184913635,335.0321605205536,2,1.8777401447296143,None,,,,,,,,,,,,,,,,,,200,2,2025-03-06_13h03.02.727,comp,2024.2.4,59.57395071372772,2025-03-06 13h03.26.758695 -0500,
70,70,0,filler_random,None,None,None,None,None,None,None,None,None,None,1,1.2498393058776855,None,,,,,0,0,0,0,0,70,70,156,335.0490372180939,,,,,,,,,,,,,,,,,,,,,,,,,,,,,,,,,,,,,,,,,,,,,,,,,,,,,,,,,,,,,,,,,,,,,,,,,,,,,,,,,172.83168072799253,196.0459368917707,194.24845946797217,104.65895001457079,162.2324667744994,116.40307306099567,1.0,1.3,234,-280,480,-253,687,-267,335.0338888168335,335.03401732444763,335.0373888015747,335.0490372180939,335.20076179504395,335.20076179504395,335.20076179504395,335.20076179504395,335.20076179504395,335.20076179504395,335.20076179504395,336.31653594970703,1,1.2498393058776855,None,,,,,,,,,,,,,,,,,,200,2,2025-03-06_13h03.02.727,comp,2024.2.4,59.57395071372772,2025-03-06 13h03.26.758695 -0500,
71,71,0,critical,wdh,20.0,2.1,lower,57.0,133.0,78.0,78.0,133.0,57.0,1,3.638662576675415,None,,,,,0,0,0,0,0,71,71,34,336.3326916694641,,,,,,,,,,,,,,,,,,,,,,,,,,,,,,,,,,,,,,,,,,,,,,,,,,,,,,,,,,,,,,,,,,,,,,,,,,,,,,,,,57.0,133.0,78.0,78.0,133.0,57.0,2.1,2.12,-202,-290,0,-277,164,281,336.31807708740234,336.3181531429291,336.3215277194977,336.3326916694641,336.4848732948303,336.4848732948303,336.4848732948303,336.4848732948303,336.4848732948303,336.4848732948303,336.4848732948303,339.979238986969,1,3.638662576675415,None,,,,,,,,,,,,,,,,,,200,2,2025-03-06_13h03.02.727,comp,2024.2.4,59.57395071372772,2025-03-06 13h03.26.758695 -0500,
72,72,0,critical,dwh,20.0,2.1,upper,141.0,141.0,125.0,200.0,200.0,125.0,2,1.4032618999481201,None,,,,,0,0,0,0,0,72,72,31,340.0000374317169,,,,,,,,,,,,,,,,,,,,,,,,,,,,,,,,,,,,,,,,,,,,,,,,,,,,,,,,,,,,,,,,,,,,,,,,,,,,,,,,,141.0,141.0,125.0,200.0,200.0,125.0,2.1,2.11,-266,268,0,287,258,-275,339.9808671474457,339.98095297813416,339.9842963218689,340.0000374317169,340.1359164714813,340.1359164714813,340.1359164714813,340.1359164714813,340.1359164714813,340.1359164714813,340.1359164714813,341.4136176109314,2,1.4032618999481201,None,,,,,,,,,,,,,,,,,,200,2,2025-03-06_13h03.02.727,comp,2024.2.4,59.57395071372772,2025-03-06 13h03.26.758695 -0500,
73,73,0,critical,hdw,35.0,1.0,upper,200.0,125.0,127.0,127.0,125.0,200.0,3,2.3238935470581055,None,,,,,0,0,0,0,0,73,73,109,341.4311363697052,,,,,,,,,,,,,,,,,,,,,,,,,,,,,,,,,,,,,,,,,,,,,,,,,,,,,,,,,,,,,,,,,,,,,,,,,,,,,,,,,200.0,125.0,127.0,127.0,125.0,200.0,1.0,1.3,258,-279,480,-283,740,-286,341.4151051044464,341.41518330574036,341.418084859848,341.4311363697052,341.56807708740234,341.56807708740234,341.56807708740234,341.56807708740234,341.56807708740234,341.56807708740234,341.56807708740234,343.7693302631378,3,2.3238935470581055,None,,,,,,,,,,,,,,,,,,200,2,2025-03-06_13h03.02.727,comp,2024.2.4,59.57395071372772,2025-03-06 13h03.26.758695 -0500,
74,74,0,filler_square,None,None,None,None,None,None,None,None,None,None,3,1.1459736824035645,None,,,,,0,0,0,0,0,74,74,174,343.78514647483826,,,,,,,,,,,,,,,,,,,,,,,,,,,,,,,,,,,,,,,,,,,,,,,,,,,,,,,,,,,,,,,,,,,,,,,,,,,,,,,,,79.72389412127531,63.40120143723679,68.39174696833132,69.93936684764851,110.83779478821909,110.83779478821909,4.0,4.1,-163,-283,0,-18,186,-264,343.7712519168854,343.77142000198364,343.7748363018036,343.78514647483826,343.93886947631836,343.93886947631836,343.93886947631836,343.93886947631836,343.93886947631836,343.93886947631836,343.93886947631836,344.93547773361206,3,1.1459736824035645,None,,,,,,,,,,,,,,,,,,200,2,2025-03-06_13h03.02.727,comp,2024.2.4,59.57395071372772,2025-03-06 13h03.26.758695 -0500,
75,75,0,critical,dhw,35.0,3.0,upper,127.0,127.0,200.0,125.0,125.0,200.0,3,1.962909460067749,None,,,,,0,0,0,0,0,75,75,51,344.9522442817688,,,,,,,,,,,,,,,,,,,,,,,,,,,,,,,,,,,,,,,,,,,,,,,,,,,,,,,,,,,,,,,,,,,,,,,,,,,,,,,,,127.0,127.0,200.0,125.0,125.0,200.0,3.0,3.2,-222,-256,0,-8,258,275,344.9370765686035,344.9371519088745,344.9406147003174,344.9522442817688,345.1022012233734,345.1022012233734,345.1022012233734,345.1022012233734,345.1022012233734,345.1022012233734,345.1022012233734,346.92445182800293,3,1.962909460067749,None,,,,,,,,,,,,,,,,,,200,2,2025-03-06_13h03.02.727,comp,2024.2.4,59.57395071372772,2025-03-06 13h03.26.758695 -0500,
76,76,0,critical,dhw,20.0,4.0,lower,78.0,78.0,133.0,57.0,57.0,133.0,1,3.506697177886963,None,,,,,0,0,0,0,0,76,76,58,346.94489550590515,,,,,,,,,,,,,,,,,,,,,,,,,,,,,,,,,,,,,,,,,,,,,,,,,,,,,,,,,,,,,,,,,,,,,,,,,,,,,,,,,78.0,78.0,133.0,57.0,57.0,133.0,4.0,4.1,-164,-265,0,-10,191,-261,346.9260859489441,346.92620396614075,346.9296200275421,346.94489550590515,347.0873463153839,347.0873463153839,347.0873463153839,347.0873463153839,347.0873463153839,347.0873463153839,347.0873463153839,350.4598081111908,1,3.506697177886963,None,,,,,,,,,,,,,,,,,,200,2,2025-03-06_13h03.02.727,comp,2024.2.4,59.57395071372772,2025-03-06 13h03.26.758695 -0500,
77,77,0,critical,wdh,35.0,3.0,lower,57.0,133.0,70.0,70.0,133.0,57.0,1,6.311053991317749,None,,,,,0,0,0,0,0,77,77,74,350.4758138656616,,,,,,,,,,,,,,,,,,,,,,,,,,,,,,,,,,,,,,,,,,,,,,,,,,,,,,,,,,,,,,,,,,,,,,,,,,,,,,,,,57.0,133.0,70.0,70.0,133.0,57.0,3.0,3.2,-198,-253,0,1,160,269,350.4612383842468,350.4613380432129,350.4642288684845,350.4758138656616,350.62197160720825,350.62197160720825,350.62197160720825,350.62197160720825,350.62197160720825,350.62197160720825,350.62197160720825,356.7912902832031,1,6.311053991317749,None,,,,,,,,,,,,,,,,,,200,2,2025-03-06_13h03.02.727,comp,2024.2.4,59.57395071372772,2025-03-06 13h03.26.758695 -0500,
78,78,0,critical,dwh,20.0,2.1,lower,78.0,78.0,57.0,133.0,133.0,57.0,2,6.947945833206177,None,,,,,0,0,0,0,0,78,78,30,356.8076195716858,,,,,,,,,,,,,,,,,,,,,,,,,,,,,,,,,,,,,,,,,,,,,,,,,,,,,,,,,,,,,,,,,,,,,,,,,,,,,,,,,78.0,78.0,57.0,133.0,133.0,57.0,2.1,2.12,-202,-269,0,-284,191,263,356.7927725315094,356.79284954071045,356.7968852519989,356.8076195716858,356.96616077423096,356.96616077423096,356.96616077423096,356.96616077423096,356.96616077423096,356.96616077423096,356.96616077423096,363.7620646953583,2,6.947945833206177,None,,,,,,,,,,,,,,,,,,200,2,2025-03-06_13h03.02.727,comp,2024.2.4,59.57395071372772,2025-03-06 13h03.26.758695 -0500,
79,79,0,filler_square,None,None,None,None,None,None,None,None,None,None,3,1.6863844394683838,None,,,,,0,0,0,0,0,79,79,195,363.78269481658936,,,,,,,,,,,,,,,,,,,,,,,,,,,,,,,,,,,,,,,,,,,,,,,,,,,,,,,,,,,,,,,,,,,,,,,,,,,,,,,,,164.99606506073806,153.0532812540606,168.53107247814887,193.65678283459636,198.34901103916513,198.34901103916513,2.2,2.21,-269,-285,0,255,292,281,363.76406025886536,363.7641394138336,363.76710319519043,363.78269481658936,363.9254672527313,363.9254672527313,363.9254672527313,363.9254672527313,363.9254672527313,363.9254672527313,363.9254672527313,365.4749586582184,3,1.6863844394683838,None,,,,,,,,,,,,,,,,,,200,2,2025-03-06_13h03.02.727,comp,2024.2.4,59.57395071372772,2025-03-06 13h03.26.758695 -0500,
80,80,0,filler_square,None,None,None,None,None,None,None,None,None,None,1,5.095268726348877,None,,,,,0,0,0,0,0,80,80,178,365.4918887615204,,,,,,,,,,,,,,,,,,,,,,,,,,,,,,,,,,,,,,,,,,,,,,,,,,,,,,,,,,,,,,,,,,,,,,,,,,,,,,,,,68.19301438604863,68.19301438604863,61.80703392820246,67.74186858041496,58.53473293841587,66.15775735834814,1.0,1.2,-164,-19,0,13,163,-5,365.47688150405884,365.47697496414185,365.4803395271301,365.4918887615204,365.64205169677734,365.64205169677734,365.64205169677734,365.64205169677734,365.64205169677734,365.64205169677734,365.64205169677734,370.59823298454285,1,5.095268726348877,None,,,,,,,,,,,,,,,,,,200,2,2025-03-06_13h03.02.727,comp,2024.2.4,59.57395071372772,2025-03-06 13h03.26.758695 -0500,
81,81,0,filler_square,None,None,None,None,None,None,None,None,None,None,1,5.571901559829712,None,,,,,0,0,0,0,0,81,81,203,370.61560893058777,,,,,,,,,,,,,,,,,,,,,,,,,,,,,,,,,,,,,,,,,,,,,,,,,,,,,,,,,,,,,,,,,,,,,,,,,,,,,,,,,78.24079262566264,78.24079262566264,73.55479841314033,68.57440554133333,71.97753938963481,71.04695679141062,4.0,4.1,-169,-279,0,-15,166,-264,370.6000888347626,370.60016679763794,370.6040506362915,370.61560893058777,370.763592004776,370.763592004776,370.763592004776,370.763592004776,370.763592004776,370.763592004776,370.763592004776,376.19670009613037,1,5.571901559829712,None,,,,,,,,,,,,,,,,,,200,2,2025-03-06_13h03.02.727,comp,2024.2.4,59.57395071372772,2025-03-06 13h03.26.758695 -0500,
82,82,0,critical,whd,35.0,4.0,upper,125.0,200.0,200.0,125.0,127.0,127.0,1,4.582232475280762,None,,,,,0,0,0,0,0,82,82,89,376.2128441333771,,,,,,,,,,,,,,,,,,,,,,,,,,,,,,,,,,,,,,,,,,,,,,,,,,,,,,,,,,,,,,,,,,,,,,,,,,,,,,,,,125.0,200.0,200.0,125.0,127.0,127.0,4.0,4.2,-258,14,0,-278,222,-16,376.1983685493469,376.19844579696655,376.20202827453613,376.2128441333771,376.36234974861145,376.36234974861145,376.36234974861145,376.36234974861145,376.36234974861145,376.36234974861145,376.36234974861145,380.8138356208801,1,4.582232475280762,None,,,,,,,,,,,,,,,,,,200,2,2025-03-06_13h03.02.727,comp,2024.2.4,59.57395071372772,2025-03-06 13h03.26.758695 -0500,
83,83,0,critical,hdw,35.0,1.0,lower,133.0,57.0,70.0,70.0,57.0,133.0,3,4.553631067276001,None,,,,,0,0,0,0,0,83,83,108,380.83342695236206,,,,,,,,,,,,,,,,,,,,,,,,,,,,,,,,,,,,,,,,,,,,,,,,,,,,,,,,,,,,,,,,,,,,,,,,,,,,,,,,,133.0,57.0,70.0,70.0,57.0,133.0,1.0,1.1,-640,278,-480,270,-282,275,380.81543731689453,380.81551122665405,380.8188169002533,380.83342695236206,380.981244802475,380.981244802475,380.981244802475,380.981244802475,380.981244802475,380.981244802475,380.981244802475,385.4034490585327,3,4.553631067276001,None,,,,,,,,,,,,,,,,,,200,2,2025-03-06_13h03.02.727,comp,2024.2.4,59.57395071372772,2025-03-06 13h03.26.758695 -0500,
84,84,0,filler_random,None,None,None,None,None,None,None,None,None,None,3,1.6755807399749756,None,,,,,0,0,0,0,0,84,84,142,385.42342257499695,,,,,,,,,,,,,,,,,,,,,,,,,,,,,,,,,,,,,,,,,,,,,,,,,,,,,,,,,,,,,,,,,,,,,,,,,,,,,,,,,82.33124375746576,97.56289348131676,177.36721435535293,125.20973390499104,125.05434450845215,199.3890888007483,3.0,3.2,-207,-271,0,-19,258,252,385.40520310401917,385.4053192138672,385.40824699401855,385.42342257499695,385.56681632995605,385.56681632995605,385.56681632995605,385.56681632995605,385.56681632995605,385.56681632995605,385.56681632995605,387.103702545166,3,1.6755807399749756,None,,,,,,,,,,,,,,,,,,200,2,2025-03-06_13h03.02.727,comp,2024.2.4,59.57395071372772,2025-03-06 13h03.26.758695 -0500,
85,85,0,critical,dhw,35.0,3.0,lower,70.0,70.0,133.0,57.0,57.0,133.0,3,4.991780996322632,None,,,,,0,0,0,0,0,85,85,50,387.12337160110474,,,,,,,,,,,,,,,,,,,,,,,,,,,,,,,,,,,,,,,,,,,,,,,,,,,,,,,,,,,,,,,,,,,,,,,,,,,,,,,,,70.0,70.0,133.0,57.0,57.0,133.0,3.0,3.2,-160,-283,0,8,191,280,387.1052587032318,387.10535979270935,387.10822653770447,387.12337160110474,387.26674365997314,387.26674365997314,387.26674365997314,387.26674365997314,387.26674365997314,387.26674365997314,387.26674365997314,392.1171464920044,3,4.991780996322632,None,,,,,,,,,,,,,,,,,,200,2,2025-03-06_13h03.02.727,comp,2024.2.4,59.57395071372772,2025-03-06 13h03.26.758695 -0500,
86,86,0,filler_square,None,None,None,None,None,None,None,None,None,None,2,1.9701297283172607,None,,,,,0,0,0,0,0,86,86,175,392.1374866962433,,,,,,,,,,,,,,,,,,,,,,,,,,,,,,,,,,,,,,,,,,,,,,,,,,,,,,,,,,,,,,,,,,,,,,,,,,,,,,,,,60.78370611804201,61.292459232856125,73.68434373945132,73.68434373945132,57.493920379689165,57.29628000135176,1.0,1.3,317,-287,480,-273,641,-286,392.11892080307007,392.11899733543396,392.12200474739075,392.1374866962433,392.2852072715759,392.2852072715759,392.2852072715759,392.2852072715759,392.2852072715759,392.2852072715759,392.2852072715759,394.1178958415985,2,1.9701297283172607,None,,,,,,,,,,,,,,,,,,200,2,2025-03-06_13h03.02.727,comp,2024.2.4,59.57395071372772,2025-03-06 13h03.26.758695 -0500,
87,87,0,filler_square,None,None,None,None,None,None,None,None,None,None,2,1.0006308555603027,None,,,,,0,0,0,0,0,87,87,173,394.1386158466339,,,,,,,,,,,,,,,,,,,,,,,,,,,,,,,,,,,,,,,,,,,,,,,,,,,,,,,,,,,,,,,,,,,,,,,,,,,,,,,,,71.25339441116589,71.45962926269473,114.49838541407479,114.49838541407479,102.50537504812287,86.13729457889781,4.0,4.2,-189,-1,0,-288,196,0,394.1196050643921,394.1196799278259,394.12283420562744,394.1386158466339,394.2870714664459,394.2870714664459,394.2870714664459,394.2870714664459,394.2870714664459,394.2870714664459,394.2870714664459,395.1540644168854,2,1.0006308555603027,None,,,,,,,,,,,,,,,,,,200,2,2025-03-06_13h03.02.727,comp,2024.2.4,59.57395071372772,2025-03-06 13h03.26.758695 -0500,
88,88,0,critical,hdw,35.0,2.1,upper,200.0,125.0,127.0,127.0,125.0,200.0,3,1.0654070377349854,None,,,,,0,0,0,0,0,88,88,21,395.1694211959839,,,,,,,,,,,,,,,,,,,,,,,,,,,,,,,,,,,,,,,,,,,,,,,,,,,,,,,,,,,,,,,,,,,,,,,,,,,,,,,,,200.0,125.0,127.0,127.0,125.0,200.0,2.1,2.11,-222,252,0,256,260,-258,395.15574622154236,395.15582394599915,395.159188747406,395.1694211959839,395.3183665275574,395.3183665275574,395.3183665275574,395.3183665275574,395.3183665275574,395.3183665275574,395.3183665275574,396.2532596588135,3,1.0654070377349854,None,,,,,,,,,,,,,,,,,,200,2,2025-03-06_13h03.02.727,comp,2024.2.4,59.57395071372772,2025-03-06 13h03.26.758695 -0500,
89,89,0,critical,dhw,20.0,1.0,lower,78.0,78.0,133.0,57.0,57.0,133.0,3,7.845620155334473,None,,,,,0,0,0,0,0,89,89,54,396.2695233821869,,,,,,,,,,,,,,,,,,,,,,,,,,,,,,,,,,,,,,,,,,,,,,,,,,,,,,,,,,,,,,,,,,,,,,,,,,,,,,,,,78.0,78.0,133.0,57.0,57.0,133.0,1.0,1.1,-644,281,-480,259,-289,277,396.25471782684326,396.25479674339294,396.25788927078247,396.2695233821869,396.4215075969696,396.4215075969696,396.4215075969696,396.4215075969696,396.4215075969696,396.4215075969696,396.4215075969696,404.1252489089966,3,7.845620155334473,None,,,,,,,,,,,,,,,,,,200,2,2025-03-06_13h03.02.727,comp,2024.2.4,59.57395071372772,2025-03-06 13h03.26.758695 -0500,
90,90,0,critical,hdw,35.0,2.1,lower,133.0,57.0,70.0,70.0,57.0,133.0,3,1.6499378681182861,None,,,,,0,0,0,0,0,90,90,20,404.1453278064728,,,,,,,,,,,,,,,,,,,,,,,,,,,,,,,,,,,,,,,,,,,,,,,,,,,,,,,,,,,,,,,,,,,,,,,,,,,,,,,,,133.0,57.0,70.0,70.0,57.0,133.0,2.1,2.11,-160,255,0,253,198,-289,404.1270213127136,404.1270980834961,404.1301019191742,404.1453278064728,404.2884433269501,404.2884433269501,404.2884433269501,404.2884433269501,404.2884433269501,404.2884433269501,404.2884433269501,405.8051989078522,3,1.6499378681182861,None,,,,,,,,,,,,,,,,,,200,2,2025-03-06_13h03.02.727,comp,2024.2.4,59.57395071372772,2025-03-06 13h03.26.758695 -0500,
91,91,0,critical,wdh,35.0,1.0,upper,125.0,200.0,127.0,127.0,200.0,125.0,1,3.4378950595855713,None,,,,,0,0,0,0,0,91,91,73,405.820960521698,,,,,,,,,,,,,,,,,,,,,,,,,,,,,,,,,,,,,,,,,,,,,,,,,,,,,,,,,,,,,,,,,,,,,,,,,,,,,,,,,125.0,200.0,127.0,127.0,200.0,125.0,1.0,1.3,220,-273,480,-265,702,-281,405.8067660331726,405.80684423446655,405.8102116584778,405.820960521698,405.97455286979675,405.97455286979675,405.97455286979675,405.97455286979675,405.97455286979675,405.97455286979675,405.97455286979675,409.27304005622864,1,3.4378950595855713,None,,,,,,,,,,,,,,,,,,200,2,2025-03-06_13h03.02.727,comp,2024.2.4,59.57395071372772,2025-03-06 13h03.26.758695 -0500,
92,92,0,critical,hdw,35.0,4.0,upper,200.0,125.0,127.0,127.0,125.0,200.0,3,2.6349048614501953,None,,,,,0,0,0,0,0,92,92,113,409.2885730266571,,,,,,,,,,,,,,,,,,,,,,,,,,,,,,,,,,,,,,,,,,,,,,,,,,,,,,,,,,,,,,,,,,,,,,,,,,,,,,,,,200.0,125.0,127.0,127.0,125.0,200.0,4.0,4.2,-222,-1,0,-272,260,14,409.2746579647064,409.27473545074463,409.2782578468323,409.2885730266571,409.43680119514465,409.43680119514465,409.43680119514465,409.43680119514465,409.43680119514465,409.43680119514465,409.43680119514465,411.92756819725037,3,2.6349048614501953,None,,,,,,,,,,,,,,,,,,200,2,2025-03-06_13h03.02.727,comp,2024.2.4,59.57395071372772,2025-03-06 13h03.26.758695 -0500,
93,93,0,critical,dhw,35.0,2.1,upper,127.0,127.0,200.0,125.0,125.0,200.0,3,2.122776508331299,None,,,,,0,0,0,0,0,93,93,25,411.94483280181885,,,,,,,,,,,,,,,,,,,,,,,,,,,,,,,,,,,,,,,,,,,,,,,,,,,,,,,,,,,,,,,,,,,,,,,,,,,,,,,,,127.0,127.0,200.0,125.0,125.0,200.0,2.1,2.11,-222,264,0,258,258,-274,411.92911314964294,411.9291925430298,411.9331133365631,411.94483280181885,412.0916061401367,412.0916061401367,412.0916061401367,412.0916061401367,412.0916061401367,412.0916061401367,412.0916061401367,414.07550621032715,3,2.122776508331299,None,,,,,,,,,,,,,,,,,,200,2,2025-03-06_13h03.02.727,comp,2024.2.4,59.57395071372772,2025-03-06 13h03.26.758695 -0500,
94,94,0,critical,dhw,20.0,2.1,upper,141.0,141.0,200.0,125.0,125.0,200.0,3,1.3438854217529297,None,,,,,0,0,0,0,0,94,94,3,414.09165263175964,,,,,,,,,,,,,,,,,,,,,,,,,,,,,,,,,,,,,,,,,,,,,,,,,,,,,,,,,,,,,,,,,,,,,,,,,,,,,,,,,141.0,141.0,200.0,125.0,125.0,200.0,2.1,2.11,-229,260,0,258,258,-276,414.0771179199219,414.07720398902893,414.08072662353516,414.09165263175964,414.24214243888855,414.24214243888855,414.24214243888855,414.24214243888855,414.24214243888855,414.24214243888855,414.24214243888855,415.4431531429291,3,1.3438854217529297,None,,,,,,,,,,,,,,,,,,200,2,2025-03-06_13h03.02.727,comp,2024.2.4,59.57395071372772,2025-03-06 13h03.26.758695 -0500,
95,95,0,critical,wdh,20.0,4.0,lower,57.0,133.0,78.0,78.0,133.0,57.0,3,9.37341046333313,None,,,,,0,0,0,0,0,95,95,82,415.4854197502136,,,,,,,,,,,,,,,,,,,,,,,,,,,,,,,,,,,,,,,,,,,,,,,,,,,,,,,,,,,,,,,,,,,,,,,,,,,,,,,,,57.0,133.0,78.0,78.0,133.0,57.0,4.0,4.2,-202,12,0,-283,164,-15,415.44475865364075,415.4448359012604,415.448406457901,415.4854197502136,415.60936975479126,415.60936975479126,415.60936975479126,415.60936975479126,415.60936975479126,415.60936975479126,415.60936975479126,424.8772568702698,3,9.37341046333313,None,,,,,,,,,,,,,,,,,,200,2,2025-03-06_13h03.02.727,comp,2024.2.4,59.57395071372772,2025-03-06 13h03.26.758695 -0500,
96,96,0,critical,hdw,20.0,4.0,lower,133.0,57.0,78.0,78.0,57.0,133.0,3,4.101157903671265,None,,,,,0,0,0,0,0,96,96,118,424.89361548423767,,,,,,,,,,,,,,,,,,,,,,,,,,,,,,,,,,,,,,,,,,,,,,,,,,,,,,,,,,,,,,,,,,,,,,,,,,,,,,,,,133.0,57.0,78.0,78.0,57.0,133.0,4.0,4.1,-164,-278,0,-5,202,-269,424.87890911102295,424.87899923324585,424.88237857818604,424.89361548423767,425.0446364879608,425.0446364879608,425.0446364879608,425.0446364879608,425.0446364879608,425.0446364879608,425.0446364879608,429.01523756980896,3,4.101157903671265,None,,,,,,,,,,,,,,,,,,200,2,2025-03-06_13h03.02.727,comp,2024.2.4,59.57395071372772,2025-03-06 13h03.26.758695 -0500,
97,97,0,critical,dhw,35.0,1.0,lower,70.0,70.0,133.0,57.0,57.0,133.0,3,2.9045214653015137,None,,,,,0,0,0,0,0,97,97,48,429.0343437194824,,,,,,,,,,,,,,,,,,,,,,,,,,,,,,,,,,,,,,,,,,,,,,,,,,,,,,,,,,,,,,,,,,,,,,,,,,,,,,,,,70.0,70.0,133.0,57.0,57.0,133.0,1.0,1.2,-160,14,0,20,191,10,429.01685523986816,429.0169324874878,429.0200979709625,429.0343437194824,429.1799955368042,429.1799955368042,429.1799955368042,429.1799955368042,429.1799955368042,429.1799955368042,429.1799955368042,431.9516797065735,3,2.9045214653015137,None,,,,,,,,,,,,,,,,,,200,2,2025-03-06_13h03.02.727,comp,2024.2.4,59.57395071372772,2025-03-06 13h03.26.758695 -0500,
98,98,0,critical,wdh,35.0,1.0,lower,57.0,133.0,70.0,70.0,133.0,57.0,1,3.0840249061584473,None,,,,,0,0,0,0,0,98,98,72,431.967472076416,,,,,,,,,,,,,,,,,,,,,,,,,,,,,,,,,,,,,,,,,,,,,,,,,,,,,,,,,,,,,,,,,,,,,,,,,,,,,,,,,57.0,133.0,70.0,70.0,133.0,57.0,1.0,1.3,282,-284,480,-285,640,-282,431.9533579349518,431.9534351825714,431.9564311504364,431.967472076416,432.1137590408325,432.1137590408325,432.1137590408325,432.1137590408325,432.1137590408325,432.1137590408325,432.1137590408325,435.05536341667175,1,3.0840249061584473,None,,,,,,,,,,,,,,,,,,200,2,2025-03-06_13h03.02.727,comp,2024.2.4,59.57395071372772,2025-03-06 13h03.26.758695 -0500,
99,99,0,critical,dwh,35.0,4.0,upper,127.0,127.0,125.0,200.0,200.0,125.0,2,2.6686010360717773,None,,,,,0,0,0,0,0,99,99,65,435.0710632801056,,,,,,,,,,,,,,,,,,,,,,,,,,,,,,,,,,,,,,,,,,,,,,,,,,,,,,,,,,,,,,,,,,,,,,,,,,,,,,,,,127.0,127.0,125.0,200.0,200.0,125.0,4.0,4.2,-260,-5,0,-275,258,11,435.05685567855835,435.05693340301514,435.05981373786926,435.0710632801056,435.21322560310364,435.21322560310364,435.21322560310364,435.21322560310364,435.21322560310364,435.21322560310364,435.21322560310364,437.75057315826416,2,2.6686010360717773,None,,,,,,,,,,,,,,,,,,200,2,2025-03-06_13h03.02.727,comp,2024.2.4,59.57395071372772,2025-03-06 13h03.26.758695 -0500,
100,100,0,critical,wdh,20.0,2.1,lower,57.0,133.0,78.0,78.0,133.0,57.0,1,4.5723676681518555,None,,,,,0,0,0,0,0,100,100,10,437.7665328979492,,,,,,,,,,,,,,,,,,,,,,,,,,,,,,,,,,,,,,,,,,,,,,,,,,,,,,,,,,,,,,,,,,,,,,,,,,,,,,,,,57.0,133.0,78.0,78.0,133.0,57.0,2.1,2.12,-202,-289,0,-276,164,285,437.75221490859985,437.7523341178894,437.75553154945374,437.7665328979492,437.91660356521606,437.91660356521606,437.91660356521606,437.91660356521606,437.91660356521606,437.91660356521606,437.91660356521606,442.34980487823486,1,4.5723676681518555,None,,,,,,,,,,,,,,,,,,200,2,2025-03-06_13h03.02.727,comp,2024.2.4,59.57395071372772,2025-03-06 13h03.26.758695 -0500,
101,101,0,filler_square,None,None,None,None,None,None,None,None,None,None,1,1.4438557624816895,None,,,,,0,0,0,0,0,101,101,186,442.3668978214264,,,,,,,,,,,,,,,,,,,,,,,,,,,,,,,,,,,,,,,,,,,,,,,,,,,,,,,,,,,,,,,,,,,,,,,,,,,,,,,,,78.06571851838609,78.06571851838609,69.51736786140265,65.54149538540742,73.13072811446912,73.92477623196297,4.0,4.1,-168,-273,0,-15,166,-282,442.3517189025879,442.3518478870392,442.35521149635315,442.3668978214264,442.5158190727234,442.5158190727234,442.5158190727234,442.5158190727234,442.5158190727234,442.5158190727234,442.5158190727234,443.8236048221588,1,1.4438557624816895,None,,,,,,,,,,,,,,,,,,200,2,2025-03-06_13h03.02.727,comp,2024.2.4,59.57395071372772,2025-03-06 13h03.26.758695 -0500,
102,102,0,catch,None,None,None,None,None,None,None,None,None,None,3,1.9274239540100098,None,,,,,0,0,0,0,0,102,102,129,443.8435139656067,,,,,,,,,,,,,,,,,,,,,,,,,,,,,,,,,,,,,,,,,,,,,,,,,,,,,,,,,,,,,,,,,,,,,,,,,,,,,,,,,65,125,62,128,143,182,2.2,2.22,-222,278,0,-284,251,-256,443.8255019187927,443.82558012008667,443.8284718990326,443.8435139656067,443.9847252368927,443.9847252368927,443.9847252368927,443.9847252368927,443.9847252368927,443.9847252368927,443.9847252368927,445.78688049316406,3,1.9274239540100098,None,,,,,,,,,,,,,,,,,,200,2,2025-03-06_13h03.02.727,comp,2024.2.4,59.57395071372772,2025-03-06 13h03.26.758695 -0500,
103,103,0,critical,dhw,35.0,2.1,lower,70.0,70.0,133.0,57.0,57.0,133.0,2,3.624403238296509,None,,,,,0,0,0,0,0,103,103,0,445.8030798435211,,,,,,,,,,,,,,,,,,,,,,,,,,,,,,,,,,,,,,,,,,,,,,,,,,,,,,,,,,,,,,,,,,,,,,,,,,,,,,,,,70.0,70.0,133.0,57.0,57.0,133.0,2.1,2.12,-160,-250,0,-260,191,266,445.788503408432,445.78858065605164,445.7919204235077,445.8030798435211,445.93865180015564,445.93865180015564,445.93865180015564,445.93865180015564,445.93865180015564,445.93865180015564,445.93865180015564,449.4371426105499,2,3.624403238296509,None,,,,,,,,,,,,,,,,,,200,2,2025-03-06_13h03.02.727,comp,2024.2.4,59.57395071372772,2025-03-06 13h03.26.758695 -0500,
104,104,0,critical,wdh,20.0,3.0,upper,125.0,200.0,141.0,141.0,200.0,125.0,2,5.157148838043213,None,,,,,0,0,0,0,0,104,104,81,449.45365047454834,,,,,,,,,,,,,,,,,,,,,,,,,,,,,,,,,,,,,,,,,,,,,,,,,,,,,,,,,,,,,,,,,,,,,,,,,,,,,,,,,125.0,200.0,141.0,141.0,200.0,125.0,3.0,3.2,-266,-267,0,0,229,286,449.43876600265503,449.43889808654785,449.442857503891,449.45365047454834,449.6036081314087,449.6036081314087,449.6036081314087,449.6036081314087,449.6036081314087,449.6036081314087,449.6036081314087,454.62040162086487,2,5.157148838043213,None,,,,,,,,,,,,,,,,,,200,2,2025-03-06_13h03.02.727,comp,2024.2.4,59.57395071372772,2025-03-06 13h03.26.758695 -0500,
105,105,0,critical,hwd,35.0,4.0,upper,200.0,125.0,125.0,200.0,127.0,127.0,2,1.4151816368103027,None,,,,,0,0,0,0,0,105,105,101,454.63612174987793,,,,,,,,,,,,,,,,,,,,,,,,,,,,,,,,,,,,,,,,,,,,,,,,,,,,,,,,,,,,,,,,,,,,,,,,,,,,,,,,,200.0,125.0,125.0,200.0,127.0,127.0,4.0,4.2,-258,-17,0,-280,260,-5,454.622029542923,454.6221089363098,454.62546968460083,454.63612174987793,454.79366636276245,454.79366636276245,454.79366636276245,454.79366636276245,454.79366636276245,454.79366636276245,454.79366636276245,456.0534999370575,2,1.4151816368103027,None,,,,,,,,,,,,,,,,,,200,2,2025-03-06_13h03.02.727,comp,2024.2.4,59.57395071372772,2025-03-06 13h03.26.758695 -0500,
106,106,0,filler_square,None,None,None,None,None,None,None,None,None,None,2,1.324491024017334,None,,,,,0,0,0,0,0,106,106,183,456.07021379470825,,,,,,,,,,,,,,,,,,,,,,,,,,,,,,,,,,,,,,,,,,,,,,,,,,,,,,,,,,,,,,,,,,,,,,,,,,,,,,,,,58.908644876557666,59.5388314390165,76.26870374060002,76.26870374060002,62.41581156131401,74.84120156859225,2.1,2.11,-164,252,0,261,172,-269,456.0554163455963,456.0554926395416,456.0588684082031,456.07021379470825,456.2195551395416,456.2195551395416,456.2195551395416,456.2195551395416,456.2195551395416,456.2195551395416,456.2195551395416,457.3984491825104,2,1.324491024017334,None,,,,,,,,,,,,,,,,,,200,2,2025-03-06_13h03.02.727,comp,2024.2.4,59.57395071372772,2025-03-06 13h03.26.758695 -0500,
107,107,0,filler_square,None,None,None,None,None,None,None,None,None,None,2,1.4155800342559814,None,,,,,0,0,0,0,0,107,107,188,457.4192388057709,,,,,,,,,,,,,,,,,,,,,,,,,,,,,,,,,,,,,,,,,,,,,,,,,,,,,,,,,,,,,,,,,,,,,,,,,,,,,,,,,65.98069189709277,78.72614430837268,82.2799168401709,82.2799168401709,57.96319164600488,68.42375818448265,1.0,1.3,303,-266,480,-281,651,-277,457.40022563934326,457.4003834724426,457.4036316871643,457.4192388057709,457.5546431541443,457.5546431541443,457.5546431541443,457.5546431541443,457.5546431541443,457.5546431541443,457.5546431541443,458.8546075820923,2,1.4155800342559814,None,,,,,,,,,,,,,,,,,,200,2,2025-03-06_13h03.02.727,comp,2024.2.4,59.57395071372772,2025-03-06 13h03.26.758695 -0500,
108,108,0,critical,whd,20.0,4.0,lower,57.0,133.0,133.0,57.0,78.0,78.0,2,3.1149532794952393,None,,,,,0,0,0,0,0,108,108,94,458.8723704814911,,,,,,,,,,,,,,,,,,,,,,,,,,,,,,,,,,,,,,,,,,,,,,,,,,,,,,,,,,,,,,,,,,,,,,,,,,,,,,,,,57.0,133.0,133.0,57.0,78.0,78.0,4.0,4.1,-191,-280,0,9,164,-260,458.856055021286,458.8561305999756,458.85921025276184,458.8723704814911,459.02954626083374,459.02954626083374,459.02954626083374,459.02954626083374,459.02954626083374,459.02954626083374,459.02954626083374,461.9902455806732,2,3.1149532794952393,None,,,,,,,,,,,,,,,,,,200,2,2025-03-06_13h03.02.727,comp,2024.2.4,59.57395071372772,2025-03-06 13h03.26.758695 -0500,
109,109,0,catch,None,None,None,None,None,None,None,None,None,None,2,1.1166284084320068,None,,,,,0,0,0,0,0,109,109,123,462.006160736084,,,,,,,,,,,,,,,,,,,,,,,,,,,,,,,,,,,,,,,,,,,,,,,,,,,,,,,,,,,,,,,,,,,,,,,,,,,,,,,,,73,117,128,197,62,128,4.0,4.1,-253,-253,0,5,258,-250,461.99214601516724,461.9922251701355,461.9955315589905,462.006160736084,462.1591799259186,462.1591799259186,462.1591799259186,462.1591799259186,462.1591799259186,462.1591799259186,462.1591799259186,463.1384460926056,2,1.1166284084320068,None,,,,,,,,,,,,,,,,,,200,2,2025-03-06_13h03.02.727,comp,2024.2.4,59.57395071372772,2025-03-06 13h03.26.758695 -0500,
110,110,0,filler_square,None,None,None,None,None,None,None,None,None,None,3,1.260385513305664,None,,,,,0,0,0,0,0,110,110,170,463.15238428115845,,,,,,,,,,,,,,,,,,,,,,,,,,,,,,,,,,,,,,,,,,,,,,,,,,,,,,,,,,,,,,,,,,,,,,,,,,,,,,,,,92.21202385786052,119.1838129347113,189.24971960948818,57.106036853146534,196.04118312801492,196.04118312801492,1.0,1.3,296,-278,480,-260,703,-277,463.14024019241333,463.14034032821655,463.14352917671204,463.15238428115845,463.2923467159271,463.2923467159271,463.2923467159271,463.2923467159271,463.2923467159271,463.2923467159271,463.2923467159271,464.4239845275879,3,1.260385513305664,None,,,,,,,,,,,,,,,,,,200,2,2025-03-06_13h03.02.727,comp,2024.2.4,59.57395071372772,2025-03-06 13h03.26.758695 -0500,
111,111,0,filler_random,None,None,None,None,None,None,None,None,None,None,1,1.6026241779327393,None,,,,,0,0,0,0,0,111,111,154,464.44015645980835,,,,,,,,,,,,,,,,,,,,,,,,,,,,,,,,,,,,,,,,,,,,,,,,,,,,,,,,,,,,,,,,,,,,,,,,,,,,,,,,,198.16808158662164,160.2402348999659,165.8998334948481,113.80518461768261,105.92716133510771,92.07621355834385,2.2,2.22,-233,264,0,-266,199,-282,464.42581844329834,464.4259469509125,464.42948055267334,464.44015645980835,464.59488105773926,464.59488105773926,464.59488105773926,464.59488105773926,464.59488105773926,464.59488105773926,464.59488105773926,466.0567092895508,1,1.6026241779327393,None,,,,,,,,,,,,,,,,,,200,2,2025-03-06_13h03.02.727,comp,2024.2.4,59.57395071372772,2025-03-06 13h03.26.758695 -0500,
112,112,0,filler_square,None,None,None,None,None,None,None,None,None,None,3,2.158046245574951,None,,,,,0,0,0,0,0,112,112,172,466.0774781703949,,,,,,,,,,,,,,,,,,,,,,,,,,,,,,,,,,,,,,,,,,,,,,,,,,,,,,,,,,,,,,,,,,,,,,,,,,,,,,,,,152.7573336664967,133.67215757948588,64.1791586160357,91.67455942442243,173.52133769129517,173.52133769129517,1.0,1.2,-209,-11,0,0,229,17,466.0585277080536,466.05865478515625,466.0621201992035,466.0774781703949,466.225613117218,466.225613117218,466.225613117218,466.225613117218,466.225613117218,466.225613117218,466.225613117218,468.2430827617645,3,2.158046245574951,None,,,,,,,,,,,,,,,,,,200,2,2025-03-06_13h03.02.727,comp,2024.2.4,59.57395071372772,2025-03-06 13h03.26.758695 -0500,
113,113,0,critical,whd,35.0,2.1,lower,57.0,133.0,133.0,57.0,70.0,70.0,3,4.567284345626831,None,,,,,0,0,0,0,0,113,113,36,468.2595362663269,,,,,,,,,,,,,,,,,,,,,,,,,,,,,,,,,,,,,,,,,,,,,,,,,,,,,,,,,,,,,,,,,,,,,,,,,,,,,,,,,57.0,133.0,133.0,57.0,70.0,70.0,2.1,2.12,-191,-279,0,-279,160,290,468.24483847618103,468.2449195384979,468.2488133907318,468.2595362663269,468.41693329811096,468.41693329811096,468.41693329811096,468.41693329811096,468.41693329811096,468.41693329811096,468.41693329811096,472.8436233997345,3,4.567284345626831,None,,,,,,,,,,,,,,,,,,200,2,2025-03-06_13h03.02.727,comp,2024.2.4,59.57395071372772,2025-03-06 13h03.26.758695 -0500,
114,114,0,critical,hdw,35.0,2.1,upper,200.0,125.0,127.0,127.0,125.0,200.0,3,3.761500597000122,None,,,,,0,0,0,0,0,114,114,45,472.8594853878021,,,,,,,,,,,,,,,,,,,,,,,,,,,,,,,,,,,,,,,,,,,,,,,,,,,,,,,,,,,,,,,,,,,,,,,,,,,,,,,,,200.0,125.0,127.0,127.0,125.0,200.0,2.1,2.12,-222,-256,0,-257,260,277,472.84516048431396,472.84523606300354,472.84925532341003,472.8594853878021,473.0122492313385,473.0122492313385,473.0122492313385,473.0122492313385,473.0122492313385,473.0122492313385,473.0122492313385,476.63249349594116,3,3.761500597000122,None,,,,,,,,,,,,,,,,,,200,2,2025-03-06_13h03.02.727,comp,2024.2.4,59.57395071372772,2025-03-06 13h03.26.758695 -0500,
115,115,0,critical,whd,35.0,2.1,upper,125.0,200.0,200.0,125.0,127.0,127.0,1,6.649653673171997,None,,,,,0,0,0,0,0,115,115,37,476.64913296699524,,,,,,,,,,,,,,,,,,,,,,,,,,,,,,,,,,,,,,,,,,,,,,,,,,,,,,,,,,,,,,,,,,,,,,,,,,,,,,,,,125.0,200.0,200.0,125.0,127.0,127.0,2.1,2.11,-258,285,0,288,222,-256,476.63414478302,476.6342570781708,476.6377420425415,476.64913296699524,476.7968876361847,476.7968876361847,476.7968876361847,476.7968876361847,476.7968876361847,476.7968876361847,476.7968876361847,483.31015396118164,1,6.649653673171997,None,,,,,,,,,,,,,,,,,,200,2,2025-03-06_13h03.02.727,comp,2024.2.4,59.57395071372772,2025-03-06 13h03.26.758695 -0500,
116,116,0,critical,dhw,35.0,4.0,upper,127.0,127.0,200.0,125.0,125.0,200.0,3,2.045877695083618,None,,,,,0,0,0,0,0,116,116,53,483.3269245624542,,,,,,,,,,,,,,,,,,,,,,,,,,,,,,,,,,,,,,,,,,,,,,,,,,,,,,,,,,,,,,,,,,,,,,,,,,,,,,,,,127.0,127.0,200.0,125.0,125.0,200.0,4.0,4.2,-222,-3,0,-286,258,-8,483.3116080760956,483.3116829395294,483.31459379196167,483.3269245624542,483.48217964172363,483.48217964172363,483.48217964172363,483.48217964172363,483.48217964172363,483.48217964172363,483.48217964172363,485.37940740585327,3,2.045877695083618,None,,,,,,,,,,,,,,,,,,200,2,2025-03-06_13h03.02.727,comp,2024.2.4,59.57395071372772,2025-03-06 13h03.26.758695 -0500,
117,117,0,filler_square,None,None,None,None,None,None,None,None,None,None,2,2.197976589202881,None,,,,,0,0,0,0,0,117,117,191,485.39701080322266,,,,,,,,,,,,,,,,,,,,,,,,,,,,,,,,,,,,,,,,,,,,,,,,,,,,,,,,,,,,,,,,,,,,,,,,,,,,,,,,,59.46873212972049,63.67992183251108,67.95639785273079,67.95639785273079,58.06575856241794,64.20226367110777,2.2,2.22,-162,258,0,-256,162,-280,485.38109159469604,485.3811671733856,485.38423681259155,485.39701080322266,485.5470371246338,485.5470371246338,485.5470371246338,485.5470371246338,485.5470371246338,485.5470371246338,485.5470371246338,487.5978126525879,2,2.197976589202881,None,,,,,,,,,,,,,,,,,,200,2,2025-03-06_13h03.02.727,comp,2024.2.4,59.57395071372772,2025-03-06 13h03.26.758695 -0500,
118,118,0,filler_random,None,None,None,None,None,None,None,None,None,None,3,3.553469181060791,None,,,,,0,0,0,0,0,118,118,148,487.617990732193,,,,,,,,,,,,,,,,,,,,,,,,,,,,,,,,,,,,,,,,,,,,,,,,,,,,,,,,,,,,,,,,,,,,,,,,,,,,,,,,,126.19157503872648,157.2892531760766,133.6012278604465,58.62610409450284,120.8239765557772,178.20564253912926,2.2,2.21,-204,-282,0,272,214,260,487.5995020866394,487.5995817184448,487.6027739048004,487.617990732193,487.766574382782,487.766574382782,487.766574382782,487.766574382782,487.766574382782,487.766574382782,487.766574382782,491.1826868057251,3,3.553469181060791,None,,,,,,,,,,,,,,,,,,200,2,2025-03-06_13h03.02.727,comp,2024.2.4,59.57395071372772,2025-03-06 13h03.26.758695 -0500,
119,119,0,filler_square,None,None,None,None,None,None,None,None,None,None,3,1.8353545665740967,None,,,,,0,0,0,0,0,119,119,179,491.1994979381561,,,,,,,,,,,,,,,,,,,,,,,,,,,,,,,,,,,,,,,,,,,,,,,,,,,,,,,,,,,,,,,,,,,,,,,,,,,,,,,,,63.01702453665322,86.5901107306367,79.59355582225297,66.32612055896246,87.77053047742908,87.77053047742908,4.0,4.1,-172,-289,0,-17,173,-259,491.1846692562103,491.1847462654114,491.1887674331665,491.1994979381561,491.3577609062195,491.3577609062195,491.3577609062195,491.3577609062195,491.3577609062195,491.3577609062195,491.3577609062195,493.0520644187927,3,1.8353545665740967,None,,,,,,,,,,,,,,,,,,200,2,2025-03-06_13h03.02.727,comp,2024.2.4,59.57395071372772,2025-03-06 13h03.26.758695 -0500,
120,120,0,critical,wdh,20.0,2.1,upper,125.0,200.0,141.0,141.0,200.0,125.0,2,2.8216629028320312,None,,,,,0,0,0,0,0,120,120,35,493.0697832107544,,,,,,,,,,,,,,,,,,,,,,,,,,,,,,,,,,,,,,,,,,,,,,,,,,,,,,,,,,,,,,,,,,,,,,,,,,,,,,,,,125.0,200.0,141.0,141.0,200.0,125.0,2.1,2.12,-266,-270,0,-284,229,274,493.05374217033386,493.05381870269775,493.05697321891785,493.0697832107544,493.2161588668823,493.2161588668823,493.2161588668823,493.2161588668823,493.2161588668823,493.2161588668823,493.2161588668823,495.9001772403717,2,2.8216629028320312,None,,,,,,,,,,,,,,,,,,200,2,2025-03-06_13h03.02.727,comp,2024.2.4,59.57395071372772,2025-03-06 13h03.26.758695 -0500,
121,121,0,critical,whd,35.0,2.1,lower,57.0,133.0,133.0,57.0,70.0,70.0,2,4.9564995765686035,None,,,,,0,0,0,0,0,121,121,12,495.9185016155243,,,,,,,,,,,,,,,,,,,,,,,,,,,,,,,,,,,,,,,,,,,,,,,,,,,,,,,,,,,,,,,,,,,,,,,,,,,,,,,,,57.0,133.0,133.0,57.0,70.0,70.0,2.1,2.12,-191,-272,0,-263,160,275,495.90180015563965,495.9018774032593,495.9053325653076,495.9185016155243,496.0671217441559,496.0671217441559,496.0671217441559,496.0671217441559,496.0671217441559,496.0671217441559,496.0671217441559,500.8849034309387,2,4.9564995765686035,None,,,,,,,,,,,,,,,,,,200,2,2025-03-06_13h03.02.727,comp,2024.2.4,59.57395071372772,2025-03-06 13h03.26.758695 -0500,
122,122,0,critical,wdh,20.0,2.1,upper,125.0,200.0,141.0,141.0,200.0,125.0,1,3.6376192569732666,None,,,,,0,0,0,0,0,122,122,11,500.90118050575256,,,,,,,,,,,,,,,,,,,,,,,,,,,,,,,,,,,,,,,,,,,,,,,,,,,,,,,,,,,,,,,,,,,,,,,,,,,,,,,,,125.0,200.0,141.0,141.0,200.0,125.0,2.1,2.11,-266,275,0,284,229,-285,500.8865535259247,500.88663244247437,500.8901569843292,500.90118050575256,501.0504083633423,501.0504083633423,501.0504083633423,501.0504083633423,501.0504083633423,501.0504083633423,501.0504083633423,504.5528073310852,1,3.6376192569732666,None,,,,,,,,,,,,,,,,,,200,2,2025-03-06_13h03.02.727,comp,2024.2.4,59.57395071372772,2025-03-06 13h03.26.758695 -0500,
123,123,0,critical,dhw,20.0,2.1,lower,78.0,78.0,133.0,57.0,57.0,133.0,2,9.596399068832397,None,,,,,0,0,0,0,0,123,123,2,504.56716299057007,,,,,,,,,,,,,,,,,,,,,,,,,,,,,,,,,,,,,,,,,,,,,,,,,,,,,,,,,,,,,,,,,,,,,,,,,,,,,,,,,78.0,78.0,133.0,57.0,57.0,133.0,2.1,2.12,-164,-251,0,-264,191,255,504.5544264316559,504.5545585155487,504.5579879283905,504.56716299057007,504.7186360359192,504.7186360359192,504.7186360359192,504.7186360359192,504.7186360359192,504.7186360359192,504.7186360359192,514.1707956790924,2,9.596399068832397,None,,,,,,,,,,,,,,,,,,200,2,2025-03-06_13h03.02.727,comp,2024.2.4,59.57395071372772,2025-03-06 13h03.26.758695 -0500,
124,124,0,critical,dwh,20.0,4.0,upper,141.0,141.0,125.0,200.0,200.0,125.0,2,0.9675920009613037,None,,,,,0,0,0,0,0,124,124,71,514.1871690750122,,,,,,,,,,,,,,,,,,,,,,,,,,,,,,,,,,,,,,,,,,,,,,,,,,,,,,,,,,,,,,,,,,,,,,,,,,,,,,,,,141.0,141.0,125.0,200.0,200.0,125.0,4.0,4.2,-266,-19,0,-256,258,-16,514.1722564697266,514.172354221344,514.1753571033478,514.1871690750122,514.3390741348267,514.3390741348267,514.3390741348267,514.3390741348267,514.3390741348267,514.3390741348267,514.3390741348267,515.1739363670349,2,0.9675920009613037,None,,,,,,,,,,,,,,,,,,200,2,2025-03-06_13h03.02.727,comp,2024.2.4,59.57395071372772,2025-03-06 13h03.26.758695 -0500,
125,125,0,critical,dwh,35.0,2.1,upper,127.0,127.0,125.0,200.0,200.0,125.0,2,4.921077728271484,None,,,,,0,0,0,0,0,125,125,5,515.19433426857,,,,,,,,,,,,,,,,,,,,,,,,,,,,,,,,,,,,,,,,,,,,,,,,,,,,,,,,,,,,,,,,,,,,,,,,,,,,,,,,,127.0,127.0,125.0,200.0,200.0,125.0,2.1,2.12,-260,-272,0,-279,258,257,515.1756017208099,515.1757154464722,515.1790196895599,515.19433426857,515.3393888473511,515.3393888473511,515.3393888473511,515.3393888473511,515.3393888473511,515.3393888473511,515.3393888473511,520.123382806778,2,4.921077728271484,None,,,,,,,,,,,,,,,,,,200,2,2025-03-06_13h03.02.727,comp,2024.2.4,59.57395071372772,2025-03-06 13h03.26.758695 -0500,
126,126,0,critical,hwd,20.0,2.1,lower,133.0,57.0,57.0,133.0,78.0,78.0,3,4.391100168228149,None,,,,,0,0,0,0,0,126,126,42,520.139630317688,,,,,,,,,,,,,,,,,,,,,,,,,,,,,,,,,,,,,,,,,,,,,,,,,,,,,,,,,,,,,,,,,,,,,,,,,,,,,,,,,133.0,57.0,57.0,133.0,78.0,78.0,2.1,2.12,-191,-286,0,-286,202,264,520.1248133182526,520.1248888969421,520.1279599666595,520.139630317688,520.2899661064148,520.2899661064148,520.2899661064148,520.2899661064148,520.2899661064148,520.2899661064148,520.2899661064148,524.546511888504,3,4.391100168228149,None,,,,,,,,,,,,,,,,,,200,2,2025-03-06_13h03.02.727,comp,2024.2.4,59.57395071372772,2025-03-06 13h03.26.758695 -0500,
127,127,0,filler_random,None,None,None,None,None,None,None,None,None,None,1,4.904499530792236,None,,,,,0,0,0,0,0,127,127,168,524.5622415542603,,,,,,,,,,,,,,,,,,,,,,,,,,,,,,,,,,,,,,,,,,,,,,,,,,,,,,,,,,,,,,,,,,,,,,,,,,,,,,,,,168.87189970635305,139.2566840707156,91.18927013355464,186.34795962884954,63.94865070325636,160.91470757473513,3.0,3.2,-259,-260,0,5,270,265,524.5485179424286,524.5486178398132,524.5519196987152,524.5622415542603,524.7098615169525,524.7098615169525,524.7098615169525,524.7098615169525,524.7098615169525,524.7098615169525,524.7098615169525,529.4772222042084,1,4.904499530792236,None,,,,,,,,,,,,,,,,,,200,2,2025-03-06_13h03.02.727,comp,2024.2.4,59.57395071372772,2025-03-06 13h03.26.758695 -0500,
128,128,0,filler_square,None,None,None,None,None,None,None,None,None,None,3,2.412930727005005,None,,,,,0,0,0,0,0,128,128,202,529.4942255020142,,,,,,,,,,,,,,,,,,,,,,,,,,,,,,,,,,,,,,,,,,,,,,,,,,,,,,,,,,,,,,,,,,,,,,,,,,,,,,,,,75.43230896450747,99.79024052556238,60.83802987180137,96.13744798190734,111.25665541280432,111.25665541280432,2.1,2.11,-194,253,0,274,200,-251,529.4789881706238,529.4790620803833,529.4832127094269,529.4942255020142,529.6341969966888,529.6341969966888,529.6341969966888,529.6341969966888,529.6341969966888,529.6341969966888,529.6341969966888,531.9144806861877,3,2.412930727005005,None,,,,,,,,,,,,,,,,,,200,2,2025-03-06_13h03.02.727,comp,2024.2.4,59.57395071372772,2025-03-06 13h03.26.758695 -0500,
129,129,0,critical,dhw,35.0,1.0,upper,127.0,127.0,200.0,125.0,125.0,200.0,2,4.965651988983154,None,,,,,0,0,0,0,0,129,129,49,531.9331965446472,,,,,,,,,,,,,,,,,,,,,,,,,,,,,,,,,,,,,,,,,,,,,,,,,,,,,,,,,,,,,,,,,,,,,,,,,,,,,,,,,127.0,127.0,200.0,125.0,125.0,200.0,1.0,1.1,-702,261,-480,265,-222,252,531.9163506031036,531.9164888858795,531.9196860790253,531.9331965446472,532.0870323181152,532.0870323181152,532.0870323181152,532.0870323181152,532.0870323181152,532.0870323181152,532.0870323181152,536.9009099006653,2,4.965651988983154,None,,,,,,,,,,,,,,,,,,200,2,2025-03-06_13h03.02.727,comp,2024.2.4,59.57395071372772,2025-03-06 13h03.26.758695 -0500,
130,130,0,filler_random,None,None,None,None,None,None,None,None,None,None,3,7.7620203495025635,None,,,,,0,0,0,0,0,130,130,166,536.9208974838257,,,,,,,,,,,,,,,,,,,,,,,,,,,,,,,,,,,,,,,,,,,,,,,,,,,,,,,,,,,,,,,,,,,,,,,,,,,,,,,,,191.19297554935036,67.78486610702473,107.35672159342266,59.293439238038594,68.3747393734181,166.7544184215581,3.0,3.2,-160,-270,0,-14,209,275,536.902670621872,536.9027497768402,536.9056899547577,536.9208974838257,537.0668561458588,537.0668561458588,537.0668561458588,537.0668561458588,537.0668561458588,537.0668561458588,537.0668561458588,544.6859397888184,3,7.7620203495025635,None,,,,,,,,,,,,,,,,,,200,2,2025-03-06_13h03.02.727,comp,2024.2.4,59.57395071372772,2025-03-06 13h03.26.758695 -0500,
131,131,0,catch,None,None,None,None,None,None,None,None,None,None,1,1.5914394855499268,None,,,,,0,0,0,0,0,131,131,122,544.7074191570282,,,,,,,,,,,,,,,,,,,,,,,,,,,,,,,,,,,,,,,,,,,,,,,,,,,,,,,,,,,,,,,,,,,,,,,,,,,,,,,,,185,140,100,90,97,93,1.0,1.3,269,-265,480,-275,668,-288,544.6880989074707,544.6881773471832,544.6915581226349,544.7074191570282,544.8494844436646,544.8494844436646,544.8494844436646,544.8494844436646,544.8494844436646,544.8494844436646,544.8494844436646,546.3156390190125,1,1.5914394855499268,None,,,,,,,,,,,,,,,,,,200,2,2025-03-06_13h03.02.727,comp,2024.2.4,59.57395071372772,2025-03-06 13h03.26.758695 -0500,
132,132,0,critical,hwd,35.0,2.1,lower,133.0,57.0,57.0,133.0,70.0,70.0,3,6.561604261398315,None,,,,,0,0,0,0,0,132,132,40,546.3293392658234,,,,,,,,,,,,,,,,,,,,,,,,,,,,,,,,,,,,,,,,,,,,,,,,,,,,,,,,,,,,,,,,,,,,,,,,,,,,,,,,,133.0,57.0,57.0,133.0,70.0,70.0,2.1,2.11,-191,284,0,289,198,-261,546.3171353340149,546.3172116279602,546.3204317092896,546.3293392658234,546.4739460945129,546.4739460945129,546.4739460945129,546.4739460945129,546.4739460945129,546.4739460945129,546.4739460945129,552.9003851413727,3,6.561604261398315,None,,,,,,,,,,,,,,,,,,200,2,2025-03-06_13h03.02.727,comp,2024.2.4,59.57395071372772,2025-03-06 13h03.26.758695 -0500,
133,133,0,filler_square,None,None,None,None,None,None,None,None,None,None,3,1.058319330215454,None,,,,,0,0,0,0,0,133,133,201,552.9208104610443,,,,,,,,,,,,,,,,,,,,,,,,,,,,,,,,,,,,,,,,,,,,,,,,,,,,,,,,,,,,,,,,,,,,,,,,,,,,,,,,,73.32241614483088,72.23071823552574,97.84181032413451,97.84181032413451,73.44659798457354,93.84230194346753,2.1,2.12,-181,-270,0,-253,192,274,552.9022490978241,552.9024004936218,552.9056708812714,552.9208104610443,553.0680420398712,553.0680420398712,553.0680420398712,553.0680420398712,553.0680420398712,553.0680420398712,553.0680420398712,553.9854207038879,3,1.058319330215454,None,,,,,,,,,,,,,,,,,,200,2,2025-03-06_13h03.02.727,comp,2024.2.4,59.57395071372772,2025-03-06 13h03.26.758695 -0500,
134,134,0,critical,wdh,35.0,4.0,upper,125.0,200.0,127.0,127.0,200.0,125.0,3,3.8336081504821777,None,,,,,0,0,0,0,0,134,134,77,554.0017204284668,,,,,,,,,,,,,,,,,,,,,,,,,,,,,,,,,,,,,,,,,,,,,,,,,,,,,,,,,,,,,,,,,,,,,,,,,,,,,,,,,125.0,200.0,127.0,127.0,200.0,125.0,4.0,4.2,-260,-10,0,-278,222,8,553.9869654178619,553.987046957016,553.9905033111572,554.0017204284668,554.1510167121887,554.1510167121887,554.1510167121887,554.1510167121887,554.1510167121887,554.1510167121887,554.1510167121887,557.8457930088043,3,3.8336081504821777,None,,,,,,,,,,,,,,,,,,200,2,2025-03-06_13h03.02.727,comp,2024.2.4,59.57395071372772,2025-03-06 13h03.26.758695 -0500,
135,135,0,critical,hdw,20.0,2.1,lower,133.0,57.0,78.0,78.0,57.0,133.0,3,3.9522738456726074,None,,,,,0,0,0,0,0,135,135,46,557.8666255474091,,,,,,,,,,,,,,,,,,,,,,,,,,,,,,,,,,,,,,,,,,,,,,,,,,,,,,,,,,,,,,,,,,,,,,,,,,,,,,,,,133.0,57.0,78.0,78.0,57.0,133.0,2.1,2.11,-164,259,0,272,202,-283,557.8473908901215,557.8474779129028,557.8508484363556,557.8666255474091,558.0036153793335,558.0036153793335,558.0036153793335,558.0036153793335,558.0036153793335,558.0036153793335,558.0036153793335,561.8223505020142,3,3.9522738456726074,None,,,,,,,,,,,,,,,,,,200,2,2025-03-06_13h03.02.727,comp,2024.2.4,59.57395071372772,2025-03-06 13h03.26.758695 -0500,
136,136,0,critical,whd,20.0,2.1,lower,57.0,133.0,133.0,57.0,78.0,78.0,3,3.820377826690674,None,,,,,0,0,0,0,0,136,136,14,561.8386058807373,,,,,,,,,,,,,,,,,,,,,,,,,,,,,,,,,,,,,,,,,,,,,,,,,,,,,,,,,,,,,,,,,,,,,,,,,,,,,,,,,57.0,133.0,133.0,57.0,78.0,78.0,2.1,2.12,-191,-274,0,-289,164,277,561.8239259719849,561.8240039348602,561.8273229598999,561.8386058807373,561.9865169525146,561.9865169525146,561.9865169525146,561.9865169525146,561.9865169525146,561.9865169525146,561.9865169525146,565.6712987422943,3,3.820377826690674,None,,,,,,,,,,,,,,,,,,200,2,2025-03-06_13h03.02.727,comp,2024.2.4,59.57395071372772,2025-03-06 13h03.26.758695 -0500,
137,137,0,filler_random,None,None,None,None,None,None,None,None,None,None,3,1.4454185962677002,None,,,,,0,0,0,0,0,137,137,165,565.6858520507812,,,,,,,,,,,,,,,,,,,,,,,,,,,,,,,,,,,,,,,,,,,,,,,,,,,,,,,,,,,,,,,,,,,,,,,,,,,,,,,,,134.5025265849725,129.32614912075348,66.71674230637912,152.17289027292944,110.56823814629729,169.8398037502012,3.0,3.2,-237,-273,0,16,257,289,565.6731202602386,565.6732528209686,565.6768131256104,565.6858520507812,565.8403835296631,565.8403835296631,565.8403835296631,565.8403835296631,565.8403835296631,565.8403835296631,565.8403835296631,567.1380865573883,3,1.4454185962677002,None,,,,,,,,,,,,,,,,,,200,2,2025-03-06_13h03.02.727,comp,2024.2.4,59.57395071372772,2025-03-06 13h03.26.758695 -0500,
138,138,0,critical,dhw,20.0,4.0,upper,141.0,141.0,200.0,125.0,125.0,200.0,3,2.040005922317505,None,,,,,0,0,0,0,0,138,138,59,567.1547718048096,,,,,,,,,,,,,,,,,,,,,,,,,,,,,,,,,,,,,,,,,,,,,,,,,,,,,,,,,,,,,,,,,,,,,,,,,,,,,,,,,141.0,141.0,200.0,125.0,125.0,200.0,4.0,4.1,-229,-262,0,13,258,-282,567.1396794319153,567.139755487442,567.1430904865265,567.1547718048096,567.3093152046204,567.3093152046204,567.3093152046204,567.3093152046204,567.3093152046204,567.3093152046204,567.3093152046204,569.2099349498749,3,2.040005922317505,None,,,,,,,,,,,,,,,,,,200,2,2025-03-06_13h03.02.727,comp,2024.2.4,59.57395071372772,2025-03-06 13h03.26.758695 -0500,
139,139,0,critical,whd,35.0,1.0,lower,57.0,133.0,133.0,57.0,70.0,70.0,3,4.150430202484131,None,,,,,0,0,0,0,0,139,139,84,569.2289083003998,,,,,,,,,,,,,,,,,,,,,,,,,,,,,,,,,,,,,,,,,,,,,,,,,,,,,,,,,,,,,,,,,,,,,,,,,,,,,,,,,57.0,133.0,133.0,57.0,70.0,70.0,1.0,1.2,-191,8,0,-18,160,-7,569.2118155956268,569.2118957042694,569.2148315906525,569.2289083003998,569.3706946372986,569.3706946372986,569.3706946372986,569.3706946372986,569.3706946372986,569.3706946372986,569.3706946372986,573.3906981945038,3,4.150430202484131,None,,,,,,,,,,,,,,,,,,200,2,2025-03-06_13h03.02.727,comp,2024.2.4,59.57395071372772,2025-03-06 13h03.26.758695 -0500,
140,140,0,critical,dhw,20.0,3.0,upper,141.0,141.0,200.0,125.0,125.0,200.0,3,2.1416518688201904,None,,,,,0,0,0,0,0,140,140,57,573.4050238132477,,,,,,,,,,,,,,,,,,,,,,,,,,,,,,,,,,,,,,,,,,,,,,,,,,,,,,,,,,,,,,,,,,,,,,,,,,,,,,,,,141.0,141.0,200.0,125.0,125.0,200.0,3.0,3.2,-229,-273,0,-6,258,279,573.3922085762024,573.3923251628876,573.3956170082092,573.4050238132477,573.5643982887268,573.5643982887268,573.5643982887268,573.5643982887268,573.5643982887268,573.5643982887268,573.5643982887268,575.5610663890839,3,2.1416518688201904,None,,,,,,,,,,,,,,,,,,200,2,2025-03-06_13h03.02.727,comp,2024.2.4,59.57395071372772,2025-03-06 13h03.26.758695 -0500,
