thisN,thisTrialN,thisRepN,effect,order,distance,config,diag,h_1,w_1,h_2,w_2,h_3,w_3,rect_choice.keys,rect_choice.rt,rect_choice.duration,instructions_loop.thisRepN,instructions_loop.thisTrialN,instructions_loop.thisN,instructions_loop.thisIndex,blocks.thisRepN,blocks.thisTrialN,blocks.thisN,blocks.thisIndex,trials.thisRepN,trials.thisTrialN,trials.thisN,trials.thisIndex,thisRow.t,notes,consent.started,agree_button.started,decline_button.started,consent_img.started,mouse.started,consent.stopped,agree_button.numClicks,agree_button.timesOn,agree_button.timesOff,decline_button.numClicks,decline_button.timesOn,decline_button.timesOff,mouse.x,mouse.y,mouse.leftButton,mouse.midButton,mouse.rightButton,mouse.time,mouse.clicked_name,exp_params.started,exp_params.stopped,welcome.started,welcome_text.started,welcome.stopped,instructions_1.started,instructions_1_text_1.started,instructions_1_text_2.started,key_resp.started,instructions_1.stopped,instructions_loop.key_resp.keys,instructions_loop.key_resp.rt,instructions_loop.key_resp.duration,instructions_2.started,instructions_2_text_1.started,instructions_2_text_2.started,key_resp_2.started,instructions_2.stopped,instructions_loop.key_resp_2.keys,instructions_loop.key_resp_2.rt,instructions_loop.key_resp_2.duration,instructions_3.started,instructions_3_text_1.started,r1_instr3.started,r2_instr3.started,r3_instr3.started,r1_instr3_label.started,r2_instr3_label.started,r3_instr3_label.started,instructions_3_text_3.started,instructions_3_text_4.started,key_resp_3.started,instructions_3.stopped,instructions_loop.key_resp_3.keys,instructions_loop.key_resp_3.rt,instructions_loop.key_resp_3.duration,instructions_4.started,instructions_4_text_1.started,instructions_4_text_3.started,instructions_4_text_2.started,key_resp_4.started,instructions_4.stopped,instructions_loop.key_resp_4.keys,instructions_loop.key_resp_4.rt,instructions_loop.key_resp_4.duration,instructions_5.started,instructions_5_text_1.started,instructions_5_text_2.started,key_resp_5.started,instructions_5.stopped,instructions_loop.key_resp_5.keys,instructions_loop.key_resp_5.rt,instructions_loop.key_resp_5.duration,start_exp.started,start_exp_text.started,key_resp_6.started,start_exp.stopped,key_resp_6.keys,key_resp_6.rt,key_resp_6.duration,h_1_tmp,w_1_tmp,h_2_tmp,w_2_tmp,h_3_tmp,w_3_tmp,config_tmp,config_tmp_1,r_1_x,r_1_y,r_2_x,r_2_y,r_3_x,r_3_y,pre_trial.started,pre_trial.stopped,choice_trial.started,rect_choice.started,r_1.started,r_2.started,r_3.started,r_1_label.started,r_2_label.started,r_3_label.started,prompt.started,choice_trial.stopped,trials.rect_choice.keys,trials.rect_choice.rt,trials.rect_choice.duration,end_block.started,end_block_text.started,end_block.stopped,end.started,end_text.started,key_resp_7.started,end.stopped,key_resp_7.keys,key_resp_7.rt,key_resp_7.duration,debriefing.started,debrief_form.started,end_debrief.started,debriefing.stopped,end_debrief.keys,end_debrief.rt,end_debrief.duration,participant,computer,date,expName,psychopyVersion,frameRate,expStart,
,,,,,,,,,,,,,,,,,,,,,,,,,,,,,,,0.03687596321105957,0.0951683521270752,0.0951683521270752,0.0951683521270752,0.03667640686035156,33.90088438987732,1,[33.80290102958679],[33.80292510986328],0,,,[-79.0],[-496.0],[1],[0],[0],[33.8546462059021],['agree_button'],,,,,,,,,,,,,,,,,,,,,,,,,,,,,,,,,,,,,,,,,,,,,,,,,,,,,,,,,,,,,,,,,,,,,,,,,,,,,,,,,,,,,,,,,,,,,,,,,,,,,,,,,,,201,1,2025-03-06_14h43.29.401,comp,2024.2.4,54.15408133885422,2025-03-06 14h43.57.871617 -0500,
,,,,,,,,,,,,,,,,,,,,,,,,,,,,,,,,,,,,,,,,,,,,,,,,,,33.90153479576111,33.90160298347473,,,,,,,,,,,,,,,,,,,,,,,,,,,,,,,,,,,,,,,,,,,,,,,,,,,,,,,,,,,,,,,,,,,,,,,,,,,,,,,,,,,,,,,,,,,,,,,,,,,,,,,,,201,1,2025-03-06_14h43.29.401,comp,2024.2.4,54.15408133885422,2025-03-06 14h43.57.871617 -0500,
,,,,,,,,,,,,,,,,,,,,,,,,,,,,,,,,,,,,,,,,,,,,,,,,,,,,33.901647329330444,33.935221910476685,35.90232515335083,,,,,,,,,,,,,,,,,,,,,,,,,,,,,,,,,,,,,,,,,,,,,,,,,,,,,,,,,,,,,,,,,,,,,,,,,,,,,,,,,,,,,,,,,,,,,,,,,,,,,,201,1,2025-03-06_14h43.29.401,comp,2024.2.4,54.15408133885422,2025-03-06 14h43.57.871617 -0500,
0,0,0,,,,,,,,,,,,,,,0,0,0,0,,,,,,,,,35.91984295845032,,,,,,,,,,,,,,,,,,,,,,,,,,35.90324568748474,35.91984295845032,35.91984295845032,37.40174126625061,40.21684384346008,space,2.8036229610443115,None,40.21690511703491,40.23419785499573,40.23419785499573,41.71987509727478,44.67098069190979,space,2.941204309463501,None,44.67113995552063,44.71401309967041,44.71401309967041,44.71401309967041,44.71401309967041,44.71401309967041,44.71401309967041,44.71401309967041,44.71401309967041,44.71401309967041,46.18633818626404,49.080100536346436,space,2.8757717609405518,None,49.08026576042175,49.101330041885376,49.101330041885376,49.101330041885376,50.590089559555054,54.02780508995056,space,3.4232406616210938,None,54.027984619140625,54.044914960861206,54.044914960861206,55.541226863861084,56.410608530044556,space,0.8575754165649414,None,56.41080641746521,56.42457890510559,56.42457890510559,57.4424409866333,space,1.0050361156463623,None,,,,,,,,,,,,,,,,,,,,,,,,,,,,,,,,,,,,,,,,,,,,,,,201,1,2025-03-06_14h43.29.401,comp,2024.2.4,54.15408133885422,2025-03-06 14h43.57.871617 -0500,
0,0,0,filler_square,None,None,None,None,None,None,None,None,None,None,2,2.5229194164276123,None,,,,,0,0,0,0,0,0,0,170,57.64281964302063,,,,,,,,,,,,,,,,,,,,,,,,,,,,,,,,,,,,,,,,,,,,,,,,,,,,,,,,,,,,,,,,,,,,,,,,,,,,,,,,,183.56686407334666,136.04073590953146,195.7876097156218,195.7876097156218,76.59482289647102,121.5856600041014,3.0,3.1,-262,261,0,13,255,-276,57.625900983810425,57.62596559524536,57.627323150634766,57.64281964302063,57.80042290687561,57.80042290687561,57.80042290687561,57.80042290687561,57.80042290687561,57.80042290687561,57.80042290687561,60.16946744918823,2,2.5229194164276123,None,,,,,,,,,,,,,,,,,,201,1,2025-03-06_14h43.29.401,comp,2024.2.4,54.15408133885422,2025-03-06 14h43.57.871617 -0500,
1,1,0,filler_random,None,None,None,None,None,None,None,None,None,None,2,1.852067470550537,None,,,,,0,0,0,0,0,1,1,146,60.185890436172485,,,,,,,,,,,,,,,,,,,,,,,,,,,,,,,,,,,,,,,,,,,,,,,,,,,,,,,,,,,,,,,,,,,,,,,,,,,,,,,,,151.5866433508856,72.91552811329768,181.3581909211199,155.15351229678245,173.64764948855563,111.63539366399922,2.1,2.12,-210,-262,0,-285,229,256,60.17097616195679,60.17103433609009,60.1732132434845,60.185890436172485,60.32440376281738,60.32440376281738,60.32440376281738,60.32440376281738,60.32440376281738,60.32440376281738,60.32440376281738,62.04360365867615,2,1.852067470550537,None,,,,,,,,,,,,,,,,,,201,1,2025-03-06_14h43.29.401,comp,2024.2.4,54.15408133885422,2025-03-06 14h43.57.871617 -0500,
2,2,0,catch,None,None,None,None,None,None,None,None,None,None,1,2.288547992706299,None,,,,,0,0,0,0,0,2,2,121,62.0604510307312,,,,,,,,,,,,,,,,,,,,,,,,,,,,,,,,,,,,,,,,,,,,,,,,,,,,,,,,,,,,,,,,,,,,,,,,,,,,,,,,,161,164,122,68,69,121,2.1,2.11,-212,267,0,253,190,-253,62.04551935195923,62.045602560043335,62.04877495765686,62.0604510307312,62.21617341041565,62.21617341041565,62.21617341041565,62.21617341041565,62.21617341041565,62.21617341041565,62.21617341041565,64.36085748672485,1,2.288547992706299,None,,,,,,,,,,,,,,,,,,201,1,2025-03-06_14h43.29.401,comp,2024.2.4,54.15408133885422,2025-03-06 14h43.57.871617 -0500,
3,3,0,filler_square,None,None,None,None,None,None,None,None,None,None,2,2.0428106784820557,None,,,,,0,0,0,0,0,3,3,196,64.37915229797363,,,,,,,,,,,,,,,,,,,,,,,,,,,,,,,,,,,,,,,,,,,,,,,,,,,,,,,,,,,,,,,,,,,,,,,,,,,,,,,,,88.73007348585853,98.47541015419263,143.26585878920605,143.26585878920605,89.87861069923949,111.69574620613858,2.1,2.11,-217,286,0,275,223,-270,64.36272239685059,64.36280274391174,64.36591172218323,64.37915229797363,64.5284788608551,64.5284788608551,64.5284788608551,64.5284788608551,64.5284788608551,64.5284788608551,64.5284788608551,66.4315185546875,2,2.0428106784820557,None,,,,,,,,,,,,,,,,,,201,1,2025-03-06_14h43.29.401,comp,2024.2.4,54.15408133885422,2025-03-06 14h43.57.871617 -0500,
4,4,0,filler_random,None,None,None,None,None,None,None,None,None,None,2,4.1168975830078125,None,,,,,0,0,0,0,0,4,4,150,66.44821333885193,,,,,,,,,,,,,,,,,,,,,,,,,,,,,,,,,,,,,,,,,,,,,,,,,,,,,,,,,,,,,,,,,,,,,,,,,,,,,,,,,168.19107150277074,94.0391394843596,120.4716117978879,134.6072066561843,70.60134718237587,60.47380568696986,2.1,2.11,-210,266,0,255,194,-270,66.43364095687866,66.43377351760864,66.43741536140442,66.44821333885193,66.59326505661011,66.59326505661011,66.59326505661011,66.59326505661011,66.59326505661011,66.59326505661011,66.59326505661011,70.58022022247314,2,4.1168975830078125,None,,,,,,,,,,,,,,,,,,201,1,2025-03-06_14h43.29.401,comp,2024.2.4,54.15408133885422,2025-03-06 14h43.57.871617 -0500,
5,5,0,filler_square,None,None,None,None,None,None,None,None,None,None,2,1.5936312675476074,None,,,,,0,0,0,0,0,5,5,206,70.59543371200562,,,,,,,,,,,,,,,,,,,,,,,,,,,,,,,,,,,,,,,,,,,,,,,,,,,,,,,,,,,,,,,,,,,,,,,,,,,,,,,,,97.46671158874813,76.73007230989975,113.24985225395237,113.24985225395237,95.76352270167453,99.68103844620435,2.2,2.21,-191,-285,0,273,202,289,70.58233904838562,70.5824179649353,70.58613753318787,70.59543371200562,70.73698544502258,70.73698544502258,70.73698544502258,70.73698544502258,70.73698544502258,70.73698544502258,70.73698544502258,72.20075345039368,2,1.5936312675476074,None,,,,,,,,,,,,,,,,,,201,1,2025-03-06_14h43.29.401,comp,2024.2.4,54.15408133885422,2025-03-06 14h43.57.871617 -0500,
6,6,0,filler_random,None,None,None,None,None,None,None,None,None,None,3,3.7801735401153564,None,,,,,0,0,0,0,0,6,6,166,72.21688294410706,,,,,,,,,,,,,,,,,,,,,,,,,,,,,,,,,,,,,,,,,,,,,,,,,,,,,,,,,,,,,,,,,,,,,,,,,,,,,,,,,99.60758922480952,182.41163523863392,170.95493150712775,106.42901067362563,114.79401417461926,157.60821992450633,1.0,1.2,-240,15,0,4,228,-12,72.20294094085693,72.20310258865356,72.20625281333923,72.21688294410706,72.35724568367004,72.35724568367004,72.35724568367004,72.35724568367004,72.35724568367004,72.35724568367004,72.35724568367004,76.01048421859741,3,3.7801735401153564,None,,,,,,,,,,,,,,,,,,201,1,2025-03-06_14h43.29.401,comp,2024.2.4,54.15408133885422,2025-03-06 14h43.57.871617 -0500,
7,7,0,filler_square,None,None,None,None,None,None,None,None,None,None,3,2.4947447776794434,None,,,,,0,0,0,0,0,7,7,178,76.03074860572815,,,,,,,,,,,,,,,,,,,,,,,,,,,,,,,,,,,,,,,,,,,,,,,,,,,,,,,,,,,,,,,,,,,,,,,,,,,,,,,,,79.99392253839227,87.87358216936026,92.55367118638989,88.70979476209607,95.523505121603,95.523505121603,2.2,2.22,-184,253,0,-254,188,-261,76.01252174377441,76.01260232925415,76.01590609550476,76.03074860572815,76.1648097038269,76.1648097038269,76.1648097038269,76.1648097038269,76.1648097038269,76.1648097038269,76.1648097038269,78.5277316570282,3,2.4947447776794434,None,,,,,,,,,,,,,,,,,,201,1,2025-03-06_14h43.29.401,comp,2024.2.4,54.15408133885422,2025-03-06 14h43.57.871617 -0500,
8,8,0,critical,dwh,20.0,2.1,upper,141.0,141.0,125.0,200.0,200.0,125.0,1,7.442518472671509,None,,,,,0,0,0,0,0,8,8,7,78.54746270179749,,,,,,,,,,,,,,,,,,,,,,,,,,,,,,,,,,,,,,,,,,,,,,,,,,,,,,,,,,,,,,,,,,,,,,,,,,,,,,,,,141.0,141.0,125.0,200.0,200.0,125.0,2.1,2.11,-266,278,0,262,258,-289,78.52928924560547,78.52936959266663,78.53236865997314,78.54746270179749,78.6795608997345,78.6795608997345,78.6795608997345,78.6795608997345,78.6795608997345,78.6795608997345,78.6795608997345,86.00560665130615,1,7.442518472671509,None,,,,,,,,,,,,,,,,,,201,1,2025-03-06_14h43.29.401,comp,2024.2.4,54.15408133885422,2025-03-06 14h43.57.871617 -0500,
9,9,0,critical,dhw,35.0,1.0,upper,127.0,127.0,200.0,125.0,125.0,200.0,2,9.907499313354492,None,,,,,0,0,0,0,0,9,9,49,86.02603530883789,,,,,,,,,,,,,,,,,,,,,,,,,,,,,,,,,,,,,,,,,,,,,,,,,,,,,,,,,,,,,,,,,,,,,,,,,,,,,,,,,127.0,127.0,200.0,125.0,125.0,200.0,1.0,1.1,-702,256,-480,259,-222,266,86.00733470916748,86.00743794441223,86.01077723503113,86.02603530883789,86.16949200630188,86.16949200630188,86.16949200630188,86.16949200630188,86.16949200630188,86.16949200630188,86.16949200630188,95.93940114974976,2,9.907499313354492,None,,,,,,,,,,,,,,,,,,201,1,2025-03-06_14h43.29.401,comp,2024.2.4,54.15408133885422,2025-03-06 14h43.57.871617 -0500,
10,10,0,critical,dhw,20.0,2.1,upper,141.0,141.0,200.0,125.0,125.0,200.0,3,2.4399147033691406,None,,,,,0,0,0,0,0,10,10,3,95.95750069618225,,,,,,,,,,,,,,,,,,,,,,,,,,,,,,,,,,,,,,,,,,,,,,,,,,,,,,,,,,,,,,,,,,,,,,,,,,,,,,,,,141.0,141.0,200.0,125.0,125.0,200.0,2.1,2.11,-229,276,0,278,258,-286,95.94085884094238,95.94097352027893,95.94444608688354,95.95750069618225,96.10862183570862,96.10862183570862,96.10862183570862,96.10862183570862,96.10862183570862,96.10862183570862,96.10862183570862,98.40978384017944,3,2.4399147033691406,None,,,,,,,,,,,,,,,,,,201,1,2025-03-06_14h43.29.401,comp,2024.2.4,54.15408133885422,2025-03-06 14h43.57.871617 -0500,
11,11,0,critical,dhw,35.0,2.1,lower,70.0,70.0,133.0,57.0,57.0,133.0,3,3.0992257595062256,None,,,,,0,0,0,0,0,11,11,0,98.42605543136597,,,,,,,,,,,,,,,,,,,,,,,,,,,,,,,,,,,,,,,,,,,,,,,,,,,,,,,,,,,,,,,,,,,,,,,,,,,,,,,,,70.0,70.0,133.0,57.0,57.0,133.0,2.1,2.12,-160,-276,0,-261,191,251,98.41159248352051,98.41167259216309,98.41522169113159,98.42605543136597,98.57251691818237,98.57251691818237,98.57251691818237,98.57251691818237,98.57251691818237,98.57251691818237,98.57251691818237,101.52752017974854,3,3.0992257595062256,None,,,,,,,,,,,,,,,,,,201,1,2025-03-06_14h43.29.401,comp,2024.2.4,54.15408133885422,2025-03-06 14h43.57.871617 -0500,
12,12,0,filler_random,None,None,None,None,None,None,None,None,None,None,2,1.7334163188934326,None,,,,,0,0,0,0,0,12,12,142,101.54401397705078,,,,,,,,,,,,,,,,,,,,,,,,,,,,,,,,,,,,,,,,,,,,,,,,,,,,,,,,,,,,,,,,,,,,,,,,,,,,,,,,,70.63690570416115,69.45566805279357,126.72038418461095,168.0787873717523,180.34472546082185,58.26641700156544,4.0,4.2,-215,7,0,-266,209,-12,101.5293345451355,101.52941703796387,101.53237390518188,101.54401397705078,101.69026374816895,101.69026374816895,101.69026374816895,101.69026374816895,101.69026374816895,101.69026374816895,101.69026374816895,103.2907919883728,2,1.7334163188934326,None,,,,,,,,,,,,,,,,,,201,1,2025-03-06_14h43.29.401,comp,2024.2.4,54.15408133885422,2025-03-06 14h43.57.871617 -0500,
13,13,0,critical,hdw,35.0,4.0,upper,200.0,125.0,127.0,127.0,125.0,200.0,1,2.3148114681243896,None,,,,,0,0,0,0,0,13,13,113,103.30697894096375,,,,,,,,,,,,,,,,,,,,,,,,,,,,,,,,,,,,,,,,,,,,,,,,,,,,,,,,,,,,,,,,,,,,,,,,,,,,,,,,,200.0,125.0,127.0,127.0,125.0,200.0,4.0,4.1,-222,-270,0,-12,260,-275,103.29238867759705,103.29246950149536,103.29661726951599,103.30697894096375,103.45822143554688,103.45822143554688,103.45822143554688,103.45822143554688,103.45822143554688,103.45822143554688,103.45822143554688,105.6242139339447,1,2.3148114681243896,None,,,,,,,,,,,,,,,,,,201,1,2025-03-06_14h43.29.401,comp,2024.2.4,54.15408133885422,2025-03-06 14h43.57.871617 -0500,
14,14,0,filler_random,None,None,None,None,None,None,None,None,None,None,2,3.305208683013916,None,,,,,0,0,0,0,0,14,14,145,105.64386224746704,,,,,,,,,,,,,,,,,,,,,,,,,,,,,,,,,,,,,,,,,,,,,,,,,,,,,,,,,,,,,,,,,,,,,,,,,,,,,,,,,116.93878144513485,140.41732623833784,148.6243528809797,107.97770072527634,70.83130285936697,81.99234563376739,2.1,2.12,-220,-264,0,-256,191,254,105.62595534324646,105.62604546546936,105.62910032272339,105.64386224746704,105.79546403884888,105.79546403884888,105.79546403884888,105.79546403884888,105.79546403884888,105.79546403884888,105.79546403884888,108.96001195907593,2,3.305208683013916,None,,,,,,,,,,,,,,,,,,201,1,2025-03-06_14h43.29.401,comp,2024.2.4,54.15408133885422,2025-03-06 14h43.57.871617 -0500,
15,15,0,filler_random,None,None,None,None,None,None,None,None,None,None,3,5.479047775268555,None,,,,,0,0,0,0,0,15,15,131,108.97605156898499,,,,,,,,,,,,,,,,,,,,,,,,,,,,,,,,,,,,,,,,,,,,,,,,,,,,,,,,,,,,,,,,,,,,,,,,,,,,,,,,,142.66066876026923,76.58938335858161,73.69171930977367,103.45880223463345,195.13746254503897,63.6525134755477,4.0,4.1,-186,-254,0,-16,180,-277,108.96175837516785,108.96184229850769,108.96527481079102,108.97605156898499,109.12632608413696,109.12632608413696,109.12632608413696,109.12632608413696,109.12632608413696,109.12632608413696,109.12632608413696,114.46179413795471,3,5.479047775268555,None,,,,,,,,,,,,,,,,,,201,1,2025-03-06_14h43.29.401,comp,2024.2.4,54.15408133885422,2025-03-06 14h43.57.871617 -0500,
16,16,0,filler_random,None,None,None,None,None,None,None,None,None,None,3,2.927018404006958,None,,,,,0,0,0,0,0,16,16,160,114.47882676124573,,,,,,,,,,,,,,,,,,,,,,,,,,,,,,,,,,,,,,,,,,,,,,,,,,,,,,,,,,,,,,,,,,,,,,,,,,,,,,,,,113.78829194633967,107.37586280088688,78.63945706561618,63.46739416243342,159.56990487119333,83.17405842459102,2.2,2.21,-181,-252,0,266,169,278,114.4635009765625,114.46358013153076,114.46673774719238,114.47882676124573,114.6275622844696,114.6275622844696,114.6275622844696,114.6275622844696,114.6275622844696,114.6275622844696,114.6275622844696,117.41264390945435,3,2.927018404006958,None,,,,,,,,,,,,,,,,,,201,1,2025-03-06_14h43.29.401,comp,2024.2.4,54.15408133885422,2025-03-06 14h43.57.871617 -0500,
17,17,0,critical,dwh,20.0,3.0,upper,141.0,141.0,125.0,200.0,200.0,125.0,2,2.664783239364624,None,,,,,0,0,0,0,0,17,17,69,117.42899203300476,,,,,,,,,,,,,,,,,,,,,,,,,,,,,,,,,,,,,,,,,,,,,,,,,,,,,,,,,,,,,,,,,,,,,,,,,,,,,,,,,141.0,141.0,125.0,200.0,200.0,125.0,3.0,3.1,-266,253,0,-3,258,-286,117.41418528556824,117.41426587104797,117.4177668094635,117.42899203300476,117.58202147483826,117.58202147483826,117.58202147483826,117.58202147483826,117.58202147483826,117.58202147483826,117.58202147483826,120.11208510398865,2,2.664783239364624,None,,,,,,,,,,,,,,,,,,201,1,2025-03-06_14h43.29.401,comp,2024.2.4,54.15408133885422,2025-03-06 14h43.57.871617 -0500,
18,18,0,filler_random,None,None,None,None,None,None,None,None,None,None,1,2.2582194805145264,None,,,,,0,0,0,0,0,18,18,156,120.1316032409668,,,,,,,,,,,,,,,,,,,,,,,,,,,,,,,,,,,,,,,,,,,,,,,,,,,,,,,,,,,,,,,,,,,,,,,,,,,,,,,,,147.7953420112455,173.1478784686957,144.74962965906923,170.85431816102226,146.579642258898,73.02428518025935,2.1,2.11,-268,288,0,285,218,-285,120.11379861831665,120.11394929885864,120.11746430397034,120.1316032409668,120.27925777435303,120.27925777435303,120.27925777435303,120.27925777435303,120.27925777435303,120.27925777435303,120.27925777435303,122.3955864906311,1,2.2582194805145264,None,,,,,,,,,,,,,,,,,,201,1,2025-03-06_14h43.29.401,comp,2024.2.4,54.15408133885422,2025-03-06 14h43.57.871617 -0500,
19,19,0,filler_square,None,None,None,None,None,None,None,None,None,None,3,2.016690969467163,None,,,,,0,0,0,0,0,19,19,174,122.41245436668396,,,,,,,,,,,,,,,,,,,,,,,,,,,,,,,,,,,,,,,,,,,,,,,,,,,,,,,,,,,,,,,,,,,,,,,,,,,,,,,,,101.61086117427325,61.92060515589634,81.69827783137484,87.96070672484734,160.70781372568058,160.70781372568058,2.1,2.11,-171,290,0,284,220,-277,122.39743614196777,122.39751720428467,122.40069675445557,122.41245436668396,122.56836748123169,122.56836748123169,122.56836748123169,122.56836748123169,122.56836748123169,122.56836748123169,122.56836748123169,124.43125414848328,3,2.016690969467163,None,,,,,,,,,,,,,,,,,,201,1,2025-03-06_14h43.29.401,comp,2024.2.4,54.15408133885422,2025-03-06 14h43.57.871617 -0500,
20,20,0,critical,dhw,20.0,2.1,lower,78.0,78.0,133.0,57.0,57.0,133.0,3,3.8140971660614014,None,,,,,0,0,0,0,0,20,20,2,124.44750952720642,,,,,,,,,,,,,,,,,,,,,,,,,,,,,,,,,,,,,,,,,,,,,,,,,,,,,,,,,,,,,,,,,,,,,,,,,,,,,,,,,78.0,78.0,133.0,57.0,57.0,133.0,2.1,2.11,-164,285,0,282,191,-282,124.43297600746155,124.4331226348877,124.43668842315674,124.44750952720642,124.60274815559387,124.60274815559387,124.60274815559387,124.60274815559387,124.60274815559387,124.60274815559387,124.60274815559387,128.2641623020172,3,3.8140971660614014,None,,,,,,,,,,,,,,,,,,201,1,2025-03-06_14h43.29.401,comp,2024.2.4,54.15408133885422,2025-03-06 14h43.57.871617 -0500,
21,21,0,filler_square,None,None,None,None,None,None,None,None,None,None,2,1.9557626247406006,None,,,,,0,0,0,0,0,21,21,172,128.28230118751526,,,,,,,,,,,,,,,,,,,,,,,,,,,,,,,,,,,,,,,,,,,,,,,,,,,,,,,,,,,,,,,,,,,,,,,,,,,,,,,,,67.53235170100453,71.7438366575006,87.00341062947216,87.00341062947216,84.81887029598175,61.77278822776462,4.0,4.2,-175,-18,0,-278,170,-3,128.26622819900513,128.26630997657776,128.2695918083191,128.28230118751526,128.4322521686554,128.4322521686554,128.4322521686554,128.4322521686554,128.4322521686554,128.4322521686554,128.4322521686554,130.24388456344604,2,1.9557626247406006,None,,,,,,,,,,,,,,,,,,201,1,2025-03-06_14h43.29.401,comp,2024.2.4,54.15408133885422,2025-03-06 14h43.57.871617 -0500,
22,22,0,critical,whd,35.0,2.1,lower,57.0,133.0,133.0,57.0,70.0,70.0,1,7.767188787460327,None,,,,,0,0,0,0,0,22,22,12,130.26208424568176,,,,,,,,,,,,,,,,,,,,,,,,,,,,,,,,,,,,,,,,,,,,,,,,,,,,,,,,,,,,,,,,,,,,,,,,,,,,,,,,,57.0,133.0,133.0,57.0,70.0,70.0,2.1,2.12,-191,-253,0,-272,160,254,130.24548864364624,130.24556803703308,130.24889540672302,130.26208424568176,130.39923858642578,130.39923858642578,130.39923858642578,130.39923858642578,130.39923858642578,130.39923858642578,130.39923858642578,138.04241180419922,1,7.767188787460327,None,,,,,,,,,,,,,,,,,,201,1,2025-03-06_14h43.29.401,comp,2024.2.4,54.15408133885422,2025-03-06 14h43.57.871617 -0500,
23,23,0,filler_random,None,None,None,None,None,None,None,None,None,None,1,2.1793341636657715,None,,,,,0,0,0,0,0,23,23,158,138.05801391601562,,,,,,,,,,,,,,,,,,,,,,,,,,,,,,,,,,,,,,,,,,,,,,,,,,,,,,,,,,,,,,,,,,,,,,,,,,,,,,,,,142.28352584096532,123.75825805847032,77.98450845586171,116.65509493565224,78.50568592010298,170.0173519520381,1.0,1.3,264,-288,480,-288,719,-264,138.04411840438843,138.04419922828674,138.04714918136597,138.05801391601562,138.2068271636963,138.2068271636963,138.2068271636963,138.2068271636963,138.2068271636963,138.2068271636963,138.2068271636963,140.25162053108215,1,2.1793341636657715,None,,,,,,,,,,,,,,,,,,201,1,2025-03-06_14h43.29.401,comp,2024.2.4,54.15408133885422,2025-03-06 14h43.57.871617 -0500,
24,24,0,filler_random,None,None,None,None,None,None,None,None,None,None,3,2.117788076400757,None,,,,,0,0,0,0,0,24,24,163,140.27151727676392,,,,,,,,,,,,,,,,,,,,,,,,,,,,,,,,,,,,,,,,,,,,,,,,,,,,,,,,,,,,,,,,,,,,,,,,,,,,,,,,,82.39351936272955,131.26096574199312,163.7607360358414,82.7305101986035,179.3576100177959,97.31561486184563,3.0,3.1,-203,268,0,15,186,-285,140.2533164024353,140.2533938884735,140.25660514831543,140.27151727676392,140.41873383522034,140.41873383522034,140.41873383522034,140.41873383522034,140.41873383522034,140.41873383522034,140.41873383522034,142.40079164505005,3,2.117788076400757,None,,,,,,,,,,,,,,,,,,201,1,2025-03-06_14h43.29.401,comp,2024.2.4,54.15408133885422,2025-03-06 14h43.57.871617 -0500,
25,25,0,filler_square,None,None,None,None,None,None,None,None,None,None,3,1.597057580947876,None,,,,,0,0,0,0,0,25,25,202,142.41682624816895,,,,,,,,,,,,,,,,,,,,,,,,,,,,,,,,,,,,,,,,,,,,,,,,,,,,,,,,,,,,,,,,,,,,,,,,,,,,,,,,,87.39614570039923,65.64478142782512,75.88571197292995,78.26984616213426,96.7919508419424,96.7919508419424,3.0,3.2,-168,-284,0,-7,184,278,142.4025993347168,142.4026744365692,142.40557765960693,142.41682624816895,142.56955790519714,142.56955790519714,142.56955790519714,142.56955790519714,142.56955790519714,142.56955790519714,142.56955790519714,144.01972699165344,3,1.597057580947876,None,,,,,,,,,,,,,,,,,,201,1,2025-03-06_14h43.29.401,comp,2024.2.4,54.15408133885422,2025-03-06 14h43.57.871617 -0500,
26,26,0,filler_square,None,None,None,None,None,None,None,None,None,None,2,1.7556588649749756,None,,,,,0,0,0,0,0,26,26,192,144.04168701171875,,,,,,,,,,,,,,,,,,,,,,,,,,,,,,,,,,,,,,,,,,,,,,,,,,,,,,,,,,,,,,,,,,,,,,,,,,,,,,,,,103.655535681231,59.623588841283244,149.45717252619,149.45717252619,147.07336828378033,138.1325380997567,4.0,4.2,-201,-9,0,-260,240,-3,144.02173280715942,144.02181267738342,144.02511429786682,144.04168701171875,144.18603801727295,144.18603801727295,144.18603801727295,144.18603801727295,144.18603801727295,144.18603801727295,144.18603801727295,145.81313753128052,2,1.7556588649749756,None,,,,,,,,,,,,,,,,,,201,1,2025-03-06_14h43.29.401,comp,2024.2.4,54.15408133885422,2025-03-06 14h43.57.871617 -0500,
27,27,0,filler_random,None,None,None,None,None,None,None,None,None,None,3,1.6762597560882568,None,,,,,0,0,0,0,0,27,27,151,145.83302855491638,,,,,,,,,,,,,,,,,,,,,,,,,,,,,,,,,,,,,,,,,,,,,,,,,,,,,,,,,,,,,,,,,,,,,,,,,,,,,,,,,74.00412389149663,83.58779242178008,90.21425220093376,149.83471287206675,166.48336439832696,192.1842360049351,4.0,4.2,-213,19,0,-265,267,-14,145.81478190422058,145.8148627281189,145.8178026676178,145.83302855491638,145.96746826171875,145.96746826171875,145.96746826171875,145.96746826171875,145.96746826171875,145.96746826171875,145.96746826171875,147.52300024032593,3,1.6762597560882568,None,,,,,,,,,,,,,,,,,,201,1,2025-03-06_14h43.29.401,comp,2024.2.4,54.15408133885422,2025-03-06 14h43.57.871617 -0500,
28,28,0,critical,hdw,20.0,4.0,upper,200.0,125.0,141.0,141.0,125.0,200.0,1,1.9705581665039062,None,,,,,0,0,0,0,0,28,28,119,147.5388379096985,,,,,,,,,,,,,,,,,,,,,,,,,,,,,,,,,,,,,,,,,,,,,,,,,,,,,,,,,,,,,,,,,,,,,,,,,,,,,,,,,200.0,125.0,141.0,141.0,125.0,200.0,4.0,4.1,-229,-284,0,8,266,-261,147.52470016479492,147.52483558654785,147.52843308448792,147.5388379096985,147.67603158950806,147.67603158950806,147.67603158950806,147.67603158950806,147.67603158950806,147.67603158950806,147.67603158950806,149.52183508872986,1,1.9705581665039062,None,,,,,,,,,,,,,,,,,,201,1,2025-03-06_14h43.29.401,comp,2024.2.4,54.15408133885422,2025-03-06 14h43.57.871617 -0500,
29,29,0,filler_random,None,None,None,None,None,None,None,None,None,None,3,2.012887954711914,None,,,,,0,0,0,0,0,29,29,165,149.53721117973328,,,,,,,,,,,,,,,,,,,,,,,,,,,,,,,,,,,,,,,,,,,,,,,,,,,,,,,,,,,,,,,,,,,,,,,,,,,,,,,,,84.68732094588037,172.09352225305895,75.41733511849188,109.99315613163435,112.36697478207527,91.19121977026887,4.0,4.1,-237,-288,0,-4,197,-267,149.5235574245453,149.5236370563507,149.52688097953796,149.53721117973328,149.68909859657288,149.68909859657288,149.68909859657288,149.68909859657288,149.68909859657288,149.68909859657288,149.68909859657288,151.55594968795776,3,2.012887954711914,None,,,,,,,,,,,,,,,,,,201,1,2025-03-06_14h43.29.401,comp,2024.2.4,54.15408133885422,2025-03-06 14h43.57.871617 -0500,
30,30,0,critical,dhw,20.0,2.1,lower,78.0,78.0,133.0,57.0,57.0,133.0,1,3.2806832790374756,None,,,,,0,0,0,0,0,30,30,26,151.57258653640747,,,,,,,,,,,,,,,,,,,,,,,,,,,,,,,,,,,,,,,,,,,,,,,,,,,,,,,,,,,,,,,,,,,,,,,,,,,,,,,,,78.0,78.0,133.0,57.0,57.0,133.0,2.1,2.12,-164,-283,0,-286,191,256,151.55754590034485,151.55762600898743,151.56105041503906,151.57258653640747,151.72272658348083,151.72272658348083,151.72272658348083,151.72272658348083,151.72272658348083,151.72272658348083,151.72272658348083,154.85657238960266,1,3.2806832790374756,None,,,,,,,,,,,,,,,,,,201,1,2025-03-06_14h43.29.401,comp,2024.2.4,54.15408133885422,2025-03-06 14h43.57.871617 -0500,
31,31,0,filler_random,None,None,None,None,None,None,None,None,None,None,3,1.7488374710083008,None,,,,,0,0,0,0,0,31,31,167,154.8723599910736,,,,,,,,,,,,,,,,,,,,,,,,,,,,,,,,,,,,,,,,,,,,,,,,,,,,,,,,,,,,,,,,,,,,,,,,,,,,,,,,,108.63272957076407,64.07536677330758,64.79692899654194,164.3996157421011,182.67112444811937,143.39173989794494,2.1,2.12,-210,-261,0,-267,250,273,154.8582820892334,154.8583607673645,154.86157202720642,154.8723599910736,155.0223081111908,155.0223081111908,155.0223081111908,155.0223081111908,155.0223081111908,155.0223081111908,155.0223081111908,156.62394165992737,3,1.7488374710083008,None,,,,,,,,,,,,,,,,,,201,1,2025-03-06_14h43.29.401,comp,2024.2.4,54.15408133885422,2025-03-06 14h43.57.871617 -0500,
32,32,0,filler_square,None,None,None,None,None,None,None,None,None,None,2,1.8939313888549805,None,,,,,0,0,0,0,0,32,32,184,156.64016938209534,,,,,,,,,,,,,,,,,,,,,,,,,,,,,,,,,,,,,,,,,,,,,,,,,,,,,,,,,,,,,,,,,,,,,,,,,,,,,,,,,99.65135312128481,88.81041154373199,106.52168600387742,106.52168600387742,88.96999896090462,90.1117363668852,2.2,2.21,-194,-286,0,254,194,284,156.625807762146,156.62588810920715,156.62930941581726,156.64016938209534,156.78818249702454,156.78818249702454,156.78818249702454,156.78818249702454,156.78818249702454,156.78818249702454,156.78818249702454,158.54314303398132,2,1.8939313888549805,None,,,,,,,,,,,,,,,,,,201,1,2025-03-06_14h43.29.401,comp,2024.2.4,54.15408133885422,2025-03-06 14h43.57.871617 -0500,
33,33,0,critical,hdw,35.0,1.0,lower,133.0,57.0,70.0,70.0,57.0,133.0,3,4.46931004524231,None,,,,,0,0,0,0,0,33,33,108,158.55991101264954,,,,,,,,,,,,,,,,,,,,,,,,,,,,,,,,,,,,,,,,,,,,,,,,,,,,,,,,,,,,,,,,,,,,,,,,,,,,,,,,,133.0,57.0,70.0,70.0,57.0,133.0,1.0,1.3,320,-287,480,-255,678,-260,158.5450541973114,158.54514002799988,158.5491018295288,158.55991101264954,158.71078157424927,158.71078157424927,158.71078157424927,158.71078157424927,158.71078157424927,158.71078157424927,158.71078157424927,163.0435037612915,3,4.46931004524231,None,,,,,,,,,,,,,,,,,,201,1,2025-03-06_14h43.29.401,comp,2024.2.4,54.15408133885422,2025-03-06 14h43.57.871617 -0500,
34,34,0,filler_random,None,None,None,None,None,None,None,None,None,None,3,1.6017484664916992,None,,,,,0,0,0,0,0,34,34,162,163.05944919586182,,,,,,,,,,,,,,,,,,,,,,,,,,,,,,,,,,,,,,,,,,,,,,,,,,,,,,,,,,,,,,,,,,,,,,,,,,,,,,,,,161.77001854380674,65.2012421805572,104.88196051438237,132.08166591117453,190.52758793292557,165.51291752019452,3.0,3.2,-195,-262,0,-19,245,261,163.04539155960083,163.04547262191772,163.04900932312012,163.05944919586182,163.20946383476257,163.20946383476257,163.20946383476257,163.20946383476257,163.20946383476257,163.20946383476257,163.20946383476257,164.67811012268066,3,1.6017484664916992,None,,,,,,,,,,,,,,,,,,201,1,2025-03-06_14h43.29.401,comp,2024.2.4,54.15408133885422,2025-03-06 14h43.57.871617 -0500,
35,35,0,filler_square,None,None,None,None,None,None,None,None,None,None,3,5.022680759429932,None,,,,,0,0,0,0,0,35,35,176,164.69448709487915,,,,,,,,,,,,,,,,,,,,,,,,,,,,,,,,,,,,,,,,,,,,,,,,,,,,,,,,,,,,,,,,,,,,,,,,,,,,,,,,,57.99003124033144,58.3276576176646,58.74701477001194,58.74701477001194,58.05106331283753,57.07366557318675,4.0,4.1,-155,-255,0,15,154,-255,164.680335521698,164.6804163455963,164.6840889453888,164.69448709487915,164.84275650978088,164.84275650978088,164.84275650978088,164.84275650978088,164.84275650978088,164.84275650978088,164.84275650978088,169.7285430431366,3,5.022680759429932,None,,,,,,,,,,,,,,,,,,201,1,2025-03-06_14h43.29.401,comp,2024.2.4,54.15408133885422,2025-03-06 14h43.57.871617 -0500,
36,36,0,critical,dhw,20.0,2.1,upper,141.0,141.0,200.0,125.0,125.0,200.0,3,2.8761796951293945,None,,,,,0,0,0,0,0,36,36,27,169.75346875190735,,,,,,,,,,,,,,,,,,,,,,,,,,,,,,,,,,,,,,,,,,,,,,,,,,,,,,,,,,,,,,,,,,,,,,,,,,,,,,,,,141.0,141.0,200.0,125.0,125.0,200.0,2.1,2.11,-229,262,0,277,258,-251,169.73008799552917,169.73016834259033,169.7333996295929,169.75346875190735,169.89532804489136,169.89532804489136,169.89532804489136,169.89532804489136,169.89532804489136,169.89532804489136,169.89532804489136,172.63171553611755,3,2.8761796951293945,None,,,,,,,,,,,,,,,,,,201,1,2025-03-06_14h43.29.401,comp,2024.2.4,54.15408133885422,2025-03-06 14h43.57.871617 -0500,
37,37,0,critical,wdh,35.0,3.0,upper,125.0,200.0,127.0,127.0,200.0,125.0,1,4.764936208724976,None,,,,,0,0,0,0,0,37,37,75,172.6482560634613,,,,,,,,,,,,,,,,,,,,,,,,,,,,,,,,,,,,,,,,,,,,,,,,,,,,,,,,,,,,,,,,,,,,,,,,,,,,,,,,,125.0,200.0,127.0,127.0,200.0,125.0,3.0,3.2,-260,-262,0,14,222,270,172.6337080001831,172.63384318351746,172.63741636276245,172.6482560634613,172.795640707016,172.795640707016,172.795640707016,172.795640707016,172.795640707016,172.795640707016,172.795640707016,177.42581248283386,1,4.764936208724976,None,,,,,,,,,,,,,,,,,,201,1,2025-03-06_14h43.29.401,comp,2024.2.4,54.15408133885422,2025-03-06 14h43.57.871617 -0500,
38,38,0,filler_square,None,None,None,None,None,None,None,None,None,None,1,4.68923544883728,None,,,,,0,0,0,0,0,38,38,190,177.4439730644226,,,,,,,,,,,,,,,,,,,,,,,,,,,,,,,,,,,,,,,,,,,,,,,,,,,,,,,,,,,,,,,,,,,,,,,,,,,,,,,,,109.32057704337154,109.32057704337154,102.64856900361215,95.82350733228105,108.1965383556751,60.77447911694447,1.0,1.3,281,-279,480,-259,654,-256,177.42773842811584,177.427818775177,177.43078637123108,177.4439730644226,177.5805060863495,177.5805060863495,177.5805060863495,177.5805060863495,177.5805060863495,177.5805060863495,177.5805060863495,182.15207242965698,1,4.68923544883728,None,,,,,,,,,,,,,,,,,,201,1,2025-03-06_14h43.29.401,comp,2024.2.4,54.15408133885422,2025-03-06 14h43.57.871617 -0500,
39,39,0,critical,hdw,20.0,1.0,lower,133.0,57.0,78.0,78.0,57.0,133.0,2,2.864884614944458,None,,,,,0,0,0,0,0,39,39,114,182.17269706726074,,,,,,,,,,,,,,,,,,,,,,,,,,,,,,,,,,,,,,,,,,,,,,,,,,,,,,,,,,,,,,,,,,,,,,,,,,,,,,,,,133.0,57.0,78.0,78.0,57.0,133.0,1.0,1.3,316,-288,480,-258,682,-263,182.15368700027466,182.15381050109863,182.1574101448059,182.17269706726074,182.317884683609,182.317884683609,182.317884683609,182.317884683609,182.317884683609,182.317884683609,182.317884683609,185.05461144447327,2,2.864884614944458,None,,,,,,,,,,,,,,,,,,201,1,2025-03-06_14h43.29.401,comp,2024.2.4,54.15408133885422,2025-03-06 14h43.57.871617 -0500,
40,40,0,critical,whd,20.0,3.0,upper,125.0,200.0,200.0,125.0,141.0,141.0,3,2.659114122390747,None,,,,,0,0,0,0,0,40,40,93,185.07465076446533,,,,,,,,,,,,,,,,,,,,,,,,,,,,,,,,,,,,,,,,,,,,,,,,,,,,,,,,,,,,,,,,,,,,,,,,,,,,,,,,,125.0,200.0,200.0,125.0,141.0,141.0,3.0,3.1,-258,289,0,-4,229,-289,185.0562925338745,185.05639672279358,185.05981826782227,185.07465076446533,185.21605491638184,185.21605491638184,185.21605491638184,185.21605491638184,185.21605491638184,185.21605491638184,185.21605491638184,187.75061321258545,3,2.659114122390747,None,,,,,,,,,,,,,,,,,,201,1,2025-03-06_14h43.29.401,comp,2024.2.4,54.15408133885422,2025-03-06 14h43.57.871617 -0500,
41,41,0,filler_random,None,None,None,None,None,None,None,None,None,None,2,1.846736192703247,None,,,,,0,0,0,0,0,41,41,138,187.76734232902527,,,,,,,,,,,,,,,,,,,,,,,,,,,,,,,,,,,,,,,,,,,,,,,,,,,,,,,,,,,,,,,,,,,,,,,,,,,,,,,,,62.46186008954587,173.09609306674716,175.59745241612688,155.22796969939463,146.94076485078915,70.1746148786322,2.2,2.21,-260,-252,0,282,209,281,187.75234699249268,187.75242567062378,187.75659108161926,187.76734232902527,187.92133140563965,187.92133140563965,187.92133140563965,187.92133140563965,187.92133140563965,187.92133140563965,187.92133140563965,189.61799478530884,2,1.846736192703247,None,,,,,,,,,,,,,,,,,,201,1,2025-03-06_14h43.29.401,comp,2024.2.4,54.15408133885422,2025-03-06 14h43.57.871617 -0500,
42,42,0,critical,wdh,35.0,3.0,lower,57.0,133.0,70.0,70.0,133.0,57.0,1,5.547596454620361,None,,,,,0,0,0,0,0,42,42,74,189.63376879692078,,,,,,,,,,,,,,,,,,,,,,,,,,,,,,,,,,,,,,,,,,,,,,,,,,,,,,,,,,,,,,,,,,,,,,,,,,,,,,,,,57.0,133.0,70.0,70.0,133.0,57.0,3.0,3.2,-198,-268,0,16,160,267,189.61966586112976,189.61980438232422,189.62220525741577,189.63376879692078,189.7893466949463,189.7893466949463,189.7893466949463,189.7893466949463,189.7893466949463,189.7893466949463,189.7893466949463,195.19579029083252,1,5.547596454620361,None,,,,,,,,,,,,,,,,,,201,1,2025-03-06_14h43.29.401,comp,2024.2.4,54.15408133885422,2025-03-06 14h43.57.871617 -0500,
43,43,0,critical,whd,20.0,1.0,lower,57.0,133.0,133.0,57.0,78.0,78.0,3,4.927990436553955,None,,,,,0,0,0,0,0,43,43,90,195.21386075019836,,,,,,,,,,,,,,,,,,,,,,,,,,,,,,,,,,,,,,,,,,,,,,,,,,,,,,,,,,,,,,,,,,,,,,,,,,,,,,,,,57.0,133.0,133.0,57.0,78.0,78.0,1.0,1.3,289,-265,480,-273,644,-280,195.19736123085022,195.19744157791138,195.2004566192627,195.21386075019836,195.35338401794434,195.35338401794434,195.35338401794434,195.35338401794434,195.35338401794434,195.35338401794434,195.35338401794434,200.1582887172699,3,4.927990436553955,None,,,,,,,,,,,,,,,,,,201,1,2025-03-06_14h43.29.401,comp,2024.2.4,54.15408133885422,2025-03-06 14h43.57.871617 -0500,
44,44,0,critical,hdw,20.0,2.1,lower,133.0,57.0,78.0,78.0,57.0,133.0,2,4.8909220695495605,None,,,,,0,0,0,0,0,44,44,46,200.17897009849548,,,,,,,,,,,,,,,,,,,,,,,,,,,,,,,,,,,,,,,,,,,,,,,,,,,,,,,,,,,,,,,,,,,,,,,,,,,,,,,,,133.0,57.0,78.0,78.0,57.0,133.0,2.1,2.11,-164,260,0,278,202,-275,200.15989208221436,200.16005396842957,200.1636712551117,200.17897009849548,200.326833486557,200.326833486557,200.326833486557,200.326833486557,200.326833486557,200.326833486557,200.326833486557,205.0765323638916,2,4.8909220695495605,None,,,,,,,,,,,,,,,,,,201,1,2025-03-06_14h43.29.401,comp,2024.2.4,54.15408133885422,2025-03-06 14h43.57.871617 -0500,
45,45,0,critical,wdh,20.0,2.1,lower,57.0,133.0,78.0,78.0,133.0,57.0,2,1.8486216068267822,None,,,,,0,0,0,0,0,45,45,34,205.09268307685852,,,,,,,,,,,,,,,,,,,,,,,,,,,,,,,,,,,,,,,,,,,,,,,,,,,,,,,,,,,,,,,,,,,,,,,,,,,,,,,,,57.0,133.0,78.0,78.0,133.0,57.0,2.1,2.12,-202,-276,0,-252,164,261,205.07825994491577,205.07839822769165,205.08189868927002,205.09268307685852,205.23836374282837,205.23836374282837,205.23836374282837,205.23836374282837,205.23836374282837,205.23836374282837,205.23836374282837,206.9559772014618,2,1.8486216068267822,None,,,,,,,,,,,,,,,,,,201,1,2025-03-06_14h43.29.401,comp,2024.2.4,54.15408133885422,2025-03-06 14h43.57.871617 -0500,
46,46,0,filler_square,None,None,None,None,None,None,None,None,None,None,3,3.055083751678467,None,,,,,0,0,0,0,0,46,46,209,206.9741690158844,,,,,,,,,,,,,,,,,,,,,,,,,,,,,,,,,,,,,,,,,,,,,,,,,,,,,,,,,,,,,,,,,,,,,,,,,,,,,,,,,123.90171218316969,139.5420321343622,158.6828598272752,158.22897623562034,192.21167327560448,192.21167327560448,4.0,4.1,-245,-264,0,-2,271,-262,206.9579005241394,206.95806550979614,206.96135640144348,206.9741690158844,207.12402033805847,207.12402033805847,207.12402033805847,207.12402033805847,207.12402033805847,207.12402033805847,207.12402033805847,210.0399055480957,3,3.055083751678467,None,,,,,,,,,,,,,,,,,,201,1,2025-03-06_14h43.29.401,comp,2024.2.4,54.15408133885422,2025-03-06 14h43.57.871617 -0500,
47,47,0,critical,dwh,20.0,2.1,lower,78.0,78.0,57.0,133.0,133.0,57.0,1,6.301038503646851,None,,,,,0,0,0,0,0,47,47,30,210.0561752319336,,,,,,,,,,,,,,,,,,,,,,,,,,,,,,,,,,,,,,,,,,,,,,,,,,,,,,,,,,,,,,,,,,,,,,,,,,,,,,,,,78.0,78.0,57.0,133.0,133.0,57.0,2.1,2.11,-202,262,0,278,191,-265,210.04149723052979,210.04157757759094,210.04470348358154,210.0561752319336,210.20832204818726,210.20832204818726,210.20832204818726,210.20832204818726,210.20832204818726,210.20832204818726,210.20832204818726,216.3747878074646,1,6.301038503646851,None,,,,,,,,,,,,,,,,,,201,1,2025-03-06_14h43.29.401,comp,2024.2.4,54.15408133885422,2025-03-06 14h43.57.871617 -0500,
48,48,0,critical,whd,35.0,2.1,lower,57.0,133.0,133.0,57.0,70.0,70.0,2,8.66890573501587,None,,,,,0,0,0,0,0,48,48,36,216.3923318386078,,,,,,,,,,,,,,,,,,,,,,,,,,,,,,,,,,,,,,,,,,,,,,,,,,,,,,,,,,,,,,,,,,,,,,,,,,,,,,,,,57.0,133.0,133.0,57.0,70.0,70.0,2.1,2.11,-191,264,0,268,160,-277,216.37633967399597,216.3764169216156,216.37967777252197,216.3923318386078,216.5429105758667,216.5429105758667,216.5429105758667,216.5429105758667,216.5429105758667,216.5429105758667,216.5429105758667,225.07816123962402,2,8.66890573501587,None,,,,,,,,,,,,,,,,,,201,1,2025-03-06_14h43.29.401,comp,2024.2.4,54.15408133885422,2025-03-06 14h43.57.871617 -0500,
49,49,0,critical,dhw,35.0,2.1,upper,127.0,127.0,200.0,125.0,125.0,200.0,2,3.8544931411743164,None,,,,,0,0,0,0,0,49,49,25,225.09485054016113,,,,,,,,,,,,,,,,,,,,,,,,,,,,,,,,,,,,,,,,,,,,,,,,,,,,,,,,,,,,,,,,,,,,,,,,,,,,,,,,,127.0,127.0,200.0,125.0,125.0,200.0,2.1,2.11,-222,262,0,275,258,-264,225.0799000263214,225.08009219169617,225.0834982395172,225.09485054016113,225.24839806556702,225.24839806556702,225.24839806556702,225.24839806556702,225.24839806556702,225.24839806556702,225.24839806556702,228.96640372276306,2,3.8544931411743164,None,,,,,,,,,,,,,,,,,,201,1,2025-03-06_14h43.29.401,comp,2024.2.4,54.15408133885422,2025-03-06 14h43.57.871617 -0500,
50,50,0,critical,hdw,35.0,2.1,upper,200.0,125.0,127.0,127.0,125.0,200.0,3,4.408568382263184,None,,,,,0,0,0,0,0,50,50,45,228.98288011550903,,,,,,,,,,,,,,,,,,,,,,,,,,,,,,,,,,,,,,,,,,,,,,,,,,,,,,,,,,,,,,,,,,,,,,,,,,,,,,,,,200.0,125.0,127.0,127.0,125.0,200.0,2.1,2.12,-222,-285,0,-260,260,258,228.9682011604309,228.968327999115,228.97167372703552,228.98288011550903,229.12990522384644,229.12990522384644,229.12990522384644,229.12990522384644,229.12990522384644,229.12990522384644,229.12990522384644,233.39656352996826,3,4.408568382263184,None,,,,,,,,,,,,,,,,,,201,1,2025-03-06_14h43.29.401,comp,2024.2.4,54.15408133885422,2025-03-06 14h43.57.871617 -0500,
51,51,0,critical,wdh,20.0,2.1,upper,125.0,200.0,141.0,141.0,200.0,125.0,2,12.160809755325317,None,,,,,0,0,0,0,0,51,51,11,233.41335010528564,,,,,,,,,,,,,,,,,,,,,,,,,,,,,,,,,,,,,,,,,,,,,,,,,,,,,,,,,,,,,,,,,,,,,,,,,,,,,,,,,125.0,200.0,141.0,141.0,200.0,125.0,2.1,2.11,-266,256,0,260,229,-278,233.3981900215149,233.39829206466675,233.40157175064087,233.41335010528564,233.5641634464264,233.5641634464264,233.5641634464264,233.5641634464264,233.5641634464264,233.5641634464264,233.5641634464264,245.58027410507202,2,12.160809755325317,None,,,,,,,,,,,,,,,,,,201,1,2025-03-06_14h43.29.401,comp,2024.2.4,54.15408133885422,2025-03-06 14h43.57.871617 -0500,
52,52,0,filler_square,None,None,None,None,None,None,None,None,None,None,2,1.6479544639587402,None,,,,,0,0,0,0,0,52,52,175,245.59818863868713,,,,,,,,,,,,,,,,,,,,,,,,,,,,,,,,,,,,,,,,,,,,,,,,,,,,,,,,,,,,,,,,,,,,,,,,,,,,,,,,,79.49839889897125,74.38548633062187,121.7222282967186,121.7222282967186,62.710891660209185,95.3477846467533,1.0,1.1,-674,261,-480,252,-275,280,245.5820450782776,245.58212757110596,245.58508038520813,245.59818863868713,245.7357943058014,245.7357943058014,245.7357943058014,245.7357943058014,245.7357943058014,245.7357943058014,245.7357943058014,247.253347158432,2,1.6479544639587402,None,,,,,,,,,,,,,,,,,,201,1,2025-03-06_14h43.29.401,comp,2024.2.4,54.15408133885422,2025-03-06 14h43.57.871617 -0500,
53,53,0,filler_square,None,None,None,None,None,None,None,None,None,None,2,1.7660729885101318,None,,,,,0,0,0,0,0,53,53,191,247.2712767124176,,,,,,,,,,,,,,,,,,,,,,,,,,,,,,,,,,,,,,,,,,,,,,,,,,,,,,,,,,,,,,,,,,,,,,,,,,,,,,,,,97.45260595994112,74.4373296852132,109.3800758567625,109.3800758567625,60.93056694495339,99.31958026407719,4.0,4.1,-188,-284,0,-1,200,-289,247.25514888763428,247.2552535533905,247.25827407836914,247.2712767124176,247.41916871070862,247.41916871070862,247.41916871070862,247.41916871070862,247.41916871070862,247.41916871070862,247.41916871070862,249.05378699302673,2,1.7660729885101318,None,,,,,,,,,,,,,,,,,,201,1,2025-03-06_14h43.29.401,comp,2024.2.4,54.15408133885422,2025-03-06 14h43.57.871617 -0500,
54,54,0,critical,whd,35.0,3.0,lower,57.0,133.0,133.0,57.0,70.0,70.0,2,4.11205792427063,None,,,,,0,0,0,0,0,54,54,86,249.06976580619812,,,,,,,,,,,,,,,,,,,,,,,,,,,,,,,,,,,,,,,,,,,,,,,,,,,,,,,,,,,,,,,,,,,,,,,,,,,,,,,,,57.0,133.0,133.0,57.0,70.0,70.0,3.0,3.2,-191,-252,0,5,160,284,249.05531477928162,249.0553925037384,249.0594425201416,249.06976580619812,249.22042274475098,249.22042274475098,249.22042274475098,249.22042274475098,249.22042274475098,249.22042274475098,249.22042274475098,253.18679547309875,2,4.11205792427063,None,,,,,,,,,,,,,,,,,,201,1,2025-03-06_14h43.29.401,comp,2024.2.4,54.15408133885422,2025-03-06 14h43.57.871617 -0500,
55,55,0,filler_square,None,None,None,None,None,None,None,None,None,None,2,1.2963604927062988,None,,,,,0,0,0,0,0,55,55,197,253.2048966884613,,,,,,,,,,,,,,,,,,,,,,,,,,,,,,,,,,,,,,,,,,,,,,,,,,,,,,,,,,,,,,,,,,,,,,,,,,,,,,,,,86.03808614693375,80.60262716212833,88.60489638665253,88.60489638665253,71.59669590323526,78.16065686470711,2.2,2.22,-181,267,0,-259,179,-254,253.1886384487152,253.1887173652649,253.1917805671692,253.2048966884613,253.3643341064453,253.3643341064453,253.3643341064453,253.3643341064453,253.3643341064453,253.3643341064453,253.3643341064453,254.51522302627563,2,1.2963604927062988,None,,,,,,,,,,,,,,,,,,201,1,2025-03-06_14h43.29.401,comp,2024.2.4,54.15408133885422,2025-03-06 14h43.57.871617 -0500,
56,56,0,critical,hwd,35.0,1.0,lower,133.0,57.0,57.0,133.0,70.0,70.0,2,3.0351338386535645,None,,,,,0,0,0,0,0,56,56,96,254.53114581108093,,,,,,,,,,,,,,,,,,,,,,,,,,,,,,,,,,,,,,,,,,,,,,,,,,,,,,,,,,,,,,,,,,,,,,,,,,,,,,,,,133.0,57.0,57.0,133.0,70.0,70.0,1.0,1.3,289,-268,480,-271,678,-285,254.51675367355347,254.5168333053589,254.51982188224792,254.53114581108093,254.6738476753235,254.6738476753235,254.6738476753235,254.6738476753235,254.6738476753235,254.6738476753235,254.6738476753235,257.5724866390228,2,3.0351338386535645,None,,,,,,,,,,,,,,,,,,201,1,2025-03-06_14h43.29.401,comp,2024.2.4,54.15408133885422,2025-03-06 14h43.57.871617 -0500,
57,57,0,critical,wdh,20.0,3.0,lower,57.0,133.0,78.0,78.0,133.0,57.0,3,3.5850632190704346,None,,,,,0,0,0,0,0,57,57,80,257.58849000930786,,,,,,,,,,,,,,,,,,,,,,,,,,,,,,,,,,,,,,,,,,,,,,,,,,,,,,,,,,,,,,,,,,,,,,,,,,,,,,,,,57.0,133.0,78.0,78.0,133.0,57.0,3.0,3.2,-202,-253,0,6,164,278,257.5739891529083,257.57407093048096,257.5775480270386,257.58849000930786,257.74538397789,257.74538397789,257.74538397789,257.74538397789,257.74538397789,257.74538397789,257.74538397789,261.18962264060974,3,3.5850632190704346,None,,,,,,,,,,,,,,,,,,201,1,2025-03-06_14h43.29.401,comp,2024.2.4,54.15408133885422,2025-03-06 14h43.57.871617 -0500,
58,58,0,critical,whd,35.0,2.1,upper,125.0,200.0,200.0,125.0,127.0,127.0,2,2.799631357192993,None,,,,,0,0,0,0,0,58,58,13,261.2057113647461,,,,,,,,,,,,,,,,,,,,,,,,,,,,,,,,,,,,,,,,,,,,,,,,,,,,,,,,,,,,,,,,,,,,,,,,,,,,,,,,,125.0,200.0,200.0,125.0,127.0,127.0,2.1,2.11,-258,280,0,256,222,-289,261.1911509037018,261.1912295818329,261.1944258213043,261.2057113647461,261.359623670578,261.359623670578,261.359623670578,261.359623670578,261.359623670578,261.359623670578,261.359623670578,264.00765657424927,2,2.799631357192993,None,,,,,,,,,,,,,,,,,,201,1,2025-03-06_14h43.29.401,comp,2024.2.4,54.15408133885422,2025-03-06 14h43.57.871617 -0500,
59,59,0,critical,dwh,35.0,2.1,lower,70.0,70.0,57.0,133.0,133.0,57.0,1,3.2464897632598877,None,,,,,0,0,0,0,0,59,59,4,264.02379608154297,,,,,,,,,,,,,,,,,,,,,,,,,,,,,,,,,,,,,,,,,,,,,,,,,,,,,,,,,,,,,,,,,,,,,,,,,,,,,,,,,70.0,70.0,57.0,133.0,133.0,57.0,2.1,2.12,-198,-278,0,-268,191,288,264.0093266963959,264.0094041824341,264.01299953460693,264.02379608154297,264.1806061267853,264.1806061267853,264.1806061267853,264.1806061267853,264.1806061267853,264.1806061267853,264.1806061267853,267.27763080596924,1,3.2464897632598877,None,,,,,,,,,,,,,,,,,,201,1,2025-03-06_14h43.29.401,comp,2024.2.4,54.15408133885422,2025-03-06 14h43.57.871617 -0500,
60,60,0,critical,wdh,20.0,2.1,upper,125.0,200.0,141.0,141.0,200.0,125.0,2,6.350827693939209,None,,,,,0,0,0,0,0,60,60,35,267.2947461605072,,,,,,,,,,,,,,,,,,,,,,,,,,,,,,,,,,,,,,,,,,,,,,,,,,,,,,,,,,,,,,,,,,,,,,,,,,,,,,,,,125.0,200.0,141.0,141.0,200.0,125.0,2.1,2.12,-266,-277,0,-279,229,260,267.27928042411804,267.2793982028961,267.2829794883728,267.2947461605072,267.44756031036377,267.44756031036377,267.44756031036377,267.44756031036377,267.44756031036377,267.44756031036377,267.44756031036377,273.65136098861694,2,6.350827693939209,None,,,,,,,,,,,,,,,,,,201,1,2025-03-06_14h43.29.401,comp,2024.2.4,54.15408133885422,2025-03-06 14h43.57.871617 -0500,
61,61,0,filler_square,None,None,None,None,None,None,None,None,None,None,2,1.167884349822998,None,,,,,0,0,0,0,0,61,61,179,273.66988229751587,,,,,,,,,,,,,,,,,,,,,,,,,,,,,,,,,,,,,,,,,,,,,,,,,,,,,,,,,,,,,,,,,,,,,,,,,,,,,,,,,112.34142564511774,100.7500354362009,157.43393120459316,157.43393120459316,84.18554944723786,139.60252974676064,2.1,2.11,-225,265,0,254,245,-255,273.65339374542236,273.65347385406494,273.65676522254944,273.66988229751587,273.8088262081146,273.8088262081146,273.8088262081146,273.8088262081146,273.8088262081146,273.8088262081146,273.8088262081146,274.8453185558319,2,1.167884349822998,None,,,,,,,,,,,,,,,,,,201,1,2025-03-06_14h43.29.401,comp,2024.2.4,54.15408133885422,2025-03-06 14h43.57.871617 -0500,
62,62,0,catch,None,None,None,None,None,None,None,None,None,None,2,1.735344409942627,None,,,,,0,0,0,0,0,62,62,129,274.8620662689209,,,,,,,,,,,,,,,,,,,,,,,,,,,,,,,,,,,,,,,,,,,,,,,,,,,,,,,,,,,,,,,,,,,,,,,,,,,,,,,,,91,99,150,175,79,111,3.0,3.1,-233,282,0,-13,239,-253,274.84729075431824,274.8474245071411,274.851366519928,274.8620662689209,275.00927472114563,275.00927472114563,275.00927472114563,275.00927472114563,275.00927472114563,275.00927472114563,275.00927472114563,276.61466813087463,2,1.735344409942627,None,,,,,,,,,,,,,,,,,,201,1,2025-03-06_14h43.29.401,comp,2024.2.4,54.15408133885422,2025-03-06 14h43.57.871617 -0500,
63,63,0,filler_square,None,None,None,None,None,None,None,None,None,None,1,1.4054672718048096,None,,,,,0,0,0,0,0,63,63,177,276.63270378112793,,,,,,,,,,,,,,,,,,,,,,,,,,,,,,,,,,,,,,,,,,,,,,,,,,,,,,,,,,,,,,,,,,,,,,,,,,,,,,,,,161.37704795193116,161.37704795193116,94.13184633874508,87.25251010624605,74.39576377215292,110.22620717609135,4.0,4.1,-220,-257,0,7,195,-264,276.6166150569916,276.61670780181885,276.6198492050171,276.63270378112793,276.77832317352295,276.77832317352295,276.77832317352295,276.77832317352295,276.77832317352295,276.77832317352295,276.77832317352295,278.0478286743164,1,1.4054672718048096,None,,,,,,,,,,,,,,,,,,201,1,2025-03-06_14h43.29.401,comp,2024.2.4,54.15408133885422,2025-03-06 14h43.57.871617 -0500,
64,64,0,critical,dwh,35.0,1.0,upper,127.0,127.0,125.0,200.0,200.0,125.0,2,3.58978533744812,None,,,,,0,0,0,0,0,64,64,61,278.0635652542114,,,,,,,,,,,,,,,,,,,,,,,,,,,,,,,,,,,,,,,,,,,,,,,,,,,,,,,,,,,,,,,,,,,,,,,,,,,,,,,,,127.0,127.0,125.0,200.0,200.0,125.0,1.0,1.3,220,-274,480,-272,738,-276,278.0495147705078,278.04959511756897,278.05274772644043,278.0635652542114,278.2128448486328,278.2128448486328,278.2128448486328,278.2128448486328,278.2128448486328,278.2128448486328,278.2128448486328,281.66854596138,2,3.58978533744812,None,,,,,,,,,,,,,,,,,,201,1,2025-03-06_14h43.29.401,comp,2024.2.4,54.15408133885422,2025-03-06 14h43.57.871617 -0500,
65,65,0,critical,whd,35.0,1.0,upper,125.0,200.0,200.0,125.0,127.0,127.0,2,2.625396728515625,None,,,,,0,0,0,0,0,65,65,85,281.6843457221985,,,,,,,,,,,,,,,,,,,,,,,,,,,,,,,,,,,,,,,,,,,,,,,,,,,,,,,,,,,,,,,,,,,,,,,,,,,,,,,,,125.0,200.0,200.0,125.0,127.0,127.0,1.0,1.1,-738,282,-480,270,-258,263,281.6700904369354,281.67017006874084,281.6731450557709,281.6843457221985,281.8297791481018,281.8297791481018,281.8297791481018,281.8297791481018,281.8297791481018,281.8297791481018,281.8297791481018,284.31482434272766,2,2.625396728515625,None,,,,,,,,,,,,,,,,,,201,1,2025-03-06_14h43.29.401,comp,2024.2.4,54.15408133885422,2025-03-06 14h43.57.871617 -0500,
66,66,0,filler_random,None,None,None,None,None,None,None,None,None,None,2,3.626868724822998,None,,,,,0,0,0,0,0,66,66,137,284.33130073547363,,,,,,,,,,,,,,,,,,,,,,,,,,,,,,,,,,,,,,,,,,,,,,,,,,,,,,,,,,,,,,,,,,,,,,,,,,,,,,,,,150.081101400948,192.45471701835163,172.70465517852998,172.7153277378195,67.67560223647416,125.40839352592587,2.2,2.22,-279,276,0,-284,245,-278,284.31659960746765,284.3166832923889,284.3203344345093,284.33130073547363,284.48061776161194,284.48061776161194,284.48061776161194,284.48061776161194,284.48061776161194,284.48061776161194,284.48061776161194,287.9643156528473,2,3.626868724822998,None,,,,,,,,,,,,,,,,,,201,1,2025-03-06_14h43.29.401,comp,2024.2.4,54.15408133885422,2025-03-06 14h43.57.871617 -0500,
67,67,0,critical,dwh,20.0,1.0,lower,78.0,78.0,57.0,133.0,133.0,57.0,1,4.485100507736206,None,,,,,0,0,0,0,0,67,67,66,287.9847836494446,,,,,,,,,,,,,,,,,,,,,,,,,,,,,,,,,,,,,,,,,,,,,,,,,,,,,,,,,,,,,,,,,,,,,,,,,,,,,,,,,78.0,78.0,57.0,133.0,133.0,57.0,1.0,1.3,278,-272,480,-254,671,-262,287.9658217430115,287.96589946746826,287.9689996242523,287.9847836494446,288.13194704055786,288.13194704055786,288.13194704055786,288.13194704055786,288.13194704055786,288.13194704055786,288.13194704055786,292.4720821380615,1,4.485100507736206,None,,,,,,,,,,,,,,,,,,201,1,2025-03-06_14h43.29.401,comp,2024.2.4,54.15408133885422,2025-03-06 14h43.57.871617 -0500,
68,68,0,filler_square,None,None,None,None,None,None,None,None,None,None,3,5.420762062072754,None,,,,,0,0,0,0,0,68,68,198,292.4886088371277,,,,,,,,,,,,,,,,,,,,,,,,,,,,,,,,,,,,,,,,,,,,,,,,,,,,,,,,,,,,,,,,,,,,,,,,,,,,,,,,,58.42496594670147,97.17966545574944,97.1944701266795,81.95575825963998,104.90277435218897,104.90277435218897,2.1,2.12,-186,-286,0,-273,189,284,292.4738972187042,292.4740014076233,292.4769413471222,292.4886088371277,292.63477969169617,292.63477969169617,292.63477969169617,292.63477969169617,292.63477969169617,292.63477969169617,292.63477969169617,297.9239921569824,3,5.420762062072754,None,,,,,,,,,,,,,,,,,,201,1,2025-03-06_14h43.29.401,comp,2024.2.4,54.15408133885422,2025-03-06 14h43.57.871617 -0500,
69,69,0,critical,hwd,35.0,2.1,lower,133.0,57.0,57.0,133.0,70.0,70.0,3,2.825519561767578,None,,,,,0,0,0,0,0,69,69,16,297.9397921562195,,,,,,,,,,,,,,,,,,,,,,,,,,,,,,,,,,,,,,,,,,,,,,,,,,,,,,,,,,,,,,,,,,,,,,,,,,,,,,,,,133.0,57.0,57.0,133.0,70.0,70.0,2.1,2.11,-191,279,0,285,198,-252,297.9254982471466,297.92557764053345,297.92859959602356,297.9397921562195,298.0840675830841,298.0840675830841,298.0840675830841,298.0840675830841,298.0840675830841,298.0840675830841,298.0840675830841,300.7763636112213,3,2.825519561767578,None,,,,,,,,,,,,,,,,,,201,1,2025-03-06_14h43.29.401,comp,2024.2.4,54.15408133885422,2025-03-06 14h43.57.871617 -0500,
70,70,0,critical,hwd,20.0,1.0,lower,133.0,57.0,57.0,133.0,78.0,78.0,3,3.8919129371643066,None,,,,,0,0,0,0,0,70,70,102,300.79339957237244,,,,,,,,,,,,,,,,,,,,,,,,,,,,,,,,,,,,,,,,,,,,,,,,,,,,,,,,,,,,,,,,,,,,,,,,,,,,,,,,,133.0,57.0,57.0,133.0,78.0,78.0,1.0,1.1,-671,284,-480,254,-278,276,300.7780303955078,300.77815675735474,300.78156423568726,300.79339957237244,300.9384527206421,300.9384527206421,300.9384527206421,300.9384527206421,300.9384527206421,300.9384527206421,300.9384527206421,304.7034795284271,3,3.8919129371643066,None,,,,,,,,,,,,,,,,,,201,1,2025-03-06_14h43.29.401,comp,2024.2.4,54.15408133885422,2025-03-06 14h43.57.871617 -0500,
71,71,0,critical,hdw,20.0,3.0,upper,200.0,125.0,141.0,141.0,125.0,200.0,3,6.249675512313843,None,,,,,0,0,0,0,0,71,71,117,304.72389698028564,,,,,,,,,,,,,,,,,,,,,,,,,,,,,,,,,,,,,,,,,,,,,,,,,,,,,,,,,,,,,,,,,,,,,,,,,,,,,,,,,200.0,125.0,141.0,141.0,125.0,200.0,3.0,3.1,-229,253,0,1,266,-262,304.705037355423,304.7051136493683,304.70847845077515,304.72389698028564,304.87175989151,304.87175989151,304.87175989151,304.87175989151,304.87175989151,304.87175989151,304.87175989151,310.9985246658325,3,6.249675512313843,None,,,,,,,,,,,,,,,,,,201,1,2025-03-06_14h43.29.401,comp,2024.2.4,54.15408133885422,2025-03-06 14h43.57.871617 -0500,
72,72,0,filler_square,None,None,None,None,None,None,None,None,None,None,2,1.7429208755493164,None,,,,,0,0,0,0,0,72,72,180,311.01451086997986,,,,,,,,,,,,,,,,,,,,,,,,,,,,,,,,,,,,,,,,,,,,,,,,,,,,,,,,,,,,,,,,,,,,,,,,,,,,,,,,,94.55002951033202,89.57633018596937,181.69698569645345,181.69698569645345,121.02240525792426,130.23355549186397,4.0,4.2,-232,-2,0,-264,252,-1,311.00048184394836,311.00056052207947,311.0038871765137,311.01451086997986,311.1563513278961,311.1563513278961,311.1563513278961,311.1563513278961,311.1563513278961,311.1563513278961,311.1563513278961,312.7741367816925,2,1.7429208755493164,None,,,,,,,,,,,,,,,,,,201,1,2025-03-06_14h43.29.401,comp,2024.2.4,54.15408133885422,2025-03-06 14h43.57.871617 -0500,
73,73,0,critical,dhw,35.0,3.0,lower,70.0,70.0,133.0,57.0,57.0,133.0,1,5.5430357456207275,None,,,,,0,0,0,0,0,73,73,50,312.79029870033264,,,,,,,,,,,,,,,,,,,,,,,,,,,,,,,,,,,,,,,,,,,,,,,,,,,,,,,,,,,,,,,,,,,,,,,,,,,,,,,,,70.0,70.0,133.0,57.0,57.0,133.0,3.0,3.2,-160,-262,0,14,191,278,312.7756848335266,312.77578568458557,312.77909207344055,312.79029870033264,312.9396290779114,312.9396290779114,312.9396290779114,312.9396290779114,312.9396290779114,312.9396290779114,312.9396290779114,318.35102438926697,1,5.5430357456207275,None,,,,,,,,,,,,,,,,,,201,1,2025-03-06_14h43.29.401,comp,2024.2.4,54.15408133885422,2025-03-06 14h43.57.871617 -0500,
74,74,0,critical,hdw,35.0,2.1,upper,200.0,125.0,127.0,127.0,125.0,200.0,3,2.585381269454956,None,,,,,0,0,0,0,0,74,74,21,318.3665418624878,,,,,,,,,,,,,,,,,,,,,,,,,,,,,,,,,,,,,,,,,,,,,,,,,,,,,,,,,,,,,,,,,,,,,,,,,,,,,,,,,200.0,125.0,127.0,127.0,125.0,200.0,2.1,2.12,-222,-259,0,-278,260,259,318.35256576538086,318.3526427745819,318.3559732437134,318.3665418624878,318.51065158843994,318.51065158843994,318.51065158843994,318.51065158843994,318.51065158843994,318.51065158843994,318.51065158843994,320.9593274593353,3,2.585381269454956,None,,,,,,,,,,,,,,,,,,201,1,2025-03-06_14h43.29.401,comp,2024.2.4,54.15408133885422,2025-03-06 14h43.57.871617 -0500,
75,75,0,filler_square,None,None,None,None,None,None,None,None,None,None,2,3.61189603805542,None,,,,,0,0,0,0,0,75,75,195,320.9776146411896,,,,,,,,,,,,,,,,,,,,,,,,,,,,,,,,,,,,,,,,,,,,,,,,,,,,,,,,,,,,,,,,,,,,,,,,,,,,,,,,,66.98300791112335,57.87682460040699,77.13108778893451,77.13108778893451,67.96368177299522,67.73805414034271,2.2,2.22,-164,255,0,-262,168,-288,320.96114921569824,320.9612874984741,320.964604139328,320.9776146411896,321.12646412849426,321.12646412849426,321.12646412849426,321.12646412849426,321.12646412849426,321.12646412849426,321.12646412849426,324.60090255737305,2,3.61189603805542,None,,,,,,,,,,,,,,,,,,201,1,2025-03-06_14h43.29.401,comp,2024.2.4,54.15408133885422,2025-03-06 14h43.57.871617 -0500,
76,76,0,critical,dhw,20.0,4.0,upper,141.0,141.0,200.0,125.0,125.0,200.0,3,3.538552761077881,None,,,,,0,0,0,0,0,76,76,59,324.6198925971985,,,,,,,,,,,,,,,,,,,,,,,,,,,,,,,,,,,,,,,,,,,,,,,,,,,,,,,,,,,,,,,,,,,,,,,,,,,,,,,,,141.0,141.0,200.0,125.0,125.0,200.0,4.0,4.2,-229,-10,0,-266,258,-15,324.6024658679962,324.6025447845459,324.60556840896606,324.6198925971985,324.7565002441406,324.7565002441406,324.7565002441406,324.7565002441406,324.7565002441406,324.7565002441406,324.7565002441406,328.1643536090851,3,3.538552761077881,None,,,,,,,,,,,,,,,,,,201,1,2025-03-06_14h43.29.401,comp,2024.2.4,54.15408133885422,2025-03-06 14h43.57.871617 -0500,
77,77,0,catch,None,None,None,None,None,None,None,None,None,None,2,2.503063917160034,None,,,,,0,0,0,0,0,77,77,126,328.18313002586365,,,,,,,,,,,,,,,,,,,,,,,,,,,,,,,,,,,,,,,,,,,,,,,,,,,,,,,,,,,,,,,,,,,,,,,,,,,,,,,,,132,58,167,158,71,119,2.1,2.12,-204,-257,0,-275,234,256,328.1665987968445,328.16668248176575,328.17011642456055,328.18313002586365,328.32830333709717,328.32830333709717,328.32830333709717,328.32830333709717,328.32830333709717,328.32830333709717,328.32830333709717,330.6963484287262,2,2.503063917160034,None,,,,,,,,,,,,,,,,,,201,1,2025-03-06_14h43.29.401,comp,2024.2.4,54.15408133885422,2025-03-06 14h43.57.871617 -0500,
78,78,0,critical,hdw,20.0,2.1,lower,133.0,57.0,78.0,78.0,57.0,133.0,1,2.421051263809204,None,,,,,0,0,0,0,0,78,78,22,330.71229362487793,,,,,,,,,,,,,,,,,,,,,,,,,,,,,,,,,,,,,,,,,,,,,,,,,,,,,,,,,,,,,,,,,,,,,,,,,,,,,,,,,133.0,57.0,78.0,78.0,57.0,133.0,2.1,2.12,-164,-283,0,-285,202,264,330.6979022026062,330.6980085372925,330.7014710903168,330.71229362487793,330.8593327999115,330.8593327999115,330.8593327999115,330.8593327999115,330.8593327999115,330.8593327999115,330.8593327999115,333.14516043663025,1,2.421051263809204,None,,,,,,,,,,,,,,,,,,201,1,2025-03-06_14h43.29.401,comp,2024.2.4,54.15408133885422,2025-03-06 14h43.57.871617 -0500,
79,79,0,filler_random,None,None,None,None,None,None,None,None,None,None,3,1.9457311630249023,None,,,,,0,0,0,0,0,79,79,164,333.163738489151,,,,,,,,,,,,,,,,,,,,,,,,,,,,,,,,,,,,,,,,,,,,,,,,,,,,,,,,,,,,,,,,,,,,,,,,,,,,,,,,,107.29624121637477,195.0617595530959,140.37290516465748,180.10520130652733,155.28549349998661,191.1665197275979,4.0,4.1,-284,-261,0,-17,282,-283,333.14699053764343,333.14712929725647,333.15054750442505,333.163738489151,333.3009943962097,333.3009943962097,333.3009943962097,333.3009943962097,333.3009943962097,333.3009943962097,333.3009943962097,335.1200659275055,3,1.9457311630249023,None,,,,,,,,,,,,,,,,,,201,1,2025-03-06_14h43.29.401,comp,2024.2.4,54.15408133885422,2025-03-06 14h43.57.871617 -0500,
80,80,0,critical,dwh,20.0,1.0,upper,141.0,141.0,125.0,200.0,200.0,125.0,3,3.083545207977295,None,,,,,0,0,0,0,0,80,80,67,335.13786458969116,,,,,,,,,,,,,,,,,,,,,,,,,,,,,,,,,,,,,,,,,,,,,,,,,,,,,,,,,,,,,,,,,,,,,,,,,,,,,,,,,141.0,141.0,125.0,200.0,200.0,125.0,1.0,1.3,214,-256,480,-270,738,-278,335.1215567588806,335.1216387748718,335.12466263771057,335.13786458969116,335.2802577018738,335.2802577018738,335.2802577018738,335.2802577018738,335.2802577018738,335.2802577018738,335.2802577018738,338.2325530052185,3,3.083545207977295,None,,,,,,,,,,,,,,,,,,201,1,2025-03-06_14h43.29.401,comp,2024.2.4,54.15408133885422,2025-03-06 14h43.57.871617 -0500,
81,81,0,filler_random,None,None,None,None,None,None,None,None,None,None,2,1.6478922367095947,None,,,,,0,0,0,0,0,81,81,133,338.2535569667816,,,,,,,,,,,,,,,,,,,,,,,,,,,,,,,,,,,,,,,,,,,,,,,,,,,,,,,,,,,,,,,,,,,,,,,,,,,,,,,,,61.34185621261723,151.58350722956015,174.74438234697385,136.37135566160754,79.27242030871827,158.07565427415395,2.1,2.11,-240,269,0,267,243,-284,338.23442339897156,338.2345063686371,338.2377691268921,338.2535569667816,338.3980243206024,338.3980243206024,338.3980243206024,338.3980243206024,338.3980243206024,338.3980243206024,338.3980243206024,339.9185092449188,2,1.6478922367095947,None,,,,,,,,,,,,,,,,,,201,1,2025-03-06_14h43.29.401,comp,2024.2.4,54.15408133885422,2025-03-06 14h43.57.871617 -0500,
82,82,0,critical,dhw,35.0,2.1,lower,70.0,70.0,133.0,57.0,57.0,133.0,3,2.6527230739593506,None,,,,,0,0,0,0,0,82,82,24,339.9366834163666,,,,,,,,,,,,,,,,,,,,,,,,,,,,,,,,,,,,,,,,,,,,,,,,,,,,,,,,,,,,,,,,,,,,,,,,,,,,,,,,,70.0,70.0,133.0,57.0,57.0,133.0,2.1,2.12,-160,-266,0,-253,191,255,339.92012763023376,339.92020893096924,339.9234266281128,339.9366834163666,340.081045627594,340.081045627594,340.081045627594,340.081045627594,340.081045627594,340.081045627594,340.081045627594,342.60831809043884,3,2.6527230739593506,None,,,,,,,,,,,,,,,,,,201,1,2025-03-06_14h43.29.401,comp,2024.2.4,54.15408133885422,2025-03-06 14h43.57.871617 -0500,
83,83,0,critical,dhw,20.0,3.0,lower,78.0,78.0,133.0,57.0,57.0,133.0,3,1.2524194717407227,None,,,,,0,0,0,0,0,83,83,56,342.62556552886963,,,,,,,,,,,,,,,,,,,,,,,,,,,,,,,,,,,,,,,,,,,,,,,,,,,,,,,,,,,,,,,,,,,,,,,,,,,,,,,,,78.0,78.0,133.0,57.0,57.0,133.0,3.0,3.2,-164,-275,0,-5,191,262,342.6097764968872,342.6098554134369,342.6128034591675,342.62556552886963,342.7661621570587,342.7661621570587,342.7661621570587,342.7661621570587,342.7661621570587,342.7661621570587,342.7661621570587,343.8817584514618,3,1.2524194717407227,None,,,,,,,,,,,,,,,,,,201,1,2025-03-06_14h43.29.401,comp,2024.2.4,54.15408133885422,2025-03-06 14h43.57.871617 -0500,
84,84,0,filler_square,None,None,None,None,None,None,None,None,None,None,2,1.687708854675293,None,,,,,0,0,0,0,0,84,84,189,343.90173602104187,,,,,,,,,,,,,,,,,,,,,,,,,,,,,,,,,,,,,,,,,,,,,,,,,,,,,,,,,,,,,,,,,,,,,,,,,,,,,,,,,82.47131709243452,66.1611842615437,100.48193445273273,100.48193445273273,63.468076250500765,64.83731138731335,1.0,1.3,301,-274,480,-258,659,-285,343.8835279941559,343.8836085796356,343.886666059494,343.90173602104187,344.0500705242157,344.0500705242157,344.0500705242157,344.0500705242157,344.0500705242157,344.0500705242157,344.0500705242157,345.6048483848572,2,1.687708854675293,None,,,,,,,,,,,,,,,,,,201,1,2025-03-06_14h43.29.401,comp,2024.2.4,54.15408133885422,2025-03-06 14h43.57.871617 -0500,
85,85,0,critical,hdw,20.0,2.1,upper,200.0,125.0,141.0,141.0,125.0,200.0,3,8.03040075302124,None,,,,,0,0,0,0,0,85,85,23,345.6230540275574,,,,,,,,,,,,,,,,,,,,,,,,,,,,,,,,,,,,,,,,,,,,,,,,,,,,,,,,,,,,,,,,,,,,,,,,,,,,,,,,,200.0,125.0,141.0,141.0,125.0,200.0,2.1,2.12,-229,-250,0,-275,266,287,345.6064729690552,345.606552362442,345.6095349788666,345.6230540275574,345.766104221344,345.766104221344,345.766104221344,345.766104221344,345.766104221344,345.766104221344,345.766104221344,353.6699438095093,3,8.03040075302124,None,,,,,,,,,,,,,,,,,,201,1,2025-03-06_14h43.29.401,comp,2024.2.4,54.15408133885422,2025-03-06 14h43.57.871617 -0500,
86,86,0,filler_random,None,None,None,None,None,None,None,None,None,None,1,3.0316176414489746,None,,,,,0,0,0,0,0,86,86,168,353.68661427497864,,,,,,,,,,,,,,,,,,,,,,,,,,,,,,,,,,,,,,,,,,,,,,,,,,,,,,,,,,,,,,,,,,,,,,,,,,,,,,,,,113.99883274059655,152.99315848126923,76.29844278703699,176.20750989498356,96.76315235704622,104.76363403732003,3.0,3.2,-261,-285,0,15,236,289,353.67169976234436,353.6717779636383,353.675822019577,353.68661427497864,353.84014105796814,353.84014105796814,353.84014105796814,353.84014105796814,353.84014105796814,353.84014105796814,353.84014105796814,356.72663927078247,1,3.0316176414489746,None,,,,,,,,,,,,,,,,,,201,1,2025-03-06_14h43.29.401,comp,2024.2.4,54.15408133885422,2025-03-06 14h43.57.871617 -0500,
87,87,0,critical,hwd,20.0,1.0,upper,200.0,125.0,125.0,200.0,141.0,141.0,1,2.642014503479004,None,,,,,0,0,0,0,0,87,87,103,356.74750113487244,,,,,,,,,,,,,,,,,,,,,,,,,,,,,,,,,,,,,,,,,,,,,,,,,,,,,,,,,,,,,,,,,,,,,,,,,,,,,,,,,200.0,125.0,125.0,200.0,141.0,141.0,1.0,1.2,-258,-1,0,16,266,8,356.72821712493896,356.72829723358154,356.73166704177856,356.74750113487244,356.88913559913635,356.88913559913635,356.88913559913635,356.88913559913635,356.88913559913635,356.88913559913635,356.88913559913635,359.40324330329895,1,2.642014503479004,None,,,,,,,,,,,,,,,,,,201,1,2025-03-06_14h43.29.401,comp,2024.2.4,54.15408133885422,2025-03-06 14h43.57.871617 -0500,
88,88,0,critical,wdh,35.0,1.0,lower,57.0,133.0,70.0,70.0,133.0,57.0,3,4.010754823684692,None,,,,,0,0,0,0,0,88,88,72,359.4192268848419,,,,,,,,,,,,,,,,,,,,,,,,,,,,,,,,,,,,,,,,,,,,,,,,,,,,,,,,,,,,,,,,,,,,,,,,,,,,,,,,,57.0,133.0,70.0,70.0,133.0,57.0,1.0,1.2,-198,1,0,-15,160,-9,359.4047360420227,359.40481400489807,359.4078893661499,359.4192268848419,359.5591707229614,359.5591707229614,359.5591707229614,359.5591707229614,359.5591707229614,359.5591707229614,359.5591707229614,363.44073152542114,3,4.010754823684692,None,,,,,,,,,,,,,,,,,,201,1,2025-03-06_14h43.29.401,comp,2024.2.4,54.15408133885422,2025-03-06 14h43.57.871617 -0500,
89,89,0,critical,dwh,35.0,3.0,lower,70.0,70.0,57.0,133.0,133.0,57.0,3,1.7486193180084229,None,,,,,0,0,0,0,0,89,89,62,363.45679235458374,,,,,,,,,,,,,,,,,,,,,,,,,,,,,,,,,,,,,,,,,,,,,,,,,,,,,,,,,,,,,,,,,,,,,,,,,,,,,,,,,70.0,70.0,57.0,133.0,133.0,57.0,3.0,3.1,-198,253,0,3,191,-255,363.44241881370544,363.4425013065338,363.4458713531494,363.45679235458374,363.6048798561096,363.6048798561096,363.6048798561096,363.6048798561096,363.6048798561096,363.6048798561096,363.6048798561096,365.2236382961273,3,1.7486193180084229,None,,,,,,,,,,,,,,,,,,201,1,2025-03-06_14h43.29.401,comp,2024.2.4,54.15408133885422,2025-03-06 14h43.57.871617 -0500,
90,90,0,critical,whd,20.0,2.1,upper,125.0,200.0,200.0,125.0,141.0,141.0,2,3.685823440551758,None,,,,,0,0,0,0,0,90,90,39,365.23961424827576,,,,,,,,,,,,,,,,,,,,,,,,,,,,,,,,,,,,,,,,,,,,,,,,,,,,,,,,,,,,,,,,,,,,,,,,,,,,,,,,,125.0,200.0,200.0,125.0,141.0,141.0,2.1,2.11,-258,269,0,263,229,-271,365.2253408432007,365.2254774570465,365.22924399375916,365.23961424827576,365.3893983364105,365.3893983364105,365.3893983364105,365.3893983364105,365.3893983364105,365.3893983364105,365.3893983364105,368.94574761390686,2,3.685823440551758,None,,,,,,,,,,,,,,,,,,201,1,2025-03-06_14h43.29.401,comp,2024.2.4,54.15408133885422,2025-03-06 14h43.57.871617 -0500,
91,91,0,filler_random,None,None,None,None,None,None,None,None,None,None,3,13.491846799850464,None,,,,,0,0,0,0,0,91,91,135,368.96312284469604,,,,,,,,,,,,,,,,,,,,,,,,,,,,,,,,,,,,,,,,,,,,,,,,,,,,,,,,,,,,,,,,,,,,,,,,,,,,,,,,,131.54943769845363,191.71810624866606,168.5546370456346,58.73120451512405,156.59528002307547,163.54078992107367,3.0,3.1,-221,257,0,12,207,-285,368.9475772380829,368.94765758514404,368.9506413936615,368.96312284469604,369.10888671875,369.10888671875,369.10888671875,369.10888671875,369.10888671875,369.10888671875,369.10888671875,382.4611678123474,3,13.491846799850464,None,,,,,,,,,,,,,,,,,,201,1,2025-03-06_14h43.29.401,comp,2024.2.4,54.15408133885422,2025-03-06 14h43.57.871617 -0500,
92,92,0,critical,whd,20.0,3.0,lower,57.0,133.0,133.0,57.0,78.0,78.0,3,3.366180658340454,None,,,,,0,0,0,0,0,92,92,92,382.47949981689453,,,,,,,,,,,,,,,,,,,,,,,,,,,,,,,,,,,,,,,,,,,,,,,,,,,,,,,,,,,,,,,,,,,,,,,,,,,,,,,,,57.0,133.0,133.0,57.0,78.0,78.0,3.0,3.2,-191,-260,0,7,164,261,382.4627540111542,382.46285009384155,382.46625804901123,382.47949981689453,382.62889528274536,382.62889528274536,382.62889528274536,382.62889528274536,382.62889528274536,382.62889528274536,382.62889528274536,385.8550612926483,3,3.366180658340454,None,,,,,,,,,,,,,,,,,,201,1,2025-03-06_14h43.29.401,comp,2024.2.4,54.15408133885422,2025-03-06 14h43.57.871617 -0500,
93,93,0,filler_random,None,None,None,None,None,None,None,None,None,None,3,1.6764655113220215,None,,,,,0,0,0,0,0,93,93,147,385.8731300830841,,,,,,,,,,,,,,,,,,,,,,,,,,,,,,,,,,,,,,,,,,,,,,,,,,,,,,,,,,,,,,,,,,,,,,,,,,,,,,,,,112.03979572476587,156.10879213442297,115.69855851069767,160.93817704977454,159.80745653572035,180.31693596244617,3.0,3.2,-255,-260,0,-19,267,255,385.85704350471497,385.8571238517761,385.86039423942566,385.8731300830841,386.01376962661743,386.01376962661743,386.01376962661743,386.01376962661743,386.01376962661743,386.01376962661743,386.01376962661743,387.5632212162018,3,1.6764655113220215,None,,,,,,,,,,,,,,,,,,201,1,2025-03-06_14h43.29.401,comp,2024.2.4,54.15408133885422,2025-03-06 14h43.57.871617 -0500,
94,94,0,critical,wdh,20.0,1.0,lower,57.0,133.0,78.0,78.0,133.0,57.0,3,3.09067702293396,None,,,,,0,0,0,0,0,94,94,78,387.5792615413666,,,,,,,,,,,,,,,,,,,,,,,,,,,,,,,,,,,,,,,,,,,,,,,,,,,,,,,,,,,,,,,,,,,,,,,,,,,,,,,,,57.0,133.0,78.0,78.0,133.0,57.0,1.0,1.2,-202,4,0,12,164,2,387.5647554397583,387.5648362636566,387.56896591186523,387.5792615413666,387.729994058609,387.729994058609,387.729994058609,387.729994058609,387.729994058609,387.729994058609,387.729994058609,390.6788504123688,3,3.09067702293396,None,,,,,,,,,,,,,,,,,,201,1,2025-03-06_14h43.29.401,comp,2024.2.4,54.15408133885422,2025-03-06 14h43.57.871617 -0500,
95,95,0,critical,dwh,20.0,4.0,upper,141.0,141.0,125.0,200.0,200.0,125.0,2,2.7183804512023926,None,,,,,0,0,0,0,0,95,95,71,390.6952633857727,,,,,,,,,,,,,,,,,,,,,,,,,,,,,,,,,,,,,,,,,,,,,,,,,,,,,,,,,,,,,,,,,,,,,,,,,,,,,,,,,141.0,141.0,125.0,200.0,200.0,125.0,4.0,4.1,-266,-260,0,-15,258,-260,390.68033266067505,390.68041157722473,390.6833562850952,390.6952633857727,390.8316924571991,390.8316924571991,390.8316924571991,390.8316924571991,390.8316924571991,390.8316924571991,390.8316924571991,393.4198088645935,2,2.7183804512023926,None,,,,,,,,,,,,,,,,,,201,1,2025-03-06_14h43.29.401,comp,2024.2.4,54.15408133885422,2025-03-06 14h43.57.871617 -0500,
96,96,0,critical,dwh,35.0,1.0,lower,70.0,70.0,57.0,133.0,133.0,57.0,3,2.3276426792144775,None,,,,,0,0,0,0,0,96,96,60,393.43809700012207,,,,,,,,,,,,,,,,,,,,,,,,,,,,,,,,,,,,,,,,,,,,,,,,,,,,,,,,,,,,,,,,,,,,,,,,,,,,,,,,,70.0,70.0,57.0,133.0,133.0,57.0,1.0,1.2,-198,20,0,17,191,2,393.4214367866516,393.42154145240784,393.4249131679535,393.43809700012207,393.5905740261078,393.5905740261078,393.5905740261078,393.5905740261078,393.5905740261078,393.5905740261078,393.5905740261078,395.7823667526245,3,2.3276426792144775,None,,,,,,,,,,,,,,,,,,201,1,2025-03-06_14h43.29.401,comp,2024.2.4,54.15408133885422,2025-03-06 14h43.57.871617 -0500,
97,97,0,critical,wdh,35.0,2.1,lower,57.0,133.0,70.0,70.0,133.0,57.0,3,4.318208694458008,None,,,,,0,0,0,0,0,97,97,8,395.7992379665375,,,,,,,,,,,,,,,,,,,,,,,,,,,,,,,,,,,,,,,,,,,,,,,,,,,,,,,,,,,,,,,,,,,,,,,,,,,,,,,,,57.0,133.0,70.0,70.0,133.0,57.0,2.1,2.11,-198,262,0,267,160,-283,395.7839126586914,395.7840178012848,395.7880687713623,395.7992379665375,395.94883275032043,395.94883275032043,395.94883275032043,395.94883275032043,395.94883275032043,395.94883275032043,395.94883275032043,400.12209248542786,3,4.318208694458008,None,,,,,,,,,,,,,,,,,,201,1,2025-03-06_14h43.29.401,comp,2024.2.4,54.15408133885422,2025-03-06 14h43.57.871617 -0500,
98,98,0,critical,hdw,35.0,2.1,lower,133.0,57.0,70.0,70.0,57.0,133.0,3,3.0513651371002197,None,,,,,0,0,0,0,0,98,98,20,400.1380763053894,,,,,,,,,,,,,,,,,,,,,,,,,,,,,,,,,,,,,,,,,,,,,,,,,,,,,,,,,,,,,,,,,,,,,,,,,,,,,,,,,133.0,57.0,70.0,70.0,57.0,133.0,2.1,2.12,-160,-254,0,-284,198,284,400.12378454208374,400.123899936676,400.1272830963135,400.1380763053894,400.2827696800232,400.2827696800232,400.2827696800232,400.2827696800232,400.2827696800232,400.2827696800232,400.2827696800232,403.1993405818939,3,3.0513651371002197,None,,,,,,,,,,,,,,,,,,201,1,2025-03-06_14h43.29.401,comp,2024.2.4,54.15408133885422,2025-03-06 14h43.57.871617 -0500,
99,99,0,critical,dwh,20.0,2.1,upper,141.0,141.0,125.0,200.0,200.0,125.0,2,3.1899490356445312,None,,,,,0,0,0,0,0,99,99,31,403.2155485153198,,,,,,,,,,,,,,,,,,,,,,,,,,,,,,,,,,,,,,,,,,,,,,,,,,,,,,,,,,,,,,,,,,,,,,,,,,,,,,,,,141.0,141.0,125.0,200.0,200.0,125.0,2.1,2.11,-266,263,0,278,258,-266,403.20090913772583,403.2010238170624,403.2044668197632,403.2155485153198,403.3722949028015,403.3722949028015,403.3722949028015,403.3722949028015,403.3722949028015,403.3722949028015,403.3722949028015,406.41789388656616,2,3.1899490356445312,None,,,,,,,,,,,,,,,,,,201,1,2025-03-06_14h43.29.401,comp,2024.2.4,54.15408133885422,2025-03-06 14h43.57.871617 -0500,
100,100,0,filler_random,None,None,None,None,None,None,None,None,None,None,2,1.3470604419708252,None,,,,,0,0,0,0,0,100,100,157,406.4344825744629,,,,,,,,,,,,,,,,,,,,,,,,,,,,,,,,,,,,,,,,,,,,,,,,,,,,,,,,,,,,,,,,,,,,,,,,,,,,,,,,,140.11717083531514,71.8772854334018,128.843011905614,149.95368750059646,108.9874978832593,81.62506676199837,3.0,3.2,-207,-259,0,-6,212,274,406.4196357727051,406.41971492767334,406.423054933548,406.4344825744629,406.5862772464752,406.5862772464752,406.5862772464752,406.5862772464752,406.5862772464752,406.5862772464752,406.5862772464752,407.78598046302795,2,1.3470604419708252,None,,,,,,,,,,,,,,,,,,201,1,2025-03-06_14h43.29.401,comp,2024.2.4,54.15408133885422,2025-03-06 14h43.57.871617 -0500,
101,101,0,filler_square,None,None,None,None,None,None,None,None,None,None,2,1.6428024768829346,None,,,,,0,0,0,0,0,101,101,186,407.80261397361755,,,,,,,,,,,,,,,,,,,,,,,,,,,,,,,,,,,,,,,,,,,,,,,,,,,,,,,,,,,,,,,,,,,,,,,,,,,,,,,,,78.05678240405459,94.36185881246072,109.13137938174785,109.13137938174785,70.21796293785725,101.11504510366677,2.1,2.12,-198,-262,0,-276,201,263,407.78806805610657,407.78814935684204,407.79161047935486,407.80261397361755,407.9518311023712,407.9518311023712,407.9518311023712,407.9518311023712,407.9518311023712,407.9518311023712,407.9518311023712,409.45940256118774,2,1.6428024768829346,None,,,,,,,,,,,,,,,,,,201,1,2025-03-06_14h43.29.401,comp,2024.2.4,54.15408133885422,2025-03-06 14h43.57.871617 -0500,
102,102,0,critical,hwd,20.0,3.0,lower,133.0,57.0,57.0,133.0,78.0,78.0,1,3.520064353942871,None,,,,,0,0,0,0,0,102,102,104,409.4780991077423,,,,,,,,,,,,,,,,,,,,,,,,,,,,,,,,,,,,,,,,,,,,,,,,,,,,,,,,,,,,,,,,,,,,,,,,,,,,,,,,,133.0,57.0,57.0,133.0,78.0,78.0,3.0,3.2,-191,-251,0,-13,202,285,409.46090817451477,409.46101117134094,409.46384930610657,409.4780991077423,409.6209795475006,409.6209795475006,409.6209795475006,409.6209795475006,409.6209795475006,409.6209795475006,409.6209795475006,413.0034656524658,1,3.520064353942871,None,,,,,,,,,,,,,,,,,,201,1,2025-03-06_14h43.29.401,comp,2024.2.4,54.15408133885422,2025-03-06 14h43.57.871617 -0500,
103,103,0,critical,hdw,35.0,2.1,lower,133.0,57.0,70.0,70.0,57.0,133.0,1,1.9971492290496826,None,,,,,0,0,0,0,0,103,103,44,413.0244116783142,,,,,,,,,,,,,,,,,,,,,,,,,,,,,,,,,,,,,,,,,,,,,,,,,,,,,,,,,,,,,,,,,,,,,,,,,,,,,,,,,133.0,57.0,70.0,70.0,57.0,133.0,2.1,2.11,-160,271,0,281,198,-289,413.0051429271698,413.0052225589752,413.00854539871216,413.0244116783142,413.17234683036804,413.17234683036804,413.17234683036804,413.17234683036804,413.17234683036804,413.17234683036804,413.17234683036804,415.033132314682,1,1.9971492290496826,None,,,,,,,,,,,,,,,,,,201,1,2025-03-06_14h43.29.401,comp,2024.2.4,54.15408133885422,2025-03-06 14h43.57.871617 -0500,
104,104,0,filler_random,None,None,None,None,None,None,None,None,None,None,3,1.3703851699829102,None,,,,,0,0,0,0,0,104,104,152,415.0508248806,,,,,,,,,,,,,,,,,,,,,,,,,,,,,,,,,,,,,,,,,,,,,,,,,,,,,,,,,,,,,,,,,,,,,,,,,,,,,,,,,93.15967744716713,163.95721545323624,113.24017967230834,145.69822709793357,133.04092183329215,194.2479234306414,4.0,4.2,-251,10,0,-262,266,-3,415.0347170829773,415.0347924232483,415.0377333164215,415.0508248806,415.1857342720032,415.1857342720032,415.1857342720032,415.1857342720032,415.1857342720032,415.1857342720032,415.1857342720032,416.43868041038513,3,1.3703851699829102,None,,,,,,,,,,,,,,,,,,201,1,2025-03-06_14h43.29.401,comp,2024.2.4,54.15408133885422,2025-03-06 14h43.57.871617 -0500,
105,105,0,critical,whd,35.0,4.0,upper,125.0,200.0,200.0,125.0,127.0,127.0,2,1.4086637496948242,None,,,,,0,0,0,0,0,105,105,89,416.45290422439575,,,,,,,,,,,,,,,,,,,,,,,,,,,,,,,,,,,,,,,,,,,,,,,,,,,,,,,,,,,,,,,,,,,,,,,,,,,,,,,,,125.0,200.0,200.0,125.0,127.0,127.0,4.0,4.1,-258,-253,0,18,222,-275,416.43933510780334,416.4393570423126,416.4402103424072,416.45290422439575,416.60476660728455,416.60476660728455,416.60476660728455,416.60476660728455,416.60476660728455,416.60476660728455,416.60476660728455,417.8764808177948,2,1.4086637496948242,None,,,,,,,,,,,,,,,,,,201,1,2025-03-06_14h43.29.401,comp,2024.2.4,54.15408133885422,2025-03-06 14h43.57.871617 -0500,
106,106,0,critical,dhw,20.0,1.0,lower,78.0,78.0,133.0,57.0,57.0,133.0,2,5.085927724838257,None,,,,,0,0,0,0,0,106,106,54,417.89668822288513,,,,,,,,,,,,,,,,,,,,,,,,,,,,,,,,,,,,,,,,,,,,,,,,,,,,,,,,,,,,,,,,,,,,,,,,,,,,,,,,,78.0,78.0,133.0,57.0,57.0,133.0,1.0,1.1,-644,261,-480,279,-289,252,417.8783435821533,417.8784747123718,417.88169384002686,417.89668822288513,418.0434272289276,418.0434272289276,418.0434272289276,418.0434272289276,418.0434272289276,418.0434272289276,418.0434272289276,422.99247694015503,2,5.085927724838257,None,,,,,,,,,,,,,,,,,,201,1,2025-03-06_14h43.29.401,comp,2024.2.4,54.15408133885422,2025-03-06 14h43.57.871617 -0500,
107,107,0,filler_square,None,None,None,None,None,None,None,None,None,None,2,1.6685268878936768,None,,,,,0,0,0,0,0,107,107,188,423.00894927978516,,,,,,,,,,,,,,,,,,,,,,,,,,,,,,,,,,,,,,,,,,,,,,,,,,,,,,,,,,,,,,,,,,,,,,,,,,,,,,,,,82.48686268141196,70.1835815017888,104.92804866206325,104.92804866206325,95.41433833128775,66.2069241996538,2.2,2.22,-184,266,0,-260,182,-254,422.9942955970764,422.9944393634796,422.9979786872864,423.00894927978516,423.1577591896057,423.1577591896057,423.1577591896057,423.1577591896057,423.1577591896057,423.1577591896057,423.1577591896057,424.69005370140076,2,1.6685268878936768,None,,,,,,,,,,,,,,,,,,201,1,2025-03-06_14h43.29.401,comp,2024.2.4,54.15408133885422,2025-03-06 14h43.57.871617 -0500,
108,108,0,critical,hwd,35.0,2.1,upper,200.0,125.0,125.0,200.0,127.0,127.0,1,2.027182102203369,None,,,,,0,0,0,0,0,108,108,41,424.70674777030945,,,,,,,,,,,,,,,,,,,,,,,,,,,,,,,,,,,,,,,,,,,,,,,,,,,,,,,,,,,,,,,,,,,,,,,,,,,,,,,,,200.0,125.0,125.0,200.0,127.0,127.0,2.1,2.11,-258,265,0,264,260,-259,424.69161677360535,424.6916980743408,424.69541239738464,424.70674777030945,424.86447048187256,424.86447048187256,424.86447048187256,424.86447048187256,424.86447048187256,424.86447048187256,424.86447048187256,426.74217200279236,1,2.027182102203369,None,,,,,,,,,,,,,,,,,,201,1,2025-03-06_14h43.29.401,comp,2024.2.4,54.15408133885422,2025-03-06 14h43.57.871617 -0500,
109,109,0,filler_random,None,None,None,None,None,None,None,None,None,None,2,3.3424596786499023,None,,,,,0,0,0,0,0,109,109,141,426.75909900665283,,,,,,,,,,,,,,,,,,,,,,,,,,,,,,,,,,,,,,,,,,,,,,,,,,,,,,,,,,,,,,,,,,,,,,,,,,,,,,,,,174.34070427956328,117.90284952886955,164.13303326679804,158.0534063946682,164.446529847754,148.06644689469408,3.0,3.1,-234,276,0,-2,249,-286,426.7439515590668,426.7440342903137,426.7474799156189,426.75909900665283,426.9134724140167,426.9134724140167,426.9134724140167,426.9134724140167,426.9134724140167,426.9134724140167,426.9134724140167,430.1198835372925,2,3.3424596786499023,None,,,,,,,,,,,,,,,,,,201,1,2025-03-06_14h43.29.401,comp,2024.2.4,54.15408133885422,2025-03-06 14h43.57.871617 -0500,
110,110,0,filler_square,None,None,None,None,None,None,None,None,None,None,1,1.6525843143463135,None,,,,,0,0,0,0,0,110,110,183,430.1375963687897,,,,,,,,,,,,,,,,,,,,,,,,,,,,,,,,,,,,,,,,,,,,,,,,,,,,,,,,,,,,,,,,,,,,,,,,,,,,,,,,,149.43934148296393,149.43934148296393,121.20129752009736,90.54138770632952,124.7721557906705,65.89697989310729,3.0,3.2,-216,-287,0,19,174,260,430.1218650341034,430.12197399139404,430.12490487098694,430.1375963687897,430.2753961086273,430.2753961086273,430.2753961086273,430.2753961086273,430.2753961086273,430.2753961086273,430.2753961086273,431.7967667579651,1,1.6525843143463135,None,,,,,,,,,,,,,,,,,,201,1,2025-03-06_14h43.29.401,comp,2024.2.4,54.15408133885422,2025-03-06 14h43.57.871617 -0500,
111,111,0,critical,dwh,20.0,4.0,lower,78.0,78.0,57.0,133.0,133.0,57.0,3,3.891946315765381,None,,,,,0,0,0,0,0,111,111,70,431.8178014755249,,,,,,,,,,,,,,,,,,,,,,,,,,,,,,,,,,,,,,,,,,,,,,,,,,,,,,,,,,,,,,,,,,,,,,,,,,,,,,,,,78.0,78.0,57.0,133.0,133.0,57.0,4.0,4.1,-202,-284,0,-4,191,-276,431.7986261844635,431.7987368106842,431.8019948005676,431.8178014755249,431.96234154701233,431.96234154701233,431.96234154701233,431.96234154701233,431.96234154701233,431.96234154701233,431.96234154701233,435.7146472930908,3,3.891946315765381,None,,,,,,,,,,,,,,,,,,201,1,2025-03-06_14h43.29.401,comp,2024.2.4,54.15408133885422,2025-03-06 14h43.57.871617 -0500,
112,112,0,critical,hwd,20.0,2.1,upper,200.0,125.0,125.0,200.0,141.0,141.0,1,2.474809408187866,None,,,,,0,0,0,0,0,112,112,19,435.7308006286621,,,,,,,,,,,,,,,,,,,,,,,,,,,,,,,,,,,,,,,,,,,,,,,,,,,,,,,,,,,,,,,,,,,,,,,,,,,,,,,,,200.0,125.0,125.0,200.0,141.0,141.0,2.1,2.12,-258,-255,0,-267,266,257,435.716326713562,435.7164556980133,435.71987557411194,435.7308006286621,435.87873554229736,435.87873554229736,435.87873554229736,435.87873554229736,435.87873554229736,435.87873554229736,435.87873554229736,438.21882724761963,1,2.474809408187866,None,,,,,,,,,,,,,,,,,,201,1,2025-03-06_14h43.29.401,comp,2024.2.4,54.15408133885422,2025-03-06 14h43.57.871617 -0500,
113,113,0,catch,None,None,None,None,None,None,None,None,None,None,3,2.8405227661132812,None,,,,,0,0,0,0,0,113,113,125,438.23691296577454,,,,,,,,,,,,,,,,,,,,,,,,,,,,,,,,,,,,,,,,,,,,,,,,,,,,,,,,,,,,,,,,,,,,,,,,,,,,,,,,,72,118,113,77,175,150,2.2,2.21,-194,-282,0,279,210,270,438.22071647644043,438.22079968452454,438.22375082969666,438.23691296577454,438.37570786476135,438.37570786476135,438.37570786476135,438.37570786476135,438.37570786476135,438.37570786476135,438.37570786476135,441.080114364624,3,2.8405227661132812,None,,,,,,,,,,,,,,,,,,201,1,2025-03-06_14h43.29.401,comp,2024.2.4,54.15408133885422,2025-03-06 14h43.57.871617 -0500,
114,114,0,critical,hwd,20.0,2.1,upper,200.0,125.0,125.0,200.0,141.0,141.0,3,8.421294212341309,None,,,,,0,0,0,0,0,114,114,43,441.0961866378784,,,,,,,,,,,,,,,,,,,,,,,,,,,,,,,,,,,,,,,,,,,,,,,,,,,,,,,,,,,,,,,,,,,,,,,,,,,,,,,,,200.0,125.0,125.0,200.0,141.0,141.0,2.1,2.12,-258,-279,0,-272,266,268,441.081738948822,441.08181977272034,441.0853214263916,441.0961866378784,441.24586606025696,441.24586606025696,441.24586606025696,441.24586606025696,441.24586606025696,441.24586606025696,441.24586606025696,449.53526043891907,3,8.421294212341309,None,,,,,,,,,,,,,,,,,,201,1,2025-03-06_14h43.29.401,comp,2024.2.4,54.15408133885422,2025-03-06 14h43.57.871617 -0500,
115,115,0,filler_square,None,None,None,None,None,None,None,None,None,None,3,0.9266514778137207,None,,,,,0,0,0,0,0,115,115,207,449.5513868331909,,,,,,,,,,,,,,,,,,,,,,,,,,,,,,,,,,,,,,,,,,,,,,,,,,,,,,,,,,,,,,,,,,,,,,,,,,,,,,,,,82.89909402710191,107.07834831645464,66.6109883579761,128.43495640526575,132.87574558148646,132.87574558148646,2.1,2.11,-214,258,0,256,227,-251,449.5376560688019,449.53780126571655,449.5410716533661,449.5513868331909,449.6979064941406,449.6979064941406,449.6979064941406,449.6979064941406,449.6979064941406,449.6979064941406,449.6979064941406,450.48271799087524,3,0.9266514778137207,None,,,,,,,,,,,,,,,,,,201,1,2025-03-06_14h43.29.401,comp,2024.2.4,54.15408133885422,2025-03-06 14h43.57.871617 -0500,
116,116,0,filler_square,None,None,None,None,None,None,None,None,None,None,2,1.3466815948486328,None,,,,,0,0,0,0,0,116,116,201,450.49883794784546,,,,,,,,,,,,,,,,,,,,,,,,,,,,,,,,,,,,,,,,,,,,,,,,,,,,,,,,,,,,,,,,,,,,,,,,,,,,,,,,,137.32930698492493,88.85443526141054,194.4051503454269,194.4051503454269,89.85239906783741,133.3122246675651,4.0,4.1,-238,-278,0,-3,260,-282,450.48465609550476,450.48473715782166,450.48819160461426,450.49883794784546,450.64653968811035,450.64653968811035,450.64653968811035,450.64653968811035,450.64653968811035,450.64653968811035,450.64653968811035,451.85835456848145,2,1.3466815948486328,None,,,,,,,,,,,,,,,,,,201,1,2025-03-06_14h43.29.401,comp,2024.2.4,54.15408133885422,2025-03-06 14h43.57.871617 -0500,
117,117,0,critical,dhw,35.0,1.0,lower,70.0,70.0,133.0,57.0,57.0,133.0,3,1.9207496643066406,None,,,,,0,0,0,0,0,117,117,48,451.877836227417,,,,,,,,,,,,,,,,,,,,,,,,,,,,,,,,,,,,,,,,,,,,,,,,,,,,,,,,,,,,,,,,,,,,,,,,,,,,,,,,,70.0,70.0,133.0,57.0,57.0,133.0,1.0,1.3,320,-288,480,-250,671,-284,451.85983300209045,451.85991406440735,451.8629081249237,451.877836227417,452.02356719970703,452.02356719970703,452.02356719970703,452.02356719970703,452.02356719970703,452.02356719970703,452.02356719970703,453.80451703071594,3,1.9207496643066406,None,,,,,,,,,,,,,,,,,,201,1,2025-03-06_14h43.29.401,comp,2024.2.4,54.15408133885422,2025-03-06 14h43.57.871617 -0500,
118,118,0,critical,dhw,20.0,4.0,lower,78.0,78.0,133.0,57.0,57.0,133.0,2,3.4654955863952637,None,,,,,0,0,0,0,0,118,118,58,453.8200445175171,,,,,,,,,,,,,,,,,,,,,,,,,,,,,,,,,,,,,,,,,,,,,,,,,,,,,,,,,,,,,,,,,,,,,,,,,,,,,,,,,78.0,78.0,133.0,57.0,57.0,133.0,4.0,4.1,-164,-254,0,7,191,-275,453.8062126636505,453.80629324913025,453.8093190193176,453.8200445175171,453.9665582180023,453.9665582180023,453.9665582180023,453.9665582180023,453.9665582180023,453.9665582180023,453.9665582180023,457.30283308029175,2,3.4654955863952637,None,,,,,,,,,,,,,,,,,,201,1,2025-03-06_14h43.29.401,comp,2024.2.4,54.15408133885422,2025-03-06 14h43.57.871617 -0500,
119,119,0,filler_random,None,None,None,None,None,None,None,None,None,None,3,1.4529812335968018,None,,,,,0,0,0,0,0,119,119,143,457.32059693336487,,,,,,,,,,,,,,,,,,,,,,,,,,,,,,,,,,,,,,,,,,,,,,,,,,,,,,,,,,,,,,,,,,,,,,,,,,,,,,,,,93.52829680715172,99.35634151811291,88.96085992648226,178.82990748441318,141.59276745437657,191.65945702871483,2.2,2.22,-235,273,0,-258,281,-255,457.3045172691345,457.30465269088745,457.3080258369446,457.32059693336487,457.4688391685486,457.4688391685486,457.4688391685486,457.4688391685486,457.4688391685486,457.4688391685486,457.4688391685486,458.78684639930725,3,1.4529812335968018,None,,,,,,,,,,,,,,,,,,201,1,2025-03-06_14h43.29.401,comp,2024.2.4,54.15408133885422,2025-03-06 14h43.57.871617 -0500,
120,120,0,filler_square,None,None,None,None,None,None,None,None,None,None,3,4.370306015014648,None,,,,,0,0,0,0,0,120,120,173,458.8031919002533,,,,,,,,,,,,,,,,,,,,,,,,,,,,,,,,,,,,,,,,,,,,,,,,,,,,,,,,,,,,,,,,,,,,,,,,,,,,,,,,,110.53331845038173,108.42698206399204,61.66000881959768,66.72247612117245,112.38599313928879,112.38599313928879,1.0,1.1,-664,283,-480,266,-294,264,458.78882670402527,458.78890657424927,458.79284405708313,458.8031919002533,458.953209400177,458.953209400177,458.953209400177,458.953209400177,458.953209400177,458.953209400177,458.953209400177,463.18960905075073,3,4.370306015014648,None,,,,,,,,,,,,,,,,,,201,1,2025-03-06_14h43.29.401,comp,2024.2.4,54.15408133885422,2025-03-06 14h43.57.871617 -0500,
121,121,0,critical,whd,20.0,4.0,upper,125.0,200.0,200.0,125.0,141.0,141.0,2,7.384056091308594,None,,,,,0,0,0,0,0,121,121,95,463.2054831981659,,,,,,,,,,,,,,,,,,,,,,,,,,,,,,,,,,,,,,,,,,,,,,,,,,,,,,,,,,,,,,,,,,,,,,,,,,,,,,,,,125.0,200.0,200.0,125.0,141.0,141.0,4.0,4.2,-258,10,0,-276,229,-7,463.1912565231323,463.1913344860077,463.19478583335876,463.2054831981659,463.3515706062317,463.3515706062317,463.3515706062317,463.3515706062317,463.3515706062317,463.3515706062317,463.3515706062317,470.6056272983551,2,7.384056091308594,None,,,,,,,,,,,,,,,,,,201,1,2025-03-06_14h43.29.401,comp,2024.2.4,54.15408133885422,2025-03-06 14h43.57.871617 -0500,
122,122,0,filler_square,None,None,None,None,None,None,None,None,None,None,1,4.976470232009888,None,,,,,0,0,0,0,0,122,122,187,470.62122535705566,,,,,,,,,,,,,,,,,,,,,,,,,,,,,,,,,,,,,,,,,,,,,,,,,,,,,,,,,,,,,,,,,,,,,,,,,,,,,,,,,67.45406324263689,67.45406324263689,57.99675903325894,60.106280374187165,59.19382301825429,60.55018411149511,3.0,3.1,-160,283,0,-13,156,-287,470.6074686050415,470.60754895210266,470.61091351509094,470.62122535705566,470.7742350101471,470.7742350101471,470.7742350101471,470.7742350101471,470.7742350101471,470.7742350101471,470.7742350101471,475.6000509262085,1,4.976470232009888,None,,,,,,,,,,,,,,,,,,201,1,2025-03-06_14h43.29.401,comp,2024.2.4,54.15408133885422,2025-03-06 14h43.57.871617 -0500,
123,123,0,critical,hwd,35.0,2.1,lower,133.0,57.0,57.0,133.0,70.0,70.0,1,2.5660386085510254,None,,,,,0,0,0,0,0,123,123,40,475.61552596092224,,,,,,,,,,,,,,,,,,,,,,,,,,,,,,,,,,,,,,,,,,,,,,,,,,,,,,,,,,,,,,,,,,,,,,,,,,,,,,,,,133.0,57.0,57.0,133.0,70.0,70.0,2.1,2.11,-191,283,0,262,198,-277,475.60155963897705,475.6016399860382,475.60458397865295,475.61552596092224,475.7588355541229,475.7588355541229,475.7588355541229,475.7588355541229,475.7588355541229,475.7588355541229,475.7588355541229,478.19240641593933,1,2.5660386085510254,None,,,,,,,,,,,,,,,,,,201,1,2025-03-06_14h43.29.401,comp,2024.2.4,54.15408133885422,2025-03-06 14h43.57.871617 -0500,
124,124,0,filler_random,None,None,None,None,None,None,None,None,None,None,1,1.405841588973999,None,,,,,0,0,0,0,0,124,124,159,478.2088134288788,,,,,,,,,,,,,,,,,,,,,,,,,,,,,,,,,,,,,,,,,,,,,,,,,,,,,,,,,,,,,,,,,,,,,,,,,,,,,,,,,167.60923225898387,172.63709938806642,130.48070163795185,187.41210441790955,155.7372072455995,67.11396544454318,2.1,2.11,-276,287,0,255,223,-254,478.1940622329712,478.19416189193726,478.1975815296173,478.2088134288788,478.3583767414093,478.3583767414093,478.3583767414093,478.3583767414093,478.3583767414093,478.3583767414093,478.3583767414093,479.6252980232239,1,1.405841588973999,None,,,,,,,,,,,,,,,,,,201,1,2025-03-06_14h43.29.401,comp,2024.2.4,54.15408133885422,2025-03-06 14h43.57.871617 -0500,
125,125,0,critical,hwd,35.0,4.0,upper,200.0,125.0,125.0,200.0,127.0,127.0,1,3.0841593742370605,None,,,,,0,0,0,0,0,125,125,101,479.641544342041,,,,,,,,,,,,,,,,,,,,,,,,,,,,,,,,,,,,,,,,,,,,,,,,,,,,,,,,,,,,,,,,,,,,,,,,,,,,,,,,,200.0,125.0,125.0,200.0,127.0,127.0,4.0,4.2,-258,-14,0,-285,260,-7,479.6268615722656,479.62697768211365,479.630494594574,479.641544342041,479.7914865016937,479.7914865016937,479.7914865016937,479.7914865016937,479.7914865016937,479.7914865016937,479.7914865016937,482.72873711586,1,3.0841593742370605,None,,,,,,,,,,,,,,,,,,201,1,2025-03-06_14h43.29.401,comp,2024.2.4,54.15408133885422,2025-03-06 14h43.57.871617 -0500,
126,126,0,filler_random,None,None,None,None,None,None,None,None,None,None,3,1.636786699295044,None,,,,,0,0,0,0,0,126,126,154,482.7446360588074,,,,,,,,,,,,,,,,,,,,,,,,,,,,,,,,,,,,,,,,,,,,,,,,,,,,,,,,,,,,,,,,,,,,,,,,,,,,,,,,,88.18527043413032,61.11258373301941,146.20582957303645,189.8886060520791,166.0472503806699,187.3469079842421,2.2,2.21,-222,-270,0,256,285,280,482.73049783706665,482.7305808067322,482.73382472991943,482.7446360588074,482.8925290107727,482.8925290107727,482.8925290107727,482.8925290107727,482.8925290107727,482.8925290107727,482.8925290107727,484.3965528011322,3,1.636786699295044,None,,,,,,,,,,,,,,,,,,201,1,2025-03-06_14h43.29.401,comp,2024.2.4,54.15408133885422,2025-03-06 14h43.57.871617 -0500,
127,127,0,critical,whd,20.0,4.0,lower,57.0,133.0,133.0,57.0,78.0,78.0,2,6.671799421310425,None,,,,,0,0,0,0,0,127,127,94,484.4136686325073,,,,,,,,,,,,,,,,,,,,,,,,,,,,,,,,,,,,,,,,,,,,,,,,,,,,,,,,,,,,,,,,,,,,,,,,,,,,,,,,,57.0,133.0,133.0,57.0,78.0,78.0,4.0,4.2,-191,17,0,-252,164,3,484.39819955825806,484.398309469223,484.4018602371216,484.4136686325073,484.56540274620056,484.56540274620056,484.56540274620056,484.56540274620056,484.56540274620056,484.56540274620056,484.56540274620056,491.0982732772827,2,6.671799421310425,None,,,,,,,,,,,,,,,,,,201,1,2025-03-06_14h43.29.401,comp,2024.2.4,54.15408133885422,2025-03-06 14h43.57.871617 -0500,
128,128,0,catch,None,None,None,None,None,None,None,None,None,None,2,1.888519287109375,None,,,,,0,0,0,0,0,128,128,122,491.1177887916565,,,,,,,,,,,,,,,,,,,,,,,,,,,,,,,,,,,,,,,,,,,,,,,,,,,,,,,,,,,,,,,,,,,,,,,,,,,,,,,,,133,57,132,193,126,64,2.2,2.22,-221,277,0,-286,224,-262,491.1005611419678,491.10064578056335,491.1041421890259,491.1177887916565,491.2618737220764,491.2618737220764,491.2618737220764,491.2618737220764,491.2618737220764,491.2618737220764,491.2618737220764,493.0088167190552,2,1.888519287109375,None,,,,,,,,,,,,,,,,,,201,1,2025-03-06_14h43.29.401,comp,2024.2.4,54.15408133885422,2025-03-06 14h43.57.871617 -0500,
129,129,0,critical,dhw,20.0,3.0,upper,141.0,141.0,200.0,125.0,125.0,200.0,2,2.677008628845215,None,,,,,0,0,0,0,0,129,129,57,493.0250210762024,,,,,,,,,,,,,,,,,,,,,,,,,,,,,,,,,,,,,,,,,,,,,,,,,,,,,,,,,,,,,,,,,,,,,,,,,,,,,,,,,141.0,141.0,200.0,125.0,125.0,200.0,3.0,3.1,-229,258,0,-8,258,-252,493.0103545188904,493.01043486595154,493.01343727111816,493.0250210762024,493.1776125431061,493.1776125431061,493.1776125431061,493.1776125431061,493.1776125431061,493.1776125431061,493.1776125431061,495.7212870121002,2,2.677008628845215,None,,,,,,,,,,,,,,,,,,201,1,2025-03-06_14h43.29.401,comp,2024.2.4,54.15408133885422,2025-03-06 14h43.57.871617 -0500,
130,130,0,catch,None,None,None,None,None,None,None,None,None,None,1,1.18648362159729,None,,,,,0,0,0,0,0,130,130,128,495.7397153377533,,,,,,,,,,,,,,,,,,,,,,,,,,,,,,,,,,,,,,,,,,,,,,,,,,,,,,,,,,,,,,,,,,,,,,,,,,,,,,,,,154,171,63,127,67,123,4.0,4.2,-245,2,0,-263,221,18,495.72330832481384,495.7233877182007,495.72669291496277,495.7397153377533,495.8800311088562,495.8800311088562,495.8800311088562,495.8800311088562,495.8800311088562,495.8800311088562,495.8800311088562,496.93066596984863,1,1.18648362159729,None,,,,,,,,,,,,,,,,,,201,1,2025-03-06_14h43.29.401,comp,2024.2.4,54.15408133885422,2025-03-06 14h43.57.871617 -0500,
131,131,0,critical,hwd,35.0,3.0,upper,200.0,125.0,125.0,200.0,127.0,127.0,1,1.266793966293335,None,,,,,0,0,0,0,0,131,131,99,496.9467692375183,,,,,,,,,,,,,,,,,,,,,,,,,,,,,,,,,,,,,,,,,,,,,,,,,,,,,,,,,,,,,,,,,,,,,,,,,,,,,,,,,200.0,125.0,125.0,200.0,127.0,127.0,3.0,3.1,-258,280,0,2,260,-251,496.93228912353516,496.93236899375916,496.93587279319763,496.9467692375183,497.0944263935089,497.0944263935089,497.0944263935089,497.0944263935089,497.0944263935089,497.0944263935089,497.0944263935089,498.2312910556793,1,1.266793966293335,None,,,,,,,,,,,,,,,,,,201,1,2025-03-06_14h43.29.401,comp,2024.2.4,54.15408133885422,2025-03-06 14h43.57.871617 -0500,
132,132,0,critical,hwd,35.0,2.1,upper,200.0,125.0,125.0,200.0,127.0,127.0,1,2.141859292984009,None,,,,,0,0,0,0,0,132,132,17,498.24767422676086,,,,,,,,,,,,,,,,,,,,,,,,,,,,,,,,,,,,,,,,,,,,,,,,,,,,,,,,,,,,,,,,,,,,,,,,,,,,,,,,,200.0,125.0,125.0,200.0,127.0,127.0,2.1,2.12,-258,-276,0,-269,260,268,498.2328474521637,498.2329556941986,498.2370767593384,498.24767422676086,498.3971734046936,498.3971734046936,498.3971734046936,498.3971734046936,498.3971734046936,498.3971734046936,498.3971734046936,500.3998456001282,1,2.141859292984009,None,,,,,,,,,,,,,,,,,,201,1,2025-03-06_14h43.29.401,comp,2024.2.4,54.15408133885422,2025-03-06 14h43.57.871617 -0500,
133,133,0,critical,hdw,35.0,3.0,upper,200.0,125.0,127.0,127.0,125.0,200.0,1,2.055284023284912,None,,,,,0,0,0,0,0,133,133,111,500.4164640903473,,,,,,,,,,,,,,,,,,,,,,,,,,,,,,,,,,,,,,,,,,,,,,,,,,,,,,,,,,,,,,,,,,,,,,,,,,,,,,,,,200.0,125.0,127.0,127.0,125.0,200.0,3.0,3.2,-222,-256,0,14,260,270,500.4014401435852,500.4015724658966,500.40562868118286,500.4164640903473,500.5656454563141,500.5656454563141,500.5656454563141,500.5656454563141,500.5656454563141,500.5656454563141,500.5656454563141,502.48289585113525,1,2.055284023284912,None,,,,,,,,,,,,,,,,,,201,1,2025-03-06_14h43.29.401,comp,2024.2.4,54.15408133885422,2025-03-06 14h43.57.871617 -0500,
134,134,0,critical,dwh,35.0,4.0,lower,70.0,70.0,57.0,133.0,133.0,57.0,3,3.9225611686706543,None,,,,,0,0,0,0,0,134,134,64,502.49911093711853,,,,,,,,,,,,,,,,,,,,,,,,,,,,,,,,,,,,,,,,,,,,,,,,,,,,,,,,,,,,,,,,,,,,,,,,,,,,,,,,,70.0,70.0,57.0,133.0,133.0,57.0,4.0,4.1,-198,-278,0,9,191,-280,502.4845173358917,502.4846189022064,502.48824548721313,502.49911093711853,502.6459159851074,502.6459159851074,502.6459159851074,502.6459159851074,502.6459159851074,502.6459159851074,502.6459159851074,506.43499398231506,3,3.9225611686706543,None,,,,,,,,,,,,,,,,,,201,1,2025-03-06_14h43.29.401,comp,2024.2.4,54.15408133885422,2025-03-06 14h43.57.871617 -0500,
135,135,0,critical,wdh,20.0,4.0,lower,57.0,133.0,78.0,78.0,133.0,57.0,2,4.791448593139648,None,,,,,0,0,0,0,0,135,135,82,506.44623589515686,,,,,,,,,,,,,,,,,,,,,,,,,,,,,,,,,,,,,,,,,,,,,,,,,,,,,,,,,,,,,,,,,,,,,,,,,,,,,,,,,57.0,133.0,78.0,78.0,133.0,57.0,4.0,4.1,-202,-273,0,4,164,-287,506.4359874725342,506.43604159355164,506.43754029273987,506.44623589515686,506.6005804538727,506.6005804538727,506.6005804538727,506.6005804538727,506.6005804538727,506.6005804538727,506.6005804538727,511.2535893917084,2,4.791448593139648,None,,,,,,,,,,,,,,,,,,201,1,2025-03-06_14h43.29.401,comp,2024.2.4,54.15408133885422,2025-03-06 14h43.57.871617 -0500,
136,136,0,filler_square,None,None,None,None,None,None,None,None,None,None,1,10.183724403381348,None,,,,,0,0,0,0,0,136,136,181,511.26985454559326,,,,,,,,,,,,,,,,,,,,,,,,,,,,,,,,,,,,,,,,,,,,,,,,,,,,,,,,,,,,,,,,,,,,,,,,,,,,,,,,,147.50402092721288,147.50402092721288,86.58664472768685,134.2940272475399,103.46033750854298,126.89668414313284,2.1,2.12,-237,-274,0,-276,227,260,511.2557511329651,511.2558743953705,511.2594301700592,511.26985454559326,511.41810488700867,511.41810488700867,511.41810488700867,511.41810488700867,511.41810488700867,511.41810488700867,511.41810488700867,521.4658806324005,1,10.183724403381348,None,,,,,,,,,,,,,,,,,,201,1,2025-03-06_14h43.29.401,comp,2024.2.4,54.15408133885422,2025-03-06 14h43.57.871617 -0500,
137,137,0,critical,hwd,35.0,1.0,upper,200.0,125.0,125.0,200.0,127.0,127.0,2,4.380061388015747,None,,,,,0,0,0,0,0,137,137,97,521.4814999103546,,,,,,,,,,,,,,,,,,,,,,,,,,,,,,,,,,,,,,,,,,,,,,,,,,,,,,,,,,,,,,,,,,,,,,,,,,,,,,,,,200.0,125.0,125.0,200.0,127.0,127.0,1.0,1.1,-738,251,-480,251,-220,264,521.4674632549286,521.4675440788269,521.4704966545105,521.4814999103546,521.6235864162445,521.6235864162445,521.6235864162445,521.6235864162445,521.6235864162445,521.6235864162445,521.6235864162445,525.871426820755,2,4.380061388015747,None,,,,,,,,,,,,,,,,,,201,1,2025-03-06_14h43.29.401,comp,2024.2.4,54.15408133885422,2025-03-06 14h43.57.871617 -0500,
138,138,0,critical,hwd,20.0,2.1,lower,133.0,57.0,57.0,133.0,78.0,78.0,1,2.629776954650879,None,,,,,0,0,0,0,0,138,138,18,525.888578414917,,,,,,,,,,,,,,,,,,,,,,,,,,,,,,,,,,,,,,,,,,,,,,,,,,,,,,,,,,,,,,,,,,,,,,,,,,,,,,,,,133.0,57.0,57.0,133.0,78.0,78.0,2.1,2.11,-191,258,0,270,202,-276,525.8730483055115,525.8731279373169,525.876631975174,525.888578414917,526.0394170284271,526.0394170284271,526.0394170284271,526.0394170284271,526.0394170284271,526.0394170284271,526.0394170284271,528.5253131389618,1,2.629776954650879,None,,,,,,,,,,,,,,,,,,201,1,2025-03-06_14h43.29.401,comp,2024.2.4,54.15408133885422,2025-03-06 14h43.57.871617 -0500,
139,139,0,critical,hwd,20.0,4.0,lower,133.0,57.0,57.0,133.0,78.0,78.0,1,5.543182134628296,None,,,,,0,0,0,0,0,139,139,106,528.542341709137,,,,,,,,,,,,,,,,,,,,,,,,,,,,,,,,,,,,,,,,,,,,,,,,,,,,,,,,,,,,,,,,,,,,,,,,,,,,,,,,,133.0,57.0,57.0,133.0,78.0,78.0,4.0,4.1,-191,-258,0,12,202,-285,528.5269618034363,528.527046918869,528.530580997467,528.542341709137,528.6904609203339,528.6904609203339,528.6904609203339,528.6904609203339,528.6904609203339,528.6904609203339,528.6904609203339,534.1052498817444,1,5.543182134628296,None,,,,,,,,,,,,,,,,,,201,1,2025-03-06_14h43.29.401,comp,2024.2.4,54.15408133885422,2025-03-06 14h43.57.871617 -0500,
