thisN,thisTrialN,thisRepN,effect,order,distance,config,diag,h_1,w_1,h_2,w_2,h_3,w_3,rect_choice.keys,rect_choice.rt,rect_choice.duration,instructions_loop.thisRepN,instructions_loop.thisTrialN,instructions_loop.thisN,instructions_loop.thisIndex,blocks.thisRepN,blocks.thisTrialN,blocks.thisN,blocks.thisIndex,trials.thisRepN,trials.thisTrialN,trials.thisN,trials.thisIndex,thisRow.t,notes,consent.started,agree_button.started,decline_button.started,consent_img.started,mouse.started,consent.stopped,agree_button.numClicks,agree_button.timesOn,agree_button.timesOff,decline_button.numClicks,decline_button.timesOn,decline_button.timesOff,mouse.x,mouse.y,mouse.leftButton,mouse.midButton,mouse.rightButton,mouse.time,mouse.clicked_name,exp_params.started,exp_params.stopped,welcome.started,welcome_text.started,welcome.stopped,instructions_1.started,instructions_1_text_1.started,instructions_1_text_2.started,key_resp.started,instructions_1.stopped,instructions_loop.key_resp.keys,instructions_loop.key_resp.rt,instructions_loop.key_resp.duration,instructions_2.started,instructions_2_text_1.started,instructions_2_text_2.started,key_resp_2.started,instructions_2.stopped,instructions_loop.key_resp_2.keys,instructions_loop.key_resp_2.rt,instructions_loop.key_resp_2.duration,instructions_3.started,instructions_3_text_1.started,r1_instr3.started,r2_instr3.started,r3_instr3.started,r1_instr3_label.started,r2_instr3_label.started,r3_instr3_label.started,instructions_3_text_3.started,instructions_3_text_4.started,key_resp_3.started,instructions_3.stopped,instructions_loop.key_resp_3.keys,instructions_loop.key_resp_3.rt,instructions_loop.key_resp_3.duration,instructions_4.started,instructions_4_text_1.started,instructions_4_text_3.started,instructions_4_text_2.started,key_resp_4.started,instructions_4.stopped,instructions_loop.key_resp_4.keys,instructions_loop.key_resp_4.rt,instructions_loop.key_resp_4.duration,instructions_5.started,instructions_5_text_1.started,instructions_5_text_2.started,key_resp_5.started,instructions_5.stopped,instructions_loop.key_resp_5.keys,instructions_loop.key_resp_5.rt,instructions_loop.key_resp_5.duration,start_exp.started,start_exp_text.started,key_resp_6.started,start_exp.stopped,key_resp_6.keys,key_resp_6.rt,key_resp_6.duration,h_1_tmp,w_1_tmp,h_2_tmp,w_2_tmp,h_3_tmp,w_3_tmp,config_tmp,config_tmp_1,r_1_x,r_1_y,r_2_x,r_2_y,r_3_x,r_3_y,pre_trial.started,pre_trial.stopped,choice_trial.started,rect_choice.started,r_1.started,r_2.started,r_3.started,r_1_label.started,r_2_label.started,r_3_label.started,prompt.started,choice_trial.stopped,trials.rect_choice.keys,trials.rect_choice.rt,trials.rect_choice.duration,end_block.started,end_block_text.started,end_block.stopped,end.started,end_text.started,key_resp_7.started,end.stopped,key_resp_7.keys,key_resp_7.rt,key_resp_7.duration,debriefing.started,debrief_form.started,end_debrief.started,debriefing.stopped,end_debrief.keys,end_debrief.rt,end_debrief.duration,participant,computer,date,expName,psychopyVersion,frameRate,expStart,
,,,,,,,,,,,,,,,,,,,,,,,,,,,,,,,0.014846086502075195,0.03793168067932129,0.03793168067932129,0.03793168067932129,0.014641046524047852,37.14410448074341,1,[37.10387563705444],[37.10389590263367],0,,,"[53.0, -73.0]","[-231.0, -498.0]","[0, 1]","[1, 0]","[0, 0]","[34.82818651199341, 37.12869644165039]","[None, 'agree_button']",,,,,,,,,,,,,,,,,,,,,,,,,,,,,,,,,,,,,,,,,,,,,,,,,,,,,,,,,,,,,,,,,,,,,,,,,,,,,,,,,,,,,,,,,,,,,,,,,,,,,,,,,,,202,2,2025-03-06_14h43.59.992,comp,2024.2.4,57.67832021661494,2025-03-06 14h44.08.529362 -0500,
,,,,,,,,,,,,,,,,,,,,,,,,,,,,,,,,,,,,,,,,,,,,,,,,,,37.144877672195435,37.14494562149048,,,,,,,,,,,,,,,,,,,,,,,,,,,,,,,,,,,,,,,,,,,,,,,,,,,,,,,,,,,,,,,,,,,,,,,,,,,,,,,,,,,,,,,,,,,,,,,,,,,,,,,,,202,2,2025-03-06_14h43.59.992,comp,2024.2.4,57.67832021661494,2025-03-06 14h44.08.529362 -0500,
,,,,,,,,,,,,,,,,,,,,,,,,,,,,,,,,,,,,,,,,,,,,,,,,,,,,37.14498972892761,37.162965297698975,39.15279674530029,,,,,,,,,,,,,,,,,,,,,,,,,,,,,,,,,,,,,,,,,,,,,,,,,,,,,,,,,,,,,,,,,,,,,,,,,,,,,,,,,,,,,,,,,,,,,,,,,,,,,,202,2,2025-03-06_14h43.59.992,comp,2024.2.4,57.67832021661494,2025-03-06 14h44.08.529362 -0500,
0,0,0,,,,,,,,,,,,,,,0,0,0,0,,,,,,,,,39.169408082962036,,,,,,,,,,,,,,,,,,,,,,,,,,39.154234170913696,39.169408082962036,39.169408082962036,40.65138483047485,45.70605492591858,space,5.049858331680298,None,45.70624542236328,45.72173452377319,45.72173452377319,47.22172713279724,55.49307346343994,space,8.263221502304077,None,55.49324631690979,55.52071213722229,55.52071213722229,55.52071213722229,55.52071213722229,55.52071213722229,55.52071213722229,55.52071213722229,55.52071213722229,55.52071213722229,57.00026607513428,61.34418797492981,space,4.340941667556763,None,61.3443489074707,61.360605001449585,61.360605001449585,61.360605001449585,62.84406900405884,68.04692459106445,space,5.192728519439697,None,68.04707646369934,68.06388688087463,68.06388688087463,69.55901741981506,70.7805688381195,space,1.2053608894348145,None,70.78076171875,70.79570293426514,70.79570293426514,72.01367330551147,space,1.2006597518920898,None,,,,,,,,,,,,,,,,,,,,,,,,,,,,,,,,,,,,,,,,,,,,,,,202,2,2025-03-06_14h43.59.992,comp,2024.2.4,57.67832021661494,2025-03-06 14h44.08.529362 -0500,
0,0,0,critical,hwd,20.0,2.1,upper,200.0,125.0,125.0,200.0,141.0,141.0,1,5.173960447311401,None,,,,,0,0,0,0,0,0,0,19,72.09447836875916,,,,,,,,,,,,,,,,,,,,,,,,,,,,,,,,,,,,,,,,,,,,,,,,,,,,,,,,,,,,,,,,,,,,,,,,,,,,,,,,,200.0,125.0,125.0,200.0,141.0,141.0,2.1,2.11,-258,253,0,255,266,-270,72.07807469367981,72.07813835144043,72.08002281188965,72.09447836875916,72.23690533638,72.23690533638,72.23690533638,72.23690533638,72.23690533638,72.23690533638,72.23690533638,77.284259557724,1,5.173960447311401,None,,,,,,,,,,,,,,,,,,202,2,2025-03-06_14h43.59.992,comp,2024.2.4,57.67832021661494,2025-03-06 14h44.08.529362 -0500,
1,1,0,critical,hwd,20.0,1.0,lower,133.0,57.0,57.0,133.0,78.0,78.0,2,8.5199613571167,None,,,,,0,0,0,0,0,1,1,102,77.30045485496521,,,,,,,,,,,,,,,,,,,,,,,,,,,,,,,,,,,,,,,,,,,,,,,,,,,,,,,,,,,,,,,,,,,,,,,,,,,,,,,,,133.0,57.0,57.0,133.0,78.0,78.0,1.0,1.3,289,-262,480,-284,682,-274,77.28586626052856,77.28594398498535,77.28947567939758,77.30045485496521,77.4503390789032,77.4503390789032,77.4503390789032,77.4503390789032,77.4503390789032,77.4503390789032,77.4503390789032,85.83528113365173,2,8.5199613571167,None,,,,,,,,,,,,,,,,,,202,2,2025-03-06_14h43.59.992,comp,2024.2.4,57.67832021661494,2025-03-06 14h44.08.529362 -0500,
2,2,0,critical,hwd,20.0,1.0,upper,200.0,125.0,125.0,200.0,141.0,141.0,2,4.298832416534424,None,,,,,0,0,0,0,0,2,2,103,85.85001826286316,,,,,,,,,,,,,,,,,,,,,,,,,,,,,,,,,,,,,,,,,,,,,,,,,,,,,,,,,,,,,,,,,,,,,,,,,,,,,,,,,200.0,125.0,125.0,200.0,141.0,141.0,1.0,1.2,-258,-18,0,6,266,11,85.83663558959961,85.83667945861816,85.83885669708252,85.85001826286316,86.00197100639343,86.00197100639343,86.00197100639343,86.00197100639343,86.00197100639343,86.00197100639343,86.00197100639343,90.15602970123291,2,4.298832416534424,None,,,,,,,,,,,,,,,,,,202,2,2025-03-06_14h43.59.992,comp,2024.2.4,57.67832021661494,2025-03-06 14h44.08.529362 -0500,
3,3,0,filler_square,None,None,None,None,None,None,None,None,None,None,2,2.01303768157959,None,,,,,0,0,0,0,0,3,3,204,90.17534971237183,,,,,,,,,,,,,,,,,,,,,,,,,,,,,,,,,,,,,,,,,,,,,,,,,,,,,,,,,,,,,,,,,,,,,,,,,,,,,,,,,57.33385959100972,71.83212189462658,80.05926987646595,80.05926987646595,71.91071955176731,58.7556721836101,2.1,2.11,-172,271,0,281,165,-257,90.15811538696289,90.15820264816284,90.16175174713135,90.17534971237183,90.31680941581726,90.31680941581726,90.31680941581726,90.31680941581726,90.31680941581726,90.31680941581726,90.31680941581726,92.20576667785645,2,2.01303768157959,None,,,,,,,,,,,,,,,,,,202,2,2025-03-06_14h43.59.992,comp,2024.2.4,57.67832021661494,2025-03-06 14h44.08.529362 -0500,
4,4,0,critical,wdh,35.0,3.0,upper,125.0,200.0,127.0,127.0,200.0,125.0,3,2.850815773010254,None,,,,,0,0,0,0,0,4,4,75,92.22571539878845,,,,,,,,,,,,,,,,,,,,,,,,,,,,,,,,,,,,,,,,,,,,,,,,,,,,,,,,,,,,,,,,,,,,,,,,,,,,,,,,,125.0,200.0,127.0,127.0,200.0,125.0,3.0,3.1,-260,271,0,-3,222,-257,92.20730805397034,92.20739006996155,92.2104082107544,92.22571539878845,92.37007927894592,92.37007927894592,92.37007927894592,92.37007927894592,92.37007927894592,92.37007927894592,92.37007927894592,95.07930946350098,3,2.850815773010254,None,,,,,,,,,,,,,,,,,,202,2,2025-03-06_14h43.59.992,comp,2024.2.4,57.67832021661494,2025-03-06 14h44.08.529362 -0500,
5,5,0,filler_random,None,None,None,None,None,None,None,None,None,None,2,4.536026477813721,None,,,,,0,0,0,0,0,5,5,154,95.10032105445862,,,,,,,,,,,,,,,,,,,,,,,,,,,,,,,,,,,,,,,,,,,,,,,,,,,,,,,,,,,,,,,,,,,,,,,,,,,,,,,,,74.36665779592099,151.43028884958943,127.9390087773352,159.91685735363598,115.04310547728345,175.09613460288364,4.0,4.2,-252,-18,0,-255,264,2,95.08114862442017,95.08127427101135,95.08453226089478,95.10032105445862,95.23936128616333,95.23936128616333,95.23936128616333,95.23936128616333,95.23936128616333,95.23936128616333,95.23936128616333,99.65538048744202,2,4.536026477813721,None,,,,,,,,,,,,,,,,,,202,2,2025-03-06_14h43.59.992,comp,2024.2.4,57.67832021661494,2025-03-06 14h44.08.529362 -0500,
6,6,0,critical,hdw,20.0,4.0,upper,200.0,125.0,141.0,141.0,125.0,200.0,1,1.6296226978302002,None,,,,,0,0,0,0,0,6,6,119,99.6717095375061,,,,,,,,,,,,,,,,,,,,,,,,,,,,,,,,,,,,,,,,,,,,,,,,,,,,,,,,,,,,,,,,,,,,,,,,,,,,,,,,,200.0,125.0,141.0,141.0,125.0,200.0,4.0,4.1,-229,-268,0,-16,266,-260,99.65693664550781,99.65701222419739,99.66028308868408,99.6717095375061,99.82157111167908,99.82157111167908,99.82157111167908,99.82157111167908,99.82157111167908,99.82157111167908,99.82157111167908,101.3072156906128,1,1.6296226978302002,None,,,,,,,,,,,,,,,,,,202,2,2025-03-06_14h43.59.992,comp,2024.2.4,57.67832021661494,2025-03-06 14h44.08.529362 -0500,
7,7,0,critical,dhw,35.0,2.1,upper,127.0,127.0,200.0,125.0,125.0,200.0,3,4.051483631134033,None,,,,,0,0,0,0,0,7,7,25,101.32164096832275,,,,,,,,,,,,,,,,,,,,,,,,,,,,,,,,,,,,,,,,,,,,,,,,,,,,,,,,,,,,,,,,,,,,,,,,,,,,,,,,,127.0,127.0,200.0,125.0,125.0,200.0,2.1,2.11,-222,280,0,262,258,-286,101.30873155593872,101.30880761146545,101.31187725067139,101.32164096832275,101.47537231445312,101.47537231445312,101.47537231445312,101.47537231445312,101.47537231445312,101.47537231445312,101.47537231445312,105.3761203289032,3,4.051483631134033,None,,,,,,,,,,,,,,,,,,202,2,2025-03-06_14h43.59.992,comp,2024.2.4,57.67832021661494,2025-03-06 14h44.08.529362 -0500,
8,8,0,critical,dhw,20.0,3.0,upper,141.0,141.0,200.0,125.0,125.0,200.0,2,4.06094217300415,None,,,,,0,0,0,0,0,8,8,57,105.39190793037415,,,,,,,,,,,,,,,,,,,,,,,,,,,,,,,,,,,,,,,,,,,,,,,,,,,,,,,,,,,,,,,,,,,,,,,,,,,,,,,,,141.0,141.0,200.0,125.0,125.0,200.0,3.0,3.2,-229,-267,0,-7,258,262,105.37780904769897,105.37790417671204,105.38122272491455,105.39190793037415,105.5442705154419,105.5442705154419,105.5442705154419,105.5442705154419,105.5442705154419,105.5442705154419,105.5442705154419,109.46169447898865,2,4.06094217300415,None,,,,,,,,,,,,,,,,,,202,2,2025-03-06_14h43.59.992,comp,2024.2.4,57.67832021661494,2025-03-06 14h44.08.529362 -0500,
9,9,0,critical,dhw,20.0,4.0,upper,141.0,141.0,200.0,125.0,125.0,200.0,2,3.779609441757202,None,,,,,0,0,0,0,0,9,9,59,109.48077607154846,,,,,,,,,,,,,,,,,,,,,,,,,,,,,,,,,,,,,,,,,,,,,,,,,,,,,,,,,,,,,,,,,,,,,,,,,,,,,,,,,141.0,141.0,200.0,125.0,125.0,200.0,4.0,4.2,-229,-20,0,-275,258,8,109.46331334114075,109.46339201927185,109.46644139289856,109.48077607154846,109.62754845619202,109.62754845619202,109.62754845619202,109.62754845619202,109.62754845619202,109.62754845619202,109.62754845619202,113.27790570259094,2,3.779609441757202,None,,,,,,,,,,,,,,,,,,202,2,2025-03-06_14h43.59.992,comp,2024.2.4,57.67832021661494,2025-03-06 14h44.08.529362 -0500,
10,10,0,catch,None,None,None,None,None,None,None,None,None,None,3,1.840315341949463,None,,,,,0,0,0,0,0,10,10,123,113.29211664199829,,,,,,,,,,,,,,,,,,,,,,,,,,,,,,,,,,,,,,,,,,,,,,,,,,,,,,,,,,,,,,,,,,,,,,,,,,,,,,,,,67,123,91,99,169,156,2.1,2.12,-207,-260,0,-266,224,253,113.27987289428711,113.27997136116028,113.28302550315857,113.29211664199829,113.44376611709595,113.44376611709595,113.44376611709595,113.44376611709595,113.44376611709595,113.44376611709595,113.44376611709595,115.14641094207764,3,1.840315341949463,None,,,,,,,,,,,,,,,,,,202,2,2025-03-06_14h43.59.992,comp,2024.2.4,57.67832021661494,2025-03-06 14h44.08.529362 -0500,
11,11,0,critical,hdw,35.0,3.0,lower,133.0,57.0,70.0,70.0,57.0,133.0,1,2.4732794761657715,None,,,,,0,0,0,0,0,11,11,110,115.16390419006348,,,,,,,,,,,,,,,,,,,,,,,,,,,,,,,,,,,,,,,,,,,,,,,,,,,,,,,,,,,,,,,,,,,,,,,,,,,,,,,,,133.0,57.0,70.0,70.0,57.0,133.0,3.0,3.2,-160,-250,0,-15,198,252,115.1480700969696,115.14823365211487,115.15162420272827,115.16390419006348,115.3097665309906,115.3097665309906,115.3097665309906,115.3097665309906,115.3097665309906,115.3097665309906,115.3097665309906,117.64428615570068,1,2.4732794761657715,None,,,,,,,,,,,,,,,,,,202,2,2025-03-06_14h43.59.992,comp,2024.2.4,57.67832021661494,2025-03-06 14h44.08.529362 -0500,
12,12,0,critical,hwd,20.0,4.0,upper,200.0,125.0,125.0,200.0,141.0,141.0,1,2.576545000076294,None,,,,,0,0,0,0,0,12,12,107,117.66078329086304,,,,,,,,,,,,,,,,,,,,,,,,,,,,,,,,,,,,,,,,,,,,,,,,,,,,,,,,,,,,,,,,,,,,,,,,,,,,,,,,,200.0,125.0,125.0,200.0,141.0,141.0,4.0,4.1,-258,-270,0,16,266,-273,117.64586877822876,117.64594960212708,117.64901733398438,117.66078329086304,117.81492257118225,117.81492257118225,117.81492257118225,117.81492257118225,117.81492257118225,117.81492257118225,117.81492257118225,120.24324893951416,1,2.576545000076294,None,,,,,,,,,,,,,,,,,,202,2,2025-03-06_14h43.59.992,comp,2024.2.4,57.67832021661494,2025-03-06 14h44.08.529362 -0500,
13,13,0,filler_square,None,None,None,None,None,None,None,None,None,None,1,1.4481732845306396,None,,,,,0,0,0,0,0,13,13,202,120.26063227653503,,,,,,,,,,,,,,,,,,,,,,,,,,,,,,,,,,,,,,,,,,,,,,,,,,,,,,,,,,,,,,,,,,,,,,,,,,,,,,,,,162.65119497749882,162.65119497749882,72.84701482942023,91.39772980716026,129.9337801355505,134.03774810633251,3.0,3.1,-223,275,0,-14,209,-269,120.24535059928894,120.24543237686157,120.24875211715698,120.26063227653503,120.40860962867737,120.40860962867737,120.40860962867737,120.40860962867737,120.40860962867737,120.40860962867737,120.40860962867737,121.71260380744934,1,1.4481732845306396,None,,,,,,,,,,,,,,,,,,202,2,2025-03-06_14h43.59.992,comp,2024.2.4,57.67832021661494,2025-03-06 14h44.08.529362 -0500,
14,14,0,critical,wdh,20.0,2.1,upper,125.0,200.0,141.0,141.0,200.0,125.0,1,2.4271304607391357,None,,,,,0,0,0,0,0,14,14,11,121.72919034957886,,,,,,,,,,,,,,,,,,,,,,,,,,,,,,,,,,,,,,,,,,,,,,,,,,,,,,,,,,,,,,,,,,,,,,,,,,,,,,,,,125.0,200.0,141.0,141.0,200.0,125.0,2.1,2.12,-266,-268,0,-260,229,254,121.71432304382324,121.71440434455872,121.71754193305969,121.72919034957886,121.88161420822144,121.88161420822144,121.88161420822144,121.88161420822144,121.88161420822144,121.88161420822144,121.88161420822144,124.16574501991272,1,2.4271304607391357,None,,,,,,,,,,,,,,,,,,202,2,2025-03-06_14h43.59.992,comp,2024.2.4,57.67832021661494,2025-03-06 14h44.08.529362 -0500,
15,15,0,filler_square,None,None,None,None,None,None,None,None,None,None,1,1.8467433452606201,None,,,,,0,0,0,0,0,15,15,185,124.18187141418457,,,,,,,,,,,,,,,,,,,,,,,,,,,,,,,,,,,,,,,,,,,,,,,,,,,,,,,,,,,,,,,,,,,,,,,,,,,,,,,,,133.84645721549242,133.84645721549242,102.35870570119653,107.37046674121532,128.44928656886682,84.50011347880931,2.2,2.22,-217,264,0,-280,192,-258,124.16763424873352,124.1677143573761,124.17100310325623,124.18187141418457,124.33063507080078,124.33063507080078,124.33063507080078,124.33063507080078,124.33063507080078,124.33063507080078,124.33063507080078,126.03047394752502,1,1.8467433452606201,None,,,,,,,,,,,,,,,,,,202,2,2025-03-06_14h43.59.992,comp,2024.2.4,57.67832021661494,2025-03-06 14h44.08.529362 -0500,
16,16,0,critical,dwh,35.0,1.0,upper,127.0,127.0,125.0,200.0,200.0,125.0,2,4.2055628299713135,None,,,,,0,0,0,0,0,16,16,61,126.04695844650269,,,,,,,,,,,,,,,,,,,,,,,,,,,,,,,,,,,,,,,,,,,,,,,,,,,,,,,,,,,,,,,,,,,,,,,,,,,,,,,,,127.0,127.0,125.0,200.0,200.0,125.0,1.0,1.3,220,-280,480,-255,738,-283,126.03194880485535,126.03202486038208,126.0351333618164,126.04695844650269,126.19876146316528,126.19876146316528,126.19876146316528,126.19876146316528,126.19876146316528,126.19876146316528,126.19876146316528,130.2672324180603,2,4.2055628299713135,None,,,,,,,,,,,,,,,,,,202,2,2025-03-06_14h43.59.992,comp,2024.2.4,57.67832021661494,2025-03-06 14h44.08.529362 -0500,
17,17,0,critical,wdh,35.0,4.0,upper,125.0,200.0,127.0,127.0,200.0,125.0,1,3.2252633571624756,None,,,,,0,0,0,0,0,17,17,77,130.28310894966125,,,,,,,,,,,,,,,,,,,,,,,,,,,,,,,,,,,,,,,,,,,,,,,,,,,,,,,,,,,,,,,,,,,,,,,,,,,,,,,,,125.0,200.0,127.0,127.0,200.0,125.0,4.0,4.1,-260,-277,0,-2,222,-276,130.26900434494019,130.26917099952698,130.2726767063141,130.28310894966125,130.43581080436707,130.43581080436707,130.43581080436707,130.43581080436707,130.43581080436707,130.43581080436707,130.43581080436707,133.5214216709137,1,3.2252633571624756,None,,,,,,,,,,,,,,,,,,202,2,2025-03-06_14h43.59.992,comp,2024.2.4,57.67832021661494,2025-03-06 14h44.08.529362 -0500,
18,18,0,critical,wdh,20.0,1.0,lower,57.0,133.0,78.0,78.0,133.0,57.0,1,4.138134479522705,None,,,,,0,0,0,0,0,18,18,78,133.5398383140564,,,,,,,,,,,,,,,,,,,,,,,,,,,,,,,,,,,,,,,,,,,,,,,,,,,,,,,,,,,,,,,,,,,,,,,,,,,,,,,,,57.0,133.0,78.0,78.0,133.0,57.0,1.0,1.2,-202,0,0,9,164,17,133.52292275428772,133.5230040550232,133.52597188949585,133.5398383140564,133.71536111831665,133.71536111831665,133.71536111831665,133.71536111831665,133.71536111831665,133.71536111831665,133.71536111831665,137.68650245666504,1,4.138134479522705,None,,,,,,,,,,,,,,,,,,202,2,2025-03-06_14h43.59.992,comp,2024.2.4,57.67832021661494,2025-03-06 14h44.08.529362 -0500,
19,19,0,critical,dwh,20.0,1.0,upper,141.0,141.0,125.0,200.0,200.0,125.0,2,1.390714168548584,None,,,,,0,0,0,0,0,19,19,67,137.70179748535156,,,,,,,,,,,,,,,,,,,,,,,,,,,,,,,,,,,,,,,,,,,,,,,,,,,,,,,,,,,,,,,,,,,,,,,,,,,,,,,,,141.0,141.0,125.0,200.0,200.0,125.0,1.0,1.3,214,-269,480,-288,738,-277,137.68798685073853,137.6880648136139,137.69103693962097,137.70179748535156,137.85123920440674,137.85123920440674,137.85123920440674,137.85123920440674,137.85123920440674,137.85123920440674,137.85123920440674,139.10549116134644,2,1.390714168548584,None,,,,,,,,,,,,,,,,,,202,2,2025-03-06_14h43.59.992,comp,2024.2.4,57.67832021661494,2025-03-06 14h44.08.529362 -0500,
20,20,0,critical,hwd,35.0,2.1,lower,133.0,57.0,57.0,133.0,70.0,70.0,1,5.323763370513916,None,,,,,0,0,0,0,0,20,20,40,139.12136435508728,,,,,,,,,,,,,,,,,,,,,,,,,,,,,,,,,,,,,,,,,,,,,,,,,,,,,,,,,,,,,,,,,,,,,,,,,,,,,,,,,133.0,57.0,57.0,133.0,70.0,70.0,2.1,2.12,-191,-286,0,-279,198,281,139.10699486732483,139.10707020759583,139.11096453666687,139.12136435508728,139.27016615867615,139.27016615867615,139.27016615867615,139.27016615867615,139.27016615867615,139.27016615867615,139.27016615867615,144.4525706768036,1,5.323763370513916,None,,,,,,,,,,,,,,,,,,202,2,2025-03-06_14h43.59.992,comp,2024.2.4,57.67832021661494,2025-03-06 14h44.08.529362 -0500,
21,21,0,filler_random,None,None,None,None,None,None,None,None,None,None,3,2.9718382358551025,None,,,,,0,0,0,0,0,21,21,150,144.47350931167603,,,,,,,,,,,,,,,,,,,,,,,,,,,,,,,,,,,,,,,,,,,,,,,,,,,,,,,,,,,,,,,,,,,,,,,,,,,,,,,,,83.44588743360077,97.35012720181979,159.9986433885591,69.88114043408008,157.66991197374665,154.244530902272,1.0,1.1,-660,266,-480,254,-272,258,144.45445084571838,144.4545533657074,144.4577281475067,144.47350931167603,144.6213574409485,144.6213574409485,144.6213574409485,144.6213574409485,144.6213574409485,144.6213574409485,144.6213574409485,147.45124697685242,3,2.9718382358551025,None,,,,,,,,,,,,,,,,,,202,2,2025-03-06_14h43.59.992,comp,2024.2.4,57.67832021661494,2025-03-06 14h44.08.529362 -0500,
22,22,0,filler_square,None,None,None,None,None,None,None,None,None,None,3,1.2809226512908936,None,,,,,0,0,0,0,0,22,22,173,147.46796679496765,,,,,,,,,,,,,,,,,,,,,,,,,,,,,,,,,,,,,,,,,,,,,,,,,,,,,,,,,,,,,,,,,,,,,,,,,,,,,,,,,114.55794255827328,99.14188752751934,71.58729154530151,63.613916277144924,135.66390416826482,135.66390416826482,2.1,2.11,-177,288,0,273,196,-273,147.4530634880066,147.4531741142273,147.45604610443115,147.46796679496765,147.608473777771,147.608473777771,147.608473777771,147.608473777771,147.608473777771,147.608473777771,147.608473777771,148.7535605430603,3,1.2809226512908936,None,,,,,,,,,,,,,,,,,,202,2,2025-03-06_14h43.59.992,comp,2024.2.4,57.67832021661494,2025-03-06 14h44.08.529362 -0500,
23,23,0,critical,dwh,20.0,4.0,upper,141.0,141.0,125.0,200.0,200.0,125.0,3,2.905824899673462,None,,,,,0,0,0,0,0,23,23,71,148.7704737186432,,,,,,,,,,,,,,,,,,,,,,,,,,,,,,,,,,,,,,,,,,,,,,,,,,,,,,,,,,,,,,,,,,,,,,,,,,,,,,,,,141.0,141.0,125.0,200.0,200.0,125.0,4.0,4.1,-266,-279,0,-5,258,-263,148.75518679618835,148.75530004501343,148.75867700576782,148.7704737186432,148.93127155303955,148.93127155303955,148.93127155303955,148.93127155303955,148.93127155303955,148.93127155303955,148.93127155303955,151.69024634361267,3,2.905824899673462,None,,,,,,,,,,,,,,,,,,202,2,2025-03-06_14h43.59.992,comp,2024.2.4,57.67832021661494,2025-03-06 14h44.08.529362 -0500,
24,24,0,critical,whd,35.0,1.0,upper,125.0,200.0,200.0,125.0,127.0,127.0,2,1.9463186264038086,None,,,,,0,0,0,0,0,24,24,85,151.70640444755554,,,,,,,,,,,,,,,,,,,,,,,,,,,,,,,,,,,,,,,,,,,,,,,,,,,,,,,,,,,,,,,,,,,,,,,,,,,,,,,,,125.0,200.0,200.0,125.0,127.0,127.0,1.0,1.3,222,-274,480,-279,702,-268,151.69181084632874,151.69194197654724,151.6959936618805,151.70640444755554,151.86057019233704,151.86057019233704,151.86057019233704,151.86057019233704,151.86057019233704,151.86057019233704,151.86057019233704,153.6553132534027,2,1.9463186264038086,None,,,,,,,,,,,,,,,,,,202,2,2025-03-06_14h43.59.992,comp,2024.2.4,57.67832021661494,2025-03-06 14h44.08.529362 -0500,
25,25,0,critical,whd,20.0,4.0,lower,57.0,133.0,133.0,57.0,78.0,78.0,1,8.490726709365845,None,,,,,0,0,0,0,0,25,25,94,153.67366647720337,,,,,,,,,,,,,,,,,,,,,,,,,,,,,,,,,,,,,,,,,,,,,,,,,,,,,,,,,,,,,,,,,,,,,,,,,,,,,,,,,57.0,133.0,133.0,57.0,78.0,78.0,4.0,4.1,-191,-265,0,15,164,-280,153.65682291984558,153.6569046974182,153.66052389144897,153.67366647720337,153.82920670509338,153.82920670509338,153.82920670509338,153.82920670509338,153.82920670509338,153.82920670509338,153.82920670509338,162.17543005943298,1,8.490726709365845,None,,,,,,,,,,,,,,,,,,202,2,2025-03-06_14h43.59.992,comp,2024.2.4,57.67832021661494,2025-03-06 14h44.08.529362 -0500,
26,26,0,filler_random,None,None,None,None,None,None,None,None,None,None,1,1.3657076358795166,None,,,,,0,0,0,0,0,26,26,143,162.19067883491516,,,,,,,,,,,,,,,,,,,,,,,,,,,,,,,,,,,,,,,,,,,,,,,,,,,,,,,,,,,,,,,,,,,,,,,,,,,,,,,,,157.40792903776966,197.53722750667112,162.00843865233153,192.69510121370874,68.12129054733273,178.54933956795054,4.0,4.1,-291,-252,0,9,282,-250,162.17723488807678,162.17731380462646,162.1807246208191,162.19067883491516,162.346182346344,162.346182346344,162.346182346344,162.346182346344,162.346182346344,162.346182346344,162.346182346344,163.57193207740784,1,1.3657076358795166,None,,,,,,,,,,,,,,,,,,202,2,2025-03-06_14h43.59.992,comp,2024.2.4,57.67832021661494,2025-03-06 14h44.08.529362 -0500,
27,27,0,filler_random,None,None,None,None,None,None,None,None,None,None,3,3.6718320846557617,None,,,,,0,0,0,0,0,27,27,140,163.58845043182373,,,,,,,,,,,,,,,,,,,,,,,,,,,,,,,,,,,,,,,,,,,,,,,,,,,,,,,,,,,,,,,,,,,,,,,,,,,,,,,,,78.24582842418701,68.62202465224514,64.18826944823613,138.78740275239392,141.66710823354916,156.92617206238833,2.1,2.12,-200,-273,0,-278,244,265,163.5737431049347,163.57386708259583,163.5772144794464,163.58845043182373,163.72719526290894,163.72719526290894,163.72719526290894,163.72719526290894,163.72719526290894,163.72719526290894,163.72719526290894,167.27662301063538,3,3.6718320846557617,None,,,,,,,,,,,,,,,,,,202,2,2025-03-06_14h43.59.992,comp,2024.2.4,57.67832021661494,2025-03-06 14h44.08.529362 -0500,
28,28,0,critical,wdh,20.0,2.1,upper,125.0,200.0,141.0,141.0,200.0,125.0,3,3.5006964206695557,None,,,,,0,0,0,0,0,28,28,35,167.2957308292389,,,,,,,,,,,,,,,,,,,,,,,,,,,,,,,,,,,,,,,,,,,,,,,,,,,,,,,,,,,,,,,,,,,,,,,,,,,,,,,,,125.0,200.0,141.0,141.0,200.0,125.0,2.1,2.11,-266,279,0,258,229,-282,167.27821683883667,167.27829146385193,167.28156924247742,167.2957308292389,167.4436981678009,167.4436981678009,167.4436981678009,167.4436981678009,167.4436981678009,167.4436981678009,167.4436981678009,170.81294512748718,3,3.5006964206695557,None,,,,,,,,,,,,,,,,,,202,2,2025-03-06_14h43.59.992,comp,2024.2.4,57.67832021661494,2025-03-06 14h44.08.529362 -0500,
29,29,0,filler_random,None,None,None,None,None,None,None,None,None,None,3,0.9097356796264648,None,,,,,0,0,0,0,0,29,29,153,170.8314244747162,,,,,,,,,,,,,,,,,,,,,,,,,,,,,,,,,,,,,,,,,,,,,,,,,,,,,,,,,,,,,,,,,,,,,,,,,,,,,,,,,195.68237502948753,87.70579628490106,95.59178753541968,125.08745060351183,171.59038481675032,186.5373374849378,2.1,2.11,-202,271,0,286,252,-282,170.81550312042236,170.81563186645508,170.82036876678467,170.8314244747162,170.97738432884216,170.97738432884216,170.97738432884216,170.97738432884216,170.97738432884216,170.97738432884216,170.97738432884216,171.745441198349,3,0.9097356796264648,None,,,,,,,,,,,,,,,,,,202,2,2025-03-06_14h43.59.992,comp,2024.2.4,57.67832021661494,2025-03-06 14h44.08.529362 -0500,
30,30,0,critical,whd,35.0,2.1,lower,57.0,133.0,133.0,57.0,70.0,70.0,1,4.475291967391968,None,,,,,0,0,0,0,0,30,30,36,171.76224374771118,,,,,,,,,,,,,,,,,,,,,,,,,,,,,,,,,,,,,,,,,,,,,,,,,,,,,,,,,,,,,,,,,,,,,,,,,,,,,,,,,57.0,133.0,133.0,57.0,70.0,70.0,2.1,2.11,-191,262,0,280,160,-266,171.74712252616882,171.74726247787476,171.75067234039307,171.76224374771118,171.9119577407837,171.9119577407837,171.9119577407837,171.9119577407837,171.9119577407837,171.9119577407837,171.9119577407837,176.24791526794434,1,4.475291967391968,None,,,,,,,,,,,,,,,,,,202,2,2025-03-06_14h43.59.992,comp,2024.2.4,57.67832021661494,2025-03-06 14h44.08.529362 -0500,
31,31,0,critical,hdw,35.0,1.0,upper,200.0,125.0,127.0,127.0,125.0,200.0,1,1.748730182647705,None,,,,,0,0,0,0,0,31,31,109,176.26376819610596,,,,,,,,,,,,,,,,,,,,,,,,,,,,,,,,,,,,,,,,,,,,,,,,,,,,,,,,,,,,,,,,,,,,,,,,,,,,,,,,,200.0,125.0,127.0,127.0,125.0,200.0,1.0,1.3,258,-259,480,-261,740,-273,176.2494900226593,176.24958634376526,176.25296711921692,176.26376819610596,176.41290473937988,176.41290473937988,176.41290473937988,176.41290473937988,176.41290473937988,176.41290473937988,176.41290473937988,178.01458930969238,1,1.748730182647705,None,,,,,,,,,,,,,,,,,,202,2,2025-03-06_14h43.59.992,comp,2024.2.4,57.67832021661494,2025-03-06 14h44.08.529362 -0500,
32,32,0,critical,wdh,20.0,3.0,upper,125.0,200.0,141.0,141.0,200.0,125.0,1,1.853410243988037,None,,,,,0,0,0,0,0,32,32,81,178.03102827072144,,,,,,,,,,,,,,,,,,,,,,,,,,,,,,,,,,,,,,,,,,,,,,,,,,,,,,,,,,,,,,,,,,,,,,,,,,,,,,,,,125.0,200.0,141.0,141.0,200.0,125.0,3.0,3.2,-266,-266,0,-11,229,258,178.01613664627075,178.01621747016907,178.02022242546082,178.03102827072144,178.18752789497375,178.18752789497375,178.18752789497375,178.18752789497375,178.18752789497375,178.18752789497375,178.18752789497375,179.89983940124512,1,1.853410243988037,None,,,,,,,,,,,,,,,,,,202,2,2025-03-06_14h43.59.992,comp,2024.2.4,57.67832021661494,2025-03-06 14h44.08.529362 -0500,
33,33,0,critical,wdh,35.0,1.0,lower,57.0,133.0,70.0,70.0,133.0,57.0,1,4.198528528213501,None,,,,,0,0,0,0,0,33,33,72,179.91777873039246,,,,,,,,,,,,,,,,,,,,,,,,,,,,,,,,,,,,,,,,,,,,,,,,,,,,,,,,,,,,,,,,,,,,,,,,,,,,,,,,,57.0,133.0,70.0,70.0,133.0,57.0,1.0,1.1,-678,267,-480,277,-320,262,179.90146350860596,179.9015440940857,179.9045283794403,179.91777873039246,180.06399989128113,180.06399989128113,180.06399989128113,180.06399989128113,180.06399989128113,180.06399989128113,180.06399989128113,184.13175225257874,1,4.198528528213501,None,,,,,,,,,,,,,,,,,,202,2,2025-03-06_14h43.59.992,comp,2024.2.4,57.67832021661494,2025-03-06 14h44.08.529362 -0500,
34,34,0,critical,hwd,35.0,1.0,lower,133.0,57.0,57.0,133.0,70.0,70.0,2,1.5927379131317139,None,,,,,0,0,0,0,0,34,34,96,184.14750599861145,,,,,,,,,,,,,,,,,,,,,,,,,,,,,,,,,,,,,,,,,,,,,,,,,,,,,,,,,,,,,,,,,,,,,,,,,,,,,,,,,133.0,57.0,57.0,133.0,70.0,70.0,1.0,1.2,-191,18,0,17,198,1,184.13319420814514,184.13326954841614,184.13628363609314,184.14750599861145,184.29858469963074,184.29858469963074,184.29858469963074,184.29858469963074,184.29858469963074,184.29858469963074,184.29858469963074,185.74949288368225,2,1.5927379131317139,None,,,,,,,,,,,,,,,,,,202,2,2025-03-06_14h43.59.992,comp,2024.2.4,57.67832021661494,2025-03-06 14h44.08.529362 -0500,
35,35,0,critical,dwh,20.0,1.0,lower,78.0,78.0,57.0,133.0,133.0,57.0,2,7.183194160461426,None,,,,,0,0,0,0,0,35,35,66,185.76549077033997,,,,,,,,,,,,,,,,,,,,,,,,,,,,,,,,,,,,,,,,,,,,,,,,,,,,,,,,,,,,,,,,,,,,,,,,,,,,,,,,,78.0,78.0,57.0,133.0,133.0,57.0,1.0,1.1,-682,251,-480,272,-289,251,185.75107169151306,185.75118160247803,185.75464463233948,185.76549077033997,185.9162564277649,185.9162564277649,185.9162564277649,185.9162564277649,185.9162564277649,185.9162564277649,185.9162564277649,192.95976567268372,2,7.183194160461426,None,,,,,,,,,,,,,,,,,,202,2,2025-03-06_14h43.59.992,comp,2024.2.4,57.67832021661494,2025-03-06 14h44.08.529362 -0500,
36,36,0,filler_square,None,None,None,None,None,None,None,None,None,None,3,1.258404016494751,None,,,,,0,0,0,0,0,36,36,180,192.97787952423096,,,,,,,,,,,,,,,,,,,,,,,,,,,,,,,,,,,,,,,,,,,,,,,,,,,,,,,,,,,,,,,,,,,,,,,,,,,,,,,,,150.195187513662,116.68172435953433,104.38032158739364,77.14495567078144,195.2622402455988,195.2622402455988,2.2,2.21,-193,-271,0,261,232,284,192.96164679527283,192.96172738075256,192.9646737575531,192.97787952423096,193.1195731163025,193.1195731163025,193.1195731163025,193.1195731163025,193.1195731163025,193.1195731163025,193.1195731163025,194.25070452690125,3,1.258404016494751,None,,,,,,,,,,,,,,,,,,202,2,2025-03-06_14h43.59.992,comp,2024.2.4,57.67832021661494,2025-03-06 14h44.08.529362 -0500,
37,37,0,catch,None,None,None,None,None,None,None,None,None,None,2,0.7926661968231201,None,,,,,0,0,0,0,0,37,37,122,194.2691731452942,,,,,,,,,,,,,,,,,,,,,,,,,,,,,,,,,,,,,,,,,,,,,,,,,,,,,,,,,,,,,,,,,,,,,,,,,,,,,,,,,119,71,168,157,124,66,2.2,2.21,-210,-251,0,260,208,279,194.25262093544006,194.25270104408264,194.2558159828186,194.2691731452942,194.4214539527893,194.4214539527893,194.4214539527893,194.4214539527893,194.4214539527893,194.4214539527893,194.4214539527893,195.06826853752136,2,0.7926661968231201,None,,,,,,,,,,,,,,,,,,202,2,2025-03-06_14h43.59.992,comp,2024.2.4,57.67832021661494,2025-03-06 14h44.08.529362 -0500,
38,38,0,critical,dhw,35.0,3.0,upper,127.0,127.0,200.0,125.0,125.0,200.0,2,2.7322256565093994,None,,,,,0,0,0,0,0,38,38,51,195.0881268978119,,,,,,,,,,,,,,,,,,,,,,,,,,,,,,,,,,,,,,,,,,,,,,,,,,,,,,,,,,,,,,,,,,,,,,,,,,,,,,,,,127.0,127.0,200.0,125.0,125.0,200.0,3.0,3.2,-222,-281,0,5,258,278,195.06974458694458,195.06982135772705,195.07295298576355,195.0881268978119,195.23701214790344,195.23701214790344,195.23701214790344,195.23701214790344,195.23701214790344,195.23701214790344,195.23701214790344,197.83630108833313,2,2.7322256565093994,None,,,,,,,,,,,,,,,,,,202,2,2025-03-06_14h43.59.992,comp,2024.2.4,57.67832021661494,2025-03-06 14h44.08.529362 -0500,
39,39,0,filler_random,None,None,None,None,None,None,None,None,None,None,3,1.6409597396850586,None,,,,,0,0,0,0,0,39,39,142,197.85297989845276,,,,,,,,,,,,,,,,,,,,,,,,,,,,,,,,,,,,,,,,,,,,,,,,,,,,,,,,,,,,,,,,,,,,,,,,,,,,,,,,,62.83591243584766,185.039695297757,77.40718582868219,87.14579142738535,178.20780606351855,64.416126802244,2.1,2.12,-232,-282,0,-261,172,278,197.83818078041077,197.838294506073,197.841623544693,197.85297989845276,198.00628781318665,198.00628781318665,198.00628781318665,198.00628781318665,198.00628781318665,198.00628781318665,198.00628781318665,199.49774360656738,3,1.6409597396850586,None,,,,,,,,,,,,,,,,,,202,2,2025-03-06_14h43.59.992,comp,2024.2.4,57.67832021661494,2025-03-06 14h44.08.529362 -0500,
40,40,0,critical,hdw,35.0,3.0,upper,200.0,125.0,127.0,127.0,125.0,200.0,1,6.274152517318726,None,,,,,0,0,0,0,0,40,40,111,199.51407098770142,,,,,,,,,,,,,,,,,,,,,,,,,,,,,,,,,,,,,,,,,,,,,,,,,,,,,,,,,,,,,,,,,,,,,,,,,,,,,,,,,200.0,125.0,127.0,127.0,125.0,200.0,3.0,3.2,-222,-266,0,16,260,252,199.4993348121643,199.49941539764404,199.5024163722992,199.51407098770142,199.65343952178955,199.65343952178955,199.65343952178955,199.65343952178955,199.65343952178955,199.65343952178955,199.65343952178955,205.80500769615173,1,6.274152517318726,None,,,,,,,,,,,,,,,,,,202,2,2025-03-06_14h43.59.992,comp,2024.2.4,57.67832021661494,2025-03-06 14h44.08.529362 -0500,
41,41,0,filler_random,None,None,None,None,None,None,None,None,None,None,2,0.895209550857544,None,,,,,0,0,0,0,0,41,41,133,205.82119131088257,,,,,,,,,,,,,,,,,,,,,,,,,,,,,,,,,,,,,,,,,,,,,,,,,,,,,,,,,,,,,,,,,,,,,,,,,,,,,,,,,127.91680800923245,145.14263125628173,171.94959037702228,197.2529244955929,83.92126980703821,112.03678003165714,4.0,4.1,-267,-282,0,17,251,-281,205.80671286582947,205.8067901134491,205.809916973114,205.82119131088257,205.97504806518555,205.97504806518555,205.97504806518555,205.97504806518555,205.97504806518555,205.97504806518555,205.97504806518555,206.7251923084259,2,0.895209550857544,None,,,,,,,,,,,,,,,,,,202,2,2025-03-06_14h43.59.992,comp,2024.2.4,57.67832021661494,2025-03-06 14h44.08.529362 -0500,
42,42,0,critical,dhw,20.0,1.0,lower,78.0,78.0,133.0,57.0,57.0,133.0,2,3.2800886631011963,None,,,,,0,0,0,0,0,42,42,54,206.7405982017517,,,,,,,,,,,,,,,,,,,,,,,,,,,,,,,,,,,,,,,,,,,,,,,,,,,,,,,,,,,,,,,,,,,,,,,,,,,,,,,,,78.0,78.0,133.0,57.0,57.0,133.0,1.0,1.2,-164,-15,0,17,191,5,206.72671103477478,206.7268226146698,206.72990226745605,206.7405982017517,206.8889193534851,206.8889193534851,206.8889193534851,206.8889193534851,206.8889193534851,206.8889193534851,206.8889193534851,210.03176951408386,2,3.2800886631011963,None,,,,,,,,,,,,,,,,,,202,2,2025-03-06_14h43.59.992,comp,2024.2.4,57.67832021661494,2025-03-06 14h44.08.529362 -0500,
43,43,0,filler_random,None,None,None,None,None,None,None,None,None,None,2,1.3410828113555908,None,,,,,0,0,0,0,0,43,43,131,210.0472960472107,,,,,,,,,,,,,,,,,,,,,,,,,,,,,,,,,,,,,,,,,,,,,,,,,,,,,,,,,,,,,,,,,,,,,,,,,,,,,,,,,96.00710303802488,140.50352491798367,90.28133079191402,158.85392749450432,62.90818362420855,157.59870205352098,2.1,2.12,-246,-268,0,-266,254,270,210.03351855278015,210.03360033035278,210.03650379180908,210.0472960472107,210.1920039653778,210.1920039653778,210.1920039653778,210.1920039653778,210.1920039653778,210.1920039653778,210.1920039653778,211.3912718296051,2,1.3410828113555908,None,,,,,,,,,,,,,,,,,,202,2,2025-03-06_14h43.59.992,comp,2024.2.4,57.67832021661494,2025-03-06 14h44.08.529362 -0500,
44,44,0,filler_random,None,None,None,None,None,None,None,None,None,None,3,1.0555694103240967,None,,,,,0,0,0,0,0,44,44,146,211.41295552253723,,,,,,,,,,,,,,,,,,,,,,,,,,,,,,,,,,,,,,,,,,,,,,,,,,,,,,,,,,,,,,,,,,,,,,,,,,,,,,,,,103.53649182335523,167.57574351362948,84.19651313521875,194.2216915588105,171.38604200049133,165.8820080613089,2.2,2.22,-277,268,0,-268,276,-257,211.39316987991333,211.39325213432312,211.39648962020874,211.41295552253723,211.55848860740662,211.55848860740662,211.55848860740662,211.55848860740662,211.55848860740662,211.55848860740662,211.55848860740662,212.47900557518005,3,1.0555694103240967,None,,,,,,,,,,,,,,,,,,202,2,2025-03-06_14h43.59.992,comp,2024.2.4,57.67832021661494,2025-03-06 14h44.08.529362 -0500,
45,45,0,filler_square,None,None,None,None,None,None,None,None,None,None,2,1.7119498252868652,None,,,,,0,0,0,0,0,45,45,207,212.5003161430359,,,,,,,,,,,,,,,,,,,,,,,,,,,,,,,,,,,,,,,,,,,,,,,,,,,,,,,,,,,,,,,,,,,,,,,,,,,,,,,,,163.88366676881094,156.5502326083857,170.3687590081003,170.3687590081003,77.94081349758187,161.20792710736436,1.0,1.3,221,-256,480,-282,742,-270,212.4810643196106,212.4811716079712,212.48446798324585,212.5003161430359,212.64164757728577,212.64164757728577,212.64164757728577,212.64164757728577,212.64164757728577,212.64164757728577,212.64164757728577,214.22421860694885,2,1.7119498252868652,None,,,,,,,,,,,,,,,,,,202,2,2025-03-06_14h43.59.992,comp,2024.2.4,57.67832021661494,2025-03-06 14h44.08.529362 -0500,
46,46,0,filler_square,None,None,None,None,None,None,None,None,None,None,1,1.675252914428711,None,,,,,0,0,0,0,0,46,46,197,214.24117755889893,,,,,,,,,,,,,,,,,,,,,,,,,,,,,,,,,,,,,,,,,,,,,,,,,,,,,,,,,,,,,,,,,,,,,,,,,,,,,,,,,128.56177733310346,128.56177733310346,61.83802637139729,83.48152529922605,90.87054096363889,59.56284337542412,2.1,2.12,-202,-266,0,-258,168,282,214.2262008190155,214.22628927230835,214.22967171669006,214.24117755889893,214.39292097091675,214.39292097091675,214.39292097091675,214.39292097091675,214.39292097091675,214.39292097091675,214.39292097091675,215.92836165428162,1,1.675252914428711,None,,,,,,,,,,,,,,,,,,202,2,2025-03-06_14h43.59.992,comp,2024.2.4,57.67832021661494,2025-03-06 14h44.08.529362 -0500,
47,47,0,critical,dhw,20.0,2.1,lower,78.0,78.0,133.0,57.0,57.0,133.0,3,3.305495023727417,None,,,,,0,0,0,0,0,47,47,26,215.94670701026917,,,,,,,,,,,,,,,,,,,,,,,,,,,,,,,,,,,,,,,,,,,,,,,,,,,,,,,,,,,,,,,,,,,,,,,,,,,,,,,,,78.0,78.0,133.0,57.0,57.0,133.0,2.1,2.11,-164,285,0,265,191,-262,215.92996621131897,215.93007564544678,215.93343591690063,215.94670701026917,216.09200835227966,216.09200835227966,216.09200835227966,216.09200835227966,216.09200835227966,216.09200835227966,216.09200835227966,219.2664008140564,3,3.305495023727417,None,,,,,,,,,,,,,,,,,,202,2,2025-03-06_14h43.59.992,comp,2024.2.4,57.67832021661494,2025-03-06 14h44.08.529362 -0500,
48,48,0,filler_random,None,None,None,None,None,None,None,None,None,None,2,2.0288026332855225,None,,,,,0,0,0,0,0,48,48,134,219.28751730918884,,,,,,,,,,,,,,,,,,,,,,,,,,,,,,,,,,,,,,,,,,,,,,,,,,,,,,,,,,,,,,,,,,,,,,,,,,,,,,,,,113.97188648289121,119.07190063572457,191.4841786345136,93.86992328373844,100.43232493758234,140.10002443487846,3.0,3.1,-202,288,0,-14,213,-264,219.26820421218872,219.26834797859192,219.27163219451904,219.28751730918884,219.43029475212097,219.43029475212097,219.43029475212097,219.43029475212097,219.43029475212097,219.43029475212097,219.43029475212097,221.33143043518066,2,2.0288026332855225,None,,,,,,,,,,,,,,,,,,202,2,2025-03-06_14h43.59.992,comp,2024.2.4,57.67832021661494,2025-03-06 14h44.08.529362 -0500,
49,49,0,filler_square,None,None,None,None,None,None,None,None,None,None,1,1.1200730800628662,None,,,,,0,0,0,0,0,49,49,196,221.34828281402588,,,,,,,,,,,,,,,,,,,,,,,,,,,,,,,,,,,,,,,,,,,,,,,,,,,,,,,,,,,,,,,,,,,,,,,,,,,,,,,,,158.69380855311616,158.69380855311616,158.2180222100974,76.90904148549276,131.89343313713292,78.35725274512639,2.1,2.12,-214,-289,0,-265,174,285,221.33356714248657,221.33364844322205,221.33736085891724,221.34828281402588,221.49675822257996,221.49675822257996,221.49675822257996,221.49675822257996,221.49675822257996,221.49675822257996,221.49675822257996,222.47393822669983,1,1.1200730800628662,None,,,,,,,,,,,,,,,,,,202,2,2025-03-06_14h43.59.992,comp,2024.2.4,57.67832021661494,2025-03-06 14h44.08.529362 -0500,
50,50,0,filler_square,None,None,None,None,None,None,None,None,None,None,1,0.9127066135406494,None,,,,,0,0,0,0,0,50,50,201,222.49242758750916,,,,,,,,,,,,,,,,,,,,,,,,,,,,,,,,,,,,,,,,,,,,,,,,,,,,,,,,,,,,,,,,,,,,,,,,,,,,,,,,,181.2019691559895,181.2019691559895,104.32964671533767,124.94501065949225,61.3336095221949,91.25105158510354,2.2,2.21,-249,-279,0,268,204,273,222.4760205745697,222.47613716125488,222.4793620109558,222.49242758750916,222.64672231674194,222.64672231674194,222.64672231674194,222.64672231674194,222.64672231674194,222.64672231674194,222.64672231674194,223.41152048110962,1,0.9127066135406494,None,,,,,,,,,,,,,,,,,,202,2,2025-03-06_14h43.59.992,comp,2024.2.4,57.67832021661494,2025-03-06 14h44.08.529362 -0500,
51,51,0,critical,wdh,35.0,2.1,lower,57.0,133.0,70.0,70.0,133.0,57.0,3,3.305156946182251,None,,,,,0,0,0,0,0,51,51,32,223.42716097831726,,,,,,,,,,,,,,,,,,,,,,,,,,,,,,,,,,,,,,,,,,,,,,,,,,,,,,,,,,,,,,,,,,,,,,,,,,,,,,,,,57.0,133.0,70.0,70.0,133.0,57.0,2.1,2.12,-198,-253,0,-267,160,257,223.41295099258423,223.41302752494812,223.41639351844788,223.42716097831726,223.5785584449768,223.5785584449768,223.5785584449768,223.5785584449768,223.5785584449768,223.5785584449768,223.5785584449768,226.74763822555542,3,3.305156946182251,None,,,,,,,,,,,,,,,,,,202,2,2025-03-06_14h43.59.992,comp,2024.2.4,57.67832021661494,2025-03-06 14h44.08.529362 -0500,
52,52,0,critical,hdw,35.0,4.0,upper,200.0,125.0,127.0,127.0,125.0,200.0,1,1.7757110595703125,None,,,,,0,0,0,0,0,52,52,113,226.76534485816956,,,,,,,,,,,,,,,,,,,,,,,,,,,,,,,,,,,,,,,,,,,,,,,,,,,,,,,,,,,,,,,,,,,,,,,,,,,,,,,,,200.0,125.0,127.0,127.0,125.0,200.0,4.0,4.1,-222,-251,0,19,260,-281,226.74941635131836,226.7495505809784,226.75288081169128,226.76534485816956,226.91296887397766,226.91296887397766,226.91296887397766,226.91296887397766,226.91296887397766,226.91296887397766,226.91296887397766,228.54717779159546,1,1.7757110595703125,None,,,,,,,,,,,,,,,,,,202,2,2025-03-06_14h43.59.992,comp,2024.2.4,57.67832021661494,2025-03-06 14h44.08.529362 -0500,
53,53,0,critical,hdw,20.0,2.1,upper,200.0,125.0,141.0,141.0,125.0,200.0,3,1.097564458847046,None,,,,,0,0,0,0,0,53,53,47,228.56281232833862,,,,,,,,,,,,,,,,,,,,,,,,,,,,,,,,,,,,,,,,,,,,,,,,,,,,,,,,,,,,,,,,,,,,,,,,,,,,,,,,,200.0,125.0,141.0,141.0,125.0,200.0,2.1,2.11,-229,265,0,278,266,-266,228.5487415790558,228.548823595047,228.55222082138062,228.56281232833862,228.71230578422546,228.71230578422546,228.71230578422546,228.71230578422546,228.71230578422546,228.71230578422546,228.71230578422546,229.6623396873474,3,1.097564458847046,None,,,,,,,,,,,,,,,,,,202,2,2025-03-06_14h43.59.992,comp,2024.2.4,57.67832021661494,2025-03-06 14h44.08.529362 -0500,
54,54,0,filler_random,None,None,None,None,None,None,None,None,None,None,2,0.9693293571472168,None,,,,,0,0,0,0,0,54,54,137,229.68298172950745,,,,,,,,,,,,,,,,,,,,,,,,,,,,,,,,,,,,,,,,,,,,,,,,,,,,,,,,,,,,,,,,,,,,,,,,,,,,,,,,,143.46598746116751,124.79653039383041,153.17783140307836,152.58770638840713,141.29763716520495,133.05431559459413,4.0,4.2,-235,20,0,-269,239,7,229.66395902633667,229.66403675079346,229.6672191619873,229.68298172950745,229.831072807312,229.831072807312,229.831072807312,229.831072807312,229.831072807312,229.831072807312,229.831072807312,230.66351103782654,2,0.9693293571472168,None,,,,,,,,,,,,,,,,,,202,2,2025-03-06_14h43.59.992,comp,2024.2.4,57.67832021661494,2025-03-06 14h44.08.529362 -0500,
55,55,0,filler_random,None,None,None,None,None,None,None,None,None,None,3,2.704313278198242,None,,,,,0,0,0,0,0,55,55,156,230.6839256286621,,,,,,,,,,,,,,,,,,,,,,,,,,,,,,,,,,,,,,,,,,,,,,,,,,,,,,,,,,,,,,,,,,,,,,,,,,,,,,,,,105.91754484215751,196.1020249853814,126.61714456603275,121.3214394504997,139.05238307605725,135.34723048822553,1.0,1.2,-255,4,0,7,224,11,230.66520285606384,230.66528367996216,230.66827273368835,230.6839256286621,230.83078026771545,230.83078026771545,230.83078026771545,230.83078026771545,230.83078026771545,230.83078026771545,230.83078026771545,233.39765429496765,3,2.704313278198242,None,,,,,,,,,,,,,,,,,,202,2,2025-03-06_14h43.59.992,comp,2024.2.4,57.67832021661494,2025-03-06 14h44.08.529362 -0500,
56,56,0,critical,hwd,20.0,2.1,upper,200.0,125.0,125.0,200.0,141.0,141.0,2,2.47884202003479,None,,,,,0,0,0,0,0,56,56,43,233.41394758224487,,,,,,,,,,,,,,,,,,,,,,,,,,,,,,,,,,,,,,,,,,,,,,,,,,,,,,,,,,,,,,,,,,,,,,,,,,,,,,,,,200.0,125.0,125.0,200.0,141.0,141.0,2.1,2.12,-258,-267,0,-275,266,286,233.39923477172852,233.39935111999512,233.40283274650574,233.41394758224487,233.55399441719055,233.55399441719055,233.55399441719055,233.55399441719055,233.55399441719055,233.55399441719055,233.55399441719055,235.8971288204193,2,2.47884202003479,None,,,,,,,,,,,,,,,,,,202,2,2025-03-06_14h43.59.992,comp,2024.2.4,57.67832021661494,2025-03-06 14h44.08.529362 -0500,
57,57,0,filler_random,None,None,None,None,None,None,None,None,None,None,1,1.6031436920166016,None,,,,,0,0,0,0,0,57,57,165,235.91383171081543,,,,,,,,,,,,,,,,,,,,,,,,,,,,,,,,,,,,,,,,,,,,,,,,,,,,,,,,,,,,,,,,,,,,,,,,,,,,,,,,,106.26112288226722,194.0264164613085,185.06098937403445,64.12210852482039,133.03531459254094,91.83324415743948,2.2,2.21,-225,-262,0,285,174,272,235.89881443977356,235.8988950252533,235.90197491645813,235.91383171081543,236.0666184425354,236.0666184425354,236.0666184425354,236.0666184425354,236.0666184425354,236.0666184425354,236.0666184425354,237.523934841156,1,1.6031436920166016,None,,,,,,,,,,,,,,,,,,202,2,2025-03-06_14h43.59.992,comp,2024.2.4,57.67832021661494,2025-03-06 14h44.08.529362 -0500,
58,58,0,filler_random,None,None,None,None,None,None,None,None,None,None,1,1.271697759628296,None,,,,,0,0,0,0,0,58,58,162,237.54048895835876,,,,,,,,,,,,,,,,,,,,,,,,,,,,,,,,,,,,,,,,,,,,,,,,,,,,,,,,,,,,,,,,,,,,,,,,,,,,,,,,,120.73317901151033,165.90195180950366,97.06058908688433,86.05751133806947,79.04210750022851,195.9212230422435,2.1,2.11,-222,262,0,253,237,-272,237.52567338943481,237.52575206756592,237.52877473831177,237.54048895835876,237.68258428573608,237.68258428573608,237.68258428573608,237.68258428573608,237.68258428573608,237.68258428573608,237.68258428573608,238.816721200943,1,1.271697759628296,None,,,,,,,,,,,,,,,,,,202,2,2025-03-06_14h43.59.992,comp,2024.2.4,57.67832021661494,2025-03-06 14h44.08.529362 -0500,
59,59,0,filler_random,None,None,None,None,None,None,None,None,None,None,3,1.1338229179382324,None,,,,,0,0,0,0,0,59,59,148,238.83125233650208,,,,,,,,,,,,,,,,,,,,,,,,,,,,,,,,,,,,,,,,,,,,,,,,,,,,,,,,,,,,,,,,,,,,,,,,,,,,,,,,,93.14367375216969,158.26715682789626,98.21702932720595,175.55029200812896,186.05158161743765,132.8302841832839,3.0,3.2,-263,-274,0,3,250,288,238.81841588020325,238.81849575042725,238.82184410095215,238.83125233650208,238.98793268203735,238.98793268203735,238.98793268203735,238.98793268203735,238.98793268203735,238.98793268203735,238.98793268203735,239.96870470046997,3,1.1338229179382324,None,,,,,,,,,,,,,,,,,,202,2,2025-03-06_14h43.59.992,comp,2024.2.4,57.67832021661494,2025-03-06 14h44.08.529362 -0500,
60,60,0,catch,None,None,None,None,None,None,None,None,None,None,1,1.1789603233337402,None,,,,,0,0,0,0,0,60,60,125,239.98552346229553,,,,,,,,,,,,,,,,,,,,,,,,,,,,,,,,,,,,,,,,,,,,,,,,,,,,,,,,,,,,,,,,,,,,,,,,,,,,,,,,,179,146,101,89,103,87,3.0,3.1,-214,251,0,9,184,-284,239.9708435535431,239.97092986106873,239.97479581832886,239.98552346229553,240.13972330093384,240.13972330093384,240.13972330093384,240.13972330093384,240.13972330093384,240.13972330093384,240.13972330093384,241.1712737083435,1,1.1789603233337402,None,,,,,,,,,,,,,,,,,,202,2,2025-03-06_14h43.59.992,comp,2024.2.4,57.67832021661494,2025-03-06 14h44.08.529362 -0500,
61,61,0,critical,wdh,35.0,2.1,upper,125.0,200.0,127.0,127.0,200.0,125.0,1,2.0770153999328613,None,,,,,0,0,0,0,0,61,61,33,241.19120979309082,,,,,,,,,,,,,,,,,,,,,,,,,,,,,,,,,,,,,,,,,,,,,,,,,,,,,,,,,,,,,,,,,,,,,,,,,,,,,,,,,125.0,200.0,127.0,127.0,200.0,125.0,2.1,2.11,-260,254,0,270,222,-251,241.172776222229,241.17285466194153,241.17574191093445,241.19120979309082,241.3349494934082,241.3349494934082,241.3349494934082,241.3349494934082,241.3349494934082,241.3349494934082,241.3349494934082,243.28149557113647,1,2.0770153999328613,None,,,,,,,,,,,,,,,,,,202,2,2025-03-06_14h43.59.992,comp,2024.2.4,57.67832021661494,2025-03-06 14h44.08.529362 -0500,
62,62,0,critical,dwh,35.0,3.0,upper,127.0,127.0,125.0,200.0,200.0,125.0,2,0.9219694137573242,None,,,,,0,0,0,0,0,62,62,63,243.29825448989868,,,,,,,,,,,,,,,,,,,,,,,,,,,,,,,,,,,,,,,,,,,,,,,,,,,,,,,,,,,,,,,,,,,,,,,,,,,,,,,,,127.0,127.0,125.0,200.0,200.0,125.0,3.0,3.2,-260,-252,0,3,258,263,243.2830193042755,243.2831268310547,243.2863872051239,243.29825448989868,243.43538522720337,243.43538522720337,243.43538522720337,243.43538522720337,243.43538522720337,243.43538522720337,243.43538522720337,244.23649215698242,2,0.9219694137573242,None,,,,,,,,,,,,,,,,,,202,2,2025-03-06_14h43.59.992,comp,2024.2.4,57.67832021661494,2025-03-06 14h44.08.529362 -0500,
63,63,0,critical,hdw,20.0,2.1,upper,200.0,125.0,141.0,141.0,125.0,200.0,3,1.3521249294281006,None,,,,,0,0,0,0,0,63,63,23,244.25216007232666,,,,,,,,,,,,,,,,,,,,,,,,,,,,,,,,,,,,,,,,,,,,,,,,,,,,,,,,,,,,,,,,,,,,,,,,,,,,,,,,,200.0,125.0,141.0,141.0,125.0,200.0,2.1,2.11,-229,256,0,288,266,-273,244.23821592330933,244.2383496761322,244.24181056022644,244.25216007232666,244.40196418762207,244.40196418762207,244.40196418762207,244.40196418762207,244.40196418762207,244.40196418762207,244.40196418762207,245.61679339408875,3,1.3521249294281006,None,,,,,,,,,,,,,,,,,,202,2,2025-03-06_14h43.59.992,comp,2024.2.4,57.67832021661494,2025-03-06 14h44.08.529362 -0500,
64,64,0,critical,wdh,35.0,4.0,lower,57.0,133.0,70.0,70.0,133.0,57.0,3,3.2614147663116455,None,,,,,0,0,0,0,0,64,64,76,245.6328501701355,,,,,,,,,,,,,,,,,,,,,,,,,,,,,,,,,,,,,,,,,,,,,,,,,,,,,,,,,,,,,,,,,,,,,,,,,,,,,,,,,57.0,133.0,70.0,70.0,133.0,57.0,4.0,4.1,-198,-250,0,-18,160,-288,245.6182940006256,245.61836981773376,245.62151718139648,245.6328501701355,245.7806429862976,245.7806429862976,245.7806429862976,245.7806429862976,245.7806429862976,245.7806429862976,245.7806429862976,248.9061360359192,3,3.2614147663116455,None,,,,,,,,,,,,,,,,,,202,2,2025-03-06_14h43.59.992,comp,2024.2.4,57.67832021661494,2025-03-06 14h44.08.529362 -0500,
65,65,0,critical,dhw,35.0,4.0,lower,70.0,70.0,133.0,57.0,57.0,133.0,3,3.075486660003662,None,,,,,0,0,0,0,0,65,65,52,248.9222800731659,,,,,,,,,,,,,,,,,,,,,,,,,,,,,,,,,,,,,,,,,,,,,,,,,,,,,,,,,,,,,,,,,,,,,,,,,,,,,,,,,70.0,70.0,133.0,57.0,57.0,133.0,4.0,4.1,-160,-270,0,17,191,-271,248.90762996673584,248.90770983695984,248.91156196594238,248.9222800731659,249.06792640686035,249.06792640686035,249.06792640686035,249.06792640686035,249.06792640686035,249.06792640686035,249.06792640686035,252.00262308120728,3,3.075486660003662,None,,,,,,,,,,,,,,,,,,202,2,2025-03-06_14h43.59.992,comp,2024.2.4,57.67832021661494,2025-03-06 14h44.08.529362 -0500,
66,66,0,filler_square,None,None,None,None,None,None,None,None,None,None,3,1.2095093727111816,None,,,,,0,0,0,0,0,66,66,189,252.0194914340973,,,,,,,,,,,,,,,,,,,,,,,,,,,,,,,,,,,,,,,,,,,,,,,,,,,,,,,,,,,,,,,,,,,,,,,,,,,,,,,,,142.8509884289253,163.09701033605273,66.84754724104519,58.36153880858733,178.06537601878682,178.06537601878682,2.1,2.12,-207,-276,0,-265,214,281,252.00455522537231,252.00463724136353,252.00806665420532,252.0194914340973,252.16812014579773,252.16812014579773,252.16812014579773,252.16812014579773,252.16812014579773,252.16812014579773,252.16812014579773,253.24059104919434,3,1.2095093727111816,None,,,,,,,,,,,,,,,,,,202,2,2025-03-06_14h43.59.992,comp,2024.2.4,57.67832021661494,2025-03-06 14h44.08.529362 -0500,
67,67,0,filler_square,None,None,None,None,None,None,None,None,None,None,2,0.7085473537445068,None,,,,,0,0,0,0,0,67,67,203,253.2563226222992,,,,,,,,,,,,,,,,,,,,,,,,,,,,,,,,,,,,,,,,,,,,,,,,,,,,,,,,,,,,,,,,,,,,,,,,,,,,,,,,,75.82443937866523,82.57638261140495,181.85454005403162,181.85454005403162,96.55087026013904,108.95016679737537,1.0,1.2,-228,-19,0,0,241,-15,253.2426519393921,253.242737531662,253.24578142166138,253.2563226222992,253.40647339820862,253.40647339820862,253.40647339820862,253.40647339820862,253.40647339820862,253.40647339820862,253.40647339820862,253.9710464477539,2,0.7085473537445068,None,,,,,,,,,,,,,,,,,,202,2,2025-03-06_14h43.59.992,comp,2024.2.4,57.67832021661494,2025-03-06 14h44.08.529362 -0500,
68,68,0,critical,whd,20.0,2.1,lower,57.0,133.0,133.0,57.0,78.0,78.0,2,3.56270170211792,None,,,,,0,0,0,0,0,68,68,14,253.98671984672546,,,,,,,,,,,,,,,,,,,,,,,,,,,,,,,,,,,,,,,,,,,,,,,,,,,,,,,,,,,,,,,,,,,,,,,,,,,,,,,,,57.0,133.0,133.0,57.0,78.0,78.0,2.1,2.12,-191,-274,0,-280,164,265,253.97271013259888,253.97279024124146,253.9761302471161,253.98671984672546,254.1390357017517,254.1390357017517,254.1390357017517,254.1390357017517,254.1390357017517,254.1390357017517,254.1390357017517,257.5556290149689,2,3.56270170211792,None,,,,,,,,,,,,,,,,,,202,2,2025-03-06_14h43.59.992,comp,2024.2.4,57.67832021661494,2025-03-06 14h44.08.529362 -0500,
69,69,0,critical,dwh,20.0,3.0,upper,141.0,141.0,125.0,200.0,200.0,125.0,2,1.0328407287597656,None,,,,,0,0,0,0,0,69,69,69,257.5718443393707,,,,,,,,,,,,,,,,,,,,,,,,,,,,,,,,,,,,,,,,,,,,,,,,,,,,,,,,,,,,,,,,,,,,,,,,,,,,,,,,,141.0,141.0,125.0,200.0,200.0,125.0,3.0,3.2,-266,-285,0,-15,258,277,257.55727910995483,257.5574104785919,257.5607433319092,257.5718443393707,257.72458577156067,257.72458577156067,257.72458577156067,257.72458577156067,257.72458577156067,257.72458577156067,257.72458577156067,258.61291790008545,2,1.0328407287597656,None,,,,,,,,,,,,,,,,,,202,2,2025-03-06_14h43.59.992,comp,2024.2.4,57.67832021661494,2025-03-06 14h44.08.529362 -0500,
70,70,0,filler_square,None,None,None,None,None,None,None,None,None,None,1,0.9009017944335938,None,,,,,0,0,0,0,0,70,70,176,258.63203954696655,,,,,,,,,,,,,,,,,,,,,,,,,,,,,,,,,,,,,,,,,,,,,,,,,,,,,,,,,,,,,,,,,,,,,,,,,,,,,,,,,150.95540008573357,150.95540008573357,127.04125043946365,85.37912442944223,95.17166764499044,106.49735814498698,4.0,4.2,-214,-2,0,-254,192,2,258.61487102508545,258.61494994163513,258.6182007789612,258.63203954696655,258.7747917175293,258.7747917175293,258.7747917175293,258.7747917175293,258.7747917175293,258.7747917175293,258.7747917175293,259.54166316986084,1,0.9009017944335938,None,,,,,,,,,,,,,,,,,,202,2,2025-03-06_14h43.59.992,comp,2024.2.4,57.67832021661494,2025-03-06 14h44.08.529362 -0500,
71,71,0,filler_square,None,None,None,None,None,None,None,None,None,None,2,1.1006958484649658,None,,,,,0,0,0,0,0,71,71,205,259.55954337120056,,,,,,,,,,,,,,,,,,,,,,,,,,,,,,,,,,,,,,,,,,,,,,,,,,,,,,,,,,,,,,,,,,,,,,,,,,,,,,,,,76.89839628465455,128.21970353375463,132.4569287322519,132.4569287322519,116.33726231469184,82.90851121134436,1.0,1.3,254,-284,480,-283,684,-267,259.5434811115265,259.54356050491333,259.54657220840454,259.55954337120056,259.7105941772461,259.7105941772461,259.7105941772461,259.7105941772461,259.7105941772461,259.7105941772461,259.7105941772461,260.6755027770996,2,1.1006958484649658,None,,,,,,,,,,,,,,,,,,202,2,2025-03-06_14h43.59.992,comp,2024.2.4,57.67832021661494,2025-03-06 14h44.08.529362 -0500,
72,72,0,critical,hdw,35.0,2.1,upper,200.0,125.0,127.0,127.0,125.0,200.0,3,2.3672451972961426,None,,,,,0,0,0,0,0,72,72,45,260.69312810897827,,,,,,,,,,,,,,,,,,,,,,,,,,,,,,,,,,,,,,,,,,,,,,,,,,,,,,,,,,,,,,,,,,,,,,,,,,,,,,,,,200.0,125.0,127.0,127.0,125.0,200.0,2.1,2.12,-222,-276,0,-260,260,278,260.6771774291992,260.67725348472595,260.6802170276642,260.69312810897827,260.8431215286255,260.8431215286255,260.8431215286255,260.8431215286255,260.8431215286255,260.8431215286255,260.8431215286255,263.0737326145172,3,2.3672451972961426,None,,,,,,,,,,,,,,,,,,202,2,2025-03-06_14h43.59.992,comp,2024.2.4,57.67832021661494,2025-03-06 14h44.08.529362 -0500,
73,73,0,filler_random,None,None,None,None,None,None,None,None,None,None,1,1.2667961120605469,None,,,,,0,0,0,0,0,73,73,157,263.0894248485565,,,,,,,,,,,,,,,,,,,,,,,,,,,,,,,,,,,,,,,,,,,,,,,,,,,,,,,,,,,,,,,,,,,,,,,,,,,,,,,,,137.19803307709907,192.16513793888114,84.36324215838185,120.46325083912791,120.78596782786755,191.59617655452178,2.1,2.12,-252,-279,0,-261,252,253,263.0755500793457,263.07567715644836,263.0790503025055,263.0894248485565,263.24103021621704,263.24103021621704,263.24103021621704,263.24103021621704,263.24103021621704,263.24103021621704,263.24103021621704,264.35853028297424,1,1.2667961120605469,None,,,,,,,,,,,,,,,,,,202,2,2025-03-06_14h43.59.992,comp,2024.2.4,57.67832021661494,2025-03-06 14h44.08.529362 -0500,
74,74,0,critical,dwh,20.0,2.1,upper,141.0,141.0,125.0,200.0,200.0,125.0,2,1.2786951065063477,None,,,,,0,0,0,0,0,74,74,31,264.3743088245392,,,,,,,,,,,,,,,,,,,,,,,,,,,,,,,,,,,,,,,,,,,,,,,,,,,,,,,,,,,,,,,,,,,,,,,,,,,,,,,,,141.0,141.0,125.0,200.0,200.0,125.0,2.1,2.12,-266,-257,0,-277,258,271,264.36016154289246,264.360271692276,264.3637022972107,264.3743088245392,264.5247104167938,264.5247104167938,264.5247104167938,264.5247104167938,264.5247104167938,264.5247104167938,264.5247104167938,265.6578562259674,2,1.2786951065063477,None,,,,,,,,,,,,,,,,,,202,2,2025-03-06_14h43.59.992,comp,2024.2.4,57.67832021661494,2025-03-06 14h44.08.529362 -0500,
75,75,0,filler_square,None,None,None,None,None,None,None,None,None,None,2,1.025623083114624,None,,,,,0,0,0,0,0,75,75,177,265.675005197525,,,,,,,,,,,,,,,,,,,,,,,,,,,,,,,,,,,,,,,,,,,,,,,,,,,,,,,,,,,,,,,,,,,,,,,,,,,,,,,,,87.15782331137218,69.67609743644287,89.892937428076,89.892937428076,62.52307503537299,61.45389190153864,3.0,3.1,-176,268,0,-19,172,-259,265.6598770618439,265.65995717048645,265.6634030342102,265.675005197525,265.8247208595276,265.8247208595276,265.8247208595276,265.8247208595276,265.8247208595276,265.8247208595276,265.8247208595276,266.7105965614319,2,1.025623083114624,None,,,,,,,,,,,,,,,,,,202,2,2025-03-06_14h43.59.992,comp,2024.2.4,57.67832021661494,2025-03-06 14h44.08.529362 -0500,
76,76,0,critical,whd,35.0,2.1,lower,57.0,133.0,133.0,57.0,70.0,70.0,2,1.1952457427978516,None,,,,,0,0,0,0,0,76,76,12,266.72924542427063,,,,,,,,,,,,,,,,,,,,,,,,,,,,,,,,,,,,,,,,,,,,,,,,,,,,,,,,,,,,,,,,,,,,,,,,,,,,,,,,,57.0,133.0,133.0,57.0,70.0,70.0,2.1,2.12,-191,-276,0,-264,160,261,266.71218705177307,266.7122645378113,266.7152922153473,266.72924542427063,266.87563610076904,266.87563610076904,266.87563610076904,266.87563610076904,266.87563610076904,266.87563610076904,266.87563610076904,267.9290556907654,2,1.1952457427978516,None,,,,,,,,,,,,,,,,,,202,2,2025-03-06_14h43.59.992,comp,2024.2.4,57.67832021661494,2025-03-06 14h44.08.529362 -0500,
77,77,0,critical,hwd,20.0,2.1,lower,133.0,57.0,57.0,133.0,78.0,78.0,3,3.279766321182251,None,,,,,0,0,0,0,0,77,77,18,267.9486300945282,,,,,,,,,,,,,,,,,,,,,,,,,,,,,,,,,,,,,,,,,,,,,,,,,,,,,,,,,,,,,,,,,,,,,,,,,,,,,,,,,133.0,57.0,57.0,133.0,78.0,78.0,2.1,2.11,-191,280,0,257,202,-264,267.9307599067688,267.9308977127075,267.934556722641,267.9486300945282,268.0915400981903,268.0915400981903,268.0915400981903,268.0915400981903,268.0915400981903,268.0915400981903,268.0915400981903,271.24517369270325,3,3.279766321182251,None,,,,,,,,,,,,,,,,,,202,2,2025-03-06_14h43.59.992,comp,2024.2.4,57.67832021661494,2025-03-06 14h44.08.529362 -0500,
78,78,0,filler_square,None,None,None,None,None,None,None,None,None,None,3,0.9424104690551758,None,,,,,0,0,0,0,0,78,78,172,271.2621672153473,,,,,,,,,,,,,,,,,,,,,,,,,,,,,,,,,,,,,,,,,,,,,,,,,,,,,,,,,,,,,,,,,,,,,,,,,,,,,,,,,111.90383677024067,119.47776965852148,152.56165065597284,108.45371026887639,156.33628184725853,156.33628184725853,2.2,2.22,-210,288,0,-262,228,-260,271.24719619750977,271.2473232746124,271.25102400779724,271.2621672153473,271.40910744667053,271.40910744667053,271.40910744667053,271.40910744667053,271.40910744667053,271.40910744667053,271.40910744667053,272.2134404182434,3,0.9424104690551758,None,,,,,,,,,,,,,,,,,,202,2,2025-03-06_14h43.59.992,comp,2024.2.4,57.67832021661494,2025-03-06 14h44.08.529362 -0500,
79,79,0,critical,hdw,35.0,4.0,lower,133.0,57.0,70.0,70.0,57.0,133.0,3,3.9382071495056152,None,,,,,0,0,0,0,0,79,79,112,272.2344973087311,,,,,,,,,,,,,,,,,,,,,,,,,,,,,,,,,,,,,,,,,,,,,,,,,,,,,,,,,,,,,,,,,,,,,,,,,,,,,,,,,133.0,57.0,70.0,70.0,57.0,133.0,4.0,4.2,-160,7,0,-258,198,-1,272.21510457992554,272.2152056694031,272.21873116493225,272.2344973087311,272.3774559497833,272.3774559497833,272.3774559497833,272.3774559497833,272.3774559497833,272.3774559497833,272.3774559497833,276.18080973625183,3,3.9382071495056152,None,,,,,,,,,,,,,,,,,,202,2,2025-03-06_14h43.59.992,comp,2024.2.4,57.67832021661494,2025-03-06 14h44.08.529362 -0500,
80,80,0,critical,hwd,20.0,4.0,lower,133.0,57.0,57.0,133.0,78.0,78.0,1,2.2129201889038086,None,,,,,0,0,0,0,0,80,80,106,276.1996262073517,,,,,,,,,,,,,,,,,,,,,,,,,,,,,,,,,,,,,,,,,,,,,,,,,,,,,,,,,,,,,,,,,,,,,,,,,,,,,,,,,133.0,57.0,57.0,133.0,78.0,78.0,4.0,4.2,-191,-2,0,-265,202,-7,276.18259596824646,276.1826922893524,276.1860041618347,276.1996262073517,276.34426379203796,276.34426379203796,276.34426379203796,276.34426379203796,276.34426379203796,276.34426379203796,276.34426379203796,278.4284415245056,1,2.2129201889038086,None,,,,,,,,,,,,,,,,,,202,2,2025-03-06_14h43.59.992,comp,2024.2.4,57.67832021661494,2025-03-06 14h44.08.529362 -0500,
81,81,0,critical,dhw,35.0,1.0,upper,127.0,127.0,200.0,125.0,125.0,200.0,2,1.9201464653015137,None,,,,,0,0,0,0,0,81,81,49,278.44407081604004,,,,,,,,,,,,,,,,,,,,,,,,,,,,,,,,,,,,,,,,,,,,,,,,,,,,,,,,,,,,,,,,,,,,,,,,,,,,,,,,,127.0,127.0,200.0,125.0,125.0,200.0,1.0,1.2,-222,8,0,-11,258,-18,278.43016242980957,278.430299282074,278.4337568283081,278.44407081604004,278.5942180156708,278.5942180156708,278.5942180156708,278.5942180156708,278.5942180156708,278.5942180156708,278.5942180156708,280.37948966026306,2,1.9201464653015137,None,,,,,,,,,,,,,,,,,,202,2,2025-03-06_14h43.59.992,comp,2024.2.4,57.67832021661494,2025-03-06 14h44.08.529362 -0500,
82,82,0,filler_random,None,None,None,None,None,None,None,None,None,None,1,1.6411166191101074,None,,,,,0,0,0,0,0,82,82,132,280.39516162872314,,,,,,,,,,,,,,,,,,,,,,,,,,,,,,,,,,,,,,,,,,,,,,,,,,,,,,,,,,,,,,,,,,,,,,,,,,,,,,,,,95.43054771687639,193.03064916824113,93.11629569702407,152.38513354637433,98.1516808521488,152.86985266045906,2.1,2.12,-269,-269,0,-253,249,277,280.38113498687744,280.3812131881714,280.3847517967224,280.39516162872314,280.5501911640167,280.5501911640167,280.5501911640167,280.5501911640167,280.5501911640167,280.5501911640167,280.5501911640167,282.05214047431946,1,1.6411166191101074,None,,,,,,,,,,,,,,,,,,202,2,2025-03-06_14h43.59.992,comp,2024.2.4,57.67832021661494,2025-03-06 14h44.08.529362 -0500,
83,83,0,filler_square,None,None,None,None,None,None,None,None,None,None,1,1.1850571632385254,None,,,,,0,0,0,0,0,83,83,174,282.0672001838684,,,,,,,,,,,,,,,,,,,,,,,,,,,,,,,,,,,,,,,,,,,,,,,,,,,,,,,,,,,,,,,,,,,,,,,,,,,,,,,,,197.71762240294674,197.71762240294674,137.80952279275243,195.48942864304692,115.48973155409288,149.58206290511322,2.2,2.21,-293,-279,0,268,269,275,282.0539722442627,282.05405354499817,282.05693793296814,282.0672001838684,282.2118546962738,282.2118546962738,282.2118546962738,282.2118546962738,282.2118546962738,282.2118546962738,282.2118546962738,283.2543692588806,1,1.1850571632385254,None,,,,,,,,,,,,,,,,,,202,2,2025-03-06_14h43.59.992,comp,2024.2.4,57.67832021661494,2025-03-06 14h44.08.529362 -0500,
84,84,0,filler_square,None,None,None,None,None,None,None,None,None,None,2,1.025557279586792,None,,,,,0,0,0,0,0,84,84,178,283.27528953552246,,,,,,,,,,,,,,,,,,,,,,,,,,,,,,,,,,,,,,,,,,,,,,,,,,,,,,,,,,,,,,,,,,,,,,,,,,,,,,,,,63.48573240894658,101.2380749488535,135.0523646905714,135.0523646905714,74.71626859268821,80.7997462443492,3.0,3.1,-214,290,0,7,204,-254,283.2563683986664,283.2564506530762,283.25964403152466,283.27528953552246,283.41421818733215,283.41421818733215,283.41421818733215,283.41421818733215,283.41421818733215,283.41421818733215,283.41421818733215,284.30313372612,2,1.025557279586792,None,,,,,,,,,,,,,,,,,,202,2,2025-03-06_14h43.59.992,comp,2024.2.4,57.67832021661494,2025-03-06 14h44.08.529362 -0500,
85,85,0,filler_random,None,None,None,None,None,None,None,None,None,None,1,1.456214427947998,None,,,,,0,0,0,0,0,85,85,135,284.31837797164917,,,,,,,,,,,,,,,,,,,,,,,,,,,,,,,,,,,,,,,,,,,,,,,,,,,,,,,,,,,,,,,,,,,,,,,,,,,,,,,,,121.00809822632472,174.37503244113296,181.98740767641544,61.84052504734851,106.44333183708592,105.03297704318116,1.0,1.1,-694,275,-480,258,-301,271,284.3047983646393,284.3048758506775,284.3077471256256,284.31837797164917,284.46389746665955,284.46389746665955,284.46389746665955,284.46389746665955,284.46389746665955,284.46389746665955,284.46389746665955,285.7797055244446,1,1.456214427947998,None,,,,,,,,,,,,,,,,,,202,2,2025-03-06_14h43.59.992,comp,2024.2.4,57.67832021661494,2025-03-06 14h44.08.529362 -0500,
86,86,0,critical,whd,20.0,1.0,lower,57.0,133.0,133.0,57.0,78.0,78.0,1,4.664320707321167,None,,,,,0,0,0,0,0,86,86,90,285.79630279541016,,,,,,,,,,,,,,,,,,,,,,,,,,,,,,,,,,,,,,,,,,,,,,,,,,,,,,,,,,,,,,,,,,,,,,,,,,,,,,,,,57.0,133.0,133.0,57.0,78.0,78.0,1.0,1.3,289,-279,480,-251,644,-266,285.78117632865906,285.78125405311584,285.78447127342224,285.79630279541016,285.93692803382874,285.93692803382874,285.93692803382874,285.93692803382874,285.93692803382874,285.93692803382874,285.93692803382874,290.46421241760254,1,4.664320707321167,None,,,,,,,,,,,,,,,,,,202,2,2025-03-06_14h43.59.992,comp,2024.2.4,57.67832021661494,2025-03-06 14h44.08.529362 -0500,
87,87,0,critical,dhw,35.0,4.0,upper,127.0,127.0,200.0,125.0,125.0,200.0,3,1.9155328273773193,None,,,,,0,0,0,0,0,87,87,53,290.4810435771942,,,,,,,,,,,,,,,,,,,,,,,,,,,,,,,,,,,,,,,,,,,,,,,,,,,,,,,,,,,,,,,,,,,,,,,,,,,,,,,,,127.0,127.0,200.0,125.0,125.0,200.0,4.0,4.1,-222,-285,0,6,258,-261,290.46577763557434,290.4658553600311,290.4691014289856,290.4810435771942,290.63450860977173,290.63450860977173,290.63450860977173,290.63450860977173,290.63450860977173,290.63450860977173,290.63450860977173,292.39877486228943,3,1.9155328273773193,None,,,,,,,,,,,,,,,,,,202,2,2025-03-06_14h43.59.992,comp,2024.2.4,57.67832021661494,2025-03-06 14h44.08.529362 -0500,
88,88,0,filler_square,None,None,None,None,None,None,None,None,None,None,3,0.918053388595581,None,,,,,0,0,0,0,0,88,88,181,292.4145841598511,,,,,,,,,,,,,,,,,,,,,,,,,,,,,,,,,,,,,,,,,,,,,,,,,,,,,,,,,,,,,,,,,,,,,,,,,,,,,,,,,156.8833668788095,71.43740926523292,94.34296828954265,156.8561017772497,192.68392294599042,192.68392294599042,2.2,2.22,-210,278,0,-260,271,-267,292.4005584716797,292.4006361961365,292.4036633968353,292.4145841598511,292.5638680458069,292.5638680458069,292.5638680458069,292.5638680458069,292.5638680458069,292.5638680458069,292.5638680458069,293.34993290901184,3,0.918053388595581,None,,,,,,,,,,,,,,,,,,202,2,2025-03-06_14h43.59.992,comp,2024.2.4,57.67832021661494,2025-03-06 14h44.08.529362 -0500,
89,89,0,critical,hdw,20.0,3.0,upper,200.0,125.0,141.0,141.0,125.0,200.0,3,3.102627992630005,None,,,,,0,0,0,0,0,89,89,117,293.36596059799194,,,,,,,,,,,,,,,,,,,,,,,,,,,,,,,,,,,,,,,,,,,,,,,,,,,,,,,,,,,,,,,,,,,,,,,,,,,,,,,,,200.0,125.0,141.0,141.0,125.0,200.0,3.0,3.1,-229,283,0,-18,266,-260,293.3514416217804,293.35151839256287,293.3556730747223,293.36596059799194,293.51464676856995,293.51464676856995,293.51464676856995,293.51464676856995,293.51464676856995,293.51464676856995,293.51464676856995,296.47715163230896,3,3.102627992630005,None,,,,,,,,,,,,,,,,,,202,2,2025-03-06_14h43.59.992,comp,2024.2.4,57.67832021661494,2025-03-06 14h44.08.529362 -0500,
90,90,0,filler_random,None,None,None,None,None,None,None,None,None,None,1,2.662968873977661,None,,,,,0,0,0,0,0,90,90,147,296.49332880973816,,,,,,,,,,,,,,,,,,,,,,,,,,,,,,,,,,,,,,,,,,,,,,,,,,,,,,,,,,,,,,,,,,,,,,,,,,,,,,,,,122.52610639089971,85.83607320327869,159.68378426612952,76.17246003257469,81.2109194671292,182.9990335020732,3.0,3.2,-177,-261,0,-8,226,262,296.4790081977844,296.4791145324707,296.4823124408722,296.49332880973816,296.6317768096924,296.6317768096924,296.6317768096924,296.6317768096924,296.6317768096924,296.6317768096924,296.6317768096924,299.16876339912415,1,2.662968873977661,None,,,,,,,,,,,,,,,,,,202,2,2025-03-06_14h43.59.992,comp,2024.2.4,57.67832021661494,2025-03-06 14h44.08.529362 -0500,
91,91,0,critical,wdh,20.0,3.0,lower,57.0,133.0,78.0,78.0,133.0,57.0,3,4.025212049484253,None,,,,,0,0,0,0,0,91,91,80,299.1869390010834,,,,,,,,,,,,,,,,,,,,,,,,,,,,,,,,,,,,,,,,,,,,,,,,,,,,,,,,,,,,,,,,,,,,,,,,,,,,,,,,,57.0,133.0,78.0,78.0,133.0,57.0,3.0,3.1,-202,290,0,19,164,-259,299.17033982276917,299.1704194545746,299.1737930774689,299.1869390010834,299.33474922180176,299.33474922180176,299.33474922180176,299.33474922180176,299.33474922180176,299.33474922180176,299.33474922180176,303.2270143032074,3,4.025212049484253,None,,,,,,,,,,,,,,,,,,202,2,2025-03-06_14h43.59.992,comp,2024.2.4,57.67832021661494,2025-03-06 14h44.08.529362 -0500,
92,92,0,critical,dwh,20.0,2.1,upper,141.0,141.0,125.0,200.0,200.0,125.0,2,1.431197166442871,None,,,,,0,0,0,0,0,92,92,7,303.24575424194336,,,,,,,,,,,,,,,,,,,,,,,,,,,,,,,,,,,,,,,,,,,,,,,,,,,,,,,,,,,,,,,,,,,,,,,,,,,,,,,,,141.0,141.0,125.0,200.0,200.0,125.0,2.1,2.12,-266,-263,0,-260,258,251,303.2285575866699,303.2286353111267,303.23155641555786,303.24575424194336,303.3820662498474,303.3820662498474,303.3820662498474,303.3820662498474,303.3820662498474,303.3820662498474,303.3820662498474,304.68789196014404,2,1.431197166442871,None,,,,,,,,,,,,,,,,,,202,2,2025-03-06_14h43.59.992,comp,2024.2.4,57.67832021661494,2025-03-06 14h44.08.529362 -0500,
93,93,0,critical,dhw,35.0,2.1,upper,127.0,127.0,200.0,125.0,125.0,200.0,2,1.250319480895996,None,,,,,0,0,0,0,0,93,93,1,304.70597791671753,,,,,,,,,,,,,,,,,,,,,,,,,,,,,,,,,,,,,,,,,,,,,,,,,,,,,,,,,,,,,,,,,,,,,,,,,,,,,,,,,127.0,127.0,200.0,125.0,125.0,200.0,2.1,2.12,-222,-274,0,-287,258,271,304.68952894210815,304.68960666656494,304.69287848472595,304.70597791671753,304.85598731040955,304.85598731040955,304.85598731040955,304.85598731040955,304.85598731040955,304.85598731040955,304.85598731040955,305.959965467453,2,1.250319480895996,None,,,,,,,,,,,,,,,,,,202,2,2025-03-06_14h43.59.992,comp,2024.2.4,57.67832021661494,2025-03-06 14h44.08.529362 -0500,
94,94,0,critical,whd,20.0,3.0,lower,57.0,133.0,133.0,57.0,78.0,78.0,2,0.9453256130218506,None,,,,,0,0,0,0,0,94,94,92,305.9795153141022,,,,,,,,,,,,,,,,,,,,,,,,,,,,,,,,,,,,,,,,,,,,,,,,,,,,,,,,,,,,,,,,,,,,,,,,,,,,,,,,,57.0,133.0,133.0,57.0,78.0,78.0,3.0,3.1,-191,262,0,10,164,-262,305.9616539478302,305.96173119544983,305.9646384716034,305.9795153141022,306.11811423301697,306.11811423301697,306.11811423301697,306.11811423301697,306.11811423301697,306.11811423301697,306.11811423301697,306.94303917884827,2,0.9453256130218506,None,,,,,,,,,,,,,,,,,,202,2,2025-03-06_14h43.59.992,comp,2024.2.4,57.67832021661494,2025-03-06 14h44.08.529362 -0500,
95,95,0,critical,hwd,35.0,4.0,lower,133.0,57.0,57.0,133.0,70.0,70.0,2,2.806204319000244,None,,,,,0,0,0,0,0,95,95,100,306.9586453437805,,,,,,,,,,,,,,,,,,,,,,,,,,,,,,,,,,,,,,,,,,,,,,,,,,,,,,,,,,,,,,,,,,,,,,,,,,,,,,,,,133.0,57.0,57.0,133.0,70.0,70.0,4.0,4.2,-191,-15,0,-281,198,7,306.9445049762726,306.9445822238922,306.94750714302063,306.9586453437805,307.1047537326813,307.1047537326813,307.1047537326813,307.1047537326813,307.1047537326813,307.1047537326813,307.1047537326813,309.774507522583,2,2.806204319000244,None,,,,,,,,,,,,,,,,,,202,2,2025-03-06_14h43.59.992,comp,2024.2.4,57.67832021661494,2025-03-06 14h44.08.529362 -0500,
96,96,0,filler_random,None,None,None,None,None,None,None,None,None,None,2,1.002697229385376,None,,,,,0,0,0,0,0,96,96,164,309.7934865951538,,,,,,,,,,,,,,,,,,,,,,,,,,,,,,,,,,,,,,,,,,,,,,,,,,,,,,,,,,,,,,,,,,,,,,,,,,,,,,,,,79.82953154236993,88.19094532868534,146.36745591612407,150.4540347770795,171.74297610686236,83.33490487700354,3.0,3.2,-215,-261,0,-12,213,256,309.7764368057251,309.77652764320374,309.77981543540955,309.7934865951538,309.94392824172974,309.94392824172974,309.94392824172974,309.94392824172974,309.94392824172974,309.94392824172974,309.94392824172974,310.8098723888397,2,1.002697229385376,None,,,,,,,,,,,,,,,,,,202,2,2025-03-06_14h43.59.992,comp,2024.2.4,57.67832021661494,2025-03-06 14h44.08.529362 -0500,
97,97,0,critical,hdw,20.0,2.1,lower,133.0,57.0,78.0,78.0,57.0,133.0,3,3.410675287246704,None,,,,,0,0,0,0,0,97,97,46,310.82555389404297,,,,,,,,,,,,,,,,,,,,,,,,,,,,,,,,,,,,,,,,,,,,,,,,,,,,,,,,,,,,,,,,,,,,,,,,,,,,,,,,,133.0,57.0,78.0,78.0,57.0,133.0,2.1,2.12,-164,-265,0,-275,202,286,310.8114204406738,310.81149911880493,310.8148305416107,310.82555389404297,310.9692988395691,310.9692988395691,310.9692988395691,310.9692988395691,310.9692988395691,310.9692988395691,310.9692988395691,314.2395484447479,3,3.410675287246704,None,,,,,,,,,,,,,,,,,,202,2,2025-03-06_14h43.59.992,comp,2024.2.4,57.67832021661494,2025-03-06 14h44.08.529362 -0500,
98,98,0,filler_random,None,None,None,None,None,None,None,None,None,None,3,1.774524450302124,None,,,,,0,0,0,0,0,98,98,151,314.25547909736633,,,,,,,,,,,,,,,,,,,,,,,,,,,,,,,,,,,,,,,,,,,,,,,,,,,,,,,,,,,,,,,,,,,,,,,,,,,,,,,,,69.40217297707568,181.218215651905,67.29025639322765,63.032669230001446,130.68123419018838,130.70619338547095,1.0,1.1,-698,282,-480,257,-287,269,314.24119329452515,314.241286277771,314.24467492103577,314.25547909736633,314.4046514034271,314.4046514034271,314.4046514034271,314.4046514034271,314.4046514034271,314.4046514034271,314.4046514034271,316.04034757614136,3,1.774524450302124,None,,,,,,,,,,,,,,,,,,202,2,2025-03-06_14h43.59.992,comp,2024.2.4,57.67832021661494,2025-03-06 14h44.08.529362 -0500,
99,99,0,critical,hdw,35.0,2.1,lower,133.0,57.0,70.0,70.0,57.0,133.0,1,3.99609637260437,None,,,,,0,0,0,0,0,99,99,20,316.0566146373749,,,,,,,,,,,,,,,,,,,,,,,,,,,,,,,,,,,,,,,,,,,,,,,,,,,,,,,,,,,,,,,,,,,,,,,,,,,,,,,,,133.0,57.0,70.0,70.0,57.0,133.0,2.1,2.12,-160,-282,0,-280,198,272,316.04191398620605,316.04199481010437,316.04553055763245,316.0566146373749,316.2128610610962,316.2128610610962,316.2128610610962,316.2128610610962,316.2128610610962,316.2128610610962,316.2128610610962,320.05872106552124,1,3.99609637260437,None,,,,,,,,,,,,,,,,,,202,2,2025-03-06_14h43.59.992,comp,2024.2.4,57.67832021661494,2025-03-06 14h44.08.529362 -0500,
100,100,0,critical,dwh,20.0,4.0,lower,78.0,78.0,57.0,133.0,133.0,57.0,2,1.9460837841033936,None,,,,,0,0,0,0,0,100,100,70,320.0747585296631,,,,,,,,,,,,,,,,,,,,,,,,,,,,,,,,,,,,,,,,,,,,,,,,,,,,,,,,,,,,,,,,,,,,,,,,,,,,,,,,,78.0,78.0,57.0,133.0,133.0,57.0,4.0,4.1,-202,-286,0,9,191,-277,320.0602686405182,320.06034564971924,320.0635221004486,320.0747585296631,320.22396516799927,320.22396516799927,320.22396516799927,320.22396516799927,320.22396516799927,320.22396516799927,320.22396516799927,322.0251772403717,2,1.9460837841033936,None,,,,,,,,,,,,,,,,,,202,2,2025-03-06_14h43.59.992,comp,2024.2.4,57.67832021661494,2025-03-06 14h44.08.529362 -0500,
101,101,0,critical,dwh,35.0,3.0,lower,70.0,70.0,57.0,133.0,133.0,57.0,2,0.9239952564239502,None,,,,,0,0,0,0,0,101,101,62,322.04147028923035,,,,,,,,,,,,,,,,,,,,,,,,,,,,,,,,,,,,,,,,,,,,,,,,,,,,,,,,,,,,,,,,,,,,,,,,,,,,,,,,,70.0,70.0,57.0,133.0,133.0,57.0,3.0,3.2,-198,-290,0,-2,191,250,322.0266888141632,322.0267674922943,322.03076243400574,322.04147028923035,322.19193172454834,322.19193172454834,322.19193172454834,322.19193172454834,322.19193172454834,322.19193172454834,322.19193172454834,322.9725434780121,2,0.9239952564239502,None,,,,,,,,,,,,,,,,,,202,2,2025-03-06_14h43.59.992,comp,2024.2.4,57.67832021661494,2025-03-06 14h44.08.529362 -0500,
102,102,0,filler_random,None,None,None,None,None,None,None,None,None,None,3,1.1587598323822021,None,,,,,0,0,0,0,0,102,102,138,322.9894423484802,,,,,,,,,,,,,,,,,,,,,,,,,,,,,,,,,,,,,,,,,,,,,,,,,,,,,,,,,,,,,,,,,,,,,,,,,,,,,,,,,60.115531737939925,114.19636099192488,159.1079633075836,172.47365911076105,198.73736222363488,178.11194617495718,2.2,2.22,-239,251,0,-278,271,-281,322.9743912220001,322.9745285511017,322.9777796268463,322.9894423484802,323.1270351409912,323.1270351409912,323.1270351409912,323.1270351409912,323.1270351409912,323.1270351409912,323.1270351409912,324.1592378616333,3,1.1587598323822021,None,,,,,,,,,,,,,,,,,,202,2,2025-03-06_14h43.59.992,comp,2024.2.4,57.67832021661494,2025-03-06 14h44.08.529362 -0500,
103,103,0,critical,whd,35.0,1.0,lower,57.0,133.0,133.0,57.0,70.0,70.0,1,4.949589252471924,None,,,,,0,0,0,0,0,103,103,84,324.17498660087585,,,,,,,,,,,,,,,,,,,,,,,,,,,,,,,,,,,,,,,,,,,,,,,,,,,,,,,,,,,,,,,,,,,,,,,,,,,,,,,,,57.0,133.0,133.0,57.0,70.0,70.0,1.0,1.3,289,-279,480,-256,640,-277,324.1607344150543,324.16080951690674,324.16424775123596,324.17498660087585,324.32589292526245,324.32589292526245,324.32589292526245,324.32589292526245,324.32589292526245,324.32589292526245,324.32589292526245,329.1435034275055,1,4.949589252471924,None,,,,,,,,,,,,,,,,,,202,2,2025-03-06_14h43.59.992,comp,2024.2.4,57.67832021661494,2025-03-06 14h44.08.529362 -0500,
104,104,0,critical,wdh,35.0,3.0,lower,57.0,133.0,70.0,70.0,133.0,57.0,1,1.7323064804077148,None,,,,,0,0,0,0,0,104,104,74,329.15988183021545,,,,,,,,,,,,,,,,,,,,,,,,,,,,,,,,,,,,,,,,,,,,,,,,,,,,,,,,,,,,,,,,,,,,,,,,,,,,,,,,,57.0,133.0,70.0,70.0,133.0,57.0,3.0,3.2,-198,-272,0,7,160,263,329.14496064186096,329.14503502845764,329.148074388504,329.15988183021545,329.312207698822,329.312207698822,329.312207698822,329.312207698822,329.312207698822,329.312207698822,329.312207698822,330.89499974250793,1,1.7323064804077148,None,,,,,,,,,,,,,,,,,,202,2,2025-03-06_14h43.59.992,comp,2024.2.4,57.67832021661494,2025-03-06 14h44.08.529362 -0500,
105,105,0,filler_random,None,None,None,None,None,None,None,None,None,None,2,0.9972140789031982,None,,,,,0,0,0,0,0,105,105,144,330.91127490997314,,,,,,,,,,,,,,,,,,,,,,,,,,,,,,,,,,,,,,,,,,,,,,,,,,,,,,,,,,,,,,,,,,,,,,,,,,,,,,,,,117.11608511278232,88.96505837008439,197.17593488452064,167.47428806290108,93.84229393329255,117.69696171868065,3.0,3.2,-224,-263,0,-12,239,260,330.8968756198883,330.89700627326965,330.9003920555115,330.91127490997314,331.05979323387146,331.05979323387146,331.05979323387146,331.05979323387146,331.05979323387146,331.05979323387146,331.05979323387146,331.9107449054718,2,0.9972140789031982,None,,,,,,,,,,,,,,,,,,202,2,2025-03-06_14h43.59.992,comp,2024.2.4,57.67832021661494,2025-03-06 14h44.08.529362 -0500,
106,106,0,critical,hdw,35.0,1.0,lower,133.0,57.0,70.0,70.0,57.0,133.0,3,2.8184196949005127,None,,,,,0,0,0,0,0,106,106,108,331.92979407310486,,,,,,,,,,,,,,,,,,,,,,,,,,,,,,,,,,,,,,,,,,,,,,,,,,,,,,,,,,,,,,,,,,,,,,,,,,,,,,,,,133.0,57.0,70.0,70.0,57.0,133.0,1.0,1.2,-160,-7,0,14,198,-1,331.91226387023926,331.91234159469604,331.9154875278473,331.92979407310486,332.08270025253296,332.08270025253296,332.08270025253296,332.08270025253296,332.08270025253296,332.08270025253296,332.08270025253296,334.7624759674072,3,2.8184196949005127,None,,,,,,,,,,,,,,,,,,202,2,2025-03-06_14h43.59.992,comp,2024.2.4,57.67832021661494,2025-03-06 14h44.08.529362 -0500,
107,107,0,filler_square,None,None,None,None,None,None,None,None,None,None,3,2.0497379302978516,None,,,,,0,0,0,0,0,107,107,190,334.778600692749,,,,,,,,,,,,,,,,,,,,,,,,,,,,,,,,,,,,,,,,,,,,,,,,,,,,,,,,,,,,,,,,,,,,,,,,,,,,,,,,,66.86548693683393,69.51081266549393,64.30791006722963,62.469415254710405,71.91093609538939,71.91093609538939,1.0,1.1,-642,250,-480,257,-317,276,334.76452445983887,334.7646014690399,334.76827597618103,334.778600692749,334.92847752571106,334.92847752571106,334.92847752571106,334.92847752571106,334.92847752571106,334.92847752571106,334.92847752571106,336.83266496658325,3,2.0497379302978516,None,,,,,,,,,,,,,,,,,,202,2,2025-03-06_14h43.59.992,comp,2024.2.4,57.67832021661494,2025-03-06 14h44.08.529362 -0500,
108,108,0,filler_square,None,None,None,None,None,None,None,None,None,None,1,1.352855920791626,None,,,,,0,0,0,0,0,108,108,171,336.8513786792755,,,,,,,,,,,,,,,,,,,,,,,,,,,,,,,,,,,,,,,,,,,,,,,,,,,,,,,,,,,,,,,,,,,,,,,,,,,,,,,,,177.05022239124673,177.05022239124673,135.04386237684628,111.50492109860082,122.09005337863702,71.96524248161789,2.2,2.21,-240,-283,0,277,188,266,336.8351421356201,336.8352310657501,336.8382411003113,336.8513786792755,336.9971868991852,336.9971868991852,336.9971868991852,336.9971868991852,336.9971868991852,336.9971868991852,336.9971868991852,338.2187180519104,1,1.352855920791626,None,,,,,,,,,,,,,,,,,,202,2,2025-03-06_14h43.59.992,comp,2024.2.4,57.67832021661494,2025-03-06 14h44.08.529362 -0500,
109,109,0,critical,whd,35.0,3.0,upper,125.0,200.0,200.0,125.0,127.0,127.0,2,1.0322544574737549,None,,,,,0,0,0,0,0,109,109,87,338.2359187602997,,,,,,,,,,,,,,,,,,,,,,,,,,,,,,,,,,,,,,,,,,,,,,,,,,,,,,,,,,,,,,,,,,,,,,,,,,,,,,,,,125.0,200.0,200.0,125.0,127.0,127.0,3.0,3.2,-258,-280,0,-2,222,261,338.22030544281006,338.2203848361969,338.22329235076904,338.2359187602997,338.38088941574097,338.38088941574097,338.38088941574097,338.38088941574097,338.38088941574097,338.38088941574097,338.38088941574097,339.28043603897095,2,1.0322544574737549,None,,,,,,,,,,,,,,,,,,202,2,2025-03-06_14h43.59.992,comp,2024.2.4,57.67832021661494,2025-03-06 14h44.08.529362 -0500,
110,110,0,critical,dhw,35.0,3.0,lower,70.0,70.0,133.0,57.0,57.0,133.0,2,1.5643482208251953,None,,,,,0,0,0,0,0,110,110,50,339.29653120040894,,,,,,,,,,,,,,,,,,,,,,,,,,,,,,,,,,,,,,,,,,,,,,,,,,,,,,,,,,,,,,,,,,,,,,,,,,,,,,,,,70.0,70.0,133.0,57.0,57.0,133.0,3.0,3.2,-160,-272,0,-19,191,289,339.2819378376007,339.28201699256897,339.28524518013,339.29653120040894,339.45085763931274,339.45085763931274,339.45085763931274,339.45085763931274,339.45085763931274,339.45085763931274,339.45085763931274,340.8647470474243,2,1.5643482208251953,None,,,,,,,,,,,,,,,,,,202,2,2025-03-06_14h43.59.992,comp,2024.2.4,57.67832021661494,2025-03-06 14h44.08.529362 -0500,
111,111,0,filler_random,None,None,None,None,None,None,None,None,None,None,1,1.0920629501342773,None,,,,,0,0,0,0,0,111,111,169,340.88087153434753,,,,,,,,,,,,,,,,,,,,,,,,,,,,,,,,,,,,,,,,,,,,,,,,,,,,,,,,,,,,,,,,,,,,,,,,,,,,,,,,,157.71168534967967,123.95528680736793,173.74170279732232,87.41452494725189,146.25770241498444,96.98403393038743,2.2,2.21,-202,-276,0,251,188,252,340.86646342277527,340.86654329299927,340.87000584602356,340.88087153434753,341.0338134765625,341.0338134765625,341.0338134765625,341.0338134765625,341.0338134765625,341.0338134765625,341.0338134765625,341.9825019836426,1,1.0920629501342773,None,,,,,,,,,,,,,,,,,,202,2,2025-03-06_14h43.59.992,comp,2024.2.4,57.67832021661494,2025-03-06 14h44.08.529362 -0500,
112,112,0,critical,hwd,35.0,2.1,upper,200.0,125.0,125.0,200.0,127.0,127.0,1,1.2202425003051758,None,,,,,0,0,0,0,0,112,112,17,341.99998354911804,,,,,,,,,,,,,,,,,,,,,,,,,,,,,,,,,,,,,,,,,,,,,,,,,,,,,,,,,,,,,,,,,,,,,,,,,,,,,,,,,200.0,125.0,125.0,200.0,127.0,127.0,2.1,2.12,-258,-264,0,-251,260,257,341.98403549194336,341.9841396808624,341.9870307445526,341.99998354911804,342.14752197265625,342.14752197265625,342.14752197265625,342.14752197265625,342.14752197265625,342.14752197265625,342.14752197265625,343.2367272377014,1,1.2202425003051758,None,,,,,,,,,,,,,,,,,,202,2,2025-03-06_14h43.59.992,comp,2024.2.4,57.67832021661494,2025-03-06 14h44.08.529362 -0500,
113,113,0,filler_random,None,None,None,None,None,None,None,None,None,None,1,1.238938570022583,None,,,,,0,0,0,0,0,113,113,168,343.2532012462616,,,,,,,,,,,,,,,,,,,,,,,,,,,,,,,,,,,,,,,,,,,,,,,,,,,,,,,,,,,,,,,,,,,,,,,,,,,,,,,,,185.70770964048913,99.80674737321772,83.07013660127423,81.0313501356425,168.3716704158228,120.74169515549374,2.1,2.11,-186,283,0,286,197,-273,343.23865032196045,343.23875069618225,343.24198865890503,343.2532012462616,343.3993983268738,343.3993983268738,343.3993983268738,343.3993983268738,343.3993983268738,343.3993983268738,343.3993983268738,344.5069468021393,1,1.238938570022583,None,,,,,,,,,,,,,,,,,,202,2,2025-03-06_14h43.59.992,comp,2024.2.4,57.67832021661494,2025-03-06 14h44.08.529362 -0500,
114,114,0,filler_square,None,None,None,None,None,None,None,None,None,None,2,0.8526360988616943,None,,,,,0,0,0,0,0,114,114,193,344.52755403518677,,,,,,,,,,,,,,,,,,,,,,,,,,,,,,,,,,,,,,,,,,,,,,,,,,,,,,,,,,,,,,,,,,,,,,,,,,,,,,,,,59.43003064647233,88.96384683031832,111.7912241517793,111.7912241517793,89.04751202794762,69.61214666403524,3.0,3.1,-196,288,0,-11,187,-274,344.50876331329346,344.50884532928467,344.51180624961853,344.52755403518677,344.66683292388916,344.66683292388916,344.66683292388916,344.66683292388916,344.66683292388916,344.66683292388916,344.66683292388916,345.38299918174744,2,0.8526360988616943,None,,,,,,,,,,,,,,,,,,202,2,2025-03-06_14h43.59.992,comp,2024.2.4,57.67832021661494,2025-03-06 14h44.08.529362 -0500,
115,115,0,filler_square,None,None,None,None,None,None,None,None,None,None,3,0.8773906230926514,None,,,,,0,0,0,0,0,115,115,184,345.399423122406,,,,,,,,,,,,,,,,,,,,,,,,,,,,,,,,,,,,,,,,,,,,,,,,,,,,,,,,,,,,,,,,,,,,,,,,,,,,,,,,,123.07774183077572,102.83454510426587,113.59916563760683,133.0530814873328,188.3431522302305,188.3431522302305,2.1,2.11,-214,263,0,288,257,-266,345.38474011421204,345.3848171234131,345.38887667655945,345.399423122406,345.5439751148224,345.5439751148224,345.5439751148224,345.5439751148224,345.5439751148224,345.5439751148224,345.5439751148224,346.2845923900604,3,0.8773906230926514,None,,,,,,,,,,,,,,,,,,202,2,2025-03-06_14h43.59.992,comp,2024.2.4,57.67832021661494,2025-03-06 14h44.08.529362 -0500,
116,116,0,filler_square,None,None,None,None,None,None,None,None,None,None,2,0.8992078304290771,None,,,,,0,0,0,0,0,116,116,175,346.3054041862488,,,,,,,,,,,,,,,,,,,,,,,,,,,,,,,,,,,,,,,,,,,,,,,,,,,,,,,,,,,,,,,,,,,,,,,,,,,,,,,,,69.44989408915701,66.14989105657448,91.6044706320548,91.6044706320548,64.39734385585805,84.00555687276801,3.0,3.1,-175,279,0,-9,184,-290,346.28646540641785,346.28655076026917,346.28969717025757,346.3054041862488,346.449481010437,346.449481010437,346.449481010437,346.449481010437,346.449481010437,346.449481010437,346.449481010437,347.21338963508606,2,0.8992078304290771,None,,,,,,,,,,,,,,,,,,202,2,2025-03-06_14h43.59.992,comp,2024.2.4,57.67832021661494,2025-03-06 14h44.08.529362 -0500,
117,117,0,filler_random,None,None,None,None,None,None,None,None,None,None,2,1.0777740478515625,None,,,,,0,0,0,0,0,117,117,163,347.23101902008057,,,,,,,,,,,,,,,,,,,,,,,,,,,,,,,,,,,,,,,,,,,,,,,,,,,,,,,,,,,,,,,,,,,,,,,,,,,,,,,,,80.19452313623952,104.85970133501601,114.25901575136962,195.68306474704823,78.76971045482931,155.6367925336533,2.1,2.12,-246,-260,0,-285,272,274,347.21506786346436,347.2151687145233,347.2179718017578,347.23101902008057,347.38180208206177,347.38180208206177,347.38180208206177,347.38180208206177,347.38180208206177,347.38180208206177,347.38180208206177,348.31706714630127,2,1.0777740478515625,None,,,,,,,,,,,,,,,,,,202,2,2025-03-06_14h43.59.992,comp,2024.2.4,57.67832021661494,2025-03-06 14h44.08.529362 -0500,
118,118,0,critical,dhw,20.0,1.0,upper,141.0,141.0,200.0,125.0,125.0,200.0,3,2.01503849029541,None,,,,,0,0,0,0,0,118,118,55,348.3333468437195,,,,,,,,,,,,,,,,,,,,,,,,,,,,,,,,,,,,,,,,,,,,,,,,,,,,,,,,,,,,,,,,,,,,,,,,,,,,,,,,,141.0,141.0,200.0,125.0,125.0,200.0,1.0,1.3,251,-282,480,-279,738,-255,348.31854009628296,348.31861662864685,348.32256412506104,348.3333468437195,348.48285961151123,348.48285961151123,348.48285961151123,348.48285961151123,348.48285961151123,348.48285961151123,348.48285961151123,350.3667380809784,3,2.01503849029541,None,,,,,,,,,,,,,,,,,,202,2,2025-03-06_14h43.59.992,comp,2024.2.4,57.67832021661494,2025-03-06 14h44.08.529362 -0500,
119,119,0,critical,wdh,20.0,4.0,lower,57.0,133.0,78.0,78.0,133.0,57.0,2,3.462489604949951,None,,,,,0,0,0,0,0,119,119,82,350.38245606422424,,,,,,,,,,,,,,,,,,,,,,,,,,,,,,,,,,,,,,,,,,,,,,,,,,,,,,,,,,,,,,,,,,,,,,,,,,,,,,,,,57.0,133.0,78.0,78.0,133.0,57.0,4.0,4.2,-202,-1,0,-278,164,-13,350.3682539463043,350.36833143234253,350.3713495731354,350.38245606422424,350.53417134284973,350.53417134284973,350.53417134284973,350.53417134284973,350.53417134284973,350.53417134284973,350.53417134284973,353.85201716423035,2,3.462489604949951,None,,,,,,,,,,,,,,,,,,202,2,2025-03-06_14h43.59.992,comp,2024.2.4,57.67832021661494,2025-03-06 14h44.08.529362 -0500,
120,120,0,critical,whd,35.0,3.0,lower,57.0,133.0,133.0,57.0,70.0,70.0,2,1.2323105335235596,None,,,,,0,0,0,0,0,120,120,86,353.8685259819031,,,,,,,,,,,,,,,,,,,,,,,,,,,,,,,,,,,,,,,,,,,,,,,,,,,,,,,,,,,,,,,,,,,,,,,,,,,,,,,,,57.0,133.0,133.0,57.0,70.0,70.0,3.0,3.2,-191,-287,0,-5,160,284,353.853511095047,353.85358786582947,353.8569622039795,353.8685259819031,354.0183358192444,354.0183358192444,354.0183358192444,354.0183358192444,354.0183358192444,354.0183358192444,354.0183358192444,355.1030333042145,2,1.2323105335235596,None,,,,,,,,,,,,,,,,,,202,2,2025-03-06_14h43.59.992,comp,2024.2.4,57.67832021661494,2025-03-06 14h44.08.529362 -0500,
121,121,0,filler_square,None,None,None,None,None,None,None,None,None,None,1,0.7957549095153809,None,,,,,0,0,0,0,0,121,121,198,355.12081241607666,,,,,,,,,,,,,,,,,,,,,,,,,,,,,,,,,,,,,,,,,,,,,,,,,,,,,,,,,,,,,,,,,,,,,,,,,,,,,,,,,144.93389579865715,144.93389579865715,78.77114142897194,127.09566573497813,79.82683152630277,137.73265622035183,4.0,4.2,-232,-12,0,-264,228,-10,355.1052026748657,355.10533833503723,355.10927414894104,355.12081241607666,355.27013516426086,355.27013516426086,355.27013516426086,355.27013516426086,355.27013516426086,355.27013516426086,355.27013516426086,355.92235827445984,1,0.7957549095153809,None,,,,,,,,,,,,,,,,,,202,2,2025-03-06_14h43.59.992,comp,2024.2.4,57.67832021661494,2025-03-06 14h44.08.529362 -0500,
122,122,0,critical,wdh,20.0,2.1,lower,57.0,133.0,78.0,78.0,133.0,57.0,2,1.3224670886993408,None,,,,,0,0,0,0,0,122,122,34,355.93870282173157,,,,,,,,,,,,,,,,,,,,,,,,,,,,,,,,,,,,,,,,,,,,,,,,,,,,,,,,,,,,,,,,,,,,,,,,,,,,,,,,,57.0,133.0,78.0,78.0,133.0,57.0,2.1,2.12,-202,-280,0,-282,164,264,355.9243896007538,355.9244923591614,355.9280014038086,355.93870282173157,356.08994221687317,356.08994221687317,356.08994221687317,356.08994221687317,356.08994221687317,356.08994221687317,356.08994221687317,357.2683017253876,2,1.3224670886993408,None,,,,,,,,,,,,,,,,,,202,2,2025-03-06_14h43.59.992,comp,2024.2.4,57.67832021661494,2025-03-06 14h44.08.529362 -0500,
123,123,0,filler_random,None,None,None,None,None,None,None,None,None,None,2,2.104037046432495,None,,,,,0,0,0,0,0,123,123,136,357.2849702835083,,,,,,,,,,,,,,,,,,,,,,,,,,,,,,,,,,,,,,,,,,,,,,,,,,,,,,,,,,,,,,,,,,,,,,,,,,,,,,,,,190.85002237029488,100.12007858063869,171.3603814238897,134.6852323511369,116.24008148106611,115.1987641454554,2.1,2.12,-213,-262,0,-251,221,276,357.2699737548828,357.2700548171997,357.2732398509979,357.2849702835083,357.4358296394348,357.4358296394348,357.4358296394348,357.4358296394348,357.4358296394348,357.4358296394348,357.4358296394348,359.3942675590515,2,2.104037046432495,None,,,,,,,,,,,,,,,,,,202,2,2025-03-06_14h43.59.992,comp,2024.2.4,57.67832021661494,2025-03-06 14h44.08.529362 -0500,
124,124,0,filler_random,None,None,None,None,None,None,None,None,None,None,3,1.2338604927062988,None,,,,,0,0,0,0,0,124,124,166,359.4103569984436,,,,,,,,,,,,,,,,,,,,,,,,,,,,,,,,,,,,,,,,,,,,,,,,,,,,,,,,,,,,,,,,,,,,,,,,,,,,,,,,,120.19403474983073,156.21308220446443,83.3730988404717,109.23217461593828,189.2634359535564,161.09663374869726,2.1,2.12,-229,-286,0,-287,231,288,359.39605736732483,359.3962154388428,359.3995406627655,359.4103569984436,359.5561900138855,359.5561900138855,359.5561900138855,359.5561900138855,359.5561900138855,359.5561900138855,359.5561900138855,360.6541950702667,3,1.2338604927062988,None,,,,,,,,,,,,,,,,,,202,2,2025-03-06_14h43.59.992,comp,2024.2.4,57.67832021661494,2025-03-06 14h44.08.529362 -0500,
125,125,0,filler_square,None,None,None,None,None,None,None,None,None,None,2,0.8536057472229004,None,,,,,0,0,0,0,0,125,125,170,360.6706130504608,,,,,,,,,,,,,,,,,,,,,,,,,,,,,,,,,,,,,,,,,,,,,,,,,,,,,,,,,,,,,,,,,,,,,,,,,,,,,,,,,64.46364430717026,62.01781642008004,89.7439006523002,89.7439006523002,61.66141939326195,58.69771450002501,2.1,2.11,-172,267,0,273,170,-266,360.6559200286865,360.65599822998047,360.6594889163971,360.6706130504608,360.82361030578613,360.82361030578613,360.82361030578613,360.82361030578613,360.82361030578613,360.82361030578613,360.82361030578613,361.53924584388733,2,0.8536057472229004,None,,,,,,,,,,,,,,,,,,202,2,2025-03-06_14h43.59.992,comp,2024.2.4,57.67832021661494,2025-03-06 14h44.08.529362 -0500,
126,126,0,critical,hwd,35.0,2.1,lower,133.0,57.0,57.0,133.0,70.0,70.0,2,2.0731234550476074,None,,,,,0,0,0,0,0,126,126,16,361.5568244457245,,,,,,,,,,,,,,,,,,,,,,,,,,,,,,,,,,,,,,,,,,,,,,,,,,,,,,,,,,,,,,,,,,,,,,,,,,,,,,,,,133.0,57.0,57.0,133.0,70.0,70.0,2.1,2.12,-191,-272,0,-256,198,283,361.54072618484497,361.54080414772034,361.54406809806824,361.5568244457245,361.7247853279114,361.7247853279114,361.7247853279114,361.7247853279114,361.7247853279114,361.7247853279114,361.7247853279114,363.63737082481384,2,2.0731234550476074,None,,,,,,,,,,,,,,,,,,202,2,2025-03-06_14h43.59.992,comp,2024.2.4,57.67832021661494,2025-03-06 14h44.08.529362 -0500,
127,127,0,critical,wdh,20.0,4.0,upper,125.0,200.0,141.0,141.0,200.0,125.0,3,2.102602005004883,None,,,,,0,0,0,0,0,127,127,83,363.65376496315,,,,,,,,,,,,,,,,,,,,,,,,,,,,,,,,,,,,,,,,,,,,,,,,,,,,,,,,,,,,,,,,,,,,,,,,,,,,,,,,,125.0,200.0,141.0,141.0,200.0,125.0,4.0,4.1,-266,-260,0,4,229,-287,363.63884711265564,363.6389274597168,363.6420226097107,363.65376496315,363.8057191371918,363.8057191371918,363.8057191371918,363.8057191371918,363.8057191371918,363.8057191371918,363.8057191371918,365.7732448577881,3,2.102602005004883,None,,,,,,,,,,,,,,,,,,202,2,2025-03-06_14h43.59.992,comp,2024.2.4,57.67832021661494,2025-03-06 14h44.08.529362 -0500,
128,128,0,critical,dhw,20.0,2.1,upper,141.0,141.0,200.0,125.0,125.0,200.0,3,1.7759056091308594,None,,,,,0,0,0,0,0,128,128,27,365.78892254829407,,,,,,,,,,,,,,,,,,,,,,,,,,,,,,,,,,,,,,,,,,,,,,,,,,,,,,,,,,,,,,,,,,,,,,,,,,,,,,,,,141.0,141.0,200.0,125.0,125.0,200.0,2.1,2.11,-229,269,0,280,258,-270,365.77489590644836,365.7750301361084,365.77852392196655,365.78892254829407,365.9383659362793,365.9383659362793,365.9383659362793,365.9383659362793,365.9383659362793,365.9383659362793,365.9383659362793,367.57029485702515,3,1.7759056091308594,None,,,,,,,,,,,,,,,,,,202,2,2025-03-06_14h43.59.992,comp,2024.2.4,57.67832021661494,2025-03-06 14h44.08.529362 -0500,
129,129,0,filler_random,None,None,None,None,None,None,None,None,None,None,3,0.9532589912414551,None,,,,,0,0,0,0,0,129,129,139,367.58732557296753,,,,,,,,,,,,,,,,,,,,,,,,,,,,,,,,,,,,,,,,,,,,,,,,,,,,,,,,,,,,,,,,,,,,,,,,,,,,,,,,,91.10021223908693,74.75788586478158,191.27508493285615,131.46145670677134,163.55380866602508,188.6242748862475,3.0,3.1,-199,254,0,11,256,-256,367.572035074234,367.5722007751465,367.5754952430725,367.58732557296753,367.72374200820923,367.72374200820923,367.72374200820923,367.72374200820923,367.72374200820923,367.72374200820923,367.72374200820923,368.5474293231964,3,0.9532589912414551,None,,,,,,,,,,,,,,,,,,202,2,2025-03-06_14h43.59.992,comp,2024.2.4,57.67832021661494,2025-03-06 14h44.08.529362 -0500,
130,130,0,critical,hdw,20.0,3.0,lower,133.0,57.0,78.0,78.0,57.0,133.0,2,0.975247859954834,None,,,,,0,0,0,0,0,130,130,116,368.56489157676697,,,,,,,,,,,,,,,,,,,,,,,,,,,,,,,,,,,,,,,,,,,,,,,,,,,,,,,,,,,,,,,,,,,,,,,,,,,,,,,,,133.0,57.0,78.0,78.0,57.0,133.0,3.0,3.2,-164,-262,0,-13,202,257,368.54892015457153,368.54899978637695,368.55189538002014,368.56489157676697,368.7071738243103,368.7071738243103,368.7071738243103,368.7071738243103,368.7071738243103,368.7071738243103,368.7071738243103,369.5561637878418,2,0.975247859954834,None,,,,,,,,,,,,,,,,,,202,2,2025-03-06_14h43.59.992,comp,2024.2.4,57.67832021661494,2025-03-06 14h44.08.529362 -0500,
131,131,0,critical,whd,20.0,2.1,lower,57.0,133.0,133.0,57.0,78.0,78.0,2,1.7738709449768066,None,,,,,0,0,0,0,0,131,131,38,369.5750563144684,,,,,,,,,,,,,,,,,,,,,,,,,,,,,,,,,,,,,,,,,,,,,,,,,,,,,,,,,,,,,,,,,,,,,,,,,,,,,,,,,57.0,133.0,133.0,57.0,78.0,78.0,2.1,2.11,-191,284,0,253,164,-287,369.5576684474945,369.55774688720703,369.56086778640747,369.5750563144684,369.72251081466675,369.72251081466675,369.72251081466675,369.72251081466675,369.72251081466675,369.72251081466675,369.72251081466675,371.3564751148224,2,1.7738709449768066,None,,,,,,,,,,,,,,,,,,202,2,2025-03-06_14h43.59.992,comp,2024.2.4,57.67832021661494,2025-03-06 14h44.08.529362 -0500,
132,132,0,critical,dhw,35.0,1.0,lower,70.0,70.0,133.0,57.0,57.0,133.0,3,1.4840528964996338,None,,,,,0,0,0,0,0,132,132,48,371.3761591911316,,,,,,,,,,,,,,,,,,,,,,,,,,,,,,,,,,,,,,,,,,,,,,,,,,,,,,,,,,,,,,,,,,,,,,,,,,,,,,,,,70.0,70.0,133.0,57.0,57.0,133.0,1.0,1.1,-640,284,-480,266,-289,278,371.3579189777374,371.3579969406128,371.3612012863159,371.3761591911316,371.52368569374084,371.52368569374084,371.52368569374084,371.52368569374084,371.52368569374084,371.52368569374084,371.52368569374084,372.875855922699,3,1.4840528964996338,None,,,,,,,,,,,,,,,,,,202,2,2025-03-06_14h43.59.992,comp,2024.2.4,57.67832021661494,2025-03-06 14h44.08.529362 -0500,
133,133,0,critical,hdw,35.0,2.1,lower,133.0,57.0,70.0,70.0,57.0,133.0,3,1.5048108100891113,None,,,,,0,0,0,0,0,133,133,44,372.8920772075653,,,,,,,,,,,,,,,,,,,,,,,,,,,,,,,,,,,,,,,,,,,,,,,,,,,,,,,,,,,,,,,,,,,,,,,,,,,,,,,,,133.0,57.0,70.0,70.0,57.0,133.0,2.1,2.12,-160,-273,0,-287,198,258,372.8774063587189,372.87753319740295,372.8814289569855,372.8920772075653,373.0421223640442,373.0421223640442,373.0421223640442,373.0421223640442,373.0421223640442,373.0421223640442,373.0421223640442,374.40875720977783,3,1.5048108100891113,None,,,,,,,,,,,,,,,,,,202,2,2025-03-06_14h43.59.992,comp,2024.2.4,57.67832021661494,2025-03-06 14h44.08.529362 -0500,
134,134,0,critical,dwh,20.0,2.1,lower,78.0,78.0,57.0,133.0,133.0,57.0,2,2.8781890869140625,None,,,,,0,0,0,0,0,134,134,30,374.4226803779602,,,,,,,,,,,,,,,,,,,,,,,,,,,,,,,,,,,,,,,,,,,,,,,,,,,,,,,,,,,,,,,,,,,,,,,,,,,,,,,,,78.0,78.0,57.0,133.0,133.0,57.0,2.1,2.12,-202,-285,0,-257,191,266,374.4102511405945,374.4103488922119,374.4136686325073,374.4226803779602,374.57458543777466,374.57458543777466,374.57458543777466,374.57458543777466,374.57458543777466,374.57458543777466,374.57458543777466,377.309951543808,2,2.8781890869140625,None,,,,,,,,,,,,,,,,,,202,2,2025-03-06_14h43.59.992,comp,2024.2.4,57.67832021661494,2025-03-06 14h44.08.529362 -0500,
135,135,0,critical,hwd,20.0,2.1,lower,133.0,57.0,57.0,133.0,78.0,78.0,1,1.5654513835906982,None,,,,,0,0,0,0,0,135,135,42,377.3271269798279,,,,,,,,,,,,,,,,,,,,,,,,,,,,,,,,,,,,,,,,,,,,,,,,,,,,,,,,,,,,,,,,,,,,,,,,,,,,,,,,,133.0,57.0,57.0,133.0,78.0,78.0,2.1,2.12,-191,-258,0,-270,202,272,377.31163811683655,377.31172466278076,377.3155789375305,377.3271269798279,377.47659945487976,377.47659945487976,377.47659945487976,377.47659945487976,377.47659945487976,377.47659945487976,377.47659945487976,378.8999710083008,1,1.5654513835906982,None,,,,,,,,,,,,,,,,,,202,2,2025-03-06_14h43.59.992,comp,2024.2.4,57.67832021661494,2025-03-06 14h44.08.529362 -0500,
136,136,0,catch,None,None,None,None,None,None,None,None,None,None,3,0.9409427642822266,None,,,,,0,0,0,0,0,136,136,120,378.9196865558624,,,,,,,,,,,,,,,,,,,,,,,,,,,,,,,,,,,,,,,,,,,,,,,,,,,,,,,,,,,,,,,,,,,,,,,,,,,,,,,,,107,83,67,123,196,129,4.0,4.1,-199,-282,0,-9,222,-261,378.90189003944397,378.9019727706909,378.90487933158875,378.9196865558624,379.0602881908417,379.0602881908417,379.0602881908417,379.0602881908417,379.0602881908417,379.0602881908417,379.0602881908417,379.86999130249023,3,0.9409427642822266,None,,,,,,,,,,,,,,,,,,202,2,2025-03-06_14h43.59.992,comp,2024.2.4,57.67832021661494,2025-03-06 14h44.08.529362 -0500,
137,137,0,filler_square,None,None,None,None,None,None,None,None,None,None,3,1.4772756099700928,None,,,,,0,0,0,0,0,137,137,186,379.8869457244873,,,,,,,,,,,,,,,,,,,,,,,,,,,,,,,,,,,,,,,,,,,,,,,,,,,,,,,,,,,,,,,,,,,,,,,,,,,,,,,,,58.708883043936396,66.77218528351557,58.13138299178723,75.7784686383244,75.83266334795951,75.83266334795951,2.1,2.11,-167,266,0,255,172,-274,379.8719787597656,379.87205624580383,379.87525391578674,379.8869457244873,380.02721309661865,380.02721309661865,380.02721309661865,380.02721309661865,380.02721309661865,380.02721309661865,380.02721309661865,381.3770182132721,3,1.4772756099700928,None,,,,,,,,,,,,,,,,,,202,2,2025-03-06_14h43.59.992,comp,2024.2.4,57.67832021661494,2025-03-06 14h44.08.529362 -0500,
138,138,0,critical,hdw,20.0,1.0,lower,133.0,57.0,78.0,78.0,57.0,133.0,3,3.2769265174865723,None,,,,,0,0,0,0,0,138,138,114,381.3931257724762,,,,,,,,,,,,,,,,,,,,,,,,,,,,,,,,,,,,,,,,,,,,,,,,,,,,,,,,,,,,,,,,,,,,,,,,,,,,,,,,,133.0,57.0,78.0,78.0,57.0,133.0,1.0,1.2,-164,5,0,6,202,9,381.3785254955292,381.37860441207886,381.3818099498749,381.3931257724762,381.54373812675476,381.54373812675476,381.54373812675476,381.54373812675476,381.54373812675476,381.54373812675476,381.54373812675476,384.6772813796997,3,3.2769265174865723,None,,,,,,,,,,,,,,,,,,202,2,2025-03-06_14h43.59.992,comp,2024.2.4,57.67832021661494,2025-03-06 14h44.08.529362 -0500,
139,139,0,critical,whd,35.0,4.0,upper,125.0,200.0,200.0,125.0,127.0,127.0,2,1.9999711513519287,None,,,,,0,0,0,0,0,139,139,89,384.6926851272583,,,,,,,,,,,,,,,,,,,,,,,,,,,,,,,,,,,,,,,,,,,,,,,,,,,,,,,,,,,,,,,,,,,,,,,,,,,,,,,,,125.0,200.0,200.0,125.0,127.0,127.0,4.0,4.1,-258,-265,0,15,222,-265,384.6788249015808,384.67890334129333,384.6819679737091,384.6926851272583,384.84764528274536,384.84764528274536,384.84764528274536,384.84764528274536,384.84764528274536,384.84764528274536,384.84764528274536,386.69755506515503,2,1.9999711513519287,None,,,,,,,,,,,,,,,,,,202,2,2025-03-06_14h43.59.992,comp,2024.2.4,57.67832021661494,2025-03-06 14h44.08.529362 -0500,
