thisN,thisTrialN,thisRepN,effect,order,distance,config,diag,h_1,w_1,h_2,w_2,h_3,w_3,rect_choice.keys,rect_choice.rt,rect_choice.duration,instructions_loop.thisRepN,instructions_loop.thisTrialN,instructions_loop.thisN,instructions_loop.thisIndex,blocks.thisRepN,blocks.thisTrialN,blocks.thisN,blocks.thisIndex,trials.thisRepN,trials.thisTrialN,trials.thisN,trials.thisIndex,thisRow.t,notes,consent.started,agree_button.started,decline_button.started,consent_img.started,mouse.started,consent.stopped,agree_button.numClicks,agree_button.timesOn,agree_button.timesOff,decline_button.numClicks,decline_button.timesOn,decline_button.timesOff,mouse.x,mouse.y,mouse.leftButton,mouse.midButton,mouse.rightButton,mouse.time,mouse.clicked_name,exp_params.started,exp_params.stopped,welcome.started,welcome_text.started,welcome.stopped,instructions_1.started,instructions_1_text_1.started,instructions_1_text_2.started,key_resp.started,instructions_1.stopped,instructions_loop.key_resp.keys,instructions_loop.key_resp.rt,instructions_loop.key_resp.duration,instructions_2.started,instructions_2_text_1.started,instructions_2_text_2.started,key_resp_2.started,instructions_2.stopped,instructions_loop.key_resp_2.keys,instructions_loop.key_resp_2.rt,instructions_loop.key_resp_2.duration,instructions_3.started,instructions_3_text_1.started,r1_instr3.started,r2_instr3.started,r3_instr3.started,r1_instr3_label.started,r2_instr3_label.started,r3_instr3_label.started,instructions_3_text_3.started,instructions_3_text_4.started,key_resp_3.started,instructions_3.stopped,instructions_loop.key_resp_3.keys,instructions_loop.key_resp_3.rt,instructions_loop.key_resp_3.duration,instructions_4.started,instructions_4_text_1.started,instructions_4_text_3.started,instructions_4_text_2.started,key_resp_4.started,instructions_4.stopped,instructions_loop.key_resp_4.keys,instructions_loop.key_resp_4.rt,instructions_loop.key_resp_4.duration,instructions_5.started,instructions_5_text_1.started,instructions_5_text_2.started,key_resp_5.started,instructions_5.stopped,instructions_loop.key_resp_5.keys,instructions_loop.key_resp_5.rt,instructions_loop.key_resp_5.duration,start_exp.started,start_exp_text.started,key_resp_6.started,start_exp.stopped,key_resp_6.keys,key_resp_6.rt,key_resp_6.duration,h_1_tmp,w_1_tmp,h_2_tmp,w_2_tmp,h_3_tmp,w_3_tmp,config_tmp,config_tmp_1,r_1_x,r_1_y,r_2_x,r_2_y,r_3_x,r_3_y,pre_trial.started,pre_trial.stopped,choice_trial.started,rect_choice.started,r_1.started,r_2.started,r_3.started,r_1_label.started,r_2_label.started,r_3_label.started,prompt.started,choice_trial.stopped,trials.rect_choice.keys,trials.rect_choice.rt,trials.rect_choice.duration,end_block.started,end_block_text.started,end_block.stopped,end.started,end_text.started,key_resp_7.started,end.stopped,key_resp_7.keys,key_resp_7.rt,key_resp_7.duration,debriefing.started,debrief_form.started,end_debrief.started,debriefing.stopped,end_debrief.keys,end_debrief.rt,end_debrief.duration,participant,computer,date,expName,psychopyVersion,frameRate,expStart,
,,,,,,,,,,,,,,,,,,,,,,,,,,,,,,,0.015474557876586914,0.04164767265319824,0.04164767265319824,0.04164767265319824,0.014916419982910156,48.13651967048645,1,[48.09367752075195],[48.093690395355225],0,,,[-59.0],[-492.0],[1],[0],[0],[48.120521783828735],['agree_button'],,,,,,,,,,,,,,,,,,,,,,,,,,,,,,,,,,,,,,,,,,,,,,,,,,,,,,,,,,,,,,,,,,,,,,,,,,,,,,,,,,,,,,,,,,,,,,,,,,,,,,,,,,,203,3,2025-03-06_14h44.08.215,comp,2024.2.4,62.91783172724982,2025-03-06 14h44.19.309992 -0500,
,,,,,,,,,,,,,,,,,,,,,,,,,,,,,,,,,,,,,,,,,,,,,,,,,,48.13680982589722,48.13684558868408,,,,,,,,,,,,,,,,,,,,,,,,,,,,,,,,,,,,,,,,,,,,,,,,,,,,,,,,,,,,,,,,,,,,,,,,,,,,,,,,,,,,,,,,,,,,,,,,,,,,,,,,,203,3,2025-03-06_14h44.08.215,comp,2024.2.4,62.91783172724982,2025-03-06 14h44.19.309992 -0500,
,,,,,,,,,,,,,,,,,,,,,,,,,,,,,,,,,,,,,,,,,,,,,,,,,,,,48.136868715286255,48.15041971206665,50.14804482460022,,,,,,,,,,,,,,,,,,,,,,,,,,,,,,,,,,,,,,,,,,,,,,,,,,,,,,,,,,,,,,,,,,,,,,,,,,,,,,,,,,,,,,,,,,,,,,,,,,,,,,203,3,2025-03-06_14h44.08.215,comp,2024.2.4,62.91783172724982,2025-03-06 14h44.19.309992 -0500,
0,0,0,,,,,,,,,,,,,,,0,0,0,0,,,,,,,,,50.16477727890015,,,,,,,,,,,,,,,,,,,,,,,,,,50.148847341537476,50.16477727890015,50.16477727890015,51.64800715446472,58.549400806427,space,6.895148992538452,None,58.54948449134827,58.56523609161377,58.56523609161377,60.064589738845825,69.63229393959045,space,9.558091878890991,None,69.63239645957947,69.65423464775085,69.65423464775085,69.65423464775085,69.65423464775085,69.65423464775085,69.65423464775085,69.65423464775085,69.65423464775085,69.65423464775085,71.13163113594055,77.26645350456238,space,6.12217378616333,None,77.2665388584137,77.28143310546875,77.28143310546875,77.28143310546875,78.78120231628418,81.3822193145752,space,2.5846540927886963,None,81.38230395317078,81.39799571037292,81.39799571037292,82.8978705406189,111.58205008506775,space,28.676541328430176,None,111.5821602344513,111.59788846969604,111.59788846969604,208.74847388267517,space,97.14422416687012,None,,,,,,,,,,,,,,,,,,,,,,,,,,,,,,,,,,,,,,,,,,,,,,,203,3,2025-03-06_14h44.08.215,comp,2024.2.4,62.91783172724982,2025-03-06 14h44.19.309992 -0500,
0,0,0,critical,dwh,35.0,2.1,upper,127.0,127.0,125.0,200.0,200.0,125.0,3,6.129395484924316,None,,,,,0,0,0,0,0,0,0,29,208.80342388153076,,,,,,,,,,,,,,,,,,,,,,,,,,,,,,,,,,,,,,,,,,,,,,,,,,,,,,,,,,,,,,,,,,,,,,,,,,,,,,,,,127.0,127.0,125.0,200.0,200.0,125.0,2.1,2.12,-260,-277,0,-279,258,289,208.78991293907166,208.78995513916016,208.7916715145111,208.80342388153076,208.94959330558777,208.94959330558777,208.94959330558777,208.94959330558777,208.94959330558777,208.94959330558777,208.94959330558777,214.94827342033386,3,6.129395484924316,None,,,,,,,,,,,,,,,,,,203,3,2025-03-06_14h44.08.215,comp,2024.2.4,62.91783172724982,2025-03-06 14h44.19.309992 -0500,
1,1,0,critical,dwh,20.0,3.0,upper,141.0,141.0,125.0,200.0,200.0,125.0,2,6.105258464813232,None,,,,,0,0,0,0,0,1,1,69,214.96349048614502,,,,,,,,,,,,,,,,,,,,,,,,,,,,,,,,,,,,,,,,,,,,,,,,,,,,,,,,,,,,,,,,,,,,,,,,,,,,,,,,,141.0,141.0,125.0,200.0,200.0,125.0,3.0,3.2,-266,-280,0,5,258,280,214.94907140731812,214.94911122322083,214.95156359672546,214.96349048614502,215.11382818222046,215.11382818222046,215.11382818222046,215.11382818222046,215.11382818222046,215.11382818222046,215.11382818222046,221.08167672157288,2,6.105258464813232,None,,,,,,,,,,,,,,,,,,203,3,2025-03-06_14h44.08.215,comp,2024.2.4,62.91783172724982,2025-03-06 14h44.19.309992 -0500,
2,2,0,critical,hdw,35.0,2.1,lower,133.0,57.0,70.0,70.0,57.0,133.0,1,3.676821708679199,None,,,,,0,0,0,0,0,2,2,20,221.09682822227478,,,,,,,,,,,,,,,,,,,,,,,,,,,,,,,,,,,,,,,,,,,,,,,,,,,,,,,,,,,,,,,,,,,,,,,,,,,,,,,,,133.0,57.0,70.0,70.0,57.0,133.0,2.1,2.12,-160,-288,0,-256,198,250,221.08250093460083,221.0825433731079,221.08478999137878,221.09682822227478,221.2469129562378,221.2469129562378,221.2469129562378,221.2469129562378,221.2469129562378,221.2469129562378,221.2469129562378,224.78124737739563,1,3.676821708679199,None,,,,,,,,,,,,,,,,,,203,3,2025-03-06_14h44.08.215,comp,2024.2.4,62.91783172724982,2025-03-06 14h44.19.309992 -0500,
3,3,0,critical,hdw,20.0,3.0,upper,200.0,125.0,141.0,141.0,125.0,200.0,1,16.360671520233154,None,,,,,0,0,0,0,0,3,3,117,224.79701113700867,,,,,,,,,,,,,,,,,,,,,,,,,,,,,,,,,,,,,,,,,,,,,,,,,,,,,,,,,,,,,,,,,,,,,,,,,,,,,,,,,200.0,125.0,141.0,141.0,125.0,200.0,3.0,3.2,-229,-284,0,-9,266,261,224.78204536437988,224.78208684921265,224.78438758850098,224.79701113700867,224.9471366405487,224.9471366405487,224.9471366405487,224.9471366405487,224.9471366405487,224.9471366405487,224.9471366405487,241.1647481918335,1,16.360671520233154,None,,,,,,,,,,,,,,,,,,203,3,2025-03-06_14h44.08.215,comp,2024.2.4,62.91783172724982,2025-03-06 14h44.19.309992 -0500,
4,4,0,critical,dwh,20.0,1.0,upper,141.0,141.0,125.0,200.0,200.0,125.0,2,9.793262243270874,None,,,,,0,0,0,0,0,4,4,67,241.18012523651123,,,,,,,,,,,,,,,,,,,,,,,,,,,,,,,,,,,,,,,,,,,,,,,,,,,,,,,,,,,,,,,,,,,,,,,,,,,,,,,,,141.0,141.0,125.0,200.0,200.0,125.0,1.0,1.3,214,-279,480,-257,738,-289,241.16551160812378,241.16555166244507,241.1673822402954,241.18012523651123,241.33020997047424,241.33020997047424,241.33020997047424,241.33020997047424,241.33020997047424,241.33020997047424,241.33020997047424,250.98141884803772,2,9.793262243270874,None,,,,,,,,,,,,,,,,,,203,3,2025-03-06_14h44.08.215,comp,2024.2.4,62.91783172724982,2025-03-06 14h44.19.309992 -0500,
5,5,0,filler_random,None,None,None,None,None,None,None,None,None,None,3,3.800245761871338,None,,,,,0,0,0,0,0,5,5,162,250.99689722061157,,,,,,,,,,,,,,,,,,,,,,,,,,,,,,,,,,,,,,,,,,,,,,,,,,,,,,,,,,,,,,,,,,,,,,,,,,,,,,,,,160.49273703461856,58.794566728199335,162.7413370400486,89.88194672693189,171.4982968962173,197.91523720775203,4.0,4.2,-170,13,0,-259,240,2,250.98227620124817,250.9823179244995,250.98437762260437,250.99689722061157,251.14691400527954,251.14691400527954,251.14691400527954,251.14691400527954,251.14691400527954,251.14691400527954,251.14691400527954,254.81474328041077,3,3.800245761871338,None,,,,,,,,,,,,,,,,,,203,3,2025-03-06_14h44.08.215,comp,2024.2.4,62.91783172724982,2025-03-06 14h44.19.309992 -0500,
6,6,0,critical,whd,20.0,3.0,upper,125.0,200.0,200.0,125.0,141.0,141.0,1,4.81709623336792,None,,,,,0,0,0,0,0,6,6,93,254.82991075515747,,,,,,,,,,,,,,,,,,,,,,,,,,,,,,,,,,,,,,,,,,,,,,,,,,,,,,,,,,,,,,,,,,,,,,,,,,,,,,,,,125.0,200.0,200.0,125.0,141.0,141.0,3.0,3.2,-258,-251,0,3,229,257,254.81553268432617,254.81557393074036,254.81788849830627,254.82991075515747,254.98017024993896,254.98017024993896,254.98017024993896,254.98017024993896,254.98017024993896,254.98017024993896,254.98017024993896,259.6483643054962,1,4.81709623336792,None,,,,,,,,,,,,,,,,,,203,3,2025-03-06_14h44.08.215,comp,2024.2.4,62.91783172724982,2025-03-06 14h44.19.309992 -0500,
7,7,0,critical,dwh,35.0,1.0,upper,127.0,127.0,125.0,200.0,200.0,125.0,3,4.750253438949585,None,,,,,0,0,0,0,0,7,7,61,259.6634294986725,,,,,,,,,,,,,,,,,,,,,,,,,,,,,,,,,,,,,,,,,,,,,,,,,,,,,,,,,,,,,,,,,,,,,,,,,,,,,,,,,127.0,127.0,125.0,200.0,200.0,125.0,1.0,1.3,220,-261,480,-272,738,-288,259.6491491794586,259.6491916179657,259.651260137558,259.6634294986725,259.813499212265,259.813499212265,259.813499212265,259.813499212265,259.813499212265,259.813499212265,259.813499212265,264.4311742782593,3,4.750253438949585,None,,,,,,,,,,,,,,,,,,203,3,2025-03-06_14h44.08.215,comp,2024.2.4,62.91783172724982,2025-03-06 14h44.19.309992 -0500,
8,8,0,critical,wdh,20.0,4.0,lower,57.0,133.0,78.0,78.0,133.0,57.0,3,12.870209693908691,None,,,,,0,0,0,0,0,8,8,82,264.4463257789612,,,,,,,,,,,,,,,,,,,,,,,,,,,,,,,,,,,,,,,,,,,,,,,,,,,,,,,,,,,,,,,,,,,,,,,,,,,,,,,,,57.0,133.0,78.0,78.0,133.0,57.0,4.0,4.2,-202,-12,0,-285,164,-13,264.43198680877686,264.43202805519104,264.4344642162323,264.4463257789612,264.59662914276123,264.59662914276123,264.59662914276123,264.59662914276123,264.59662914276123,264.59662914276123,264.59662914276123,277.3308696746826,3,12.870209693908691,None,,,,,,,,,,,,,,,,,,203,3,2025-03-06_14h44.08.215,comp,2024.2.4,62.91783172724982,2025-03-06 14h44.19.309992 -0500,
9,9,0,critical,whd,35.0,3.0,lower,57.0,133.0,133.0,57.0,70.0,70.0,2,6.771103382110596,None,,,,,0,0,0,0,0,9,9,86,277.34631299972534,,,,,,,,,,,,,,,,,,,,,,,,,,,,,,,,,,,,,,,,,,,,,,,,,,,,,,,,,,,,,,,,,,,,,,,,,,,,,,,,,57.0,133.0,133.0,57.0,70.0,70.0,3.0,3.1,-191,263,0,-6,160,-267,277.3316717147827,277.33171367645264,277.33421444892883,277.34631299972534,277.49643206596375,277.49643206596375,277.49643206596375,277.49643206596375,277.49643206596375,277.49643206596375,277.49643206596375,284.1311876773834,2,6.771103382110596,None,,,,,,,,,,,,,,,,,,203,3,2025-03-06_14h44.08.215,comp,2024.2.4,62.91783172724982,2025-03-06 14h44.19.309992 -0500,
10,10,0,critical,wdh,35.0,4.0,lower,57.0,133.0,70.0,70.0,133.0,57.0,3,4.794719219207764,None,,,,,0,0,0,0,0,10,10,76,284.14639163017273,,,,,,,,,,,,,,,,,,,,,,,,,,,,,,,,,,,,,,,,,,,,,,,,,,,,,,,,,,,,,,,,,,,,,,,,,,,,,,,,,57.0,133.0,70.0,70.0,133.0,57.0,4.0,4.1,-198,-253,0,-14,160,-266,284.1320059299469,284.1320466995239,284.1344678401947,284.14639163017273,284.29638171195984,284.29638171195984,284.29638171195984,284.29638171195984,284.29638171195984,284.29638171195984,284.29638171195984,288.9475965499878,3,4.794719219207764,None,,,,,,,,,,,,,,,,,,203,3,2025-03-06_14h44.08.215,comp,2024.2.4,62.91783172724982,2025-03-06 14h44.19.309992 -0500,
11,11,0,filler_random,None,None,None,None,None,None,None,None,None,None,1,1.8978493213653564,None,,,,,0,0,0,0,0,11,11,132,288.9632570743561,,,,,,,,,,,,,,,,,,,,,,,,,,,,,,,,,,,,,,,,,,,,,,,,,,,,,,,,,,,,,,,,,,,,,,,,,,,,,,,,,135.069845140435,163.0081663033199,59.599426243367134,93.54277315205624,77.07486282796204,139.183011993743,1.0,1.2,-224,1,0,18,212,5,288.9485332965851,288.9485776424408,288.95092582702637,288.9632570743561,289.1131241321564,289.1131241321564,289.1131241321564,289.1131241321564,289.1131241321564,289.1131241321564,289.1131241321564,290.8669636249542,1,1.8978493213653564,None,,,,,,,,,,,,,,,,,,203,3,2025-03-06_14h44.08.215,comp,2024.2.4,62.91783172724982,2025-03-06 14h44.19.309992 -0500,
12,12,0,filler_random,None,None,None,None,None,None,None,None,None,None,2,2.4756062030792236,None,,,,,0,0,0,0,0,12,12,130,290.88150453567505,,,,,,,,,,,,,,,,,,,,,,,,,,,,,,,,,,,,,,,,,,,,,,,,,,,,,,,,,,,,,,,,,,,,,,,,,,,,,,,,,102.74986060794498,113.05259279525688,198.3847903535451,118.89924103453436,135.98623167518355,130.72361548536125,3.0,3.1,-212,253,0,-16,221,-262,290.8678982257843,290.8679406642914,290.86985206604004,290.88150453567505,291.03038716316223,291.03038716316223,291.03038716316223,291.03038716316223,291.03038716316223,291.03038716316223,291.03038716316223,293.3642373085022,2,2.4756062030792236,None,,,,,,,,,,,,,,,,,,203,3,2025-03-06_14h44.08.215,comp,2024.2.4,62.91783172724982,2025-03-06 14h44.19.309992 -0500,
13,13,0,filler_square,None,None,None,None,None,None,None,None,None,None,2,3.2005207538604736,None,,,,,0,0,0,0,0,13,13,179,293.3798108100891,,,,,,,,,,,,,,,,,,,,,,,,,,,,,,,,,,,,,,,,,,,,,,,,,,,,,,,,,,,,,,,,,,,,,,,,,,,,,,,,,156.35642724245116,84.70225383675707,169.59226078107662,169.59226078107662,112.28904721280722,131.1234484876586,1.0,1.3,257,-287,480,-274,726,-272,293.3652036190033,293.3652455806732,293.3674702644348,293.3798108100891,293.52983355522156,293.52983355522156,293.52983355522156,293.52983355522156,293.52983355522156,293.52983355522156,293.52983355522156,296.59764885902405,2,3.2005207538604736,None,,,,,,,,,,,,,,,,,,203,3,2025-03-06_14h44.08.215,comp,2024.2.4,62.91783172724982,2025-03-06 14h44.19.309992 -0500,
14,14,0,critical,hdw,35.0,3.0,lower,133.0,57.0,70.0,70.0,57.0,133.0,1,5.103474140167236,None,,,,,0,0,0,0,0,14,14,110,296.6128692626953,,,,,,,,,,,,,,,,,,,,,,,,,,,,,,,,,,,,,,,,,,,,,,,,,,,,,,,,,,,,,,,,,,,,,,,,,,,,,,,,,133.0,57.0,70.0,70.0,57.0,133.0,3.0,3.1,-160,268,0,6,198,-265,296.5984432697296,296.5984835624695,296.6007945537567,296.6128692626953,296.76304173469543,296.76304173469543,296.76304173469543,296.76304173469543,296.76304173469543,296.76304173469543,296.76304173469543,301.7307252883911,1,5.103474140167236,None,,,,,,,,,,,,,,,,,,203,3,2025-03-06_14h44.08.215,comp,2024.2.4,62.91783172724982,2025-03-06 14h44.19.309992 -0500,
15,15,0,critical,wdh,35.0,1.0,upper,125.0,200.0,127.0,127.0,200.0,125.0,1,2.386054754257202,None,,,,,0,0,0,0,0,15,15,73,301.7461349964142,,,,,,,,,,,,,,,,,,,,,,,,,,,,,,,,,,,,,,,,,,,,,,,,,,,,,,,,,,,,,,,,,,,,,,,,,,,,,,,,,125.0,200.0,127.0,127.0,200.0,125.0,1.0,1.1,-740,253,-480,266,-258,280,301.73154950141907,301.731591463089,301.7339656352997,301.7461349964142,301.8967432975769,301.8967432975769,301.8967432975769,301.8967432975769,301.8967432975769,301.8967432975769,301.8967432975769,304.14764165878296,1,2.386054754257202,None,,,,,,,,,,,,,,,,,,203,3,2025-03-06_14h44.08.215,comp,2024.2.4,62.91783172724982,2025-03-06 14h44.19.309992 -0500,
16,16,0,critical,dwh,20.0,2.1,upper,141.0,141.0,125.0,200.0,200.0,125.0,3,3.2340476512908936,None,,,,,0,0,0,0,0,16,16,31,304.16283321380615,,,,,,,,,,,,,,,,,,,,,,,,,,,,,,,,,,,,,,,,,,,,,,,,,,,,,,,,,,,,,,,,,,,,,,,,,,,,,,,,,141.0,141.0,125.0,200.0,200.0,125.0,2.1,2.11,-266,253,0,288,258,-289,304.14842891693115,304.14846873283386,304.1508059501648,304.16283321380615,304.3131642341614,304.3131642341614,304.3131642341614,304.3131642341614,304.3131642341614,304.3131642341614,304.3131642341614,307.39807295799255,3,3.2340476512908936,None,,,,,,,,,,,,,,,,,,203,3,2025-03-06_14h44.08.215,comp,2024.2.4,62.91783172724982,2025-03-06 14h44.19.309992 -0500,
17,17,0,critical,dhw,20.0,4.0,lower,78.0,78.0,133.0,57.0,57.0,133.0,2,6.616737365722656,None,,,,,0,0,0,0,0,17,17,58,307.4131007194519,,,,,,,,,,,,,,,,,,,,,,,,,,,,,,,,,,,,,,,,,,,,,,,,,,,,,,,,,,,,,,,,,,,,,,,,,,,,,,,,,78.0,78.0,133.0,57.0,57.0,133.0,4.0,4.1,-164,-265,0,-3,191,-284,307.39887595176697,307.39891743659973,307.40162658691406,307.4131007194519,307.56286573410034,307.56286573410034,307.56286573410034,307.56286573410034,307.56286573410034,307.56286573410034,307.56286573410034,314.0473201274872,2,6.616737365722656,None,,,,,,,,,,,,,,,,,,203,3,2025-03-06_14h44.08.215,comp,2024.2.4,62.91783172724982,2025-03-06 14h44.19.309992 -0500,
18,18,0,critical,whd,20.0,4.0,lower,57.0,133.0,133.0,57.0,78.0,78.0,1,4.710252285003662,None,,,,,0,0,0,0,0,18,18,94,314.06267857551575,,,,,,,,,,,,,,,,,,,,,,,,,,,,,,,,,,,,,,,,,,,,,,,,,,,,,,,,,,,,,,,,,,,,,,,,,,,,,,,,,57.0,133.0,133.0,57.0,78.0,78.0,4.0,4.1,-191,-260,0,-14,164,-285,314.04812455177307,314.0481650829315,314.05136728286743,314.06267857551575,314.2128462791443,314.2128462791443,314.2128462791443,314.2128462791443,314.2128462791443,314.2128462791443,314.2128462791443,318.78058075904846,1,4.710252285003662,None,,,,,,,,,,,,,,,,,,203,3,2025-03-06_14h44.08.215,comp,2024.2.4,62.91783172724982,2025-03-06 14h44.19.309992 -0500,
19,19,0,filler_square,None,None,None,None,None,None,None,None,None,None,2,2.055619955062866,None,,,,,0,0,0,0,0,19,19,172,318.79633116722107,,,,,,,,,,,,,,,,,,,,,,,,,,,,,,,,,,,,,,,,,,,,,,,,,,,,,,,,,,,,,,,,,,,,,,,,,,,,,,,,,61.61974919082449,112.69435553899584,127.59326878253533,127.59326878253533,57.40455369858382,76.93531403868242,2.1,2.12,-216,-258,0,-254,198,285,318.7815408706665,318.781583070755,318.78388237953186,318.79633116722107,318.9463219642639,318.9463219642639,318.9463219642639,318.9463219642639,318.9463219642639,318.9463219642639,318.9463219642639,320.8642466068268,2,2.055619955062866,None,,,,,,,,,,,,,,,,,,203,3,2025-03-06_14h44.08.215,comp,2024.2.4,62.91783172724982,2025-03-06 14h44.19.309992 -0500,
20,20,0,filler_square,None,None,None,None,None,None,None,None,None,None,2,2.8846688270568848,None,,,,,0,0,0,0,0,20,20,178,320.87939286231995,,,,,,,,,,,,,,,,,,,,,,,,,,,,,,,,,,,,,,,,,,,,,,,,,,,,,,,,,,,,,,,,,,,,,,,,,,,,,,,,,159.08968331984096,151.83353038237294,175.52520958276364,175.52520958276364,107.53196000652255,97.44589634719338,3.0,3.2,-260,-262,0,15,232,273,320.86519384384155,320.86523628234863,320.8676972389221,320.87939286231995,321.02976417541504,321.02976417541504,321.02976417541504,321.02976417541504,321.02976417541504,321.02976417541504,321.02976417541504,323.7808244228363,2,2.8846688270568848,None,,,,,,,,,,,,,,,,,,203,3,2025-03-06_14h44.08.215,comp,2024.2.4,62.91783172724982,2025-03-06 14h44.19.309992 -0500,
21,21,0,critical,wdh,35.0,2.1,upper,125.0,200.0,127.0,127.0,200.0,125.0,3,16.850380897521973,None,,,,,0,0,0,0,0,21,21,9,323.7960708141327,,,,,,,,,,,,,,,,,,,,,,,,,,,,,,,,,,,,,,,,,,,,,,,,,,,,,,,,,,,,,,,,,,,,,,,,,,,,,,,,,125.0,200.0,127.0,127.0,200.0,125.0,2.1,2.11,-260,271,0,281,222,-258,323.78163051605225,323.78167152404785,323.78397154808044,323.7960708141327,323.9464056491852,323.9464056491852,323.9464056491852,323.9464056491852,323.9464056491852,323.9464056491852,323.9464056491852,340.6643326282501,3,16.850380897521973,None,,,,,,,,,,,,,,,,,,203,3,2025-03-06_14h44.08.215,comp,2024.2.4,62.91783172724982,2025-03-06 14h44.19.309992 -0500,
22,22,0,filler_square,None,None,None,None,None,None,None,None,None,None,2,5.509457588195801,None,,,,,0,0,0,0,0,22,22,209,340.679239988327,,,,,,,,,,,,,,,,,,,,,,,,,,,,,,,,,,,,,,,,,,,,,,,,,,,,,,,,,,,,,,,,,,,,,,,,,,,,,,,,,65.94067980991908,75.40184300638647,75.73698193725932,75.73698193725932,68.72226311256806,70.25974065302951,3.0,3.1,-172,282,0,20,169,-270,340.66538405418396,340.6654255390167,340.6679263114929,340.679239988327,340.8292498588562,340.8292498588562,340.8292498588562,340.8292498588562,340.8292498588562,340.8292498588562,340.8292498588562,346.19705152511597,2,5.509457588195801,None,,,,,,,,,,,,,,,,,,203,3,2025-03-06_14h44.08.215,comp,2024.2.4,62.91783172724982,2025-03-06 14h44.19.309992 -0500,
23,23,0,critical,dhw,20.0,2.1,lower,78.0,78.0,133.0,57.0,57.0,133.0,3,12.400076627731323,None,,,,,0,0,0,0,0,23,23,2,346.21280813217163,,,,,,,,,,,,,,,,,,,,,,,,,,,,,,,,,,,,,,,,,,,,,,,,,,,,,,,,,,,,,,,,,,,,,,,,,,,,,,,,,78.0,78.0,133.0,57.0,57.0,133.0,2.1,2.11,-164,253,0,258,191,-254,346.197851896286,346.1978943347931,346.19983077049255,346.21280813217163,346.3626899719238,346.3626899719238,346.3626899719238,346.3626899719238,346.3626899719238,346.3626899719238,346.3626899719238,358.63047432899475,3,12.400076627731323,None,,,,,,,,,,,,,,,,,,203,3,2025-03-06_14h44.08.215,comp,2024.2.4,62.91783172724982,2025-03-06 14h44.19.309992 -0500,
24,24,0,critical,hdw,20.0,2.1,upper,200.0,125.0,141.0,141.0,125.0,200.0,3,11.710726737976074,None,,,,,0,0,0,0,0,24,24,47,358.64584708213806,,,,,,,,,,,,,,,,,,,,,,,,,,,,,,,,,,,,,,,,,,,,,,,,,,,,,,,,,,,,,,,,,,,,,,,,,,,,,,,,,200.0,125.0,141.0,141.0,125.0,200.0,2.1,2.11,-229,284,0,259,266,-288,358.6314444541931,358.63148641586304,358.6337625980377,358.64584708213806,358.79626297950745,358.79626297950745,358.79626297950745,358.79626297950745,358.79626297950745,358.79626297950745,358.79626297950745,370.3637719154358,3,11.710726737976074,None,,,,,,,,,,,,,,,,,,203,3,2025-03-06_14h44.08.215,comp,2024.2.4,62.91783172724982,2025-03-06 14h44.19.309992 -0500,
25,25,0,filler_square,None,None,None,None,None,None,None,None,None,None,3,1.5932157039642334,None,,,,,0,0,0,0,0,25,25,183,370.3793091773987,,,,,,,,,,,,,,,,,,,,,,,,,,,,,,,,,,,,,,,,,,,,,,,,,,,,,,,,,,,,,,,,,,,,,,,,,,,,,,,,,93.81291709297548,72.1674769565261,138.0728597529079,92.89220876755653,171.97234471337518,171.97234471337518,2.2,2.21,-179,-265,0,278,228,279,370.3647475242615,370.3647904396057,370.3672194480896,370.3793091773987,370.5294144153595,370.5294144153595,370.5294144153595,370.5294144153595,370.5294144153595,370.5294144153595,370.5294144153595,371.9803674221039,3,1.5932157039642334,None,,,,,,,,,,,,,,,,,,203,3,2025-03-06_14h44.08.215,comp,2024.2.4,62.91783172724982,2025-03-06 14h44.19.309992 -0500,
26,26,0,filler_random,None,None,None,None,None,None,None,None,None,None,2,1.7045586109161377,None,,,,,0,0,0,0,0,26,26,149,371.9959216117859,,,,,,,,,,,,,,,,,,,,,,,,,,,,,,,,,,,,,,,,,,,,,,,,,,,,,,,,,,,,,,,,,,,,,,,,,,,,,,,,,61.41934679605046,135.98819360884556,185.70370226190755,166.72694869726124,93.34091374340363,186.5672000517881,4.0,4.2,-247,-3,0,-257,273,18,371.9812469482422,371.98128724098206,371.983434677124,371.9959216117859,372.1460950374603,372.1460950374603,372.1460950374603,372.1460950374603,372.1460950374603,372.1460950374603,372.1460950374603,373.7137951850891,2,1.7045586109161377,None,,,,,,,,,,,,,,,,,,203,3,2025-03-06_14h44.08.215,comp,2024.2.4,62.91783172724982,2025-03-06 14h44.19.309992 -0500,
27,27,0,filler_random,None,None,None,None,None,None,None,None,None,None,1,2.88399338722229,None,,,,,0,0,0,0,0,27,27,156,373.72900104522705,,,,,,,,,,,,,,,,,,,,,,,,,,,,,,,,,,,,,,,,,,,,,,,,,,,,,,,,,,,,,,,,,,,,,,,,,,,,,,,,,148.93520973809802,192.15530675840643,199.80663071682713,137.36327211607772,164.32083836749564,77.45666468644308,1.0,1.3,219,-262,480,-257,683,-273,373.7146773338318,373.7147181034088,373.71700263023376,373.72900104522705,373.8793399333954,373.8793399333954,373.8793399333954,373.8793399333954,373.8793399333954,373.8793399333954,373.8793399333954,376.6305150985718,1,2.88399338722229,None,,,,,,,,,,,,,,,,,,203,3,2025-03-06_14h44.08.215,comp,2024.2.4,62.91783172724982,2025-03-06 14h44.19.309992 -0500,
28,28,0,filler_random,None,None,None,None,None,None,None,None,None,None,3,2.117913007736206,None,,,,,0,0,0,0,0,28,28,161,376.6458480358124,,,,,,,,,,,,,,,,,,,,,,,,,,,,,,,,,,,,,,,,,,,,,,,,,,,,,,,,,,,,,,,,,,,,,,,,,,,,,,,,,139.95333389945273,70.68840854328884,187.71156003229675,117.76764868189304,164.64193496289244,123.1786127036127,2.1,2.12,-190,-254,0,-253,216,274,376.63144969940186,376.63149213790894,376.633504152298,376.6458480358124,376.79591727256775,376.79591727256775,376.79591727256775,376.79591727256775,376.79591727256775,376.79591727256775,376.79591727256775,378.7803921699524,3,2.117913007736206,None,,,,,,,,,,,,,,,,,,203,3,2025-03-06_14h44.08.215,comp,2024.2.4,62.91783172724982,2025-03-06 14h44.19.309992 -0500,
29,29,0,critical,whd,20.0,2.1,lower,57.0,133.0,133.0,57.0,78.0,78.0,2,3.6411454677581787,None,,,,,0,0,0,0,0,29,29,14,378.7956826686859,,,,,,,,,,,,,,,,,,,,,,,,,,,,,,,,,,,,,,,,,,,,,,,,,,,,,,,,,,,,,,,,,,,,,,,,,,,,,,,,,57.0,133.0,133.0,57.0,78.0,78.0,2.1,2.12,-191,-280,0,-280,164,266,378.78128004074097,378.7813220024109,378.784499168396,378.7956826686859,378.9457049369812,378.9457049369812,378.9457049369812,378.9457049369812,378.9457049369812,378.9457049369812,378.9457049369812,382.44681310653687,2,3.6411454677581787,None,,,,,,,,,,,,,,,,,,203,3,2025-03-06_14h44.08.215,comp,2024.2.4,62.91783172724982,2025-03-06 14h44.19.309992 -0500,
30,30,0,filler_square,None,None,None,None,None,None,None,None,None,None,1,1.6533119678497314,None,,,,,0,0,0,0,0,30,30,195,382.4624888896942,,,,,,,,,,,,,,,,,,,,,,,,,,,,,,,,,,,,,,,,,,,,,,,,,,,,,,,,,,,,,,,,,,,,,,,,,,,,,,,,,68.15662212422336,68.15662212422336,67.48403435092165,57.440401741132554,64.34621522403316,57.313191851913516,1.0,1.1,-639,266,-480,254,-327,257,382.4477548599243,382.44779777526855,382.4501762390137,382.4624888896942,382.6123378276825,382.6123378276825,382.6123378276825,382.6123378276825,382.6123378276825,382.6123378276825,382.6123378276825,384.1301107406616,1,1.6533119678497314,None,,,,,,,,,,,,,,,,,,203,3,2025-03-06_14h44.08.215,comp,2024.2.4,62.91783172724982,2025-03-06 14h44.19.309992 -0500,
31,31,0,filler_random,None,None,None,None,None,None,None,None,None,None,2,1.9059362411499023,None,,,,,0,0,0,0,0,31,31,135,384.145631313324,,,,,,,,,,,,,,,,,,,,,,,,,,,,,,,,,,,,,,,,,,,,,,,,,,,,,,,,,,,,,,,,,,,,,,,,,,,,,,,,,106.5449830485133,67.34425054001602,175.31656585339883,108.20849488820858,68.10542603938075,180.66229479936305,4.0,4.2,-184,5,0,-268,240,10,384.1310136318207,384.1310541629791,384.13355445861816,384.145631313324,384.2958073616028,384.2958073616028,384.2958073616028,384.2958073616028,384.2958073616028,384.2958073616028,384.2958073616028,386.0639204978943,2,1.9059362411499023,None,,,,,,,,,,,,,,,,,,203,3,2025-03-06_14h44.08.215,comp,2024.2.4,62.91783172724982,2025-03-06 14h44.19.309992 -0500,
32,32,0,filler_random,None,None,None,None,None,None,None,None,None,None,2,1.3676660060882568,None,,,,,0,0,0,0,0,32,32,144,386.0789649486542,,,,,,,,,,,,,,,,,,,,,,,,,,,,,,,,,,,,,,,,,,,,,,,,,,,,,,,,,,,,,,,,,,,,,,,,,,,,,,,,,109.75361364456339,106.81124779487689,168.6353431152196,187.92817818601813,99.88329064653618,102.59351161234996,1.0,1.3,237,-269,480,-277,721,-272,386.06511306762695,386.0651569366455,386.06752490997314,386.0789649486542,386.22924518585205,386.22924518585205,386.22924518585205,386.22924518585205,386.22924518585205,386.22924518585205,386.22924518585205,387.4479515552521,2,1.3676660060882568,None,,,,,,,,,,,,,,,,,,203,3,2025-03-06_14h44.08.215,comp,2024.2.4,62.91783172724982,2025-03-06 14h44.19.309992 -0500,
33,33,0,critical,hdw,35.0,1.0,upper,200.0,125.0,127.0,127.0,125.0,200.0,3,2.341527223587036,None,,,,,0,0,0,0,0,33,33,109,387.46305656433105,,,,,,,,,,,,,,,,,,,,,,,,,,,,,,,,,,,,,,,,,,,,,,,,,,,,,,,,,,,,,,,,,,,,,,,,,,,,,,,,,200.0,125.0,127.0,127.0,125.0,200.0,1.0,1.2,-222,-9,0,-15,260,-1,387.4487316608429,387.4487736225128,387.45066237449646,387.46305656433105,387.6134750843048,387.6134750843048,387.6134750843048,387.6134750843048,387.6134750843048,387.6134750843048,387.6134750843048,389.81409668922424,3,2.341527223587036,None,,,,,,,,,,,,,,,,,,203,3,2025-03-06_14h44.08.215,comp,2024.2.4,62.91783172724982,2025-03-06 14h44.19.309992 -0500,
34,34,0,filler_random,None,None,None,None,None,None,None,None,None,None,3,22.494953393936157,None,,,,,0,0,0,0,0,34,34,167,389.82928562164307,,,,,,,,,,,,,,,,,,,,,,,,,,,,,,,,,,,,,,,,,,,,,,,,,,,,,,,,,,,,,,,,,,,,,,,,,,,,,,,,,84.90546853662474,147.71503454672563,155.58459312750978,158.76013663175092,140.82065800397436,177.91987192523726,2.2,2.22,-249,262,0,-256,264,-281,389.81499004364014,389.81502962112427,389.8170428276062,389.82928562164307,389.97927379608154,389.97927379608154,389.97927379608154,389.97927379608154,389.97927379608154,389.97927379608154,389.97927379608154,412.3301589488983,3,22.494953393936157,None,,,,,,,,,,,,,,,,,,203,3,2025-03-06_14h44.08.215,comp,2024.2.4,62.91783172724982,2025-03-06 14h44.19.309992 -0500,
35,35,0,critical,dwh,35.0,4.0,upper,127.0,127.0,125.0,200.0,200.0,125.0,2,4.505718946456909,None,,,,,0,0,0,0,0,35,35,65,412.34567499160767,,,,,,,,,,,,,,,,,,,,,,,,,,,,,,,,,,,,,,,,,,,,,,,,,,,,,,,,,,,,,,,,,,,,,,,,,,,,,,,,,127.0,127.0,125.0,200.0,200.0,125.0,4.0,4.2,-260,10,0,-268,258,16,412.3309516906738,412.3309931755066,412.3333857059479,412.34567499160767,412.4957311153412,412.4957311153412,412.4957311153412,412.4957311153412,412.4957311153412,412.4957311153412,412.4957311153412,416.8636841773987,2,4.505718946456909,None,,,,,,,,,,,,,,,,,,203,3,2025-03-06_14h44.08.215,comp,2024.2.4,62.91783172724982,2025-03-06 14h44.19.309992 -0500,
36,36,0,filler_square,None,None,None,None,None,None,None,None,None,None,3,2.3716366291046143,None,,,,,0,0,0,0,0,36,36,188,416.8797118663788,,,,,,,,,,,,,,,,,,,,,,,,,,,,,,,,,,,,,,,,,,,,,,,,,,,,,,,,,,,,,,,,,,,,,,,,,,,,,,,,,61.49241364628655,61.54693307887805,104.94722755552309,98.242097575626,115.53367798953244,115.53367798953244,3.0,3.1,-176,260,0,9,203,-251,416.86463046073914,416.8646721839905,416.86671590805054,416.8797118663788,417.02877593040466,417.02877593040466,417.02877593040466,417.02877593040466,417.02877593040466,417.02877593040466,417.02877593040466,419.2638204097748,3,2.3716366291046143,None,,,,,,,,,,,,,,,,,,203,3,2025-03-06_14h44.08.215,comp,2024.2.4,62.91783172724982,2025-03-06 14h44.19.309992 -0500,
37,37,0,critical,dhw,20.0,2.1,upper,141.0,141.0,200.0,125.0,125.0,200.0,3,27.109325408935547,None,,,,,0,0,0,0,0,37,37,3,419.2787308692932,,,,,,,,,,,,,,,,,,,,,,,,,,,,,,,,,,,,,,,,,,,,,,,,,,,,,,,,,,,,,,,,,,,,,,,,,,,,,,,,,141.0,141.0,200.0,125.0,125.0,200.0,2.1,2.12,-229,-270,0,-269,258,272,419.26460003852844,419.26463985443115,419.26658368110657,419.2787308692932,419.4290039539337,419.4290039539337,419.4290039539337,419.4290039539337,419.4290039539337,419.4290039539337,419.4290039539337,446.39668321609497,3,27.109325408935547,None,,,,,,,,,,,,,,,,,,203,3,2025-03-06_14h44.08.215,comp,2024.2.4,62.91783172724982,2025-03-06 14h44.19.309992 -0500,
38,38,0,critical,dwh,35.0,3.0,lower,70.0,70.0,57.0,133.0,133.0,57.0,3,5.9835426807403564,None,,,,,0,0,0,0,0,38,38,62,446.412202835083,,,,,,,,,,,,,,,,,,,,,,,,,,,,,,,,,,,,,,,,,,,,,,,,,,,,,,,,,,,,,,,,,,,,,,,,,,,,,,,,,70.0,70.0,57.0,133.0,133.0,57.0,3.0,3.2,-198,-255,0,0,191,290,446.39761567115784,446.3976562023163,446.40013670921326,446.412202835083,446.5620038509369,446.5620038509369,446.5620038509369,446.5620038509369,446.5620038509369,446.5620038509369,446.5620038509369,452.41300559043884,3,5.9835426807403564,None,,,,,,,,,,,,,,,,,,203,3,2025-03-06_14h44.08.215,comp,2024.2.4,62.91783172724982,2025-03-06 14h44.19.309992 -0500,
39,39,0,critical,dhw,35.0,2.1,upper,127.0,127.0,200.0,125.0,125.0,200.0,3,3.984225273132324,None,,,,,0,0,0,0,0,39,39,1,452.42840218544006,,,,,,,,,,,,,,,,,,,,,,,,,,,,,,,,,,,,,,,,,,,,,,,,,,,,,,,,,,,,,,,,,,,,,,,,,,,,,,,,,127.0,127.0,200.0,125.0,125.0,200.0,2.1,2.12,-222,-284,0,-276,258,251,452.4138059616089,452.4138467311859,452.4157943725586,452.42840218544006,452.57880544662476,452.57880544662476,452.57880544662476,452.57880544662476,452.57880544662476,452.57880544662476,452.57880544662476,456.42988657951355,3,3.984225273132324,None,,,,,,,,,,,,,,,,,,203,3,2025-03-06_14h44.08.215,comp,2024.2.4,62.91783172724982,2025-03-06 14h44.19.309992 -0500,
40,40,0,critical,whd,35.0,2.1,upper,125.0,200.0,200.0,125.0,127.0,127.0,2,4.9508376121521,None,,,,,0,0,0,0,0,40,40,37,456.4451651573181,,,,,,,,,,,,,,,,,,,,,,,,,,,,,,,,,,,,,,,,,,,,,,,,,,,,,,,,,,,,,,,,,,,,,,,,,,,,,,,,,125.0,200.0,200.0,125.0,127.0,127.0,2.1,2.11,-258,271,0,254,222,-263,456.43071722984314,456.43076038360596,456.4331362247467,456.4451651573181,456.59544134140015,456.59544134140015,456.59544134140015,456.59544134140015,456.59544134140015,456.59544134140015,456.59544134140015,461.41325521469116,2,4.9508376121521,None,,,,,,,,,,,,,,,,,,203,3,2025-03-06_14h44.08.215,comp,2024.2.4,62.91783172724982,2025-03-06 14h44.19.309992 -0500,
41,41,0,filler_random,None,None,None,None,None,None,None,None,None,None,1,2.2647957801818848,None,,,,,0,0,0,0,0,41,41,137,461.4284677505493,,,,,,,,,,,,,,,,,,,,,,,,,,,,,,,,,,,,,,,,,,,,,,,,,,,,,,,,,,,,,,,,,,,,,,,,,,,,,,,,,108.07322473247766,173.9044915602646,90.83960016365408,72.39916935411043,187.93557664397497,60.637018654804265,3.0,3.2,-219,-284,0,-11,163,278,461.4141643047333,461.4142060279846,461.41663885116577,461.4284677505493,461.5785126686096,461.5785126686096,461.5785126686096,461.5785126686096,461.5785126686096,461.5785126686096,461.5785126686096,463.69638562202454,1,2.2647957801818848,None,,,,,,,,,,,,,,,,,,203,3,2025-03-06_14h44.08.215,comp,2024.2.4,62.91783172724982,2025-03-06 14h44.19.309992 -0500,
42,42,0,critical,hdw,20.0,1.0,lower,133.0,57.0,78.0,78.0,57.0,133.0,3,4.571190118789673,None,,,,,0,0,0,0,0,42,42,114,463.71198892593384,,,,,,,,,,,,,,,,,,,,,,,,,,,,,,,,,,,,,,,,,,,,,,,,,,,,,,,,,,,,,,,,,,,,,,,,,,,,,,,,,133.0,57.0,78.0,78.0,57.0,133.0,1.0,1.2,-164,5,0,6,202,9,463.6971483230591,463.6971890926361,463.6993598937988,463.71198892593384,463.8619394302368,463.8619394302368,463.8619394302368,463.8619394302368,463.8619394302368,463.8619394302368,463.8619394302368,468.29622054100037,3,4.571190118789673,None,,,,,,,,,,,,,,,,,,203,3,2025-03-06_14h44.08.215,comp,2024.2.4,62.91783172724982,2025-03-06 14h44.19.309992 -0500,
43,43,0,catch,None,None,None,None,None,None,None,None,None,None,1,1.6193187236785889,None,,,,,0,0,0,0,0,43,43,122,468.3116955757141,,,,,,,,,,,,,,,,,,,,,,,,,,,,,,,,,,,,,,,,,,,,,,,,,,,,,,,,,,,,,,,,,,,,,,,,,,,,,,,,,179,146,83,107,118,72,4.0,4.2,-222,14,0,-263,186,4,468.2972388267517,468.2972791194916,468.2997908592224,468.3116955757141,468.46186923980713,468.46186923980713,468.46186923980713,468.46186923980713,468.46186923980713,468.46186923980713,468.46186923980713,469.94627380371094,1,1.6193187236785889,None,,,,,,,,,,,,,,,,,,203,3,2025-03-06_14h44.08.215,comp,2024.2.4,62.91783172724982,2025-03-06 14h44.19.309992 -0500,
44,44,0,critical,wdh,35.0,3.0,upper,125.0,200.0,127.0,127.0,200.0,125.0,1,4.426308870315552,None,,,,,0,0,0,0,0,44,44,75,469.96163392066956,,,,,,,,,,,,,,,,,,,,,,,,,,,,,,,,,,,,,,,,,,,,,,,,,,,,,,,,,,,,,,,,,,,,,,,,,,,,,,,,,125.0,200.0,127.0,127.0,200.0,125.0,3.0,3.2,-260,-282,0,-11,222,279,469.9470446109772,469.9470841884613,469.94894909858704,469.96163392066956,470.11202573776245,470.11202573776245,470.11202573776245,470.11202573776245,470.11202573776245,470.11202573776245,470.11202573776245,474.3965742588043,1,4.426308870315552,None,,,,,,,,,,,,,,,,,,203,3,2025-03-06_14h44.08.215,comp,2024.2.4,62.91783172724982,2025-03-06 14h44.19.309992 -0500,
45,45,0,filler_random,None,None,None,None,None,None,None,None,None,None,3,24.550894260406494,None,,,,,0,0,0,0,0,45,45,157,474.4119861125946,,,,,,,,,,,,,,,,,,,,,,,,,,,,,,,,,,,,,,,,,,,,,,,,,,,,,,,,,,,,,,,,,,,,,,,,,,,,,,,,,175.01732801294926,104.73985382707764,120.52184641626181,84.93049734623739,139.64625278945897,130.52986343238607,3.0,3.1,-191,272,0,-6,204,-255,474.3974463939667,474.3974869251251,474.40067625045776,474.4119861125946,474.56190037727356,474.56190037727356,474.56190037727356,474.56190037727356,474.56190037727356,474.56190037727356,474.56190037727356,498.9795026779175,3,24.550894260406494,None,,,,,,,,,,,,,,,,,,203,3,2025-03-06_14h44.08.215,comp,2024.2.4,62.91783172724982,2025-03-06 14h44.19.309992 -0500,
46,46,0,critical,wdh,20.0,2.1,lower,57.0,133.0,78.0,78.0,133.0,57.0,3,5.655927896499634,None,,,,,0,0,0,0,0,46,46,10,498.99484372138977,,,,,,,,,,,,,,,,,,,,,,,,,,,,,,,,,,,,,,,,,,,,,,,,,,,,,,,,,,,,,,,,,,,,,,,,,,,,,,,,,57.0,133.0,78.0,78.0,133.0,57.0,2.1,2.11,-202,265,0,280,164,-269,498.9802875518799,498.9803292751312,498.9832036495209,498.99484372138977,499.1451344490051,499.1451344490051,499.1451344490051,499.1451344490051,499.1451344490051,499.1451344490051,499.1451344490051,504.6627917289734,3,5.655927896499634,None,,,,,,,,,,,,,,,,,,203,3,2025-03-06_14h44.08.215,comp,2024.2.4,62.91783172724982,2025-03-06 14h44.19.309992 -0500,
47,47,0,critical,wdh,35.0,2.1,upper,125.0,200.0,127.0,127.0,200.0,125.0,1,2.4144582748413086,None,,,,,0,0,0,0,0,47,47,33,504.67811942100525,,,,,,,,,,,,,,,,,,,,,,,,,,,,,,,,,,,,,,,,,,,,,,,,,,,,,,,,,,,,,,,,,,,,,,,,,,,,,,,,,125.0,200.0,127.0,127.0,200.0,125.0,2.1,2.12,-260,-262,0,-279,222,275,504.6635911464691,504.6636321544647,504.6659982204437,504.67811942100525,504.8284602165222,504.8284602165222,504.8284602165222,504.8284602165222,504.8284602165222,504.8284602165222,504.8284602165222,507.09633445739746,1,2.4144582748413086,None,,,,,,,,,,,,,,,,,,203,3,2025-03-06_14h44.08.215,comp,2024.2.4,62.91783172724982,2025-03-06 14h44.19.309992 -0500,
48,48,0,filler_square,None,None,None,None,None,None,None,None,None,None,2,2.6438207626342773,None,,,,,0,0,0,0,0,48,48,196,507.1117413043976,,,,,,,,,,,,,,,,,,,,,,,,,,,,,,,,,,,,,,,,,,,,,,,,,,,,,,,,,,,,,,,,,,,,,,,,,,,,,,,,,85.28775331858799,97.41841372466862,113.02948800513579,113.02948800513579,72.07837554279291,57.375946178781234,2.1,2.12,-201,-286,0,-283,181,269,507.0972740650177,507.0973153114319,507.0993707180023,507.1117413043976,507.2615613937378,507.2615613937378,507.2615613937378,507.2615613937378,507.2615613937378,507.2615613937378,507.2615613937378,509.762615442276,2,2.6438207626342773,None,,,,,,,,,,,,,,,,,,203,3,2025-03-06_14h44.08.215,comp,2024.2.4,62.91783172724982,2025-03-06 14h44.19.309992 -0500,
49,49,0,critical,hwd,20.0,2.1,upper,200.0,125.0,125.0,200.0,141.0,141.0,1,11.01728630065918,None,,,,,0,0,0,0,0,49,49,19,509.7782759666443,,,,,,,,,,,,,,,,,,,,,,,,,,,,,,,,,,,,,,,,,,,,,,,,,,,,,,,,,,,,,,,,,,,,,,,,,,,,,,,,,200.0,125.0,125.0,200.0,141.0,141.0,2.1,2.11,-258,253,0,257,266,-278,509.76343274116516,509.7634742259979,509.76574993133545,509.7782759666443,509.9283001422882,509.9283001422882,509.9283001422882,509.9283001422882,509.9283001422882,509.9283001422882,509.9283001422882,520.8128342628479,1,11.01728630065918,None,,,,,,,,,,,,,,,,,,203,3,2025-03-06_14h44.08.215,comp,2024.2.4,62.91783172724982,2025-03-06 14h44.19.309992 -0500,
50,50,0,filler_random,None,None,None,None,None,None,None,None,None,None,1,1.608091115951538,None,,,,,0,0,0,0,0,50,50,148,520.8280594348907,,,,,,,,,,,,,,,,,,,,,,,,,,,,,,,,,,,,,,,,,,,,,,,,,,,,,,,,,,,,,,,,,,,,,,,,,,,,,,,,,193.17732122540644,186.5577216447543,122.83919570665158,148.70793782867008,193.59102696209462,111.17483689236451,2.1,2.11,-264,282,0,257,226,-253,520.8137409687042,520.8137829303741,520.8160629272461,520.8280594348907,520.978257894516,520.978257894516,520.978257894516,520.978257894516,520.978257894516,520.978257894516,520.978257894516,522.4468321800232,1,1.608091115951538,None,,,,,,,,,,,,,,,,,,203,3,2025-03-06_14h44.08.215,comp,2024.2.4,62.91783172724982,2025-03-06 14h44.19.309992 -0500,
51,51,0,critical,whd,35.0,2.1,upper,125.0,200.0,200.0,125.0,127.0,127.0,2,12.884589672088623,None,,,,,0,0,0,0,0,51,51,13,522.4619977474213,,,,,,,,,,,,,,,,,,,,,,,,,,,,,,,,,,,,,,,,,,,,,,,,,,,,,,,,,,,,,,,,,,,,,,,,,,,,,,,,,125.0,200.0,200.0,125.0,127.0,127.0,2.1,2.11,-258,281,0,253,222,-259,522.4478194713593,522.4478614330292,522.449816942215,522.4619977474213,522.6122946739197,522.6122946739197,522.6122946739197,522.6122946739197,522.6122946739197,522.6122946739197,522.6122946739197,535.3627154827118,2,12.884589672088623,None,,,,,,,,,,,,,,,,,,203,3,2025-03-06_14h44.08.215,comp,2024.2.4,62.91783172724982,2025-03-06 14h44.19.309992 -0500,
52,52,0,catch,None,None,None,None,None,None,None,None,None,None,1,1.625655174255371,None,,,,,0,0,0,0,0,52,52,129,535.3778071403503,,,,,,,,,,,,,,,,,,,,,,,,,,,,,,,,,,,,,,,,,,,,,,,,,,,,,,,,,,,,,,,,,,,,,,,,,,,,,,,,,135,190,84,106,124,66,2.2,2.21,-244,-255,0,270,182,253,535.3637444972992,535.3637845516205,535.3660931587219,535.3778071403503,535.528088092804,535.528088092804,535.528088092804,535.528088092804,535.528088092804,535.528088092804,535.528088092804,537.012487411499,1,1.625655174255371,None,,,,,,,,,,,,,,,,,,203,3,2025-03-06_14h44.08.215,comp,2024.2.4,62.91783172724982,2025-03-06 14h44.19.309992 -0500,
53,53,0,critical,wdh,35.0,4.0,upper,125.0,200.0,127.0,127.0,200.0,125.0,3,4.6002724170684814,None,,,,,0,0,0,0,0,53,53,77,537.0280752182007,,,,,,,,,,,,,,,,,,,,,,,,,,,,,,,,,,,,,,,,,,,,,,,,,,,,,,,,,,,,,,,,,,,,,,,,,,,,,,,,,125.0,200.0,127.0,127.0,200.0,125.0,4.0,4.2,-260,-10,0,-261,222,4,537.0132822990417,537.0133233070374,537.0155591964722,537.0280752182007,537.1781814098358,537.1781814098358,537.1781814098358,537.1781814098358,537.1781814098358,537.1781814098358,537.1781814098358,541.6460480690002,3,4.6002724170684814,None,,,,,,,,,,,,,,,,,,203,3,2025-03-06_14h44.08.215,comp,2024.2.4,62.91783172724982,2025-03-06 14h44.19.309992 -0500,
54,54,0,critical,dhw,20.0,4.0,upper,141.0,141.0,200.0,125.0,125.0,200.0,3,4.950560569763184,None,,,,,0,0,0,0,0,54,54,59,541.6612074375153,,,,,,,,,,,,,,,,,,,,,,,,,,,,,,,,,,,,,,,,,,,,,,,,,,,,,,,,,,,,,,,,,,,,,,,,,,,,,,,,,141.0,141.0,200.0,125.0,125.0,200.0,4.0,4.1,-229,-266,0,-6,258,-287,541.6468529701233,541.6468946933746,541.6492450237274,541.6612074375153,541.8115553855896,541.8115553855896,541.8115553855896,541.8115553855896,541.8115553855896,541.8115553855896,541.8115553855896,546.6292479038239,3,4.950560569763184,None,,,,,,,,,,,,,,,,,,203,3,2025-03-06_14h44.08.215,comp,2024.2.4,62.91783172724982,2025-03-06 14h44.19.309992 -0500,
55,55,0,critical,hdw,35.0,3.0,upper,200.0,125.0,127.0,127.0,125.0,200.0,3,10.205724239349365,None,,,,,0,0,0,0,0,55,55,111,546.6446070671082,,,,,,,,,,,,,,,,,,,,,,,,,,,,,,,,,,,,,,,,,,,,,,,,,,,,,,,,,,,,,,,,,,,,,,,,,,,,,,,,,200.0,125.0,127.0,127.0,125.0,200.0,3.0,3.2,-222,-263,0,2,260,275,546.6300268173218,546.6300683021545,546.6320283412933,546.6446070671082,546.7947518825531,546.7947518825531,546.7947518825531,546.7947518825531,546.7947518825531,546.7947518825531,546.7947518825531,556.8628356456757,3,10.205724239349365,None,,,,,,,,,,,,,,,,,,203,3,2025-03-06_14h44.08.215,comp,2024.2.4,62.91783172724982,2025-03-06 14h44.19.309992 -0500,
56,56,0,filler_square,None,None,None,None,None,None,None,None,None,None,3,2.3502423763275146,None,,,,,0,0,0,0,0,56,56,202,556.8777148723602,,,,,,,,,,,,,,,,,,,,,,,,,,,,,,,,,,,,,,,,,,,,,,,,,,,,,,,,,,,,,,,,,,,,,,,,,,,,,,,,,59.22923633836885,80.98450619533727,66.81200718562503,80.0205295933186,84.95818832579116,84.95818832579116,2.2,2.21,-177,-263,0,269,178,256,556.8638107776642,556.8638529777527,556.8658788204193,556.8777148723602,557.0278072357178,557.0278072357178,557.0278072357178,557.0278072357178,557.0278072357178,557.0278072357178,557.0278072357178,559.2291598320007,3,2.3502423763275146,None,,,,,,,,,,,,,,,,,,203,3,2025-03-06_14h44.08.215,comp,2024.2.4,62.91783172724982,2025-03-06 14h44.19.309992 -0500,
57,57,0,critical,dwh,20.0,2.1,upper,141.0,141.0,125.0,200.0,200.0,125.0,3,2.742722988128662,None,,,,,0,0,0,0,0,57,57,7,559.2446637153625,,,,,,,,,,,,,,,,,,,,,,,,,,,,,,,,,,,,,,,,,,,,,,,,,,,,,,,,,,,,,,,,,,,,,,,,,,,,,,,,,141.0,141.0,125.0,200.0,200.0,125.0,2.1,2.12,-266,-262,0,-253,258,289,559.2299625873566,559.230003118515,559.2323698997498,559.2446637153625,559.3948180675507,559.3948180675507,559.3948180675507,559.3948180675507,559.3948180675507,559.3948180675507,559.3948180675507,561.9960534572601,3,2.742722988128662,None,,,,,,,,,,,,,,,,,,203,3,2025-03-06_14h44.08.215,comp,2024.2.4,62.91783172724982,2025-03-06 14h44.19.309992 -0500,
58,58,0,filler_square,None,None,None,None,None,None,None,None,None,None,1,9.207788228988647,None,,,,,0,0,0,0,0,58,58,192,562.0114381313324,,,,,,,,,,,,,,,,,,,,,,,,,,,,,,,,,,,,,,,,,,,,,,,,,,,,,,,,,,,,,,,,,,,,,,,,,,,,,,,,,87.32953283157562,87.32953283157562,77.7575286191117,78.220346571404,84.00005005446143,66.82799356429823,2.2,2.21,-179,-280,0,281,169,284,561.9970746040344,561.9971175193787,561.9996223449707,562.0114381313324,562.1610996723175,562.1610996723175,562.1610996723175,562.1610996723175,562.1610996723175,562.1610996723175,562.1610996723175,571.2288897037506,1,9.207788228988647,None,,,,,,,,,,,,,,,,,,203,3,2025-03-06_14h44.08.215,comp,2024.2.4,62.91783172724982,2025-03-06 14h44.19.309992 -0500,
59,59,0,critical,dhw,20.0,3.0,upper,141.0,141.0,200.0,125.0,125.0,200.0,2,4.205595016479492,None,,,,,0,0,0,0,0,59,59,57,571.244594335556,,,,,,,,,,,,,,,,,,,,,,,,,,,,,,,,,,,,,,,,,,,,,,,,,,,,,,,,,,,,,,,,,,,,,,,,,,,,,,,,,141.0,141.0,200.0,125.0,125.0,200.0,3.0,3.1,-229,263,0,15,258,-289,571.2296888828278,571.2297306060791,571.232057094574,571.244594335556,571.394638299942,571.394638299942,571.394638299942,571.394638299942,571.394638299942,571.394638299942,571.394638299942,575.462598323822,2,4.205595016479492,None,,,,,,,,,,,,,,,,,,203,3,2025-03-06_14h44.08.215,comp,2024.2.4,62.91783172724982,2025-03-06 14h44.19.309992 -0500,
60,60,0,critical,hwd,20.0,2.1,lower,133.0,57.0,57.0,133.0,78.0,78.0,1,3.6368658542633057,None,,,,,0,0,0,0,0,60,60,42,575.4775466918945,,,,,,,,,,,,,,,,,,,,,,,,,,,,,,,,,,,,,,,,,,,,,,,,,,,,,,,,,,,,,,,,,,,,,,,,,,,,,,,,,133.0,57.0,57.0,133.0,78.0,78.0,2.1,2.11,-191,258,0,272,202,-252,575.4634878635406,575.4635286331177,575.4656181335449,575.4775466918945,575.6276676654816,575.6276676654816,575.6276676654816,575.6276676654816,575.6276676654816,575.6276676654816,575.6276676654816,579.1288542747498,1,3.6368658542633057,None,,,,,,,,,,,,,,,,,,203,3,2025-03-06_14h44.08.215,comp,2024.2.4,62.91783172724982,2025-03-06 14h44.19.309992 -0500,
61,61,0,filler_random,None,None,None,None,None,None,None,None,None,None,1,1.6267292499542236,None,,,,,0,0,0,0,0,61,61,143,579.1443331241608,,,,,,,,,,,,,,,,,,,,,,,,,,,,,,,,,,,,,,,,,,,,,,,,,,,,,,,,,,,,,,,,,,,,,,,,,,,,,,,,,193.81797234105096,160.97603960081688,133.96983326479364,117.54466255840859,183.53673693830171,60.989979662180495,1.0,1.3,245,-263,480,-287,665,-281,579.1297414302826,579.1297824382782,579.132137298584,579.1443331241608,579.2945735454559,579.2945735454559,579.2945735454559,579.2945735454559,579.2945735454559,579.2945735454559,579.2945735454559,580.7789385318756,1,1.6267292499542236,None,,,,,,,,,,,,,,,,,,203,3,2025-03-06_14h44.08.215,comp,2024.2.4,62.91783172724982,2025-03-06 14h44.19.309992 -0500,
62,62,0,filler_random,None,None,None,None,None,None,None,None,None,None,3,2.4172823429107666,None,,,,,0,0,0,0,0,62,62,133,580.7945792675018,,,,,,,,,,,,,,,,,,,,,,,,,,,,,,,,,,,,,,,,,,,,,,,,,,,,,,,,,,,,,,,,,,,,,,,,,,,,,,,,,159.2799188824503,72.71660637888833,181.11359423166382,151.4224435172578,163.84303936686854,194.58087600544303,4.0,4.1,-208,-275,0,19,269,-270,580.7798416614532,580.7798824310303,580.7821869850159,580.7945792675018,580.9446313381195,580.9446313381195,580.9446313381195,580.9446313381195,580.9446313381195,580.9446313381195,580.9446313381195,583.2289929389954,3,2.4172823429107666,None,,,,,,,,,,,,,,,,,,203,3,2025-03-06_14h44.08.215,comp,2024.2.4,62.91783172724982,2025-03-06 14h44.19.309992 -0500,
63,63,0,filler_square,None,None,None,None,None,None,None,None,None,None,3,2.638244390487671,None,,,,,0,0,0,0,0,63,63,177,583.2442224025726,,,,,,,,,,,,,,,,,,,,,,,,,,,,,,,,,,,,,,,,,,,,,,,,,,,,,,,,,,,,,,,,,,,,,,,,,,,,,,,,,58.4588391426881,91.99998625474015,175.48075339364664,176.37813362476908,199.1829424946383,199.1829424946383,3.0,3.1,-230,263,0,-20,284,-254,583.2300479412079,583.2300894260406,583.2325778007507,583.2442224025726,583.3946576118469,583.3946576118469,583.3946576118469,583.3946576118469,583.3946576118469,583.3946576118469,583.3946576118469,585.8959813117981,3,2.638244390487671,None,,,,,,,,,,,,,,,,,,203,3,2025-03-06_14h44.08.215,comp,2024.2.4,62.91783172724982,2025-03-06 14h44.19.309992 -0500,
64,64,0,filler_square,None,None,None,None,None,None,None,None,None,None,2,1.5245897769927979,None,,,,,0,0,0,0,0,64,64,175,585.9109797477722,,,,,,,,,,,,,,,,,,,,,,,,,,,,,,,,,,,,,,,,,,,,,,,,,,,,,,,,,,,,,,,,,,,,,,,,,,,,,,,,,83.33762026014583,57.36779005769128,143.41868513857833,143.41868513857833,121.60877912277623,107.40274144427755,1.0,1.3,284,-283,480,-269,701,-254,585.8969550132751,585.8969967365265,585.8994176387787,585.9109797477722,586.0610554218292,586.0610554218292,586.0610554218292,586.0610554218292,586.0610554218292,586.0610554218292,586.0610554218292,587.4454975128174,2,1.5245897769927979,None,,,,,,,,,,,,,,,,,,203,3,2025-03-06_14h44.08.215,comp,2024.2.4,62.91783172724982,2025-03-06 14h44.19.309992 -0500,
65,65,0,critical,hwd,20.0,4.0,lower,133.0,57.0,57.0,133.0,78.0,78.0,1,2.1100752353668213,None,,,,,0,0,0,0,0,65,65,106,587.4611005783081,,,,,,,,,,,,,,,,,,,,,,,,,,,,,,,,,,,,,,,,,,,,,,,,,,,,,,,,,,,,,,,,,,,,,,,,,,,,,,,,,133.0,57.0,57.0,133.0,78.0,78.0,4.0,4.1,-191,-283,0,2,202,-284,587.4462659358978,587.4463064670563,587.4485719203949,587.4611005783081,587.6109433174133,587.6109433174133,587.6109433174133,587.6109433174133,587.6109433174133,587.6109433174133,587.6109433174133,589.5786480903625,1,2.1100752353668213,None,,,,,,,,,,,,,,,,,,203,3,2025-03-06_14h44.08.215,comp,2024.2.4,62.91783172724982,2025-03-06 14h44.19.309992 -0500,
66,66,0,critical,dwh,20.0,1.0,lower,78.0,78.0,57.0,133.0,133.0,57.0,3,6.041018724441528,None,,,,,0,0,0,0,0,66,66,66,589.594443321228,,,,,,,,,,,,,,,,,,,,,,,,,,,,,,,,,,,,,,,,,,,,,,,,,,,,,,,,,,,,,,,,,,,,,,,,,,,,,,,,,78.0,78.0,57.0,133.0,133.0,57.0,1.0,1.3,278,-255,480,-269,671,-283,589.5794615745544,589.57950258255,589.5819795131683,589.594443321228,589.7444357872009,589.7444357872009,589.7444357872009,589.7444357872009,589.7444357872009,589.7444357872009,589.7444357872009,595.6452829837799,3,6.041018724441528,None,,,,,,,,,,,,,,,,,,203,3,2025-03-06_14h44.08.215,comp,2024.2.4,62.91783172724982,2025-03-06 14h44.19.309992 -0500,
67,67,0,filler_square,None,None,None,None,None,None,None,None,None,None,1,1.5418546199798584,None,,,,,0,0,0,0,0,67,67,181,595.661102771759,,,,,,,,,,,,,,,,,,,,,,,,,,,,,,,,,,,,,,,,,,,,,,,,,,,,,,,,,,,,,,,,,,,,,,,,,,,,,,,,,127.48670297349346,127.48670297349346,98.01335566462564,80.93436798503666,126.7775861577407,98.13615209245611,3.0,3.2,-200,-258,0,19,186,271,595.6462304592133,595.6462728977203,595.6485021114349,595.661102771759,595.8111836910248,595.8111836910248,595.8111836910248,595.8111836910248,595.8111836910248,595.8111836910248,595.8111836910248,597.2119498252869,1,1.5418546199798584,None,,,,,,,,,,,,,,,,,,203,3,2025-03-06_14h44.08.215,comp,2024.2.4,62.91783172724982,2025-03-06 14h44.19.309992 -0500,
68,68,0,critical,hdw,20.0,4.0,upper,200.0,125.0,141.0,141.0,125.0,200.0,1,6.83836555480957,None,,,,,0,0,0,0,0,68,68,119,597.2276611328125,,,,,,,,,,,,,,,,,,,,,,,,,,,,,,,,,,,,,,,,,,,,,,,,,,,,,,,,,,,,,,,,,,,,,,,,,,,,,,,,,200.0,125.0,141.0,141.0,125.0,200.0,4.0,4.2,-229,18,0,-285,266,11,597.2127690315247,597.2128100395203,597.2153325080872,597.2276611328125,597.3777215480804,597.3777215480804,597.3777215480804,597.3777215480804,597.3777215480804,597.3777215480804,597.3777215480804,604.0790257453918,1,6.83836555480957,None,,,,,,,,,,,,,,,,,,203,3,2025-03-06_14h44.08.215,comp,2024.2.4,62.91783172724982,2025-03-06 14h44.19.309992 -0500,
69,69,0,critical,whd,35.0,1.0,upper,125.0,200.0,200.0,125.0,127.0,127.0,1,9.228729248046875,None,,,,,0,0,0,0,0,69,69,85,604.0940556526184,,,,,,,,,,,,,,,,,,,,,,,,,,,,,,,,,,,,,,,,,,,,,,,,,,,,,,,,,,,,,,,,,,,,,,,,,,,,,,,,,125.0,200.0,200.0,125.0,127.0,127.0,1.0,1.3,222,-289,480,-283,702,-274,604.0798182487488,604.079859495163,604.0817947387695,604.0940556526184,604.244243144989,604.244243144989,604.244243144989,604.244243144989,604.244243144989,604.244243144989,604.244243144989,613.3288624286652,1,9.228729248046875,None,,,,,,,,,,,,,,,,,,203,3,2025-03-06_14h44.08.215,comp,2024.2.4,62.91783172724982,2025-03-06 14h44.19.309992 -0500,
70,70,0,critical,dhw,20.0,3.0,lower,78.0,78.0,133.0,57.0,57.0,133.0,2,13.994527339935303,None,,,,,0,0,0,0,0,70,70,56,613.3442139625549,,,,,,,,,,,,,,,,,,,,,,,,,,,,,,,,,,,,,,,,,,,,,,,,,,,,,,,,,,,,,,,,,,,,,,,,,,,,,,,,,78.0,78.0,133.0,57.0,57.0,133.0,3.0,3.1,-164,265,0,19,191,-275,613.3297667503357,613.329808473587,613.3319165706635,613.3442139625549,613.4941260814667,613.4941260814667,613.4941260814667,613.4941260814667,613.4941260814667,613.4941260814667,613.4941260814667,627.3451242446899,2,13.994527339935303,None,,,,,,,,,,,,,,,,,,203,3,2025-03-06_14h44.08.215,comp,2024.2.4,62.91783172724982,2025-03-06 14h44.19.309992 -0500,
71,71,0,critical,hwd,20.0,3.0,lower,133.0,57.0,57.0,133.0,78.0,78.0,1,14.633658170700073,None,,,,,0,0,0,0,0,71,71,104,627.360983133316,,,,,,,,,,,,,,,,,,,,,,,,,,,,,,,,,,,,,,,,,,,,,,,,,,,,,,,,,,,,,,,,,,,,,,,,,,,,,,,,,133.0,57.0,57.0,133.0,78.0,78.0,3.0,3.1,-191,284,0,-17,202,-284,627.3459095954895,627.3459510803223,627.348450422287,627.360983133316,627.5107944011688,627.5107944011688,627.5107944011688,627.5107944011688,627.5107944011688,627.5107944011688,627.5107944011688,642.0118238925934,1,14.633658170700073,None,,,,,,,,,,,,,,,,,,203,3,2025-03-06_14h44.08.215,comp,2024.2.4,62.91783172724982,2025-03-06 14h44.19.309992 -0500,
72,72,0,critical,dhw,35.0,3.0,lower,70.0,70.0,133.0,57.0,57.0,133.0,2,4.127622365951538,None,,,,,0,0,0,0,0,72,72,50,642.0270974636078,,,,,,,,,,,,,,,,,,,,,,,,,,,,,,,,,,,,,,,,,,,,,,,,,,,,,,,,,,,,,,,,,,,,,,,,,,,,,,,,,70.0,70.0,133.0,57.0,57.0,133.0,3.0,3.2,-160,-275,0,-11,191,264,642.0126202106476,642.0126605033875,642.0150072574615,642.0270974636078,642.1771981716156,642.1771981716156,642.1771981716156,642.1771981716156,642.1771981716156,642.1771981716156,642.1771981716156,646.1617712974548,2,4.127622365951538,None,,,,,,,,,,,,,,,,,,203,3,2025-03-06_14h44.08.215,comp,2024.2.4,62.91783172724982,2025-03-06 14h44.19.309992 -0500,
73,73,0,filler_square,None,None,None,None,None,None,None,None,None,None,1,4.630232810974121,None,,,,,0,0,0,0,0,73,73,205,646.1773631572723,,,,,,,,,,,,,,,,,,,,,,,,,,,,,,,,,,,,,,,,,,,,,,,,,,,,,,,,,,,,,,,,,,,,,,,,,,,,,,,,,102.58442248836519,102.58442248836519,97.37421448035727,68.11417680163693,63.169934119066156,85.16822019968248,2.1,2.11,-181,258,0,271,173,-278,646.1627259254456,646.1627686023712,646.165167093277,646.1773631572723,646.3273015022278,646.3273015022278,646.3273015022278,646.3273015022278,646.3273015022278,646.3273015022278,646.3273015022278,650.8284513950348,1,4.630232810974121,None,,,,,,,,,,,,,,,,,,203,3,2025-03-06_14h44.08.215,comp,2024.2.4,62.91783172724982,2025-03-06 14h44.19.309992 -0500,
74,74,0,filler_random,None,None,None,None,None,None,None,None,None,None,2,5.302044868469238,None,,,,,0,0,0,0,0,74,74,158,650.8438496589661,,,,,,,,,,,,,,,,,,,,,,,,,,,,,,,,,,,,,,,,,,,,,,,,,,,,,,,,,,,,,,,,,,,,,,,,,,,,,,,,,78.05297516062808,131.94515414403023,119.5648829607941,176.44458611867304,104.7567957120728,186.11636768538358,3.0,3.2,-250,-269,0,-13,277,261,650.8293399810791,650.8293933868408,650.8325607776642,650.8438496589661,650.9940087795258,650.9940087795258,650.9940087795258,650.9940087795258,650.9940087795258,650.9940087795258,650.9940087795258,656.1619002819061,2,5.302044868469238,None,,,,,,,,,,,,,,,,,,203,3,2025-03-06_14h44.08.215,comp,2024.2.4,62.91783172724982,2025-03-06 14h44.19.309992 -0500,
75,75,0,critical,hdw,35.0,2.1,upper,200.0,125.0,127.0,127.0,125.0,200.0,1,2.241729974746704,None,,,,,0,0,0,0,0,75,75,45,656.177059173584,,,,,,,,,,,,,,,,,,,,,,,,,,,,,,,,,,,,,,,,,,,,,,,,,,,,,,,,,,,,,,,,,,,,,,,,,,,,,,,,,200.0,125.0,127.0,127.0,125.0,200.0,2.1,2.12,-222,-283,0,-252,260,251,656.162713766098,656.1627540588379,656.1650574207306,656.177059173584,656.3272776603699,656.3272776603699,656.3272776603699,656.3272776603699,656.3272776603699,656.3272776603699,656.3272776603699,658.4285051822662,1,2.241729974746704,None,,,,,,,,,,,,,,,,,,203,3,2025-03-06_14h44.08.215,comp,2024.2.4,62.91783172724982,2025-03-06 14h44.19.309992 -0500,
76,76,0,filler_square,None,None,None,None,None,None,None,None,None,None,2,1.5107905864715576,None,,,,,0,0,0,0,0,76,76,189,658.444030046463,,,,,,,,,,,,,,,,,,,,,,,,,,,,,,,,,,,,,,,,,,,,,,,,,,,,,,,,,,,,,,,,,,,,,,,,,,,,,,,,,90.85391961148426,65.28858482930269,199.88312906477282,199.88312906477282,96.91103884460694,170.55243478875263,1.0,1.3,251,-252,480,-266,761,-273,658.4294605255127,658.4295020103455,658.4315893650055,658.444030046463,658.5940284729004,658.5940284729004,658.5940284729004,658.5940284729004,658.5940284729004,658.5940284729004,658.5940284729004,659.9618027210236,2,1.5107905864715576,None,,,,,,,,,,,,,,,,,,203,3,2025-03-06_14h44.08.215,comp,2024.2.4,62.91783172724982,2025-03-06 14h44.19.309992 -0500,
77,77,0,critical,hdw,35.0,4.0,upper,200.0,125.0,127.0,127.0,125.0,200.0,1,3.793267011642456,None,,,,,0,0,0,0,0,77,77,113,659.9771893024445,,,,,,,,,,,,,,,,,,,,,,,,,,,,,,,,,,,,,,,,,,,,,,,,,,,,,,,,,,,,,,,,,,,,,,,,,,,,,,,,,200.0,125.0,127.0,127.0,125.0,200.0,4.0,4.1,-222,-281,0,2,260,-253,659.9625768661499,659.9626169204712,659.9645292758942,659.9771893024445,660.1273763179779,660.1273763179779,660.1273763179779,660.1273763179779,660.1273763179779,660.1273763179779,660.1273763179779,663.7784271240234,1,3.793267011642456,None,,,,,,,,,,,,,,,,,,203,3,2025-03-06_14h44.08.215,comp,2024.2.4,62.91783172724982,2025-03-06 14h44.19.309992 -0500,
78,78,0,critical,whd,20.0,4.0,upper,125.0,200.0,200.0,125.0,141.0,141.0,2,9.033496856689453,None,,,,,0,0,0,0,0,78,78,95,663.7939667701721,,,,,,,,,,,,,,,,,,,,,,,,,,,,,,,,,,,,,,,,,,,,,,,,,,,,,,,,,,,,,,,,,,,,,,,,,,,,,,,,,125.0,200.0,200.0,125.0,141.0,141.0,4.0,4.2,-258,-9,0,-279,229,15,663.7792196273804,663.7792627811432,663.781415939331,663.7939667701721,663.9440093040466,663.9440093040466,663.9440093040466,663.9440093040466,663.9440093040466,663.9440093040466,663.9440093040466,672.8450891971588,2,9.033496856689453,None,,,,,,,,,,,,,,,,,,203,3,2025-03-06_14h44.08.215,comp,2024.2.4,62.91783172724982,2025-03-06 14h44.19.309992 -0500,
79,79,0,filler_square,None,None,None,None,None,None,None,None,None,None,1,1.6532955169677734,None,,,,,0,0,0,0,0,79,79,180,672.8603751659393,,,,,,,,,,,,,,,,,,,,,,,,,,,,,,,,,,,,,,,,,,,,,,,,,,,,,,,,,,,,,,,,,,,,,,,,,,,,,,,,,155.3393464006233,155.3393464006233,94.65612975993955,122.37934745942849,135.2871724467411,90.26762540506107,4.0,4.2,-235,-19,0,-270,202,-9,672.8460395336151,672.8460807800293,672.8485171794891,672.8603751659393,673.0104494094849,673.0104494094849,673.0104494094849,673.0104494094849,673.0104494094849,673.0104494094849,673.0104494094849,674.5283617973328,1,1.6532955169677734,None,,,,,,,,,,,,,,,,,,203,3,2025-03-06_14h44.08.215,comp,2024.2.4,62.91783172724982,2025-03-06 14h44.19.309992 -0500,
80,80,0,critical,wdh,20.0,2.1,lower,57.0,133.0,78.0,78.0,133.0,57.0,3,3.0749363899230957,None,,,,,0,0,0,0,0,80,80,34,674.5435490608215,,,,,,,,,,,,,,,,,,,,,,,,,,,,,,,,,,,,,,,,,,,,,,,,,,,,,,,,,,,,,,,,,,,,,,,,,,,,,,,,,57.0,133.0,78.0,78.0,133.0,57.0,2.1,2.11,-202,254,0,258,164,-283,674.5291473865509,674.5291891098022,674.5313847064972,674.5435490608215,674.6935753822327,674.6935753822327,674.6935753822327,674.6935753822327,674.6935753822327,674.6935753822327,674.6935753822327,677.6281471252441,3,3.0749363899230957,None,,,,,,,,,,,,,,,,,,203,3,2025-03-06_14h44.08.215,comp,2024.2.4,62.91783172724982,2025-03-06 14h44.19.309992 -0500,
81,81,0,critical,dhw,35.0,2.1,upper,127.0,127.0,200.0,125.0,125.0,200.0,2,4.174659252166748,None,,,,,0,0,0,0,0,81,81,25,677.6439025402069,,,,,,,,,,,,,,,,,,,,,,,,,,,,,,,,,,,,,,,,,,,,,,,,,,,,,,,,,,,,,,,,,,,,,,,,,,,,,,,,,127.0,127.0,200.0,125.0,125.0,200.0,2.1,2.11,-222,260,0,281,258,-287,677.6289758682251,677.6290168762207,677.6312773227692,677.6439025402069,677.7939074039459,677.7939074039459,677.7939074039459,677.7939074039459,677.7939074039459,677.7939074039459,677.7939074039459,681.8282916545868,2,4.174659252166748,None,,,,,,,,,,,,,,,,,,203,3,2025-03-06_14h44.08.215,comp,2024.2.4,62.91783172724982,2025-03-06 14h44.19.309992 -0500,
82,82,0,critical,wdh,20.0,3.0,lower,57.0,133.0,78.0,78.0,133.0,57.0,3,8.61650538444519,None,,,,,0,0,0,0,0,82,82,80,681.8438527584076,,,,,,,,,,,,,,,,,,,,,,,,,,,,,,,,,,,,,,,,,,,,,,,,,,,,,,,,,,,,,,,,,,,,,,,,,,,,,,,,,57.0,133.0,78.0,78.0,133.0,57.0,3.0,3.2,-202,-259,0,-19,164,266,681.8290963172913,681.8291394710541,681.83123087883,681.8438527584076,681.9935882091522,681.9935882091522,681.9935882091522,681.9935882091522,681.9935882091522,681.9935882091522,681.9935882091522,690.4781601428986,3,8.61650538444519,None,,,,,,,,,,,,,,,,,,203,3,2025-03-06_14h44.08.215,comp,2024.2.4,62.91783172724982,2025-03-06 14h44.19.309992 -0500,
83,83,0,critical,hwd,35.0,4.0,upper,200.0,125.0,125.0,200.0,127.0,127.0,1,2.3252124786376953,None,,,,,0,0,0,0,0,83,83,101,690.4935212135315,,,,,,,,,,,,,,,,,,,,,,,,,,,,,,,,,,,,,,,,,,,,,,,,,,,,,,,,,,,,,,,,,,,,,,,,,,,,,,,,,200.0,125.0,125.0,200.0,127.0,127.0,4.0,4.2,-258,18,0,-282,260,-6,690.4789807796478,690.4790229797363,690.4809923171997,690.4935212135315,690.6438381671906,690.6438381671906,690.6438381671906,690.6438381671906,690.6438381671906,690.6438381671906,690.6438381671906,692.8284335136414,1,2.3252124786376953,None,,,,,,,,,,,,,,,,,,203,3,2025-03-06_14h44.08.215,comp,2024.2.4,62.91783172724982,2025-03-06 14h44.19.309992 -0500,
84,84,0,filler_random,None,None,None,None,None,None,None,None,None,None,3,4.663008451461792,None,,,,,0,0,0,0,0,84,84,169,692.8438544273376,,,,,,,,,,,,,,,,,,,,,,,,,,,,,,,,,,,,,,,,,,,,,,,,,,,,,,,,,,,,,,,,,,,,,,,,,,,,,,,,,79.51468024864761,99.49126001680372,89.16356726119889,198.10950561198504,132.4366765618831,158.44769448899336,2.2,2.21,-245,-282,0,261,274,287,692.8293571472168,692.8294003009796,692.831470489502,692.8438544273376,692.9936375617981,692.9936375617981,692.9936375617981,692.9936375617981,692.9936375617981,692.9936375617981,692.9936375617981,697.5114586353302,3,4.663008451461792,None,,,,,,,,,,,,,,,,,,203,3,2025-03-06_14h44.08.215,comp,2024.2.4,62.91783172724982,2025-03-06 14h44.19.309992 -0500,
85,85,0,filler_random,None,None,None,None,None,None,None,None,None,None,1,3.3795928955078125,None,,,,,0,0,0,0,0,85,85,147,697.5269520282745,,,,,,,,,,,,,,,,,,,,,,,,,,,,,,,,,,,,,,,,,,,,,,,,,,,,,,,,,,,,,,,,,,,,,,,,,,,,,,,,,189.57939299518918,159.4054694996534,163.84614796327566,81.04388312091962,128.07209763026407,186.32398980518562,2.2,2.22,-216,261,0,-251,230,-255,697.5123598575592,697.5124037265778,697.5146808624268,697.5269520282745,697.6771764755249,697.6771764755249,697.6771764755249,697.6771764755249,697.6771764755249,697.6771764755249,697.6771764755249,700.9115495681763,1,3.3795928955078125,None,,,,,,,,,,,,,,,,,,203,3,2025-03-06_14h44.08.215,comp,2024.2.4,62.91783172724982,2025-03-06 14h44.19.309992 -0500,
86,86,0,filler_square,None,None,None,None,None,None,None,None,None,None,2,2.850613594055176,None,,,,,0,0,0,0,0,86,86,199,700.9269380569458,,,,,,,,,,,,,,,,,,,,,,,,,,,,,,,,,,,,,,,,,,,,,,,,,,,,,,,,,,,,,,,,,,,,,,,,,,,,,,,,,58.242580802524856,85.23095528775278,111.30560589380525,111.30560589380525,106.82041667546206,96.42971823688748,2.1,2.12,-194,-264,0,-266,200,259,700.9124758243561,700.9125146865845,700.914381980896,700.9269380569458,701.0768837928772,701.0768837928772,701.0768837928772,701.0768837928772,701.0768837928772,701.0768837928772,701.0768837928772,703.7946801185608,2,2.850613594055176,None,,,,,,,,,,,,,,,,,,203,3,2025-03-06_14h44.08.215,comp,2024.2.4,62.91783172724982,2025-03-06 14h44.19.309992 -0500,
87,87,0,critical,wdh,35.0,2.1,lower,57.0,133.0,70.0,70.0,133.0,57.0,1,4.0881853103637695,None,,,,,0,0,0,0,0,87,87,8,703.8099522590637,,,,,,,,,,,,,,,,,,,,,,,,,,,,,,,,,,,,,,,,,,,,,,,,,,,,,,,,,,,,,,,,,,,,,,,,,,,,,,,,,57.0,133.0,70.0,70.0,133.0,57.0,2.1,2.11,-198,255,0,250,160,-276,703.7954523563385,703.7954926490784,703.7978138923645,703.8099522590637,703.9601731300354,703.9601731300354,703.9601731300354,703.9601731300354,703.9601731300354,703.9601731300354,703.9601731300354,707.9113118648529,1,4.0881853103637695,None,,,,,,,,,,,,,,,,,,203,3,2025-03-06_14h44.08.215,comp,2024.2.4,62.91783172724982,2025-03-06 14h44.19.309992 -0500,
88,88,0,filler_square,None,None,None,None,None,None,None,None,None,None,3,3.1650705337524414,None,,,,,0,0,0,0,0,88,88,194,707.9266793727875,,,,,,,,,,,,,,,,,,,,,,,,,,,,,,,,,,,,,,,,,,,,,,,,,,,,,,,,,,,,,,,,,,,,,,,,,,,,,,,,,60.95348881192012,57.07572000360444,60.805854935384886,59.84260709807228,61.23653467222135,61.23653467222135,1.0,1.2,-154,-6,0,11,157,-20,707.9125225543976,707.9125640392303,707.9145834445953,707.9266793727875,708.0767879486084,708.0767879486084,708.0767879486084,708.0767879486084,708.0767879486084,708.0767879486084,708.0767879486084,711.094619512558,3,3.1650705337524414,None,,,,,,,,,,,,,,,,,,203,3,2025-03-06_14h44.08.215,comp,2024.2.4,62.91783172724982,2025-03-06 14h44.19.309992 -0500,
89,89,0,critical,wdh,20.0,1.0,lower,57.0,133.0,78.0,78.0,133.0,57.0,3,4.211946249008179,None,,,,,0,0,0,0,0,89,89,78,711.1102116107941,,,,,,,,,,,,,,,,,,,,,,,,,,,,,,,,,,,,,,,,,,,,,,,,,,,,,,,,,,,,,,,,,,,,,,,,,,,,,,,,,57.0,133.0,78.0,78.0,133.0,57.0,1.0,1.1,-682,275,-480,276,-316,256,711.0953998565674,711.0954413414001,711.0975103378296,711.1102116107941,711.2600162029266,711.2600162029266,711.2600162029266,711.2600162029266,711.2600162029266,711.2600162029266,711.2600162029266,715.3280324935913,3,4.211946249008179,None,,,,,,,,,,,,,,,,,,203,3,2025-03-06_14h44.08.215,comp,2024.2.4,62.91783172724982,2025-03-06 14h44.19.309992 -0500,
90,90,0,catch,None,None,None,None,None,None,None,None,None,None,1,1.569793462753296,None,,,,,0,0,0,0,0,90,90,127,715.3436334133148,,,,,,,,,,,,,,,,,,,,,,,,,,,,,,,,,,,,,,,,,,,,,,,,,,,,,,,,,,,,,,,,,,,,,,,,,,,,,,,,,184,141,59,131,117,73,2.1,2.11,-232,253,0,271,198,-287,715.3290646076202,715.3291070461273,715.3315179347992,715.3436334133148,715.4935624599457,715.4935624599457,715.4935624599457,715.4935624599457,715.4935624599457,715.4935624599457,715.4935624599457,716.9281423091888,1,1.569793462753296,None,,,,,,,,,,,,,,,,,,203,3,2025-03-06_14h44.08.215,comp,2024.2.4,62.91783172724982,2025-03-06 14h44.19.309992 -0500,
91,91,0,critical,wdh,20.0,2.1,upper,125.0,200.0,141.0,141.0,200.0,125.0,1,5.43428111076355,None,,,,,0,0,0,0,0,91,91,11,716.9433000087738,,,,,,,,,,,,,,,,,,,,,,,,,,,,,,,,,,,,,,,,,,,,,,,,,,,,,,,,,,,,,,,,,,,,,,,,,,,,,,,,,125.0,200.0,141.0,141.0,200.0,125.0,2.1,2.12,-266,-281,0,-269,229,285,716.9289157390594,716.928955078125,716.931325674057,716.9433000087738,717.0936346054077,717.0936346054077,717.0936346054077,717.0936346054077,717.0936346054077,717.0936346054077,717.0936346054077,722.3947534561157,1,5.43428111076355,None,,,,,,,,,,,,,,,,,,203,3,2025-03-06_14h44.08.215,comp,2024.2.4,62.91783172724982,2025-03-06 14h44.19.309992 -0500,
92,92,0,filler_random,None,None,None,None,None,None,None,None,None,None,3,1.8966963291168213,None,,,,,0,0,0,0,0,92,92,131,722.4099290370941,,,,,,,,,,,,,,,,,,,,,,,,,,,,,,,,,,,,,,,,,,,,,,,,,,,,,,,,,,,,,,,,,,,,,,,,,,,,,,,,,61.0155489136666,165.16497577461564,68.49090938547458,80.54929380266714,164.4693177178245,117.21824849731522,2.2,2.21,-219,-282,0,288,195,263,722.3956460952759,722.3956861495972,722.3976845741272,722.4099290370941,722.5599980354309,722.5599980354309,722.5599980354309,722.5599980354309,722.5599980354309,722.5599980354309,722.5599980354309,724.3113355636597,3,1.8966963291168213,None,,,,,,,,,,,,,,,,,,203,3,2025-03-06_14h44.08.215,comp,2024.2.4,62.91783172724982,2025-03-06 14h44.19.309992 -0500,
93,93,0,critical,hdw,20.0,2.1,lower,133.0,57.0,78.0,78.0,57.0,133.0,1,2.8185880184173584,None,,,,,0,0,0,0,0,93,93,22,724.3268582820892,,,,,,,,,,,,,,,,,,,,,,,,,,,,,,,,,,,,,,,,,,,,,,,,,,,,,,,,,,,,,,,,,,,,,,,,,,,,,,,,,133.0,57.0,78.0,78.0,57.0,133.0,2.1,2.12,-164,-273,0,-258,202,255,724.3121247291565,724.3121633529663,724.3145079612732,724.3268582820892,724.4767110347748,724.4767110347748,724.4767110347748,724.4767110347748,724.4767110347748,724.4767110347748,724.4767110347748,727.1611545085907,1,2.8185880184173584,None,,,,,,,,,,,,,,,,,,203,3,2025-03-06_14h44.08.215,comp,2024.2.4,62.91783172724982,2025-03-06 14h44.19.309992 -0500,
94,94,0,critical,hdw,20.0,1.0,upper,200.0,125.0,141.0,141.0,125.0,200.0,1,5.977564573287964,None,,,,,0,0,0,0,0,94,94,115,727.1765081882477,,,,,,,,,,,,,,,,,,,,,,,,,,,,,,,,,,,,,,,,,,,,,,,,,,,,,,,,,,,,,,,,,,,,,,,,,,,,,,,,,200.0,125.0,141.0,141.0,125.0,200.0,1.0,1.1,-709,257,-480,288,-214,282,727.161952495575,727.1619956493378,727.163980960846,727.1765081882477,727.3269197940826,727.3269197940826,727.3269197940826,727.3269197940826,727.3269197940826,727.3269197940826,727.3269197940826,733.1613390445709,1,5.977564573287964,None,,,,,,,,,,,,,,,,,,203,3,2025-03-06_14h44.08.215,comp,2024.2.4,62.91783172724982,2025-03-06 14h44.19.309992 -0500,
95,95,0,filler_square,None,None,None,None,None,None,None,None,None,None,2,2.009159564971924,None,,,,,0,0,0,0,0,95,95,191,733.1768388748169,,,,,,,,,,,,,,,,,,,,,,,,,,,,,,,,,,,,,,,,,,,,,,,,,,,,,,,,,,,,,,,,,,,,,,,,,,,,,,,,,60.36884494921027,63.103878571419436,72.21196781232135,72.21196781232135,60.90942569158411,63.976335185248,1.0,1.3,316,-254,480,-281,644,-256,733.1622846126556,733.1623246669769,733.1643352508545,733.1768388748169,733.3266348838806,733.3266348838806,733.3266348838806,733.3266348838806,733.3266348838806,733.3266348838806,733.3266348838806,735.1942141056061,2,2.009159564971924,None,,,,,,,,,,,,,,,,,,203,3,2025-03-06_14h44.08.215,comp,2024.2.4,62.91783172724982,2025-03-06 14h44.19.309992 -0500,
96,96,0,critical,dhw,35.0,4.0,lower,70.0,70.0,133.0,57.0,57.0,133.0,3,3.7919294834136963,None,,,,,0,0,0,0,0,96,96,52,735.2100718021393,,,,,,,,,,,,,,,,,,,,,,,,,,,,,,,,,,,,,,,,,,,,,,,,,,,,,,,,,,,,,,,,,,,,,,,,,,,,,,,,,70.0,70.0,133.0,57.0,57.0,133.0,4.0,4.1,-160,-278,0,-17,191,-267,735.1950101852417,735.1950516700745,735.1970059871674,735.2100718021393,735.3598072528839,735.3598072528839,735.3598072528839,735.3598072528839,735.3598072528839,735.3598072528839,735.3598072528839,739.0109765529633,3,3.7919294834136963,None,,,,,,,,,,,,,,,,,,203,3,2025-03-06_14h44.08.215,comp,2024.2.4,62.91783172724982,2025-03-06 14h44.19.309992 -0500,
97,97,0,critical,whd,35.0,4.0,lower,57.0,133.0,133.0,57.0,70.0,70.0,1,4.918551921844482,None,,,,,0,0,0,0,0,97,97,88,739.0266540050507,,,,,,,,,,,,,,,,,,,,,,,,,,,,,,,,,,,,,,,,,,,,,,,,,,,,,,,,,,,,,,,,,,,,,,,,,,,,,,,,,57.0,133.0,133.0,57.0,70.0,70.0,4.0,4.2,-191,-9,0,-275,160,-11,739.0117597579956,739.011801481247,739.0141775608063,739.0266540050507,739.1765129566193,739.1765129566193,739.1765129566193,739.1765129566193,739.1765129566193,739.1765129566193,739.1765129566193,743.9609522819519,1,4.918551921844482,None,,,,,,,,,,,,,,,,,,203,3,2025-03-06_14h44.08.215,comp,2024.2.4,62.91783172724982,2025-03-06 14h44.19.309992 -0500,
98,98,0,filler_random,None,None,None,None,None,None,None,None,None,None,2,2.8576178550720215,None,,,,,0,0,0,0,0,98,98,134,743.9764082431793,,,,,,,,,,,,,,,,,,,,,,,,,,,,,,,,,,,,,,,,,,,,,,,,,,,,,,,,,,,,,,,,,,,,,,,,,,,,,,,,,87.99496583893574,87.99427984168246,196.1268676874267,159.60143660929452,158.6640817528508,193.61454656039703,2.1,2.12,-220,-266,0,-252,273,262,743.9619064331055,743.9619469642639,743.9644966125488,743.9764082431793,744.1268711090088,744.1268711090088,744.1268711090088,744.1268711090088,744.1268711090088,744.1268711090088,744.1268711090088,746.8444967269897,2,2.8576178550720215,None,,,,,,,,,,,,,,,,,,203,3,2025-03-06_14h44.08.215,comp,2024.2.4,62.91783172724982,2025-03-06 14h44.19.309992 -0500,
99,99,0,critical,dwh,20.0,2.1,lower,78.0,78.0,57.0,133.0,133.0,57.0,3,8.588690757751465,None,,,,,0,0,0,0,0,99,99,30,746.8602793216705,,,,,,,,,,,,,,,,,,,,,,,,,,,,,,,,,,,,,,,,,,,,,,,,,,,,,,,,,,,,,,,,,,,,,,,,,,,,,,,,,78.0,78.0,57.0,133.0,133.0,57.0,2.1,2.11,-202,272,0,260,191,-263,746.8452425003052,746.8452823162079,746.8472046852112,746.8602793216705,747.0098404884338,747.0098404884338,747.0098404884338,747.0098404884338,747.0098404884338,747.0098404884338,747.0098404884338,755.4612421989441,3,8.588690757751465,None,,,,,,,,,,,,,,,,,,203,3,2025-03-06_14h44.08.215,comp,2024.2.4,62.91783172724982,2025-03-06 14h44.19.309992 -0500,
100,100,0,filler_random,None,None,None,None,None,None,None,None,None,None,3,1.8615326881408691,None,,,,,0,0,0,0,0,100,100,160,755.4764139652252,,,,,,,,,,,,,,,,,,,,,,,,,,,,,,,,,,,,,,,,,,,,,,,,,,,,,,,,,,,,,,,,,,,,,,,,,,,,,,,,,115.78063316843573,70.25348562435198,129.7022479206725,59.411271576048534,118.96249423946841,104.93160183601852,3.0,3.1,-161,265,0,14,178,-280,755.4621458053589,755.4621877670288,755.464661359787,755.4764139652252,755.626514673233,755.626514673233,755.626514673233,755.626514673233,755.626514673233,755.626514673233,755.626514673233,757.3442893028259,3,1.8615326881408691,None,,,,,,,,,,,,,,,,,,203,3,2025-03-06_14h44.08.215,comp,2024.2.4,62.91783172724982,2025-03-06 14h44.19.309992 -0500,
101,101,0,critical,hdw,20.0,3.0,lower,133.0,57.0,78.0,78.0,57.0,133.0,1,2.7619376182556152,None,,,,,0,0,0,0,0,101,101,116,757.3598883152008,,,,,,,,,,,,,,,,,,,,,,,,,,,,,,,,,,,,,,,,,,,,,,,,,,,,,,,,,,,,,,,,,,,,,,,,,,,,,,,,,133.0,57.0,78.0,78.0,57.0,133.0,3.0,3.2,-164,-266,0,11,202,263,757.3450801372528,757.3451201915741,757.3471024036407,757.3598883152008,757.5098369121552,757.5098369121552,757.5098369121552,757.5098369121552,757.5098369121552,757.5098369121552,757.5098369121552,760.1276090145111,1,2.7619376182556152,None,,,,,,,,,,,,,,,,,,203,3,2025-03-06_14h44.08.215,comp,2024.2.4,62.91783172724982,2025-03-06 14h44.19.309992 -0500,
102,102,0,filler_square,None,None,None,None,None,None,None,None,None,None,2,1.516127586364746,None,,,,,0,0,0,0,0,102,102,185,760.14350938797,,,,,,,,,,,,,,,,,,,,,,,,,,,,,,,,,,,,,,,,,,,,,,,,,,,,,,,,,,,,,,,,,,,,,,,,,,,,,,,,,81.24660426189723,150.06573050964266,159.29582726535364,159.29582726535364,81.08832979590265,72.6482566680633,4.0,4.1,-251,-251,0,11,212,-284,760.1285321712494,760.1285736560822,760.1305677890778,760.14350938797,760.2931821346283,760.2931821346283,760.2931821346283,760.2931821346283,760.2931821346283,760.2931821346283,760.2931821346283,761.6611604690552,2,1.516127586364746,None,,,,,,,,,,,,,,,,,,203,3,2025-03-06_14h44.08.215,comp,2024.2.4,62.91783172724982,2025-03-06 14h44.19.309992 -0500,
103,103,0,filler_square,None,None,None,None,None,None,None,None,None,None,2,1.3990447521209717,None,,,,,0,0,0,0,0,103,103,176,761.6765720844269,,,,,,,,,,,,,,,,,,,,,,,,,,,,,,,,,,,,,,,,,,,,,,,,,,,,,,,,,,,,,,,,,,,,,,,,,,,,,,,,,142.22942379658878,60.85817105252379,161.72623829871594,161.72623829871594,141.93246415439842,86.45944144437141,4.0,4.1,-207,-282,0,-9,220,-286,761.6622252464294,761.6622669696808,761.6643402576447,761.6765720844269,761.8265690803528,761.8265690803528,761.8265690803528,761.8265690803528,761.8265690803528,761.8265690803528,761.8265690803528,763.0778436660767,2,1.3990447521209717,None,,,,,,,,,,,,,,,,,,203,3,2025-03-06_14h44.08.215,comp,2024.2.4,62.91783172724982,2025-03-06 14h44.19.309992 -0500,
104,104,0,critical,dwh,35.0,2.1,lower,70.0,70.0,57.0,133.0,133.0,57.0,3,4.244460344314575,None,,,,,0,0,0,0,0,104,104,28,763.0932374000549,,,,,,,,,,,,,,,,,,,,,,,,,,,,,,,,,,,,,,,,,,,,,,,,,,,,,,,,,,,,,,,,,,,,,,,,,,,,,,,,,70.0,70.0,57.0,133.0,133.0,57.0,2.1,2.12,-198,-287,0,-272,191,252,763.0787816047668,763.0788238048553,763.0808892250061,763.0932374000549,763.2430324554443,763.2430324554443,763.2430324554443,763.2430324554443,763.2430324554443,763.2430324554443,763.2430324554443,767.3441307544708,3,4.244460344314575,None,,,,,,,,,,,,,,,,,,203,3,2025-03-06_14h44.08.215,comp,2024.2.4,62.91783172724982,2025-03-06 14h44.19.309992 -0500,
105,105,0,filler_square,None,None,None,None,None,None,None,None,None,None,1,4.688873767852783,None,,,,,0,0,0,0,0,105,105,193,767.35995054245,,,,,,,,,,,,,,,,,,,,,,,,,,,,,,,,,,,,,,,,,,,,,,,,,,,,,,,,,,,,,,,,,,,,,,,,,,,,,,,,,61.824912624302144,61.824912624302144,57.85209417181816,60.16699587158918,59.424688607129276,61.270646586049686,2.1,2.12,-157,-257,0,-277,157,284,767.3450679779053,767.3451087474823,767.347588300705,767.35995054245,767.5096704959869,767.5096704959869,767.5096704959869,767.5096704959869,767.5096704959869,767.5096704959869,767.5096704959869,772.0616052150726,1,4.688873767852783,None,,,,,,,,,,,,,,,,,,203,3,2025-03-06_14h44.08.215,comp,2024.2.4,62.91783172724982,2025-03-06 14h44.19.309992 -0500,
106,106,0,critical,wdh,20.0,1.0,upper,125.0,200.0,141.0,141.0,200.0,125.0,3,3.0930120944976807,None,,,,,0,0,0,0,0,106,106,79,772.0766775608063,,,,,,,,,,,,,,,,,,,,,,,,,,,,,,,,,,,,,,,,,,,,,,,,,,,,,,,,,,,,,,,,,,,,,,,,,,,,,,,,,125.0,200.0,141.0,141.0,200.0,125.0,1.0,1.2,-266,15,0,-7,229,-4,772.062402009964,772.062442779541,772.0656545162201,772.0766775608063,772.2266085147858,772.2266085147858,772.2266085147858,772.2266085147858,772.2266085147858,772.2266085147858,772.2266085147858,775.1776678562164,3,3.0930120944976807,None,,,,,,,,,,,,,,,,,,203,3,2025-03-06_14h44.08.215,comp,2024.2.4,62.91783172724982,2025-03-06 14h44.19.309992 -0500,
107,107,0,catch,None,None,None,None,None,None,None,None,None,None,3,1.8407669067382812,None,,,,,0,0,0,0,0,107,107,123,775.1932556629181,,,,,,,,,,,,,,,,,,,,,,,,,,,,,,,,,,,,,,,,,,,,,,,,,,,,,,,,,,,,,,,,,,,,,,,,,,,,,,,,,62,128,64,126,150,175,2.1,2.11,-223,253,0,272,246,-268,775.1786649227142,775.1787049770355,775.1806435585022,775.1932556629181,775.3430659770966,775.3430659770966,775.3430659770966,775.3430659770966,775.3430659770966,775.3430659770966,775.3430659770966,777.0441296100616,3,1.8407669067382812,None,,,,,,,,,,,,,,,,,,203,3,2025-03-06_14h44.08.215,comp,2024.2.4,62.91783172724982,2025-03-06 14h44.19.309992 -0500,
108,108,0,catch,None,None,None,None,None,None,None,None,None,None,3,2.5171263217926025,None,,,,,0,0,0,0,0,108,108,124,777.0599286556244,,,,,,,,,,,,,,,,,,,,,,,,,,,,,,,,,,,,,,,,,,,,,,,,,,,,,,,,,,,,,,,,,,,,,,,,,,,,,,,,,107,83,85,105,146,179,2.2,2.22,-190,251,0,-280,238,-278,777.045179605484,777.0452218055725,777.0477402210236,777.0599286556244,777.2095658779144,777.2095658779144,777.2095658779144,777.2095658779144,777.2095658779144,777.2095658779144,777.2095658779144,779.5941264629364,3,2.5171263217926025,None,,,,,,,,,,,,,,,,,,203,3,2025-03-06_14h44.08.215,comp,2024.2.4,62.91783172724982,2025-03-06 14h44.19.309992 -0500,
109,109,0,filler_random,None,None,None,None,None,None,None,None,None,None,3,2.160212755203247,None,,,,,0,0,0,0,0,109,109,164,779.6095130443573,,,,,,,,,,,,,,,,,,,,,,,,,,,,,,,,,,,,,,,,,,,,,,,,,,,,,,,,,,,,,,,,,,,,,,,,,,,,,,,,,98.80049011726186,178.91131661481,113.1837882132059,99.69483915870808,141.82559271618857,184.550478947403,2.1,2.12,-235,-259,0,-271,238,275,779.5950198173523,779.595059633255,779.597510099411,779.6095130443573,779.7598211765289,779.7598211765289,779.7598211765289,779.7598211765289,779.7598211765289,779.7598211765289,779.7598211765289,781.7775194644928,3,2.160212755203247,None,,,,,,,,,,,,,,,,,,203,3,2025-03-06_14h44.08.215,comp,2024.2.4,62.91783172724982,2025-03-06 14h44.19.309992 -0500,
110,110,0,critical,hdw,20.0,2.1,lower,133.0,57.0,78.0,78.0,57.0,133.0,1,2.2821414470672607,None,,,,,0,0,0,0,0,110,110,46,781.7933144569397,,,,,,,,,,,,,,,,,,,,,,,,,,,,,,,,,,,,,,,,,,,,,,,,,,,,,,,,,,,,,,,,,,,,,,,,,,,,,,,,,133.0,57.0,78.0,78.0,57.0,133.0,2.1,2.12,-164,-287,0,-257,202,287,781.7782723903656,781.7783110141754,781.7802495956421,781.7933144569397,781.943106174469,781.943106174469,781.943106174469,781.943106174469,781.943106174469,781.943106174469,781.943106174469,784.0773131847382,1,2.2821414470672607,None,,,,,,,,,,,,,,,,,,203,3,2025-03-06_14h44.08.215,comp,2024.2.4,62.91783172724982,2025-03-06 14h44.19.309992 -0500,
111,111,0,critical,dwh,35.0,4.0,lower,70.0,70.0,57.0,133.0,133.0,57.0,3,2.26068377494812,None,,,,,0,0,0,0,0,111,111,64,784.0930261611938,,,,,,,,,,,,,,,,,,,,,,,,,,,,,,,,,,,,,,,,,,,,,,,,,,,,,,,,,,,,,,,,,,,,,,,,,,,,,,,,,70.0,70.0,57.0,133.0,133.0,57.0,4.0,4.1,-198,-267,0,-13,191,-251,784.0781135559082,784.0781564712524,784.0802640914917,784.0930261611938,784.2429776191711,784.2429776191711,784.2429776191711,784.2429776191711,784.2429776191711,784.2429776191711,784.2429776191711,786.3606333732605,3,2.26068377494812,None,,,,,,,,,,,,,,,,,,203,3,2025-03-06_14h44.08.215,comp,2024.2.4,62.91783172724982,2025-03-06 14h44.19.309992 -0500,
112,112,0,filler_random,None,None,None,None,None,None,None,None,None,None,3,2.1613500118255615,None,,,,,0,0,0,0,0,112,112,153,786.3763883113861,,,,,,,,,,,,,,,,,,,,,,,,,,,,,,,,,,,,,,,,,,,,,,,,,,,,,,,,,,,,,,,,,,,,,,,,,,,,,,,,,69.40437155798921,99.31171182477135,68.20575259266846,116.68996125198285,138.71556605440344,79.79965907260126,1.0,1.2,-204,-8,0,11,194,3,786.361611366272,786.3616540431976,786.363733291626,786.3763883113861,786.526228427887,786.526228427887,786.526228427887,786.526228427887,786.526228427887,786.526228427887,786.526228427887,788.5440099239349,3,2.1613500118255615,None,,,,,,,,,,,,,,,,,,203,3,2025-03-06_14h44.08.215,comp,2024.2.4,62.91783172724982,2025-03-06 14h44.19.309992 -0500,
113,113,0,critical,whd,35.0,2.1,lower,57.0,133.0,133.0,57.0,70.0,70.0,2,3.0012197494506836,None,,,,,0,0,0,0,0,113,113,12,788.5597400665283,,,,,,,,,,,,,,,,,,,,,,,,,,,,,,,,,,,,,,,,,,,,,,,,,,,,,,,,,,,,,,,,,,,,,,,,,,,,,,,,,57.0,133.0,133.0,57.0,70.0,70.0,2.1,2.12,-191,-279,0,-283,160,274,788.5447931289673,788.5448336601257,788.5468158721924,788.5597400665283,788.7094841003418,788.7094841003418,788.7094841003418,788.7094841003418,788.7094841003418,788.7094841003418,788.7094841003418,791.577267408371,2,3.0012197494506836,None,,,,,,,,,,,,,,,,,,203,3,2025-03-06_14h44.08.215,comp,2024.2.4,62.91783172724982,2025-03-06 14h44.19.309992 -0500,
114,114,0,critical,dhw,35.0,2.1,lower,70.0,70.0,133.0,57.0,57.0,133.0,2,5.920158624649048,None,,,,,0,0,0,0,0,114,114,24,791.5926880836487,,,,,,,,,,,,,,,,,,,,,,,,,,,,,,,,,,,,,,,,,,,,,,,,,,,,,,,,,,,,,,,,,,,,,,,,,,,,,,,,,70.0,70.0,133.0,57.0,57.0,133.0,2.1,2.12,-160,-263,0,-268,191,267,791.5780606269836,791.5781013965607,791.5800232887268,791.5926880836487,791.7429459095001,791.7429459095001,791.7429459095001,791.7429459095001,791.7429459095001,791.7429459095001,791.7429459095001,797.5272607803345,2,5.920158624649048,None,,,,,,,,,,,,,,,,,,203,3,2025-03-06_14h44.08.215,comp,2024.2.4,62.91783172724982,2025-03-06 14h44.19.309992 -0500,
115,115,0,critical,whd,20.0,1.0,upper,125.0,200.0,200.0,125.0,141.0,141.0,2,5.267223119735718,None,,,,,0,0,0,0,0,115,115,91,797.5428154468536,,,,,,,,,,,,,,,,,,,,,,,,,,,,,,,,,,,,,,,,,,,,,,,,,,,,,,,,,,,,,,,,,,,,,,,,,,,,,,,,,125.0,200.0,200.0,125.0,141.0,141.0,1.0,1.3,222,-255,480,-255,709,-263,797.5281491279602,797.5281918048859,797.5307140350342,797.5428154468536,797.6930446624756,797.6930446624756,797.6930446624756,797.6930446624756,797.6930446624756,797.6930446624756,797.6930446624756,802.8275413513184,2,5.267223119735718,None,,,,,,,,,,,,,,,,,,203,3,2025-03-06_14h44.08.215,comp,2024.2.4,62.91783172724982,2025-03-06 14h44.19.309992 -0500,
116,116,0,filler_square,None,None,None,None,None,None,None,None,None,None,1,1.4164645671844482,None,,,,,0,0,0,0,0,116,116,203,802.8427708148956,,,,,,,,,,,,,,,,,,,,,,,,,,,,,,,,,,,,,,,,,,,,,,,,,,,,,,,,,,,,,,,,,,,,,,,,,,,,,,,,,199.59259937026968,199.59259937026968,103.18742543597176,161.8481450943113,107.44962854783194,123.75027452065807,2.1,2.12,-277,-269,0,-255,239,271,802.8284966945648,802.8285405635834,802.8305344581604,802.8427708148956,802.9930739402771,802.9930739402771,802.9930739402771,802.9930739402771,802.9930739402771,802.9930739402771,802.9930739402771,804.2608938217163,1,1.4164645671844482,None,,,,,,,,,,,,,,,,,,203,3,2025-03-06_14h44.08.215,comp,2024.2.4,62.91783172724982,2025-03-06 14h44.19.309992 -0500,
117,117,0,filler_square,None,None,None,None,None,None,None,None,None,None,2,1.2845017910003662,None,,,,,0,0,0,0,0,117,117,207,804.2762551307678,,,,,,,,,,,,,,,,,,,,,,,,,,,,,,,,,,,,,,,,,,,,,,,,,,,,,,,,,,,,,,,,,,,,,,,,,,,,,,,,,95.46422693048072,120.28240242649365,196.4613152696534,196.4613152696534,69.27162353457504,101.47317608078433,2.1,2.11,-254,252,0,276,245,-261,804.2618567943573,804.261899471283,804.264251947403,804.2762551307678,804.4262952804565,804.4262952804565,804.4262952804565,804.4262952804565,804.4262952804565,804.4262952804565,804.4262952804565,805.5773856639862,2,1.2845017910003662,None,,,,,,,,,,,,,,,,,,203,3,2025-03-06_14h44.08.215,comp,2024.2.4,62.91783172724982,2025-03-06 14h44.19.309992 -0500,
118,118,0,filler_square,None,None,None,None,None,None,None,None,None,None,2,2.904684543609619,None,,,,,0,0,0,0,0,118,118,184,805.5927863121033,,,,,,,,,,,,,,,,,,,,,,,,,,,,,,,,,,,,,,,,,,,,,,,,,,,,,,,,,,,,,,,,,,,,,,,,,,,,,,,,,57.43932776014132,66.31530849273909,68.73327456216528,68.73327456216528,65.8461463614522,64.80113021409522,2.1,2.12,-164,-275,0,-275,163,280,805.5783121585846,805.578367471695,805.5803384780884,805.5927863121033,805.742817401886,805.742817401886,805.742817401886,805.742817401886,805.742817401886,805.742817401886,805.742817401886,808.5105922222137,2,2.904684543609619,None,,,,,,,,,,,,,,,,,,203,3,2025-03-06_14h44.08.215,comp,2024.2.4,62.91783172724982,2025-03-06 14h44.19.309992 -0500,
119,119,0,catch,None,None,None,None,None,None,None,None,None,None,2,1.5955500602722168,None,,,,,0,0,0,0,0,119,119,126,808.5259385108948,,,,,,,,,,,,,,,,,,,,,,,,,,,,,,,,,,,,,,,,,,,,,,,,,,,,,,,,,,,,,,,,,,,,,,,,,,,,,,,,,90,100,199,126,116,74,1.0,1.2,-209,-6,0,-15,196,18,808.5115578174591,808.5115973949432,808.5138735771179,808.5259385108948,808.6762073040009,808.6762073040009,808.6762073040009,808.6762073040009,808.6762073040009,808.6762073040009,808.6762073040009,810.1274828910828,2,1.5955500602722168,None,,,,,,,,,,,,,,,,,,203,3,2025-03-06_14h44.08.215,comp,2024.2.4,62.91783172724982,2025-03-06 14h44.19.309992 -0500,
120,120,0,critical,wdh,20.0,4.0,upper,125.0,200.0,141.0,141.0,200.0,125.0,3,11.554273128509521,None,,,,,0,0,0,0,0,120,120,83,810.1430509090424,,,,,,,,,,,,,,,,,,,,,,,,,,,,,,,,,,,,,,,,,,,,,,,,,,,,,,,,,,,,,,,,,,,,,,,,,,,,,,,,,125.0,200.0,141.0,141.0,200.0,125.0,4.0,4.1,-266,-273,0,-4,229,-269,810.1282603740692,810.1283037662506,810.1303279399872,810.1430509090424,810.2931907176971,810.2931907176971,810.2931907176971,810.2931907176971,810.2931907176971,810.2931907176971,810.2931907176971,821.7107412815094,3,11.554273128509521,None,,,,,,,,,,,,,,,,,,203,3,2025-03-06_14h44.08.215,comp,2024.2.4,62.91783172724982,2025-03-06 14h44.19.309992 -0500,
121,121,0,filler_square,None,None,None,None,None,None,None,None,None,None,2,1.1005966663360596,None,,,,,0,0,0,0,0,121,121,186,821.7259058952332,,,,,,,,,,,,,,,,,,,,,,,,,,,,,,,,,,,,,,,,,,,,,,,,,,,,,,,,,,,,,,,,,,,,,,,,,,,,,,,,,108.97558011639236,115.69229565897719,134.37941677847542,134.37941677847542,68.41572622271613,66.15649652537262,1.0,1.2,-221,5,0,-5,196,3,821.711728811264,821.7117714881897,821.7141854763031,821.7259058952332,821.8761014938354,821.8761014938354,821.8761014938354,821.8761014938354,821.8761014938354,821.8761014938354,821.8761014938354,822.8441784381866,2,1.1005966663360596,None,,,,,,,,,,,,,,,,,,203,3,2025-03-06_14h44.08.215,comp,2024.2.4,62.91783172724982,2025-03-06 14h44.19.309992 -0500,
122,122,0,critical,hwd,35.0,1.0,lower,133.0,57.0,57.0,133.0,70.0,70.0,1,3.094170331954956,None,,,,,0,0,0,0,0,122,122,96,822.8591935634613,,,,,,,,,,,,,,,,,,,,,,,,,,,,,,,,,,,,,,,,,,,,,,,,,,,,,,,,,,,,,,,,,,,,,,,,,,,,,,,,,133.0,57.0,57.0,133.0,70.0,70.0,1.0,1.2,-191,16,0,19,198,-3,822.8448874950409,822.8449237346649,822.8466727733612,822.8591935634613,823.0094246864319,823.0094246864319,823.0094246864319,823.0094246864319,823.0094246864319,823.0094246864319,823.0094246864319,825.9603564739227,1,3.094170331954956,None,,,,,,,,,,,,,,,,,,203,3,2025-03-06_14h44.08.215,comp,2024.2.4,62.91783172724982,2025-03-06 14h44.19.309992 -0500,
123,123,0,filler_square,None,None,None,None,None,None,None,None,None,None,1,1.6253268718719482,None,,,,,0,0,0,0,0,123,123,197,825.9760851860046,,,,,,,,,,,,,,,,,,,,,,,,,,,,,,,,,,,,,,,,,,,,,,,,,,,,,,,,,,,,,,,,,,,,,,,,,,,,,,,,,193.20659074359116,193.20659074359116,170.42702286106658,157.80948491193487,59.04853527163865,183.86685203433964,3.0,3.2,-272,-283,0,-15,267,263,825.9612703323364,825.9613118171692,825.9632425308228,825.9760851860046,826.1263732910156,826.1263732910156,826.1263732910156,826.1263732910156,826.1263732910156,826.1263732910156,826.1263732910156,827.6106872558594,1,1.6253268718719482,None,,,,,,,,,,,,,,,,,,203,3,2025-03-06_14h44.08.215,comp,2024.2.4,62.91783172724982,2025-03-06 14h44.19.309992 -0500,
124,124,0,critical,hwd,35.0,2.1,lower,133.0,57.0,57.0,133.0,70.0,70.0,1,17.232805728912354,None,,,,,0,0,0,0,0,124,124,16,827.6261236667633,,,,,,,,,,,,,,,,,,,,,,,,,,,,,,,,,,,,,,,,,,,,,,,,,,,,,,,,,,,,,,,,,,,,,,,,,,,,,,,,,133.0,57.0,57.0,133.0,70.0,70.0,2.1,2.11,-191,267,0,252,198,-287,827.6114802360535,827.6115226745605,827.6138753890991,827.6261236667633,827.776043176651,827.776043176651,827.776043176651,827.776043176651,827.776043176651,827.776043176651,827.776043176651,844.8604567050934,1,17.232805728912354,None,,,,,,,,,,,,,,,,,,203,3,2025-03-06_14h44.08.215,comp,2024.2.4,62.91783172724982,2025-03-06 14h44.19.309992 -0500,
125,125,0,critical,hdw,35.0,2.1,upper,200.0,125.0,127.0,127.0,125.0,200.0,3,3.2365572452545166,None,,,,,0,0,0,0,0,125,125,21,844.8759348392487,,,,,,,,,,,,,,,,,,,,,,,,,,,,,,,,,,,,,,,,,,,,,,,,,,,,,,,,,,,,,,,,,,,,,,,,,,,,,,,,,200.0,125.0,127.0,127.0,125.0,200.0,2.1,2.12,-222,-273,0,-273,260,289,844.8612451553345,844.8612887859344,844.8635408878326,844.8759348392487,845.0260353088379,845.0260353088379,845.0260353088379,845.0260353088379,845.0260353088379,845.0260353088379,845.0260353088379,848.1271183490753,3,3.2365572452545166,None,,,,,,,,,,,,,,,,,,203,3,2025-03-06_14h44.08.215,comp,2024.2.4,62.91783172724982,2025-03-06 14h44.19.309992 -0500,
126,126,0,filler_random,None,None,None,None,None,None,None,None,None,None,1,8.316726446151733,None,,,,,0,0,0,0,0,126,126,166,848.1423780918121,,,,,,,,,,,,,,,,,,,,,,,,,,,,,,,,,,,,,,,,,,,,,,,,,,,,,,,,,,,,,,,,,,,,,,,,,,,,,,,,,131.76630689604252,152.966026114486,175.2867866481674,81.2934823290282,137.77526033923172,137.52965285672587,2.1,2.11,-213,279,0,280,205,-288,848.1280040740967,848.1280446052551,848.1304888725281,848.1423780918121,848.2926273345947,848.2926273345947,848.2926273345947,848.2926273345947,848.2926273345947,848.2926273345947,848.2926273345947,856.4605548381805,1,8.316726446151733,None,,,,,,,,,,,,,,,,,,203,3,2025-03-06_14h44.08.215,comp,2024.2.4,62.91783172724982,2025-03-06 14h44.19.309992 -0500,
127,127,0,filler_square,None,None,None,None,None,None,None,None,None,None,2,1.5170848369598389,None,,,,,0,0,0,0,0,127,127,174,856.4758923053741,,,,,,,,,,,,,,,,,,,,,,,,,,,,,,,,,,,,,,,,,,,,,,,,,,,,,,,,,,,,,,,,,,,,,,,,,,,,,,,,,72.09848958555594,83.42112657741103,121.46838973051426,121.46838973051426,116.18697398529964,61.295716831430816,2.2,2.22,-198,272,0,-268,187,-283,856.4614894390106,856.4615314006805,856.4638044834137,856.4758923053741,856.6258234977722,856.6258234977722,856.6258234977722,856.6258234977722,856.6258234977722,856.6258234977722,856.6258234977722,858.0102045536041,2,1.5170848369598389,None,,,,,,,,,,,,,,,,,,203,3,2025-03-06_14h44.08.215,comp,2024.2.4,62.91783172724982,2025-03-06 14h44.19.309992 -0500,
128,128,0,filler_random,None,None,None,None,None,None,None,None,None,None,1,1.095414161682129,None,,,,,0,0,0,0,0,128,128,151,858.0257501602173,,,,,,,,,,,,,,,,,,,,,,,,,,,,,,,,,,,,,,,,,,,,,,,,,,,,,,,,,,,,,,,,,,,,,,,,,,,,,,,,,144.53612276814485,153.66628545515204,106.53059187673102,112.77931632865462,67.83416487843685,103.60879023157037,4.0,4.1,-229,-273,0,17,204,-265,858.0111093521118,858.0111527442932,858.0131831169128,858.0257501602173,858.1757884025574,858.1757884025574,858.1757884025574,858.1757884025574,858.1757884025574,858.1757884025574,858.1757884025574,859.1270067691803,1,1.095414161682129,None,,,,,,,,,,,,,,,,,,203,3,2025-03-06_14h44.08.215,comp,2024.2.4,62.91783172724982,2025-03-06 14h44.19.309992 -0500,
129,129,0,critical,hwd,35.0,3.0,lower,133.0,57.0,57.0,133.0,70.0,70.0,2,3.1699812412261963,None,,,,,0,0,0,0,0,129,129,98,859.1424679756165,,,,,,,,,,,,,,,,,,,,,,,,,,,,,,,,,,,,,,,,,,,,,,,,,,,,,,,,,,,,,,,,,,,,,,,,,,,,,,,,,133.0,57.0,57.0,133.0,70.0,70.0,3.0,3.1,-191,254,0,13,198,-282,859.127804517746,859.1278455257416,859.1302099227905,859.1424679756165,859.2924072742462,859.2924072742462,859.2924072742462,859.2924072742462,859.2924072742462,859.2924072742462,859.2924072742462,862.3267223834991,2,3.1699812412261963,None,,,,,,,,,,,,,,,,,,203,3,2025-03-06_14h44.08.215,comp,2024.2.4,62.91783172724982,2025-03-06 14h44.19.309992 -0500,
130,130,0,critical,dhw,35.0,2.1,lower,70.0,70.0,133.0,57.0,57.0,133.0,2,1.9861905574798584,None,,,,,0,0,0,0,0,130,130,0,862.3421905040741,,,,,,,,,,,,,,,,,,,,,,,,,,,,,,,,,,,,,,,,,,,,,,,,,,,,,,,,,,,,,,,,,,,,,,,,,,,,,,,,,70.0,70.0,133.0,57.0,57.0,133.0,2.1,2.12,-160,-274,0,-272,191,276,862.3275303840637,862.3275713920593,862.3299007415771,862.3421905040741,862.4923372268677,862.4923372268677,862.4923372268677,862.4923372268677,862.4923372268677,862.4923372268677,862.4923372268677,864.3435852527618,2,1.9861905574798584,None,,,,,,,,,,,,,,,,,,203,3,2025-03-06_14h44.08.215,comp,2024.2.4,62.91783172724982,2025-03-06 14h44.19.309992 -0500,
131,131,0,critical,dhw,35.0,1.0,lower,70.0,70.0,133.0,57.0,57.0,133.0,3,2.7313318252563477,None,,,,,0,0,0,0,0,131,131,48,864.3588092327118,,,,,,,,,,,,,,,,,,,,,,,,,,,,,,,,,,,,,,,,,,,,,,,,,,,,,,,,,,,,,,,,,,,,,,,,,,,,,,,,,70.0,70.0,133.0,57.0,57.0,133.0,1.0,1.2,-160,7,0,13,191,-17,864.3443052768707,864.3443605899811,864.3465719223022,864.3588092327118,864.5089998245239,864.5089998245239,864.5089998245239,864.5089998245239,864.5089998245239,864.5089998245239,864.5089998245239,867.0943088531494,3,2.7313318252563477,None,,,,,,,,,,,,,,,,,,203,3,2025-03-06_14h44.08.215,comp,2024.2.4,62.91783172724982,2025-03-06 14h44.19.309992 -0500,
132,132,0,critical,hwd,35.0,1.0,upper,200.0,125.0,125.0,200.0,127.0,127.0,2,8.58721113204956,None,,,,,0,0,0,0,0,132,132,97,867.1097433567047,,,,,,,,,,,,,,,,,,,,,,,,,,,,,,,,,,,,,,,,,,,,,,,,,,,,,,,,,,,,,,,,,,,,,,,,,,,,,,,,,200.0,125.0,125.0,200.0,127.0,127.0,1.0,1.2,-258,3,0,-17,260,-12,867.0950920581818,867.095133304596,867.0971918106079,867.1097433567047,867.2598123550415,867.2598123550415,867.2598123550415,867.2598123550415,867.2598123550415,867.2598123550415,867.2598123550415,875.7102510929108,2,8.58721113204956,None,,,,,,,,,,,,,,,,,,203,3,2025-03-06_14h44.08.215,comp,2024.2.4,62.91783172724982,2025-03-06 14h44.19.309992 -0500,
133,133,0,critical,dhw,35.0,3.0,upper,127.0,127.0,200.0,125.0,125.0,200.0,2,3.949190378189087,None,,,,,0,0,0,0,0,133,133,51,875.7254803180695,,,,,,,,,,,,,,,,,,,,,,,,,,,,,,,,,,,,,,,,,,,,,,,,,,,,,,,,,,,,,,,,,,,,,,,,,,,,,,,,,127.0,127.0,200.0,125.0,125.0,200.0,3.0,3.1,-222,259,0,12,258,-276,875.7110552787781,875.711097240448,875.7136263847351,875.7254803180695,875.8758535385132,875.8758535385132,875.8758535385132,875.8758535385132,875.8758535385132,875.8758535385132,875.8758535385132,879.6770334243774,2,3.949190378189087,None,,,,,,,,,,,,,,,,,,203,3,2025-03-06_14h44.08.215,comp,2024.2.4,62.91783172724982,2025-03-06 14h44.19.309992 -0500,
134,134,0,filler_square,None,None,None,None,None,None,None,None,None,None,1,1.428708553314209,None,,,,,0,0,0,0,0,134,134,198,879.6924409866333,,,,,,,,,,,,,,,,,,,,,,,,,,,,,,,,,,,,,,,,,,,,,,,,,,,,,,,,,,,,,,,,,,,,,,,,,,,,,,,,,80.5013594021222,80.5013594021222,66.12948040635338,75.32763403060304,63.126493049640565,74.41363664313883,4.0,4.1,-174,-258,0,-18,171,-288,879.6781494617462,879.6781916618347,879.6802628040314,879.6924409866333,879.8422977924347,879.8422977924347,879.8422977924347,879.8422977924347,879.8422977924347,879.8422977924347,879.8422977924347,881.1266436576843,1,1.428708553314209,None,,,,,,,,,,,,,,,,,,203,3,2025-03-06_14h44.08.215,comp,2024.2.4,62.91783172724982,2025-03-06 14h44.19.309992 -0500,
135,135,0,critical,dhw,20.0,2.1,upper,141.0,141.0,200.0,125.0,125.0,200.0,3,13.121609449386597,None,,,,,0,0,0,0,0,135,135,27,881.1423811912537,,,,,,,,,,,,,,,,,,,,,,,,,,,,,,,,,,,,,,,,,,,,,,,,,,,,,,,,,,,,,,,,,,,,,,,,,,,,,,,,,141.0,141.0,200.0,125.0,125.0,200.0,2.1,2.12,-229,-264,0,-285,258,269,881.127418756485,881.1274597644806,881.1297357082367,881.1423811912537,881.2923657894135,881.2923657894135,881.2923657894135,881.2923657894135,881.2923657894135,881.2923657894135,881.2923657894135,894.2769532203674,3,13.121609449386597,None,,,,,,,,,,,,,,,,,,203,3,2025-03-06_14h44.08.215,comp,2024.2.4,62.91783172724982,2025-03-06 14h44.19.309992 -0500,
136,136,0,filler_random,None,None,None,None,None,None,None,None,None,None,2,3.6199984550476074,None,,,,,0,0,0,0,0,136,136,146,894.2920942306519,,,,,,,,,,,,,,,,,,,,,,,,,,,,,,,,,,,,,,,,,,,,,,,,,,,,,,,,,,,,,,,,,,,,,,,,,,,,,,,,,139.58687685685913,68.72735703538356,91.7303178067838,151.0790219208805,61.72950576995929,179.54418533627822,4.0,4.1,-206,-289,0,-6,261,-271,894.2778642177582,894.2779061794281,894.2799310684204,894.2920942306519,894.4421954154968,894.4421954154968,894.4421954154968,894.4421954154968,894.4421954154968,894.4421954154968,894.4421954154968,897.9266767501831,2,3.6199984550476074,None,,,,,,,,,,,,,,,,,,203,3,2025-03-06_14h44.08.215,comp,2024.2.4,62.91783172724982,2025-03-06 14h44.19.309992 -0500,
137,137,0,critical,whd,35.0,1.0,lower,57.0,133.0,133.0,57.0,70.0,70.0,2,8.132609605789185,None,,,,,0,0,0,0,0,137,137,84,897.9419679641724,,,,,,,,,,,,,,,,,,,,,,,,,,,,,,,,,,,,,,,,,,,,,,,,,,,,,,,,,,,,,,,,,,,,,,,,,,,,,,,,,57.0,133.0,133.0,57.0,70.0,70.0,1.0,1.2,-191,-8,0,-1,160,2,897.9274253845215,897.9274656772614,897.929749250412,897.9419679641724,898.0921611785889,898.0921611785889,898.0921611785889,898.0921611785889,898.0921611785889,898.0921611785889,898.0921611785889,906.0766303539276,2,8.132609605789185,None,,,,,,,,,,,,,,,,,,203,3,2025-03-06_14h44.08.215,comp,2024.2.4,62.91783172724982,2025-03-06 14h44.19.309992 -0500,
138,138,0,filler_random,None,None,None,None,None,None,None,None,None,None,1,1.5085389614105225,None,,,,,0,0,0,0,0,138,138,159,906.0922474861145,,,,,,,,,,,,,,,,,,,,,,,,,,,,,,,,,,,,,,,,,,,,,,,,,,,,,,,,,,,,,,,,,,,,,,,,,,,,,,,,,142.38009140815882,128.49536847404204,101.9980080912591,88.74587524930267,96.46176422623832,74.24149514867673,3.0,3.1,-205,271,0,-1,177,-265,906.0775370597839,906.0775799751282,906.0796051025391,906.0922474861145,906.2421445846558,906.2421445846558,906.2421445846558,906.2421445846558,906.2421445846558,906.2421445846558,906.2421445846558,907.6098666191101,1,1.5085389614105225,None,,,,,,,,,,,,,,,,,,203,3,2025-03-06_14h44.08.215,comp,2024.2.4,62.91783172724982,2025-03-06 14h44.19.309992 -0500,
139,139,0,filler_square,None,None,None,None,None,None,None,None,None,None,2,1.8003134727478027,None,,,,,0,0,0,0,0,139,139,171,907.625510931015,,,,,,,,,,,,,,,,,,,,,,,,,,,,,,,,,,,,,,,,,,,,,,,,,,,,,,,,,,,,,,,,,,,,,,,,,,,,,,,,,172.5492915450124,112.63430205444803,193.24296198764398,193.24296198764398,107.9390259428848,129.25539678039905,4.0,4.2,-249,-8,0,-257,257,-5,907.610818862915,907.6108601093292,907.6132826805115,907.625510931015,907.7757074832916,907.7757074832916,907.7757074832916,907.7757074832916,907.7757074832916,907.7757074832916,907.7757074832916,909.4433357715607,2,1.8003134727478027,None,,,,,,,,,,,,,,,,,,203,3,2025-03-06_14h44.08.215,comp,2024.2.4,62.91783172724982,2025-03-06 14h44.19.309992 -0500,
140,140,0,critical,whd,35.0,2.1,lower,57.0,133.0,133.0,57.0,70.0,70.0,2,2.805445671081543,None,,,,,0,0,0,0,0,140,140,36,909.458532333374,,,,,,,,,,,,,,,,,,,,,,,,,,,,,,,,,,,,,,,,,,,,,,,,,,,,,,,,,,,,,,,,,,,,,,,,,,,,,,,,,57.0,133.0,133.0,57.0,70.0,70.0,2.1,2.11,-191,269,0,255,160,-271,909.4441134929657,909.444153547287,909.4463074207306,909.458532333374,909.6090457439423,909.6090457439423,909.6090457439423,909.6090457439423,909.6090457439423,909.6090457439423,909.6090457439423,912.2769331932068,2,2.805445671081543,None,,,,,,,,,,,,,,,,,,203,3,2025-03-06_14h44.08.215,comp,2024.2.4,62.91783172724982,2025-03-06 14h44.19.309992 -0500,
