thisN,thisTrialN,thisRepN,effect,order,distance,config,diag,h_1,w_1,h_2,w_2,h_3,w_3,rect_choice.keys,rect_choice.rt,rect_choice.duration,instructions_loop.thisRepN,instructions_loop.thisTrialN,instructions_loop.thisN,instructions_loop.thisIndex,blocks.thisRepN,blocks.thisTrialN,blocks.thisN,blocks.thisIndex,trials.thisRepN,trials.thisTrialN,trials.thisN,trials.thisIndex,thisRow.t,notes,consent.started,agree_button.started,decline_button.started,consent_img.started,mouse.started,consent.stopped,agree_button.numClicks,agree_button.timesOn,agree_button.timesOff,decline_button.numClicks,decline_button.timesOn,decline_button.timesOff,mouse.x,mouse.y,mouse.leftButton,mouse.midButton,mouse.rightButton,mouse.time,mouse.clicked_name,exp_params.started,exp_params.stopped,welcome.started,welcome_text.started,welcome.stopped,instructions_1.started,instructions_1_text_1.started,instructions_1_text_2.started,key_resp.started,instructions_1.stopped,instructions_loop.key_resp.keys,instructions_loop.key_resp.rt,instructions_loop.key_resp.duration,instructions_2.started,instructions_2_text_1.started,instructions_2_text_2.started,key_resp_2.started,instructions_2.stopped,instructions_loop.key_resp_2.keys,instructions_loop.key_resp_2.rt,instructions_loop.key_resp_2.duration,instructions_3.started,instructions_3_text_1.started,r1_instr3.started,r2_instr3.started,r3_instr3.started,r1_instr3_label.started,r2_instr3_label.started,r3_instr3_label.started,instructions_3_text_3.started,instructions_3_text_4.started,key_resp_3.started,instructions_3.stopped,instructions_loop.key_resp_3.keys,instructions_loop.key_resp_3.rt,instructions_loop.key_resp_3.duration,instructions_4.started,instructions_4_text_1.started,instructions_4_text_3.started,instructions_4_text_2.started,key_resp_4.started,instructions_4.stopped,instructions_loop.key_resp_4.keys,instructions_loop.key_resp_4.rt,instructions_loop.key_resp_4.duration,instructions_5.started,instructions_5_text_1.started,instructions_5_text_2.started,key_resp_5.started,instructions_5.stopped,instructions_loop.key_resp_5.keys,instructions_loop.key_resp_5.rt,instructions_loop.key_resp_5.duration,start_exp.started,start_exp_text.started,key_resp_6.started,start_exp.stopped,key_resp_6.keys,key_resp_6.rt,key_resp_6.duration,h_1_tmp,w_1_tmp,h_2_tmp,w_2_tmp,h_3_tmp,w_3_tmp,config_tmp,config_tmp_1,r_1_x,r_1_y,r_2_x,r_2_y,r_3_x,r_3_y,pre_trial.started,pre_trial.stopped,choice_trial.started,rect_choice.started,r_1.started,r_2.started,r_3.started,r_1_label.started,r_2_label.started,r_3_label.started,prompt.started,choice_trial.stopped,trials.rect_choice.keys,trials.rect_choice.rt,trials.rect_choice.duration,end_block.started,end_block_text.started,end_block.stopped,end.started,end_text.started,key_resp_7.started,end.stopped,key_resp_7.keys,key_resp_7.rt,key_resp_7.duration,debriefing.started,debrief_form.started,end_debrief.started,debriefing.stopped,end_debrief.keys,end_debrief.rt,end_debrief.duration,participant,computer,date,expName,psychopyVersion,frameRate,expStart,
,,,,,,,,,,,,,,,,,,,,,,,,,,,,,,,0.014500617980957031,0.08304452896118164,0.08304452896118164,0.08304452896118164,0.014245033264160156,29.13029932975769,1,[29.04437232017517],[29.04439616203308],0,,,[-69.0],[-506.0],[1],[0],[0],[29.108408212661743],['agree_button'],,,,,,,,,,,,,,,,,,,,,,,,,,,,,,,,,,,,,,,,,,,,,,,,,,,,,,,,,,,,,,,,,,,,,,,,,,,,,,,,,,,,,,,,,,,,,,,,,,,,,,,,,,,204,4,2025-03-06_14h45.57.402,comp,2024.2.4,53.34913934003987,2025-03-06 14h48.17.899326 -0500,
,,,,,,,,,,,,,,,,,,,,,,,,,,,,,,,,,,,,,,,,,,,,,,,,,,29.13090682029724,29.130974292755127,,,,,,,,,,,,,,,,,,,,,,,,,,,,,,,,,,,,,,,,,,,,,,,,,,,,,,,,,,,,,,,,,,,,,,,,,,,,,,,,,,,,,,,,,,,,,,,,,,,,,,,,,204,4,2025-03-06_14h45.57.402,comp,2024.2.4,53.34913934003987,2025-03-06 14h48.17.899326 -0500,
,,,,,,,,,,,,,,,,,,,,,,,,,,,,,,,,,,,,,,,,,,,,,,,,,,,,29.131019115447998,29.1605327129364,31.144856214523315,,,,,,,,,,,,,,,,,,,,,,,,,,,,,,,,,,,,,,,,,,,,,,,,,,,,,,,,,,,,,,,,,,,,,,,,,,,,,,,,,,,,,,,,,,,,,,,,,,,,,,204,4,2025-03-06_14h45.57.402,comp,2024.2.4,53.34913934003987,2025-03-06 14h48.17.899326 -0500,
0,0,0,,,,,,,,,,,,,,,0,0,0,0,,,,,,,,,31.161734104156494,,,,,,,,,,,,,,,,,,,,,,,,,,31.14575982093811,31.161734104156494,31.161734104156494,32.64516258239746,37.149142026901245,space,4.484647750854492,None,37.14929819107056,37.164504051208496,37.164504051208496,38.667646646499634,45.28381323814392,space,6.613522052764893,None,45.283963680267334,45.313589096069336,45.313589096069336,45.313589096069336,45.313589096069336,45.313589096069336,45.313589096069336,45.313589096069336,45.313589096069336,45.313589096069336,46.785377740859985,51.948874711990356,space,5.143822908401489,None,51.94904184341431,51.968034744262695,51.968034744262695,51.968034744262695,53.45236682891846,57.90411615371704,space,4.436742782592773,None,57.90426468849182,57.919546127319336,57.919546127319336,59.41817378997803,62.257540464401245,space,2.831265449523926,None,62.25778818130493,62.27666449546814,62.27666449546814,64.2550151348114,space,1.9734063148498535,None,,,,,,,,,,,,,,,,,,,,,,,,,,,,,,,,,,,,,,,,,,,,,,,204,4,2025-03-06_14h45.57.402,comp,2024.2.4,53.34913934003987,2025-03-06 14h48.17.899326 -0500,
0,0,0,critical,dwh,20.0,2.1,lower,78.0,78.0,57.0,133.0,133.0,57.0,2,6.764761686325073,None,,,,,0,0,0,0,0,0,0,30,64.46907663345337,,,,,,,,,,,,,,,,,,,,,,,,,,,,,,,,,,,,,,,,,,,,,,,,,,,,,,,,,,,,,,,,,,,,,,,,,,,,,,,,,78.0,78.0,57.0,133.0,133.0,57.0,2.1,2.12,-202,-254,0,-267,191,250,64.45076847076416,64.4508273601532,64.45341205596924,64.46907663345337,64.61808228492737,64.61808228492737,64.61808228492737,64.61808228492737,64.61808228492737,64.61808228492737,64.61808228492737,71.2426118850708,2,6.764761686325073,None,,,,,,,,,,,,,,,,,,204,4,2025-03-06_14h45.57.402,comp,2024.2.4,53.34913934003987,2025-03-06 14h48.17.899326 -0500,
1,1,0,filler_square,None,None,None,None,None,None,None,None,None,None,1,4.1583075523376465,None,,,,,0,0,0,0,0,1,1,189,71.25895762443542,,,,,,,,,,,,,,,,,,,,,,,,,,,,,,,,,,,,,,,,,,,,,,,,,,,,,,,,,,,,,,,,,,,,,,,,,,,,,,,,,177.52189930044486,177.52189930044486,166.13234927215115,146.51165453422044,149.7406001891908,158.96401415769006,4.0,4.2,-258,-19,0,-260,249,12,71.24445104598999,71.24452829360962,71.24823379516602,71.25895762443542,71.4125828742981,71.4125828742981,71.4125828742981,71.4125828742981,71.4125828742981,71.4125828742981,71.4125828742981,75.42774438858032,1,4.1583075523376465,None,,,,,,,,,,,,,,,,,,204,4,2025-03-06_14h45.57.402,comp,2024.2.4,53.34913934003987,2025-03-06 14h48.17.899326 -0500,
2,2,0,catch,None,None,None,None,None,None,None,None,None,None,3,2.324768543243408,None,,,,,0,0,0,0,0,2,2,125,75.44522285461426,,,,,,,,,,,,,,,,,,,,,,,,,,,,,,,,,,,,,,,,,,,,,,,,,,,,,,,,,,,,,,,,,,,,,,,,,,,,,,,,,78,112,129,61,180,145,3.0,3.1,-182,268,0,-9,199,-252,75.430020570755,75.43010187149048,75.43402576446533,75.44522285461426,75.59930157661438,75.59930157661438,75.59930157661438,75.59930157661438,75.59930157661438,75.59930157661438,75.59930157661438,77.77643966674805,3,2.324768543243408,None,,,,,,,,,,,,,,,,,,204,4,2025-03-06_14h45.57.402,comp,2024.2.4,53.34913934003987,2025-03-06 14h48.17.899326 -0500,
3,3,0,critical,dhw,20.0,1.0,upper,141.0,141.0,200.0,125.0,125.0,200.0,2,3.519007444381714,None,,,,,0,0,0,0,0,3,3,55,77.79478096961975,,,,,,,,,,,,,,,,,,,,,,,,,,,,,,,,,,,,,,,,,,,,,,,,,,,,,,,,,,,,,,,,,,,,,,,,,,,,,,,,,141.0,141.0,200.0,125.0,125.0,200.0,1.0,1.1,-709,267,-480,254,-222,262,77.77800583839417,77.77808570861816,77.78158497810364,77.79478096961975,77.94512867927551,77.94512867927551,77.94512867927551,77.94512867927551,77.94512867927551,77.94512867927551,77.94512867927551,81.32095241546631,2,3.519007444381714,None,,,,,,,,,,,,,,,,,,204,4,2025-03-06_14h45.57.402,comp,2024.2.4,53.34913934003987,2025-03-06 14h48.17.899326 -0500,
4,4,0,catch,None,None,None,None,None,None,None,None,None,None,2,3.8697123527526855,None,,,,,0,0,0,0,0,4,4,124,81.3395004272461,,,,,,,,,,,,,,,,,,,,,,,,,,,,,,,,,,,,,,,,,,,,,,,,,,,,,,,,,,,,,,,,,,,,,,,,,,,,,,,,,89,101,135,190,77,113,2.1,2.12,-242,-280,0,-259,248,258,81.32293438911438,81.32301235198975,81.3263418674469,81.3395004272461,81.48014521598816,81.48014521598816,81.48014521598816,81.48014521598816,81.48014521598816,81.48014521598816,81.48014521598816,85.21463346481323,2,3.8697123527526855,None,,,,,,,,,,,,,,,,,,204,4,2025-03-06_14h45.57.402,comp,2024.2.4,53.34913934003987,2025-03-06 14h48.17.899326 -0500,
5,5,0,filler_square,None,None,None,None,None,None,None,None,None,None,1,2.274024248123169,None,,,,,0,0,0,0,0,5,5,198,85.23201560974121,,,,,,,,,,,,,,,,,,,,,,,,,,,,,,,,,,,,,,,,,,,,,,,,,,,,,,,,,,,,,,,,,,,,,,,,,,,,,,,,,171.287095670593,171.287095670593,131.6727492466303,155.35527037197235,67.70708129564917,76.9998397947758,2.2,2.22,-259,279,0,-263,212,-284,85.21685004234314,85.21693587303162,85.2211377620697,85.23201560974121,85.38069152832031,85.38069152832031,85.38069152832031,85.38069152832031,85.38069152832031,85.38069152832031,85.38069152832031,87.51477122306824,1,2.274024248123169,None,,,,,,,,,,,,,,,,,,204,4,2025-03-06_14h45.57.402,comp,2024.2.4,53.34913934003987,2025-03-06 14h48.17.899326 -0500,
6,6,0,critical,dwh,20.0,4.0,lower,78.0,78.0,57.0,133.0,133.0,57.0,3,2.7972607612609863,None,,,,,0,0,0,0,0,6,6,70,87.53226590156555,,,,,,,,,,,,,,,,,,,,,,,,,,,,,,,,,,,,,,,,,,,,,,,,,,,,,,,,,,,,,,,,,,,,,,,,,,,,,,,,,78.0,78.0,57.0,133.0,133.0,57.0,4.0,4.2,-202,-9,0,-271,191,-3,87.51643872261047,87.51659417152405,87.52060651779175,87.53226590156555,87.67871189117432,87.67871189117432,87.67871189117432,87.67871189117432,87.67871189117432,87.67871189117432,87.67871189117432,90.34624171257019,3,2.7972607612609863,None,,,,,,,,,,,,,,,,,,204,4,2025-03-06_14h45.57.402,comp,2024.2.4,53.34913934003987,2025-03-06 14h48.17.899326 -0500,
7,7,0,critical,hwd,35.0,3.0,lower,133.0,57.0,57.0,133.0,70.0,70.0,1,2.6387321949005127,None,,,,,0,0,0,0,0,7,7,98,90.36259627342224,,,,,,,,,,,,,,,,,,,,,,,,,,,,,,,,,,,,,,,,,,,,,,,,,,,,,,,,,,,,,,,,,,,,,,,,,,,,,,,,,133.0,57.0,57.0,133.0,70.0,70.0,3.0,3.2,-191,-265,0,-2,198,282,90.34779500961304,90.34787225723267,90.35132122039795,90.36259627342224,90.49924182891846,90.49924182891846,90.49924182891846,90.49924182891846,90.49924182891846,90.49924182891846,90.49924182891846,93.01533818244934,1,2.6387321949005127,None,,,,,,,,,,,,,,,,,,204,4,2025-03-06_14h45.57.402,comp,2024.2.4,53.34913934003987,2025-03-06 14h48.17.899326 -0500,
8,8,0,filler_square,None,None,None,None,None,None,None,None,None,None,3,2.0338730812072754,None,,,,,0,0,0,0,0,8,8,186,93.03150677680969,,,,,,,,,,,,,,,,,,,,,,,,,,,,,,,,,,,,,,,,,,,,,,,,,,,,,,,,,,,,,,,,,,,,,,,,,,,,,,,,,159.6201496074459,75.8571240622667,67.03746472044229,120.41057770391032,192.10753948372445,192.10753948372445,3.0,3.1,-194,255,0,-15,252,-260,93.0172278881073,93.0173077583313,93.0211911201477,93.03150677680969,93.1806652545929,93.1806652545929,93.1806652545929,93.1806652545929,93.1806652545929,93.1806652545929,93.1806652545929,95.06892800331116,3,2.0338730812072754,None,,,,,,,,,,,,,,,,,,204,4,2025-03-06_14h45.57.402,comp,2024.2.4,53.34913934003987,2025-03-06 14h48.17.899326 -0500,
9,9,0,critical,hwd,20.0,1.0,lower,133.0,57.0,57.0,133.0,78.0,78.0,1,3.811936855316162,None,,,,,0,0,0,0,0,9,9,102,95.08569025993347,,,,,,,,,,,,,,,,,,,,,,,,,,,,,,,,,,,,,,,,,,,,,,,,,,,,,,,,,,,,,,,,,,,,,,,,,,,,,,,,,133.0,57.0,57.0,133.0,78.0,78.0,1.0,1.3,289,-279,480,-252,682,-255,95.07059645652771,95.07073855400085,95.07479286193848,95.08569025993347,95.23367929458618,95.23367929458618,95.23367929458618,95.23367929458618,95.23367929458618,95.23367929458618,95.23367929458618,98.91677856445312,1,3.811936855316162,None,,,,,,,,,,,,,,,,,,204,4,2025-03-06_14h45.57.402,comp,2024.2.4,53.34913934003987,2025-03-06 14h48.17.899326 -0500,
10,10,0,filler_square,None,None,None,None,None,None,None,None,None,None,2,2.3283591270446777,None,,,,,0,0,0,0,0,10,10,203,98.93731045722961,,,,,,,,,,,,,,,,,,,,,,,,,,,,,,,,,,,,,,,,,,,,,,,,,,,,,,,,,,,,,,,,,,,,,,,,,,,,,,,,,128.0454410061838,115.69906212276484,194.99609276817424,194.99609276817424,87.80442494645469,112.4364435255165,2.2,2.22,-251,270,0,-271,250,-272,98.91857600212097,98.91865658760071,98.92201805114746,98.93731045722961,99.083655834198,99.083655834198,99.083655834198,99.083655834198,99.083655834198,99.083655834198,99.083655834198,101.26785492897034,2,2.3283591270446777,None,,,,,,,,,,,,,,,,,,204,4,2025-03-06_14h45.57.402,comp,2024.2.4,53.34913934003987,2025-03-06 14h48.17.899326 -0500,
11,11,0,filler_random,None,None,None,None,None,None,None,None,None,None,2,3.198300838470459,None,,,,,0,0,0,0,0,11,11,145,101.29097533226013,,,,,,,,,,,,,,,,,,,,,,,,,,,,,,,,,,,,,,,,,,,,,,,,,,,,,,,,,,,,,,,,,,,,,,,,,,,,,,,,,87.3717188679346,71.21984444236953,160.58217468565564,59.50228812929939,83.10107825357777,64.21097615477309,4.0,4.1,-161,-251,0,-15,158,-253,101.26972532272339,101.26985144615173,101.27329421043396,101.29097533226013,101.43589997291565,101.43589997291565,101.43589997291565,101.43589997291565,101.43589997291565,101.43589997291565,101.43589997291565,104.50275731086731,2,3.198300838470459,None,,,,,,,,,,,,,,,,,,204,4,2025-03-06_14h45.57.402,comp,2024.2.4,53.34913934003987,2025-03-06 14h48.17.899326 -0500,
12,12,0,critical,whd,20.0,3.0,upper,125.0,200.0,200.0,125.0,141.0,141.0,1,2.3618881702423096,None,,,,,0,0,0,0,0,12,12,93,104.51994514465332,,,,,,,,,,,,,,,,,,,,,,,,,,,,,,,,,,,,,,,,,,,,,,,,,,,,,,,,,,,,,,,,,,,,,,,,,,,,,,,,,125.0,200.0,200.0,125.0,141.0,141.0,3.0,3.2,-258,-253,0,5,229,285,104.50439953804016,104.50452494621277,104.5089795589447,104.51994514465332,104.67036867141724,104.67036867141724,104.67036867141724,104.67036867141724,104.67036867141724,104.67036867141724,104.67036867141724,106.88883209228516,1,2.3618881702423096,None,,,,,,,,,,,,,,,,,,204,4,2025-03-06_14h45.57.402,comp,2024.2.4,53.34913934003987,2025-03-06 14h48.17.899326 -0500,
13,13,0,critical,whd,35.0,2.1,upper,125.0,200.0,200.0,125.0,127.0,127.0,2,1.399580478668213,None,,,,,0,0,0,0,0,13,13,37,106.90565085411072,,,,,,,,,,,,,,,,,,,,,,,,,,,,,,,,,,,,,,,,,,,,,,,,,,,,,,,,,,,,,,,,,,,,,,,,,,,,,,,,,125.0,200.0,200.0,125.0,127.0,127.0,2.1,2.12,-258,-254,0,-256,222,268,106.89050102233887,106.89060091972351,106.89485812187195,106.90565085411072,107.05322551727295,107.05322551727295,107.05322551727295,107.05322551727295,107.05322551727295,107.05322551727295,107.05322551727295,108.32003617286682,2,1.399580478668213,None,,,,,,,,,,,,,,,,,,204,4,2025-03-06_14h45.57.402,comp,2024.2.4,53.34913934003987,2025-03-06 14h48.17.899326 -0500,
14,14,0,critical,dhw,35.0,1.0,upper,127.0,127.0,200.0,125.0,125.0,200.0,2,1.2655911445617676,None,,,,,0,0,0,0,0,14,14,49,108.33571290969849,,,,,,,,,,,,,,,,,,,,,,,,,,,,,,,,,,,,,,,,,,,,,,,,,,,,,,,,,,,,,,,,,,,,,,,,,,,,,,,,,127.0,127.0,200.0,125.0,125.0,200.0,1.0,1.2,-222,6,0,11,258,-14,108.32149243354797,108.32158613204956,108.32534408569336,108.33571290969849,108.48460340499878,108.48460340499878,108.48460340499878,108.48460340499878,108.48460340499878,108.48460340499878,108.48460340499878,109.61806321144104,2,1.2655911445617676,None,,,,,,,,,,,,,,,,,,204,4,2025-03-06_14h45.57.402,comp,2024.2.4,53.34913934003987,2025-03-06 14h48.17.899326 -0500,
15,15,0,critical,hdw,20.0,1.0,upper,200.0,125.0,141.0,141.0,125.0,200.0,1,1.8311824798583984,None,,,,,0,0,0,0,0,15,15,115,109.634037733078,,,,,,,,,,,,,,,,,,,,,,,,,,,,,,,,,,,,,,,,,,,,,,,,,,,,,,,,,,,,,,,,,,,,,,,,,,,,,,,,,200.0,125.0,141.0,141.0,125.0,200.0,1.0,1.1,-709,289,-480,268,-214,267,109.61958599090576,109.61966300010681,109.6229636669159,109.634037733078,109.77409887313843,109.77409887313843,109.77409887313843,109.77409887313843,109.77409887313843,109.77409887313843,109.77409887313843,111.47791337966919,1,1.8311824798583984,None,,,,,,,,,,,,,,,,,,204,4,2025-03-06_14h45.57.402,comp,2024.2.4,53.34913934003987,2025-03-06 14h48.17.899326 -0500,
16,16,0,critical,hdw,20.0,4.0,lower,133.0,57.0,78.0,78.0,57.0,133.0,3,2.9233105182647705,None,,,,,0,0,0,0,0,16,16,118,111.49505400657654,,,,,,,,,,,,,,,,,,,,,,,,,,,,,,,,,,,,,,,,,,,,,,,,,,,,,,,,,,,,,,,,,,,,,,,,,,,,,,,,,133.0,57.0,78.0,78.0,57.0,133.0,4.0,4.1,-164,-264,0,-9,202,-256,111.47948098182678,111.47958898544312,111.48332333564758,111.49505400657654,111.6421947479248,111.6421947479248,111.6421947479248,111.6421947479248,111.6421947479248,111.6421947479248,111.6421947479248,114.4220757484436,3,2.9233105182647705,None,,,,,,,,,,,,,,,,,,204,4,2025-03-06_14h45.57.402,comp,2024.2.4,53.34913934003987,2025-03-06 14h48.17.899326 -0500,
17,17,0,filler_square,None,None,None,None,None,None,None,None,None,None,3,1.4435398578643799,None,,,,,0,0,0,0,0,17,17,180,114.43862676620483,,,,,,,,,,,,,,,,,,,,,,,,,,,,,,,,,,,,,,,,,,,,,,,,,,,,,,,,,,,,,,,,,,,,,,,,,,,,,,,,,92.79771282370903,69.77218302465654,61.42017481348233,111.85802518561398,129.44975447035569,129.44975447035569,1.0,1.3,293,-288,480,-251,697,-275,114.4239296913147,114.42400670051575,114.42774105072021,114.43862676620483,114.58641695976257,114.58641695976257,114.58641695976257,114.58641695976257,114.58641695976257,114.58641695976257,114.58641695976257,115.8901379108429,3,1.4435398578643799,None,,,,,,,,,,,,,,,,,,204,4,2025-03-06_14h45.57.402,comp,2024.2.4,53.34913934003987,2025-03-06 14h48.17.899326 -0500,
18,18,0,critical,dhw,20.0,4.0,upper,141.0,141.0,200.0,125.0,125.0,200.0,2,6.9712464809417725,None,,,,,0,0,0,0,0,18,18,59,115.91062188148499,,,,,,,,,,,,,,,,,,,,,,,,,,,,,,,,,,,,,,,,,,,,,,,,,,,,,,,,,,,,,,,,,,,,,,,,,,,,,,,,,141.0,141.0,200.0,125.0,125.0,200.0,4.0,4.2,-229,-10,0,-268,258,-14,115.89166498184204,115.89174032211304,115.89505314826965,115.91062188148499,116.05608367919922,116.05608367919922,116.05608367919922,116.05608367919922,116.05608367919922,116.05608367919922,116.05608367919922,122.89285683631897,2,6.9712464809417725,None,,,,,,,,,,,,,,,,,,204,4,2025-03-06_14h45.57.402,comp,2024.2.4,53.34913934003987,2025-03-06 14h48.17.899326 -0500,
19,19,0,filler_square,None,None,None,None,None,None,None,None,None,None,3,1.585094690322876,None,,,,,0,0,0,0,0,19,19,199,122.91207003593445,,,,,,,,,,,,,,,,,,,,,,,,,,,,,,,,,,,,,,,,,,,,,,,,,,,,,,,,,,,,,,,,,,,,,,,,,,,,,,,,,59.91582651495109,69.93423553434084,101.69721247880094,64.76679338784149,123.3772586975782,123.3772586975782,4.0,4.2,-163,-2,0,-271,190,1,122.89482116699219,122.89490246772766,122.89903092384338,122.91207003593445,123.05837631225586,123.05837631225586,123.05837631225586,123.05837631225586,123.05837631225586,123.05837631225586,123.05837631225586,124.51391410827637,3,1.585094690322876,None,,,,,,,,,,,,,,,,,,204,4,2025-03-06_14h45.57.402,comp,2024.2.4,53.34913934003987,2025-03-06 14h48.17.899326 -0500,
20,20,0,catch,None,None,None,None,None,None,None,None,None,None,3,1.284114122390747,None,,,,,0,0,0,0,0,20,20,122,124.53395295143127,,,,,,,,,,,,,,,,,,,,,,,,,,,,,,,,,,,,,,,,,,,,,,,,,,,,,,,,,,,,,,,,,,,,,,,,,,,,,,,,,65,125,128,62,190,135,2.1,2.11,-190,267,0,277,194,-250,124.5157859325409,124.51586103439331,124.51917266845703,124.53395295143127,124.6775963306427,124.6775963306427,124.6775963306427,124.6775963306427,124.6775963306427,124.6775963306427,124.6775963306427,125.82687020301819,3,1.284114122390747,None,,,,,,,,,,,,,,,,,,204,4,2025-03-06_14h45.57.402,comp,2024.2.4,53.34913934003987,2025-03-06 14h48.17.899326 -0500,
21,21,0,filler_square,None,None,None,None,None,None,None,None,None,None,3,1.5971157550811768,None,,,,,0,0,0,0,0,21,21,190,125.84412240982056,,,,,,,,,,,,,,,,,,,,,,,,,,,,,,,,,,,,,,,,,,,,,,,,,,,,,,,,,,,,,,,,,,,,,,,,,,,,,,,,,57.15925292913322,75.44550602255659,72.26227301624108,63.38742236558537,82.41539047687876,82.41539047687876,1.0,1.2,-165,-16,0,-13,169,8,125.82888722419739,125.82896423339844,125.83299469947815,125.84412240982056,125.9958086013794,125.9958086013794,125.9958086013794,125.9958086013794,125.9958086013794,125.9958086013794,125.9958086013794,127.4432487487793,3,1.5971157550811768,None,,,,,,,,,,,,,,,,,,204,4,2025-03-06_14h45.57.402,comp,2024.2.4,53.34913934003987,2025-03-06 14h48.17.899326 -0500,
22,22,0,filler_square,None,None,None,None,None,None,None,None,None,None,3,1.7973871231079102,None,,,,,0,0,0,0,0,22,22,194,127.46014213562012,,,,,,,,,,,,,,,,,,,,,,,,,,,,,,,,,,,,,,,,,,,,,,,,,,,,,,,,,,,,,,,,,,,,,,,,,,,,,,,,,86.3395659672278,62.03029274448339,85.32969344220568,73.30815532216816,92.8228894047715,92.8228894047715,2.2,2.21,-164,-251,0,280,179,275,127.44553875923157,127.44565606117249,127.44941425323486,127.46014213562012,127.60927772521973,127.60927772521973,127.60927772521973,127.60927772521973,127.60927772521973,127.60927772521973,127.60927772521973,129.2759861946106,3,1.7973871231079102,None,,,,,,,,,,,,,,,,,,204,4,2025-03-06_14h45.57.402,comp,2024.2.4,53.34913934003987,2025-03-06 14h48.17.899326 -0500,
23,23,0,filler_square,None,None,None,None,None,None,None,None,None,None,1,1.519563913345337,None,,,,,0,0,0,0,0,23,23,187,129.289936542511,,,,,,,,,,,,,,,,,,,,,,,,,,,,,,,,,,,,,,,,,,,,,,,,,,,,,,,,,,,,,,,,,,,,,,,,,,,,,,,,,161.1116490427853,161.1116490427853,69.5588440077747,112.03349234421185,68.66293445960942,107.68490653222662,1.0,1.1,-713,271,-480,263,-274,262,129.27793908119202,129.2780146598816,129.2797303199768,129.289936542511,129.45265674591064,129.45265674591064,129.45265674591064,129.45265674591064,129.45265674591064,129.45265674591064,129.45265674591064,130.82796621322632,1,1.519563913345337,None,,,,,,,,,,,,,,,,,,204,4,2025-03-06_14h45.57.402,comp,2024.2.4,53.34913934003987,2025-03-06 14h48.17.899326 -0500,
24,24,0,critical,hdw,20.0,3.0,upper,200.0,125.0,141.0,141.0,125.0,200.0,1,3.1170730590820312,None,,,,,0,0,0,0,0,24,24,117,130.84432458877563,,,,,,,,,,,,,,,,,,,,,,,,,,,,,,,,,,,,,,,,,,,,,,,,,,,,,,,,,,,,,,,,,,,,,,,,,,,,,,,,,200.0,125.0,141.0,141.0,125.0,200.0,3.0,3.2,-229,-286,0,-19,266,272,130.829163312912,130.82920455932617,130.8319549560547,130.84432458877563,130.99424839019775,130.99424839019775,130.99424839019775,130.99424839019775,130.99424839019775,130.99424839019775,130.99424839019775,133.9642515182495,1,3.1170730590820312,None,,,,,,,,,,,,,,,,,,204,4,2025-03-06_14h45.57.402,comp,2024.2.4,53.34913934003987,2025-03-06 14h48.17.899326 -0500,
25,25,0,critical,wdh,20.0,3.0,upper,125.0,200.0,141.0,141.0,200.0,125.0,1,2.6418073177337646,None,,,,,0,0,0,0,0,25,25,81,133.98377084732056,,,,,,,,,,,,,,,,,,,,,,,,,,,,,,,,,,,,,,,,,,,,,,,,,,,,,,,,,,,,,,,,,,,,,,,,,,,,,,,,,125.0,200.0,141.0,141.0,200.0,125.0,3.0,3.2,-266,-265,0,12,229,274,133.9657907485962,133.96584916114807,133.96839833259583,133.98377084732056,134.1287727355957,134.1287727355957,134.1287727355957,134.1287727355957,134.1287727355957,134.1287727355957,134.1287727355957,136.6282250881195,1,2.6418073177337646,None,,,,,,,,,,,,,,,,,,204,4,2025-03-06_14h45.57.402,comp,2024.2.4,53.34913934003987,2025-03-06 14h48.17.899326 -0500,
26,26,0,critical,hwd,20.0,3.0,lower,133.0,57.0,57.0,133.0,78.0,78.0,1,4.631931781768799,None,,,,,0,0,0,0,0,26,26,104,136.64929246902466,,,,,,,,,,,,,,,,,,,,,,,,,,,,,,,,,,,,,,,,,,,,,,,,,,,,,,,,,,,,,,,,,,,,,,,,,,,,,,,,,133.0,57.0,57.0,133.0,78.0,78.0,3.0,3.2,-191,-285,0,0,202,262,136.6298325061798,136.62991428375244,136.63358068466187,136.64929246902466,136.7960422039032,136.7960422039032,136.7960422039032,136.7960422039032,136.7960422039032,136.7960422039032,136.7960422039032,141.29709148406982,1,4.631931781768799,None,,,,,,,,,,,,,,,,,,204,4,2025-03-06_14h45.57.402,comp,2024.2.4,53.34913934003987,2025-03-06 14h48.17.899326 -0500,
27,27,0,filler_random,None,None,None,None,None,None,None,None,None,None,1,3.03947114944458,None,,,,,0,0,0,0,0,27,27,148,141.31372117996216,,,,,,,,,,,,,,,,,,,,,,,,,,,,,,,,,,,,,,,,,,,,,,,,,,,,,,,,,,,,,,,,,,,,,,,,,,,,,,,,,167.53834408428025,174.09659919339498,145.01919080253464,127.24967804322631,192.24948007948768,125.82457239841395,2.1,2.12,-247,-273,0,-255,223,264,141.29884028434753,141.29891443252563,141.30244255065918,141.31372117996216,141.4715232849121,141.4715232849121,141.4715232849121,141.4715232849121,141.4715232849121,141.4715232849121,141.4715232849121,144.365309715271,1,3.03947114944458,None,,,,,,,,,,,,,,,,,,204,4,2025-03-06_14h45.57.402,comp,2024.2.4,53.34913934003987,2025-03-06 14h48.17.899326 -0500,
28,28,0,filler_square,None,None,None,None,None,None,None,None,None,None,2,3.7931041717529297,None,,,,,0,0,0,0,0,28,28,205,144.3844256401062,,,,,,,,,,,,,,,,,,,,,,,,,,,,,,,,,,,,,,,,,,,,,,,,,,,,,,,,,,,,,,,,,,,,,,,,,,,,,,,,,88.56450479062005,92.40870198756706,94.2648276609361,94.2648276609361,93.21514134106721,61.70645498531474,3.0,3.2,-189,-261,0,18,174,262,144.36732983589172,144.36740970611572,144.37125396728516,144.3844256401062,144.537859916687,144.537859916687,144.537859916687,144.537859916687,144.537859916687,144.537859916687,144.537859916687,148.18316316604614,2,3.7931041717529297,None,,,,,,,,,,,,,,,,,,204,4,2025-03-06_14h45.57.402,comp,2024.2.4,53.34913934003987,2025-03-06 14h48.17.899326 -0500,
29,29,0,catch,None,None,None,None,None,None,None,None,None,None,3,3.493683099746704,None,,,,,0,0,0,0,0,29,29,129,148.20429396629333,,,,,,,,,,,,,,,,,,,,,,,,,,,,,,,,,,,,,,,,,,,,,,,,,,,,,,,,,,,,,,,,,,,,,,,,,,,,,,,,,125,65,98,92,134,191,3.0,3.1,-174,254,0,14,238,-250,148.18513178825378,148.18521237373352,148.18948125839233,148.20429396629333,148.33865070343018,148.33865070343018,148.33865070343018,148.33865070343018,148.33865070343018,148.33865070343018,148.33865070343018,151.7016143798828,3,3.493683099746704,None,,,,,,,,,,,,,,,,,,204,4,2025-03-06_14h45.57.402,comp,2024.2.4,53.34913934003987,2025-03-06 14h48.17.899326 -0500,
30,30,0,filler_square,None,None,None,None,None,None,None,None,None,None,1,3.2522592544555664,None,,,,,0,0,0,0,0,30,30,174,151.71698474884033,,,,,,,,,,,,,,,,,,,,,,,,,,,,,,,,,,,,,,,,,,,,,,,,,,,,,,,,,,,,,,,,,,,,,,,,,,,,,,,,,102.55696379118874,102.55696379118874,88.03937702135383,65.37775571016141,89.85437026633856,93.29843007603581,3.0,3.1,-180,274,0,16,175,-275,151.70289731025696,151.70291924476624,151.70620918273926,151.71698474884033,151.86946392059326,151.86946392059326,151.86946392059326,151.86946392059326,151.86946392059326,151.86946392059326,151.86946392059326,154.98782348632812,1,3.2522592544555664,None,,,,,,,,,,,,,,,,,,204,4,2025-03-06_14h45.57.402,comp,2024.2.4,53.34913934003987,2025-03-06 14h48.17.899326 -0500,
31,31,0,critical,hwd,20.0,2.1,lower,133.0,57.0,57.0,133.0,78.0,78.0,1,4.5498878955841064,None,,,,,0,0,0,0,0,31,31,42,155.00338578224182,,,,,,,,,,,,,,,,,,,,,,,,,,,,,,,,,,,,,,,,,,,,,,,,,,,,,,,,,,,,,,,,,,,,,,,,,,,,,,,,,133.0,57.0,57.0,133.0,78.0,78.0,2.1,2.12,-191,-273,0,-282,202,256,154.9894576072693,154.98953342437744,154.993008852005,155.00338578224182,155.1516396999359,155.1516396999359,155.1516396999359,155.1516396999359,155.1516396999359,155.1516396999359,155.1516396999359,159.5707302093506,1,4.5498878955841064,None,,,,,,,,,,,,,,,,,,204,4,2025-03-06_14h45.57.402,comp,2024.2.4,53.34913934003987,2025-03-06 14h48.17.899326 -0500,
32,32,0,filler_random,None,None,None,None,None,None,None,None,None,None,2,2.3421123027801514,None,,,,,0,0,0,0,0,32,32,157,159.5877342224121,,,,,,,,,,,,,,,,,,,,,,,,,,,,,,,,,,,,,,,,,,,,,,,,,,,,,,,,,,,,,,,,,,,,,,,,,,,,,,,,,102.56674702699827,194.02079626897654,180.55040101721704,111.38953319392863,161.47952944112194,77.79011313690465,2.2,2.22,-249,266,0,-278,191,-266,159.57240271568298,159.57248973846436,159.5760943889618,159.5877342224121,159.73761105537415,159.73761105537415,159.73761105537415,159.73761105537415,159.73761105537415,159.73761105537415,159.73761105537415,161.9394404888153,2,2.3421123027801514,None,,,,,,,,,,,,,,,,,,204,4,2025-03-06_14h45.57.402,comp,2024.2.4,53.34913934003987,2025-03-06 14h48.17.899326 -0500,
33,33,0,critical,hdw,35.0,2.1,upper,200.0,125.0,127.0,127.0,125.0,200.0,1,1.773937702178955,None,,,,,0,0,0,0,0,33,33,45,161.95601224899292,,,,,,,,,,,,,,,,,,,,,,,,,,,,,,,,,,,,,,,,,,,,,,,,,,,,,,,,,,,,,,,,,,,,,,,,,,,,,,,,,200.0,125.0,127.0,127.0,125.0,200.0,2.1,2.12,-222,-267,0,-272,260,272,161.94161939620972,161.94170546531677,161.94515132904053,161.95601224899292,162.1034824848175,162.1034824848175,162.1034824848175,162.1034824848175,162.1034824848175,162.1034824848175,162.1034824848175,163.73877573013306,1,1.773937702178955,None,,,,,,,,,,,,,,,,,,204,4,2025-03-06_14h45.57.402,comp,2024.2.4,53.34913934003987,2025-03-06 14h48.17.899326 -0500,
34,34,0,filler_random,None,None,None,None,None,None,None,None,None,None,3,3.830535650253296,None,,,,,0,0,0,0,0,34,34,155,163.75540924072266,,,,,,,,,,,,,,,,,,,,,,,,,,,,,,,,,,,,,,,,,,,,,,,,,,,,,,,,,,,,,,,,,,,,,,,,,,,,,,,,,68.18702325996921,100.93739809142659,122.58961635159807,65.06270286992688,126.90804150792654,96.53810119691323,4.0,4.2,-179,10,0,-255,177,14,163.74047327041626,163.74062943458557,163.74454808235168,163.75540924072266,163.90309476852417,163.90309476852417,163.90309476852417,163.90309476852417,163.90309476852417,163.90309476852417,163.90309476852417,167.5888671875,3,3.830535650253296,None,,,,,,,,,,,,,,,,,,204,4,2025-03-06_14h45.57.402,comp,2024.2.4,53.34913934003987,2025-03-06 14h48.17.899326 -0500,
35,35,0,filler_square,None,None,None,None,None,None,None,None,None,None,1,1.3632616996765137,None,,,,,0,0,0,0,0,35,35,201,167.60638236999512,,,,,,,,,,,,,,,,,,,,,,,,,,,,,,,,,,,,,,,,,,,,,,,,,,,,,,,,,,,,,,,,,,,,,,,,,,,,,,,,,178.63619973994406,178.63619973994406,127.21533086591275,93.90186816462875,90.22731904626544,72.90357858502824,1.0,1.3,248,-255,480,-282,659,-287,167.5907108783722,167.59078860282898,167.594744682312,167.60638236999512,167.75471448898315,167.75471448898315,167.75471448898315,167.75471448898315,167.75471448898315,167.75471448898315,167.75471448898315,168.97435188293457,1,1.3632616996765137,None,,,,,,,,,,,,,,,,,,204,4,2025-03-06_14h45.57.402,comp,2024.2.4,53.34913934003987,2025-03-06 14h48.17.899326 -0500,
36,36,0,critical,dwh,35.0,3.0,upper,127.0,127.0,125.0,200.0,200.0,125.0,2,1.8436272144317627,None,,,,,0,0,0,0,0,36,36,63,168.99011945724487,,,,,,,,,,,,,,,,,,,,,,,,,,,,,,,,,,,,,,,,,,,,,,,,,,,,,,,,,,,,,,,,,,,,,,,,,,,,,,,,,127.0,127.0,125.0,200.0,200.0,125.0,3.0,3.2,-260,-267,0,7,258,286,168.9758734703064,168.97595119476318,168.97940278053284,168.99011945724487,169.14226460456848,169.14226460456848,169.14226460456848,169.14226460456848,169.14226460456848,169.14226460456848,169.14226460456848,170.8442416191101,2,1.8436272144317627,None,,,,,,,,,,,,,,,,,,204,4,2025-03-06_14h45.57.402,comp,2024.2.4,53.34913934003987,2025-03-06 14h48.17.899326 -0500,
37,37,0,critical,hdw,35.0,4.0,upper,200.0,125.0,127.0,127.0,125.0,200.0,1,1.3555233478546143,None,,,,,0,0,0,0,0,37,37,113,170.86234402656555,,,,,,,,,,,,,,,,,,,,,,,,,,,,,,,,,,,,,,,,,,,,,,,,,,,,,,,,,,,,,,,,,,,,,,,,,,,,,,,,,200.0,125.0,127.0,127.0,125.0,200.0,4.0,4.1,-222,-259,0,4,260,-266,170.84585547447205,170.84593629837036,170.84930205345154,170.86234402656555,171.00746154785156,171.00746154785156,171.00746154785156,171.00746154785156,171.00746154785156,171.00746154785156,171.00746154785156,172.22223353385925,1,1.3555233478546143,None,,,,,,,,,,,,,,,,,,204,4,2025-03-06_14h45.57.402,comp,2024.2.4,53.34913934003987,2025-03-06 14h48.17.899326 -0500,
38,38,0,critical,dwh,20.0,3.0,lower,78.0,78.0,57.0,133.0,133.0,57.0,3,2.7550017833709717,None,,,,,0,0,0,0,0,38,38,68,172.23906230926514,,,,,,,,,,,,,,,,,,,,,,,,,,,,,,,,,,,,,,,,,,,,,,,,,,,,,,,,,,,,,,,,,,,,,,,,,,,,,,,,,78.0,78.0,57.0,133.0,133.0,57.0,3.0,3.1,-202,286,0,-6,191,-256,172.2238323688507,172.2239112854004,172.2274227142334,172.23906230926514,172.37921118736267,172.37921118736267,172.37921118736267,172.37921118736267,172.37921118736267,172.37921118736267,172.37921118736267,175.012690782547,3,2.7550017833709717,None,,,,,,,,,,,,,,,,,,204,4,2025-03-06_14h45.57.402,comp,2024.2.4,53.34913934003987,2025-03-06 14h48.17.899326 -0500,
39,39,0,filler_square,None,None,None,None,None,None,None,None,None,None,1,1.529876470565796,None,,,,,0,0,0,0,0,39,39,191,175.0314314365387,,,,,,,,,,,,,,,,,,,,,,,,,,,,,,,,,,,,,,,,,,,,,,,,,,,,,,,,,,,,,,,,,,,,,,,,,,,,,,,,,132.8681745519934,132.8681745519934,130.75261497189038,117.1488351579946,89.91500593720983,120.66223276276457,4.0,4.2,-221,11,0,-263,215,-5,175.01470494270325,175.01478457450867,175.01866817474365,175.0314314365387,175.1755211353302,175.1755211353302,175.1755211353302,175.1755211353302,175.1755211353302,175.1755211353302,175.1755211353302,176.58091735839844,1,1.529876470565796,None,,,,,,,,,,,,,,,,,,204,4,2025-03-06_14h45.57.402,comp,2024.2.4,53.34913934003987,2025-03-06 14h48.17.899326 -0500,
40,40,0,filler_square,None,None,None,None,None,None,None,None,None,None,2,1.6878166198730469,None,,,,,0,0,0,0,0,40,40,197,176.6014211177826,,,,,,,,,,,,,,,,,,,,,,,,,,,,,,,,,,,,,,,,,,,,,,,,,,,,,,,,,,,,,,,,,,,,,,,,,,,,,,,,,83.15613971896461,87.72711239527385,172.53669141351548,172.53669141351548,65.83714033340998,163.31425590290453,2.2,2.22,-226,273,0,-259,264,-262,176.58281230926514,176.58288884162903,176.58620309829712,176.6014211177826,176.74220514297485,176.74220514297485,176.74220514297485,176.74220514297485,176.74220514297485,176.74220514297485,176.74220514297485,178.29213333129883,2,1.6878166198730469,None,,,,,,,,,,,,,,,,,,204,4,2025-03-06_14h45.57.402,comp,2024.2.4,53.34913934003987,2025-03-06 14h48.17.899326 -0500,
41,41,0,filler_random,None,None,None,None,None,None,None,None,None,None,2,1.9583311080932617,None,,,,,0,0,0,0,0,41,41,156,178.3070957660675,,,,,,,,,,,,,,,,,,,,,,,,,,,,,,,,,,,,,,,,,,,,,,,,,,,,,,,,,,,,,,,,,,,,,,,,,,,,,,,,,142.91826626910782,124.97293944371246,139.41569274271552,173.06300302767045,105.06153510192448,171.3813407362316,1.0,1.1,-725,261,-480,266,-212,257,178.2930030822754,178.29303240776062,178.29452180862427,178.3070957660675,178.44868922233582,178.44868922233582,178.44868922233582,178.44868922233582,178.44868922233582,178.44868922233582,178.44868922233582,180.27774119377136,2,1.9583311080932617,None,,,,,,,,,,,,,,,,,,204,4,2025-03-06_14h45.57.402,comp,2024.2.4,53.34913934003987,2025-03-06 14h48.17.899326 -0500,
42,42,0,critical,whd,20.0,2.1,upper,125.0,200.0,200.0,125.0,141.0,141.0,1,1.75484037399292,None,,,,,0,0,0,0,0,42,42,39,180.29515719413757,,,,,,,,,,,,,,,,,,,,,,,,,,,,,,,,,,,,,,,,,,,,,,,,,,,,,,,,,,,,,,,,,,,,,,,,,,,,,,,,,125.0,200.0,200.0,125.0,141.0,141.0,2.1,2.11,-258,279,0,284,229,-256,180.27931833267212,180.2793960571289,180.28312587738037,180.29515719413757,180.44858860969543,180.44858860969543,180.44858860969543,180.44858860969543,180.44858860969543,180.44858860969543,180.44858860969543,182.05712962150574,1,1.75484037399292,None,,,,,,,,,,,,,,,,,,204,4,2025-03-06_14h45.57.402,comp,2024.2.4,53.34913934003987,2025-03-06 14h48.17.899326 -0500,
43,43,0,critical,dwh,20.0,1.0,lower,78.0,78.0,57.0,133.0,133.0,57.0,3,2.2547669410705566,None,,,,,0,0,0,0,0,43,43,66,182.07453966140747,,,,,,,,,,,,,,,,,,,,,,,,,,,,,,,,,,,,,,,,,,,,,,,,,,,,,,,,,,,,,,,,,,,,,,,,,,,,,,,,,78.0,78.0,57.0,133.0,133.0,57.0,1.0,1.2,-202,3,0,4,191,18,182.0587432384491,182.05882263183594,182.0624644756317,182.07453966140747,182.22907757759094,182.22907757759094,182.22907757759094,182.22907757759094,182.22907757759094,182.22907757759094,182.22907757759094,184.3462438583374,3,2.2547669410705566,None,,,,,,,,,,,,,,,,,,204,4,2025-03-06_14h45.57.402,comp,2024.2.4,53.34913934003987,2025-03-06 14h48.17.899326 -0500,
44,44,0,critical,whd,20.0,4.0,lower,57.0,133.0,133.0,57.0,78.0,78.0,2,1.592287540435791,None,,,,,0,0,0,0,0,44,44,94,184.36183977127075,,,,,,,,,,,,,,,,,,,,,,,,,,,,,,,,,,,,,,,,,,,,,,,,,,,,,,,,,,,,,,,,,,,,,,,,,,,,,,,,,57.0,133.0,133.0,57.0,78.0,78.0,4.0,4.2,-191,0,0,-285,164,-20,184.34783291816711,184.3479084968567,184.3514952659607,184.36183977127075,184.51120853424072,184.51120853424072,184.51120853424072,184.51120853424072,184.51120853424072,184.51120853424072,184.51120853424072,185.96012330055237,2,1.592287540435791,None,,,,,,,,,,,,,,,,,,204,4,2025-03-06_14h45.57.402,comp,2024.2.4,53.34913934003987,2025-03-06 14h48.17.899326 -0500,
45,45,0,filler_random,None,None,None,None,None,None,None,None,None,None,2,1.1925363540649414,None,,,,,0,0,0,0,0,45,45,139,185.97699689865112,,,,,,,,,,,,,,,,,,,,,,,,,,,,,,,,,,,,,,,,,,,,,,,,,,,,,,,,,,,,,,,,,,,,,,,,,,,,,,,,,173.03646224350524,87.09156821396684,155.20385543846902,196.34047865403082,80.95234533271442,90.53215071389569,3.0,3.1,-238,258,0,18,239,-268,185.96183443069458,185.96191120147705,185.96541666984558,185.97699689865112,186.13310194015503,186.13310194015503,186.13310194015503,186.13310194015503,186.13310194015503,186.13310194015503,186.13310194015503,187.18687534332275,2,1.1925363540649414,None,,,,,,,,,,,,,,,,,,204,4,2025-03-06_14h45.57.402,comp,2024.2.4,53.34913934003987,2025-03-06 14h48.17.899326 -0500,
46,46,0,catch,None,None,None,None,None,None,None,None,None,None,1,1.287198543548584,None,,,,,0,0,0,0,0,46,46,123,187.20261597633362,,,,,,,,,,,,,,,,,,,,,,,,,,,,,,,,,,,,,,,,,,,,,,,,,,,,,,,,,,,,,,,,,,,,,,,,,,,,,,,,,127,198,119,71,102,88,1.0,1.3,250,-269,480,-288,656,-284,187.1888120174408,187.18888926506042,187.19216537475586,187.20261597633362,187.34857940673828,187.34857940673828,187.34857940673828,187.34857940673828,187.34857940673828,187.34857940673828,187.34857940673828,188.49421882629395,1,1.287198543548584,None,,,,,,,,,,,,,,,,,,204,4,2025-03-06_14h45.57.402,comp,2024.2.4,53.34913934003987,2025-03-06 14h48.17.899326 -0500,
47,47,0,filler_random,None,None,None,None,None,None,None,None,None,None,1,1.6231098175048828,None,,,,,0,0,0,0,0,47,47,167,188.51495504379272,,,,,,,,,,,,,,,,,,,,,,,,,,,,,,,,,,,,,,,,,,,,,,,,,,,,,,,,,,,,,,,,,,,,,,,,,,,,,,,,,125.68222727167921,128.27759071978846,89.13093783440775,80.32848863070498,60.276478466695444,72.04090947582134,4.0,4.2,-200,18,0,-265,172,-3,188.49600744247437,188.49608778953552,188.49972701072693,188.51495504379272,188.65000295639038,188.65000295639038,188.65000295639038,188.65000295639038,188.65000295639038,188.65000295639038,188.65000295639038,190.14537644386292,1,1.6231098175048828,None,,,,,,,,,,,,,,,,,,204,4,2025-03-06_14h45.57.402,comp,2024.2.4,53.34913934003987,2025-03-06 14h48.17.899326 -0500,
48,48,0,critical,hdw,35.0,1.0,lower,133.0,57.0,70.0,70.0,57.0,133.0,3,1.8209731578826904,None,,,,,0,0,0,0,0,48,48,108,190.16431522369385,,,,,,,,,,,,,,,,,,,,,,,,,,,,,,,,,,,,,,,,,,,,,,,,,,,,,,,,,,,,,,,,,,,,,,,,,,,,,,,,,133.0,57.0,70.0,70.0,57.0,133.0,1.0,1.1,-640,267,-480,286,-282,264,190.14692568778992,190.14700150489807,190.150981426239,190.16431522369385,190.31450963020325,190.31450963020325,190.31450963020325,190.31450963020325,190.31450963020325,190.31450963020325,190.31450963020325,191.9952356815338,3,1.8209731578826904,None,,,,,,,,,,,,,,,,,,204,4,2025-03-06_14h45.57.402,comp,2024.2.4,53.34913934003987,2025-03-06 14h48.17.899326 -0500,
49,49,0,filler_square,None,None,None,None,None,None,None,None,None,None,2,1.2703239917755127,None,,,,,0,0,0,0,0,49,49,184,192.01961851119995,,,,,,,,,,,,,,,,,,,,,,,,,,,,,,,,,,,,,,,,,,,,,,,,,,,,,,,,,,,,,,,,,,,,,,,,,,,,,,,,,61.183945357123704,59.941115635877765,106.88598261766171,106.88598261766171,57.54904929596687,72.03584926466883,1.0,1.3,301,-255,480,-271,665,-278,191.99711227416992,191.99719214439392,192.0007426738739,192.01961851119995,192.1632878780365,192.1632878780365,192.1632878780365,192.1632878780365,192.1632878780365,192.1632878780365,192.1632878780365,193.29548978805542,2,1.2703239917755127,None,,,,,,,,,,,,,,,,,,204,4,2025-03-06_14h45.57.402,comp,2024.2.4,53.34913934003987,2025-03-06 14h48.17.899326 -0500,
50,50,0,critical,dhw,20.0,2.1,upper,141.0,141.0,200.0,125.0,125.0,200.0,2,1.1692914962768555,None,,,,,0,0,0,0,0,50,50,3,193.31207489967346,,,,,,,,,,,,,,,,,,,,,,,,,,,,,,,,,,,,,,,,,,,,,,,,,,,,,,,,,,,,,,,,,,,,,,,,,,,,,,,,,141.0,141.0,200.0,125.0,125.0,200.0,2.1,2.12,-229,-267,0,-289,258,277,193.29706978797913,193.2971475124359,193.30066752433777,193.31207489967346,193.45104694366455,193.45104694366455,193.45104694366455,193.45104694366455,193.45104694366455,193.45104694366455,193.45104694366455,194.48438835144043,2,1.1692914962768555,None,,,,,,,,,,,,,,,,,,204,4,2025-03-06_14h45.57.402,comp,2024.2.4,53.34913934003987,2025-03-06 14h48.17.899326 -0500,
51,51,0,critical,whd,20.0,1.0,lower,57.0,133.0,133.0,57.0,78.0,78.0,2,4.092385292053223,None,,,,,0,0,0,0,0,51,51,90,194.50116205215454,,,,,,,,,,,,,,,,,,,,,,,,,,,,,,,,,,,,,,,,,,,,,,,,,,,,,,,,,,,,,,,,,,,,,,,,,,,,,,,,,57.0,133.0,133.0,57.0,78.0,78.0,1.0,1.3,289,-274,480,-255,644,-268,194.4861102104187,194.48619723320007,194.49018740653992,194.50116205215454,194.6484215259552,194.6484215259552,194.6484215259552,194.6484215259552,194.6484215259552,194.6484215259552,194.6484215259552,198.60006999969482,2,4.092385292053223,None,,,,,,,,,,,,,,,,,,204,4,2025-03-06_14h45.57.402,comp,2024.2.4,53.34913934003987,2025-03-06 14h48.17.899326 -0500,
52,52,0,critical,whd,20.0,1.0,upper,125.0,200.0,200.0,125.0,141.0,141.0,2,4.399109363555908,None,,,,,0,0,0,0,0,52,52,91,198.61842250823975,,,,,,,,,,,,,,,,,,,,,,,,,,,,,,,,,,,,,,,,,,,,,,,,,,,,,,,,,,,,,,,,,,,,,,,,,,,,,,,,,125.0,200.0,200.0,125.0,141.0,141.0,1.0,1.2,-258,-1,0,9,229,14,198.60165524482727,198.60177373886108,198.60539269447327,198.61842250823975,198.76500940322876,198.76500940322876,198.76500940322876,198.76500940322876,198.76500940322876,198.76500940322876,198.76500940322876,203.01962232589722,2,4.399109363555908,None,,,,,,,,,,,,,,,,,,204,4,2025-03-06_14h45.57.402,comp,2024.2.4,53.34913934003987,2025-03-06 14h48.17.899326 -0500,
53,53,0,critical,dwh,35.0,2.1,lower,70.0,70.0,57.0,133.0,133.0,57.0,3,2.6213366985321045,None,,,,,0,0,0,0,0,53,53,4,203.03592205047607,,,,,,,,,,,,,,,,,,,,,,,,,,,,,,,,,,,,,,,,,,,,,,,,,,,,,,,,,,,,,,,,,,,,,,,,,,,,,,,,,70.0,70.0,57.0,133.0,133.0,57.0,2.1,2.11,-198,261,0,264,191,-281,203.02128624916077,203.02136659622192,203.02496886253357,203.03592205047607,203.18958735466003,203.18958735466003,203.18958735466003,203.18958735466003,203.18958735466003,203.18958735466003,203.18958735466003,205.67494177818298,3,2.6213366985321045,None,,,,,,,,,,,,,,,,,,204,4,2025-03-06_14h45.57.402,comp,2024.2.4,53.34913934003987,2025-03-06 14h48.17.899326 -0500,
54,54,0,critical,hwd,20.0,2.1,upper,200.0,125.0,125.0,200.0,141.0,141.0,1,3.8360981941223145,None,,,,,0,0,0,0,0,54,54,19,205.6938817501068,,,,,,,,,,,,,,,,,,,,,,,,,,,,,,,,,,,,,,,,,,,,,,,,,,,,,,,,,,,,,,,,,,,,,,,,,,,,,,,,,200.0,125.0,125.0,200.0,141.0,141.0,2.1,2.12,-258,-250,0,-276,266,274,205.6764965057373,205.6766128540039,205.6799499988556,205.6938817501068,205.8345127105713,205.8345127105713,205.8345127105713,205.8345127105713,205.8345127105713,205.8345127105713,205.8345127105713,209.53583812713623,1,3.8360981941223145,None,,,,,,,,,,,,,,,,,,204,4,2025-03-06_14h45.57.402,comp,2024.2.4,53.34913934003987,2025-03-06 14h48.17.899326 -0500,
55,55,0,catch,None,None,None,None,None,None,None,None,None,None,3,1.647261142730713,None,,,,,0,0,0,0,0,55,55,126,209.55441117286682,,,,,,,,,,,,,,,,,,,,,,,,,,,,,,,,,,,,,,,,,,,,,,,,,,,,,,,,,,,,,,,,,,,,,,,,,,,,,,,,,91,99,78,112,138,187,1.0,1.2,-202,8,0,5,246,-9,209.53786540031433,209.53794765472412,209.5414650440216,209.55441117286682,209.69950819015503,209.69950819015503,209.69950819015503,209.69950819015503,209.69950819015503,209.69950819015503,209.69950819015503,211.21698594093323,3,1.647261142730713,None,,,,,,,,,,,,,,,,,,204,4,2025-03-06_14h45.57.402,comp,2024.2.4,53.34913934003987,2025-03-06 14h48.17.899326 -0500,
56,56,0,critical,wdh,35.0,3.0,lower,57.0,133.0,70.0,70.0,133.0,57.0,3,1.9359853267669678,None,,,,,0,0,0,0,0,56,56,74,211.23362803459167,,,,,,,,,,,,,,,,,,,,,,,,,,,,,,,,,,,,,,,,,,,,,,,,,,,,,,,,,,,,,,,,,,,,,,,,,,,,,,,,,57.0,133.0,70.0,70.0,133.0,57.0,3.0,3.1,-198,285,0,8,160,-256,211.21860241889954,211.2186803817749,211.22201943397522,211.23362803459167,211.38584661483765,211.38584661483765,211.38584661483765,211.38584661483765,211.38584661483765,211.38584661483765,211.38584661483765,213.17624044418335,3,1.9359853267669678,None,,,,,,,,,,,,,,,,,,204,4,2025-03-06_14h45.57.402,comp,2024.2.4,53.34913934003987,2025-03-06 14h48.17.899326 -0500,
57,57,0,critical,hdw,35.0,2.1,lower,133.0,57.0,70.0,70.0,57.0,133.0,1,2.8651816844940186,None,,,,,0,0,0,0,0,57,57,20,213.19215393066406,,,,,,,,,,,,,,,,,,,,,,,,,,,,,,,,,,,,,,,,,,,,,,,,,,,,,,,,,,,,,,,,,,,,,,,,,,,,,,,,,133.0,57.0,70.0,70.0,57.0,133.0,2.1,2.11,-160,267,0,277,198,-270,213.17785930633545,213.1779384613037,213.18127179145813,213.19215393066406,213.33619165420532,213.33619165420532,213.33619165420532,213.33619165420532,213.33619165420532,213.33619165420532,213.33619165420532,216.0698459148407,1,2.8651816844940186,None,,,,,,,,,,,,,,,,,,204,4,2025-03-06_14h45.57.402,comp,2024.2.4,53.34913934003987,2025-03-06 14h48.17.899326 -0500,
58,58,0,critical,hwd,20.0,1.0,upper,200.0,125.0,125.0,200.0,141.0,141.0,2,1.531003713607788,None,,,,,0,0,0,0,0,58,58,103,216.08628511428833,,,,,,,,,,,,,,,,,,,,,,,,,,,,,,,,,,,,,,,,,,,,,,,,,,,,,,,,,,,,,,,,,,,,,,,,,,,,,,,,,200.0,125.0,125.0,200.0,141.0,141.0,1.0,1.1,-738,282,-480,251,-214,252,216.07137155532837,216.07144570350647,216.0749750137329,216.08628511428833,216.23731327056885,216.23731327056885,216.23731327056885,216.23731327056885,216.23731327056885,216.23731327056885,216.23731327056885,217.6209602355957,2,1.531003713607788,None,,,,,,,,,,,,,,,,,,204,4,2025-03-06_14h45.57.402,comp,2024.2.4,53.34913934003987,2025-03-06 14h48.17.899326 -0500,
59,59,0,filler_random,None,None,None,None,None,None,None,None,None,None,1,1.6917705535888672,None,,,,,0,0,0,0,0,59,59,166,217.63811421394348,,,,,,,,,,,,,,,,,,,,,,,,,,,,,,,,,,,,,,,,,,,,,,,,,,,,,,,,,,,,,,,,,,,,,,,,,,,,,,,,,136.28350323387707,162.76719470658225,167.18124632112637,72.9572256138162,149.00055844567584,138.25685788299995,3.0,3.2,-214,-283,0,-12,202,290,217.62286520004272,217.62296962738037,217.62709379196167,217.63811421394348,217.78901743888855,217.78901743888855,217.78901743888855,217.78901743888855,217.78901743888855,217.78901743888855,217.78901743888855,219.3334081172943,1,1.6917705535888672,None,,,,,,,,,,,,,,,,,,204,4,2025-03-06_14h45.57.402,comp,2024.2.4,53.34913934003987,2025-03-06 14h48.17.899326 -0500,
60,60,0,filler_random,None,None,None,None,None,None,None,None,None,None,1,1.0784838199615479,None,,,,,0,0,0,0,0,60,60,150,219.35503244400024,,,,,,,,,,,,,,,,,,,,,,,,,,,,,,,,,,,,,,,,,,,,,,,,,,,,,,,,,,,,,,,,,,,,,,,,,,,,,,,,,188.10682057235428,181.81682332845128,109.20307182763199,106.27644206918025,96.59016491320189,91.44795577763142,4.0,4.1,-240,-260,0,14,195,-278,219.33521223068237,219.33532738685608,219.33918929100037,219.35503244400024,219.48922085762024,219.48922085762024,219.48922085762024,219.48922085762024,219.48922085762024,219.48922085762024,219.48922085762024,220.44022512435913,1,1.0784838199615479,None,,,,,,,,,,,,,,,,,,204,4,2025-03-06_14h45.57.402,comp,2024.2.4,53.34913934003987,2025-03-06 14h48.17.899326 -0500,
61,61,0,critical,dwh,35.0,3.0,lower,70.0,70.0,57.0,133.0,133.0,57.0,2,1.5912353992462158,None,,,,,0,0,0,0,0,61,61,62,220.4587082862854,,,,,,,,,,,,,,,,,,,,,,,,,,,,,,,,,,,,,,,,,,,,,,,,,,,,,,,,,,,,,,,,,,,,,,,,,,,,,,,,,70.0,70.0,57.0,133.0,133.0,57.0,3.0,3.2,-198,-258,0,15,191,254,220.4418523311615,220.4419288635254,220.44570422172546,220.4587082862854,220.60545778274536,220.60545778274536,220.60545778274536,220.60545778274536,220.60545778274536,220.60545778274536,220.60545778274536,222.05622339248657,2,1.5912353992462158,None,,,,,,,,,,,,,,,,,,204,4,2025-03-06_14h45.57.402,comp,2024.2.4,53.34913934003987,2025-03-06 14h48.17.899326 -0500,
62,62,0,critical,hdw,20.0,1.0,lower,133.0,57.0,78.0,78.0,57.0,133.0,3,2.6078543663024902,None,,,,,0,0,0,0,0,62,62,114,222.07342100143433,,,,,,,,,,,,,,,,,,,,,,,,,,,,,,,,,,,,,,,,,,,,,,,,,,,,,,,,,,,,,,,,,,,,,,,,,,,,,,,,,133.0,57.0,78.0,78.0,57.0,133.0,1.0,1.1,-644,275,-480,254,-278,279,222.05782461166382,222.05790162086487,222.062264919281,222.07342100143433,222.22662329673767,222.22662329673767,222.22662329673767,222.22662329673767,222.22662329673767,222.22662329673767,222.22662329673767,224.69528794288635,3,2.6078543663024902,None,,,,,,,,,,,,,,,,,,204,4,2025-03-06_14h45.57.402,comp,2024.2.4,53.34913934003987,2025-03-06 14h48.17.899326 -0500,
63,63,0,filler_square,None,None,None,None,None,None,None,None,None,None,1,1.465223789215088,None,,,,,0,0,0,0,0,63,63,196,224.71220779418945,,,,,,,,,,,,,,,,,,,,,,,,,,,,,,,,,,,,,,,,,,,,,,,,,,,,,,,,,,,,,,,,,,,,,,,,,,,,,,,,,88.05778128235379,88.05778128235379,67.84864483741575,69.44004763534018,67.57330424619713,62.4766962918966,3.0,3.1,-175,285,0,5,162,-258,224.6973898410797,224.69746494293213,224.70095992088318,224.71220779418945,224.8571970462799,224.8571970462799,224.8571970462799,224.8571970462799,224.8571970462799,224.8571970462799,224.8571970462799,226.19027161598206,1,1.465223789215088,None,,,,,,,,,,,,,,,,,,204,4,2025-03-06_14h45.57.402,comp,2024.2.4,53.34913934003987,2025-03-06 14h48.17.899326 -0500,
64,64,0,critical,dwh,35.0,1.0,lower,70.0,70.0,57.0,133.0,133.0,57.0,2,2.9076852798461914,None,,,,,0,0,0,0,0,64,64,60,226.20576214790344,,,,,,,,,,,,,,,,,,,,,,,,,,,,,,,,,,,,,,,,,,,,,,,,,,,,,,,,,,,,,,,,,,,,,,,,,,,,,,,,,70.0,70.0,57.0,133.0,133.0,57.0,1.0,1.3,282,-289,480,-256,671,-252,226.19178533554077,226.19185972213745,226.19550800323486,226.20576214790344,226.3466031551361,226.3466031551361,226.3466031551361,226.3466031551361,226.3466031551361,226.3466031551361,226.3466031551361,229.12383103370667,2,2.9076852798461914,None,,,,,,,,,,,,,,,,,,204,4,2025-03-06_14h45.57.402,comp,2024.2.4,53.34913934003987,2025-03-06 14h48.17.899326 -0500,
65,65,0,catch,None,None,None,None,None,None,None,None,None,None,2,1.0039763450622559,None,,,,,0,0,0,0,0,65,65,120,229.14130783081055,,,,,,,,,,,,,,,,,,,,,,,,,,,,,,,,,,,,,,,,,,,,,,,,,,,,,,,,,,,,,,,,,,,,,,,,,,,,,,,,,66,124,157,168,65,125,3.0,3.2,-242,-278,0,-1,242,255,229.12603783607483,229.12611770629883,229.1300175189972,229.14130783081055,229.29644632339478,229.29644632339478,229.29644632339478,229.29644632339478,229.29644632339478,229.29644632339478,229.29644632339478,230.15964102745056,2,1.0039763450622559,None,,,,,,,,,,,,,,,,,,204,4,2025-03-06_14h45.57.402,comp,2024.2.4,53.34913934003987,2025-03-06 14h48.17.899326 -0500,
66,66,0,critical,wdh,35.0,2.1,upper,125.0,200.0,127.0,127.0,200.0,125.0,1,1.7532784938812256,None,,,,,0,0,0,0,0,66,66,33,230.17592906951904,,,,,,,,,,,,,,,,,,,,,,,,,,,,,,,,,,,,,,,,,,,,,,,,,,,,,,,,,,,,,,,,,,,,,,,,,,,,,,,,,125.0,200.0,127.0,127.0,200.0,125.0,2.1,2.12,-260,-266,0,-268,222,254,230.16121363639832,230.1613311767578,230.16561937332153,230.17592906951904,230.33221888542175,230.33221888542175,230.33221888542175,230.33221888542175,230.33221888542175,230.33221888542175,230.33221888542175,231.94447255134583,1,1.7532784938812256,None,,,,,,,,,,,,,,,,,,204,4,2025-03-06_14h45.57.402,comp,2024.2.4,53.34913934003987,2025-03-06 14h48.17.899326 -0500,
67,67,0,filler_random,None,None,None,None,None,None,None,None,None,None,1,1.7604632377624512,None,,,,,0,0,0,0,0,67,67,152,231.96171379089355,,,,,,,,,,,,,,,,,,,,,,,,,,,,,,,,,,,,,,,,,,,,,,,,,,,,,,,,,,,,,,,,,,,,,,,,,,,,,,,,,181.59560320331178,146.21241722297702,120.79246503514024,123.04436140849941,184.52849781074633,183.4040487559716,2.1,2.12,-231,-290,0,-283,249,257,231.94651436805725,231.9466257095337,231.9506893157959,231.96171379089355,232.1097445487976,232.1097445487976,232.1097445487976,232.1097445487976,232.1097445487976,232.1097445487976,232.1097445487976,233.73151087760925,1,1.7604632377624512,None,,,,,,,,,,,,,,,,,,204,4,2025-03-06_14h45.57.402,comp,2024.2.4,53.34913934003987,2025-03-06 14h48.17.899326 -0500,
68,68,0,critical,hdw,20.0,4.0,upper,200.0,125.0,141.0,141.0,125.0,200.0,1,1.9877934455871582,None,,,,,0,0,0,0,0,68,68,119,233.7501232624054,,,,,,,,,,,,,,,,,,,,,,,,,,,,,,,,,,,,,,,,,,,,,,,,,,,,,,,,,,,,,,,,,,,,,,,,,,,,,,,,,200.0,125.0,141.0,141.0,125.0,200.0,4.0,4.2,-229,4,0,-288,266,-18,233.73312497138977,233.73320055007935,233.7368767261505,233.7501232624054,233.89354801177979,233.89354801177979,233.89354801177979,233.89354801177979,233.89354801177979,233.89354801177979,233.89354801177979,235.74280953407288,1,1.9877934455871582,None,,,,,,,,,,,,,,,,,,204,4,2025-03-06_14h45.57.402,comp,2024.2.4,53.34913934003987,2025-03-06 14h48.17.899326 -0500,
69,69,0,critical,hwd,35.0,2.1,lower,133.0,57.0,57.0,133.0,70.0,70.0,1,1.9586820602416992,None,,,,,0,0,0,0,0,69,69,16,235.76261019706726,,,,,,,,,,,,,,,,,,,,,,,,,,,,,,,,,,,,,,,,,,,,,,,,,,,,,,,,,,,,,,,,,,,,,,,,,,,,,,,,,133.0,57.0,57.0,133.0,70.0,70.0,2.1,2.12,-191,-253,0,-278,198,253,235.7443459033966,235.74442648887634,235.74778866767883,235.76261019706726,235.91026425361633,235.91026425361633,235.91026425361633,235.91026425361633,235.91026425361633,235.91026425361633,235.91026425361633,237.73633456230164,1,1.9586820602416992,None,,,,,,,,,,,,,,,,,,204,4,2025-03-06_14h45.57.402,comp,2024.2.4,53.34913934003987,2025-03-06 14h48.17.899326 -0500,
70,70,0,filler_random,None,None,None,None,None,None,None,None,None,None,2,1.2406766414642334,None,,,,,0,0,0,0,0,70,70,158,237.75264072418213,,,,,,,,,,,,,,,,,,,,,,,,,,,,,,,,,,,,,,,,,,,,,,,,,,,,,,,,,,,,,,,,,,,,,,,,,,,,,,,,,72.40425015993986,174.72407264810772,164.45106014641152,157.0570614333563,111.80479028068294,80.20681157482812,2.2,2.22,-262,276,0,-276,215,-263,237.7379596233368,237.73803329467773,237.74135041236877,237.75264072418213,237.89641404151917,237.89641404151917,237.89641404151917,237.89641404151917,237.89641404151917,237.89641404151917,237.89641404151917,239.0072944164276,2,1.2406766414642334,None,,,,,,,,,,,,,,,,,,204,4,2025-03-06_14h45.57.402,comp,2024.2.4,53.34913934003987,2025-03-06 14h48.17.899326 -0500,
71,71,0,filler_random,None,None,None,None,None,None,None,None,None,None,2,2.093745708465576,None,,,,,0,0,0,0,0,71,71,159,239.02810430526733,,,,,,,,,,,,,,,,,,,,,,,,,,,,,,,,,,,,,,,,,,,,,,,,,,,,,,,,,,,,,,,,,,,,,,,,,,,,,,,,,120.87413291459218,89.9271979379775,85.2631779036897,193.67767849988797,159.16487802291738,73.03294487969174,3.0,3.2,-238,-273,0,6,229,287,239.00909519195557,239.00917434692383,239.0125024318695,239.02810430526733,239.16159534454346,239.16159534454346,239.16159534454346,239.16159534454346,239.16159534454346,239.16159534454346,239.16159534454346,241.13122463226318,2,2.093745708465576,None,,,,,,,,,,,,,,,,,,204,4,2025-03-06_14h45.57.402,comp,2024.2.4,53.34913934003987,2025-03-06 14h48.17.899326 -0500,
72,72,0,critical,hdw,35.0,2.1,upper,200.0,125.0,127.0,127.0,125.0,200.0,1,1.2190968990325928,None,,,,,0,0,0,0,0,72,72,21,241.1502377986908,,,,,,,,,,,,,,,,,,,,,,,,,,,,,,,,,,,,,,,,,,,,,,,,,,,,,,,,,,,,,,,,,,,,,,,,,,,,,,,,,200.0,125.0,127.0,127.0,125.0,200.0,2.1,2.11,-222,275,0,252,260,-255,241.13292789459229,241.13300609588623,241.1367838382721,241.1502377986908,241.29633283615112,241.29633283615112,241.29633283615112,241.29633283615112,241.29633283615112,241.29633283615112,241.29633283615112,242.37920665740967,1,1.2190968990325928,None,,,,,,,,,,,,,,,,,,204,4,2025-03-06_14h45.57.402,comp,2024.2.4,53.34913934003987,2025-03-06 14h48.17.899326 -0500,
73,73,0,catch,None,None,None,None,None,None,None,None,None,None,1,1.3407659530639648,None,,,,,0,0,0,0,0,73,73,128,242.39651489257812,,,,,,,,,,,,,,,,,,,,,,,,,,,,,,,,,,,,,,,,,,,,,,,,,,,,,,,,,,,,,,,,,,,,,,,,,,,,,,,,,154,171,128,62,106,84,2.2,2.22,-212,290,0,-261,169,-273,242.38120293617249,242.38128280639648,242.38488698005676,242.39651489257812,242.54527020454407,242.54527020454407,242.54527020454407,242.54527020454407,242.54527020454407,242.54527020454407,242.54527020454407,243.7489185333252,1,1.3407659530639648,None,,,,,,,,,,,,,,,,,,204,4,2025-03-06_14h45.57.402,comp,2024.2.4,53.34913934003987,2025-03-06 14h48.17.899326 -0500,
74,74,0,filler_square,None,None,None,None,None,None,None,None,None,None,1,1.2923777103424072,None,,,,,0,0,0,0,0,74,74,179,243.76585626602173,,,,,,,,,,,,,,,,,,,,,,,,,,,,,,,,,,,,,,,,,,,,,,,,,,,,,,,,,,,,,,,,,,,,,,,,,,,,,,,,,105.34531664798541,105.34531664798541,85.9790350796782,95.19892002438996,58.991936570062066,69.28341246668536,1.0,1.3,284,-251,480,-257,658,-253,243.7512035369873,243.75128602981567,243.75516843795776,243.76585626602173,243.912850856781,243.912850856781,243.912850856781,243.912850856781,243.912850856781,243.912850856781,243.912850856781,245.0650908946991,1,1.2923777103424072,None,,,,,,,,,,,,,,,,,,204,4,2025-03-06_14h45.57.402,comp,2024.2.4,53.34913934003987,2025-03-06 14h48.17.899326 -0500,
75,75,0,critical,hdw,20.0,2.1,lower,133.0,57.0,78.0,78.0,57.0,133.0,1,7.784514665603638,None,,,,,0,0,0,0,0,75,75,46,245.08102440834045,,,,,,,,,,,,,,,,,,,,,,,,,,,,,,,,,,,,,,,,,,,,,,,,,,,,,,,,,,,,,,,,,,,,,,,,,,,,,,,,,133.0,57.0,78.0,78.0,57.0,133.0,2.1,2.11,-164,288,0,260,202,-265,245.06678414344788,245.0668659210205,245.0704207420349,245.08102440834045,245.2292730808258,245.2292730808258,245.2292730808258,245.2292730808258,245.2292730808258,245.2292730808258,245.2292730808258,252.88193082809448,1,7.784514665603638,None,,,,,,,,,,,,,,,,,,204,4,2025-03-06_14h45.57.402,comp,2024.2.4,53.34913934003987,2025-03-06 14h48.17.899326 -0500,
76,76,0,filler_random,None,None,None,None,None,None,None,None,None,None,2,1.1034932136535645,None,,,,,0,0,0,0,0,76,76,164,252.89778804779053,,,,,,,,,,,,,,,,,,,,,,,,,,,,,,,,,,,,,,,,,,,,,,,,,,,,,,,,,,,,,,,,,,,,,,,,,,,,,,,,,97.52546252908053,61.119640852285904,160.11735345089988,118.85198138620919,69.77234979539189,119.78552627406863,2.1,2.12,-186,-275,0,-260,215,285,252.8836715221405,252.88378167152405,252.88738703727722,252.89778804779053,253.04897570610046,253.04897570610046,253.04897570610046,253.04897570610046,253.04897570610046,253.04897570610046,253.04897570610046,254.01431941986084,2,1.1034932136535645,None,,,,,,,,,,,,,,,,,,204,4,2025-03-06_14h45.57.402,comp,2024.2.4,53.34913934003987,2025-03-06 14h48.17.899326 -0500,
77,77,0,filler_random,None,None,None,None,None,None,None,None,None,None,1,1.3707473278045654,None,,,,,0,0,0,0,0,77,77,162,254.0304868221283,,,,,,,,,,,,,,,,,,,,,,,,,,,,,,,,,,,,,,,,,,,,,,,,,,,,,,,,,,,,,,,,,,,,,,,,,,,,,,,,,177.73980629342287,180.78195464516588,124.52679222624548,141.28005788073432,64.65185736291068,134.95112239445106,4.0,4.1,-257,-272,0,5,234,-261,254.01603364944458,254.016108751297,254.01966977119446,254.0304868221283,254.18188333511353,254.18188333511353,254.18188333511353,254.18188333511353,254.18188333511353,254.18188333511353,254.18188333511353,255.41691327095032,1,1.3707473278045654,None,,,,,,,,,,,,,,,,,,204,4,2025-03-06_14h45.57.402,comp,2024.2.4,53.34913934003987,2025-03-06 14h48.17.899326 -0500,
78,78,0,critical,dhw,20.0,2.1,lower,78.0,78.0,133.0,57.0,57.0,133.0,2,3.560849189758301,None,,,,,0,0,0,0,0,78,78,2,255.43378233909607,,,,,,,,,,,,,,,,,,,,,,,,,,,,,,,,,,,,,,,,,,,,,,,,,,,,,,,,,,,,,,,,,,,,,,,,,,,,,,,,,78.0,78.0,133.0,57.0,57.0,133.0,2.1,2.12,-164,-251,0,-273,191,254,255.41859412193298,255.41872692108154,255.42258191108704,255.43378233909607,255.58606481552124,255.58606481552124,255.58606481552124,255.58606481552124,255.58606481552124,255.58606481552124,255.58606481552124,258.99993562698364,2,3.560849189758301,None,,,,,,,,,,,,,,,,,,204,4,2025-03-06_14h45.57.402,comp,2024.2.4,53.34913934003987,2025-03-06 14h48.17.899326 -0500,
79,79,0,filler_random,None,None,None,None,None,None,None,None,None,None,2,4.11553430557251,None,,,,,0,0,0,0,0,79,79,153,259.02198815345764,,,,,,,,,,,,,,,,,,,,,,,,,,,,,,,,,,,,,,,,,,,,,,,,,,,,,,,,,,,,,,,,,,,,,,,,,,,,,,,,,64.6616269402113,147.26853680297955,126.81564072849227,130.23620516786042,137.90865091151414,78.06454726230639,2.1,2.11,-235,269,0,281,200,-289,259.00169706344604,259.00177812576294,259.0054135322571,259.02198815345764,259.1678695678711,259.1678695678711,259.1678695678711,259.1678695678711,259.1678695678711,259.1678695678711,259.1678695678711,263.15215277671814,2,4.11553430557251,None,,,,,,,,,,,,,,,,,,204,4,2025-03-06_14h45.57.402,comp,2024.2.4,53.34913934003987,2025-03-06 14h48.17.899326 -0500,
80,80,0,critical,dhw,20.0,3.0,upper,141.0,141.0,200.0,125.0,125.0,200.0,1,3.1919052600860596,None,,,,,0,0,0,0,0,80,80,57,263.1701581478119,,,,,,,,,,,,,,,,,,,,,,,,,,,,,,,,,,,,,,,,,,,,,,,,,,,,,,,,,,,,,,,,,,,,,,,,,,,,,,,,,141.0,141.0,200.0,125.0,125.0,200.0,3.0,3.2,-229,-279,0,-15,258,263,263.15372347831726,263.15380120277405,263.15736293792725,263.1701581478119,263.32803893089294,263.32803893089294,263.32803893089294,263.32803893089294,263.32803893089294,263.32803893089294,263.32803893089294,266.37104773521423,1,3.1919052600860596,None,,,,,,,,,,,,,,,,,,204,4,2025-03-06_14h45.57.402,comp,2024.2.4,53.34913934003987,2025-03-06 14h48.17.899326 -0500,
81,81,0,critical,wdh,35.0,1.0,lower,57.0,133.0,70.0,70.0,133.0,57.0,1,2.3743324279785156,None,,,,,0,0,0,0,0,81,81,72,266.38787484169006,,,,,,,,,,,,,,,,,,,,,,,,,,,,,,,,,,,,,,,,,,,,,,,,,,,,,,,,,,,,,,,,,,,,,,,,,,,,,,,,,57.0,133.0,70.0,70.0,133.0,57.0,1.0,1.1,-678,285,-480,282,-320,272,266.37282037734985,266.3729598522186,266.3769645690918,266.38787484169006,266.5361921787262,266.5361921787262,266.5361921787262,266.5361921787262,266.5361921787262,266.5361921787262,266.5361921787262,268.76977920532227,1,2.3743324279785156,None,,,,,,,,,,,,,,,,,,204,4,2025-03-06_14h45.57.402,comp,2024.2.4,53.34913934003987,2025-03-06 14h48.17.899326 -0500,
82,82,0,filler_square,None,None,None,None,None,None,None,None,None,None,3,1.5410082340240479,None,,,,,0,0,0,0,0,82,82,208,268.7885949611664,,,,,,,,,,,,,,,,,,,,,,,,,,,,,,,,,,,,,,,,,,,,,,,,,,,,,,,,,,,,,,,,,,,,,,,,,,,,,,,,,87.6353278500066,109.71427878021798,82.51264187859158,188.45804288904642,191.66627233252703,191.66627233252703,3.0,3.2,-245,-259,0,-15,286,265,268.7716579437256,268.7717454433441,268.77531599998474,268.7885949611664,268.93837332725525,268.93837332725525,268.93837332725525,268.93837332725525,268.93837332725525,268.93837332725525,268.93837332725525,270.3367896080017,3,1.5410082340240479,None,,,,,,,,,,,,,,,,,,204,4,2025-03-06_14h45.57.402,comp,2024.2.4,53.34913934003987,2025-03-06 14h48.17.899326 -0500,
83,83,0,filler_random,None,None,None,None,None,None,None,None,None,None,2,3.4320530891418457,None,,,,,0,0,0,0,0,83,83,137,270.3533399105072,,,,,,,,,,,,,,,,,,,,,,,,,,,,,,,,,,,,,,,,,,,,,,,,,,,,,,,,,,,,,,,,,,,,,,,,,,,,,,,,,176.21671652758727,101.30297304303748,151.1336003129078,156.92279142805643,141.4665067749268,163.27315928981062,2.2,2.22,-225,279,0,-275,256,-275,270.33774280548096,270.33778715133667,270.3397762775421,270.3533399105072,270.5030744075775,270.5030744075775,270.5030744075775,270.5030744075775,270.5030744075775,270.5030744075775,270.5030744075775,273.79810857772827,2,3.4320530891418457,None,,,,,,,,,,,,,,,,,,204,4,2025-03-06_14h45.57.402,comp,2024.2.4,53.34913934003987,2025-03-06 14h48.17.899326 -0500,
84,84,0,critical,wdh,20.0,2.1,upper,125.0,200.0,141.0,141.0,200.0,125.0,3,2.751081943511963,None,,,,,0,0,0,0,0,84,84,11,273.8188455104828,,,,,,,,,,,,,,,,,,,,,,,,,,,,,,,,,,,,,,,,,,,,,,,,,,,,,,,,,,,,,,,,,,,,,,,,,,,,,,,,,125.0,200.0,141.0,141.0,200.0,125.0,2.1,2.11,-266,283,0,260,229,-290,273.7996506690979,273.79973220825195,273.80308055877686,273.8188455104828,273.96026611328125,273.96026611328125,273.96026611328125,273.96026611328125,273.96026611328125,273.96026611328125,273.96026611328125,276.57317900657654,3,2.751081943511963,None,,,,,,,,,,,,,,,,,,204,4,2025-03-06_14h45.57.402,comp,2024.2.4,53.34913934003987,2025-03-06 14h48.17.899326 -0500,
85,85,0,filler_square,None,None,None,None,None,None,None,None,None,None,1,2.4919118881225586,None,,,,,0,0,0,0,0,85,85,182,276.59031867980957,,,,,,,,,,,,,,,,,,,,,,,,,,,,,,,,,,,,,,,,,,,,,,,,,,,,,,,,,,,,,,,,,,,,,,,,,,,,,,,,,182.07072788841774,182.07072788841774,116.48515633594064,158.08495708841593,145.20488063413904,177.28371342706288,4.0,4.1,-266,-254,0,10,264,-287,276.5750415325165,276.57512283325195,276.5795373916626,276.59031867980957,276.740683555603,276.740683555603,276.740683555603,276.740683555603,276.740683555603,276.740683555603,276.740683555603,279.08943581581116,1,2.4919118881225586,None,,,,,,,,,,,,,,,,,,204,4,2025-03-06_14h45.57.402,comp,2024.2.4,53.34913934003987,2025-03-06 14h48.17.899326 -0500,
86,86,0,filler_random,None,None,None,None,None,None,None,None,None,None,3,1.3703408241271973,None,,,,,0,0,0,0,0,86,86,136,279.11100339889526,,,,,,,,,,,,,,,,,,,,,,,,,,,,,,,,,,,,,,,,,,,,,,,,,,,,,,,,,,,,,,,,,,,,,,,,,,,,,,,,,159.86751502421703,194.3670512870063,158.76850300748924,186.9852108081092,164.3807447546874,158.86674304097215,4.0,4.1,-287,-274,0,-12,269,-266,279.09117102622986,279.0913014411926,279.0951178073883,279.11100339889526,279.2460472583771,279.2460472583771,279.2460472583771,279.2460472583771,279.2460472583771,279.2460472583771,279.2460472583771,280.4984543323517,3,1.3703408241271973,None,,,,,,,,,,,,,,,,,,204,4,2025-03-06_14h45.57.402,comp,2024.2.4,53.34913934003987,2025-03-06 14h48.17.899326 -0500,
87,87,0,critical,dwh,20.0,4.0,upper,141.0,141.0,125.0,200.0,200.0,125.0,3,1.2794909477233887,None,,,,,0,0,0,0,0,87,87,71,280.51385736465454,,,,,,,,,,,,,,,,,,,,,,,,,,,,,,,,,,,,,,,,,,,,,,,,,,,,,,,,,,,,,,,,,,,,,,,,,,,,,,,,,141.0,141.0,125.0,200.0,200.0,125.0,4.0,4.1,-266,-258,0,19,258,-280,280.5000014305115,280.50007796287537,280.5034122467041,280.51385736465454,280.6576931476593,280.6576931476593,280.6576931476593,280.6576931476593,280.6576931476593,280.6576931476593,280.6576931476593,281.80938243865967,3,1.2794909477233887,None,,,,,,,,,,,,,,,,,,204,4,2025-03-06_14h45.57.402,comp,2024.2.4,53.34913934003987,2025-03-06 14h48.17.899326 -0500,
88,88,0,critical,hwd,35.0,3.0,upper,200.0,125.0,125.0,200.0,127.0,127.0,1,2.1280534267425537,None,,,,,0,0,0,0,0,88,88,99,281.8261499404907,,,,,,,,,,,,,,,,,,,,,,,,,,,,,,,,,,,,,,,,,,,,,,,,,,,,,,,,,,,,,,,,,,,,,,,,,,,,,,,,,200.0,125.0,125.0,200.0,127.0,127.0,3.0,3.2,-258,-273,0,17,260,257,281.81107568740845,281.811154127121,281.81489157676697,281.8261499404907,281.9749948978424,281.9749948978424,281.9749948978424,281.9749948978424,281.9749948978424,281.9749948978424,281.9749948978424,283.96162462234497,1,2.1280534267425537,None,,,,,,,,,,,,,,,,,,204,4,2025-03-06_14h45.57.402,comp,2024.2.4,53.34913934003987,2025-03-06 14h48.17.899326 -0500,
89,89,0,filler_random,None,None,None,None,None,None,None,None,None,None,1,1.4227213859558105,None,,,,,0,0,0,0,0,89,89,151,283.9786207675934,,,,,,,,,,,,,,,,,,,,,,,,,,,,,,,,,,,,,,,,,,,,,,,,,,,,,,,,,,,,,,,,,,,,,,,,,,,,,,,,,175.3870933555737,152.22560849768482,69.35086527911716,192.6161719841609,186.74453975095813,115.38249689630055,3.0,3.1,-268,263,0,-5,250,-267,283.9635193347931,283.9636399745941,283.9670481681824,283.9786207675934,284.12593173980713,284.12593173980713,284.12593173980713,284.12593173980713,284.12593173980713,284.12593173980713,284.12593173980713,285.41877460479736,1,1.4227213859558105,None,,,,,,,,,,,,,,,,,,204,4,2025-03-06_14h45.57.402,comp,2024.2.4,53.34913934003987,2025-03-06 14h48.17.899326 -0500,
90,90,0,filler_square,None,None,None,None,None,None,None,None,None,None,3,1.5971252918243408,None,,,,,0,0,0,0,0,90,90,170,285.4371712207794,,,,,,,,,,,,,,,,,,,,,,,,,,,,,,,,,,,,,,,,,,,,,,,,,,,,,,,,,,,,,,,,,,,,,,,,,,,,,,,,,119.35335813895803,161.71045002018963,175.87360520598102,70.83154087659955,180.768426260759,180.768426260759,3.0,3.1,-212,250,0,14,222,-285,285.4208209514618,285.4208984375,285.42475509643555,285.4371712207794,285.5781190395355,285.5781190395355,285.5781190395355,285.5781190395355,285.5781190395355,285.5781190395355,285.5781190395355,287.0414845943451,3,1.5971252918243408,None,,,,,,,,,,,,,,,,,,204,4,2025-03-06_14h45.57.402,comp,2024.2.4,53.34913934003987,2025-03-06 14h48.17.899326 -0500,
91,91,0,filler_square,None,None,None,None,None,None,None,None,None,None,1,1.2558588981628418,None,,,,,0,0,0,0,0,91,91,185,287.0576627254486,,,,,,,,,,,,,,,,,,,,,,,,,,,,,,,,,,,,,,,,,,,,,,,,,,,,,,,,,,,,,,,,,,,,,,,,,,,,,,,,,106.1017113710927,106.1017113710927,68.20977934445247,67.17198483720674,81.71294399024426,63.993489502146566,4.0,4.1,-183,-281,0,-14,162,-281,287.0433313846588,287.04341197013855,287.0469183921814,287.0576627254486,287.2123477458954,287.2123477458954,287.2123477458954,287.2123477458954,287.2123477458954,287.2123477458954,287.2123477458954,288.3275291919708,1,1.2558588981628418,None,,,,,,,,,,,,,,,,,,204,4,2025-03-06_14h45.57.402,comp,2024.2.4,53.34913934003987,2025-03-06 14h48.17.899326 -0500,
92,92,0,filler_random,None,None,None,None,None,None,None,None,None,None,2,2.7853052616119385,None,,,,,0,0,0,0,0,92,92,138,288.3440535068512,,,,,,,,,,,,,,,,,,,,,,,,,,,,,,,,,,,,,,,,,,,,,,,,,,,,,,,,,,,,,,,,,,,,,,,,,,,,,,,,,179.8461456217852,61.572610052806816,151.53670585184994,196.70628271973357,75.91565843220127,131.0633003859707,2.2,2.22,-225,272,0,-274,260,-274,288.32930517196655,288.32938385009766,288.3329074382782,288.3440535068512,288.4934153556824,288.4934153556824,288.4934153556824,288.4934153556824,288.4934153556824,288.4934153556824,288.4934153556824,291.14401412010193,2,2.7853052616119385,None,,,,,,,,,,,,,,,,,,204,4,2025-03-06_14h45.57.402,comp,2024.2.4,53.34913934003987,2025-03-06 14h48.17.899326 -0500,
93,93,0,critical,hwd,35.0,2.1,upper,200.0,125.0,125.0,200.0,127.0,127.0,1,10.36962103843689,None,,,,,0,0,0,0,0,93,93,17,291.15981221199036,,,,,,,,,,,,,,,,,,,,,,,,,,,,,,,,,,,,,,,,,,,,,,,,,,,,,,,,,,,,,,,,,,,,,,,,,,,,,,,,,200.0,125.0,125.0,200.0,127.0,127.0,2.1,2.11,-258,276,0,271,260,-283,291.1455068588257,291.1456048488617,291.14933586120605,291.15981221199036,291.3097743988037,291.3097743988037,291.3097743988037,291.3097743988037,291.3097743988037,291.3097743988037,291.3097743988037,301.5483729839325,1,10.36962103843689,None,,,,,,,,,,,,,,,,,,204,4,2025-03-06_14h45.57.402,comp,2024.2.4,53.34913934003987,2025-03-06 14h48.17.899326 -0500,
94,94,0,critical,wdh,35.0,1.0,upper,125.0,200.0,127.0,127.0,200.0,125.0,3,2.396881341934204,None,,,,,0,0,0,0,0,94,94,73,301.5650906562805,,,,,,,,,,,,,,,,,,,,,,,,,,,,,,,,,,,,,,,,,,,,,,,,,,,,,,,,,,,,,,,,,,,,,,,,,,,,,,,,,125.0,200.0,127.0,127.0,200.0,125.0,1.0,1.1,-740,273,-480,272,-258,280,301.5499539375305,301.5500316619873,301.5535271167755,301.5650906562805,301.71652722358704,301.71652722358704,301.71652722358704,301.71652722358704,301.71652722358704,301.71652722358704,301.71652722358704,303.96502804756165,3,2.396881341934204,None,,,,,,,,,,,,,,,,,,204,4,2025-03-06_14h45.57.402,comp,2024.2.4,53.34913934003987,2025-03-06 14h48.17.899326 -0500,
95,95,0,critical,dwh,35.0,1.0,upper,127.0,127.0,125.0,200.0,200.0,125.0,3,1.0751540660858154,None,,,,,0,0,0,0,0,95,95,61,303.9822051525116,,,,,,,,,,,,,,,,,,,,,,,,,,,,,,,,,,,,,,,,,,,,,,,,,,,,,,,,,,,,,,,,,,,,,,,,,,,,,,,,,127.0,127.0,125.0,200.0,200.0,125.0,1.0,1.1,-740,284,-480,278,-222,264,303.9666380882263,303.9667136669159,303.97066497802734,303.9822051525116,304.13125944137573,304.13125944137573,304.13125944137573,304.13125944137573,304.13125944137573,304.13125944137573,304.13125944137573,305.06942772865295,3,1.0751540660858154,None,,,,,,,,,,,,,,,,,,204,4,2025-03-06_14h45.57.402,comp,2024.2.4,53.34913934003987,2025-03-06 14h48.17.899326 -0500,
96,96,0,filler_square,None,None,None,None,None,None,None,None,None,None,2,1.372800588607788,None,,,,,0,0,0,0,0,96,96,195,305.08609080314636,,,,,,,,,,,,,,,,,,,,,,,,,,,,,,,,,,,,,,,,,,,,,,,,,,,,,,,,,,,,,,,,,,,,,,,,,,,,,,,,,57.01408473997674,73.11117502268773,90.98912785145708,90.98912785145708,60.41267220536255,78.24580595399195,2.1,2.11,-178,279,0,256,181,-272,305.07175874710083,305.0719108581543,305.075364112854,305.08609080314636,305.2343258857727,305.2343258857727,305.2343258857727,305.2343258857727,305.2343258857727,305.2343258857727,305.2343258857727,306.46493458747864,2,1.372800588607788,None,,,,,,,,,,,,,,,,,,204,4,2025-03-06_14h45.57.402,comp,2024.2.4,53.34913934003987,2025-03-06 14h48.17.899326 -0500,
97,97,0,critical,hwd,35.0,4.0,upper,200.0,125.0,125.0,200.0,127.0,127.0,2,1.648479700088501,None,,,,,0,0,0,0,0,97,97,101,306.4809379577637,,,,,,,,,,,,,,,,,,,,,,,,,,,,,,,,,,,,,,,,,,,,,,,,,,,,,,,,,,,,,,,,,,,,,,,,,,,,,,,,,200.0,125.0,125.0,200.0,127.0,127.0,4.0,4.2,-258,-10,0,-252,260,6,306.46638321876526,306.46646070480347,306.4700448513031,306.4809379577637,306.6333496570587,306.6333496570587,306.6333496570587,306.6333496570587,306.6333496570587,306.6333496570587,306.6333496570587,308.14791655540466,2,1.648479700088501,None,,,,,,,,,,,,,,,,,,204,4,2025-03-06_14h45.57.402,comp,2024.2.4,53.34913934003987,2025-03-06 14h48.17.899326 -0500,
98,98,0,critical,hdw,20.0,2.1,lower,133.0,57.0,78.0,78.0,57.0,133.0,1,1.6376748085021973,None,,,,,0,0,0,0,0,98,98,22,308.1639540195465,,,,,,,,,,,,,,,,,,,,,,,,,,,,,,,,,,,,,,,,,,,,,,,,,,,,,,,,,,,,,,,,,,,,,,,,,,,,,,,,,133.0,57.0,78.0,78.0,57.0,133.0,2.1,2.11,-164,272,0,275,202,-286,308.1494596004486,308.14953446388245,308.15315985679626,308.1639540195465,308.3033857345581,308.3033857345581,308.3033857345581,308.3033857345581,308.3033857345581,308.3033857345581,308.3033857345581,309.8040602207184,1,1.6376748085021973,None,,,,,,,,,,,,,,,,,,204,4,2025-03-06_14h45.57.402,comp,2024.2.4,53.34913934003987,2025-03-06 14h48.17.899326 -0500,
99,99,0,critical,whd,35.0,4.0,lower,57.0,133.0,133.0,57.0,70.0,70.0,2,1.300166130065918,None,,,,,0,0,0,0,0,99,99,88,309.82383966445923,,,,,,,,,,,,,,,,,,,,,,,,,,,,,,,,,,,,,,,,,,,,,,,,,,,,,,,,,,,,,,,,,,,,,,,,,,,,,,,,,57.0,133.0,133.0,57.0,70.0,70.0,4.0,4.1,-191,-278,0,-15,160,-283,309.80566334724426,309.8057436943054,309.8094208240509,309.82383966445923,309.9673352241516,309.9673352241516,309.9673352241516,309.9673352241516,309.9673352241516,309.9673352241516,309.9673352241516,311.1339018344879,2,1.300166130065918,None,,,,,,,,,,,,,,,,,,204,4,2025-03-06_14h45.57.402,comp,2024.2.4,53.34913934003987,2025-03-06 14h48.17.899326 -0500,
100,100,0,critical,wdh,35.0,2.1,lower,57.0,133.0,70.0,70.0,133.0,57.0,1,1.5795655250549316,None,,,,,0,0,0,0,0,100,100,32,311.15062046051025,,,,,,,,,,,,,,,,,,,,,,,,,,,,,,,,,,,,,,,,,,,,,,,,,,,,,,,,,,,,,,,,,,,,,,,,,,,,,,,,,57.0,133.0,70.0,70.0,133.0,57.0,2.1,2.12,-198,-276,0,-251,160,261,311.1353600025177,311.1354377269745,311.1398584842682,311.15062046051025,311.3036766052246,311.3036766052246,311.3036766052246,311.3036766052246,311.3036766052246,311.3036766052246,311.3036766052246,312.7360987663269,1,1.5795655250549316,None,,,,,,,,,,,,,,,,,,204,4,2025-03-06_14h45.57.402,comp,2024.2.4,53.34913934003987,2025-03-06 14h48.17.899326 -0500,
101,101,0,filler_square,None,None,None,None,None,None,None,None,None,None,2,1.4250173568725586,None,,,,,0,0,0,0,0,101,101,188,312.7531931400299,,,,,,,,,,,,,,,,,,,,,,,,,,,,,,,,,,,,,,,,,,,,,,,,,,,,,,,,,,,,,,,,,,,,,,,,,,,,,,,,,91.48078844516846,92.37417011529939,119.78959825138666,119.78959825138666,114.9973039653995,82.21098092388742,2.2,2.22,-202,273,0,-272,197,-288,312.7380931377411,312.73817920684814,312.7417662143707,312.7531931400299,312.89929127693176,312.89929127693176,312.89929127693176,312.89929127693176,312.89929127693176,312.89929127693176,312.89929127693176,314.18696427345276,2,1.4250173568725586,None,,,,,,,,,,,,,,,,,,204,4,2025-03-06_14h45.57.402,comp,2024.2.4,53.34913934003987,2025-03-06 14h48.17.899326 -0500,
102,102,0,critical,dwh,20.0,3.0,upper,141.0,141.0,125.0,200.0,200.0,125.0,3,1.7339682579040527,None,,,,,0,0,0,0,0,102,102,69,314.2036108970642,,,,,,,,,,,,,,,,,,,,,,,,,,,,,,,,,,,,,,,,,,,,,,,,,,,,,,,,,,,,,,,,,,,,,,,,,,,,,,,,,141.0,141.0,125.0,200.0,200.0,125.0,3.0,3.1,-266,286,0,-4,258,-285,314.18868041038513,314.1888391971588,314.19285774230957,314.2036108970642,314.35907554626465,314.35907554626465,314.35907554626465,314.35907554626465,314.35907554626465,314.35907554626465,314.35907554626465,315.9532916545868,3,1.7339682579040527,None,,,,,,,,,,,,,,,,,,204,4,2025-03-06_14h45.57.402,comp,2024.2.4,53.34913934003987,2025-03-06 14h48.17.899326 -0500,
103,103,0,critical,dwh,35.0,2.1,upper,127.0,127.0,125.0,200.0,200.0,125.0,2,1.272714614868164,None,,,,,0,0,0,0,0,103,103,5,315.9698507785797,,,,,,,,,,,,,,,,,,,,,,,,,,,,,,,,,,,,,,,,,,,,,,,,,,,,,,,,,,,,,,,,,,,,,,,,,,,,,,,,,127.0,127.0,125.0,200.0,200.0,125.0,2.1,2.12,-260,-255,0,-253,258,263,315.9549775123596,315.95510840415955,315.9594702720642,315.9698507785797,316.1174268722534,316.1174268722534,316.1174268722534,316.1174268722534,316.1174268722534,316.1174268722534,316.1174268722534,317.2529501914978,2,1.272714614868164,None,,,,,,,,,,,,,,,,,,204,4,2025-03-06_14h45.57.402,comp,2024.2.4,53.34913934003987,2025-03-06 14h48.17.899326 -0500,
104,104,0,critical,hwd,35.0,2.1,upper,200.0,125.0,125.0,200.0,127.0,127.0,1,1.148535966873169,None,,,,,0,0,0,0,0,104,104,41,317.2697036266327,,,,,,,,,,,,,,,,,,,,,,,,,,,,,,,,,,,,,,,,,,,,,,,,,,,,,,,,,,,,,,,,,,,,,,,,,,,,,,,,,200.0,125.0,125.0,200.0,127.0,127.0,2.1,2.11,-258,268,0,252,260,-287,317.25444746017456,317.25452518463135,317.2588891983032,317.2697036266327,317.41992950439453,317.41992950439453,317.41992950439453,317.41992950439453,317.41992950439453,317.41992950439453,317.41992950439453,318.42470955848694,1,1.148535966873169,None,,,,,,,,,,,,,,,,,,204,4,2025-03-06_14h45.57.402,comp,2024.2.4,53.34913934003987,2025-03-06 14h48.17.899326 -0500,
105,105,0,critical,dhw,35.0,2.1,upper,127.0,127.0,200.0,125.0,125.0,200.0,3,1.6321523189544678,None,,,,,0,0,0,0,0,105,105,25,318.44139885902405,,,,,,,,,,,,,,,,,,,,,,,,,,,,,,,,,,,,,,,,,,,,,,,,,,,,,,,,,,,,,,,,,,,,,,,,,,,,,,,,,127.0,127.0,200.0,125.0,125.0,200.0,2.1,2.11,-222,266,0,262,258,-285,318.4263117313385,318.42639231681824,318.4297876358032,318.44139885902405,318.58643913269043,318.58643913269043,318.58643913269043,318.58643913269043,318.58643913269043,318.58643913269043,318.58643913269043,320.0850591659546,3,1.6321523189544678,None,,,,,,,,,,,,,,,,,,204,4,2025-03-06_14h45.57.402,comp,2024.2.4,53.34913934003987,2025-03-06 14h48.17.899326 -0500,
106,106,0,critical,dhw,35.0,4.0,lower,70.0,70.0,133.0,57.0,57.0,133.0,3,2.1406235694885254,None,,,,,0,0,0,0,0,106,106,52,320.1007215976715,,,,,,,,,,,,,,,,,,,,,,,,,,,,,,,,,,,,,,,,,,,,,,,,,,,,,,,,,,,,,,,,,,,,,,,,,,,,,,,,,70.0,70.0,133.0,57.0,57.0,133.0,4.0,4.2,-160,10,0,-264,191,16,320.08653497695923,320.0866334438324,320.0902147293091,320.1007215976715,320.258793592453,320.258793592453,320.258793592453,320.258793592453,320.258793592453,320.258793592453,320.258793592453,322.2543544769287,3,2.1406235694885254,None,,,,,,,,,,,,,,,,,,204,4,2025-03-06_14h45.57.402,comp,2024.2.4,53.34913934003987,2025-03-06 14h48.17.899326 -0500,
107,107,0,critical,whd,35.0,1.0,upper,125.0,200.0,200.0,125.0,127.0,127.0,1,1.6805784702301025,None,,,,,0,0,0,0,0,107,107,85,322.27324652671814,,,,,,,,,,,,,,,,,,,,,,,,,,,,,,,,,,,,,,,,,,,,,,,,,,,,,,,,,,,,,,,,,,,,,,,,,,,,,,,,,125.0,200.0,200.0,125.0,127.0,127.0,1.0,1.2,-258,4,0,-7,222,-17,322.25599694252014,322.25610852241516,322.2598738670349,322.27324652671814,322.4226040840149,322.4226040840149,322.4226040840149,322.4226040840149,322.4226040840149,322.4226040840149,322.4226040840149,323.97057938575745,1,1.6805784702301025,None,,,,,,,,,,,,,,,,,,204,4,2025-03-06_14h45.57.402,comp,2024.2.4,53.34913934003987,2025-03-06 14h48.17.899326 -0500,
108,108,0,critical,hdw,35.0,4.0,lower,133.0,57.0,70.0,70.0,57.0,133.0,1,2.926731824874878,None,,,,,0,0,0,0,0,108,108,112,323.9866523742676,,,,,,,,,,,,,,,,,,,,,,,,,,,,,,,,,,,,,,,,,,,,,,,,,,,,,,,,,,,,,,,,,,,,,,,,,,,,,,,,,133.0,57.0,70.0,70.0,57.0,133.0,4.0,4.1,-160,-251,0,18,198,-279,323.97211933135986,323.972195148468,323.9759135246277,323.9866523742676,324.14171290397644,324.14171290397644,324.14171290397644,324.14171290397644,324.14171290397644,324.14171290397644,324.14171290397644,326.92709159851074,1,2.926731824874878,None,,,,,,,,,,,,,,,,,,204,4,2025-03-06_14h45.57.402,comp,2024.2.4,53.34913934003987,2025-03-06 14h48.17.899326 -0500,
109,109,0,critical,hwd,20.0,3.0,upper,200.0,125.0,125.0,200.0,141.0,141.0,2,3.6203019618988037,None,,,,,0,0,0,0,0,109,109,105,326.9427795410156,,,,,,,,,,,,,,,,,,,,,,,,,,,,,,,,,,,,,,,,,,,,,,,,,,,,,,,,,,,,,,,,,,,,,,,,,,,,,,,,,200.0,125.0,125.0,200.0,141.0,141.0,3.0,3.1,-258,277,0,-5,266,-264,326.9285469055176,326.9286608695984,326.9320559501648,326.9427795410156,327.0898702144623,327.0898702144623,327.0898702144623,327.0898702144623,327.0898702144623,327.0898702144623,327.0898702144623,330.5746786594391,2,3.6203019618988037,None,,,,,,,,,,,,,,,,,,204,4,2025-03-06_14h45.57.402,comp,2024.2.4,53.34913934003987,2025-03-06 14h48.17.899326 -0500,
110,110,0,filler_square,None,None,None,None,None,None,None,None,None,None,3,2.6177871227264404,None,,,,,0,0,0,0,0,110,110,171,330.5917224884033,,,,,,,,,,,,,,,,,,,,,,,,,,,,,,,,,,,,,,,,,,,,,,,,,,,,,,,,,,,,,,,,,,,,,,,,,,,,,,,,,63.06915748593941,83.12608864332272,73.57563613064207,82.32697337475123,89.33484068442803,89.33484068442803,1.0,1.1,-659,269,-480,263,-298,280,330.57677268981934,330.5768599510193,330.58087682724,330.5917224884033,330.7402548789978,330.7402548789978,330.7402548789978,330.7402548789978,330.7402548789978,330.7402548789978,330.7402548789978,333.22819089889526,3,2.6177871227264404,None,,,,,,,,,,,,,,,,,,204,4,2025-03-06_14h45.57.402,comp,2024.2.4,53.34913934003987,2025-03-06 14h48.17.899326 -0500,
111,111,0,critical,whd,20.0,2.1,lower,57.0,133.0,133.0,57.0,78.0,78.0,2,5.088876485824585,None,,,,,0,0,0,0,0,111,111,38,333.2492311000824,,,,,,,,,,,,,,,,,,,,,,,,,,,,,,,,,,,,,,,,,,,,,,,,,,,,,,,,,,,,,,,,,,,,,,,,,,,,,,,,,57.0,133.0,133.0,57.0,78.0,78.0,2.1,2.11,-191,281,0,250,164,-272,333.2298696041107,333.2299919128418,333.23388862609863,333.2492311000824,333.3878993988037,333.3878993988037,333.3878993988037,333.3878993988037,333.3878993988037,333.3878993988037,333.3878993988037,338.3407938480377,2,5.088876485824585,None,,,,,,,,,,,,,,,,,,204,4,2025-03-06_14h45.57.402,comp,2024.2.4,53.34913934003987,2025-03-06 14h48.17.899326 -0500,
112,112,0,critical,hwd,20.0,4.0,lower,133.0,57.0,57.0,133.0,78.0,78.0,2,5.203317165374756,None,,,,,0,0,0,0,0,112,112,106,338.35807061195374,,,,,,,,,,,,,,,,,,,,,,,,,,,,,,,,,,,,,,,,,,,,,,,,,,,,,,,,,,,,,,,,,,,,,,,,,,,,,,,,,133.0,57.0,57.0,133.0,78.0,78.0,4.0,4.2,-191,17,0,-269,202,-14,338.34239864349365,338.34247875213623,338.34633803367615,338.35807061195374,338.49646067619324,338.49646067619324,338.49646067619324,338.49646067619324,338.49646067619324,338.49646067619324,338.49646067619324,343.57774019241333,2,5.203317165374756,None,,,,,,,,,,,,,,,,,,204,4,2025-03-06_14h45.57.402,comp,2024.2.4,53.34913934003987,2025-03-06 14h48.17.899326 -0500,
113,113,0,filler_random,None,None,None,None,None,None,None,None,None,None,3,2.3918771743774414,None,,,,,0,0,0,0,0,113,113,149,343.59434032440186,,,,,,,,,,,,,,,,,,,,,,,,,,,,,,,,,,,,,,,,,,,,,,,,,,,,,,,,,,,,,,,,,,,,,,,,,,,,,,,,,83.26488690586729,162.72266171992794,143.72281801530858,124.80978486732174,155.64510930792028,130.71897047575192,2.2,2.21,-240,-281,0,255,224,283,343.57952213287354,343.5796318054199,343.58399510383606,343.59434032440186,343.7464451789856,343.7464451789856,343.7464451789856,343.7464451789856,343.7464451789856,343.7464451789856,343.7464451789856,345.9961931705475,3,2.3918771743774414,None,,,,,,,,,,,,,,,,,,204,4,2025-03-06_14h45.57.402,comp,2024.2.4,53.34913934003987,2025-03-06 14h48.17.899326 -0500,
114,114,0,filler_random,None,None,None,None,None,None,None,None,None,None,1,1.229377031326294,None,,,,,0,0,0,0,0,114,114,135,346.01246643066406,,,,,,,,,,,,,,,,,,,,,,,,,,,,,,,,,,,,,,,,,,,,,,,,,,,,,,,,,,,,,,,,,,,,,,,,,,,,,,,,,175.70890111901406,138.62457854638552,107.49347548017906,151.87392334375443,174.69928858213592,106.89800550486488,3.0,3.2,-241,-269,0,-16,225,251,345.99794363975525,345.9980683326721,346.00164699554443,346.01246643066406,346.16453409194946,346.16453409194946,346.16453409194946,346.16453409194946,346.16453409194946,346.16453409194946,346.16453409194946,347.24417328834534,1,1.229377031326294,None,,,,,,,,,,,,,,,,,,204,4,2025-03-06_14h45.57.402,comp,2024.2.4,53.34913934003987,2025-03-06 14h48.17.899326 -0500,
115,115,0,critical,wdh,35.0,2.1,upper,125.0,200.0,127.0,127.0,200.0,125.0,3,3.252239227294922,None,,,,,0,0,0,0,0,115,115,9,347.2614653110504,,,,,,,,,,,,,,,,,,,,,,,,,,,,,,,,,,,,,,,,,,,,,,,,,,,,,,,,,,,,,,,,,,,,,,,,,,,,,,,,,125.0,200.0,127.0,127.0,200.0,125.0,2.1,2.11,-260,274,0,265,222,-257,347.24586749076843,347.24597001075745,347.2497456073761,347.2614653110504,347.4199125766754,347.4199125766754,347.4199125766754,347.4199125766754,347.4199125766754,347.4199125766754,347.4199125766754,350.53051686286926,3,3.252239227294922,None,,,,,,,,,,,,,,,,,,204,4,2025-03-06_14h45.57.402,comp,2024.2.4,53.34913934003987,2025-03-06 14h48.17.899326 -0500,
116,116,0,filler_random,None,None,None,None,None,None,None,None,None,None,2,9.982578039169312,None,,,,,0,0,0,0,0,116,116,146,350.5468273162842,,,,,,,,,,,,,,,,,,,,,,,,,,,,,,,,,,,,,,,,,,,,,,,,,,,,,,,,,,,,,,,,,,,,,,,,,,,,,,,,,60.34981118655868,149.86559813313056,144.7253992102664,152.14024172291906,179.84452264116666,100.31513361476019,2.2,2.22,-247,252,0,-265,222,-255,350.53241205215454,350.53250670433044,350.53627467155457,350.5468273162842,350.69728446006775,350.69728446006775,350.69728446006775,350.69728446006775,350.69728446006775,350.69728446006775,350.69728446006775,360.54886198043823,2,9.982578039169312,None,,,,,,,,,,,,,,,,,,204,4,2025-03-06_14h45.57.402,comp,2024.2.4,53.34913934003987,2025-03-06 14h48.17.899326 -0500,
117,117,0,critical,whd,35.0,2.1,lower,57.0,133.0,133.0,57.0,70.0,70.0,1,6.965733766555786,None,,,,,0,0,0,0,0,117,117,36,360.5643186569214,,,,,,,,,,,,,,,,,,,,,,,,,,,,,,,,,,,,,,,,,,,,,,,,,,,,,,,,,,,,,,,,,,,,,,,,,,,,,,,,,57.0,133.0,133.0,57.0,70.0,70.0,2.1,2.12,-191,-288,0,-264,160,259,360.55039167404175,360.55047035217285,360.55400133132935,360.5643186569214,360.72127985954285,360.72127985954285,360.72127985954285,360.72127985954285,360.72127985954285,360.72127985954285,360.72127985954285,367.5348641872406,1,6.965733766555786,None,,,,,,,,,,,,,,,,,,204,4,2025-03-06_14h45.57.402,comp,2024.2.4,53.34913934003987,2025-03-06 14h48.17.899326 -0500,
118,118,0,critical,wdh,20.0,1.0,lower,57.0,133.0,78.0,78.0,133.0,57.0,3,2.8501105308532715,None,,,,,0,0,0,0,0,118,118,78,367.55141401290894,,,,,,,,,,,,,,,,,,,,,,,,,,,,,,,,,,,,,,,,,,,,,,,,,,,,,,,,,,,,,,,,,,,,,,,,,,,,,,,,,57.0,133.0,78.0,78.0,133.0,57.0,1.0,1.3,278,-269,480,-267,644,-278,367.53647804260254,367.5366060733795,367.5404896736145,367.55141401290894,367.69858479499817,367.69858479499817,367.69858479499817,367.69858479499817,367.69858479499817,367.69858479499817,367.69858479499817,370.4181864261627,3,2.8501105308532715,None,,,,,,,,,,,,,,,,,,204,4,2025-03-06_14h45.57.402,comp,2024.2.4,53.34913934003987,2025-03-06 14h48.17.899326 -0500,
119,119,0,critical,hwd,35.0,1.0,lower,133.0,57.0,57.0,133.0,70.0,70.0,1,2.4200026988983154,None,,,,,0,0,0,0,0,119,119,96,370.43796467781067,,,,,,,,,,,,,,,,,,,,,,,,,,,,,,,,,,,,,,,,,,,,,,,,,,,,,,,,,,,,,,,,,,,,,,,,,,,,,,,,,133.0,57.0,57.0,133.0,70.0,70.0,1.0,1.1,-671,271,-480,264,-282,251,370.41979718208313,370.41987228393555,370.42348647117615,370.43796467781067,370.5858898162842,370.5858898162842,370.5858898162842,370.5858898162842,370.5858898162842,370.5858898162842,370.5858898162842,372.86018347740173,1,2.4200026988983154,None,,,,,,,,,,,,,,,,,,204,4,2025-03-06_14h45.57.402,comp,2024.2.4,53.34913934003987,2025-03-06 14h48.17.899326 -0500,
120,120,0,critical,whd,35.0,2.1,upper,125.0,200.0,200.0,125.0,127.0,127.0,2,2.256895065307617,None,,,,,0,0,0,0,0,120,120,13,372.8809711933136,,,,,,,,,,,,,,,,,,,,,,,,,,,,,,,,,,,,,,,,,,,,,,,,,,,,,,,,,,,,,,,,,,,,,,,,,,,,,,,,,125.0,200.0,200.0,125.0,127.0,127.0,2.1,2.11,-258,252,0,286,222,-289,372.8617959022522,372.86187529563904,372.86521768569946,372.8809711933136,373.0212299823761,373.0212299823761,373.0212299823761,373.0212299823761,373.0212299823761,373.0212299823761,373.0212299823761,375.155380487442,2,2.256895065307617,None,,,,,,,,,,,,,,,,,,204,4,2025-03-06_14h45.57.402,comp,2024.2.4,53.34913934003987,2025-03-06 14h48.17.899326 -0500,
121,121,0,filler_square,None,None,None,None,None,None,None,None,None,None,3,1.645646572113037,None,,,,,0,0,0,0,0,121,121,172,375.17200112342834,,,,,,,,,,,,,,,,,,,,,,,,,,,,,,,,,,,,,,,,,,,,,,,,,,,,,,,,,,,,,,,,,,,,,,,,,,,,,,,,,57.323625106891534,59.1371795883257,65.82143508594234,65.82143508594234,65.38128035082104,64.05280063367672,3.0,3.1,-158,256,0,16,161,-252,375.1574034690857,375.15748405456543,375.16160321235657,375.17200112342834,375.32093954086304,375.32093954086304,375.32093954086304,375.32093954086304,375.32093954086304,375.32093954086304,375.32093954086304,376.82030177116394,3,1.645646572113037,None,,,,,,,,,,,,,,,,,,204,4,2025-03-06_14h45.57.402,comp,2024.2.4,53.34913934003987,2025-03-06 14h48.17.899326 -0500,
122,122,0,critical,dhw,35.0,4.0,upper,127.0,127.0,200.0,125.0,125.0,200.0,2,2.743943214416504,None,,,,,0,0,0,0,0,122,122,53,376.84184551239014,,,,,,,,,,,,,,,,,,,,,,,,,,,,,,,,,,,,,,,,,,,,,,,,,,,,,,,,,,,,,,,,,,,,,,,,,,,,,,,,,127.0,127.0,200.0,125.0,125.0,200.0,4.0,4.2,-222,15,0,-260,258,12,376.821809053421,376.82188510894775,376.825222492218,376.84184551239014,376.9876661300659,376.9876661300659,376.9876661300659,376.9876661300659,376.9876661300659,376.9876661300659,376.9876661300659,379.5879044532776,2,2.743943214416504,None,,,,,,,,,,,,,,,,,,204,4,2025-03-06_14h45.57.402,comp,2024.2.4,53.34913934003987,2025-03-06 14h48.17.899326 -0500,
123,123,0,filler_random,None,None,None,None,None,None,None,None,None,None,2,1.4205753803253174,None,,,,,0,0,0,0,0,123,123,163,379.6049642562866,,,,,,,,,,,,,,,,,,,,,,,,,,,,,,,,,,,,,,,,,,,,,,,,,,,,,,,,,,,,,,,,,,,,,,,,,,,,,,,,,111.45146222915693,158.57525660492354,180.79759564012141,188.30761967898175,127.36214443182179,124.154819236807,4.0,4.1,-269,-255,0,-3,252,-252,379.58961367607117,379.58969593048096,379.59333968162537,379.6049642562866,379.75221967697144,379.75221967697144,379.75221967697144,379.75221967697144,379.75221967697144,379.75221967697144,379.75221967697144,381.04002833366394,2,1.4205753803253174,None,,,,,,,,,,,,,,,,,,204,4,2025-03-06_14h45.57.402,comp,2024.2.4,53.34913934003987,2025-03-06 14h48.17.899326 -0500,
124,124,0,filler_square,None,None,None,None,None,None,None,None,None,None,3,1.4255802631378174,None,,,,,0,0,0,0,0,124,124,207,381.05673599243164,,,,,,,,,,,,,,,,,,,,,,,,,,,,,,,,,,,,,,,,,,,,,,,,,,,,,,,,,,,,,,,,,,,,,,,,,,,,,,,,,88.25428418017447,138.2476150170325,103.53089692136368,87.16642787413514,155.90482060693154,155.90482060693154,2.2,2.22,-209,267,0,-274,218,-268,381.0421314239502,381.04221177101135,381.0462954044342,381.05673599243164,381.2064471244812,381.2064471244812,381.2064471244812,381.2064471244812,381.2064471244812,381.2064471244812,381.2064471244812,382.4896845817566,3,1.4255802631378174,None,,,,,,,,,,,,,,,,,,204,4,2025-03-06_14h45.57.402,comp,2024.2.4,53.34913934003987,2025-03-06 14h48.17.899326 -0500,
125,125,0,filler_random,None,None,None,None,None,None,None,None,None,None,1,1.142932653427124,None,,,,,0,0,0,0,0,125,125,144,382.5067296028137,,,,,,,,,,,,,,,,,,,,,,,,,,,,,,,,,,,,,,,,,,,,,,,,,,,,,,,,,,,,,,,,,,,,,,,,,,,,,,,,,71.66711759613179,198.91976437002324,76.53742951362737,103.41946079187541,85.77596729258076,175.97679438874468,2.1,2.12,-247,-253,0,-273,236,267,382.49146127700806,382.4915430545807,382.4955470561981,382.5067296028137,382.655641078949,382.655641078949,382.655641078949,382.655641078949,382.655641078949,382.655641078949,382.655641078949,383.65196442604065,1,1.142932653427124,None,,,,,,,,,,,,,,,,,,204,4,2025-03-06_14h45.57.402,comp,2024.2.4,53.34913934003987,2025-03-06 14h48.17.899326 -0500,
126,126,0,critical,wdh,20.0,4.0,lower,57.0,133.0,78.0,78.0,133.0,57.0,3,1.7529542446136475,None,,,,,0,0,0,0,0,126,126,82,383.67260098457336,,,,,,,,,,,,,,,,,,,,,,,,,,,,,,,,,,,,,,,,,,,,,,,,,,,,,,,,,,,,,,,,,,,,,,,,,,,,,,,,,57.0,133.0,78.0,78.0,133.0,57.0,4.0,4.2,-202,-18,0,-254,164,-6,383.6535143852234,383.6536240577698,383.65697407722473,383.67260098457336,383.8076639175415,383.8076639175415,383.8076639175415,383.8076639175415,383.8076639175415,383.8076639175415,383.8076639175415,385.4476602077484,3,1.7529542446136475,None,,,,,,,,,,,,,,,,,,204,4,2025-03-06_14h45.57.402,comp,2024.2.4,53.34913934003987,2025-03-06 14h48.17.899326 -0500,
127,127,0,critical,wdh,35.0,4.0,upper,125.0,200.0,127.0,127.0,200.0,125.0,1,2.278240203857422,None,,,,,0,0,0,0,0,127,127,77,385.46792101860046,,,,,,,,,,,,,,,,,,,,,,,,,,,,,,,,,,,,,,,,,,,,,,,,,,,,,,,,,,,,,,,,,,,,,,,,,,,,,,,,,125.0,200.0,127.0,127.0,200.0,125.0,4.0,4.1,-260,-264,0,-19,222,-259,385.44921350479126,385.4492905139923,385.45264291763306,385.46792101860046,385.6086595058441,385.6086595058441,385.6086595058441,385.6086595058441,385.6086595058441,385.6086595058441,385.6086595058441,387.7577521800995,1,2.278240203857422,None,,,,,,,,,,,,,,,,,,204,4,2025-03-06_14h45.57.402,comp,2024.2.4,53.34913934003987,2025-03-06 14h48.17.899326 -0500,
128,128,0,critical,hwd,20.0,2.1,lower,133.0,57.0,57.0,133.0,78.0,78.0,1,2.931941270828247,None,,,,,0,0,0,0,0,128,128,18,387.7741014957428,,,,,,,,,,,,,,,,,,,,,,,,,,,,,,,,,,,,,,,,,,,,,,,,,,,,,,,,,,,,,,,,,,,,,,,,,,,,,,,,,133.0,57.0,57.0,133.0,78.0,78.0,2.1,2.12,-191,-274,0,-271,202,272,387.7592833042145,387.7593605518341,387.76314330101013,387.7741014957428,387.92397809028625,387.92397809028625,387.92397809028625,387.92397809028625,387.92397809028625,387.92397809028625,387.92397809028625,390.71576833724976,1,2.931941270828247,None,,,,,,,,,,,,,,,,,,204,4,2025-03-06_14h45.57.402,comp,2024.2.4,53.34913934003987,2025-03-06 14h48.17.899326 -0500,
129,129,0,critical,wdh,35.0,4.0,lower,57.0,133.0,70.0,70.0,133.0,57.0,3,2.8086256980895996,None,,,,,0,0,0,0,0,129,129,76,390.7368221282959,,,,,,,,,,,,,,,,,,,,,,,,,,,,,,,,,,,,,,,,,,,,,,,,,,,,,,,,,,,,,,,,,,,,,,,,,,,,,,,,,57.0,133.0,70.0,70.0,133.0,57.0,4.0,4.1,-198,-268,0,-2,160,-258,390.7173833847046,390.7174861431122,390.72125911712646,390.7368221282959,390.8766396045685,390.8766396045685,390.8766396045685,390.8766396045685,390.8766396045685,390.8766396045685,390.8766396045685,393.5584890842438,3,2.8086256980895996,None,,,,,,,,,,,,,,,,,,204,4,2025-03-06_14h45.57.402,comp,2024.2.4,53.34913934003987,2025-03-06 14h48.17.899326 -0500,
130,130,0,filler_random,None,None,None,None,None,None,None,None,None,None,2,1.6109559535980225,None,,,,,0,0,0,0,0,130,130,147,393.57523250579834,,,,,,,,,,,,,,,,,,,,,,,,,,,,,,,,,,,,,,,,,,,,,,,,,,,,,,,,,,,,,,,,,,,,,,,,,,,,,,,,,93.35556410361178,114.78530897245193,153.4473583991627,184.65677771671915,95.38900509613092,146.2124594520993,4.0,4.2,-246,0,0,-265,261,-9,393.5602459907532,393.5603222846985,393.56395649909973,393.57523250579834,393.71517729759216,393.71517729759216,393.71517729759216,393.71517729759216,393.71517729759216,393.71517729759216,393.71517729759216,395.1942527294159,2,1.6109559535980225,None,,,,,,,,,,,,,,,,,,204,4,2025-03-06_14h45.57.402,comp,2024.2.4,53.34913934003987,2025-03-06 14h48.17.899326 -0500,
131,131,0,filler_square,None,None,None,None,None,None,None,None,None,None,2,2.751173496246338,None,,,,,0,0,0,0,0,131,131,183,395.21059131622314,,,,,,,,,,,,,,,,,,,,,,,,,,,,,,,,,,,,,,,,,,,,,,,,,,,,,,,,,,,,,,,,,,,,,,,,,,,,,,,,,80.86091524798927,79.29064036875997,87.63985306506508,87.63985306506508,73.31929119762341,72.06882608780374,4.0,4.2,-179,-12,0,-279,176,11,395.1960713863373,395.1961498260498,395.19989037513733,395.21059131622314,395.364305973053,395.364305973053,395.364305973053,395.364305973053,395.364305973053,395.364305973053,395.364305973053,397.965318441391,2,2.751173496246338,None,,,,,,,,,,,,,,,,,,204,4,2025-03-06_14h45.57.402,comp,2024.2.4,53.34913934003987,2025-03-06 14h48.17.899326 -0500,
132,132,0,critical,dhw,20.0,3.0,lower,78.0,78.0,133.0,57.0,57.0,133.0,3,2.3592138290405273,None,,,,,0,0,0,0,0,132,132,56,397.98626255989075,,,,,,,,,,,,,,,,,,,,,,,,,,,,,,,,,,,,,,,,,,,,,,,,,,,,,,,,,,,,,,,,,,,,,,,,,,,,,,,,,78.0,78.0,133.0,57.0,57.0,133.0,3.0,3.1,-164,257,0,8,191,-269,397.96694827079773,397.9670286178589,397.9705443382263,397.98626255989075,398.1306436061859,398.1306436061859,398.1306436061859,398.1306436061859,398.1306436061859,398.1306436061859,398.1306436061859,400.36097526550293,3,2.3592138290405273,None,,,,,,,,,,,,,,,,,,204,4,2025-03-06_14h45.57.402,comp,2024.2.4,53.34913934003987,2025-03-06 14h48.17.899326 -0500,
133,133,0,filler_square,None,None,None,None,None,None,None,None,None,None,3,0.9424192905426025,None,,,,,0,0,0,0,0,133,133,206,400.379665851593,,,,,,,,,,,,,,,,,,,,,,,,,,,,,,,,,,,,,,,,,,,,,,,,,,,,,,,,,,,,,,,,,,,,,,,,,,,,,,,,,178.87150057368416,85.2529455142826,165.3455824157217,129.01217880165544,193.1677410632951,193.1677410632951,4.0,4.1,-203,-289,0,10,257,-262,400.3629643917084,400.3630402088165,400.36688804626465,400.379665851593,400.5288121700287,400.5288121700287,400.5288121700287,400.5288121700287,400.5288121700287,400.5288121700287,400.5288121700287,401.32751059532166,3,0.9424192905426025,None,,,,,,,,,,,,,,,,,,204,4,2025-03-06_14h45.57.402,comp,2024.2.4,53.34913934003987,2025-03-06 14h48.17.899326 -0500,
134,134,0,filler_square,None,None,None,None,None,None,None,None,None,None,2,1.4256007671356201,None,,,,,0,0,0,0,0,134,134,192,401.34453988075256,,,,,,,,,,,,,,,,,,,,,,,,,,,,,,,,,,,,,,,,,,,,,,,,,,,,,,,,,,,,,,,,,,,,,,,,,,,,,,,,,70.03097974366437,70.03097974366437,67.64872909247244,62.43178523026612,68.28420860970311,68.49909735849671,4.0,4.1,-162,-281,0,-4,161,-276,401.3293216228485,401.3293981552124,401.3329131603241,401.34453988075256,401.4966027736664,401.4966027736664,401.4966027736664,401.4966027736664,401.4966027736664,401.4966027736664,401.4966027736664,402.781046628952,2,1.4256007671356201,None,,,,,,,,,,,,,,,,,,204,4,2025-03-06_14h45.57.402,comp,2024.2.4,53.34913934003987,2025-03-06 14h48.17.899326 -0500,
135,135,0,critical,wdh,20.0,2.1,lower,57.0,133.0,78.0,78.0,133.0,57.0,3,5.892946481704712,None,,,,,0,0,0,0,0,135,135,34,402.7978746891022,,,,,,,,,,,,,,,,,,,,,,,,,,,,,,,,,,,,,,,,,,,,,,,,,,,,,,,,,,,,,,,,,,,,,,,,,,,,,,,,,57.0,133.0,78.0,78.0,133.0,57.0,2.1,2.11,-202,284,0,284,164,-286,402.78280782699585,402.78289127349854,402.7870717048645,402.7978746891022,402.94513511657715,402.94513511657715,402.94513511657715,402.94513511657715,402.94513511657715,402.94513511657715,402.94513511657715,408.69693183898926,3,5.892946481704712,None,,,,,,,,,,,,,,,,,,204,4,2025-03-06_14h45.57.402,comp,2024.2.4,53.34913934003987,2025-03-06 14h48.17.899326 -0500,
136,136,0,critical,dwh,20.0,2.1,lower,78.0,78.0,57.0,133.0,133.0,57.0,3,2.3284811973571777,None,,,,,0,0,0,0,0,136,136,6,408.72117471694946,,,,,,,,,,,,,,,,,,,,,,,,,,,,,,,,,,,,,,,,,,,,,,,,,,,,,,,,,,,,,,,,,,,,,,,,,,,,,,,,,78.0,78.0,57.0,133.0,133.0,57.0,2.1,2.11,-202,252,0,263,191,-259,408.69848012924194,408.6985824108124,408.7022547721863,408.72117471694946,408.86468291282654,408.86468291282654,408.86468291282654,408.86468291282654,408.86468291282654,408.86468291282654,408.86468291282654,411.0524671077728,3,2.3284811973571777,None,,,,,,,,,,,,,,,,,,204,4,2025-03-06_14h45.57.402,comp,2024.2.4,53.34913934003987,2025-03-06 14h48.17.899326 -0500,
137,137,0,critical,wdh,20.0,2.1,lower,57.0,133.0,78.0,78.0,133.0,57.0,3,2.322009325027466,None,,,,,0,0,0,0,0,137,137,10,411.0715968608856,,,,,,,,,,,,,,,,,,,,,,,,,,,,,,,,,,,,,,,,,,,,,,,,,,,,,,,,,,,,,,,,,,,,,,,,,,,,,,,,,57.0,133.0,78.0,78.0,133.0,57.0,2.1,2.12,-202,-284,0,-259,164,284,411.0542719364166,411.0544135570526,411.05835604667664,411.0715968608856,411.2155222892761,411.2155222892761,411.2155222892761,411.2155222892761,411.2155222892761,411.2155222892761,411.2155222892761,413.41003155708313,3,2.322009325027466,None,,,,,,,,,,,,,,,,,,204,4,2025-03-06_14h45.57.402,comp,2024.2.4,53.34913934003987,2025-03-06 14h48.17.899326 -0500,
138,138,0,critical,whd,20.0,3.0,lower,57.0,133.0,133.0,57.0,78.0,78.0,2,1.2212562561035156,None,,,,,0,0,0,0,0,138,138,92,413.4281179904938,,,,,,,,,,,,,,,,,,,,,,,,,,,,,,,,,,,,,,,,,,,,,,,,,,,,,,,,,,,,,,,,,,,,,,,,,,,,,,,,,57.0,133.0,133.0,57.0,78.0,78.0,3.0,3.2,-191,-279,0,7,164,264,413.4116723537445,413.4117479324341,413.41544222831726,413.4281179904938,413.5646433830261,413.5646433830261,413.5646433830261,413.5646433830261,413.5646433830261,413.5646433830261,413.5646433830261,414.66542625427246,2,1.2212562561035156,None,,,,,,,,,,,,,,,,,,204,4,2025-03-06_14h45.57.402,comp,2024.2.4,53.34913934003987,2025-03-06 14h48.17.899326 -0500,
139,139,0,critical,hdw,35.0,3.0,upper,200.0,125.0,127.0,127.0,125.0,200.0,3,3.680180788040161,None,,,,,0,0,0,0,0,139,139,111,414.6817910671234,,,,,,,,,,,,,,,,,,,,,,,,,,,,,,,,,,,,,,,,,,,,,,,,,,,,,,,,,,,,,,,,,,,,,,,,,,,,,,,,,200.0,125.0,127.0,127.0,125.0,200.0,3.0,3.1,-222,263,0,-5,260,-253,414.6670186519623,414.6670968532562,414.67060947418213,414.6817910671234,414.83179450035095,414.83179450035095,414.83179450035095,414.83179450035095,414.83179450035095,414.83179450035095,414.83179450035095,418.3665874004364,3,3.680180788040161,None,,,,,,,,,,,,,,,,,,204,4,2025-03-06_14h45.57.402,comp,2024.2.4,53.34913934003987,2025-03-06 14h48.17.899326 -0500,
