thisN,thisTrialN,thisRepN,effect,order,distance,config,diag,h_1,w_1,h_2,w_2,h_3,w_3,rect_choice.keys,rect_choice.rt,rect_choice.duration,instructions_loop.thisRepN,instructions_loop.thisTrialN,instructions_loop.thisN,instructions_loop.thisIndex,blocks.thisRepN,blocks.thisTrialN,blocks.thisN,blocks.thisIndex,trials.thisRepN,trials.thisTrialN,trials.thisN,trials.thisIndex,thisRow.t,notes,consent.started,agree_button.started,decline_button.started,consent_img.started,mouse.started,consent.stopped,agree_button.numClicks,agree_button.timesOn,agree_button.timesOff,decline_button.numClicks,decline_button.timesOn,decline_button.timesOff,mouse.x,mouse.y,mouse.leftButton,mouse.midButton,mouse.rightButton,mouse.time,mouse.clicked_name,exp_params.started,exp_params.stopped,welcome.started,welcome_text.started,welcome.stopped,instructions_1.started,instructions_1_text_1.started,instructions_1_text_2.started,key_resp.started,instructions_1.stopped,instructions_loop.key_resp.keys,instructions_loop.key_resp.rt,instructions_loop.key_resp.duration,instructions_2.started,instructions_2_text_1.started,instructions_2_text_2.started,key_resp_2.started,instructions_2.stopped,instructions_loop.key_resp_2.keys,instructions_loop.key_resp_2.rt,instructions_loop.key_resp_2.duration,instructions_3.started,instructions_3_text_1.started,r1_instr3.started,r2_instr3.started,r3_instr3.started,r1_instr3_label.started,r2_instr3_label.started,r3_instr3_label.started,instructions_3_text_3.started,instructions_3_text_4.started,key_resp_3.started,instructions_3.stopped,instructions_loop.key_resp_3.keys,instructions_loop.key_resp_3.rt,instructions_loop.key_resp_3.duration,instructions_4.started,instructions_4_text_1.started,instructions_4_text_3.started,instructions_4_text_2.started,key_resp_4.started,instructions_4.stopped,instructions_loop.key_resp_4.keys,instructions_loop.key_resp_4.rt,instructions_loop.key_resp_4.duration,instructions_5.started,instructions_5_text_1.started,instructions_5_text_2.started,key_resp_5.started,instructions_5.stopped,instructions_loop.key_resp_5.keys,instructions_loop.key_resp_5.rt,instructions_loop.key_resp_5.duration,start_exp.started,start_exp_text.started,key_resp_6.started,start_exp.stopped,key_resp_6.keys,key_resp_6.rt,key_resp_6.duration,h_1_tmp,w_1_tmp,h_2_tmp,w_2_tmp,h_3_tmp,w_3_tmp,config_tmp,config_tmp_1,r_1_x,r_1_y,r_2_x,r_2_y,r_3_x,r_3_y,pre_trial.started,pre_trial.stopped,choice_trial.started,rect_choice.started,r_1.started,r_2.started,r_3.started,r_1_label.started,r_2_label.started,r_3_label.started,prompt.started,choice_trial.stopped,trials.rect_choice.keys,trials.rect_choice.rt,trials.rect_choice.duration,end_block.started,end_block_text.started,end_block.stopped,end.started,end_text.started,key_resp_7.started,end.stopped,key_resp_7.keys,key_resp_7.rt,key_resp_7.duration,debriefing.started,debrief_form.started,end_debrief.started,debriefing.stopped,end_debrief.keys,end_debrief.rt,end_debrief.duration,participant,computer,date,expName,psychopyVersion,frameRate,expStart,
,,,,,,,,,,,,,,,,,,,,,,,,,,,,,,,0.04343080520629883,0.1353919506072998,0.1353919506072998,0.1353919506072998,0.042806148529052734,20.008907079696655,1,[19.872380256652832],[19.872389793395996],0,,,[-80.0],[-486.0],[1],[0],[0],[19.9537136554718],['agree_button'],,,,,,,,,,,,,,,,,,,,,,,,,,,,,,,,,,,,,,,,,,,,,,,,,,,,,,,,,,,,,,,,,,,,,,,,,,,,,,,,,,,,,,,,,,,,,,,,,,,,,,,,,,,205,5,2025-03-06_14h47.30.534,comp,2024.2.4,62.8322497528238,2025-03-06 14h47.43.798596 -0500,
,,,,,,,,,,,,,,,,,,,,,,,,,,,,,,,,,,,,,,,,,,,,,,,,,,20.00917100906372,20.00920343399048,,,,,,,,,,,,,,,,,,,,,,,,,,,,,,,,,,,,,,,,,,,,,,,,,,,,,,,,,,,,,,,,,,,,,,,,,,,,,,,,,,,,,,,,,,,,,,,,,,,,,,,,,205,5,2025-03-06_14h47.30.534,comp,2024.2.4,62.8322497528238,2025-03-06 14h47.43.798596 -0500,
,,,,,,,,,,,,,,,,,,,,,,,,,,,,,,,,,,,,,,,,,,,,,,,,,,,,20.009225606918335,20.051103115081787,22.012534856796265,,,,,,,,,,,,,,,,,,,,,,,,,,,,,,,,,,,,,,,,,,,,,,,,,,,,,,,,,,,,,,,,,,,,,,,,,,,,,,,,,,,,,,,,,,,,,,,,,,,,,,205,5,2025-03-06_14h47.30.534,comp,2024.2.4,62.8322497528238,2025-03-06 14h47.43.798596 -0500,
0,0,0,,,,,,,,,,,,,,,0,0,0,0,,,,,,,,,22.029263257980347,,,,,,,,,,,,,,,,,,,,,,,,,,22.01305913925171,22.029263257980347,22.029263257980347,23.512512683868408,25.380646467208862,space,1.8510477542877197,None,25.38072919845581,25.396066427230835,25.396066427230835,26.895989179611206,29.53024697303772,space,2.617107629776001,None,29.530330657958984,29.563063859939575,29.563063859939575,29.563063859939575,29.563063859939575,29.563063859939575,29.563063859939575,29.563063859939575,29.563063859939575,29.563063859939575,31.029611825942993,35.96428108215332,space,4.916876316070557,None,35.9643714427948,35.97948408126831,35.97948408126831,35.97948408126831,37.47925424575806,40.16360592842102,space,2.6671173572540283,None,40.16369295120239,40.17947864532471,40.17947864532471,41.6792573928833,42.16352152824402,space,0.46688127517700195,None,42.16363525390625,42.179240226745605,42.179240226745605,43.23038387298584,space,1.0484340190887451,None,,,,,,,,,,,,,,,,,,,,,,,,,,,,,,,,,,,,,,,,,,,,,,,205,5,2025-03-06_14h47.30.534,comp,2024.2.4,62.8322497528238,2025-03-06 14h47.43.798596 -0500,
0,0,0,filler_random,None,None,None,None,None,None,None,None,None,None,1,3.1337568759918213,None,,,,,0,0,0,0,0,0,0,154,43.39590120315552,,,,,,,,,,,,,,,,,,,,,,,,,,,,,,,,,,,,,,,,,,,,,,,,,,,,,,,,,,,,,,,,,,,,,,,,,,,,,,,,,128.80284168800614,110.47466258170712,173.57797192926057,62.723725590995215,155.50813141639188,95.70691001464581,2.1,2.12,-183,-287,0,-281,175,278,43.38213634490967,43.38220286369324,43.38430070877075,43.39590120315552,43.55257558822632,43.55257558822632,43.55257558822632,43.55257558822632,43.55257558822632,43.55257558822632,43.55257558822632,46.547075510025024,1,3.1337568759918213,None,,,,,,,,,,,,,,,,,,205,5,2025-03-06_14h47.30.534,comp,2024.2.4,62.8322497528238,2025-03-06 14h47.43.798596 -0500,
1,1,0,critical,dwh,20.0,4.0,upper,141.0,141.0,125.0,200.0,200.0,125.0,3,4.311181545257568,None,,,,,0,0,0,0,0,1,1,71,46.56245493888855,,,,,,,,,,,,,,,,,,,,,,,,,,,,,,,,,,,,,,,,,,,,,,,,,,,,,,,,,,,,,,,,,,,,,,,,,,,,,,,,,141.0,141.0,125.0,200.0,200.0,125.0,4.0,4.1,-266,-290,0,9,258,-283,46.54790687561035,46.54794979095459,46.551459550857544,46.56245493888855,46.71270990371704,46.71270990371704,46.71270990371704,46.71270990371704,46.71270990371704,46.71270990371704,46.71270990371704,50.88046383857727,3,4.311181545257568,None,,,,,,,,,,,,,,,,,,205,5,2025-03-06_14h47.30.534,comp,2024.2.4,62.8322497528238,2025-03-06 14h47.43.798596 -0500,
2,2,0,critical,dhw,20.0,2.1,lower,78.0,78.0,133.0,57.0,57.0,133.0,2,6.7459728717803955,None,,,,,0,0,0,0,0,2,2,26,50.895949363708496,,,,,,,,,,,,,,,,,,,,,,,,,,,,,,,,,,,,,,,,,,,,,,,,,,,,,,,,,,,,,,,,,,,,,,,,,,,,,,,,,78.0,78.0,133.0,57.0,57.0,133.0,2.1,2.11,-164,272,0,274,191,-289,50.88126182556152,50.88130259513855,50.88341784477234,50.895949363708496,51.04576802253723,51.04576802253723,51.04576802253723,51.04576802253723,51.04576802253723,51.04576802253723,51.04576802253723,57.64691758155823,2,6.7459728717803955,None,,,,,,,,,,,,,,,,,,205,5,2025-03-06_14h47.30.534,comp,2024.2.4,62.8322497528238,2025-03-06 14h47.43.798596 -0500,
3,3,0,critical,dhw,35.0,2.1,lower,70.0,70.0,133.0,57.0,57.0,133.0,3,2.7167022228240967,None,,,,,0,0,0,0,0,3,3,0,57.662479877471924,,,,,,,,,,,,,,,,,,,,,,,,,,,,,,,,,,,,,,,,,,,,,,,,,,,,,,,,,,,,,,,,,,,,,,,,,,,,,,,,,70.0,70.0,133.0,57.0,57.0,133.0,2.1,2.12,-160,-284,0,-282,191,250,57.64773416519165,57.647775650024414,57.6503484249115,57.662479877471924,57.81243443489075,57.81243443489075,57.81243443489075,57.81243443489075,57.81243443489075,57.81243443489075,57.81243443489075,60.39689517021179,3,2.7167022228240967,None,,,,,,,,,,,,,,,,,,205,5,2025-03-06_14h47.30.534,comp,2024.2.4,62.8322497528238,2025-03-06 14h47.43.798596 -0500,
4,4,0,filler_square,None,None,None,None,None,None,None,None,None,None,1,1.677344560623169,None,,,,,0,0,0,0,0,4,4,195,60.41234469413757,,,,,,,,,,,,,,,,,,,,,,,,,,,,,,,,,,,,,,,,,,,,,,,,,,,,,,,,,,,,,,,,,,,,,,,,,,,,,,,,,118.79623638894577,118.79623638894577,76.95853127907597,116.80689490897495,89.58323611879975,92.08738725330619,4.0,4.2,-214,-2,0,-257,200,-16,60.39787435531616,60.397916078567505,60.40048432350159,60.41234469413757,60.562366008758545,60.562366008758545,60.562366008758545,60.562366008758545,60.562366008758545,60.562366008758545,60.562366008758545,62.09684228897095,1,1.677344560623169,None,,,,,,,,,,,,,,,,,,205,5,2025-03-06_14h47.30.534,comp,2024.2.4,62.8322497528238,2025-03-06 14h47.43.798596 -0500,
5,5,0,critical,hwd,35.0,2.1,lower,133.0,57.0,57.0,133.0,70.0,70.0,2,2.672430992126465,None,,,,,0,0,0,0,0,5,5,16,62.1123731136322,,,,,,,,,,,,,,,,,,,,,,,,,,,,,,,,,,,,,,,,,,,,,,,,,,,,,,,,,,,,,,,,,,,,,,,,,,,,,,,,,133.0,57.0,57.0,133.0,70.0,70.0,2.1,2.12,-191,-252,0,-256,198,263,62.09763216972351,62.09767293930054,62.10028052330017,62.1123731136322,62.262366771698,62.262366771698,62.262366771698,62.262366771698,62.262366771698,62.262366771698,62.262366771698,64.79707407951355,2,2.672430992126465,None,,,,,,,,,,,,,,,,,,205,5,2025-03-06_14h47.30.534,comp,2024.2.4,62.8322497528238,2025-03-06 14h47.43.798596 -0500,
6,6,0,filler_random,None,None,None,None,None,None,None,None,None,None,3,1.4934861660003662,None,,,,,0,0,0,0,0,6,6,152,64.81231117248535,,,,,,,,,,,,,,,,,,,,,,,,,,,,,,,,,,,,,,,,,,,,,,,,,,,,,,,,,,,,,,,,,,,,,,,,,,,,,,,,,141.79696620740447,159.24425002406633,60.65689579929982,69.98048074295872,178.2227523083553,140.02279753955898,4.0,4.2,-211,19,0,-271,201,4,64.79796409606934,64.79800462722778,64.8006603717804,64.81231117248535,64.9625952243805,64.9625952243805,64.9625952243805,64.9625952243805,64.9625952243805,64.9625952243805,64.9625952243805,66.31383991241455,3,1.4934861660003662,None,,,,,,,,,,,,,,,,,,205,5,2025-03-06_14h47.30.534,comp,2024.2.4,62.8322497528238,2025-03-06 14h47.43.798596 -0500,
7,7,0,filler_square,None,None,None,None,None,None,None,None,None,None,1,1.5195541381835938,None,,,,,0,0,0,0,0,7,7,199,66.32928323745728,,,,,,,,,,,,,,,,,,,,,,,,,,,,,,,,,,,,,,,,,,,,,,,,,,,,,,,,,,,,,,,,,,,,,,,,,,,,,,,,,104.64000525314106,104.64000525314106,65.2488431350659,79.23818566180938,60.73498433243077,100.08096097517256,3.0,3.2,-188,-269,0,19,186,287,66.31483268737793,66.31487464904785,66.31701469421387,66.32928323745728,66.47914147377014,66.47914147377014,66.47914147377014,66.47914147377014,66.47914147377014,66.47914147377014,66.47914147377014,67.86343932151794,1,1.5195541381835938,None,,,,,,,,,,,,,,,,,,205,5,2025-03-06_14h47.30.534,comp,2024.2.4,62.8322497528238,2025-03-06 14h47.43.798596 -0500,
8,8,0,critical,hwd,35.0,4.0,lower,133.0,57.0,57.0,133.0,70.0,70.0,1,2.1947927474975586,None,,,,,0,0,0,0,0,8,8,100,67.8789176940918,,,,,,,,,,,,,,,,,,,,,,,,,,,,,,,,,,,,,,,,,,,,,,,,,,,,,,,,,,,,,,,,,,,,,,,,,,,,,,,,,133.0,57.0,57.0,133.0,70.0,70.0,4.0,4.1,-191,-276,0,-5,198,-266,67.8642246723175,67.86426520347595,67.86669969558716,67.8789176940918,68.02907872200012,68.02907872200012,68.02907872200012,68.02907872200012,68.02907872200012,68.02907872200012,68.02907872200012,70.08005905151367,1,2.1947927474975586,None,,,,,,,,,,,,,,,,,,205,5,2025-03-06_14h47.30.534,comp,2024.2.4,62.8322497528238,2025-03-06 14h47.43.798596 -0500,
9,9,0,critical,hdw,20.0,1.0,upper,200.0,125.0,141.0,141.0,125.0,200.0,3,3.84196138381958,None,,,,,0,0,0,0,0,9,9,115,70.09579038619995,,,,,,,,,,,,,,,,,,,,,,,,,,,,,,,,,,,,,,,,,,,,,,,,,,,,,,,,,,,,,,,,,,,,,,,,,,,,,,,,,200.0,125.0,141.0,141.0,125.0,200.0,1.0,1.3,251,-272,480,-263,746,-272,70.08089470863342,70.08093690872192,70.08303928375244,70.09579038619995,70.24585509300232,70.24585509300232,70.24585509300232,70.24585509300232,70.24585509300232,70.24585509300232,70.24585509300232,73.94704866409302,3,3.84196138381958,None,,,,,,,,,,,,,,,,,,205,5,2025-03-06_14h47.30.534,comp,2024.2.4,62.8322497528238,2025-03-06 14h47.43.798596 -0500,
10,10,0,critical,hwd,35.0,1.0,lower,133.0,57.0,57.0,133.0,70.0,70.0,1,1.3343312740325928,None,,,,,0,0,0,0,0,10,10,96,73.96240830421448,,,,,,,,,,,,,,,,,,,,,,,,,,,,,,,,,,,,,,,,,,,,,,,,,,,,,,,,,,,,,,,,,,,,,,,,,,,,,,,,,133.0,57.0,57.0,133.0,70.0,70.0,1.0,1.3,289,-272,480,-264,678,-262,73.94783234596252,73.94787263870239,73.9498701095581,73.96240830421448,74.1122739315033,74.1122739315033,74.1122739315033,74.1122739315033,74.1122739315033,74.1122739315033,74.1122739315033,75.31339454650879,1,1.3343312740325928,None,,,,,,,,,,,,,,,,,,205,5,2025-03-06_14h47.30.534,comp,2024.2.4,62.8322497528238,2025-03-06 14h47.43.798596 -0500,
11,11,0,critical,dwh,20.0,3.0,lower,78.0,78.0,57.0,133.0,133.0,57.0,3,1.6558125019073486,None,,,,,0,0,0,0,0,11,11,68,75.32889223098755,,,,,,,,,,,,,,,,,,,,,,,,,,,,,,,,,,,,,,,,,,,,,,,,,,,,,,,,,,,,,,,,,,,,,,,,,,,,,,,,,78.0,78.0,57.0,133.0,133.0,57.0,3.0,3.2,-202,-262,0,-9,191,269,75.31414461135864,75.31419968605042,75.3166766166687,75.32889223098755,75.47897171974182,75.47897171974182,75.47897171974182,75.47897171974182,75.47897171974182,75.47897171974182,75.47897171974182,76.99689221382141,3,1.6558125019073486,None,,,,,,,,,,,,,,,,,,205,5,2025-03-06_14h47.30.534,comp,2024.2.4,62.8322497528238,2025-03-06 14h47.43.798596 -0500,
12,12,0,critical,hwd,35.0,2.1,lower,133.0,57.0,57.0,133.0,70.0,70.0,1,2.461240768432617,None,,,,,0,0,0,0,0,12,12,40,77.01221966743469,,,,,,,,,,,,,,,,,,,,,,,,,,,,,,,,,,,,,,,,,,,,,,,,,,,,,,,,,,,,,,,,,,,,,,,,,,,,,,,,,133.0,57.0,57.0,133.0,70.0,70.0,2.1,2.11,-191,265,0,284,198,-264,76.99771213531494,76.99775266647339,77.000253200531,77.01221966743469,77.16221332550049,77.16221332550049,77.16221332550049,77.16221332550049,77.16221332550049,77.16221332550049,77.16221332550049,79.48001790046692,1,2.461240768432617,None,,,,,,,,,,,,,,,,,,205,5,2025-03-06_14h47.30.534,comp,2024.2.4,62.8322497528238,2025-03-06 14h47.43.798596 -0500,
13,13,0,filler_square,None,None,None,None,None,None,None,None,None,None,3,2.3378727436065674,None,,,,,0,0,0,0,0,13,13,177,79.49579000473022,,,,,,,,,,,,,,,,,,,,,,,,,,,,,,,,,,,,,,,,,,,,,,,,,,,,,,,,,,,,,,,,,,,,,,,,,,,,,,,,,98.63914817976507,81.19020104045448,65.05275121552742,83.28777474212916,99.29718550743132,99.29718550743132,4.0,4.1,-178,-281,0,5,187,-269,79.48098230361938,79.48102402687073,79.48364782333374,79.49579000473022,79.64566898345947,79.64566898345947,79.64566898345947,79.64566898345947,79.64566898345947,79.64566898345947,79.64566898345947,81.84675598144531,3,2.3378727436065674,None,,,,,,,,,,,,,,,,,,205,5,2025-03-06_14h47.30.534,comp,2024.2.4,62.8322497528238,2025-03-06 14h47.43.798596 -0500,
14,14,0,critical,dwh,35.0,4.0,upper,127.0,127.0,125.0,200.0,200.0,125.0,2,2.106581687927246,None,,,,,0,0,0,0,0,14,14,65,81.86200308799744,,,,,,,,,,,,,,,,,,,,,,,,,,,,,,,,,,,,,,,,,,,,,,,,,,,,,,,,,,,,,,,,,,,,,,,,,,,,,,,,,127.0,127.0,125.0,200.0,200.0,125.0,4.0,4.2,-260,-7,0,-251,258,-9,81.84753775596619,81.84757924079895,81.85004043579102,81.86200308799744,82.01243090629578,82.01243090629578,82.01243090629578,82.01243090629578,82.01243090629578,82.01243090629578,82.01243090629578,83.98038077354431,2,2.106581687927246,None,,,,,,,,,,,,,,,,,,205,5,2025-03-06_14h47.30.534,comp,2024.2.4,62.8322497528238,2025-03-06 14h47.43.798596 -0500,
15,15,0,filler_square,None,None,None,None,None,None,None,None,None,None,2,1.2456114292144775,None,,,,,0,0,0,0,0,15,15,208,83.99578785896301,,,,,,,,,,,,,,,,,,,,,,,,,,,,,,,,,,,,,,,,,,,,,,,,,,,,,,,,,,,,,,,,,,,,,,,,,,,,,,,,,133.23253499846066,122.5215170740363,180.1517474081283,180.1517474081283,149.03246255838076,158.0999379739949,4.0,4.2,-247,-10,0,-255,265,-9,83.98136615753174,83.98140978813171,83.98385167121887,83.99578785896301,84.14575552940369,84.14575552940369,84.14575552940369,84.14575552940369,84.14575552940369,84.14575552940369,84.14575552940369,85.24706625938416,2,1.2456114292144775,None,,,,,,,,,,,,,,,,,,205,5,2025-03-06_14h47.30.534,comp,2024.2.4,62.8322497528238,2025-03-06 14h47.43.798596 -0500,
16,16,0,filler_random,None,None,None,None,None,None,None,None,None,None,1,2.0590782165527344,None,,,,,0,0,0,0,0,16,16,156,85.26226782798767,,,,,,,,,,,,,,,,,,,,,,,,,,,,,,,,,,,,,,,,,,,,,,,,,,,,,,,,,,,,,,,,,,,,,,,,,,,,,,,,,113.07897080182107,177.8997992921021,84.57304327659342,150.42141162356413,183.1085508742699,94.19389275942837,1.0,1.1,-740,254,-480,256,-262,268,85.24796533584595,85.24800443649292,85.2506046295166,85.26226782798767,85.41239809989929,85.41239809989929,85.41239809989929,85.41239809989929,85.41239809989929,85.41239809989929,85.41239809989929,87.33017253875732,1,2.0590782165527344,None,,,,,,,,,,,,,,,,,,205,5,2025-03-06_14h47.30.534,comp,2024.2.4,62.8322497528238,2025-03-06 14h47.43.798596 -0500,
17,17,0,critical,dwh,20.0,4.0,lower,78.0,78.0,57.0,133.0,133.0,57.0,3,1.8078289031982422,None,,,,,0,0,0,0,0,17,17,70,87.34574961662292,,,,,,,,,,,,,,,,,,,,,,,,,,,,,,,,,,,,,,,,,,,,,,,,,,,,,,,,,,,,,,,,,,,,,,,,,,,,,,,,,78.0,78.0,57.0,133.0,133.0,57.0,4.0,4.1,-202,-287,0,-19,191,-261,87.33096218109131,87.33100414276123,87.33334374427795,87.34574961662292,87.49550032615662,87.49550032615662,87.49550032615662,87.49550032615662,87.49550032615662,87.49550032615662,87.49550032615662,89.16326308250427,3,1.8078289031982422,None,,,,,,,,,,,,,,,,,,205,5,2025-03-06_14h47.30.534,comp,2024.2.4,62.8322497528238,2025-03-06 14h47.43.798596 -0500,
18,18,0,critical,dhw,35.0,2.1,upper,127.0,127.0,200.0,125.0,125.0,200.0,3,1.9175801277160645,None,,,,,0,0,0,0,0,18,18,1,89.17909502983093,,,,,,,,,,,,,,,,,,,,,,,,,,,,,,,,,,,,,,,,,,,,,,,,,,,,,,,,,,,,,,,,,,,,,,,,,,,,,,,,,127.0,127.0,200.0,125.0,125.0,200.0,2.1,2.11,-222,254,0,250,258,-281,89.16405820846558,89.16409993171692,89.16623711585999,89.17909502983093,89.32919430732727,89.32919430732727,89.32919430732727,89.32919430732727,89.32919430732727,89.32919430732727,89.32919430732727,91.11352586746216,3,1.9175801277160645,None,,,,,,,,,,,,,,,,,,205,5,2025-03-06_14h47.30.534,comp,2024.2.4,62.8322497528238,2025-03-06 14h47.43.798596 -0500,
19,19,0,critical,hdw,35.0,4.0,lower,133.0,57.0,70.0,70.0,57.0,133.0,1,1.697709083557129,None,,,,,0,0,0,0,0,19,19,112,91.12880730628967,,,,,,,,,,,,,,,,,,,,,,,,,,,,,,,,,,,,,,,,,,,,,,,,,,,,,,,,,,,,,,,,,,,,,,,,,,,,,,,,,133.0,57.0,70.0,70.0,57.0,133.0,4.0,4.2,-160,2,0,-258,198,-16,91.11431169509888,91.11435174942017,91.11677575111389,91.12880730628967,91.27881693840027,91.27881693840027,91.27881693840027,91.27881693840027,91.27881693840027,91.27881693840027,91.27881693840027,92.83004212379456,1,1.697709083557129,None,,,,,,,,,,,,,,,,,,205,5,2025-03-06_14h47.30.534,comp,2024.2.4,62.8322497528238,2025-03-06 14h47.43.798596 -0500,
20,20,0,critical,whd,20.0,2.1,lower,57.0,133.0,133.0,57.0,78.0,78.0,2,1.187976360321045,None,,,,,0,0,0,0,0,20,20,14,92.84559202194214,,,,,,,,,,,,,,,,,,,,,,,,,,,,,,,,,,,,,,,,,,,,,,,,,,,,,,,,,,,,,,,,,,,,,,,,,,,,,,,,,57.0,133.0,133.0,57.0,78.0,78.0,2.1,2.12,-191,-277,0,-270,164,269,92.83086323738098,92.83090448379517,92.83365821838379,92.84559202194214,92.99558758735657,92.99558758735657,92.99558758735657,92.99558758735657,92.99558758735657,92.99558758735657,92.99558758735657,94.04652619361877,2,1.187976360321045,None,,,,,,,,,,,,,,,,,,205,5,2025-03-06_14h47.30.534,comp,2024.2.4,62.8322497528238,2025-03-06 14h47.43.798596 -0500,
21,21,0,critical,dhw,35.0,3.0,lower,70.0,70.0,133.0,57.0,57.0,133.0,2,1.5492603778839111,None,,,,,0,0,0,0,0,21,21,50,94.06199502944946,,,,,,,,,,,,,,,,,,,,,,,,,,,,,,,,,,,,,,,,,,,,,,,,,,,,,,,,,,,,,,,,,,,,,,,,,,,,,,,,,70.0,70.0,133.0,57.0,57.0,133.0,3.0,3.1,-160,254,0,3,191,-273,94.04733490943909,94.04737687110901,94.04986906051636,94.06199502944946,94.21212363243103,94.21212363243103,94.21212363243103,94.21212363243103,94.21212363243103,94.21212363243103,94.21212363243103,95.61332941055298,2,1.5492603778839111,None,,,,,,,,,,,,,,,,,,205,5,2025-03-06_14h47.30.534,comp,2024.2.4,62.8322497528238,2025-03-06 14h47.43.798596 -0500,
22,22,0,filler_square,None,None,None,None,None,None,None,None,None,None,2,1.717067003250122,None,,,,,0,0,0,0,0,22,22,201,95.62883257865906,,,,,,,,,,,,,,,,,,,,,,,,,,,,,,,,,,,,,,,,,,,,,,,,,,,,,,,,,,,,,,,,,,,,,,,,,,,,,,,,,98.96104747191437,121.883365423842,170.22799595840198,170.22799595840198,145.8094497295503,61.241209447152755,2.1,2.12,-242,-266,0,-288,212,279,95.61428809165955,95.61433053016663,95.61652851104736,95.62883257865906,95.77907252311707,95.77907252311707,95.77907252311707,95.77907252311707,95.77907252311707,95.77907252311707,95.77907252311707,97.36349034309387,2,1.717067003250122,None,,,,,,,,,,,,,,,,,,205,5,2025-03-06_14h47.30.534,comp,2024.2.4,62.8322497528238,2025-03-06 14h47.43.798596 -0500,
23,23,0,filler_square,None,None,None,None,None,None,None,None,None,None,3,0.9753437042236328,None,,,,,0,0,0,0,0,23,23,202,97.37871479988098,,,,,,,,,,,,,,,,,,,,,,,,,,,,,,,,,,,,,,,,,,,,,,,,,,,,,,,,,,,,,,,,,,,,,,,,,,,,,,,,,76.04144151496149,141.03137949363983,147.78802583105409,68.46083738852467,186.58638945819425,186.58638945819425,2.2,2.21,-201,-256,0,257,224,255,97.36445713043213,97.36450004577637,97.367018699646,97.37871479988098,97.52892112731934,97.52892112731934,97.52892112731934,97.52892112731934,97.52892112731934,97.52892112731934,97.52892112731934,98.36337804794312,3,0.9753437042236328,None,,,,,,,,,,,,,,,,,,205,5,2025-03-06_14h47.30.534,comp,2024.2.4,62.8322497528238,2025-03-06 14h47.43.798596 -0500,
24,24,0,critical,hwd,20.0,4.0,upper,200.0,125.0,125.0,200.0,141.0,141.0,1,2.134093999862671,None,,,,,0,0,0,0,0,24,24,107,98.37896633148193,,,,,,,,,,,,,,,,,,,,,,,,,,,,,,,,,,,,,,,,,,,,,,,,,,,,,,,,,,,,,,,,,,,,,,,,,,,,,,,,,200.0,125.0,125.0,200.0,141.0,141.0,4.0,4.1,-258,-262,0,-15,266,-251,98.36418128013611,98.36422348022461,98.36657547950745,98.37896633148193,98.52902555465698,98.52902555465698,98.52902555465698,98.52902555465698,98.52902555465698,98.52902555465698,98.52902555465698,100.53008985519409,1,2.134093999862671,None,,,,,,,,,,,,,,,,,,205,5,2025-03-06_14h47.30.534,comp,2024.2.4,62.8322497528238,2025-03-06 14h47.43.798596 -0500,
25,25,0,critical,wdh,35.0,3.0,upper,125.0,200.0,127.0,127.0,200.0,125.0,3,2.033520460128784,None,,,,,0,0,0,0,0,25,25,75,100.54533982276917,,,,,,,,,,,,,,,,,,,,,,,,,,,,,,,,,,,,,,,,,,,,,,,,,,,,,,,,,,,,,,,,,,,,,,,,,,,,,,,,,125.0,200.0,127.0,127.0,200.0,125.0,3.0,3.1,-260,278,0,9,222,-277,100.5308985710144,100.5309407711029,100.53311324119568,100.54533982276917,100.69565844535828,100.69565844535828,100.69565844535828,100.69565844535828,100.69565844535828,100.69565844535828,100.69565844535828,102.5803291797638,3,2.033520460128784,None,,,,,,,,,,,,,,,,,,205,5,2025-03-06_14h47.30.534,comp,2024.2.4,62.8322497528238,2025-03-06 14h47.43.798596 -0500,
26,26,0,filler_square,None,None,None,None,None,None,None,None,None,None,3,1.374305009841919,None,,,,,0,0,0,0,0,26,26,181,102.59559965133667,,,,,,,,,,,,,,,,,,,,,,,,,,,,,,,,,,,,,,,,,,,,,,,,,,,,,,,,,,,,,,,,,,,,,,,,,,,,,,,,,109.42554157322803,57.295126293437974,83.75716603190267,124.013043131643,126.14641423251614,126.14641423251614,1.0,1.2,-187,16,0,7,221,15,102.58128714561462,102.58132791519165,102.58353328704834,102.59559965133667,102.74556303024292,102.74556303024292,102.74556303024292,102.74556303024292,102.74556303024292,102.74556303024292,102.74556303024292,103.98004364967346,3,1.374305009841919,None,,,,,,,,,,,,,,,,,,205,5,2025-03-06_14h47.30.534,comp,2024.2.4,62.8322497528238,2025-03-06 14h47.43.798596 -0500,
27,27,0,filler_square,None,None,None,None,None,None,None,None,None,None,3,1.1339170932769775,None,,,,,0,0,0,0,0,27,27,175,103.9956362247467,,,,,,,,,,,,,,,,,,,,,,,,,,,,,,,,,,,,,,,,,,,,,,,,,,,,,,,,,,,,,,,,,,,,,,,,,,,,,,,,,115.02855363010937,74.39492839625942,93.63801486662547,109.03698547063962,163.70718489896512,163.70718489896512,2.1,2.12,-188,-283,0,-273,232,287,103.98100590705872,103.98104858398438,103.98354458808899,103.9956362247467,104.14549708366394,104.14549708366394,104.14549708366394,104.14549708366394,104.14549708366394,104.14549708366394,104.14549708366394,105.14686274528503,3,1.1339170932769775,None,,,,,,,,,,,,,,,,,,205,5,2025-03-06_14h47.30.534,comp,2024.2.4,62.8322497528238,2025-03-06 14h47.43.798596 -0500,
28,28,0,filler_square,None,None,None,None,None,None,None,None,None,None,2,1.017026424407959,None,,,,,0,0,0,0,0,28,28,203,105.1619884967804,,,,,,,,,,,,,,,,,,,,,,,,,,,,,,,,,,,,,,,,,,,,,,,,,,,,,,,,,,,,,,,,,,,,,,,,,,,,,,,,,89.00866491546066,63.80356919586569,124.48929567595633,124.48929567595633,122.53786806464767,78.85643783185688,1.0,1.2,-190,13,0,9,198,-10,105.14781332015991,105.14785528182983,105.15048861503601,105.1619884967804,105.31200051307678,105.31200051307678,105.31200051307678,105.31200051307678,105.31200051307678,105.31200051307678,105.31200051307678,106.1965491771698,2,1.017026424407959,None,,,,,,,,,,,,,,,,,,205,5,2025-03-06_14h47.30.534,comp,2024.2.4,62.8322497528238,2025-03-06 14h47.43.798596 -0500,
29,29,0,filler_random,None,None,None,None,None,None,None,None,None,None,2,2.1885595321655273,None,,,,,0,0,0,0,0,29,29,133,106.2119631767273,,,,,,,,,,,,,,,,,,,,,,,,,,,,,,,,,,,,,,,,,,,,,,,,,,,,,,,,,,,,,,,,,,,,,,,,,,,,,,,,,91.00682176037814,109.01366519464571,150.50647652221812,120.0675549817282,107.49283785917727,145.2092330365433,3.0,3.1,-211,271,0,15,229,-268,106.19744396209717,106.19748425483704,106.19989705085754,106.2119631767273,106.36221837997437,106.36221837997437,106.36221837997437,106.36221837997437,106.36221837997437,106.36221837997437,106.36221837997437,108.41324830055237,2,2.1885595321655273,None,,,,,,,,,,,,,,,,,,205,5,2025-03-06_14h47.30.534,comp,2024.2.4,62.8322497528238,2025-03-06 14h47.43.798596 -0500,
30,30,0,critical,dhw,20.0,4.0,lower,78.0,78.0,133.0,57.0,57.0,133.0,3,1.3006069660186768,None,,,,,0,0,0,0,0,30,30,58,108.42866659164429,,,,,,,,,,,,,,,,,,,,,,,,,,,,,,,,,,,,,,,,,,,,,,,,,,,,,,,,,,,,,,,,,,,,,,,,,,,,,,,,,78.0,78.0,133.0,57.0,57.0,133.0,4.0,4.2,-164,-11,0,-255,191,-6,108.41404151916504,108.41408252716064,108.41649317741394,108.42866659164429,108.57886958122253,108.57886958122253,108.57886958122253,108.57886958122253,108.57886958122253,108.57886958122253,108.57886958122253,109.74655604362488,3,1.3006069660186768,None,,,,,,,,,,,,,,,,,,205,5,2025-03-06_14h47.30.534,comp,2024.2.4,62.8322497528238,2025-03-06 14h47.43.798596 -0500,
31,31,0,filler_random,None,None,None,None,None,None,None,None,None,None,1,1.4382987022399902,None,,,,,0,0,0,0,0,31,31,149,109.76204085350037,,,,,,,,,,,,,,,,,,,,,,,,,,,,,,,,,,,,,,,,,,,,,,,,,,,,,,,,,,,,,,,,,,,,,,,,,,,,,,,,,186.29557534772582,162.85730659440537,145.05313519418232,74.93181304653649,160.11571598982266,91.00525016429829,2.2,2.21,-215,-271,0,272,179,272,109.74748611450195,109.74752831459045,109.74998021125793,109.76204085350037,109.91220998764038,109.91220998764038,109.91220998764038,109.91220998764038,109.91220998764038,109.91220998764038,109.91220998764038,111.21331119537354,1,1.4382987022399902,None,,,,,,,,,,,,,,,,,,205,5,2025-03-06_14h47.30.534,comp,2024.2.4,62.8322497528238,2025-03-06 14h47.43.798596 -0500,
32,32,0,filler_square,None,None,None,None,None,None,None,None,None,None,2,3.155726671218872,None,,,,,0,0,0,0,0,32,32,182,111.22862958908081,,,,,,,,,,,,,,,,,,,,,,,,,,,,,,,,,,,,,,,,,,,,,,,,,,,,,,,,,,,,,,,,,,,,,,,,,,,,,,,,,66.6662521316205,66.6662521316205,64.53826993378291,66.50901545109335,59.857898414930794,59.762112999300484,2.1,2.12,-163,-275,0,-269,159,284,111.21426129341125,111.2143042087555,111.21644473075867,111.22862958908081,111.37877058982849,111.37877058982849,111.37877058982849,111.37877058982849,111.37877058982849,111.37877058982849,111.37877058982849,114.39669370651245,2,3.155726671218872,None,,,,,,,,,,,,,,,,,,205,5,2025-03-06_14h47.30.534,comp,2024.2.4,62.8322497528238,2025-03-06 14h47.43.798596 -0500,
33,33,0,critical,dwh,35.0,2.1,upper,127.0,127.0,125.0,200.0,200.0,125.0,3,1.8214685916900635,None,,,,,0,0,0,0,0,33,33,29,114.41190195083618,,,,,,,,,,,,,,,,,,,,,,,,,,,,,,,,,,,,,,,,,,,,,,,,,,,,,,,,,,,,,,,,,,,,,,,,,,,,,,,,,127.0,127.0,125.0,200.0,200.0,125.0,2.1,2.11,-260,252,0,269,258,-268,114.39753341674805,114.39757418632507,114.40027523040771,114.41190195083618,114.56230974197388,114.56230974197388,114.56230974197388,114.56230974197388,114.56230974197388,114.56230974197388,114.56230974197388,116.24670052528381,3,1.8214685916900635,None,,,,,,,,,,,,,,,,,,205,5,2025-03-06_14h47.30.534,comp,2024.2.4,62.8322497528238,2025-03-06 14h47.43.798596 -0500,
34,34,0,critical,hdw,35.0,2.1,upper,200.0,125.0,127.0,127.0,125.0,200.0,3,1.548980474472046,None,,,,,0,0,0,0,0,34,34,21,116.2619321346283,,,,,,,,,,,,,,,,,,,,,,,,,,,,,,,,,,,,,,,,,,,,,,,,,,,,,,,,,,,,,,,,,,,,,,,,,,,,,,,,,200.0,125.0,127.0,127.0,125.0,200.0,2.1,2.12,-222,-282,0,-277,260,284,116.24750399589539,116.24754524230957,116.249995470047,116.2619321346283,116.4663314819336,116.4663314819336,116.4663314819336,116.4663314819336,116.4663314819336,116.4663314819336,116.4663314819336,117.81343245506287,3,1.548980474472046,None,,,,,,,,,,,,,,,,,,205,5,2025-03-06_14h47.30.534,comp,2024.2.4,62.8322497528238,2025-03-06 14h47.43.798596 -0500,
35,35,0,critical,dhw,20.0,2.1,lower,78.0,78.0,133.0,57.0,57.0,133.0,3,1.5247626304626465,None,,,,,0,0,0,0,0,35,35,2,117.8288631439209,,,,,,,,,,,,,,,,,,,,,,,,,,,,,,,,,,,,,,,,,,,,,,,,,,,,,,,,,,,,,,,,,,,,,,,,,,,,,,,,,78.0,78.0,133.0,57.0,57.0,133.0,2.1,2.12,-164,-287,0,-256,191,278,117.8142306804657,117.8142716884613,117.81642174720764,117.8288631439209,117.97890138626099,117.97890138626099,117.97890138626099,117.97890138626099,117.97890138626099,117.97890138626099,117.97890138626099,119.36337351799011,3,1.5247626304626465,None,,,,,,,,,,,,,,,,,,205,5,2025-03-06_14h47.30.534,comp,2024.2.4,62.8322497528238,2025-03-06 14h47.43.798596 -0500,
36,36,0,critical,hwd,20.0,3.0,upper,200.0,125.0,125.0,200.0,141.0,141.0,1,1.3834481239318848,None,,,,,0,0,0,0,0,36,36,105,119.37895178794861,,,,,,,,,,,,,,,,,,,,,,,,,,,,,,,,,,,,,,,,,,,,,,,,,,,,,,,,,,,,,,,,,,,,,,,,,,,,,,,,,200.0,125.0,125.0,200.0,141.0,141.0,3.0,3.2,-258,-270,0,-2,266,265,119.36406683921814,119.36410236358643,119.36597275733948,119.37895178794861,119.52894830703735,119.52894830703735,119.52894830703735,119.52894830703735,119.52894830703735,119.52894830703735,119.52894830703735,120.77994751930237,1,1.3834481239318848,None,,,,,,,,,,,,,,,,,,205,5,2025-03-06_14h47.30.534,comp,2024.2.4,62.8322497528238,2025-03-06 14h47.43.798596 -0500,
37,37,0,catch,None,None,None,None,None,None,None,None,None,None,1,1.2003774642944336,None,,,,,0,0,0,0,0,37,37,122,120.7952675819397,,,,,,,,,,,,,,,,,,,,,,,,,,,,,,,,,,,,,,,,,,,,,,,,,,,,,,,,,,,,,,,,,,,,,,,,,,,,,,,,,140,185,79,111,96,94,3.0,3.1,-244,283,0,-4,198,-288,120.78101301193237,120.78105545043945,120.78325366973877,120.7952675819397,120.9454517364502,120.9454517364502,120.9454517364502,120.9454517364502,120.9454517364502,120.9454517364502,120.9454517364502,121.99692940711975,1,1.2003774642944336,None,,,,,,,,,,,,,,,,,,205,5,2025-03-06_14h47.30.534,comp,2024.2.4,62.8322497528238,2025-03-06 14h47.43.798596 -0500,
38,38,0,filler_square,None,None,None,None,None,None,None,None,None,None,2,1.604489803314209,None,,,,,0,0,0,0,0,38,38,183,122.01224660873413,,,,,,,,,,,,,,,,,,,,,,,,,,,,,,,,,,,,,,,,,,,,,,,,,,,,,,,,,,,,,,,,,,,,,,,,,,,,,,,,,114.52874950099162,71.05969611981206,132.94584431291523,132.94584431291523,131.89725327672267,115.22525886250415,2.2,2.21,-198,-265,0,258,220,290,121.99785900115967,121.99790072441101,122.00051951408386,122.01224660873413,122.16210842132568,122.16210842132568,122.16210842132568,122.16210842132568,122.16210842132568,122.16210842132568,122.16210842132568,123.62986040115356,2,1.604489803314209,None,,,,,,,,,,,,,,,,,,205,5,2025-03-06_14h47.30.534,comp,2024.2.4,62.8322497528238,2025-03-06 14h47.43.798596 -0500,
39,39,0,filler_random,None,None,None,None,None,None,None,None,None,None,3,1.7806675434112549,None,,,,,0,0,0,0,0,39,39,147,123.64522409439087,,,,,,,,,,,,,,,,,,,,,,,,,,,,,,,,,,,,,,,,,,,,,,,,,,,,,,,,,,,,,,,,,,,,,,,,,,,,,,,,,87.09566629872657,162.46232370382603,133.6946424753844,158.7068108474872,198.6982850379972,160.47218803207096,2.1,2.11,-257,251,0,254,256,-273,123.63075470924377,123.6307954788208,123.63346219062805,123.64522409439087,123.79553627967834,123.79553627967834,123.79553627967834,123.79553627967834,123.79553627967834,123.79553627967834,123.79553627967834,125.43015313148499,3,1.7806675434112549,None,,,,,,,,,,,,,,,,,,205,5,2025-03-06_14h47.30.534,comp,2024.2.4,62.8322497528238,2025-03-06 14h47.43.798596 -0500,
40,40,0,filler_square,None,None,None,None,None,None,None,None,None,None,3,1.6840474605560303,None,,,,,0,0,0,0,0,40,40,190,125.44546699523926,,,,,,,,,,,,,,,,,,,,,,,,,,,,,,,,,,,,,,,,,,,,,,,,,,,,,,,,,,,,,,,,,,,,,,,,,,,,,,,,,182.26689464334123,168.79261032512514,169.7376484565014,94.88198110599276,185.9963918621477,185.9963918621477,3.0,3.2,-228,-268,0,2,236,278,125.43108367919922,125.43112587928772,125.43337750434875,125.44546699523926,125.59552955627441,125.59552955627441,125.59552955627441,125.59552955627441,125.59552955627441,125.59552955627441,125.59552955627441,127.14649105072021,3,1.6840474605560303,None,,,,,,,,,,,,,,,,,,205,5,2025-03-06_14h47.30.534,comp,2024.2.4,62.8322497528238,2025-03-06 14h47.43.798596 -0500,
41,41,0,filler_random,None,None,None,None,None,None,None,None,None,None,2,1.3186028003692627,None,,,,,0,0,0,0,0,41,41,153,127.16179132461548,,,,,,,,,,,,,,,,,,,,,,,,,,,,,,,,,,,,,,,,,,,,,,,,,,,,,,,,,,,,,,,,,,,,,,,,,,,,,,,,,118.52572935174929,109.14584921662762,165.3943960129467,139.55439067766247,62.40609394242628,142.21655392051412,2.2,2.22,-220,275,0,-287,237,-255,127.14741468429565,127.14745616912842,127.14988470077515,127.16179132461548,127.31222176551819,127.31222176551819,127.31222176551819,127.31222176551819,127.31222176551819,127.31222176551819,127.31222176551819,128.49654483795166,2,1.3186028003692627,None,,,,,,,,,,,,,,,,,,205,5,2025-03-06_14h47.30.534,comp,2024.2.4,62.8322497528238,2025-03-06 14h47.43.798596 -0500,
42,42,0,filler_random,None,None,None,None,None,None,None,None,None,None,1,1.817284107208252,None,,,,,0,0,0,0,0,42,42,130,128.51182174682617,,,,,,,,,,,,,,,,,,,,,,,,,,,,,,,,,,,,,,,,,,,,,,,,,,,,,,,,,,,,,,,,,,,,,,,,,,,,,,,,,138.5684576068966,161.27160619072936,136.60579122979686,61.280885813725966,131.73393361960504,162.84175091619613,1.0,1.3,273,-283,480,-282,688,-287,128.4974296092987,128.49746966362,128.4999463558197,128.51182174682617,128.662029504776,128.662029504776,128.662029504776,128.662029504776,128.662029504776,128.662029504776,128.662029504776,130.33030343055725,1,1.817284107208252,None,,,,,,,,,,,,,,,,,,205,5,2025-03-06_14h47.30.534,comp,2024.2.4,62.8322497528238,2025-03-06 14h47.43.798596 -0500,
43,43,0,filler_square,None,None,None,None,None,None,None,None,None,None,1,3.318903684616089,None,,,,,0,0,0,0,0,43,43,188,130.34544920921326,,,,,,,,,,,,,,,,,,,,,,,,,,,,,,,,,,,,,,,,,,,,,,,,,,,,,,,,,,,,,,,,,,,,,,,,,,,,,,,,,64.36638844445072,64.36638844445072,62.92635896405733,59.51312468475103,61.261923193926314,58.08888153534024,1.0,1.3,322,-267,480,-250,635,-277,130.33124494552612,130.33130168914795,130.33385515213013,130.34544920921326,130.49527215957642,130.49527215957642,130.49527215957642,130.49527215957642,130.49527215957642,130.49527215957642,130.49527215957642,133.68001914024353,1,3.318903684616089,None,,,,,,,,,,,,,,,,,,205,5,2025-03-06_14h47.30.534,comp,2024.2.4,62.8322497528238,2025-03-06 14h47.43.798596 -0500,
44,44,0,critical,hdw,35.0,4.0,upper,200.0,125.0,127.0,127.0,125.0,200.0,1,1.6995532512664795,None,,,,,0,0,0,0,0,44,44,113,133.69511032104492,,,,,,,,,,,,,,,,,,,,,,,,,,,,,,,,,,,,,,,,,,,,,,,,,,,,,,,,,,,,,,,,,,,,,,,,,,,,,,,,,200.0,125.0,127.0,127.0,125.0,200.0,4.0,4.1,-222,-280,0,-4,260,-288,133.68081784248352,133.68086123466492,133.6833770275116,133.69511032104492,133.84542393684387,133.84542393684387,133.84542393684387,133.84542393684387,133.84542393684387,133.84542393684387,133.84542393684387,135.39683485031128,1,1.6995532512664795,None,,,,,,,,,,,,,,,,,,205,5,2025-03-06_14h47.30.534,comp,2024.2.4,62.8322497528238,2025-03-06 14h47.43.798596 -0500,
45,45,0,filler_random,None,None,None,None,None,None,None,None,None,None,3,1.8770532608032227,None,,,,,0,0,0,0,0,45,45,161,135.41201758384705,,,,,,,,,,,,,,,,,,,,,,,,,,,,,,,,,,,,,,,,,,,,,,,,,,,,,,,,,,,,,,,,,,,,,,,,,,,,,,,,,81.65299944500616,103.27149125917512,171.44516277886925,57.169897136839225,187.42586145985354,128.46162320702683,3.0,3.2,-176,-253,0,3,189,256,135.39771628379822,135.3977565765381,135.3998100757599,135.41201758384705,135.56199955940247,135.56199955940247,135.56199955940247,135.56199955940247,135.56199955940247,135.56199955940247,135.56199955940247,137.2964448928833,3,1.8770532608032227,None,,,,,,,,,,,,,,,,,,205,5,2025-03-06_14h47.30.534,comp,2024.2.4,62.8322497528238,2025-03-06 14h47.43.798596 -0500,
46,46,0,critical,hdw,35.0,3.0,upper,200.0,125.0,127.0,127.0,125.0,200.0,3,1.6501939296722412,None,,,,,0,0,0,0,0,46,46,111,137.31207060813904,,,,,,,,,,,,,,,,,,,,,,,,,,,,,,,,,,,,,,,,,,,,,,,,,,,,,,,,,,,,,,,,,,,,,,,,,,,,,,,,,200.0,125.0,127.0,127.0,125.0,200.0,3.0,3.1,-222,258,0,8,260,-282,137.29727220535278,137.2973141670227,137.29977869987488,137.31207060813904,137.46199703216553,137.46199703216553,137.46199703216553,137.46199703216553,137.46199703216553,137.46199703216553,137.46199703216553,138.97992372512817,3,1.6501939296722412,None,,,,,,,,,,,,,,,,,,205,5,2025-03-06_14h47.30.534,comp,2024.2.4,62.8322497528238,2025-03-06 14h47.43.798596 -0500,
47,47,0,filler_random,None,None,None,None,None,None,None,None,None,None,1,2.6154794692993164,None,,,,,0,0,0,0,0,47,47,131,138.99553203582764,,,,,,,,,,,,,,,,,,,,,,,,,,,,,,,,,,,,,,,,,,,,,,,,,,,,,,,,,,,,,,,,,,,,,,,,,,,,,,,,,146.39131376775526,163.22759777230402,119.1645918861889,186.78622831107853,143.91136544455497,153.6031307851365,4.0,4.1,-271,-267,0,14,266,-270,138.98084473609924,138.9808850288391,138.98451375961304,138.99553203582764,139.14553880691528,139.14553880691528,139.14553880691528,139.14553880691528,139.14553880691528,139.14553880691528,139.14553880691528,141.61332726478577,1,2.6154794692993164,None,,,,,,,,,,,,,,,,,,205,5,2025-03-06_14h47.30.534,comp,2024.2.4,62.8322497528238,2025-03-06 14h47.43.798596 -0500,
48,48,0,critical,dwh,20.0,2.1,lower,78.0,78.0,57.0,133.0,133.0,57.0,3,2.1084344387054443,None,,,,,0,0,0,0,0,48,48,30,141.62857294082642,,,,,,,,,,,,,,,,,,,,,,,,,,,,,,,,,,,,,,,,,,,,,,,,,,,,,,,,,,,,,,,,,,,,,,,,,,,,,,,,,78.0,78.0,57.0,133.0,133.0,57.0,2.1,2.12,-202,-278,0,-258,191,270,141.6140787601471,141.61411714553833,141.6161732673645,141.62857294082642,141.77854800224304,141.77854800224304,141.77854800224304,141.77854800224304,141.77854800224304,141.77854800224304,141.77854800224304,143.7462773323059,3,2.1084344387054443,None,,,,,,,,,,,,,,,,,,205,5,2025-03-06_14h47.30.534,comp,2024.2.4,62.8322497528238,2025-03-06 14h47.43.798596 -0500,
49,49,0,filler_square,None,None,None,None,None,None,None,None,None,None,3,1.1344001293182373,None,,,,,0,0,0,0,0,49,49,178,143.7619333267212,,,,,,,,,,,,,,,,,,,,,,,,,,,,,,,,,,,,,,,,,,,,,,,,,,,,,,,,,,,,,,,,,,,,,,,,,,,,,,,,,70.9371709414736,120.77767046790481,73.49748430260392,69.4506974910473,150.23430351949108,150.23430351949108,2.2,2.21,-191,-278,0,278,206,251,143.74722814559937,143.74726939201355,143.74968004226685,143.7619333267212,143.91198110580444,143.91198110580444,143.91198110580444,143.91198110580444,143.91198110580444,143.91198110580444,143.91198110580444,144.91300058364868,3,1.1344001293182373,None,,,,,,,,,,,,,,,,,,205,5,2025-03-06_14h47.30.534,comp,2024.2.4,62.8322497528238,2025-03-06 14h47.43.798596 -0500,
50,50,0,critical,whd,35.0,2.1,upper,125.0,200.0,200.0,125.0,127.0,127.0,2,1.7445073127746582,None,,,,,0,0,0,0,0,50,50,37,144.92844796180725,,,,,,,,,,,,,,,,,,,,,,,,,,,,,,,,,,,,,,,,,,,,,,,,,,,,,,,,,,,,,,,,,,,,,,,,,,,,,,,,,125.0,200.0,200.0,125.0,127.0,127.0,2.1,2.11,-258,277,0,266,222,-266,144.9138104915619,144.91385197639465,144.91642475128174,144.92844796180725,145.07864046096802,145.07864046096802,145.07864046096802,145.07864046096802,145.07864046096802,145.07864046096802,145.07864046096802,146.68002271652222,2,1.7445073127746582,None,,,,,,,,,,,,,,,,,,205,5,2025-03-06_14h47.30.534,comp,2024.2.4,62.8322497528238,2025-03-06 14h47.43.798596 -0500,
51,51,0,filler_square,None,None,None,None,None,None,None,None,None,None,2,1.4258949756622314,None,,,,,0,0,0,0,0,51,51,196,146.6953091621399,,,,,,,,,,,,,,,,,,,,,,,,,,,,,,,,,,,,,,,,,,,,,,,,,,,,,,,,,,,,,,,,,,,,,,,,,,,,,,,,,72.73476176721876,66.04260797127732,75.9156907529834,75.9156907529834,58.671136936375724,64.55421116543035,2.2,2.21,-167,-265,0,290,166,257,146.680969953537,146.6810109615326,146.68356919288635,146.6953091621399,146.84518122673035,146.84518122673035,146.84518122673035,146.84518122673035,146.84518122673035,146.84518122673035,146.84518122673035,148.1296410560608,2,1.4258949756622314,None,,,,,,,,,,,,,,,,,,205,5,2025-03-06_14h47.30.534,comp,2024.2.4,62.8322497528238,2025-03-06 14h47.43.798596 -0500,
52,52,0,filler_random,None,None,None,None,None,None,None,None,None,None,3,1.1189818382263184,None,,,,,0,0,0,0,0,52,52,169,148.14529967308044,,,,,,,,,,,,,,,,,,,,,,,,,,,,,,,,,,,,,,,,,,,,,,,,,,,,,,,,,,,,,,,,,,,,,,,,,,,,,,,,,109.35896397522589,164.487195934485,59.015261723705905,134.54951954912616,194.25815151203173,156.3254524652769,4.0,4.2,-246,-12,0,-276,241,1,148.13054037094116,148.13058137893677,148.13324427604675,148.14529967308044,148.29525518417358,148.29525518417358,148.29525518417358,148.29525518417358,148.29525518417358,148.29525518417358,148.29525518417358,149.2797408103943,3,1.1189818382263184,None,,,,,,,,,,,,,,,,,,205,5,2025-03-06_14h47.30.534,comp,2024.2.4,62.8322497528238,2025-03-06 14h47.43.798596 -0500,
53,53,0,filler_random,None,None,None,None,None,None,None,None,None,None,1,1.4420404434204102,None,,,,,0,0,0,0,0,53,53,144,149.29501366615295,,,,,,,,,,,,,,,,,,,,,,,,,,,,,,,,,,,,,,,,,,,,,,,,,,,,,,,,,,,,,,,,,,,,,,,,,,,,,,,,,169.60541068136115,119.4037001710451,186.72955725306414,81.21294874291786,60.06733262227101,128.59827571712867,1.0,1.3,284,-251,480,-276,681,-252,149.28064155578613,149.28068208694458,149.28314018249512,149.29501366615295,149.44522309303284,149.44522309303284,149.44522309303284,149.44522309303284,149.44522309303284,149.44522309303284,149.44522309303284,150.7464644908905,1,1.4420404434204102,None,,,,,,,,,,,,,,,,,,205,5,2025-03-06_14h47.30.534,comp,2024.2.4,62.8322497528238,2025-03-06 14h47.43.798596 -0500,
54,54,0,filler_random,None,None,None,None,None,None,None,None,None,None,1,1.5430357456207275,None,,,,,0,0,0,0,0,54,54,167,150.7620530128479,,,,,,,,,,,,,,,,,,,,,,,,,,,,,,,,,,,,,,,,,,,,,,,,,,,,,,,,,,,,,,,,,,,,,,,,,,,,,,,,,156.21843640738194,127.58317573287783,160.57165637889895,68.58831804495316,77.21296567758012,72.5332061573655,2.2,2.22,-194,283,0,-264,167,-252,150.74738788604736,150.74743103981018,150.74987697601318,150.7620530128479,150.91181254386902,150.91181254386902,150.91181254386902,150.91181254386902,150.91181254386902,150.91181254386902,150.91181254386902,152.31307005882263,1,1.5430357456207275,None,,,,,,,,,,,,,,,,,,205,5,2025-03-06_14h47.30.534,comp,2024.2.4,62.8322497528238,2025-03-06 14h47.43.798596 -0500,
55,55,0,critical,hdw,35.0,1.0,lower,133.0,57.0,70.0,70.0,57.0,133.0,3,1.3046059608459473,None,,,,,0,0,0,0,0,55,55,108,152.32860255241394,,,,,,,,,,,,,,,,,,,,,,,,,,,,,,,,,,,,,,,,,,,,,,,,,,,,,,,,,,,,,,,,,,,,,,,,,,,,,,,,,133.0,57.0,70.0,70.0,57.0,133.0,1.0,1.2,-160,11,0,17,198,9,152.31386494636536,152.31390762329102,152.31642270088196,152.32860255241394,152.47839331626892,152.47839331626892,152.47839331626892,152.47839331626892,152.47839331626892,152.47839331626892,152.47839331626892,153.6461958885193,3,1.3046059608459473,None,,,,,,,,,,,,,,,,,,205,5,2025-03-06_14h47.30.534,comp,2024.2.4,62.8322497528238,2025-03-06 14h47.43.798596 -0500,
56,56,0,filler_square,None,None,None,None,None,None,None,None,None,None,3,1.0273513793945312,None,,,,,0,0,0,0,0,56,56,170,153.6616530418396,,,,,,,,,,,,,,,,,,,,,,,,,,,,,,,,,,,,,,,,,,,,,,,,,,,,,,,,,,,,,,,,,,,,,,,,,,,,,,,,,176.24850254048346,179.8933343798676,197.28200328033677,114.86238050209228,197.5633619489142,197.5633619489142,2.1,2.11,-243,252,0,283,252,-250,153.64714646339417,153.64720129966736,153.6495988368988,153.6616530418396,153.81211853027344,153.81211853027344,153.81211853027344,153.81211853027344,153.81211853027344,153.81211853027344,153.81211853027344,154.6966712474823,3,1.0273513793945312,None,,,,,,,,,,,,,,,,,,205,5,2025-03-06_14h47.30.534,comp,2024.2.4,62.8322497528238,2025-03-06 14h47.43.798596 -0500,
57,57,0,critical,whd,35.0,1.0,lower,57.0,133.0,133.0,57.0,70.0,70.0,2,1.3293437957763672,None,,,,,0,0,0,0,0,57,57,84,154.71198058128357,,,,,,,,,,,,,,,,,,,,,,,,,,,,,,,,,,,,,,,,,,,,,,,,,,,,,,,,,,,,,,,,,,,,,,,,,,,,,,,,,57.0,133.0,133.0,57.0,70.0,70.0,1.0,1.1,-671,269,-480,269,-320,267,154.69748830795288,154.6975293159485,154.69996309280396,154.71198058128357,154.861798286438,154.861798286438,154.861798286438,154.861798286438,154.861798286438,154.861798286438,154.861798286438,156.04621624946594,2,1.3293437957763672,None,,,,,,,,,,,,,,,,,,205,5,2025-03-06_14h47.30.534,comp,2024.2.4,62.8322497528238,2025-03-06 14h47.43.798596 -0500,
58,58,0,critical,whd,35.0,3.0,lower,57.0,133.0,133.0,57.0,70.0,70.0,2,1.9488964080810547,None,,,,,0,0,0,0,0,58,58,86,156.0618233680725,,,,,,,,,,,,,,,,,,,,,,,,,,,,,,,,,,,,,,,,,,,,,,,,,,,,,,,,,,,,,,,,,,,,,,,,,,,,,,,,,57.0,133.0,133.0,57.0,70.0,70.0,3.0,3.1,-191,282,0,-9,160,-270,156.04702043533325,156.04706144332886,156.0494248867035,156.0618233680725,156.21175575256348,156.21175575256348,156.21175575256348,156.21175575256348,156.21175575256348,156.21175575256348,156.21175575256348,158.01294136047363,2,1.9488964080810547,None,,,,,,,,,,,,,,,,,,205,5,2025-03-06_14h47.30.534,comp,2024.2.4,62.8322497528238,2025-03-06 14h47.43.798596 -0500,
59,59,0,filler_square,None,None,None,None,None,None,None,None,None,None,1,2.476414203643799,None,,,,,0,0,0,0,0,59,59,173,158.0285222530365,,,,,,,,,,,,,,,,,,,,,,,,,,,,,,,,,,,,,,,,,,,,,,,,,,,,,,,,,,,,,,,,,,,,,,,,,,,,,,,,,88.73654971093806,88.73654971093806,87.05099305604112,65.86655413802426,82.65368528856612,74.96655123122623,2.2,2.21,-173,-252,0,262,166,277,158.01390886306763,158.0139503479004,158.01614832878113,158.0285222530365,158.17860913276672,158.17860913276672,158.17860913276672,158.17860913276672,158.17860913276672,158.17860913276672,158.17860913276672,160.51273894309998,1,2.476414203643799,None,,,,,,,,,,,,,,,,,,205,5,2025-03-06_14h47.30.534,comp,2024.2.4,62.8322497528238,2025-03-06 14h47.43.798596 -0500,
60,60,0,critical,whd,35.0,3.0,upper,125.0,200.0,200.0,125.0,127.0,127.0,2,1.2674784660339355,None,,,,,0,0,0,0,0,60,60,87,160.52850222587585,,,,,,,,,,,,,,,,,,,,,,,,,,,,,,,,,,,,,,,,,,,,,,,,,,,,,,,,,,,,,,,,,,,,,,,,,,,,,,,,,125.0,200.0,200.0,125.0,127.0,127.0,3.0,3.1,-258,265,0,13,222,-263,160.51352310180664,160.51356530189514,160.51600122451782,160.52850222587585,160.67871117591858,160.67871117591858,160.67871117591858,160.67871117591858,160.67871117591858,160.67871117591858,160.67871117591858,161.79726266860962,2,1.2674784660339355,None,,,,,,,,,,,,,,,,,,205,5,2025-03-06_14h47.30.534,comp,2024.2.4,62.8322497528238,2025-03-06 14h47.43.798596 -0500,
61,61,0,filler_square,None,None,None,None,None,None,None,None,None,None,1,1.1875109672546387,None,,,,,0,0,0,0,0,61,61,200,161.8125274181366,,,,,,,,,,,,,,,,,,,,,,,,,,,,,,,,,,,,,,,,,,,,,,,,,,,,,,,,,,,,,,,,,,,,,,,,,,,,,,,,,104.89718925754346,104.89718925754346,60.53614457517255,102.26611554533147,95.07618508664275,78.13573861620277,2.1,2.12,-200,-263,0,-289,186,261,161.7982141971588,161.79825711250305,161.8002164363861,161.8125274181366,161.96227884292603,161.96227884292603,161.96227884292603,161.96227884292603,161.96227884292603,161.96227884292603,161.96227884292603,163.01305103302002,1,1.1875109672546387,None,,,,,,,,,,,,,,,,,,205,5,2025-03-06_14h47.30.534,comp,2024.2.4,62.8322497528238,2025-03-06 14h47.43.798596 -0500,
62,62,0,filler_random,None,None,None,None,None,None,None,None,None,None,3,1.3170628547668457,None,,,,,0,0,0,0,0,62,62,138,163.02832794189453,,,,,,,,,,,,,,,,,,,,,,,,,,,,,,,,,,,,,,,,,,,,,,,,,,,,,,,,,,,,,,,,,,,,,,,,,,,,,,,,,82.08186439981719,68.15284837385306,76.73914703721837,195.7678047727888,120.6480252486213,187.75044460408492,2.2,2.22,-228,289,0,-258,288,-286,163.01396226882935,163.01400327682495,163.0161430835724,163.02832794189453,163.17862486839294,163.17862486839294,163.17862486839294,163.17862486839294,163.17862486839294,163.17862486839294,163.17862486839294,164.36285305023193,3,1.3170628547668457,None,,,,,,,,,,,,,,,,,,205,5,2025-03-06_14h47.30.534,comp,2024.2.4,62.8322497528238,2025-03-06 14h47.43.798596 -0500,
63,63,0,filler_square,None,None,None,None,None,None,None,None,None,None,2,1.2325570583343506,None,,,,,0,0,0,0,0,63,63,193,164.37826776504517,,,,,,,,,,,,,,,,,,,,,,,,,,,,,,,,,,,,,,,,,,,,,,,,,,,,,,,,,,,,,,,,,,,,,,,,,,,,,,,,,67.26310876552228,63.73043445988549,78.85058309699292,78.85058309699292,63.14517950328006,60.726659694379684,3.0,3.2,-167,-269,0,7,166,253,164.36382150650024,164.363862991333,164.3665897846222,164.37826776504517,164.52843403816223,164.52843403816223,164.52843403816223,164.52843403816223,164.52843403816223,164.52843403816223,164.52843403816223,165.6128432750702,2,1.2325570583343506,None,,,,,,,,,,,,,,,,,,205,5,2025-03-06_14h47.30.534,comp,2024.2.4,62.8322497528238,2025-03-06 14h47.43.798596 -0500,
64,64,0,critical,whd,35.0,2.1,lower,57.0,133.0,133.0,57.0,70.0,70.0,2,1.6764137744903564,None,,,,,0,0,0,0,0,64,64,36,165.6284375190735,,,,,,,,,,,,,,,,,,,,,,,,,,,,,,,,,,,,,,,,,,,,,,,,,,,,,,,,,,,,,,,,,,,,,,,,,,,,,,,,,57.0,133.0,133.0,57.0,70.0,70.0,2.1,2.12,-191,-258,0,-252,160,256,165.61365270614624,165.61369490623474,165.61590218544006,165.6284375190735,165.7782838344574,165.7782838344574,165.7782838344574,165.7782838344574,165.7782838344574,165.7782838344574,165.7782838344574,167.31277060508728,2,1.6764137744903564,None,,,,,,,,,,,,,,,,,,205,5,2025-03-06_14h47.30.534,comp,2024.2.4,62.8322497528238,2025-03-06 14h47.43.798596 -0500,
65,65,0,critical,dwh,35.0,1.0,upper,127.0,127.0,125.0,200.0,200.0,125.0,3,1.2973928451538086,None,,,,,0,0,0,0,0,65,65,61,167.32843780517578,,,,,,,,,,,,,,,,,,,,,,,,,,,,,,,,,,,,,,,,,,,,,,,,,,,,,,,,,,,,,,,,,,,,,,,,,,,,,,,,,127.0,127.0,125.0,200.0,200.0,125.0,1.0,1.3,220,-262,480,-264,738,-256,167.31356072425842,167.31360244750977,167.31602931022644,167.32843780517578,167.47859859466553,167.47859859466553,167.47859859466553,167.47859859466553,167.47859859466553,167.47859859466553,167.47859859466553,168.62977743148804,3,1.2973928451538086,None,,,,,,,,,,,,,,,,,,205,5,2025-03-06_14h47.30.534,comp,2024.2.4,62.8322497528238,2025-03-06 14h47.43.798596 -0500,
66,66,0,filler_square,None,None,None,None,None,None,None,None,None,None,2,0.9388399124145508,None,,,,,0,0,0,0,0,66,66,172,168.64514303207397,,,,,,,,,,,,,,,,,,,,,,,,,,,,,,,,,,,,,,,,,,,,,,,,,,,,,,,,,,,,,,,,,,,,,,,,,,,,,,,,,80.41493684391922,64.13859549153477,192.59655868250573,192.59655868250573,75.93976090779597,136.98904021685013,3.0,3.2,-224,-270,0,4,261,276,168.63070273399353,168.63074469566345,168.63319897651672,168.64514303207397,168.7955448627472,168.7955448627472,168.7955448627472,168.7955448627472,168.7955448627472,168.7955448627472,168.7955448627472,169.59663033485413,2,0.9388399124145508,None,,,,,,,,,,,,,,,,,,205,5,2025-03-06_14h47.30.534,comp,2024.2.4,62.8322497528238,2025-03-06 14h47.43.798596 -0500,
67,67,0,critical,whd,20.0,2.1,upper,125.0,200.0,200.0,125.0,141.0,141.0,1,1.8214685916900635,None,,,,,0,0,0,0,0,67,67,39,169.61155676841736,,,,,,,,,,,,,,,,,,,,,,,,,,,,,,,,,,,,,,,,,,,,,,,,,,,,,,,,,,,,,,,,,,,,,,,,,,,,,,,,,125.0,200.0,200.0,125.0,141.0,141.0,2.1,2.11,-258,286,0,283,229,-260,169.5974497795105,169.59749221801758,169.59991455078125,169.61155676841736,169.7617871761322,169.7617871761322,169.7617871761322,169.7617871761322,169.7617871761322,169.7617871761322,169.7617871761322,171.4465365409851,1,1.8214685916900635,None,,,,,,,,,,,,,,,,,,205,5,2025-03-06_14h47.30.534,comp,2024.2.4,62.8322497528238,2025-03-06 14h47.43.798596 -0500,
68,68,0,critical,dwh,35.0,3.0,upper,127.0,127.0,125.0,200.0,200.0,125.0,2,1.1641764640808105,None,,,,,0,0,0,0,0,68,68,63,171.46167969703674,,,,,,,,,,,,,,,,,,,,,,,,,,,,,,,,,,,,,,,,,,,,,,,,,,,,,,,,,,,,,,,,,,,,,,,,,,,,,,,,,127.0,127.0,125.0,200.0,200.0,125.0,3.0,3.2,-260,-256,0,-3,258,261,171.44731760025024,171.4473581314087,171.44980025291443,171.46167969703674,171.61189794540405,171.61189794540405,171.61189794540405,171.61189794540405,171.61189794540405,171.61189794540405,171.61189794540405,172.62996816635132,2,1.1641764640808105,None,,,,,,,,,,,,,,,,,,205,5,2025-03-06_14h47.30.534,comp,2024.2.4,62.8322497528238,2025-03-06 14h47.43.798596 -0500,
69,69,0,filler_random,None,None,None,None,None,None,None,None,None,None,1,1.1495387554168701,None,,,,,0,0,0,0,0,69,69,143,172.6451380252838,,,,,,,,,,,,,,,,,,,,,,,,,,,,,,,,,,,,,,,,,,,,,,,,,,,,,,,,,,,,,,,,,,,,,,,,,,,,,,,,,166.34809491793666,150.33195979663577,149.42976553330806,80.75163701539643,78.68272694971553,77.44203672712617,2.1,2.12,-212,-283,0,-261,175,285,172.6308867931366,172.630930185318,172.63343477249146,172.6451380252838,172.79512000083923,172.79512000083923,172.79512000083923,172.79512000083923,172.79512000083923,172.79512000083923,172.79512000083923,173.7964768409729,1,1.1495387554168701,None,,,,,,,,,,,,,,,,,,205,5,2025-03-06_14h47.30.534,comp,2024.2.4,62.8322497528238,2025-03-06 14h47.43.798596 -0500,
70,70,0,critical,wdh,20.0,3.0,upper,125.0,200.0,141.0,141.0,200.0,125.0,3,1.3091771602630615,None,,,,,0,0,0,0,0,70,70,81,173.81175446510315,,,,,,,,,,,,,,,,,,,,,,,,,,,,,,,,,,,,,,,,,,,,,,,,,,,,,,,,,,,,,,,,,,,,,,,,,,,,,,,,,125.0,200.0,141.0,141.0,200.0,125.0,3.0,3.2,-266,-262,0,6,229,252,173.79728174209595,173.79732370376587,173.79970026016235,173.81175446510315,173.96195363998413,173.96195363998413,173.96195363998413,173.96195363998413,173.96195363998413,173.96195363998413,173.96195363998413,175.12968945503235,3,1.3091771602630615,None,,,,,,,,,,,,,,,,,,205,5,2025-03-06_14h47.30.534,comp,2024.2.4,62.8322497528238,2025-03-06 14h47.43.798596 -0500,
71,71,0,critical,dhw,20.0,3.0,lower,78.0,78.0,133.0,57.0,57.0,133.0,2,1.391815423965454,None,,,,,0,0,0,0,0,71,71,56,175.1450924873352,,,,,,,,,,,,,,,,,,,,,,,,,,,,,,,,,,,,,,,,,,,,,,,,,,,,,,,,,,,,,,,,,,,,,,,,,,,,,,,,,78.0,78.0,133.0,57.0,57.0,133.0,3.0,3.1,-164,274,0,-3,191,-287,175.1305124759674,175.1305549144745,175.13296604156494,175.1450924873352,175.29495692253113,175.29495692253113,175.29495692253113,175.29495692253113,175.29495692253113,175.29495692253113,175.29495692253113,176.54592990875244,2,1.391815423965454,None,,,,,,,,,,,,,,,,,,205,5,2025-03-06_14h47.30.534,comp,2024.2.4,62.8322497528238,2025-03-06 14h47.43.798596 -0500,
72,72,0,critical,wdh,20.0,2.1,lower,57.0,133.0,78.0,78.0,133.0,57.0,3,1.583475112915039,None,,,,,0,0,0,0,0,72,72,34,176.5616819858551,,,,,,,,,,,,,,,,,,,,,,,,,,,,,,,,,,,,,,,,,,,,,,,,,,,,,,,,,,,,,,,,,,,,,,,,,,,,,,,,,57.0,133.0,78.0,78.0,133.0,57.0,2.1,2.12,-202,-264,0,-254,164,256,176.5467071533203,176.54674768447876,176.5493142604828,176.5616819858551,176.71165370941162,176.71165370941162,176.71165370941162,176.71165370941162,176.71165370941162,176.71165370941162,176.71165370941162,178.14630770683289,3,1.583475112915039,None,,,,,,,,,,,,,,,,,,205,5,2025-03-06_14h47.30.534,comp,2024.2.4,62.8322497528238,2025-03-06 14h47.43.798596 -0500,
73,73,0,catch,None,None,None,None,None,None,None,None,None,None,1,1.3430848121643066,None,,,,,0,0,0,0,0,73,73,126,178.16181874275208,,,,,,,,,,,,,,,,,,,,,,,,,,,,,,,,,,,,,,,,,,,,,,,,,,,,,,,,,,,,,,,,,,,,,,,,,,,,,,,,,190,135,131,59,94,96,2.1,2.11,-193,266,0,265,174,-267,178.14736652374268,178.14742279052734,178.14997911453247,178.16181874275208,178.3116855621338,178.3116855621338,178.3116855621338,178.3116855621338,178.3116855621338,178.3116855621338,178.3116855621338,179.51275277137756,1,1.3430848121643066,None,,,,,,,,,,,,,,,,,,205,5,2025-03-06_14h47.30.534,comp,2024.2.4,62.8322497528238,2025-03-06 14h47.43.798596 -0500,
74,74,0,critical,dwh,20.0,2.1,upper,141.0,141.0,125.0,200.0,200.0,125.0,1,1.4248363971710205,None,,,,,0,0,0,0,0,74,74,31,179.52837777137756,,,,,,,,,,,,,,,,,,,,,,,,,,,,,,,,,,,,,,,,,,,,,,,,,,,,,,,,,,,,,,,,,,,,,,,,,,,,,,,,,141.0,141.0,125.0,200.0,200.0,125.0,2.1,2.12,-266,-254,0,-253,258,279,179.51357221603394,179.51361441612244,179.51609444618225,179.52837777137756,179.67857956886292,179.67857956886292,179.67857956886292,179.67857956886292,179.67857956886292,179.67857956886292,179.67857956886292,180.96300745010376,1,1.4248363971710205,None,,,,,,,,,,,,,,,,,,205,5,2025-03-06_14h47.30.534,comp,2024.2.4,62.8322497528238,2025-03-06 14h47.43.798596 -0500,
75,75,0,critical,dhw,35.0,1.0,lower,70.0,70.0,133.0,57.0,57.0,133.0,2,2.0857152938842773,None,,,,,0,0,0,0,0,75,75,48,180.97833347320557,,,,,,,,,,,,,,,,,,,,,,,,,,,,,,,,,,,,,,,,,,,,,,,,,,,,,,,,,,,,,,,,,,,,,,,,,,,,,,,,,70.0,70.0,133.0,57.0,57.0,133.0,1.0,1.1,-640,252,-480,254,-289,284,180.96383786201477,180.9638798236847,180.96640944480896,180.97833347320557,181.12834858894348,181.12834858894348,181.12834858894348,181.12834858894348,181.12834858894348,181.12834858894348,181.12834858894348,183.07929015159607,2,2.0857152938842773,None,,,,,,,,,,,,,,,,,,205,5,2025-03-06_14h47.30.534,comp,2024.2.4,62.8322497528238,2025-03-06 14h47.43.798596 -0500,
76,76,0,filler_square,None,None,None,None,None,None,None,None,None,None,3,1.201261281967163,None,,,,,0,0,0,0,0,76,76,174,183.09476590156555,,,,,,,,,,,,,,,,,,,,,,,,,,,,,,,,,,,,,,,,,,,,,,,,,,,,,,,,,,,,,,,,,,,,,,,,,,,,,,,,,95.94083176610725,91.15602327844562,113.71789264345914,87.17976606269501,153.9284182498355,153.9284182498355,1.0,1.2,-185,16,0,-10,217,-20,183.08021330833435,183.08025431632996,183.08231711387634,183.09476590156555,183.24496173858643,183.24496173858643,183.24496173858643,183.24496173858643,183.24496173858643,183.24496173858643,183.24496173858643,184.312762260437,3,1.201261281967163,None,,,,,,,,,,,,,,,,,,205,5,2025-03-06_14h47.30.534,comp,2024.2.4,62.8322497528238,2025-03-06 14h47.43.798596 -0500,
77,77,0,critical,dhw,35.0,4.0,lower,70.0,70.0,133.0,57.0,57.0,133.0,2,1.4662501811981201,None,,,,,0,0,0,0,0,77,77,52,184.3281147480011,,,,,,,,,,,,,,,,,,,,,,,,,,,,,,,,,,,,,,,,,,,,,,,,,,,,,,,,,,,,,,,,,,,,,,,,,,,,,,,,,70.0,70.0,133.0,57.0,57.0,133.0,4.0,4.2,-160,-15,0,-259,191,3,184.31360030174255,184.31364130973816,184.31623935699463,184.3281147480011,184.47830772399902,184.47830772399902,184.47830772399902,184.47830772399902,184.47830772399902,184.47830772399902,184.47830772399902,185.8128457069397,2,1.4662501811981201,None,,,,,,,,,,,,,,,,,,205,5,2025-03-06_14h47.30.534,comp,2024.2.4,62.8322497528238,2025-03-06 14h47.43.798596 -0500,
78,78,0,filler_random,None,None,None,None,None,None,None,None,None,None,3,0.9170832633972168,None,,,,,0,0,0,0,0,78,78,155,185.82814240455627,,,,,,,,,,,,,,,,,,,,,,,,,,,,,,,,,,,,,,,,,,,,,,,,,,,,,,,,,,,,,,,,,,,,,,,,,,,,,,,,,107.60994560591035,61.00149756464567,58.971509055649264,145.12641088558328,184.22053102418946,173.10441799976192,2.2,2.22,-199,252,0,-264,255,-288,185.81376147270203,185.8138027191162,185.8163275718689,185.82814240455627,185.9782702922821,185.9782702922821,185.9782702922821,185.9782702922821,185.9782702922821,185.9782702922821,185.9782702922821,186.74642539024353,3,0.9170832633972168,None,,,,,,,,,,,,,,,,,,205,5,2025-03-06_14h47.30.534,comp,2024.2.4,62.8322497528238,2025-03-06 14h47.43.798596 -0500,
79,79,0,filler_square,None,None,None,None,None,None,None,None,None,None,1,1.2707505226135254,None,,,,,0,0,0,0,0,79,79,204,186.76175546646118,,,,,,,,,,,,,,,,,,,,,,,,,,,,,,,,,,,,,,,,,,,,,,,,,,,,,,,,,,,,,,,,,,,,,,,,,,,,,,,,,136.2405329881617,136.2405329881617,126.78063103749467,70.88494731210798,74.10084313978102,64.0761402925287,2.2,2.22,-200,283,0,-253,163,-266,186.74741077423096,186.74746870994568,186.7503170967102,186.76175546646118,186.91211199760437,186.91211199760437,186.91211199760437,186.91211199760437,186.91211199760437,186.91211199760437,186.91211199760437,188.0460319519043,1,1.2707505226135254,None,,,,,,,,,,,,,,,,,,205,5,2025-03-06_14h47.30.534,comp,2024.2.4,62.8322497528238,2025-03-06 14h47.43.798596 -0500,
80,80,0,critical,hdw,35.0,1.0,upper,200.0,125.0,127.0,127.0,125.0,200.0,1,2.7329559326171875,None,,,,,0,0,0,0,0,80,80,109,188.0614197254181,,,,,,,,,,,,,,,,,,,,,,,,,,,,,,,,,,,,,,,,,,,,,,,,,,,,,,,,,,,,,,,,,,,,,,,,,,,,,,,,,200.0,125.0,127.0,127.0,125.0,200.0,1.0,1.3,258,-279,480,-287,740,-285,188.04681825637817,188.04685735702515,188.0494842529297,188.0614197254181,188.21171116828918,188.21171116828918,188.21171116828918,188.21171116828918,188.21171116828918,188.21171116828918,188.21171116828918,190.79648613929749,1,2.7329559326171875,None,,,,,,,,,,,,,,,,,,205,5,2025-03-06_14h47.30.534,comp,2024.2.4,62.8322497528238,2025-03-06 14h47.43.798596 -0500,
81,81,0,catch,None,None,None,None,None,None,None,None,None,None,1,1.0610318183898926,None,,,,,0,0,0,0,0,81,81,129,190.81163454055786,,,,,,,,,,,,,,,,,,,,,,,,,,,,,,,,,,,,,,,,,,,,,,,,,,,,,,,,,,,,,,,,,,,,,,,,,,,,,,,,,198,127,81,109,84,106,1.0,1.3,266,-285,480,-255,684,-252,190.79751825332642,190.79755926132202,190.80009698867798,190.81163454055786,190.96175956726074,190.96175956726074,190.96175956726074,190.96175956726074,190.96175956726074,190.96175956726074,190.96175956726074,191.879332780838,1,1.0610318183898926,None,,,,,,,,,,,,,,,,,,205,5,2025-03-06_14h47.30.534,comp,2024.2.4,62.8322497528238,2025-03-06 14h47.43.798596 -0500,
82,82,0,critical,dwh,20.0,3.0,upper,141.0,141.0,125.0,200.0,200.0,125.0,3,1.1379013061523438,None,,,,,0,0,0,0,0,82,82,69,191.89496088027954,,,,,,,,,,,,,,,,,,,,,,,,,,,,,,,,,,,,,,,,,,,,,,,,,,,,,,,,,,,,,,,,,,,,,,,,,,,,,,,,,141.0,141.0,125.0,200.0,200.0,125.0,3.0,3.1,-266,271,0,-3,258,-260,191.88008904457092,191.880131483078,191.8825466632843,191.89496088027954,192.04510474205017,192.04510474205017,192.04510474205017,192.04510474205017,192.04510474205017,192.04510474205017,192.04510474205017,193.04623007774353,3,1.1379013061523438,None,,,,,,,,,,,,,,,,,,205,5,2025-03-06_14h47.30.534,comp,2024.2.4,62.8322497528238,2025-03-06 14h47.43.798596 -0500,
83,83,0,filler_random,None,None,None,None,None,None,None,None,None,None,2,1.2272398471832275,None,,,,,0,0,0,0,0,83,83,158,193.06141662597656,,,,,,,,,,,,,,,,,,,,,,,,,,,,,,,,,,,,,,,,,,,,,,,,,,,,,,,,,,,,,,,,,,,,,,,,,,,,,,,,,160.6402792836133,78.88397956444688,162.40537053053734,81.82260693403592,137.27003795513218,64.59698364627093,3.0,3.1,-176,277,0,1,169,-288,193.04714703559875,193.047203540802,193.05046582221985,193.06141662597656,193.21163058280945,193.21163058280945,193.21163058280945,193.21163058280945,193.21163058280945,193.21163058280945,193.21163058280945,194.2960615158081,2,1.2272398471832275,None,,,,,,,,,,,,,,,,,,205,5,2025-03-06_14h47.30.534,comp,2024.2.4,62.8322497528238,2025-03-06 14h47.43.798596 -0500,
84,84,0,filler_random,None,None,None,None,None,None,None,None,None,None,2,1.7770497798919678,None,,,,,0,0,0,0,0,84,84,132,194.31166553497314,,,,,,,,,,,,,,,,,,,,,,,,,,,,,,,,,,,,,,,,,,,,,,,,,,,,,,,,,,,,,,,,,,,,,,,,,,,,,,,,,159.80117147771517,130.4502678672833,114.32633471197838,171.22792212441664,160.39519089282814,91.55523170543435,2.1,2.11,-247,280,0,288,227,-270,194.29699158668518,194.29703330993652,194.2996325492859,194.31166553497314,194.46157383918762,194.46157383918762,194.46157383918762,194.46157383918762,194.46157383918762,194.46157383918762,194.46157383918762,196.09602284431458,2,1.7770497798919678,None,,,,,,,,,,,,,,,,,,205,5,2025-03-06_14h47.30.534,comp,2024.2.4,62.8322497528238,2025-03-06 14h47.43.798596 -0500,
85,85,0,catch,None,None,None,None,None,None,None,None,None,None,1,1.393204927444458,None,,,,,0,0,0,0,0,85,85,125,196.11155319213867,,,,,,,,,,,,,,,,,,,,,,,,,,,,,,,,,,,,,,,,,,,,,,,,,,,,,,,,,,,,,,,,,,,,,,,,,,,,,,,,,168,157,121,69,114,76,4.0,4.2,-209,-7,0,-263,168,-17,196.0970823764801,196.09712600708008,196.09974193572998,196.11155319213867,196.2615315914154,196.2615315914154,196.2615315914154,196.2615315914154,196.2615315914154,196.2615315914154,196.2615315914154,197.512633562088,1,1.393204927444458,None,,,,,,,,,,,,,,,,,,205,5,2025-03-06_14h47.30.534,comp,2024.2.4,62.8322497528238,2025-03-06 14h47.43.798596 -0500,
86,86,0,filler_square,None,None,None,None,None,None,None,None,None,None,2,1.2976620197296143,None,,,,,0,0,0,0,0,86,86,205,197.52823424339294,,,,,,,,,,,,,,,,,,,,,,,,,,,,,,,,,,,,,,,,,,,,,,,,,,,,,,,,,,,,,,,,,,,,,,,,,,,,,,,,,62.842972940532,64.28610512746761,117.40719560241074,117.40719560241074,59.97445103486519,113.27011632255248,2.2,2.21,-187,-271,0,289,211,274,197.51359701156616,197.51364040374756,197.5160677433014,197.52823424339294,197.67829155921936,197.67829155921936,197.67829155921936,197.67829155921936,197.67829155921936,197.67829155921936,197.67829155921936,198.82942008972168,2,1.2976620197296143,None,,,,,,,,,,,,,,,,,,205,5,2025-03-06_14h47.30.534,comp,2024.2.4,62.8322497528238,2025-03-06 14h47.43.798596 -0500,
87,87,0,catch,None,None,None,None,None,None,None,None,None,None,2,0.8597409725189209,None,,,,,0,0,0,0,0,87,87,123,198.84489512443542,,,,,,,,,,,,,,,,,,,,,,,,,,,,,,,,,,,,,,,,,,,,,,,,,,,,,,,,,,,,,,,,,,,,,,,,,,,,,,,,,62,128,176,149,102,88,2.1,2.12,-234,-263,0,-250,214,290,198.8304088115692,198.83044958114624,198.8328938484192,198.84489512443542,198.99488139152527,198.99488139152527,198.99488139152527,198.99488139152527,198.99488139152527,198.99488139152527,198.99488139152527,199.71265697479248,2,0.8597409725189209,None,,,,,,,,,,,,,,,,,,205,5,2025-03-06_14h47.30.534,comp,2024.2.4,62.8322497528238,2025-03-06 14h47.43.798596 -0500,
88,88,0,critical,whd,20.0,1.0,upper,125.0,200.0,200.0,125.0,141.0,141.0,2,1.2661075592041016,None,,,,,0,0,0,0,0,88,88,91,199.72822189331055,,,,,,,,,,,,,,,,,,,,,,,,,,,,,,,,,,,,,,,,,,,,,,,,,,,,,,,,,,,,,,,,,,,,,,,,,,,,,,,,,125.0,200.0,200.0,125.0,141.0,141.0,1.0,1.1,-738,260,-480,289,-251,268,199.71348571777344,199.71352863311768,199.7156846523285,199.72822189331055,199.8783152103424,199.8783152103424,199.8783152103424,199.8783152103424,199.8783152103424,199.8783152103424,199.8783152103424,200.99621391296387,2,1.2661075592041016,None,,,,,,,,,,,,,,,,,,205,5,2025-03-06_14h47.30.534,comp,2024.2.4,62.8322497528238,2025-03-06 14h47.43.798596 -0500,
89,89,0,critical,wdh,35.0,2.1,upper,125.0,200.0,127.0,127.0,200.0,125.0,3,1.277083396911621,None,,,,,0,0,0,0,0,89,89,33,201.01156735420227,,,,,,,,,,,,,,,,,,,,,,,,,,,,,,,,,,,,,,,,,,,,,,,,,,,,,,,,,,,,,,,,,,,,,,,,,,,,,,,,,125.0,200.0,127.0,127.0,200.0,125.0,2.1,2.12,-260,-280,0,-263,222,268,200.99698758125305,200.9970314502716,200.99921464920044,201.01156735420227,201.16173338890076,201.16173338890076,201.16173338890076,201.16173338890076,201.16173338890076,201.16173338890076,201.16173338890076,202.29610133171082,3,1.277083396911621,None,,,,,,,,,,,,,,,,,,205,5,2025-03-06_14h47.30.534,comp,2024.2.4,62.8322497528238,2025-03-06 14h47.43.798596 -0500,
90,90,0,filler_square,None,None,None,None,None,None,None,None,None,None,1,1.6667959690093994,None,,,,,0,0,0,0,0,90,90,194,202.3115632534027,,,,,,,,,,,,,,,,,,,,,,,,,,,,,,,,,,,,,,,,,,,,,,,,,,,,,,,,,,,,,,,,,,,,,,,,,,,,,,,,,159.37571447004697,159.37571447004697,146.93862943279788,138.94904298387203,151.3069111301997,129.07334901439913,4.0,4.1,-245,-280,0,1,230,-279,202.29702520370483,202.29706645011902,202.2990746498108,202.3115632534027,202.46182489395142,202.46182489395142,202.46182489395142,202.46182489395142,202.46182489395142,202.46182489395142,202.46182489395142,203.9961507320404,1,1.6667959690093994,None,,,,,,,,,,,,,,,,,,205,5,2025-03-06_14h47.30.534,comp,2024.2.4,62.8322497528238,2025-03-06 14h47.43.798596 -0500,
91,91,0,critical,whd,20.0,4.0,upper,125.0,200.0,200.0,125.0,141.0,141.0,2,1.2524645328521729,None,,,,,0,0,0,0,0,91,91,95,204.01139950752258,,,,,,,,,,,,,,,,,,,,,,,,,,,,,,,,,,,,,,,,,,,,,,,,,,,,,,,,,,,,,,,,,,,,,,,,,,,,,,,,,125.0,200.0,200.0,125.0,141.0,141.0,4.0,4.1,-258,-261,0,2,229,-259,203.9969425201416,203.99698519706726,203.99922251701355,204.01139950752258,204.1615629196167,204.1615629196167,204.1615629196167,204.1615629196167,204.1615629196167,204.1615629196167,204.1615629196167,205.27936148643494,2,1.2524645328521729,None,,,,,,,,,,,,,,,,,,205,5,2025-03-06_14h47.30.534,comp,2024.2.4,62.8322497528238,2025-03-06 14h47.43.798596 -0500,
92,92,0,filler_random,None,None,None,None,None,None,None,None,None,None,3,1.2836544513702393,None,,,,,0,0,0,0,0,92,92,157,205.29468059539795,,,,,,,,,,,,,,,,,,,,,,,,,,,,,,,,,,,,,,,,,,,,,,,,,,,,,,,,,,,,,,,,,,,,,,,,,,,,,,,,,66.08555675464622,163.7413873241785,138.02379567315063,59.331822044605396,74.50077088236866,153.91543388957194,4.0,4.1,-208,-251,0,-2,203,-286,205.28025650978088,205.2802975177765,205.28267979621887,205.29468059539795,205.44488883018494,205.44488883018494,205.44488883018494,205.44488883018494,205.44488883018494,205.44488883018494,205.44488883018494,206.57953691482544,3,1.2836544513702393,None,,,,,,,,,,,,,,,,,,205,5,2025-03-06_14h47.30.534,comp,2024.2.4,62.8322497528238,2025-03-06 14h47.43.798596 -0500,
93,93,0,critical,dwh,35.0,1.0,lower,70.0,70.0,57.0,133.0,133.0,57.0,3,1.709815502166748,None,,,,,0,0,0,0,0,93,93,60,206.59483408927917,,,,,,,,,,,,,,,,,,,,,,,,,,,,,,,,,,,,,,,,,,,,,,,,,,,,,,,,,,,,,,,,,,,,,,,,,,,,,,,,,70.0,70.0,57.0,133.0,133.0,57.0,1.0,1.1,-678,258,-480,272,-289,276,206.58035564422607,206.58039808273315,206.58251905441284,206.59483408927917,206.74490809440613,206.74490809440613,206.74490809440613,206.74490809440613,206.74490809440613,206.74490809440613,206.74490809440613,208.31255316734314,3,1.709815502166748,None,,,,,,,,,,,,,,,,,,205,5,2025-03-06_14h47.30.534,comp,2024.2.4,62.8322497528238,2025-03-06 14h47.43.798596 -0500,
94,94,0,critical,hdw,20.0,4.0,lower,133.0,57.0,78.0,78.0,57.0,133.0,1,1.6166279315948486,None,,,,,0,0,0,0,0,94,94,118,208.32839918136597,,,,,,,,,,,,,,,,,,,,,,,,,,,,,,,,,,,,,,,,,,,,,,,,,,,,,,,,,,,,,,,,,,,,,,,,,,,,,,,,,133.0,57.0,78.0,78.0,57.0,133.0,4.0,4.1,-164,-253,0,-1,202,-279,208.3133327960968,208.31337356567383,208.31551837921143,208.32839918136597,208.47818326950073,208.47818326950073,208.47818326950073,208.47818326950073,208.47818326950073,208.47818326950073,208.47818326950073,209.9624969959259,1,1.6166279315948486,None,,,,,,,,,,,,,,,,,,205,5,2025-03-06_14h47.30.534,comp,2024.2.4,62.8322497528238,2025-03-06 14h47.43.798596 -0500,
95,95,0,filler_square,None,None,None,None,None,None,None,None,None,None,2,1.2548151016235352,None,,,,,0,0,0,0,0,95,95,171,209.97794151306152,,,,,,,,,,,,,,,,,,,,,,,,,,,,,,,,,,,,,,,,,,,,,,,,,,,,,,,,,,,,,,,,,,,,,,,,,,,,,,,,,70.56320287733679,70.56320287733679,63.6453726761273,62.91931715381012,58.01687148360777,62.29266471192542,2.2,2.22,-163,271,0,-265,159,-272,209.9634256362915,209.9634656906128,209.9658920764923,209.97794151306152,210.12807941436768,210.12807941436768,210.12807941436768,210.12807941436768,210.12807941436768,210.12807941436768,210.12807941436768,211.24590635299683,2,1.2548151016235352,None,,,,,,,,,,,,,,,,,,205,5,2025-03-06_14h47.30.534,comp,2024.2.4,62.8322497528238,2025-03-06 14h47.43.798596 -0500,
96,96,0,filler_random,None,None,None,None,None,None,None,None,None,None,2,1.0670878887176514,None,,,,,0,0,0,0,0,96,96,168,211.2612464427948,,,,,,,,,,,,,,,,,,,,,,,,,,,,,,,,,,,,,,,,,,,,,,,,,,,,,,,,,,,,,,,,,,,,,,,,,,,,,,,,,90.45367610595662,94.56609016780004,123.56109721276701,95.8175499585083,105.61259049667709,100.31438801547216,1.0,1.2,-191,-12,0,18,194,-11,211.24679255485535,211.24683332443237,211.24938464164734,211.2612464427948,211.41178154945374,211.41178154945374,211.41178154945374,211.41178154945374,211.41178154945374,211.41178154945374,211.41178154945374,212.3294758796692,2,1.0670878887176514,None,,,,,,,,,,,,,,,,,,205,5,2025-03-06_14h47.30.534,comp,2024.2.4,62.8322497528238,2025-03-06 14h47.43.798596 -0500,
97,97,0,filler_random,None,None,None,None,None,None,None,None,None,None,2,1.0239219665527344,None,,,,,0,0,0,0,0,97,97,145,212.34482383728027,,,,,,,,,,,,,,,,,,,,,,,,,,,,,,,,,,,,,,,,,,,,,,,,,,,,,,,,,,,,,,,,,,,,,,,,,,,,,,,,,58.85726416338795,150.45832990306374,196.66330652361765,175.16642981588203,69.04901089946767,87.11100526023121,4.0,4.2,-259,-8,0,-268,227,-14,212.33041405677795,212.33047151565552,212.33324241638184,212.34482383728027,212.49472951889038,212.49472951889038,212.49472951889038,212.49472951889038,212.49472951889038,212.49472951889038,212.49472951889038,213.37923049926758,2,1.0239219665527344,None,,,,,,,,,,,,,,,,,,205,5,2025-03-06_14h47.30.534,comp,2024.2.4,62.8322497528238,2025-03-06 14h47.43.798596 -0500,
98,98,0,filler_random,None,None,None,None,None,None,None,None,None,None,3,0.8616640567779541,None,,,,,0,0,0,0,0,98,98,163,213.39489436149597,,,,,,,,,,,,,,,,,,,,,,,,,,,,,,,,,,,,,,,,,,,,,,,,,,,,,,,,,,,,,,,,,,,,,,,,,,,,,,,,,90.3128646548603,134.97521985954052,110.96547496038443,99.64338537798537,164.78415549695342,148.64956921767606,1.0,1.2,-213,-17,0,-2,220,-3,213.38010811805725,213.38015151023865,213.3823275566101,213.39489436149597,213.54487109184265,213.54487109184265,213.54487109184265,213.54487109184265,213.54487109184265,213.54487109184265,213.54487109184265,214.2625412940979,3,0.8616640567779541,None,,,,,,,,,,,,,,,,,,205,5,2025-03-06_14h47.30.534,comp,2024.2.4,62.8322497528238,2025-03-06 14h47.43.798596 -0500,
99,99,0,critical,whd,35.0,1.0,upper,125.0,200.0,200.0,125.0,127.0,127.0,2,0.9856443405151367,None,,,,,0,0,0,0,0,99,99,85,214.2781159877777,,,,,,,,,,,,,,,,,,,,,,,,,,,,,,,,,,,,,,,,,,,,,,,,,,,,,,,,,,,,,,,,,,,,,,,,,,,,,,,,,125.0,200.0,200.0,125.0,127.0,127.0,1.0,1.1,-738,256,-480,257,-258,281,214.26333117485046,214.26337265968323,214.26550126075745,214.2781159877777,214.42840552330017,214.42840552330017,214.42840552330017,214.42840552330017,214.42840552330017,214.42840552330017,214.42840552330017,215.27934288978577,2,0.9856443405151367,None,,,,,,,,,,,,,,,,,,205,5,2025-03-06_14h47.30.534,comp,2024.2.4,62.8322497528238,2025-03-06 14h47.43.798596 -0500,
100,100,0,critical,wdh,20.0,3.0,lower,57.0,133.0,78.0,78.0,133.0,57.0,3,0.9852440357208252,None,,,,,0,0,0,0,0,100,100,80,215.29461979866028,,,,,,,,,,,,,,,,,,,,,,,,,,,,,,,,,,,,,,,,,,,,,,,,,,,,,,,,,,,,,,,,,,,,,,,,,,,,,,,,,57.0,133.0,78.0,78.0,133.0,57.0,3.0,3.2,-202,-269,0,9,164,275,215.2801115512848,215.28015232086182,215.28347253799438,215.29461979866028,215.44467520713806,215.44467520713806,215.44467520713806,215.44467520713806,215.44467520713806,215.44467520713806,215.44467520713806,216.29580998420715,3,0.9852440357208252,None,,,,,,,,,,,,,,,,,,205,5,2025-03-06_14h47.30.534,comp,2024.2.4,62.8322497528238,2025-03-06 14h47.43.798596 -0500,
101,101,0,filler_random,None,None,None,None,None,None,None,None,None,None,3,1.0504038333892822,None,,,,,0,0,0,0,0,101,101,142,216.31131267547607,,,,,,,,,,,,,,,,,,,,,,,,,,,,,,,,,,,,,,,,,,,,,,,,,,,,,,,,,,,,,,,,,,,,,,,,,,,,,,,,,179.62179377773248,156.4921459324742,161.63388522398475,87.29377150142419,175.29529476932407,151.21724928325605,2.2,2.21,-218,-277,0,258,215,274,216.29676151275635,216.29680347442627,216.29939126968384,216.31131267547607,216.46174716949463,216.46174716949463,216.46174716949463,216.46174716949463,216.46174716949463,216.46174716949463,216.46174716949463,217.37936401367188,3,1.0504038333892822,None,,,,,,,,,,,,,,,,,,205,5,2025-03-06_14h47.30.534,comp,2024.2.4,62.8322497528238,2025-03-06 14h47.43.798596 -0500,
102,102,0,critical,dhw,20.0,2.1,upper,141.0,141.0,200.0,125.0,125.0,200.0,2,0.9339096546173096,None,,,,,0,0,0,0,0,102,102,3,217.3946394920349,,,,,,,,,,,,,,,,,,,,,,,,,,,,,,,,,,,,,,,,,,,,,,,,,,,,,,,,,,,,,,,,,,,,,,,,,,,,,,,,,141.0,141.0,200.0,125.0,125.0,200.0,2.1,2.11,-229,260,0,274,258,-251,217.3801908493042,217.3802318572998,217.38244938850403,217.3946394920349,217.5448658466339,217.5448658466339,217.5448658466339,217.5448658466339,217.5448658466339,217.5448658466339,217.5448658466339,218.3460295200348,2,0.9339096546173096,None,,,,,,,,,,,,,,,,,,205,5,2025-03-06_14h47.30.534,comp,2024.2.4,62.8322497528238,2025-03-06 14h47.43.798596 -0500,
103,103,0,critical,hwd,20.0,2.1,lower,133.0,57.0,57.0,133.0,78.0,78.0,2,1.1673498153686523,None,,,,,0,0,0,0,0,103,103,18,218.36121535301208,,,,,,,,,,,,,,,,,,,,,,,,,,,,,,,,,,,,,,,,,,,,,,,,,,,,,,,,,,,,,,,,,,,,,,,,,,,,,,,,,133.0,57.0,57.0,133.0,78.0,78.0,2.1,2.11,-191,268,0,271,202,-289,218.34684705734253,218.34688925743103,218.3494713306427,218.36121535301208,218.5113980770111,218.5113980770111,218.5113980770111,218.5113980770111,218.5113980770111,218.5113980770111,218.5113980770111,219.54573893547058,2,1.1673498153686523,None,,,,,,,,,,,,,,,,,,205,5,2025-03-06_14h47.30.534,comp,2024.2.4,62.8322497528238,2025-03-06 14h47.43.798596 -0500,
104,104,0,critical,hdw,20.0,1.0,lower,133.0,57.0,78.0,78.0,57.0,133.0,1,1.191880226135254,None,,,,,0,0,0,0,0,104,104,114,219.56120252609253,,,,,,,,,,,,,,,,,,,,,,,,,,,,,,,,,,,,,,,,,,,,,,,,,,,,,,,,,,,,,,,,,,,,,,,,,,,,,,,,,133.0,57.0,78.0,78.0,57.0,133.0,1.0,1.3,316,-273,480,-269,682,-290,219.5465271472931,219.5465681552887,219.54909348487854,219.56120252609253,219.7114176750183,219.7114176750183,219.7114176750183,219.7114176750183,219.7114176750183,219.7114176750183,219.7114176750183,220.7624475955963,1,1.191880226135254,None,,,,,,,,,,,,,,,,,,205,5,2025-03-06_14h47.30.534,comp,2024.2.4,62.8322497528238,2025-03-06 14h47.43.798596 -0500,
105,105,0,critical,wdh,35.0,1.0,lower,57.0,133.0,70.0,70.0,133.0,57.0,3,1.221663236618042,None,,,,,0,0,0,0,0,105,105,72,220.7779679298401,,,,,,,,,,,,,,,,,,,,,,,,,,,,,,,,,,,,,,,,,,,,,,,,,,,,,,,,,,,,,,,,,,,,,,,,,,,,,,,,,57.0,133.0,70.0,70.0,133.0,57.0,1.0,1.3,282,-272,480,-274,640,-269,220.7632486820221,220.76328945159912,220.76544737815857,220.7779679298401,220.9280879497528,220.9280879497528,220.9280879497528,220.9280879497528,220.9280879497528,220.9280879497528,220.9280879497528,222.01248168945312,3,1.221663236618042,None,,,,,,,,,,,,,,,,,,205,5,2025-03-06_14h47.30.534,comp,2024.2.4,62.8322497528238,2025-03-06 14h47.43.798596 -0500,
106,106,0,critical,dhw,20.0,1.0,lower,78.0,78.0,133.0,57.0,57.0,133.0,2,1.0767617225646973,None,,,,,0,0,0,0,0,106,106,54,222.0278036594391,,,,,,,,,,,,,,,,,,,,,,,,,,,,,,,,,,,,,,,,,,,,,,,,,,,,,,,,,,,,,,,,,,,,,,,,,,,,,,,,,78.0,78.0,133.0,57.0,57.0,133.0,1.0,1.2,-164,-5,0,-18,191,-18,222.01323986053467,222.01328015327454,222.01570868492126,222.0278036594391,222.17811155319214,222.17811155319214,222.17811155319214,222.17811155319214,222.17811155319214,222.17811155319214,222.17811155319214,223.11245965957642,2,1.0767617225646973,None,,,,,,,,,,,,,,,,,,205,5,2025-03-06_14h47.30.534,comp,2024.2.4,62.8322497528238,2025-03-06 14h47.43.798596 -0500,
107,107,0,critical,dwh,20.0,1.0,upper,141.0,141.0,125.0,200.0,200.0,125.0,3,1.0879771709442139,None,,,,,0,0,0,0,0,107,107,67,223.12800979614258,,,,,,,,,,,,,,,,,,,,,,,,,,,,,,,,,,,,,,,,,,,,,,,,,,,,,,,,,,,,,,,,,,,,,,,,,,,,,,,,,141.0,141.0,125.0,200.0,200.0,125.0,1.0,1.3,214,-256,480,-284,738,-257,223.11322903633118,223.1132698059082,223.11530089378357,223.12800979614258,223.27819395065308,223.27819395065308,223.27819395065308,223.27819395065308,223.27819395065308,223.27819395065308,223.27819395065308,224.2292799949646,3,1.0879771709442139,None,,,,,,,,,,,,,,,,,,205,5,2025-03-06_14h47.30.534,comp,2024.2.4,62.8322497528238,2025-03-06 14h47.43.798596 -0500,
108,108,0,critical,wdh,35.0,4.0,upper,125.0,200.0,127.0,127.0,200.0,125.0,3,1.4602837562561035,None,,,,,0,0,0,0,0,108,108,77,224.2445032596588,,,,,,,,,,,,,,,,,,,,,,,,,,,,,,,,,,,,,,,,,,,,,,,,,,,,,,,,,,,,,,,,,,,,,,,,,,,,,,,,,125.0,200.0,127.0,127.0,200.0,125.0,4.0,4.1,-260,-279,0,0,222,-287,224.2300636768341,224.23010516166687,224.2322154045105,224.2445032596588,224.39490485191345,224.39490485191345,224.39490485191345,224.39490485191345,224.39490485191345,224.39490485191345,224.39490485191345,225.71277499198914,3,1.4602837562561035,None,,,,,,,,,,,,,,,,,,205,5,2025-03-06_14h47.30.534,comp,2024.2.4,62.8322497528238,2025-03-06 14h47.43.798596 -0500,
109,109,0,critical,wdh,35.0,2.1,upper,125.0,200.0,127.0,127.0,200.0,125.0,3,1.6714928150177002,None,,,,,0,0,0,0,0,109,109,9,225.7281186580658,,,,,,,,,,,,,,,,,,,,,,,,,,,,,,,,,,,,,,,,,,,,,,,,,,,,,,,,,,,,,,,,,,,,,,,,,,,,,,,,,125.0,200.0,127.0,127.0,200.0,125.0,2.1,2.11,-260,290,0,268,222,-271,225.71361017227173,225.7136528491974,225.71586871147156,225.7281186580658,225.87813711166382,225.87813711166382,225.87813711166382,225.87813711166382,225.87813711166382,225.87813711166382,225.87813711166382,227.4125576019287,3,1.6714928150177002,None,,,,,,,,,,,,,,,,,,205,5,2025-03-06_14h47.30.534,comp,2024.2.4,62.8322497528238,2025-03-06 14h47.43.798596 -0500,
110,110,0,catch,None,None,None,None,None,None,None,None,None,None,2,1.366600751876831,None,,,,,0,0,0,0,0,110,110,124,227.4279820919037,,,,,,,,,,,,,,,,,,,,,,,,,,,,,,,,,,,,,,,,,,,,,,,,,,,,,,,,,,,,,,,,,,,,,,,,,,,,,,,,,75,115,175,150,117,73,2.1,2.11,-228,265,0,254,208,-268,227.41360640525818,227.41364812850952,227.41609382629395,227.4279820919037,227.57818031311035,227.57818031311035,227.57818031311035,227.57818031311035,227.57818031311035,227.57818031311035,227.57818031311035,228.81246972084045,2,1.366600751876831,None,,,,,,,,,,,,,,,,,,205,5,2025-03-06_14h47.30.534,comp,2024.2.4,62.8322497528238,2025-03-06 14h47.43.798596 -0500,
111,111,0,critical,dhw,20.0,3.0,upper,141.0,141.0,200.0,125.0,125.0,200.0,3,1.4520153999328613,None,,,,,0,0,0,0,0,111,111,57,228.82774257659912,,,,,,,,,,,,,,,,,,,,,,,,,,,,,,,,,,,,,,,,,,,,,,,,,,,,,,,,,,,,,,,,,,,,,,,,,,,,,,,,,141.0,141.0,200.0,125.0,125.0,200.0,3.0,3.2,-229,-288,0,-5,258,286,228.81327295303345,228.813312292099,228.8157410621643,228.82774257659912,228.9783160686493,228.9783160686493,228.9783160686493,228.9783160686493,228.9783160686493,228.9783160686493,228.9783160686493,230.2959840297699,3,1.4520153999328613,None,,,,,,,,,,,,,,,,,,205,5,2025-03-06_14h47.30.534,comp,2024.2.4,62.8322497528238,2025-03-06 14h47.43.798596 -0500,
112,112,0,filler_random,None,None,None,None,None,None,None,None,None,None,1,0.9153792858123779,None,,,,,0,0,0,0,0,112,112,162,230.31121850013733,,,,,,,,,,,,,,,,,,,,,,,,,,,,,,,,,,,,,,,,,,,,,,,,,,,,,,,,,,,,,,,,,,,,,,,,,,,,,,,,,193.90918205072524,104.43154101974491,141.7640175600555,96.79659747685722,112.98274818431275,87.9700199141369,4.0,4.1,-197,-276,0,11,188,-279,230.29688692092896,230.29692816734314,230.29913592338562,230.31121850013733,230.46134066581726,230.46134066581726,230.46134066581726,230.46134066581726,230.46134066581726,230.46134066581726,230.46134066581726,231.22936367988586,1,0.9153792858123779,None,,,,,,,,,,,,,,,,,,205,5,2025-03-06_14h47.30.534,comp,2024.2.4,62.8322497528238,2025-03-06 14h47.43.798596 -0500,
113,113,0,critical,whd,35.0,4.0,upper,125.0,200.0,200.0,125.0,127.0,127.0,1,1.2438726425170898,None,,,,,0,0,0,0,0,113,113,89,231.24463391304016,,,,,,,,,,,,,,,,,,,,,,,,,,,,,,,,,,,,,,,,,,,,,,,,,,,,,,,,,,,,,,,,,,,,,,,,,,,,,,,,,125.0,200.0,200.0,125.0,127.0,127.0,4.0,4.1,-258,-285,0,2,222,-283,231.23012685775757,231.23018431663513,231.23232460021973,231.24463391304016,231.39498019218445,231.39498019218445,231.39498019218445,231.39498019218445,231.39498019218445,231.39498019218445,231.39498019218445,232.4958691596985,1,1.2438726425170898,None,,,,,,,,,,,,,,,,,,205,5,2025-03-06_14h47.30.534,comp,2024.2.4,62.8322497528238,2025-03-06 14h47.43.798596 -0500,
114,114,0,filler_square,None,None,None,None,None,None,None,None,None,None,1,1.6335902214050293,None,,,,,0,0,0,0,0,114,114,191,232.51138377189636,,,,,,,,,,,,,,,,,,,,,,,,,,,,,,,,,,,,,,,,,,,,,,,,,,,,,,,,,,,,,,,,,,,,,,,,,,,,,,,,,158.56050867064005,158.56050867064005,92.2891364257433,119.17050032343198,65.14503657546362,136.0964443384189,2.2,2.22,-235,254,0,-268,224,-269,232.4968409538269,232.49688410758972,232.4995675086975,232.51138377189636,232.66125345230103,232.66125345230103,232.66125345230103,232.66125345230103,232.66125345230103,232.66125345230103,232.66125345230103,234.14617204666138,1,1.6335902214050293,None,,,,,,,,,,,,,,,,,,205,5,2025-03-06_14h47.30.534,comp,2024.2.4,62.8322497528238,2025-03-06 14h47.43.798596 -0500,
115,115,0,critical,whd,20.0,2.1,upper,125.0,200.0,200.0,125.0,141.0,141.0,2,1.3022348880767822,None,,,,,0,0,0,0,0,115,115,15,234.16136479377747,,,,,,,,,,,,,,,,,,,,,,,,,,,,,,,,,,,,,,,,,,,,,,,,,,,,,,,,,,,,,,,,,,,,,,,,,,,,,,,,,125.0,200.0,200.0,125.0,141.0,141.0,2.1,2.11,-258,255,0,285,229,-270,234.14694499969482,234.146986246109,234.149263381958,234.16136479377747,234.31148171424866,234.31148171424866,234.31148171424866,234.31148171424866,234.31148171424866,234.31148171424866,234.31148171424866,235.47906255722046,2,1.3022348880767822,None,,,,,,,,,,,,,,,,,,205,5,2025-03-06_14h47.30.534,comp,2024.2.4,62.8322497528238,2025-03-06 14h47.43.798596 -0500,
116,116,0,critical,dwh,20.0,2.1,lower,78.0,78.0,57.0,133.0,133.0,57.0,3,1.3533239364624023,None,,,,,0,0,0,0,0,116,116,6,235.49443793296814,,,,,,,,,,,,,,,,,,,,,,,,,,,,,,,,,,,,,,,,,,,,,,,,,,,,,,,,,,,,,,,,,,,,,,,,,,,,,,,,,78.0,78.0,57.0,133.0,133.0,57.0,2.1,2.12,-202,-283,0,-273,191,250,235.4799747467041,235.4800159931183,235.4821252822876,235.49443793296814,235.6446075439453,235.6446075439453,235.6446075439453,235.6446075439453,235.6446075439453,235.6446075439453,235.6446075439453,236.8623776435852,3,1.3533239364624023,None,,,,,,,,,,,,,,,,,,205,5,2025-03-06_14h47.30.534,comp,2024.2.4,62.8322497528238,2025-03-06 14h47.43.798596 -0500,
117,117,0,catch,None,None,None,None,None,None,None,None,None,None,2,0.9619920253753662,None,,,,,0,0,0,0,0,117,117,120,236.89436197280884,,,,,,,,,,,,,,,,,,,,,,,,,,,,,,,,,,,,,,,,,,,,,,,,,,,,,,,,,,,,,,,,,,,,,,,,,,,,,,,,,63,127,189,136,89,101,2.2,2.21,-228,-287,0,290,214,264,236.86343574523926,236.86347889900208,236.86591267585754,236.89436197280884,237.02804613113403,237.02804613113403,237.02804613113403,237.02804613113403,237.02804613113403,237.02804613113403,237.02804613113403,237.86243653297424,2,0.9619920253753662,None,,,,,,,,,,,,,,,,,,205,5,2025-03-06_14h47.30.534,comp,2024.2.4,62.8322497528238,2025-03-06 14h47.43.798596 -0500,
118,118,0,filler_random,None,None,None,None,None,None,None,None,None,None,3,0.9698023796081543,None,,,,,0,0,0,0,0,118,118,135,237.87794280052185,,,,,,,,,,,,,,,,,,,,,,,,,,,,,,,,,,,,,,,,,,,,,,,,,,,,,,,,,,,,,,,,,,,,,,,,,,,,,,,,,118.27897077388668,95.9713687341673,108.55351454333623,67.7658697489329,172.30232367177638,138.97669851312384,1.0,1.1,-658,287,-480,267,-281,278,237.86332488059998,237.86336469650269,237.86539959907532,237.87794280052185,238.02802157402039,238.02802157402039,238.02802157402039,238.02802157402039,238.02802157402039,238.02802157402039,238.02802157402039,238.86226892471313,3,0.9698023796081543,None,,,,,,,,,,,,,,,,,,205,5,2025-03-06_14h47.30.534,comp,2024.2.4,62.8322497528238,2025-03-06 14h47.43.798596 -0500,
119,119,0,critical,hdw,35.0,2.1,lower,133.0,57.0,70.0,70.0,57.0,133.0,1,1.5057995319366455,None,,,,,0,0,0,0,0,119,119,20,238.87773776054382,,,,,,,,,,,,,,,,,,,,,,,,,,,,,,,,,,,,,,,,,,,,,,,,,,,,,,,,,,,,,,,,,,,,,,,,,,,,,,,,,133.0,57.0,70.0,70.0,57.0,133.0,2.1,2.11,-160,277,0,266,198,-253,238.86303281784058,238.8630735874176,238.86540126800537,238.87773776054382,239.0279815196991,239.0279815196991,239.0279815196991,239.0279815196991,239.0279815196991,239.0279815196991,239.0279815196991,240.3960099220276,1,1.5057995319366455,None,,,,,,,,,,,,,,,,,,205,5,2025-03-06_14h47.30.534,comp,2024.2.4,62.8322497528238,2025-03-06 14h47.43.798596 -0500,
120,120,0,filler_square,None,None,None,None,None,None,None,None,None,None,3,1.2613449096679688,None,,,,,0,0,0,0,0,120,120,192,240.41110348701477,,,,,,,,,,,,,,,,,,,,,,,,,,,,,,,,,,,,,,,,,,,,,,,,,,,,,,,,,,,,,,,,,,,,,,,,,,,,,,,,,74.404685049065,59.923417513313474,75.55468494891187,57.979664506823276,80.78600554552688,80.78600554552688,2.1,2.11,-155,280,0,264,165,-290,240.39696407318115,240.39700627326965,240.39975309371948,240.41110348701477,240.56125497817993,240.56125497817993,240.56125497817993,240.56125497817993,240.56125497817993,240.56125497817993,240.56125497817993,241.67912435531616,3,1.2613449096679688,None,,,,,,,,,,,,,,,,,,205,5,2025-03-06_14h47.30.534,comp,2024.2.4,62.8322497528238,2025-03-06 14h47.43.798596 -0500,
121,121,0,filler_square,None,None,None,None,None,None,None,None,None,None,3,1.169074535369873,None,,,,,0,0,0,0,0,121,121,197,241.69461035728455,,,,,,,,,,,,,,,,,,,,,,,,,,,,,,,,,,,,,,,,,,,,,,,,,,,,,,,,,,,,,,,,,,,,,,,,,,,,,,,,,107.82596622062408,63.69274843705698,96.22938172295898,72.98708542956187,112.32789378926917,112.32789378926917,4.0,4.2,-164,18,0,-264,189,-16,241.6800720691681,241.68011379241943,241.68245840072632,241.69461035728455,241.84445905685425,241.84445905685425,241.84445905685425,241.84445905685425,241.84445905685425,241.84445905685425,241.84445905685425,242.87901067733765,3,1.169074535369873,None,,,,,,,,,,,,,,,,,,205,5,2025-03-06_14h47.30.534,comp,2024.2.4,62.8322497528238,2025-03-06 14h47.43.798596 -0500,
122,122,0,filler_square,None,None,None,None,None,None,None,None,None,None,2,0.8890607357025146,None,,,,,0,0,0,0,0,122,122,180,242.8944854736328,,,,,,,,,,,,,,,,,,,,,,,,,,,,,,,,,,,,,,,,,,,,,,,,,,,,,,,,,,,,,,,,,,,,,,,,,,,,,,,,,114.27453582269422,122.57850957516979,150.61346246575107,150.61346246575107,67.30455317599642,141.45110244785604,2.1,2.11,-233,282,0,254,242,-255,242.87996578216553,242.8800082206726,242.88266110420227,242.8944854736328,243.04454517364502,243.04454517364502,243.04454517364502,243.04454517364502,243.04454517364502,243.04454517364502,243.04454517364502,243.79576992988586,2,0.8890607357025146,None,,,,,,,,,,,,,,,,,,205,5,2025-03-06_14h47.30.534,comp,2024.2.4,62.8322497528238,2025-03-06 14h47.43.798596 -0500,
123,123,0,critical,whd,20.0,4.0,lower,57.0,133.0,133.0,57.0,78.0,78.0,2,1.5667555332183838,None,,,,,0,0,0,0,0,123,123,94,243.8111391067505,,,,,,,,,,,,,,,,,,,,,,,,,,,,,,,,,,,,,,,,,,,,,,,,,,,,,,,,,,,,,,,,,,,,,,,,,,,,,,,,,57.0,133.0,133.0,57.0,78.0,78.0,4.0,4.2,-191,1,0,-289,164,4,243.79655861854553,243.79660034179688,243.79908394813538,243.8111391067505,243.96123099327087,243.96123099327087,243.96123099327087,243.96123099327087,243.96123099327087,243.96123099327087,243.96123099327087,245.39561080932617,2,1.5667555332183838,None,,,,,,,,,,,,,,,,,,205,5,2025-03-06_14h47.30.534,comp,2024.2.4,62.8322497528238,2025-03-06 14h47.43.798596 -0500,
124,124,0,critical,wdh,35.0,1.0,upper,125.0,200.0,127.0,127.0,200.0,125.0,3,1.100984811782837,None,,,,,0,0,0,0,0,124,124,73,245.41104388237,,,,,,,,,,,,,,,,,,,,,,,,,,,,,,,,,,,,,,,,,,,,,,,,,,,,,,,,,,,,,,,,,,,,,,,,,,,,,,,,,125.0,200.0,127.0,127.0,200.0,125.0,1.0,1.2,-260,-13,0,16,222,-6,245.39639163017273,245.39642977714539,245.39845418930054,245.41104388237,245.56127333641052,245.56127333641052,245.56127333641052,245.56127333641052,245.56127333641052,245.56127333641052,245.56127333641052,246.52920293807983,3,1.100984811782837,None,,,,,,,,,,,,,,,,,,205,5,2025-03-06_14h47.30.534,comp,2024.2.4,62.8322497528238,2025-03-06 14h47.43.798596 -0500,
125,125,0,filler_square,None,None,None,None,None,None,None,None,None,None,1,1.2660815715789795,None,,,,,0,0,0,0,0,125,125,185,246.54434895515442,,,,,,,,,,,,,,,,,,,,,,,,,,,,,,,,,,,,,,,,,,,,,,,,,,,,,,,,,,,,,,,,,,,,,,,,,,,,,,,,,146.94686001509936,146.94686001509936,105.10601759726333,68.21341861923632,95.08661197970453,74.41239828859828,2.2,2.21,-204,-265,0,272,167,286,246.53015232086182,246.53020787239075,246.5325677394867,246.54434895515442,246.69470191001892,246.69470191001892,246.69470191001892,246.69470191001892,246.69470191001892,246.69470191001892,246.69470191001892,247.81247925758362,1,1.2660815715789795,None,,,,,,,,,,,,,,,,,,205,5,2025-03-06_14h47.30.534,comp,2024.2.4,62.8322497528238,2025-03-06 14h47.43.798596 -0500,
126,126,0,critical,dwh,35.0,2.1,lower,70.0,70.0,57.0,133.0,133.0,57.0,2,1.0926446914672852,None,,,,,0,0,0,0,0,126,126,4,247.82781410217285,,,,,,,,,,,,,,,,,,,,,,,,,,,,,,,,,,,,,,,,,,,,,,,,,,,,,,,,,,,,,,,,,,,,,,,,,,,,,,,,,70.0,70.0,57.0,133.0,133.0,57.0,2.1,2.11,-198,284,0,275,191,-272,247.8132722377777,247.8133156299591,247.81552648544312,247.82781410217285,247.9778275489807,247.9778275489807,247.9778275489807,247.9778275489807,247.9778275489807,247.9778275489807,247.9778275489807,248.929301738739,2,1.0926446914672852,None,,,,,,,,,,,,,,,,,,205,5,2025-03-06_14h47.30.534,comp,2024.2.4,62.8322497528238,2025-03-06 14h47.43.798596 -0500,
127,127,0,critical,whd,20.0,3.0,lower,57.0,133.0,133.0,57.0,78.0,78.0,2,1.5189619064331055,None,,,,,0,0,0,0,0,127,127,92,248.9446496963501,,,,,,,,,,,,,,,,,,,,,,,,,,,,,,,,,,,,,,,,,,,,,,,,,,,,,,,,,,,,,,,,,,,,,,,,,,,,,,,,,57.0,133.0,133.0,57.0,78.0,78.0,3.0,3.1,-191,287,0,0,164,-284,248.930091381073,248.93013334274292,248.93250036239624,248.9446496963501,249.0945541858673,249.0945541858673,249.0945541858673,249.0945541858673,249.0945541858673,249.0945541858673,249.0945541858673,250.4788076877594,2,1.5189619064331055,None,,,,,,,,,,,,,,,,,,205,5,2025-03-06_14h47.30.534,comp,2024.2.4,62.8322497528238,2025-03-06 14h47.43.798596 -0500,
128,128,0,filler_square,None,None,None,None,None,None,None,None,None,None,2,1.0742168426513672,None,,,,,0,0,0,0,0,128,128,187,250.49440813064575,,,,,,,,,,,,,,,,,,,,,,,,,,,,,,,,,,,,,,,,,,,,,,,,,,,,,,,,,,,,,,,,,,,,,,,,,,,,,,,,,158.6822267119124,141.9830698488962,184.05510310721166,184.05510310721166,103.902200776974,109.65811290438984,2.1,2.12,-259,-277,0,-262,243,279,250.4800145626068,250.48005533218384,250.48211359977722,250.49440813064575,250.64474773406982,250.64474773406982,250.64474773406982,250.64474773406982,250.64474773406982,250.64474773406982,250.64474773406982,251.57912850379944,2,1.0742168426513672,None,,,,,,,,,,,,,,,,,,205,5,2025-03-06_14h47.30.534,comp,2024.2.4,62.8322497528238,2025-03-06 14h47.43.798596 -0500,
129,129,0,critical,wdh,20.0,1.0,upper,125.0,200.0,141.0,141.0,200.0,125.0,3,1.133798599243164,None,,,,,0,0,0,0,0,129,129,79,251.5945897102356,,,,,,,,,,,,,,,,,,,,,,,,,,,,,,,,,,,,,,,,,,,,,,,,,,,,,,,,,,,,,,,,,,,,,,,,,,,,,,,,,125.0,200.0,141.0,141.0,200.0,125.0,1.0,1.3,214,-274,480,-259,709,-266,251.57994437217712,251.57998633384705,251.58208894729614,251.5945897102356,251.74479413032532,251.74479413032532,251.74479413032532,251.74479413032532,251.74479413032532,251.74479413032532,251.74479413032532,252.74584460258484,3,1.133798599243164,None,,,,,,,,,,,,,,,,,,205,5,2025-03-06_14h47.30.534,comp,2024.2.4,62.8322497528238,2025-03-06 14h47.43.798596 -0500,
130,130,0,critical,hdw,35.0,3.0,lower,133.0,57.0,70.0,70.0,57.0,133.0,1,1.5025949478149414,None,,,,,0,0,0,0,0,130,130,110,252.76110434532166,,,,,,,,,,,,,,,,,,,,,,,,,,,,,,,,,,,,,,,,,,,,,,,,,,,,,,,,,,,,,,,,,,,,,,,,,,,,,,,,,133.0,57.0,70.0,70.0,57.0,133.0,3.0,3.2,-160,-261,0,6,198,257,252.74669528007507,252.746737241745,252.74936842918396,252.76110434532166,252.91117405891418,252.91117405891418,252.91117405891418,252.91117405891418,252.91117405891418,252.91117405891418,252.91117405891418,254.27887058258057,1,1.5025949478149414,None,,,,,,,,,,,,,,,,,,205,5,2025-03-06_14h47.30.534,comp,2024.2.4,62.8322497528238,2025-03-06 14h47.43.798596 -0500,
131,131,0,filler_random,None,None,None,None,None,None,None,None,None,None,1,3.1462173461914062,None,,,,,0,0,0,0,0,131,131,150,254.29427909851074,,,,,,,,,,,,,,,,,,,,,,,,,,,,,,,,,,,,,,,,,,,,,,,,,,,,,,,,,,,,,,,,,,,,,,,,,,,,,,,,,135.87663348235395,196.26654996436758,170.01786623485896,159.41771794411324,150.37128152911566,69.19898716868211,1.0,1.3,206,-276,480,-280,690,-254,254.27982378005981,254.27986526489258,254.28199744224548,254.29427909851074,254.44466996192932,254.44466996192932,254.44466996192932,254.44466996192932,254.44466996192932,254.44466996192932,254.44466996192932,257.44581294059753,1,3.1462173461914062,None,,,,,,,,,,,,,,,,,,205,5,2025-03-06_14h47.30.534,comp,2024.2.4,62.8322497528238,2025-03-06 14h47.43.798596 -0500,
132,132,0,critical,wdh,35.0,2.1,lower,57.0,133.0,70.0,70.0,133.0,57.0,3,1.9221916198730469,None,,,,,0,0,0,0,0,132,132,32,257.46119594573975,,,,,,,,,,,,,,,,,,,,,,,,,,,,,,,,,,,,,,,,,,,,,,,,,,,,,,,,,,,,,,,,,,,,,,,,,,,,,,,,,57.0,133.0,70.0,70.0,133.0,57.0,2.1,2.12,-198,-253,0,-289,160,265,257.4465665817261,257.44660782814026,257.44908690452576,257.46119594573975,257.6111304759979,257.6111304759979,257.6111304759979,257.6111304759979,257.6111304759979,257.6111304759979,257.6111304759979,259.39587688446045,3,1.9221916198730469,None,,,,,,,,,,,,,,,,,,205,5,2025-03-06_14h47.30.534,comp,2024.2.4,62.8322497528238,2025-03-06 14h47.43.798596 -0500,
133,133,0,critical,wdh,35.0,2.1,lower,57.0,133.0,70.0,70.0,133.0,57.0,3,1.4453849792480469,None,,,,,0,0,0,0,0,133,133,8,259.4109857082367,,,,,,,,,,,,,,,,,,,,,,,,,,,,,,,,,,,,,,,,,,,,,,,,,,,,,,,,,,,,,,,,,,,,,,,,,,,,,,,,,57.0,133.0,70.0,70.0,133.0,57.0,2.1,2.11,-198,254,0,283,160,-273,259.39668798446655,259.39673042297363,259.39946699142456,259.4109857082367,259.5611152648926,259.5611152648926,259.5611152648926,259.5611152648926,259.5611152648926,259.5611152648926,259.5611152648926,260.86217761039734,3,1.4453849792480469,None,,,,,,,,,,,,,,,,,,205,5,2025-03-06_14h47.30.534,comp,2024.2.4,62.8322497528238,2025-03-06 14h47.43.798596 -0500,
134,134,0,filler_random,None,None,None,None,None,None,None,None,None,None,2,1.091012716293335,None,,,,,0,0,0,0,0,134,134,141,260.8777492046356,,,,,,,,,,,,,,,,,,,,,,,,,,,,,,,,,,,,,,,,,,,,,,,,,,,,,,,,,,,,,,,,,,,,,,,,,,,,,,,,,57.05960212833846,122.76381193634685,149.9869913107234,184.69920722662937,125.30601295048376,110.43119948548679,3.0,3.2,-250,-261,0,12,244,281,260.86305689811707,260.86309790611267,260.86540961265564,260.8777492046356,261.0280523300171,261.0280523300171,261.0280523300171,261.0280523300171,261.0280523300171,261.0280523300171,261.0280523300171,261.97892594337463,2,1.091012716293335,None,,,,,,,,,,,,,,,,,,205,5,2025-03-06_14h47.30.534,comp,2024.2.4,62.8322497528238,2025-03-06 14h47.43.798596 -0500,
135,135,0,critical,hwd,20.0,1.0,upper,200.0,125.0,125.0,200.0,141.0,141.0,2,2.037832021713257,None,,,,,0,0,0,0,0,135,135,103,261.99457359313965,,,,,,,,,,,,,,,,,,,,,,,,,,,,,,,,,,,,,,,,,,,,,,,,,,,,,,,,,,,,,,,,,,,,,,,,,,,,,,,,,200.0,125.0,125.0,200.0,141.0,141.0,1.0,1.1,-738,274,-480,270,-214,265,261.9797520637512,261.97979497909546,261.981858253479,261.99457359313965,262.14461874961853,262.14461874961853,262.14461874961853,262.14461874961853,262.14461874961853,262.14461874961853,262.14461874961853,264.0457510948181,2,2.037832021713257,None,,,,,,,,,,,,,,,,,,205,5,2025-03-06_14h47.30.534,comp,2024.2.4,62.8322497528238,2025-03-06 14h47.43.798596 -0500,
136,136,0,critical,dhw,35.0,2.1,upper,127.0,127.0,200.0,125.0,125.0,200.0,2,1.034510850906372,None,,,,,0,0,0,0,0,136,136,25,264.0609481334686,,,,,,,,,,,,,,,,,,,,,,,,,,,,,,,,,,,,,,,,,,,,,,,,,,,,,,,,,,,,,,,,,,,,,,,,,,,,,,,,,127.0,127.0,200.0,125.0,125.0,200.0,2.1,2.11,-222,253,0,280,258,-288,264.04654359817505,264.0465829372406,264.0490369796753,264.0609481334686,264.2113358974457,264.2113358974457,264.2113358974457,264.2113358974457,264.2113358974457,264.2113358974457,264.2113358974457,265.1122536659241,2,1.034510850906372,None,,,,,,,,,,,,,,,,,,205,5,2025-03-06_14h47.30.534,comp,2024.2.4,62.8322497528238,2025-03-06 14h47.43.798596 -0500,
137,137,0,critical,hdw,20.0,2.1,upper,200.0,125.0,141.0,141.0,125.0,200.0,3,1.5519096851348877,None,,,,,0,0,0,0,0,137,137,47,265.12760162353516,,,,,,,,,,,,,,,,,,,,,,,,,,,,,,,,,,,,,,,,,,,,,,,,,,,,,,,,,,,,,,,,,,,,,,,,,,,,,,,,,200.0,125.0,141.0,141.0,125.0,200.0,2.1,2.12,-229,-287,0,-282,266,284,265.1130256652832,265.11306619644165,265.1151852607727,265.12760162353516,265.2778604030609,265.2778604030609,265.2778604030609,265.2778604030609,265.2778604030609,265.2778604030609,265.2778604030609,266.695641040802,3,1.5519096851348877,None,,,,,,,,,,,,,,,,,,205,5,2025-03-06_14h47.30.534,comp,2024.2.4,62.8322497528238,2025-03-06 14h47.43.798596 -0500,
138,138,0,filler_random,None,None,None,None,None,None,None,None,None,None,3,1.4668633937835693,None,,,,,0,0,0,0,0,138,138,166,266.7109763622284,,,,,,,,,,,,,,,,,,,,,,,,,,,,,,,,,,,,,,,,,,,,,,,,,,,,,,,,,,,,,,,,,,,,,,,,,,,,,,,,,101.95732500775577,165.1728370207654,129.5693175443427,130.25254917700818,195.88113227498766,86.55770858418258,2.1,2.12,-244,-277,0,-285,204,276,266.6965446472168,266.6965847015381,266.6990501880646,266.7109763622284,266.8613016605377,266.8613016605377,266.8613016605377,266.8613016605377,266.8613016605377,266.8613016605377,266.8613016605377,268.1955454349518,3,1.4668633937835693,None,,,,,,,,,,,,,,,,,,205,5,2025-03-06_14h47.30.534,comp,2024.2.4,62.8322497528238,2025-03-06 14h47.43.798596 -0500,
