thisN,thisTrialN,thisRepN,effect,order,distance,config,diag,h_1,w_1,h_2,w_2,h_3,w_3,rect_choice.keys,rect_choice.rt,rect_choice.duration,instructions_loop.thisRepN,instructions_loop.thisTrialN,instructions_loop.thisN,instructions_loop.thisIndex,blocks.thisRepN,blocks.thisTrialN,blocks.thisN,blocks.thisIndex,trials.thisRepN,trials.thisTrialN,trials.thisN,trials.thisIndex,thisRow.t,notes,consent.started,agree_button.started,decline_button.started,consent_img.started,mouse.started,consent.stopped,agree_button.numClicks,agree_button.timesOn,agree_button.timesOff,decline_button.numClicks,decline_button.timesOn,decline_button.timesOff,mouse.x,mouse.y,mouse.leftButton,mouse.midButton,mouse.rightButton,mouse.time,mouse.clicked_name,exp_params.started,exp_params.stopped,welcome.started,welcome_text.started,welcome.stopped,instructions_1.started,instructions_1_text_1.started,instructions_1_text_2.started,key_resp.started,instructions_1.stopped,instructions_loop.key_resp.keys,instructions_loop.key_resp.rt,instructions_loop.key_resp.duration,instructions_2.started,instructions_2_text_1.started,instructions_2_text_2.started,key_resp_2.started,instructions_2.stopped,instructions_loop.key_resp_2.keys,instructions_loop.key_resp_2.rt,instructions_loop.key_resp_2.duration,instructions_3.started,instructions_3_text_1.started,r1_instr3.started,r2_instr3.started,r3_instr3.started,r1_instr3_label.started,r2_instr3_label.started,r3_instr3_label.started,instructions_3_text_3.started,instructions_3_text_4.started,key_resp_3.started,instructions_3.stopped,instructions_loop.key_resp_3.keys,instructions_loop.key_resp_3.rt,instructions_loop.key_resp_3.duration,instructions_4.started,instructions_4_text_1.started,instructions_4_text_3.started,instructions_4_text_2.started,key_resp_4.started,instructions_4.stopped,instructions_loop.key_resp_4.keys,instructions_loop.key_resp_4.rt,instructions_loop.key_resp_4.duration,instructions_5.started,instructions_5_text_1.started,instructions_5_text_2.started,key_resp_5.started,instructions_5.stopped,instructions_loop.key_resp_5.keys,instructions_loop.key_resp_5.rt,instructions_loop.key_resp_5.duration,start_exp.started,start_exp_text.started,key_resp_6.started,start_exp.stopped,key_resp_6.keys,key_resp_6.rt,key_resp_6.duration,h_1_tmp,w_1_tmp,h_2_tmp,w_2_tmp,h_3_tmp,w_3_tmp,config_tmp,config_tmp_1,r_1_x,r_1_y,r_2_x,r_2_y,r_3_x,r_3_y,pre_trial.started,pre_trial.stopped,choice_trial.started,rect_choice.started,r_1.started,r_2.started,r_3.started,r_1_label.started,r_2_label.started,r_3_label.started,prompt.started,choice_trial.stopped,trials.rect_choice.keys,trials.rect_choice.rt,trials.rect_choice.duration,end_block.started,end_block_text.started,end_block.stopped,end.started,end_text.started,key_resp_7.started,end.stopped,key_resp_7.keys,key_resp_7.rt,key_resp_7.duration,debriefing.started,debrief_form.started,end_debrief.started,debriefing.stopped,end_debrief.keys,end_debrief.rt,end_debrief.duration,participant,computer,date,expName,psychopyVersion,frameRate,expStart,
,,,,,,,,,,,,,,,,,,,,,,,,,,,,,,,0.014616727828979492,0.035317182540893555,0.035317182540893555,0.035317182540893555,0.014417171478271484,34.54442262649536,1,[34.50659132003784],[34.50661516189575],0,,,[-70.0],[-516.0],[1],[0],[0],[34.52941966056824],['agree_button'],,,,,,,,,,,,,,,,,,,,,,,,,,,,,,,,,,,,,,,,,,,,,,,,,,,,,,,,,,,,,,,,,,,,,,,,,,,,,,,,,,,,,,,,,,,,,,,,,,,,,,,,,,,206,1,2025-03-07_09h54.45.760,comp,2024.2.4,55.98997219392965,2025-03-07 09h54.56.295660 -0500,
,,,,,,,,,,,,,,,,,,,,,,,,,,,,,,,,,,,,,,,,,,,,,,,,,,34.54490089416504,34.544986963272095,,,,,,,,,,,,,,,,,,,,,,,,,,,,,,,,,,,,,,,,,,,,,,,,,,,,,,,,,,,,,,,,,,,,,,,,,,,,,,,,,,,,,,,,,,,,,,,,,,,,,,,,,206,1,2025-03-07_09h54.45.760,comp,2024.2.4,55.98997219392965,2025-03-07 09h54.56.295660 -0500,
,,,,,,,,,,,,,,,,,,,,,,,,,,,,,,,,,,,,,,,,,,,,,,,,,,,,34.54505729675293,34.56122136116028,36.5554416179657,,,,,,,,,,,,,,,,,,,,,,,,,,,,,,,,,,,,,,,,,,,,,,,,,,,,,,,,,,,,,,,,,,,,,,,,,,,,,,,,,,,,,,,,,,,,,,,,,,,,,,206,1,2025-03-07_09h54.45.760,comp,2024.2.4,55.98997219392965,2025-03-07 09h54.56.295660 -0500,
0,0,0,,,,,,,,,,,,,,,0,0,0,0,,,,,,,,,36.57635998725891,,,,,,,,,,,,,,,,,,,,,,,,,,36.55646228790283,36.57635998725891,36.57635998725891,38.05424761772156,43.90816521644592,space,5.843005895614624,None,43.908230781555176,43.92060112953186,43.92060112953186,45.40697932243347,55.07757091522217,space,9.65998101234436,None,55.07776093482971,55.10546350479126,55.10546350479126,55.10546350479126,55.10546350479126,55.10546350479126,55.10546350479126,55.10546350479126,55.10546350479126,55.10546350479126,56.57757616043091,63.18303871154785,space,6.600285291671753,None,63.18320369720459,63.19980192184448,63.19980192184448,63.19980192184448,64.69559860229492,72.90037870407104,space,8.201680421829224,None,72.90054392814636,72.91597414016724,72.91597414016724,74.41231417655945,80.08509159088135,space,5.661471366882324,None,80.08529281616211,80.1006498336792,80.1006498336792,81.78586912155151,space,1.6768407821655273,None,,,,,,,,,,,,,,,,,,,,,,,,,,,,,,,,,,,,,,,,,,,,,,,206,1,2025-03-07_09h54.45.760,comp,2024.2.4,55.98997219392965,2025-03-07 09h54.56.295660 -0500,
0,0,0,critical,dhw,20.0,1.0,lower,78.0,78.0,133.0,57.0,57.0,133.0,2,30.195582628250122,None,,,,,0,0,0,0,0,0,0,54,81.86214256286621,,,,,,,,,,,,,,,,,,,,,,,,,,,,,,,,,,,,,,,,,,,,,,,,,,,,,,,,,,,,,,,,,,,,,,,,,,,,,,,,,78.0,78.0,133.0,57.0,57.0,133.0,1.0,1.1,-644,266,-480,273,-289,260,81.84523034095764,81.8452627658844,81.8465371131897,81.86214256286621,82.00943994522095,82.00943994522095,82.00943994522095,82.00943994522095,82.00943994522095,82.00943994522095,82.00943994522095,112.06849360466003,2,30.195582628250122,None,,,,,,,,,,,,,,,,,,206,1,2025-03-07_09h54.45.760,comp,2024.2.4,55.98997219392965,2025-03-07 09h54.56.295660 -0500,
1,1,0,filler_random,None,None,None,None,None,None,None,None,None,None,2,9.575485706329346,None,,,,,0,0,0,0,0,1,1,140,112.08975601196289,,,,,,,,,,,,,,,,,,,,,,,,,,,,,,,,,,,,,,,,,,,,,,,,,,,,,,,,,,,,,,,,,,,,,,,,,,,,,,,,,145.2474417644238,63.20339558826714,127.05977511654869,94.69211463878108,64.58941841291237,99.58039983314298,1.0,1.1,-655,257,-480,264,-287,259,112.07046699523926,112.07056427001953,112.07383632659912,112.08975601196289,112.22974491119385,112.22974491119385,112.22974491119385,112.22974491119385,112.22974491119385,112.22974491119385,112.22974491119385,121.66838502883911,2,9.575485706329346,None,,,,,,,,,,,,,,,,,,206,1,2025-03-07_09h54.45.760,comp,2024.2.4,55.98997219392965,2025-03-07 09h54.56.295660 -0500,
2,2,0,critical,dhw,35.0,2.1,lower,70.0,70.0,133.0,57.0,57.0,133.0,3,12.753847122192383,None,,,,,0,0,0,0,0,2,2,24,121.68941020965576,,,,,,,,,,,,,,,,,,,,,,,,,,,,,,,,,,,,,,,,,,,,,,,,,,,,,,,,,,,,,,,,,,,,,,,,,,,,,,,,,70.0,70.0,133.0,57.0,57.0,133.0,2.1,2.12,-160,-277,0,-284,191,275,121.67043328285217,121.67056274414062,121.67360472679138,121.68941020965576,121.83104801177979,121.83104801177979,121.83104801177979,121.83104801177979,121.83104801177979,121.83104801177979,121.83104801177979,134.45454478263855,3,12.753847122192383,None,,,,,,,,,,,,,,,,,,206,1,2025-03-07_09h54.45.760,comp,2024.2.4,55.98997219392965,2025-03-07 09h54.56.295660 -0500,
3,3,0,critical,wdh,35.0,4.0,lower,57.0,133.0,70.0,70.0,133.0,57.0,1,7.354449272155762,None,,,,,0,0,0,0,0,3,3,76,134.47087502479553,,,,,,,,,,,,,,,,,,,,,,,,,,,,,,,,,,,,,,,,,,,,,,,,,,,,,,,,,,,,,,,,,,,,,,,,,,,,,,,,,57.0,133.0,70.0,70.0,133.0,57.0,4.0,4.1,-198,-264,0,-7,160,-284,134.45631766319275,134.45645403862,134.4599747657776,134.47087502479553,134.61864709854126,134.61864709854126,134.61864709854126,134.61864709854126,134.61864709854126,134.61864709854126,134.61864709854126,141.83043909072876,1,7.354449272155762,None,,,,,,,,,,,,,,,,,,206,1,2025-03-07_09h54.45.760,comp,2024.2.4,55.98997219392965,2025-03-07 09h54.56.295660 -0500,
4,4,0,critical,dwh,20.0,3.0,upper,141.0,141.0,125.0,200.0,200.0,125.0,2,10.050285577774048,None,,,,,0,0,0,0,0,4,4,69,141.84825539588928,,,,,,,,,,,,,,,,,,,,,,,,,,,,,,,,,,,,,,,,,,,,,,,,,,,,,,,,,,,,,,,,,,,,,,,,,,,,,,,,,141.0,141.0,125.0,200.0,200.0,125.0,3.0,3.2,-266,-272,0,-20,258,280,141.83205151557922,141.8321304321289,141.83511900901794,141.84825539588928,141.98997139930725,141.98997139930725,141.98997139930725,141.98997139930725,141.98997139930725,141.98997139930725,141.98997139930725,151.91090750694275,2,10.050285577774048,None,,,,,,,,,,,,,,,,,,206,1,2025-03-07_09h54.45.760,comp,2024.2.4,55.98997219392965,2025-03-07 09h54.56.295660 -0500,
5,5,0,critical,hdw,20.0,2.1,upper,200.0,125.0,141.0,141.0,125.0,200.0,1,6.15336537361145,None,,,,,0,0,0,0,0,5,5,47,151.92781925201416,,,,,,,,,,,,,,,,,,,,,,,,,,,,,,,,,,,,,,,,,,,,,,,,,,,,,,,,,,,,,,,,,,,,,,,,,,,,,,,,,200.0,125.0,141.0,141.0,125.0,200.0,2.1,2.12,-229,-262,0,-277,266,289,151.91260361671448,151.9126832485199,151.9166235923767,151.92781925201416,152.0744924545288,152.0744924545288,152.0744924545288,152.0744924545288,152.0744924545288,152.0744924545288,152.0744924545288,158.09186029434204,1,6.15336537361145,None,,,,,,,,,,,,,,,,,,206,1,2025-03-07_09h54.45.760,comp,2024.2.4,55.98997219392965,2025-03-07 09h54.56.295660 -0500,
6,6,0,filler_square,None,None,None,None,None,None,None,None,None,None,2,3.9003102779388428,None,,,,,0,0,0,0,0,6,6,192,158.1088216304779,,,,,,,,,,,,,,,,,,,,,,,,,,,,,,,,,,,,,,,,,,,,,,,,,,,,,,,,,,,,,,,,,,,,,,,,,,,,,,,,,120.3326025153934,131.4957785671591,154.1727457883835,154.1727457883835,115.3876427602035,115.06922290672742,2.1,2.12,-239,-252,0,-288,231,272,158.0936987400055,158.0937991142273,158.09698581695557,158.1088216304779,158.2464096546173,158.2464096546173,158.2464096546173,158.2464096546173,158.2464096546173,158.2464096546173,158.2464096546173,162.02721667289734,2,3.9003102779388428,None,,,,,,,,,,,,,,,,,,206,1,2025-03-07_09h54.45.760,comp,2024.2.4,55.98997219392965,2025-03-07 09h54.56.295660 -0500,
7,7,0,critical,dhw,20.0,3.0,lower,78.0,78.0,133.0,57.0,57.0,133.0,2,5.265849590301514,None,,,,,0,0,0,0,0,7,7,56,162.04730939865112,,,,,,,,,,,,,,,,,,,,,,,,,,,,,,,,,,,,,,,,,,,,,,,,,,,,,,,,,,,,,,,,,,,,,,,,,,,,,,,,,78.0,78.0,133.0,57.0,57.0,133.0,3.0,3.1,-164,269,0,-17,191,-276,162.0289511680603,162.02904558181763,162.03236484527588,162.04730939865112,162.1936776638031,162.1936776638031,162.1936776638031,162.1936776638031,162.1936776638031,162.1936776638031,162.1936776638031,167.3292953968048,2,5.265849590301514,None,,,,,,,,,,,,,,,,,,206,1,2025-03-07_09h54.45.760,comp,2024.2.4,55.98997219392965,2025-03-07 09h54.56.295660 -0500,
8,8,0,critical,wdh,35.0,3.0,upper,125.0,200.0,127.0,127.0,200.0,125.0,1,4.059951066970825,None,,,,,0,0,0,0,0,8,8,75,167.34935307502747,,,,,,,,,,,,,,,,,,,,,,,,,,,,,,,,,,,,,,,,,,,,,,,,,,,,,,,,,,,,,,,,,,,,,,,,,,,,,,,,,125.0,200.0,127.0,127.0,200.0,125.0,3.0,3.1,-260,286,0,11,222,-286,167.33085107803345,167.33092737197876,167.33406782150269,167.34935307502747,167.49609065055847,167.49609065055847,167.49609065055847,167.49609065055847,167.49609065055847,167.49609065055847,167.49609065055847,171.42823553085327,1,4.059951066970825,None,,,,,,,,,,,,,,,,,,206,1,2025-03-07_09h54.45.760,comp,2024.2.4,55.98997219392965,2025-03-07 09h54.56.295660 -0500,
9,9,0,critical,whd,20.0,3.0,upper,125.0,200.0,200.0,125.0,141.0,141.0,1,5.249666690826416,None,,,,,0,0,0,0,0,9,9,93,171.4481463432312,,,,,,,,,,,,,,,,,,,,,,,,,,,,,,,,,,,,,,,,,,,,,,,,,,,,,,,,,,,,,,,,,,,,,,,,,,,,,,,,,125.0,200.0,200.0,125.0,141.0,141.0,3.0,3.2,-258,-263,0,-9,229,279,171.42983174324036,171.4299075603485,171.43281364440918,171.4481463432312,171.5811882019043,171.5811882019043,171.5811882019043,171.5811882019043,171.5811882019043,171.5811882019043,171.5811882019043,176.7002215385437,1,5.249666690826416,None,,,,,,,,,,,,,,,,,,206,1,2025-03-07_09h54.45.760,comp,2024.2.4,55.98997219392965,2025-03-07 09h54.56.295660 -0500,
10,10,0,critical,whd,35.0,3.0,upper,125.0,200.0,200.0,125.0,127.0,127.0,1,4.228898763656616,None,,,,,0,0,0,0,0,10,10,87,176.71693396568298,,,,,,,,,,,,,,,,,,,,,,,,,,,,,,,,,,,,,,,,,,,,,,,,,,,,,,,,,,,,,,,,,,,,,,,,,,,,,,,,,125.0,200.0,200.0,125.0,127.0,127.0,3.0,3.1,-258,282,0,-8,222,-273,176.70191621780396,176.7020344734192,176.7055470943451,176.71693396568298,176.86649012565613,176.86649012565613,176.86649012565613,176.86649012565613,176.86649012565613,176.86649012565613,176.86649012565613,180.95524859428406,1,4.228898763656616,None,,,,,,,,,,,,,,,,,,206,1,2025-03-07_09h54.45.760,comp,2024.2.4,55.98997219392965,2025-03-07 09h54.56.295660 -0500,
11,11,0,filler_random,None,None,None,None,None,None,None,None,None,None,2,2.7846310138702393,None,,,,,0,0,0,0,0,11,11,150,180.97652292251587,,,,,,,,,,,,,,,,,,,,,,,,,,,,,,,,,,,,,,,,,,,,,,,,,,,,,,,,,,,,,,,,,,,,,,,,,,,,,,,,,120.26759732289351,144.30952415126563,153.6049416719252,159.06603811232335,58.90622850275223,66.2109985582523,2.1,2.12,-248,-263,0,-260,209,288,180.95719385147095,180.95727443695068,180.960551738739,180.97652292251587,181.11696910858154,181.11696910858154,181.11696910858154,181.11696910858154,181.11696910858154,181.11696910858154,181.11696910858154,183.77336049079895,2,2.7846310138702393,None,,,,,,,,,,,,,,,,,,206,1,2025-03-07_09h54.45.760,comp,2024.2.4,55.98997219392965,2025-03-07 09h54.56.295660 -0500,
12,12,0,critical,dwh,35.0,4.0,upper,127.0,127.0,125.0,200.0,200.0,125.0,2,2.6628994941711426,None,,,,,0,0,0,0,0,12,12,65,183.7942135334015,,,,,,,,,,,,,,,,,,,,,,,,,,,,,,,,,,,,,,,,,,,,,,,,,,,,,,,,,,,,,,,,,,,,,,,,,,,,,,,,,127.0,127.0,125.0,200.0,200.0,125.0,4.0,4.2,-260,7,0,-280,258,-2,183.77504229545593,183.7751760482788,183.77853322029114,183.7942135334015,183.9340500831604,183.9340500831604,183.9340500831604,183.9340500831604,183.9340500831604,183.9340500831604,183.9340500831604,186.46747088432312,2,2.6628994941711426,None,,,,,,,,,,,,,,,,,,206,1,2025-03-07_09h54.45.760,comp,2024.2.4,55.98997219392965,2025-03-07 09h54.56.295660 -0500,
13,13,0,filler_random,None,None,None,None,None,None,None,None,None,None,1,3.47469425201416,None,,,,,0,0,0,0,0,13,13,148,186.4869260787964,,,,,,,,,,,,,,,,,,,,,,,,,,,,,,,,,,,,,,,,,,,,,,,,,,,,,,,,,,,,,,,,,,,,,,,,,,,,,,,,,90.82432644155926,162.89114320926075,177.64615617771506,65.27783333328031,89.18210775463658,89.49468252836004,2.2,2.22,-210,269,0,-251,173,-253,186.4692885875702,186.46936988830566,186.47231650352478,186.4869260787964,186.63514351844788,186.63514351844788,186.63514351844788,186.63514351844788,186.63514351844788,186.63514351844788,186.63514351844788,189.96993827819824,1,3.47469425201416,None,,,,,,,,,,,,,,,,,,206,1,2025-03-07_09h54.45.760,comp,2024.2.4,55.98997219392965,2025-03-07 09h54.56.295660 -0500,
14,14,0,critical,wdh,20.0,2.1,lower,57.0,133.0,78.0,78.0,133.0,57.0,1,5.182279825210571,None,,,,,0,0,0,0,0,14,14,34,189.98748445510864,,,,,,,,,,,,,,,,,,,,,,,,,,,,,,,,,,,,,,,,,,,,,,,,,,,,,,,,,,,,,,,,,,,,,,,,,,,,,,,,,57.0,133.0,78.0,78.0,133.0,57.0,2.1,2.11,-202,272,0,260,164,-279,189.9714949131012,189.9715735912323,189.9758505821228,189.98748445510864,190.13418173789978,190.13418173789978,190.13418173789978,190.13418173789978,190.13418173789978,190.13418173789978,190.13418173789978,195.18855357170105,1,5.182279825210571,None,,,,,,,,,,,,,,,,,,206,1,2025-03-07_09h54.45.760,comp,2024.2.4,55.98997219392965,2025-03-07 09h54.56.295660 -0500,
15,15,0,filler_random,None,None,None,None,None,None,None,None,None,None,3,3.3006272315979004,None,,,,,0,0,0,0,0,15,15,153,195.20451974868774,,,,,,,,,,,,,,,,,,,,,,,,,,,,,,,,,,,,,,,,,,,,,,,,,,,,,,,,,,,,,,,,,,,,,,,,,,,,,,,,,69.78106431985057,93.15459399579501,149.5568948312366,157.89273170361156,161.99966664612734,178.08572732889283,3.0,3.1,-222,252,0,-4,264,-279,195.1905164718628,195.19061374664307,195.1940779685974,195.20451974868774,195.35380244255066,195.35380244255066,195.35380244255066,195.35380244255066,195.35380244255066,195.35380244255066,195.35380244255066,198.52235341072083,3,3.3006272315979004,None,,,,,,,,,,,,,,,,,,206,1,2025-03-07_09h54.45.760,comp,2024.2.4,55.98997219392965,2025-03-07 09h54.56.295660 -0500,
16,16,0,critical,dwh,35.0,2.1,upper,127.0,127.0,125.0,200.0,200.0,125.0,2,5.599447727203369,None,,,,,0,0,0,0,0,16,16,5,198.53775310516357,,,,,,,,,,,,,,,,,,,,,,,,,,,,,,,,,,,,,,,,,,,,,,,,,,,,,,,,,,,,,,,,,,,,,,,,,,,,,,,,,127.0,127.0,125.0,200.0,200.0,125.0,2.1,2.12,-260,-267,0,-282,258,263,198.5239269733429,198.5240080356598,198.52742648124695,198.53775310516357,198.68883323669434,198.68883323669434,198.68883323669434,198.68883323669434,198.68883323669434,198.68883323669434,198.68883323669434,204.14078855514526,2,5.599447727203369,None,,,,,,,,,,,,,,,,,,206,1,2025-03-07_09h54.45.760,comp,2024.2.4,55.98997219392965,2025-03-07 09h54.56.295660 -0500,
17,17,0,critical,dwh,20.0,1.0,lower,78.0,78.0,57.0,133.0,133.0,57.0,2,4.365316390991211,None,,,,,0,0,0,0,0,17,17,66,204.15669178962708,,,,,,,,,,,,,,,,,,,,,,,,,,,,,,,,,,,,,,,,,,,,,,,,,,,,,,,,,,,,,,,,,,,,,,,,,,,,,,,,,78.0,78.0,57.0,133.0,133.0,57.0,1.0,1.1,-682,252,-480,290,-289,253,204.14242696762085,204.14250826835632,204.14595675468445,204.15669178962708,204.31430864334106,204.31430864334106,204.31430864334106,204.31430864334106,204.31430864334106,204.31430864334106,204.31430864334106,208.52547574043274,2,4.365316390991211,None,,,,,,,,,,,,,,,,,,206,1,2025-03-07_09h54.45.760,comp,2024.2.4,55.98997219392965,2025-03-07 09h54.56.295660 -0500,
18,18,0,critical,dhw,35.0,2.1,upper,127.0,127.0,200.0,125.0,125.0,200.0,2,4.5493762493133545,None,,,,,0,0,0,0,0,18,18,25,208.54036450386047,,,,,,,,,,,,,,,,,,,,,,,,,,,,,,,,,,,,,,,,,,,,,,,,,,,,,,,,,,,,,,,,,,,,,,,,,,,,,,,,,127.0,127.0,200.0,125.0,125.0,200.0,2.1,2.11,-222,267,0,288,258,-256,208.52718210220337,208.52731609344482,208.53085088729858,208.54036450386047,208.69629430770874,208.69629430770874,208.69629430770874,208.69629430770874,208.69629430770874,208.69629430770874,208.69629430770874,213.0972602367401,2,4.5493762493133545,None,,,,,,,,,,,,,,,,,,206,1,2025-03-07_09h54.45.760,comp,2024.2.4,55.98997219392965,2025-03-07 09h54.56.295660 -0500,
19,19,0,catch,None,None,None,None,None,None,None,None,None,None,3,3.1259939670562744,None,,,,,0,0,0,0,0,19,19,123,213.11578822135925,,,,,,,,,,,,,,,,,,,,,,,,,,,,,,,,,,,,,,,,,,,,,,,,,,,,,,,,,,,,,,,,,,,,,,,,,,,,,,,,,87,103,75,115,139,186,2.1,2.12,-205,-254,0,-260,246,276,213.0993402004242,213.09942269325256,213.10262942314148,213.11578822135925,213.26018929481506,213.26018929481506,213.26018929481506,213.26018929481506,213.26018929481506,213.26018929481506,213.26018929481506,216.24401140213013,3,3.1259939670562744,None,,,,,,,,,,,,,,,,,,206,1,2025-03-07_09h54.45.760,comp,2024.2.4,55.98997219392965,2025-03-07 09h54.56.295660 -0500,
20,20,0,critical,wdh,20.0,3.0,lower,57.0,133.0,78.0,78.0,133.0,57.0,1,7.332823991775513,None,,,,,0,0,0,0,0,20,20,80,216.26114559173584,,,,,,,,,,,,,,,,,,,,,,,,,,,,,,,,,,,,,,,,,,,,,,,,,,,,,,,,,,,,,,,,,,,,,,,,,,,,,,,,,57.0,133.0,78.0,78.0,133.0,57.0,3.0,3.2,-202,-277,0,5,164,268,216.24560022354126,216.2457311153412,216.24917221069336,216.26114559173584,216.40710544586182,216.40710544586182,216.40710544586182,216.40710544586182,216.40710544586182,216.40710544586182,216.40710544586182,223.59938073158264,1,7.332823991775513,None,,,,,,,,,,,,,,,,,,206,1,2025-03-07_09h54.45.760,comp,2024.2.4,55.98997219392965,2025-03-07 09h54.56.295660 -0500,
21,21,0,filler_square,None,None,None,None,None,None,None,None,None,None,3,2.8808326721191406,None,,,,,0,0,0,0,0,21,21,185,223.6163113117218,,,,,,,,,,,,,,,,,,,,,,,,,,,,,,,,,,,,,,,,,,,,,,,,,,,,,,,,,,,,,,,,,,,,,,,,,,,,,,,,,79.44114757431984,65.45009681388666,179.58287302155435,83.9145586418722,193.66699806362584,193.66699806362584,2.2,2.22,-171,271,0,-250,235,-272,223.6015124320984,223.6015965938568,223.6054744720459,223.6163113117218,223.7635042667389,223.7635042667389,223.7635042667389,223.7635042667389,223.7635042667389,223.7635042667389,223.7635042667389,226.51403260231018,3,2.8808326721191406,None,,,,,,,,,,,,,,,,,,206,1,2025-03-07_09h54.45.760,comp,2024.2.4,55.98997219392965,2025-03-07 09h54.56.295660 -0500,
22,22,0,critical,hwd,35.0,1.0,upper,200.0,125.0,125.0,200.0,127.0,127.0,1,7.207382440567017,None,,,,,0,0,0,0,0,22,22,97,226.5300533771515,,,,,,,,,,,,,,,,,,,,,,,,,,,,,,,,,,,,,,,,,,,,,,,,,,,,,,,,,,,,,,,,,,,,,,,,,,,,,,,,,200.0,125.0,125.0,200.0,127.0,127.0,1.0,1.3,222,-271,480,-260,740,-260,226.51563024520874,226.51575326919556,226.51914381980896,226.5300533771515,226.68279933929443,226.68279933929443,226.68279933929443,226.68279933929443,226.68279933929443,226.68279933929443,226.68279933929443,233.74238324165344,1,7.207382440567017,None,,,,,,,,,,,,,,,,,,206,1,2025-03-07_09h54.45.760,comp,2024.2.4,55.98997219392965,2025-03-07 09h54.56.295660 -0500,
23,23,0,filler_square,None,None,None,None,None,None,None,None,None,None,1,2.4318017959594727,None,,,,,0,0,0,0,0,23,23,190,233.7621898651123,,,,,,,,,,,,,,,,,,,,,,,,,,,,,,,,,,,,,,,,,,,,,,,,,,,,,,,,,,,,,,,,,,,,,,,,,,,,,,,,,133.74213058821704,133.74213058821704,78.5712699021833,108.22660777519954,121.17071270924515,110.3153157267632,3.0,3.1,-217,284,0,-9,205,-267,233.74422979354858,233.74430966377258,233.74720096588135,233.7621898651123,233.89990043640137,233.89990043640137,233.89990043640137,233.89990043640137,233.89990043640137,233.89990043640137,233.89990043640137,236.1995837688446,1,2.4318017959594727,None,,,,,,,,,,,,,,,,,,206,1,2025-03-07_09h54.45.760,comp,2024.2.4,55.98997219392965,2025-03-07 09h54.56.295660 -0500,
24,24,0,filler_square,None,None,None,None,None,None,None,None,None,None,3,2.2643544673919678,None,,,,,0,0,0,0,0,24,24,202,236.21687293052673,,,,,,,,,,,,,,,,,,,,,,,,,,,,,,,,,,,,,,,,,,,,,,,,,,,,,,,,,,,,,,,,,,,,,,,,,,,,,,,,,103.9547682243425,57.78935008485859,59.57072990426966,117.98418811168196,120.65884628692201,120.65884628692201,4.0,4.2,-184,-20,0,-290,215,-18,236.20134782791138,236.2014284133911,236.20462155342102,236.21687293052673,236.3571171760559,236.3571171760559,236.3571171760559,236.3571171760559,236.3571171760559,236.3571171760559,236.3571171760559,238.49147772789001,3,2.2643544673919678,None,,,,,,,,,,,,,,,,,,206,1,2025-03-07_09h54.45.760,comp,2024.2.4,55.98997219392965,2025-03-07 09h54.56.295660 -0500,
25,25,0,critical,whd,20.0,1.0,lower,57.0,133.0,133.0,57.0,78.0,78.0,3,7.05426549911499,None,,,,,0,0,0,0,0,25,25,90,238.50777220726013,,,,,,,,,,,,,,,,,,,,,,,,,,,,,,,,,,,,,,,,,,,,,,,,,,,,,,,,,,,,,,,,,,,,,,,,,,,,,,,,,57.0,133.0,133.0,57.0,78.0,78.0,1.0,1.3,289,-261,480,-274,644,-253,238.49319005012512,238.49330377578735,238.4966471195221,238.50777220726013,238.65155410766602,238.65155410766602,238.65155410766602,238.65155410766602,238.65155410766602,238.65155410766602,238.65155410766602,245.5695037841797,3,7.05426549911499,None,,,,,,,,,,,,,,,,,,206,1,2025-03-07_09h54.45.760,comp,2024.2.4,55.98997219392965,2025-03-07 09h54.56.295660 -0500,
26,26,0,critical,whd,20.0,1.0,upper,125.0,200.0,200.0,125.0,141.0,141.0,1,2.531735897064209,None,,,,,0,0,0,0,0,26,26,91,245.58954644203186,,,,,,,,,,,,,,,,,,,,,,,,,,,,,,,,,,,,,,,,,,,,,,,,,,,,,,,,,,,,,,,,,,,,,,,,,,,,,,,,,125.0,200.0,200.0,125.0,141.0,141.0,1.0,1.3,222,-268,480,-286,709,-286,245.57110786437988,245.57118916511536,245.57432222366333,245.58954644203186,245.73681044578552,245.73681044578552,245.73681044578552,245.73681044578552,245.73681044578552,245.73681044578552,245.73681044578552,248.13631391525269,1,2.531735897064209,None,,,,,,,,,,,,,,,,,,206,1,2025-03-07_09h54.45.760,comp,2024.2.4,55.98997219392965,2025-03-07 09h54.56.295660 -0500,
27,27,0,critical,hwd,35.0,2.1,lower,133.0,57.0,57.0,133.0,70.0,70.0,1,5.4452362060546875,None,,,,,0,0,0,0,0,27,27,40,248.15625596046448,,,,,,,,,,,,,,,,,,,,,,,,,,,,,,,,,,,,,,,,,,,,,,,,,,,,,,,,,,,,,,,,,,,,,,,,,,,,,,,,,133.0,57.0,57.0,133.0,70.0,70.0,2.1,2.11,-191,251,0,255,198,-258,248.13803219795227,248.13813090324402,248.1414713859558,248.15625596046448,248.295636177063,248.295636177063,248.295636177063,248.295636177063,248.295636177063,248.295636177063,248.295636177063,253.6083164215088,1,5.4452362060546875,None,,,,,,,,,,,,,,,,,,206,1,2025-03-07_09h54.45.760,comp,2024.2.4,55.98997219392965,2025-03-07 09h54.56.295660 -0500,
28,28,0,critical,wdh,20.0,2.1,upper,125.0,200.0,141.0,141.0,200.0,125.0,1,3.179729461669922,None,,,,,0,0,0,0,0,28,28,35,253.62949395179749,,,,,,,,,,,,,,,,,,,,,,,,,,,,,,,,,,,,,,,,,,,,,,,,,,,,,,,,,,,,,,,,,,,,,,,,,,,,,,,,,125.0,200.0,141.0,141.0,200.0,125.0,2.1,2.12,-266,-277,0,-280,229,285,253.6101152896881,253.6102159023285,253.61356925964355,253.62949395179749,253.7739701271057,253.7739701271057,253.7739701271057,253.7739701271057,253.7739701271057,253.7739701271057,253.7739701271057,256.82561683654785,1,3.179729461669922,None,,,,,,,,,,,,,,,,,,206,1,2025-03-07_09h54.45.760,comp,2024.2.4,55.98997219392965,2025-03-07 09h54.56.295660 -0500,
29,29,0,filler_square,None,None,None,None,None,None,None,None,None,None,2,4.383936166763306,None,,,,,0,0,0,0,0,29,29,175,256.8413360118866,,,,,,,,,,,,,,,,,,,,,,,,,,,,,,,,,,,,,,,,,,,,,,,,,,,,,,,,,,,,,,,,,,,,,,,,,,,,,,,,,69.45713763882415,78.24953015210932,81.02357017575665,81.02357017575665,78.33367321304648,57.67300880768047,2.1,2.12,-176,-289,0,-263,165,257,256.82759070396423,256.82767128944397,256.83079719543457,256.8413360118866,256.99052453041077,256.99052453041077,256.99052453041077,256.99052453041077,256.99052453041077,256.99052453041077,256.99052453041077,261.241996049881,2,4.383936166763306,None,,,,,,,,,,,,,,,,,,206,1,2025-03-07_09h54.45.760,comp,2024.2.4,55.98997219392965,2025-03-07 09h54.56.295660 -0500,
30,30,0,critical,dwh,35.0,2.1,lower,70.0,70.0,57.0,133.0,133.0,57.0,2,5.855432748794556,None,,,,,0,0,0,0,0,30,30,28,261.25779962539673,,,,,,,,,,,,,,,,,,,,,,,,,,,,,,,,,,,,,,,,,,,,,,,,,,,,,,,,,,,,,,,,,,,,,,,,,,,,,,,,,70.0,70.0,57.0,133.0,133.0,57.0,2.1,2.11,-198,266,0,269,191,-288,261.24377155303955,261.24390721321106,261.247442483902,261.25779962539673,261.41484475135803,261.41484475135803,261.41484475135803,261.41484475135803,261.41484475135803,261.41484475135803,261.41484475135803,267.13261556625366,2,5.855432748794556,None,,,,,,,,,,,,,,,,,,206,1,2025-03-07_09h54.45.760,comp,2024.2.4,55.98997219392965,2025-03-07 09h54.56.295660 -0500,
31,31,0,filler_random,None,None,None,None,None,None,None,None,None,None,2,3.0442304611206055,None,,,,,0,0,0,0,0,31,31,162,267.15005469322205,,,,,,,,,,,,,,,,,,,,,,,,,,,,,,,,,,,,,,,,,,,,,,,,,,,,,,,,,,,,,,,,,,,,,,,,,,,,,,,,,84.10208201761534,61.04743306941333,91.8325763630615,117.52484710218954,64.29268732542164,66.04220510327208,2.1,2.11,-185,284,0,271,188,-268,267.134379863739,267.1344578266144,267.13734245300293,267.15005469322205,267.29462695121765,267.29462695121765,267.29462695121765,267.29462695121765,267.29462695121765,267.29462695121765,267.29462695121765,270.1996853351593,2,3.0442304611206055,None,,,,,,,,,,,,,,,,,,206,1,2025-03-07_09h54.45.760,comp,2024.2.4,55.98997219392965,2025-03-07 09h54.56.295660 -0500,
32,32,0,critical,wdh,20.0,3.0,upper,125.0,200.0,141.0,141.0,200.0,125.0,1,4.2329912185668945,None,,,,,0,0,0,0,0,32,32,81,270.2165193557739,,,,,,,,,,,,,,,,,,,,,,,,,,,,,,,,,,,,,,,,,,,,,,,,,,,,,,,,,,,,,,,,,,,,,,,,,,,,,,,,,125.0,200.0,141.0,141.0,200.0,125.0,3.0,3.2,-266,-279,0,18,229,259,270.2012777328491,270.2013580799103,270.20474004745483,270.2165193557739,270.3619861602783,270.3619861602783,270.3619861602783,270.3619861602783,270.3619861602783,270.3619861602783,270.3619861602783,274.4626958370209,1,4.2329912185668945,None,,,,,,,,,,,,,,,,,,206,1,2025-03-07_09h54.45.760,comp,2024.2.4,55.98997219392965,2025-03-07 09h54.56.295660 -0500,
33,33,0,critical,dwh,20.0,1.0,upper,141.0,141.0,125.0,200.0,200.0,125.0,2,7.658627510070801,None,,,,,0,0,0,0,0,33,33,67,274.47873187065125,,,,,,,,,,,,,,,,,,,,,,,,,,,,,,,,,,,,,,,,,,,,,,,,,,,,,,,,,,,,,,,,,,,,,,,,,,,,,,,,,141.0,141.0,125.0,200.0,200.0,125.0,1.0,1.3,214,-258,480,-290,738,-284,274.4643850326538,274.46447587013245,274.46812987327576,274.47873187065125,274.62824296951294,274.62824296951294,274.62824296951294,274.62824296951294,274.62824296951294,274.62824296951294,274.62824296951294,282.1483864784241,2,7.658627510070801,None,,,,,,,,,,,,,,,,,,206,1,2025-03-07_09h54.45.760,comp,2024.2.4,55.98997219392965,2025-03-07 09h54.56.295660 -0500,
34,34,0,filler_square,None,None,None,None,None,None,None,None,None,None,3,6.261038541793823,None,,,,,0,0,0,0,0,34,34,183,282.16549134254456,,,,,,,,,,,,,,,,,,,,,,,,,,,,,,,,,,,,,,,,,,,,,,,,,,,,,,,,,,,,,,,,,,,,,,,,,,,,,,,,,57.11809675742704,57.6318320852193,58.7623950967007,58.7623950967007,58.16261893451817,58.07302833754104,2.1,2.12,-154,-256,0,-266,154,285,282.1503436565399,282.15042662620544,282.1538519859314,282.16549134254456,282.3144631385803,282.3144631385803,282.3144631385803,282.3144631385803,282.3144631385803,282.3144631385803,282.3144631385803,288.43417954444885,3,6.261038541793823,None,,,,,,,,,,,,,,,,,,206,1,2025-03-07_09h54.45.760,comp,2024.2.4,55.98997219392965,2025-03-07 09h54.56.295660 -0500,
35,35,0,critical,wdh,35.0,2.1,upper,125.0,200.0,127.0,127.0,200.0,125.0,3,2.7920539379119873,None,,,,,0,0,0,0,0,35,35,33,288.45024824142456,,,,,,,,,,,,,,,,,,,,,,,,,,,,,,,,,,,,,,,,,,,,,,,,,,,,,,,,,,,,,,,,,,,,,,,,,,,,,,,,,125.0,200.0,127.0,127.0,200.0,125.0,2.1,2.12,-260,-285,0,-281,222,284,288.43586564064026,288.43594574928284,288.43940234184265,288.45024824142456,288.6022262573242,288.6022262573242,288.6022262573242,288.6022262573242,288.6022262573242,288.6022262573242,288.6022262573242,291.25243067741394,3,2.7920539379119873,None,,,,,,,,,,,,,,,,,,206,1,2025-03-07_09h54.45.760,comp,2024.2.4,55.98997219392965,2025-03-07 09h54.56.295660 -0500,
36,36,0,filler_random,None,None,None,None,None,None,None,None,None,None,2,5.9251885414123535,None,,,,,0,0,0,0,0,36,36,146,291.2684152126312,,,,,,,,,,,,,,,,,,,,,,,,,,,,,,,,,,,,,,,,,,,,,,,,,,,,,,,,,,,,,,,,,,,,,,,,,,,,,,,,,121.58294285396666,107.07448805764216,188.21655177731918,90.06035430610487,90.71464991235445,125.21231654529525,4.0,4.2,-195,2,0,-264,204,-13,291.2541289329529,291.25420665740967,291.25764513015747,291.2684152126312,291.41592931747437,291.41592931747437,291.41592931747437,291.41592931747437,291.41592931747437,291.41592931747437,291.41592931747437,297.20453429222107,2,5.9251885414123535,None,,,,,,,,,,,,,,,,,,206,1,2025-03-07_09h54.45.760,comp,2024.2.4,55.98997219392965,2025-03-07 09h54.56.295660 -0500,
37,37,0,filler_square,None,None,None,None,None,None,None,None,None,None,2,3.2042930126190186,None,,,,,0,0,0,0,0,37,37,206,297.2214267253876,,,,,,,,,,,,,,,,,,,,,,,,,,,,,,,,,,,,,,,,,,,,,,,,,,,,,,,,,,,,,,,,,,,,,,,,,,,,,,,,,69.01702007290208,59.22436899384754,129.82900974048613,129.82900974048613,64.7623504742069,102.19570477931205,1.0,1.2,-191,3,0,16,212,20,297.2064425945282,297.2065815925598,297.21036314964294,297.2214267253876,297.3629412651062,297.3629412651062,297.3629412651062,297.3629412651062,297.3629412651062,297.3629412651062,297.3629412651062,300.4433708190918,2,3.2042930126190186,None,,,,,,,,,,,,,,,,,,206,1,2025-03-07_09h54.45.760,comp,2024.2.4,55.98997219392965,2025-03-07 09h54.56.295660 -0500,
38,38,0,filler_random,None,None,None,None,None,None,None,None,None,None,2,7.2932798862457275,None,,,,,0,0,0,0,0,38,38,137,300.4608540534973,,,,,,,,,,,,,,,,,,,,,,,,,,,,,,,,,,,,,,,,,,,,,,,,,,,,,,,,,,,,,,,,,,,,,,,,,,,,,,,,,179.28509398844574,67.45705875645596,108.12853520850587,162.0665781853082,166.15513047411588,99.49745826591978,1.0,1.3,269,-253,480,-272,707,-284,300.44511437416077,300.44519233703613,300.4481146335602,300.4608540534973,300.6068227291107,300.6068227291107,300.6068227291107,300.6068227291107,300.6068227291107,300.6068227291107,300.6068227291107,307.76211953163147,2,7.2932798862457275,None,,,,,,,,,,,,,,,,,,206,1,2025-03-07_09h54.45.760,comp,2024.2.4,55.98997219392965,2025-03-07 09h54.56.295660 -0500,
39,39,0,filler_square,None,None,None,None,None,None,None,None,None,None,3,1.894644021987915,None,,,,,0,0,0,0,0,39,39,181,307.77858877182007,,,,,,,,,,,,,,,,,,,,,,,,,,,,,,,,,,,,,,,,,,,,,,,,,,,,,,,,,,,,,,,,,,,,,,,,,,,,,,,,,83.47756942917442,98.85604362281953,96.28771142536021,89.43448913019381,128.24511262776434,128.24511262776434,2.2,2.22,-190,282,0,-254,205,-282,307.76398611068726,307.7640678882599,307.76693892478943,307.77858877182007,307.9206573963165,307.9206573963165,307.9206573963165,307.9206573963165,307.9206573963165,307.9206573963165,307.9206573963165,309.6938397884369,3,1.894644021987915,None,,,,,,,,,,,,,,,,,,206,1,2025-03-07_09h54.45.760,comp,2024.2.4,55.98997219392965,2025-03-07 09h54.56.295660 -0500,
40,40,0,critical,dhw,35.0,4.0,lower,70.0,70.0,133.0,57.0,57.0,133.0,3,8.121772289276123,None,,,,,0,0,0,0,0,40,40,52,309.71148109436035,,,,,,,,,,,,,,,,,,,,,,,,,,,,,,,,,,,,,,,,,,,,,,,,,,,,,,,,,,,,,,,,,,,,,,,,,,,,,,,,,70.0,70.0,133.0,57.0,57.0,133.0,4.0,4.1,-160,-289,0,10,191,-280,309.69541668891907,309.6954982280731,309.69867634773254,309.71148109436035,309.857191324234,309.857191324234,309.857191324234,309.857191324234,309.857191324234,309.857191324234,309.857191324234,317.8445234298706,3,8.121772289276123,None,,,,,,,,,,,,,,,,,,206,1,2025-03-07_09h54.45.760,comp,2024.2.4,55.98997219392965,2025-03-07 09h54.56.295660 -0500,
41,41,0,critical,whd,35.0,1.0,upper,125.0,200.0,200.0,125.0,127.0,127.0,1,6.709259986877441,None,,,,,0,0,0,0,0,41,41,85,317.86080145835876,,,,,,,,,,,,,,,,,,,,,,,,,,,,,,,,,,,,,,,,,,,,,,,,,,,,,,,,,,,,,,,,,,,,,,,,,,,,,,,,,125.0,200.0,200.0,125.0,127.0,127.0,1.0,1.3,222,-285,480,-275,702,-281,317.8461766242981,317.8462951183319,317.8498501777649,317.86080145835876,318.0134403705597,318.0134403705597,318.0134403705597,318.0134403705597,318.0134403705597,318.0134403705597,318.0134403705597,324.57602524757385,1,6.709259986877441,None,,,,,,,,,,,,,,,,,,206,1,2025-03-07_09h54.45.760,comp,2024.2.4,55.98997219392965,2025-03-07 09h54.56.295660 -0500,
42,42,0,filler_random,None,None,None,None,None,None,None,None,None,None,2,2.3283896446228027,None,,,,,0,0,0,0,0,42,42,166,324.59284019470215,,,,,,,,,,,,,,,,,,,,,,,,,,,,,,,,,,,,,,,,,,,,,,,,,,,,,,,,,,,,,,,,,,,,,,,,,,,,,,,,,63.797735290680876,178.77986023546995,171.25607722873076,131.8016962767462,93.30879160207382,58.70698496407239,2.2,2.22,-251,260,0,-280,191,-281,324.5776557922363,324.57775926589966,324.58062291145325,324.59284019470215,324.7281837463379,324.7281837463379,324.7281837463379,324.7281837463379,324.7281837463379,324.7281837463379,324.7281837463379,326.934543132782,2,2.3283896446228027,None,,,,,,,,,,,,,,,,,,206,1,2025-03-07_09h54.45.760,comp,2024.2.4,55.98997219392965,2025-03-07 09h54.56.295660 -0500,
43,43,0,critical,hdw,20.0,2.1,upper,200.0,125.0,141.0,141.0,125.0,200.0,3,4.406097650527954,None,,,,,0,0,0,0,0,43,43,23,326.95546102523804,,,,,,,,,,,,,,,,,,,,,,,,,,,,,,,,,,,,,,,,,,,,,,,,,,,,,,,,,,,,,,,,,,,,,,,,,,,,,,,,,200.0,125.0,141.0,141.0,125.0,200.0,2.1,2.11,-229,261,0,259,266,-289,326.9361684322357,326.93627548217773,326.9395797252655,326.95546102523804,327.0968163013458,327.0968163013458,327.0968163013458,327.0968163013458,327.0968163013458,327.0968163013458,327.0968163013458,331.3635036945343,3,4.406097650527954,None,,,,,,,,,,,,,,,,,,206,1,2025-03-07_09h54.45.760,comp,2024.2.4,55.98997219392965,2025-03-07 09h54.56.295660 -0500,
44,44,0,critical,wdh,35.0,3.0,lower,57.0,133.0,70.0,70.0,133.0,57.0,3,3.6296074390411377,None,,,,,0,0,0,0,0,44,44,74,331.38018226623535,,,,,,,,,,,,,,,,,,,,,,,,,,,,,,,,,,,,,,,,,,,,,,,,,,,,,,,,,,,,,,,,,,,,,,,,,,,,,,,,,57.0,133.0,70.0,70.0,133.0,57.0,3.0,3.2,-198,-263,0,-15,160,257,331.3650872707367,331.3651704788208,331.3684241771698,331.38018226623535,331.52978920936584,331.52978920936584,331.52978920936584,331.52978920936584,331.52978920936584,331.52978920936584,331.52978920936584,335.0142092704773,3,3.6296074390411377,None,,,,,,,,,,,,,,,,,,206,1,2025-03-07_09h54.45.760,comp,2024.2.4,55.98997219392965,2025-03-07 09h54.56.295660 -0500,
45,45,0,critical,dwh,20.0,2.1,upper,141.0,141.0,125.0,200.0,200.0,125.0,2,3.623443365097046,None,,,,,0,0,0,0,0,45,45,7,335.03477144241333,,,,,,,,,,,,,,,,,,,,,,,,,,,,,,,,,,,,,,,,,,,,,,,,,,,,,,,,,,,,,,,,,,,,,,,,,,,,,,,,,141.0,141.0,125.0,200.0,200.0,125.0,2.1,2.12,-266,-286,0,-267,258,262,335.01575756073,335.01583886146545,335.01899814605713,335.03477144241333,335.18205738067627,335.18205738067627,335.18205738067627,335.18205738067627,335.18205738067627,335.18205738067627,335.18205738067627,338.66321659088135,2,3.623443365097046,None,,,,,,,,,,,,,,,,,,206,1,2025-03-07_09h54.45.760,comp,2024.2.4,55.98997219392965,2025-03-07 09h54.56.295660 -0500,
46,46,0,filler_square,None,None,None,None,None,None,None,None,None,None,1,9.55315375328064,None,,,,,0,0,0,0,0,46,46,184,338.6801862716675,,,,,,,,,,,,,,,,,,,,,,,,,,,,,,,,,,,,,,,,,,,,,,,,,,,,,,,,,,,,,,,,,,,,,,,,,,,,,,,,,112.82314972271625,112.06427033353451,114.295920327116,114.295920327116,92.73568016787257,79.4900628464069,2.1,2.12,-209,-278,0,-265,193,271,338.66507172584534,338.6651518344879,338.66806507110596,338.6801862716675,338.83498525619507,338.83498525619507,338.83498525619507,338.83498525619507,338.83498525619507,338.83498525619507,338.83498525619507,348.2375111579895,1,9.55315375328064,None,,,,,,,,,,,,,,,,,,206,1,2025-03-07_09h54.45.760,comp,2024.2.4,55.98997219392965,2025-03-07 09h54.56.295660 -0500,
47,47,0,filler_square,None,None,None,None,None,None,None,None,None,None,2,2.292038679122925,None,,,,,0,0,0,0,0,47,47,176,348.2541003227234,,,,,,,,,,,,,,,,,,,,,,,,,,,,,,,,,,,,,,,,,,,,,,,,,,,,,,,,,,,,,,,,,,,,,,,,,,,,,,,,,59.682953078661015,59.60432510538609,93.47562167672385,93.47562167672385,85.48596789103685,64.07969641490057,2.1,2.11,-173,268,0,266,175,-255,348.2393720149994,348.2394485473633,348.2429783344269,348.2541003227234,348.40310311317444,348.40310311317444,348.40310311317444,348.40310311317444,348.40310311317444,348.40310311317444,348.40310311317444,350.55352687835693,2,2.292038679122925,None,,,,,,,,,,,,,,,,,,206,1,2025-03-07_09h54.45.760,comp,2024.2.4,55.98997219392965,2025-03-07 09h54.56.295660 -0500,
48,48,0,critical,dhw,35.0,2.1,upper,127.0,127.0,200.0,125.0,125.0,200.0,3,4.321561336517334,None,,,,,0,0,0,0,0,48,48,1,350.56869316101074,,,,,,,,,,,,,,,,,,,,,,,,,,,,,,,,,,,,,,,,,,,,,,,,,,,,,,,,,,,,,,,,,,,,,,,,,,,,,,,,,127.0,127.0,200.0,125.0,125.0,200.0,2.1,2.11,-222,283,0,256,258,-278,350.5551872253418,350.5553116798401,350.55873370170593,350.56869316101074,350.71890902519226,350.71890902519226,350.71890902519226,350.71890902519226,350.71890902519226,350.71890902519226,350.71890902519226,354.89852833747864,3,4.321561336517334,None,,,,,,,,,,,,,,,,,,206,1,2025-03-07_09h54.45.760,comp,2024.2.4,55.98997219392965,2025-03-07 09h54.56.295660 -0500,
49,49,0,critical,hwd,20.0,2.1,lower,133.0,57.0,57.0,133.0,78.0,78.0,2,6.368969678878784,None,,,,,0,0,0,0,0,49,49,18,354.9140577316284,,,,,,,,,,,,,,,,,,,,,,,,,,,,,,,,,,,,,,,,,,,,,,,,,,,,,,,,,,,,,,,,,,,,,,,,,,,,,,,,,133.0,57.0,57.0,133.0,78.0,78.0,2.1,2.11,-191,265,0,272,202,-286,354.9000382423401,354.90011835098267,354.9030520915985,354.9140577316284,355.05545258522034,355.05545258522034,355.05545258522034,355.05545258522034,355.05545258522034,355.05545258522034,355.05545258522034,361.28917360305786,2,6.368969678878784,None,,,,,,,,,,,,,,,,,,206,1,2025-03-07_09h54.45.760,comp,2024.2.4,55.98997219392965,2025-03-07 09h54.56.295660 -0500,
50,50,0,filler_random,None,None,None,None,None,None,None,None,None,None,3,3.4830026626586914,None,,,,,0,0,0,0,0,50,50,135,361.310298204422,,,,,,,,,,,,,,,,,,,,,,,,,,,,,,,,,,,,,,,,,,,,,,,,,,,,,,,,,,,,,,,,,,,,,,,,,,,,,,,,,108.43234238546142,114.80501901827805,105.43083290814911,143.28208608679063,188.22092709494308,113.66192791952446,4.0,4.2,-225,11,0,-259,224,12,361.2910330295563,361.29112577438354,361.29436445236206,361.310298204422,361.4564371109009,361.4564371109009,361.4564371109009,361.4564371109009,361.4564371109009,361.4564371109009,361.4564371109009,364.810928106308,3,3.4830026626586914,None,,,,,,,,,,,,,,,,,,206,1,2025-03-07_09h54.45.760,comp,2024.2.4,55.98997219392965,2025-03-07 09h54.56.295660 -0500,
51,51,0,filler_square,None,None,None,None,None,None,None,None,None,None,1,2.0517466068267822,None,,,,,0,0,0,0,0,51,51,182,364.8303906917572,,,,,,,,,,,,,,,,,,,,,,,,,,,,,,,,,,,,,,,,,,,,,,,,,,,,,,,,,,,,,,,,,,,,,,,,,,,,,,,,,141.90922042823104,141.90922042823104,74.37403332170938,128.74632211524147,137.1912461665554,120.61902443080137,4.0,4.2,-231,-17,0,-283,221,-20,364.81316614151,364.8132483959198,364.81658387184143,364.8303906917572,364.97514390945435,364.97514390945435,364.97514390945435,364.97514390945435,364.97514390945435,364.97514390945435,364.97514390945435,366.8930368423462,1,2.0517466068267822,None,,,,,,,,,,,,,,,,,,206,1,2025-03-07_09h54.45.760,comp,2024.2.4,55.98997219392965,2025-03-07 09h54.56.295660 -0500,
52,52,0,filler_square,None,None,None,None,None,None,None,None,None,None,3,1.9169111251831055,None,,,,,0,0,0,0,0,52,52,207,366.9091532230377,,,,,,,,,,,,,,,,,,,,,,,,,,,,,,,,,,,,,,,,,,,,,,,,,,,,,,,,,,,,,,,,,,,,,,,,,,,,,,,,,76.37595323085046,103.3531235537435,91.83057719358573,82.52898354242177,126.75775068965568,126.75775068965568,2.1,2.11,-189,271,0,255,201,-283,366.8949599266052,366.8950617313385,366.8983383178711,366.9091532230377,367.058228969574,367.058228969574,367.058228969574,367.058228969574,367.058228969574,367.058228969574,367.058228969574,368.83312487602234,3,1.9169111251831055,None,,,,,,,,,,,,,,,,,,206,1,2025-03-07_09h54.45.760,comp,2024.2.4,55.98997219392965,2025-03-07 09h54.56.295660 -0500,
53,53,0,critical,dhw,35.0,1.0,lower,70.0,70.0,133.0,57.0,57.0,133.0,3,4.47637414932251,None,,,,,0,0,0,0,0,53,53,48,368.853013753891,,,,,,,,,,,,,,,,,,,,,,,,,,,,,,,,,,,,,,,,,,,,,,,,,,,,,,,,,,,,,,,,,,,,,,,,,,,,,,,,,70.0,70.0,133.0,57.0,57.0,133.0,1.0,1.2,-160,8,0,-14,191,-10,368.83458733558655,368.8346657752991,368.83756470680237,368.853013753891,368.99582076072693,368.99582076072693,368.99582076072693,368.99582076072693,368.99582076072693,368.99582076072693,368.99582076072693,373.34435749053955,3,4.47637414932251,None,,,,,,,,,,,,,,,,,,206,1,2025-03-07_09h54.45.760,comp,2024.2.4,55.98997219392965,2025-03-07 09h54.56.295660 -0500,
54,54,0,filler_square,None,None,None,None,None,None,None,None,None,None,2,1.7524993419647217,None,,,,,0,0,0,0,0,54,54,193,373.36080145835876,,,,,,,,,,,,,,,,,,,,,,,,,,,,,,,,,,,,,,,,,,,,,,,,,,,,,,,,,,,,,,,,,,,,,,,,,,,,,,,,,95.92031160809603,90.54054164936312,155.39974498898275,155.39974498898275,138.74515223859146,154.84828250311554,2.2,2.21,-219,-255,0,261,251,256,373.3461878299713,373.34626507759094,373.3505072593689,373.36080145835876,373.5085656642914,373.5085656642914,373.5085656642914,373.5085656642914,373.5085656642914,373.5085656642914,373.5085656642914,375.12733483314514,2,1.7524993419647217,None,,,,,,,,,,,,,,,,,,206,1,2025-03-07_09h54.45.760,comp,2024.2.4,55.98997219392965,2025-03-07 09h54.56.295660 -0500,
55,55,0,critical,whd,35.0,2.1,upper,125.0,200.0,200.0,125.0,127.0,127.0,1,3.6334869861602783,None,,,,,0,0,0,0,0,55,55,37,375.14402890205383,,,,,,,,,,,,,,,,,,,,,,,,,,,,,,,,,,,,,,,,,,,,,,,,,,,,,,,,,,,,,,,,,,,,,,,,,,,,,,,,,125.0,200.0,200.0,125.0,127.0,127.0,2.1,2.12,-258,-289,0,-278,222,283,375.12904357910156,375.1291582584381,375.13282537460327,375.14402890205383,375.2941346168518,375.2941346168518,375.2941346168518,375.2941346168518,375.2941346168518,375.2941346168518,375.2941346168518,378.7954044342041,1,3.6334869861602783,None,,,,,,,,,,,,,,,,,,206,1,2025-03-07_09h54.45.760,comp,2024.2.4,55.98997219392965,2025-03-07 09h54.56.295660 -0500,
56,56,0,critical,hwd,20.0,4.0,upper,200.0,125.0,125.0,200.0,141.0,141.0,1,2.6629931926727295,None,,,,,0,0,0,0,0,56,56,107,378.81107807159424,,,,,,,,,,,,,,,,,,,,,,,,,,,,,,,,,,,,,,,,,,,,,,,,,,,,,,,,,,,,,,,,,,,,,,,,,,,,,,,,,200.0,125.0,125.0,200.0,141.0,141.0,4.0,4.1,-258,-268,0,-10,266,-253,378.7971119880676,378.79719614982605,378.8006823062897,378.81107807159424,378.9611268043518,378.9611268043518,378.9611268043518,378.9611268043518,378.9611268043518,378.9611268043518,378.9611268043518,381.4798882007599,1,2.6629931926727295,None,,,,,,,,,,,,,,,,,,206,1,2025-03-07_09h54.45.760,comp,2024.2.4,55.98997219392965,2025-03-07 09h54.56.295660 -0500,
57,57,0,catch,None,None,None,None,None,None,None,None,None,None,3,1.7783427238464355,None,,,,,0,0,0,0,0,57,57,125,381.4959304332733,,,,,,,,,,,,,,,,,,,,,,,,,,,,,,,,,,,,,,,,,,,,,,,,,,,,,,,,,,,,,,,,,,,,,,,,,,,,,,,,,76,114,94,96,193,132,1.0,1.3,279,-272,480,-265,690,-278,381.48184299468994,381.4819233417511,381.48506212234497,381.4959304332733,381.64483857154846,381.64483857154846,381.64483857154846,381.64483857154846,381.64483857154846,381.64483857154846,381.64483857154846,383.2808692455292,3,1.7783427238464355,None,,,,,,,,,,,,,,,,,,206,1,2025-03-07_09h54.45.760,comp,2024.2.4,55.98997219392965,2025-03-07 09h54.56.295660 -0500,
58,58,0,filler_random,None,None,None,None,None,None,None,None,None,None,3,2.7727084159851074,None,,,,,0,0,0,0,0,58,58,132,383.30134677886963,,,,,,,,,,,,,,,,,,,,,,,,,,,,,,,,,,,,,,,,,,,,,,,,,,,,,,,,,,,,,,,,,,,,,,,,,,,,,,,,,116.64491901983882,115.41061371442827,145.68475547157678,86.50823739855355,108.81903514728864,178.9584907449021,2.1,2.12,-197,-251,0,-281,229,262,383.28261280059814,383.28276896476746,383.2863337993622,383.30134677886963,383.45091915130615,383.45091915130615,383.45091915130615,383.45091915130615,383.45091915130615,383.45091915130615,383.45091915130615,386.08334159851074,3,2.7727084159851074,None,,,,,,,,,,,,,,,,,,206,1,2025-03-07_09h54.45.760,comp,2024.2.4,55.98997219392965,2025-03-07 09h54.56.295660 -0500,
59,59,0,filler_square,None,None,None,None,None,None,None,None,None,None,3,2.933445930480957,None,,,,,0,0,0,0,0,59,59,191,386.10003209114075,,,,,,,,,,,,,,,,,,,,,,,,,,,,,,,,,,,,,,,,,,,,,,,,,,,,,,,,,,,,,,,,,,,,,,,,,,,,,,,,,76.00792212456653,72.91663917578639,59.16175964556619,72.91357027758615,76.24293075063463,76.24293075063463,1.0,1.1,-649,267,-480,284,-309,261,386.08548855781555,386.085572719574,386.089147567749,386.10003209114075,386.24437499046326,386.24437499046326,386.24437499046326,386.24437499046326,386.24437499046326,386.24437499046326,386.24437499046326,389.04995560646057,3,2.933445930480957,None,,,,,,,,,,,,,,,,,,206,1,2025-03-07_09h54.45.760,comp,2024.2.4,55.98997219392965,2025-03-07 09h54.56.295660 -0500,
60,60,0,filler_square,None,None,None,None,None,None,None,None,None,None,3,1.9511518478393555,None,,,,,0,0,0,0,0,60,60,200,389.0663044452667,,,,,,,,,,,,,,,,,,,,,,,,,,,,,,,,,,,,,,,,,,,,,,,,,,,,,,,,,,,,,,,,,,,,,,,,,,,,,,,,,93.99859109825618,72.90072760914175,80.78274875929054,93.59610227132237,133.12342073796572,133.12342073796572,2.2,2.22,-179,256,0,-266,209,-266,389.05188822746277,389.0520179271698,389.05597710609436,389.0663044452667,389.2146706581116,389.2146706581116,389.2146706581116,389.2146706581116,389.2146706581116,389.2146706581116,389.2146706581116,391.0327572822571,3,1.9511518478393555,None,,,,,,,,,,,,,,,,,,206,1,2025-03-07_09h54.45.760,comp,2024.2.4,55.98997219392965,2025-03-07 09h54.56.295660 -0500,
61,61,0,critical,dwh,35.0,2.1,lower,70.0,70.0,57.0,133.0,133.0,57.0,3,4.345308542251587,None,,,,,0,0,0,0,0,61,61,4,391.04880380630493,,,,,,,,,,,,,,,,,,,,,,,,,,,,,,,,,,,,,,,,,,,,,,,,,,,,,,,,,,,,,,,,,,,,,,,,,,,,,,,,,70.0,70.0,57.0,133.0,133.0,57.0,2.1,2.12,-198,-276,0,-253,191,255,391.03431701660156,391.03439474105835,391.0384922027588,391.04880380630493,391.2010235786438,391.2010235786438,391.2010235786438,391.2010235786438,391.2010235786438,391.2010235786438,391.2010235786438,395.40125799179077,3,4.345308542251587,None,,,,,,,,,,,,,,,,,,206,1,2025-03-07_09h54.45.760,comp,2024.2.4,55.98997219392965,2025-03-07 09h54.56.295660 -0500,
62,62,0,critical,hwd,20.0,1.0,lower,133.0,57.0,57.0,133.0,78.0,78.0,2,4.634225845336914,None,,,,,0,0,0,0,0,62,62,102,395.4232563972473,,,,,,,,,,,,,,,,,,,,,,,,,,,,,,,,,,,,,,,,,,,,,,,,,,,,,,,,,,,,,,,,,,,,,,,,,,,,,,,,,133.0,57.0,57.0,133.0,78.0,78.0,1.0,1.1,-671,283,-480,272,-278,260,395.402804851532,395.40288186073303,395.40602445602417,395.4232563972473,395.5671935081482,395.5671935081482,395.5671935081482,395.5671935081482,395.5671935081482,395.5671935081482,395.5671935081482,400.0668876171112,2,4.634225845336914,None,,,,,,,,,,,,,,,,,,206,1,2025-03-07_09h54.45.760,comp,2024.2.4,55.98997219392965,2025-03-07 09h54.56.295660 -0500,
63,63,0,critical,wdh,20.0,2.1,upper,125.0,200.0,141.0,141.0,200.0,125.0,1,4.4636335372924805,None,,,,,0,0,0,0,0,63,63,11,400.0824842453003,,,,,,,,,,,,,,,,,,,,,,,,,,,,,,,,,,,,,,,,,,,,,,,,,,,,,,,,,,,,,,,,,,,,,,,,,,,,,,,,,125.0,200.0,141.0,141.0,200.0,125.0,2.1,2.12,-266,-264,0,-276,229,253,400.0684359073639,400.06851267814636,400.0714569091797,400.0824842453003,400.22160172462463,400.22160172462463,400.22160172462463,400.22160172462463,400.22160172462463,400.22160172462463,400.22160172462463,404.55392146110535,1,4.4636335372924805,None,,,,,,,,,,,,,,,,,,206,1,2025-03-07_09h54.45.760,comp,2024.2.4,55.98997219392965,2025-03-07 09h54.56.295660 -0500,
64,64,0,filler_random,None,None,None,None,None,None,None,None,None,None,3,1.6957917213439941,None,,,,,0,0,0,0,0,64,64,152,404.57054233551025,,,,,,,,,,,,,,,,,,,,,,,,,,,,,,,,,,,,,,,,,,,,,,,,,,,,,,,,,,,,,,,,,,,,,,,,,,,,,,,,,92.14422129991124,60.120775670048566,142.2053008747086,109.06076562870052,160.36969713156014,167.56995733555584,1.0,1.2,-181,2,0,-9,234,14,404.5559284687042,404.5560128688812,404.5595602989197,404.57054233551025,404.7194867134094,404.7194867134094,404.7194867134094,404.7194867134094,404.7194867134094,404.7194867134094,404.7194867134094,406.2720105648041,3,1.6957917213439941,None,,,,,,,,,,,,,,,,,,206,1,2025-03-07_09h54.45.760,comp,2024.2.4,55.98997219392965,2025-03-07 09h54.56.295660 -0500,
65,65,0,catch,None,None,None,None,None,None,None,None,None,None,3,1.2166273593902588,None,,,,,0,0,0,0,0,65,65,127,406.2888767719269,,,,,,,,,,,,,,,,,,,,,,,,,,,,,,,,,,,,,,,,,,,,,,,,,,,,,,,,,,,,,,,,,,,,,,,,,,,,,,,,,92,98,91,99,184,141,3.0,3.1,-194,268,0,10,216,-260,406.27431440353394,406.2744507789612,406.2780315876007,406.2888767719269,406.4360067844391,406.4360067844391,406.4360067844391,406.4360067844391,406.4360067844391,406.4360067844391,406.4360067844391,407.52430272102356,3,1.2166273593902588,None,,,,,,,,,,,,,,,,,,206,1,2025-03-07_09h54.45.760,comp,2024.2.4,55.98997219392965,2025-03-07 09h54.56.295660 -0500,
66,66,0,catch,None,None,None,None,None,None,None,None,None,None,2,1.1223366260528564,None,,,,,0,0,0,0,0,66,66,126,407.5431613922119,,,,,,,,,,,,,,,,,,,,,,,,,,,,,,,,,,,,,,,,,,,,,,,,,,,,,,,,,,,,,,,,,,,,,,,,,,,,,,,,,60,130,161,164,131,59,4.0,4.1,-243,-265,0,4,208,-266,407.5265746116638,407.52665615081787,407.5301945209503,407.5431613922119,407.6882438659668,407.6882438659668,407.6882438659668,407.6882438659668,407.6882438659668,407.6882438659668,407.6882438659668,408.67219066619873,2,1.1223366260528564,None,,,,,,,,,,,,,,,,,,206,1,2025-03-07_09h54.45.760,comp,2024.2.4,55.98997219392965,2025-03-07 09h54.56.295660 -0500,
67,67,0,filler_square,None,None,None,None,None,None,None,None,None,None,1,2.022425413131714,None,,,,,0,0,0,0,0,67,67,173,408.6909520626068,,,,,,,,,,,,,,,,,,,,,,,,,,,,,,,,,,,,,,,,,,,,,,,,,,,,,,,,,,,,,,,,,,,,,,,,,,,,,,,,,133.59619194665504,133.59619194665504,111.01993432605639,74.33062647132579,104.2448163549621,103.96713424924354,2.1,2.12,-200,-259,0,-262,185,285,408.6742858886719,408.6743643283844,408.67779874801636,408.6909520626068,408.8416862487793,408.8416862487793,408.8416862487793,408.8416862487793,408.8416862487793,408.8416862487793,408.8416862487793,410.73015785217285,1,2.022425413131714,None,,,,,,,,,,,,,,,,,,206,1,2025-03-07_09h54.45.760,comp,2024.2.4,55.98997219392965,2025-03-07 09h54.56.295660 -0500,
68,68,0,filler_square,None,None,None,None,None,None,None,None,None,None,2,2.435021162033081,None,,,,,0,0,0,0,0,68,68,197,410.75088715553284,,,,,,,,,,,,,,,,,,,,,,,,,,,,,,,,,,,,,,,,,,,,,,,,,,,,,,,,,,,,,,,,,,,,,,,,,,,,,,,,,192.3378586866613,154.92242898907193,194.62610409338657,194.62610409338657,138.1580021039071,184.0619251838662,3.0,3.2,-271,-256,0,-1,285,274,410.73218607902527,410.7322678565979,410.7355043888092,410.75088715553284,410.89457750320435,410.89457750320435,410.89457750320435,410.89457750320435,410.89457750320435,410.89457750320435,410.89457750320435,413.1886920928955,2,2.435021162033081,None,,,,,,,,,,,,,,,,,,206,1,2025-03-07_09h54.45.760,comp,2024.2.4,55.98997219392965,2025-03-07 09h54.56.295660 -0500,
69,69,0,filler_random,None,None,None,None,None,None,None,None,None,None,3,2.0797617435455322,None,,,,,0,0,0,0,0,69,69,134,413.2095904350281,,,,,,,,,,,,,,,,,,,,,,,,,,,,,,,,,,,,,,,,,,,,,,,,,,,,,,,,,,,,,,,,,,,,,,,,,,,,,,,,,142.37856111780394,103.25009485943636,168.06266354389402,68.22614971492234,173.67452890782647,161.07320170695294,2.2,2.21,-182,-267,0,255,211,285,413.1904785633087,413.1905574798584,413.1937234401703,413.2095904350281,413.3601231575012,413.3601231575012,413.3601231575012,413.3601231575012,413.3601231575012,413.3601231575012,413.3601231575012,415.29214882850647,3,2.0797617435455322,None,,,,,,,,,,,,,,,,,,206,1,2025-03-07_09h54.45.760,comp,2024.2.4,55.98997219392965,2025-03-07 09h54.56.295660 -0500,
70,70,0,critical,wdh,35.0,1.0,upper,125.0,200.0,127.0,127.0,200.0,125.0,1,4.29410457611084,None,,,,,0,0,0,0,0,70,70,73,415.3083415031433,,,,,,,,,,,,,,,,,,,,,,,,,,,,,,,,,,,,,,,,,,,,,,,,,,,,,,,,,,,,,,,,,,,,,,,,,,,,,,,,,125.0,200.0,127.0,127.0,200.0,125.0,1.0,1.3,220,-260,480,-290,702,-274,415.29380321502686,415.29388427734375,415.2974259853363,415.3083415031433,415.4568862915039,415.4568862915039,415.4568862915039,415.4568862915039,415.4568862915039,415.4568862915039,415.4568862915039,419.607675075531,1,4.29410457611084,None,,,,,,,,,,,,,,,,,,206,1,2025-03-07_09h54.45.760,comp,2024.2.4,55.98997219392965,2025-03-07 09h54.56.295660 -0500,
71,71,0,filler_square,None,None,None,None,None,None,None,None,None,None,1,1.897268533706665,None,,,,,0,0,0,0,0,71,71,194,419.6240620613098,,,,,,,,,,,,,,,,,,,,,,,,,,,,,,,,,,,,,,,,,,,,,,,,,,,,,,,,,,,,,,,,,,,,,,,,,,,,,,,,,80.75515270505237,80.75515270505237,66.83867052415638,76.69894946068239,63.653438832524536,72.1231703858029,4.0,4.2,-175,-2,0,-277,170,-16,419.6095254421234,419.60960578918457,419.6125998497009,419.6240620613098,419.78164315223694,419.78164315223694,419.78164315223694,419.78164315223694,419.78164315223694,419.78164315223694,419.78164315223694,421.5306522846222,1,1.897268533706665,None,,,,,,,,,,,,,,,,,,206,1,2025-03-07_09h54.45.760,comp,2024.2.4,55.98997219392965,2025-03-07 09h54.56.295660 -0500,
72,72,0,critical,hwd,20.0,4.0,lower,133.0,57.0,57.0,133.0,78.0,78.0,3,7.663628339767456,None,,,,,0,0,0,0,0,72,72,106,421.5466148853302,,,,,,,,,,,,,,,,,,,,,,,,,,,,,,,,,,,,,,,,,,,,,,,,,,,,,,,,,,,,,,,,,,,,,,,,,,,,,,,,,133.0,57.0,57.0,133.0,78.0,78.0,4.0,4.1,-191,-257,0,-10,202,-289,421.53256821632385,421.5326495170593,421.53562903404236,421.5466148853302,421.70060539245605,421.70060539245605,421.70060539245605,421.70060539245605,421.70060539245605,421.70060539245605,421.70060539245605,429.22087240219116,3,7.663628339767456,None,,,,,,,,,,,,,,,,,,206,1,2025-03-07_09h54.45.760,comp,2024.2.4,55.98997219392965,2025-03-07 09h54.56.295660 -0500,
73,73,0,critical,dwh,20.0,2.1,lower,78.0,78.0,57.0,133.0,133.0,57.0,1,4.35235595703125,None,,,,,0,0,0,0,0,73,73,6,429.24117398262024,,,,,,,,,,,,,,,,,,,,,,,,,,,,,,,,,,,,,,,,,,,,,,,,,,,,,,,,,,,,,,,,,,,,,,,,,,,,,,,,,78.0,78.0,57.0,133.0,133.0,57.0,2.1,2.11,-202,268,0,278,191,-273,429.22239089012146,429.2224712371826,429.22544980049133,429.24117398262024,429.379004240036,429.379004240036,429.379004240036,429.379004240036,429.379004240036,429.379004240036,429.379004240036,433.6122031211853,1,4.35235595703125,None,,,,,,,,,,,,,,,,,,206,1,2025-03-07_09h54.45.760,comp,2024.2.4,55.98997219392965,2025-03-07 09h54.56.295660 -0500,
74,74,0,filler_random,None,None,None,None,None,None,None,None,None,None,3,1.4173939228057861,None,,,,,0,0,0,0,0,74,74,143,433.63198709487915,,,,,,,,,,,,,,,,,,,,,,,,,,,,,,,,,,,,,,,,,,,,,,,,,,,,,,,,,,,,,,,,,,,,,,,,,,,,,,,,,180.28350539586887,102.23054869814342,141.55471094321945,125.78792052560907,145.8935917902649,183.3451663418666,1.0,1.1,-690,272,-480,270,-229,274,433.6139979362488,433.6141006946564,433.61741518974304,433.63198709487915,433.77941942214966,433.77941942214966,433.77941942214966,433.77941942214966,433.77941942214966,433.77941942214966,433.77941942214966,435.0652365684509,3,1.4173939228057861,None,,,,,,,,,,,,,,,,,,206,1,2025-03-07_09h54.45.760,comp,2024.2.4,55.98997219392965,2025-03-07 09h54.56.295660 -0500,
75,75,0,critical,dwh,20.0,4.0,upper,141.0,141.0,125.0,200.0,200.0,125.0,2,1.9881973266601562,None,,,,,0,0,0,0,0,75,75,71,435.0851683616638,,,,,,,,,,,,,,,,,,,,,,,,,,,,,,,,,,,,,,,,,,,,,,,,,,,,,,,,,,,,,,,,,,,,,,,,,,,,,,,,,141.0,141.0,125.0,200.0,200.0,125.0,4.0,4.2,-266,-11,0,-254,258,-17,435.06690549850464,435.06707668304443,435.07022643089294,435.0851683616638,435.2280285358429,435.2280285358429,435.2280285358429,435.2280285358429,435.2280285358429,435.2280285358429,435.2280285358429,437.09220266342163,2,1.9881973266601562,None,,,,,,,,,,,,,,,,,,206,1,2025-03-07_09h54.45.760,comp,2024.2.4,55.98997219392965,2025-03-07 09h54.56.295660 -0500,
76,76,0,filler_square,None,None,None,None,None,None,None,None,None,None,2,1.2171335220336914,None,,,,,0,0,0,0,0,76,76,189,437.1123082637787,,,,,,,,,,,,,,,,,,,,,,,,,,,,,,,,,,,,,,,,,,,,,,,,,,,,,,,,,,,,,,,,,,,,,,,,,,,,,,,,,68.92301497452438,135.69191944982424,144.0333507368424,144.0333507368424,79.75587689220079,136.20697469070026,2.1,2.11,-236,273,0,279,236,-277,437.0940282344818,437.09410429000854,437.09702706336975,437.1123082637787,437.24767112731934,437.24767112731934,437.24767112731934,437.24767112731934,437.24767112731934,437.24767112731934,437.24767112731934,438.3411247730255,2,1.2171335220336914,None,,,,,,,,,,,,,,,,,,206,1,2025-03-07_09h54.45.760,comp,2024.2.4,55.98997219392965,2025-03-07 09h54.56.295660 -0500,
77,77,0,critical,dwh,35.0,4.0,lower,70.0,70.0,57.0,133.0,133.0,57.0,3,6.732623815536499,None,,,,,0,0,0,0,0,77,77,64,438.3571991920471,,,,,,,,,,,,,,,,,,,,,,,,,,,,,,,,,,,,,,,,,,,,,,,,,,,,,,,,,,,,,,,,,,,,,,,,,,,,,,,,,70.0,70.0,57.0,133.0,133.0,57.0,4.0,4.2,-198,-14,0,-265,191,20,438.34266996383667,438.34278321266174,438.3461260795593,438.3571991920471,438.49838066101074,438.49838066101074,438.49838066101074,438.49838066101074,438.49838066101074,438.49838066101074,438.49838066101074,445.1022686958313,3,6.732623815536499,None,,,,,,,,,,,,,,,,,,206,1,2025-03-07_09h54.45.760,comp,2024.2.4,55.98997219392965,2025-03-07 09h54.56.295660 -0500,
78,78,0,filler_random,None,None,None,None,None,None,None,None,None,None,1,8.7931387424469,None,,,,,0,0,0,0,0,78,78,130,445.12080550193787,,,,,,,,,,,,,,,,,,,,,,,,,,,,,,,,,,,,,,,,,,,,,,,,,,,,,,,,,,,,,,,,,,,,,,,,,,,,,,,,,109.64825249377367,175.97504785450937,99.3270701530052,189.11805059379105,164.97641167461728,124.81797465330045,2.1,2.11,-279,269,0,254,253,-261,445.10428071022034,445.1043667793274,445.10741209983826,445.12080550193787,445.26593947410583,445.26593947410583,445.26593947410583,445.26593947410583,445.26593947410583,445.26593947410583,445.26593947410583,453.9183588027954,1,8.7931387424469,None,,,,,,,,,,,,,,,,,,206,1,2025-03-07_09h54.45.760,comp,2024.2.4,55.98997219392965,2025-03-07 09h54.56.295660 -0500,
79,79,0,critical,whd,20.0,2.1,upper,125.0,200.0,200.0,125.0,141.0,141.0,1,2.315276622772217,None,,,,,0,0,0,0,0,79,79,15,453.93542194366455,,,,,,,,,,,,,,,,,,,,,,,,,,,,,,,,,,,,,,,,,,,,,,,,,,,,,,,,,,,,,,,,,,,,,,,,,,,,,,,,,125.0,200.0,200.0,125.0,141.0,141.0,2.1,2.11,-258,272,0,266,229,-279,453.91989827156067,453.919974565506,453.9230613708496,453.93542194366455,454.0839514732361,454.0839514732361,454.0839514732361,454.0839514732361,454.0839514732361,454.0839514732361,454.0839514732361,456.2539322376251,1,2.315276622772217,None,,,,,,,,,,,,,,,,,,206,1,2025-03-07_09h54.45.760,comp,2024.2.4,55.98997219392965,2025-03-07 09h54.56.295660 -0500,
80,80,0,critical,wdh,35.0,1.0,lower,57.0,133.0,70.0,70.0,133.0,57.0,1,4.787314414978027,None,,,,,0,0,0,0,0,80,80,72,456.2701315879822,,,,,,,,,,,,,,,,,,,,,,,,,,,,,,,,,,,,,,,,,,,,,,,,,,,,,,,,,,,,,,,,,,,,,,,,,,,,,,,,,57.0,133.0,70.0,70.0,133.0,57.0,1.0,1.1,-678,251,-480,253,-320,252,456.2554659843445,456.25554609298706,456.25882148742676,456.2701315879822,456.4209027290344,456.4209027290344,456.4209027290344,456.4209027290344,456.4209027290344,456.4209027290344,456.4209027290344,461.0746557712555,1,4.787314414978027,None,,,,,,,,,,,,,,,,,,206,1,2025-03-07_09h54.45.760,comp,2024.2.4,55.98997219392965,2025-03-07 09h54.56.295660 -0500,
81,81,0,critical,hdw,20.0,4.0,upper,200.0,125.0,141.0,141.0,125.0,200.0,3,4.628711223602295,None,,,,,0,0,0,0,0,81,81,119,461.0927391052246,,,,,,,,,,,,,,,,,,,,,,,,,,,,,,,,,,,,,,,,,,,,,,,,,,,,,,,,,,,,,,,,,,,,,,,,,,,,,,,,,200.0,125.0,141.0,141.0,125.0,200.0,4.0,4.1,-229,-280,0,-12,266,-288,461.07621812820435,461.07630944252014,461.078519821167,461.0927391052246,461.2372577190399,461.2372577190399,461.2372577190399,461.2372577190399,461.2372577190399,461.2372577190399,461.2372577190399,465.7393546104431,3,4.628711223602295,None,,,,,,,,,,,,,,,,,,206,1,2025-03-07_09h54.45.760,comp,2024.2.4,55.98997219392965,2025-03-07 09h54.56.295660 -0500,
82,82,0,filler_random,None,None,None,None,None,None,None,None,None,None,3,1.358755350112915,None,,,,,0,0,0,0,0,82,82,133,465.7556540966034,,,,,,,,,,,,,,,,,,,,,,,,,,,,,,,,,,,,,,,,,,,,,,,,,,,,,,,,,,,,,,,,,,,,,,,,,,,,,,,,,86.68345724223929,108.29528679677978,126.0089631453778,69.34973327300393,178.79029457360326,134.04088904835845,2.1,2.12,-185,-261,0,-276,198,256,465.741085767746,465.74116253852844,465.7444508075714,465.7556540966034,465.9151179790497,465.9151179790497,465.9151179790497,465.9151179790497,465.9151179790497,465.9151179790497,465.9151179790497,467.12385845184326,3,1.358755350112915,None,,,,,,,,,,,,,,,,,,206,1,2025-03-07_09h54.45.760,comp,2024.2.4,55.98997219392965,2025-03-07 09h54.56.295660 -0500,
83,83,0,critical,hdw,20.0,1.0,lower,133.0,57.0,78.0,78.0,57.0,133.0,2,5.030191659927368,None,,,,,0,0,0,0,0,83,83,114,467.13979959487915,,,,,,,,,,,,,,,,,,,,,,,,,,,,,,,,,,,,,,,,,,,,,,,,,,,,,,,,,,,,,,,,,,,,,,,,,,,,,,,,,133.0,57.0,78.0,78.0,57.0,133.0,1.0,1.3,316,-281,480,-252,682,-277,467.1254382133484,467.12552189826965,467.1290657520294,467.13979959487915,467.2917273044586,467.2917273044586,467.2917273044586,467.2917273044586,467.2917273044586,467.2917273044586,467.2917273044586,472.17384099960327,2,5.030191659927368,None,,,,,,,,,,,,,,,,,,206,1,2025-03-07_09h54.45.760,comp,2024.2.4,55.98997219392965,2025-03-07 09h54.56.295660 -0500,
84,84,0,critical,whd,35.0,4.0,upper,125.0,200.0,200.0,125.0,127.0,127.0,1,3.3315439224243164,None,,,,,0,0,0,0,0,84,84,89,472.1903712749481,,,,,,,,,,,,,,,,,,,,,,,,,,,,,,,,,,,,,,,,,,,,,,,,,,,,,,,,,,,,,,,,,,,,,,,,,,,,,,,,,125.0,200.0,200.0,125.0,127.0,127.0,4.0,4.1,-258,-283,0,-14,222,-256,472.17534613609314,472.1754243373871,472.1785023212433,472.1903712749481,472.34060168266296,472.34060168266296,472.34060168266296,472.34060168266296,472.34060168266296,472.34060168266296,472.34060168266296,475.5251455307007,1,3.3315439224243164,None,,,,,,,,,,,,,,,,,,206,1,2025-03-07_09h54.45.760,comp,2024.2.4,55.98997219392965,2025-03-07 09h54.56.295660 -0500,
85,85,0,catch,None,None,None,None,None,None,None,None,None,None,1,1.168644666671753,None,,,,,0,0,0,0,0,85,85,129,475.5446605682373,,,,,,,,,,,,,,,,,,,,,,,,,,,,,,,,,,,,,,,,,,,,,,,,,,,,,,,,,,,,,,,,,,,,,,,,,,,,,,,,,198,127,109,81,92,98,1.0,1.2,-200,-3,0,11,186,-1,475.5270895957947,475.527170419693,475.5303978919983,475.5446605682373,475.6936161518097,475.6936161518097,475.6936161518097,475.6936161518097,475.6936161518097,475.6936161518097,475.6936161518097,476.72668647766113,1,1.168644666671753,None,,,,,,,,,,,,,,,,,,206,1,2025-03-07_09h54.45.760,comp,2024.2.4,55.98997219392965,2025-03-07 09h54.56.295660 -0500,
86,86,0,catch,None,None,None,None,None,None,None,None,None,None,2,1.5802254676818848,None,,,,,0,0,0,0,0,86,86,124,476.7411732673645,,,,,,,,,,,,,,,,,,,,,,,,,,,,,,,,,,,,,,,,,,,,,,,,,,,,,,,,,,,,,,,,,,,,,,,,,,,,,,,,,92,98,180,145,118,72,4.0,4.2,-218,-19,0,-271,204,-12,476.7286548614502,476.72876238822937,476.7320656776428,476.7411732673645,476.89331912994385,476.89331912994385,476.89331912994385,476.89331912994385,476.89331912994385,476.89331912994385,476.89331912994385,478.33266854286194,2,1.5802254676818848,None,,,,,,,,,,,,,,,,,,206,1,2025-03-07_09h54.45.760,comp,2024.2.4,55.98997219392965,2025-03-07 09h54.56.295660 -0500,
87,87,0,critical,dwh,35.0,1.0,lower,70.0,70.0,57.0,133.0,133.0,57.0,2,1.8750696182250977,None,,,,,0,0,0,0,0,87,87,60,478.3503255844116,,,,,,,,,,,,,,,,,,,,,,,,,,,,,,,,,,,,,,,,,,,,,,,,,,,,,,,,,,,,,,,,,,,,,,,,,,,,,,,,,70.0,70.0,57.0,133.0,133.0,57.0,1.0,1.2,-198,-15,0,4,191,3,478.33420276641846,478.33428263664246,478.33720326423645,478.3503255844116,478.4935178756714,478.4935178756714,478.4935178756714,478.4935178756714,478.4935178756714,478.4935178756714,478.4935178756714,480.24479842185974,2,1.8750696182250977,None,,,,,,,,,,,,,,,,,,206,1,2025-03-07_09h54.45.760,comp,2024.2.4,55.98997219392965,2025-03-07 09h54.56.295660 -0500,
88,88,0,critical,wdh,20.0,1.0,upper,125.0,200.0,141.0,141.0,200.0,125.0,1,5.7603759765625,None,,,,,0,0,0,0,0,88,88,79,480.2654085159302,,,,,,,,,,,,,,,,,,,,,,,,,,,,,,,,,,,,,,,,,,,,,,,,,,,,,,,,,,,,,,,,,,,,,,,,,,,,,,,,,125.0,200.0,141.0,141.0,200.0,125.0,1.0,1.2,-266,13,0,7,229,13,480.2462868690491,480.24636363983154,480.2494843006134,480.2654085159302,480.41336846351624,480.41336846351624,480.41336846351624,480.41336846351624,480.41336846351624,480.41336846351624,480.41336846351624,486.03466749191284,1,5.7603759765625,None,,,,,,,,,,,,,,,,,,206,1,2025-03-07_09h54.45.760,comp,2024.2.4,55.98997219392965,2025-03-07 09h54.56.295660 -0500,
89,89,0,filler_square,None,None,None,None,None,None,None,None,None,None,1,1.3625874519348145,None,,,,,0,0,0,0,0,89,89,187,486.05533719062805,,,,,,,,,,,,,,,,,,,,,,,,,,,,,,,,,,,,,,,,,,,,,,,,,,,,,,,,,,,,,,,,,,,,,,,,,,,,,,,,,125.98266716158707,125.98266716158707,62.27670007939759,105.21976351506054,80.70745955452585,68.03313107224776,2.1,2.12,-212,-286,0,-252,183,276,486.036504983902,486.03658628463745,486.03949213027954,486.05533719062805,486.1967887878418,486.1967887878418,486.1967887878418,486.1967887878418,486.1967887878418,486.1967887878418,486.1967887878418,487.43025827407837,1,1.3625874519348145,None,,,,,,,,,,,,,,,,,,206,1,2025-03-07_09h54.45.760,comp,2024.2.4,55.98997219392965,2025-03-07 09h54.56.295660 -0500,
90,90,0,critical,dhw,20.0,2.1,lower,78.0,78.0,133.0,57.0,57.0,133.0,1,3.3954110145568848,None,,,,,0,0,0,0,0,90,90,26,487.4466550350189,,,,,,,,,,,,,,,,,,,,,,,,,,,,,,,,,,,,,,,,,,,,,,,,,,,,,,,,,,,,,,,,,,,,,,,,,,,,,,,,,78.0,78.0,133.0,57.0,57.0,133.0,2.1,2.12,-164,-284,0,-278,191,258,487.43185687065125,487.4319922924042,487.4358241558075,487.4466550350189,487.59453654289246,487.59453654289246,487.59453654289246,487.59453654289246,487.59453654289246,487.59453654289246,487.59453654289246,490.8457655906677,1,3.3954110145568848,None,,,,,,,,,,,,,,,,,,206,1,2025-03-07_09h54.45.760,comp,2024.2.4,55.98997219392965,2025-03-07 09h54.56.295660 -0500,
91,91,0,critical,dhw,20.0,4.0,upper,141.0,141.0,200.0,125.0,125.0,200.0,1,7.484764575958252,None,,,,,0,0,0,0,0,91,91,59,490.8613393306732,,,,,,,,,,,,,,,,,,,,,,,,,,,,,,,,,,,,,,,,,,,,,,,,,,,,,,,,,,,,,,,,,,,,,,,,,,,,,,,,,141.0,141.0,200.0,125.0,125.0,200.0,4.0,4.2,-229,18,0,-274,258,10,490.84726667404175,490.8473482131958,490.85037112236023,490.8613393306732,491.01923155784607,491.01923155784607,491.01923155784607,491.01923155784607,491.01923155784607,491.01923155784607,491.01923155784607,498.3498136997223,1,7.484764575958252,None,,,,,,,,,,,,,,,,,,206,1,2025-03-07_09h54.45.760,comp,2024.2.4,55.98997219392965,2025-03-07 09h54.56.295660 -0500,
92,92,0,catch,None,None,None,None,None,None,None,None,None,None,1,1.2265775203704834,None,,,,,0,0,0,0,0,92,92,122,498.36732482910156,,,,,,,,,,,,,,,,,,,,,,,,,,,,,,,,,,,,,,,,,,,,,,,,,,,,,,,,,,,,,,,,,,,,,,,,,,,,,,,,,162,163,121,69,69,121,4.0,4.2,-212,8,0,-280,191,-14,498.35181641578674,498.35189628601074,498.35516905784607,498.36732482910156,498.51614689826965,498.51614689826965,498.51614689826965,498.51614689826965,498.51614689826965,498.51614689826965,498.51614689826965,499.6006531715393,1,1.2265775203704834,None,,,,,,,,,,,,,,,,,,206,1,2025-03-07_09h54.45.760,comp,2024.2.4,55.98997219392965,2025-03-07 09h54.56.295660 -0500,
93,93,0,filler_square,None,None,None,None,None,None,None,None,None,None,3,2.062371253967285,None,,,,,0,0,0,0,0,93,93,171,499.6197249889374,,,,,,,,,,,,,,,,,,,,,,,,,,,,,,,,,,,,,,,,,,,,,,,,,,,,,,,,,,,,,,,,,,,,,,,,,,,,,,,,,99.96154035656284,66.93050148552186,68.2491801597671,68.8218982497857,113.70997759020233,113.70997759020233,2.1,2.11,-164,259,0,254,187,-273,499.60269021987915,499.602801322937,499.60659646987915,499.6197249889374,499.7666742801666,499.7666742801666,499.7666742801666,499.7666742801666,499.7666742801666,499.7666742801666,499.7666742801666,501.68516778945923,3,2.062371253967285,None,,,,,,,,,,,,,,,,,,206,1,2025-03-07_09h54.45.760,comp,2024.2.4,55.98997219392965,2025-03-07 09h54.56.295660 -0500,
94,94,0,critical,hwd,35.0,2.1,upper,200.0,125.0,125.0,200.0,127.0,127.0,2,3.364150047302246,None,,,,,0,0,0,0,0,94,94,17,501.70162177085876,,,,,,,,,,,,,,,,,,,,,,,,,,,,,,,,,,,,,,,,,,,,,,,,,,,,,,,,,,,,,,,,,,,,,,,,,,,,,,,,,200.0,125.0,125.0,200.0,127.0,127.0,2.1,2.11,-258,267,0,266,260,-268,501.6868050098419,501.6869218349457,501.69054532051086,501.70162177085876,501.8516230583191,501.8516230583191,501.8516230583191,501.8516230583191,501.8516230583191,501.8516230583191,501.8516230583191,505.0703372955322,2,3.364150047302246,None,,,,,,,,,,,,,,,,,,206,1,2025-03-07_09h54.45.760,comp,2024.2.4,55.98997219392965,2025-03-07 09h54.56.295660 -0500,
95,95,0,critical,dhw,35.0,4.0,upper,127.0,127.0,200.0,125.0,125.0,200.0,3,4.819370985031128,None,,,,,0,0,0,0,0,95,95,53,505.08622789382935,,,,,,,,,,,,,,,,,,,,,,,,,,,,,,,,,,,,,,,,,,,,,,,,,,,,,,,,,,,,,,,,,,,,,,,,,,,,,,,,,127.0,127.0,200.0,125.0,125.0,200.0,4.0,4.1,-222,-260,0,-9,258,-287,505.07187819480896,505.07195806503296,505.0752213001251,505.08622789382935,505.2357909679413,505.2357909679413,505.2357909679413,505.2357909679413,505.2357909679413,505.2357909679413,505.2357909679413,509.9201030731201,3,4.819370985031128,None,,,,,,,,,,,,,,,,,,206,1,2025-03-07_09h54.45.760,comp,2024.2.4,55.98997219392965,2025-03-07 09h54.56.295660 -0500,
96,96,0,critical,whd,20.0,2.1,upper,125.0,200.0,200.0,125.0,141.0,141.0,1,2.3220889568328857,None,,,,,0,0,0,0,0,96,96,39,509.9355971813202,,,,,,,,,,,,,,,,,,,,,,,,,,,,,,,,,,,,,,,,,,,,,,,,,,,,,,,,,,,,,,,,,,,,,,,,,,,,,,,,,125.0,200.0,200.0,125.0,141.0,141.0,2.1,2.12,-258,-284,0,-258,229,263,509.9216525554657,509.92175674438477,509.9251608848572,509.9355971813202,510.0882260799408,510.0882260799408,510.0882260799408,510.0882260799408,510.0882260799408,510.0882260799408,510.0882260799408,512.272198677063,1,2.3220889568328857,None,,,,,,,,,,,,,,,,,,206,1,2025-03-07_09h54.45.760,comp,2024.2.4,55.98997219392965,2025-03-07 09h54.56.295660 -0500,
97,97,0,catch,None,None,None,None,None,None,None,None,None,None,2,1.0328125953674316,None,,,,,0,0,0,0,0,97,97,121,512.2890973091125,,,,,,,,,,,,,,,,,,,,,,,,,,,,,,,,,,,,,,,,,,,,,,,,,,,,,,,,,,,,,,,,,,,,,,,,,,,,,,,,,81,109,130,195,78,112,2.1,2.12,-248,-255,0,-275,250,265,512.2744410037994,512.274521112442,512.2778480052948,512.2890973091125,512.4402792453766,512.4402792453766,512.4402792453766,512.4402792453766,512.4402792453766,512.4402792453766,512.4402792453766,513.324182510376,2,1.0328125953674316,None,,,,,,,,,,,,,,,,,,206,1,2025-03-07_09h54.45.760,comp,2024.2.4,55.98997219392965,2025-03-07 09h54.56.295660 -0500,
98,98,0,critical,hdw,35.0,3.0,lower,133.0,57.0,70.0,70.0,57.0,133.0,3,2.755068063735962,None,,,,,0,0,0,0,0,98,98,110,513.3431332111359,,,,,,,,,,,,,,,,,,,,,,,,,,,,,,,,,,,,,,,,,,,,,,,,,,,,,,,,,,,,,,,,,,,,,,,,,,,,,,,,,133.0,57.0,70.0,70.0,57.0,133.0,3.0,3.2,-160,-270,0,-5,198,279,513.3261914253235,513.3262844085693,513.3292391300201,513.3431332111359,513.4877502918243,513.4877502918243,513.4877502918243,513.4877502918243,513.4877502918243,513.4877502918243,513.4877502918243,516.1058592796326,3,2.755068063735962,None,,,,,,,,,,,,,,,,,,206,1,2025-03-07_09h54.45.760,comp,2024.2.4,55.98997219392965,2025-03-07 09h54.56.295660 -0500,
99,99,0,filler_random,None,None,None,None,None,None,None,None,None,None,1,1.4960553646087646,None,,,,,0,0,0,0,0,99,99,142,516.1218528747559,,,,,,,,,,,,,,,,,,,,,,,,,,,,,,,,,,,,,,,,,,,,,,,,,,,,,,,,,,,,,,,,,,,,,,,,,,,,,,,,,110.77746702426072,197.497561422825,96.95448034087126,158.67354922129783,154.6757126610048,171.86811255325125,2.1,2.11,-274,278,0,280,261,-283,516.1075778007507,516.1076591014862,516.1110997200012,516.1218528747559,516.273777961731,516.273777961731,516.273777961731,516.273777961731,516.273777961731,516.273777961731,516.273777961731,517.6235101222992,1,1.4960553646087646,None,,,,,,,,,,,,,,,,,,206,1,2025-03-07_09h54.45.760,comp,2024.2.4,55.98997219392965,2025-03-07 09h54.56.295660 -0500,
100,100,0,critical,wdh,20.0,4.0,upper,125.0,200.0,141.0,141.0,200.0,125.0,1,2.7062833309173584,None,,,,,0,0,0,0,0,100,100,83,517.6396477222443,,,,,,,,,,,,,,,,,,,,,,,,,,,,,,,,,,,,,,,,,,,,,,,,,,,,,,,,,,,,,,,,,,,,,,,,,,,,,,,,,125.0,200.0,141.0,141.0,200.0,125.0,4.0,4.2,-266,-1,0,-280,229,9,517.6251087188721,517.625194311142,517.6287660598755,517.6396477222443,517.7925577163696,517.7925577163696,517.7925577163696,517.7925577163696,517.7925577163696,517.7925577163696,517.7925577163696,520.3557517528534,1,2.7062833309173584,None,,,,,,,,,,,,,,,,,,206,1,2025-03-07_09h54.45.760,comp,2024.2.4,55.98997219392965,2025-03-07 09h54.56.295660 -0500,
101,101,0,critical,hwd,35.0,1.0,lower,133.0,57.0,57.0,133.0,70.0,70.0,2,2.6280107498168945,None,,,,,0,0,0,0,0,101,101,96,520.37389087677,,,,,,,,,,,,,,,,,,,,,,,,,,,,,,,,,,,,,,,,,,,,,,,,,,,,,,,,,,,,,,,,,,,,,,,,,,,,,,,,,133.0,57.0,57.0,133.0,70.0,70.0,1.0,1.2,-191,-19,0,-5,198,17,520.3572714328766,520.3573491573334,520.3605089187622,520.37389087677,520.5236191749573,520.5236191749573,520.5236191749573,520.5236191749573,520.5236191749573,520.5236191749573,520.5236191749573,523.0064611434937,2,2.6280107498168945,None,,,,,,,,,,,,,,,,,,206,1,2025-03-07_09h54.45.760,comp,2024.2.4,55.98997219392965,2025-03-07 09h54.56.295660 -0500,
102,102,0,filler_square,None,None,None,None,None,None,None,None,None,None,1,2.1315600872039795,None,,,,,0,0,0,0,0,102,102,179,523.0224461555481,,,,,,,,,,,,,,,,,,,,,,,,,,,,,,,,,,,,,,,,,,,,,,,,,,,,,,,,,,,,,,,,,,,,,,,,,,,,,,,,,90.61033340633463,90.61033340633463,74.3711331201822,88.25385624048867,70.16519118010476,87.6442615060406,3.0,3.1,-185,282,0,17,184,-263,523.0071635246277,523.0071914196014,523.0082252025604,523.0224461555481,523.1771562099457,523.1771562099457,523.1771562099457,523.1771562099457,523.1771562099457,523.1771562099457,523.1771562099457,525.1569948196411,1,2.1315600872039795,None,,,,,,,,,,,,,,,,,,206,1,2025-03-07_09h54.45.760,comp,2024.2.4,55.98997219392965,2025-03-07 09h54.56.295660 -0500,
103,103,0,filler_square,None,None,None,None,None,None,None,None,None,None,3,1.4411942958831787,None,,,,,0,0,0,0,0,103,103,177,525.1772289276123,,,,,,,,,,,,,,,,,,,,,,,,,,,,,,,,,,,,,,,,,,,,,,,,,,,,,,,,,,,,,,,,,,,,,,,,,,,,,,,,,147.03039764530718,94.74949384269297,128.9909639141813,108.80700691083004,161.0941021016856,161.0941021016856,4.0,4.2,-198,-13,0,-252,231,19,525.1588141918182,525.1588950157166,525.1619882583618,525.1772289276123,525.3244438171387,525.3244438171387,525.3244438171387,525.3244438171387,525.3244438171387,525.3244438171387,525.3244438171387,526.6243908405304,3,1.4411942958831787,None,,,,,,,,,,,,,,,,,,206,1,2025-03-07_09h54.45.760,comp,2024.2.4,55.98997219392965,2025-03-07 09h54.56.295660 -0500,
104,104,0,critical,hwd,20.0,2.1,upper,200.0,125.0,125.0,200.0,141.0,141.0,2,1.958653450012207,None,,,,,0,0,0,0,0,104,104,19,526.643205165863,,,,,,,,,,,,,,,,,,,,,,,,,,,,,,,,,,,,,,,,,,,,,,,,,,,,,,,,,,,,,,,,,,,,,,,,,,,,,,,,,200.0,125.0,125.0,200.0,141.0,141.0,2.1,2.11,-258,254,0,280,266,-281,526.6260204315186,526.6261179447174,526.6294300556183,526.643205165863,526.7778596878052,526.7778596878052,526.7778596878052,526.7778596878052,526.7778596878052,526.7778596878052,526.7778596878052,528.6041860580444,2,1.958653450012207,None,,,,,,,,,,,,,,,,,,206,1,2025-03-07_09h54.45.760,comp,2024.2.4,55.98997219392965,2025-03-07 09h54.56.295660 -0500,
105,105,0,critical,dhw,20.0,3.0,upper,141.0,141.0,200.0,125.0,125.0,200.0,1,2.406104803085327,None,,,,,0,0,0,0,0,105,105,57,528.6198756694794,,,,,,,,,,,,,,,,,,,,,,,,,,,,,,,,,,,,,,,,,,,,,,,,,,,,,,,,,,,,,,,,,,,,,,,,,,,,,,,,,141.0,141.0,200.0,125.0,125.0,200.0,3.0,3.1,-229,256,0,-7,258,-283,528.6057751178741,528.6058576107025,528.6088318824768,528.6198756694794,528.7592508792877,528.7592508792877,528.7592508792877,528.7592508792877,528.7592508792877,528.7592508792877,528.7592508792877,531.0294005870819,1,2.406104803085327,None,,,,,,,,,,,,,,,,,,206,1,2025-03-07_09h54.45.760,comp,2024.2.4,55.98997219392965,2025-03-07 09h54.56.295660 -0500,
106,106,0,critical,hdw,20.0,2.1,lower,133.0,57.0,78.0,78.0,57.0,133.0,2,2.38907527923584,None,,,,,0,0,0,0,0,106,106,22,531.0460476875305,,,,,,,,,,,,,,,,,,,,,,,,,,,,,,,,,,,,,,,,,,,,,,,,,,,,,,,,,,,,,,,,,,,,,,,,,,,,,,,,,133.0,57.0,78.0,78.0,57.0,133.0,2.1,2.11,-164,267,0,274,202,-254,531.0312757492065,531.0313572883606,531.034414768219,531.0460476875305,531.1921100616455,531.1921100616455,531.1921100616455,531.1921100616455,531.1921100616455,531.1921100616455,531.1921100616455,533.4452633857727,2,2.38907527923584,None,,,,,,,,,,,,,,,,,,206,1,2025-03-07_09h54.45.760,comp,2024.2.4,55.98997219392965,2025-03-07 09h54.56.295660 -0500,
107,107,0,filler_random,None,None,None,None,None,None,None,None,None,None,3,1.1881434917449951,None,,,,,0,0,0,0,0,107,107,164,533.4613127708435,,,,,,,,,,,,,,,,,,,,,,,,,,,,,,,,,,,,,,,,,,,,,,,,,,,,,,,,,,,,,,,,,,,,,,,,,,,,,,,,,111.58985239674826,167.7892359143192,130.3581727492628,104.25888106447101,143.68485840534677,169.82313337440257,4.0,4.2,-232,3,0,-285,233,14,533.4470181465149,533.4470982551575,533.4504683017731,533.4613127708435,533.621253490448,533.621253490448,533.621253490448,533.621253490448,533.621253490448,533.621253490448,533.621253490448,534.661004781723,3,1.1881434917449951,None,,,,,,,,,,,,,,,,,,206,1,2025-03-07_09h54.45.760,comp,2024.2.4,55.98997219392965,2025-03-07 09h54.56.295660 -0500,
108,108,0,filler_random,None,None,None,None,None,None,None,None,None,None,3,1.5640900135040283,None,,,,,0,0,0,0,0,108,108,165,534.6781425476074,,,,,,,,,,,,,,,,,,,,,,,,,,,,,,,,,,,,,,,,,,,,,,,,,,,,,,,,,,,,,,,,,,,,,,,,,,,,,,,,,198.78155185425143,63.71311034783261,113.15774153535313,95.966329826808,105.71021891502522,159.6423041362445,2.1,2.12,-176,-252,0,-269,224,281,534.6629784107208,534.6630899906158,534.6672713756561,534.6781425476074,534.8277959823608,534.8277959823608,534.8277959823608,534.8277959823608,534.8277959823608,534.8277959823608,534.8277959823608,536.2513797283173,3,1.5640900135040283,None,,,,,,,,,,,,,,,,,,206,1,2025-03-07_09h54.45.760,comp,2024.2.4,55.98997219392965,2025-03-07 09h54.56.295660 -0500,
109,109,0,filler_square,None,None,None,None,None,None,None,None,None,None,1,3.4295942783355713,None,,,,,0,0,0,0,0,109,109,170,536.268542766571,,,,,,,,,,,,,,,,,,,,,,,,,,,,,,,,,,,,,,,,,,,,,,,,,,,,,,,,,,,,,,,,,,,,,,,,,,,,,,,,,193.15925861095596,195.63626851978313,120.74454038908854,158.77375532176939,196.24839963752865,196.24839963752865,2.1,2.12,-273,-282,0,-258,274,282,536.2534282207489,536.2535092830658,536.2567629814148,536.268542766571,536.4106259346008,536.4106259346008,536.4106259346008,536.4106259346008,536.4106259346008,536.4106259346008,536.4106259346008,539.7188267707825,1,3.4295942783355713,None,,,,,,,,,,,,,,,,,,206,1,2025-03-07_09h54.45.760,comp,2024.2.4,55.98997219392965,2025-03-07 09h54.56.295660 -0500,
110,110,0,filler_random,None,None,None,None,None,None,None,None,None,None,1,3.113722562789917,None,,,,,0,0,0,0,0,110,110,138,539.7362749576569,,,,,,,,,,,,,,,,,,,,,,,,,,,,,,,,,,,,,,,,,,,,,,,,,,,,,,,,,,,,,,,,,,,,,,,,,,,,,,,,,160.86300293385784,179.213056544435,155.77894850540156,179.4481330552292,142.2539102169941,71.70211114392768,1.0,1.1,-755,251,-480,281,-258,288,539.7205364704132,539.7206149101257,539.7235794067383,539.7362749576569,539.8852396011353,539.8852396011353,539.8852396011353,539.8852396011353,539.8852396011353,539.8852396011353,539.8852396011353,542.8524737358093,1,3.113722562789917,None,,,,,,,,,,,,,,,,,,206,1,2025-03-07_09h54.45.760,comp,2024.2.4,55.98997219392965,2025-03-07 09h54.56.295660 -0500,
111,111,0,critical,hwd,20.0,3.0,lower,133.0,57.0,57.0,133.0,78.0,78.0,3,2.8847837448120117,None,,,,,0,0,0,0,0,111,111,104,542.8686640262604,,,,,,,,,,,,,,,,,,,,,,,,,,,,,,,,,,,,,,,,,,,,,,,,,,,,,,,,,,,,,,,,,,,,,,,,,,,,,,,,,133.0,57.0,57.0,133.0,78.0,78.0,3.0,3.2,-191,-286,0,5,202,277,542.854020357132,542.8540992736816,542.8569760322571,542.8686640262604,543.019528388977,543.019528388977,543.019528388977,543.019528388977,543.019528388977,543.019528388977,543.019528388977,545.763521194458,3,2.8847837448120117,None,,,,,,,,,,,,,,,,,,206,1,2025-03-07_09h54.45.760,comp,2024.2.4,55.98997219392965,2025-03-07 09h54.56.295660 -0500,
112,112,0,filler_square,None,None,None,None,None,None,None,None,None,None,2,2.380615472793579,None,,,,,0,0,0,0,0,112,112,201,545.7811186313629,,,,,,,,,,,,,,,,,,,,,,,,,,,,,,,,,,,,,,,,,,,,,,,,,,,,,,,,,,,,,,,,,,,,,,,,,,,,,,,,,130.8279265448411,151.62264864196948,152.44632993112003,152.44632993112003,128.37180058433492,125.41869035453882,4.0,4.1,-248,-258,0,6,235,-261,545.7653303146362,545.7654101848602,545.7684223651886,545.7811186313629,545.9337368011475,545.9337368011475,545.9337368011475,545.9337368011475,545.9337368011475,545.9337368011475,545.9337368011475,548.1729183197021,2,2.380615472793579,None,,,,,,,,,,,,,,,,,,206,1,2025-03-07_09h54.45.760,comp,2024.2.4,55.98997219392965,2025-03-07 09h54.56.295660 -0500,
113,113,0,filler_random,None,None,None,None,None,None,None,None,None,None,2,1.0168392658233643,None,,,,,0,0,0,0,0,113,113,157,548.1933755874634,,,,,,,,,,,,,,,,,,,,,,,,,,,,,,,,,,,,,,,,,,,,,,,,,,,,,,,,,,,,,,,,,,,,,,,,,,,,,,,,,131.29625250207565,101.98328224377573,150.0841306441456,172.6318593310342,57.07021577856126,134.07273150004295,2.2,2.22,-233,279,0,-266,249,-256,548.174631357193,548.1747419834137,548.1778652667999,548.1933755874634,548.3324038982391,548.3324038982391,548.3324038982391,548.3324038982391,548.3324038982391,548.3324038982391,548.3324038982391,549.2158403396606,2,1.0168392658233643,None,,,,,,,,,,,,,,,,,,206,1,2025-03-07_09h54.45.760,comp,2024.2.4,55.98997219392965,2025-03-07 09h54.56.295660 -0500,
114,114,0,filler_square,None,None,None,None,None,None,None,None,None,None,3,0.970252275466919,None,,,,,0,0,0,0,0,114,114,203,549.2320928573608,,,,,,,,,,,,,,,,,,,,,,,,,,,,,,,,,,,,,,,,,,,,,,,,,,,,,,,,,,,,,,,,,,,,,,,,,,,,,,,,,79.06844088699293,170.1725521697578,152.40705272235158,108.45685415704665,199.79089883623965,199.79089883623965,1.0,1.2,-235,-3,0,-8,250,-4,549.2176365852356,549.2177567481995,549.221230506897,549.2320928573608,549.3836555480957,549.3836555480957,549.3836555480957,549.3836555480957,549.3836555480957,549.3836555480957,549.3836555480957,550.2096529006958,3,0.970252275466919,None,,,,,,,,,,,,,,,,,,206,1,2025-03-07_09h54.45.760,comp,2024.2.4,55.98997219392965,2025-03-07 09h54.56.295660 -0500,
115,115,0,critical,whd,20.0,4.0,lower,57.0,133.0,133.0,57.0,78.0,78.0,3,6.0558435916900635,None,,,,,0,0,0,0,0,115,115,94,550.2258307933807,,,,,,,,,,,,,,,,,,,,,,,,,,,,,,,,,,,,,,,,,,,,,,,,,,,,,,,,,,,,,,,,,,,,,,,,,,,,,,,,,57.0,133.0,133.0,57.0,78.0,78.0,4.0,4.2,-191,7,0,-289,164,-9,550.2112746238708,550.2113888263702,550.2147846221924,550.2258307933807,550.3652164936066,550.3652164936066,550.3652164936066,550.3652164936066,550.3652164936066,550.3652164936066,550.3652164936066,556.284145116806,3,6.0558435916900635,None,,,,,,,,,,,,,,,,,,206,1,2025-03-07_09h54.45.760,comp,2024.2.4,55.98997219392965,2025-03-07 09h54.56.295660 -0500,
116,116,0,filler_square,None,None,None,None,None,None,None,None,None,None,2,2.403862953186035,None,,,,,0,0,0,0,0,116,116,178,556.3103742599487,,,,,,,,,,,,,,,,,,,,,,,,,,,,,,,,,,,,,,,,,,,,,,,,,,,,,,,,,,,,,,,,,,,,,,,,,,,,,,,,,71.78418126458294,74.67933377912387,88.18779748291985,88.18779748291985,86.20754657323663,76.1874708324958,2.1,2.12,-177,-271,0,-252,178,254,556.285927772522,556.2860116958618,556.2890965938568,556.3103742599487,556.4514844417572,556.4514844417572,556.4514844417572,556.4514844417572,556.4514844417572,556.4514844417572,556.4514844417572,558.7204127311707,2,2.403862953186035,None,,,,,,,,,,,,,,,,,,206,1,2025-03-07_09h54.45.760,comp,2024.2.4,55.98997219392965,2025-03-07 09h54.56.295660 -0500,
117,117,0,critical,whd,35.0,2.1,upper,125.0,200.0,200.0,125.0,127.0,127.0,1,2.624932289123535,None,,,,,0,0,0,0,0,117,117,13,558.7365462779999,,,,,,,,,,,,,,,,,,,,,,,,,,,,,,,,,,,,,,,,,,,,,,,,,,,,,,,,,,,,,,,,,,,,,,,,,,,,,,,,,125.0,200.0,200.0,125.0,127.0,127.0,2.1,2.11,-258,268,0,277,222,-285,558.7221012115479,558.7221813201904,558.725757598877,558.7365462779999,558.8848128318787,558.8848128318787,558.8848128318787,558.8848128318787,558.8848128318787,558.8848128318787,558.8848128318787,561.3709194660187,1,2.624932289123535,None,,,,,,,,,,,,,,,,,,206,1,2025-03-07_09h54.45.760,comp,2024.2.4,55.98997219392965,2025-03-07 09h54.56.295660 -0500,
118,118,0,filler_square,None,None,None,None,None,None,None,None,None,None,1,1.0143241882324219,None,,,,,0,0,0,0,0,118,118,186,561.3875832557678,,,,,,,,,,,,,,,,,,,,,,,,,,,,,,,,,,,,,,,,,,,,,,,,,,,,,,,,,,,,,,,,,,,,,,,,,,,,,,,,,135.2863915563951,135.2863915563951,101.5748193904808,80.08722236102048,121.25395429485114,100.61611004580914,3.0,3.2,-204,-256,0,12,186,259,561.373113155365,561.3731942176819,561.3768081665039,561.3875832557678,561.539790391922,561.539790391922,561.539790391922,561.539790391922,561.539790391922,561.539790391922,561.539790391922,562.4169914722443,1,1.0143241882324219,None,,,,,,,,,,,,,,,,,,206,1,2025-03-07_09h54.45.760,comp,2024.2.4,55.98997219392965,2025-03-07 09h54.56.295660 -0500,
119,119,0,filler_square,None,None,None,None,None,None,None,None,None,None,1,0.8880519866943359,None,,,,,0,0,0,0,0,119,119,198,562.4339964389801,,,,,,,,,,,,,,,,,,,,,,,,,,,,,,,,,,,,,,,,,,,,,,,,,,,,,,,,,,,,,,,,,,,,,,,,,,,,,,,,,133.1304990081948,133.1304990081948,102.43520324630083,101.06593282880786,104.98703270264008,68.48147140951357,1.0,1.2,-213,10,0,2,181,-1,562.4187576770782,562.4188358783722,562.4217340946198,562.4339964389801,562.5858368873596,562.5858368873596,562.5858368873596,562.5858368873596,562.5858368873596,562.5858368873596,562.5858368873596,563.3252959251404,1,0.8880519866943359,None,,,,,,,,,,,,,,,,,,206,1,2025-03-07_09h54.45.760,comp,2024.2.4,55.98997219392965,2025-03-07 09h54.56.295660 -0500,
120,120,0,filler_random,None,None,None,None,None,None,None,None,None,None,3,1.0599896907806396,None,,,,,0,0,0,0,0,120,120,151,563.3422384262085,,,,,,,,,,,,,,,,,,,,,,,,,,,,,,,,,,,,,,,,,,,,,,,,,,,,,,,,,,,,,,,,,,,,,,,,,,,,,,,,,65.517761831454,154.4231823601816,151.97437213695076,65.18953211889722,178.8288795268086,98.78451553109078,3.0,3.1,-206,269,0,11,178,-255,563.3272285461426,563.327312707901,563.3305158615112,563.3422384262085,563.4828882217407,563.4828882217407,563.4828882217407,563.4828882217407,563.4828882217407,563.4828882217407,563.4828882217407,564.4196603298187,3,1.0599896907806396,None,,,,,,,,,,,,,,,,,,206,1,2025-03-07_09h54.45.760,comp,2024.2.4,55.98997219392965,2025-03-07 09h54.56.295660 -0500,
121,121,0,critical,hwd,35.0,4.0,upper,200.0,125.0,125.0,200.0,127.0,127.0,1,5.23811149597168,None,,,,,0,0,0,0,0,121,121,101,564.4356231689453,,,,,,,,,,,,,,,,,,,,,,,,,,,,,,,,,,,,,,,,,,,,,,,,,,,,,,,,,,,,,,,,,,,,,,,,,,,,,,,,,200.0,125.0,125.0,200.0,127.0,127.0,4.0,4.1,-258,-286,0,-8,260,-259,564.4211735725403,564.4212505817413,564.4244828224182,564.4356231689453,564.5771486759186,564.5771486759186,564.5771486759186,564.5771486759186,564.5771486759186,564.5771486759186,564.5771486759186,569.6887664794922,1,5.23811149597168,None,,,,,,,,,,,,,,,,,,206,1,2025-03-07_09h54.45.760,comp,2024.2.4,55.98997219392965,2025-03-07 09h54.56.295660 -0500,
122,122,0,filler_random,None,None,None,None,None,None,None,None,None,None,2,1.193181037902832,None,,,,,0,0,0,0,0,122,122,161,569.7049367427826,,,,,,,,,,,,,,,,,,,,,,,,,,,,,,,,,,,,,,,,,,,,,,,,,,,,,,,,,,,,,,,,,,,,,,,,,,,,,,,,,69.06920949826605,75.65476431793837,110.01470829664186,191.43735125409248,117.33809742625871,108.05641409536511,2.1,2.12,-230,-253,0,-252,246,275,569.6908102035522,569.6908938884735,569.6945297718048,569.7049367427826,569.8424608707428,569.8424608707428,569.8424608707428,569.8424608707428,569.8424608707428,569.8424608707428,569.8424608707428,570.9069061279297,2,1.193181037902832,None,,,,,,,,,,,,,,,,,,206,1,2025-03-07_09h54.45.760,comp,2024.2.4,55.98997219392965,2025-03-07 09h54.56.295660 -0500,
123,123,0,filler_random,None,None,None,None,None,None,None,None,None,None,3,1.2632436752319336,None,,,,,0,0,0,0,0,123,123,147,570.9227857589722,,,,,,,,,,,,,,,,,,,,,,,,,,,,,,,,,,,,,,,,,,,,,,,,,,,,,,,,,,,,,,,,,,,,,,,,,,,,,,,,,102.13740036754305,110.39300632363836,130.24262834989725,74.21386223563974,193.78112326158495,178.53694844205836,2.2,2.22,-188,269,0,-281,222,-288,570.9086680412292,570.9087946414948,570.9121220111847,570.9227857589722,571.0712287425995,571.0712287425995,571.0712287425995,571.0712287425995,571.0712287425995,571.0712287425995,571.0712287425995,572.1926102638245,3,1.2632436752319336,None,,,,,,,,,,,,,,,,,,206,1,2025-03-07_09h54.45.760,comp,2024.2.4,55.98997219392965,2025-03-07 09h54.56.295660 -0500,
124,124,0,filler_square,None,None,None,None,None,None,None,None,None,None,2,1.0484445095062256,None,,,,,0,0,0,0,0,124,124,208,572.2091686725616,,,,,,,,,,,,,,,,,,,,,,,,,,,,,,,,,,,,,,,,,,,,,,,,,,,,,,,,,,,,,,,,,,,,,,,,,,,,,,,,,131.62583883504107,98.35252273058919,193.7865614515777,193.7865614515777,163.72416501422902,149.52704227502454,2.2,2.22,-242,262,0,-277,268,-277,572.1946620941162,572.1947786808014,572.1983199119568,572.2091686725616,572.3562173843384,572.3562173843384,572.3562173843384,572.3562173843384,572.3562173843384,572.3562173843384,572.3562173843384,573.2727749347687,2,1.0484445095062256,None,,,,,,,,,,,,,,,,,,206,1,2025-03-07_09h54.45.760,comp,2024.2.4,55.98997219392965,2025-03-07 09h54.56.295660 -0500,
125,125,0,critical,wdh,35.0,2.1,upper,125.0,200.0,127.0,127.0,200.0,125.0,1,2.0847015380859375,None,,,,,0,0,0,0,0,125,125,9,573.2928440570831,,,,,,,,,,,,,,,,,,,,,,,,,,,,,,,,,,,,,,,,,,,,,,,,,,,,,,,,,,,,,,,,,,,,,,,,,,,,,,,,,125.0,200.0,127.0,127.0,200.0,125.0,2.1,2.12,-260,-266,0,-250,222,272,573.2743601799011,573.2744376659393,573.2774794101715,573.2928440570831,573.4428215026855,573.4428215026855,573.4428215026855,573.4428215026855,573.4428215026855,573.4428215026855,573.4428215026855,575.390376329422,1,2.0847015380859375,None,,,,,,,,,,,,,,,,,,206,1,2025-03-07_09h54.45.760,comp,2024.2.4,55.98997219392965,2025-03-07 09h54.56.295660 -0500,
126,126,0,critical,hdw,20.0,2.1,lower,133.0,57.0,78.0,78.0,57.0,133.0,3,5.879912376403809,None,,,,,0,0,0,0,0,126,126,46,575.4100062847137,,,,,,,,,,,,,,,,,,,,,,,,,,,,,,,,,,,,,,,,,,,,,,,,,,,,,,,,,,,,,,,,,,,,,,,,,,,,,,,,,133.0,57.0,78.0,78.0,57.0,133.0,2.1,2.12,-164,-268,0,-280,202,281,575.3919258117676,575.3920059204102,575.3951687812805,575.4100062847137,575.5576298236847,575.5576298236847,575.5576298236847,575.5576298236847,575.5576298236847,575.5576298236847,575.5576298236847,581.3016626834869,3,5.879912376403809,None,,,,,,,,,,,,,,,,,,206,1,2025-03-07_09h54.45.760,comp,2024.2.4,55.98997219392965,2025-03-07 09h54.56.295660 -0500,
127,127,0,critical,dhw,20.0,4.0,lower,78.0,78.0,133.0,57.0,57.0,133.0,3,6.81042742729187,None,,,,,0,0,0,0,0,127,127,58,581.3192014694214,,,,,,,,,,,,,,,,,,,,,,,,,,,,,,,,,,,,,,,,,,,,,,,,,,,,,,,,,,,,,,,,,,,,,,,,,,,,,,,,,78.0,78.0,133.0,57.0,57.0,133.0,4.0,4.2,-164,8,0,-261,191,10,581.3031613826752,581.3032405376434,581.306205034256,581.3192014694214,581.4578750133514,581.4578750133514,581.4578750133514,581.4578750133514,581.4578750133514,581.4578750133514,581.4578750133514,588.1443400382996,3,6.81042742729187,None,,,,,,,,,,,,,,,,,,206,1,2025-03-07_09h54.45.760,comp,2024.2.4,55.98997219392965,2025-03-07 09h54.56.295660 -0500,
128,128,0,critical,hdw,35.0,4.0,lower,133.0,57.0,70.0,70.0,57.0,133.0,1,2.6105329990386963,None,,,,,0,0,0,0,0,128,128,112,588.1598808765411,,,,,,,,,,,,,,,,,,,,,,,,,,,,,,,,,,,,,,,,,,,,,,,,,,,,,,,,,,,,,,,,,,,,,,,,,,,,,,,,,133.0,57.0,70.0,70.0,57.0,133.0,4.0,4.1,-160,-262,0,-18,198,-257,588.1459839344025,588.1461145877838,588.149551153183,588.1598808765411,588.3094639778137,588.3094639778137,588.3094639778137,588.3094639778137,588.3094639778137,588.3094639778137,588.3094639778137,590.77916431427,1,2.6105329990386963,None,,,,,,,,,,,,,,,,,,206,1,2025-03-07_09h54.45.760,comp,2024.2.4,55.98997219392965,2025-03-07 09h54.56.295660 -0500,
129,129,0,filler_random,None,None,None,None,None,None,None,None,None,None,3,1.206113338470459,None,,,,,0,0,0,0,0,129,129,163,590.7955734729767,,,,,,,,,,,,,,,,,,,,,,,,,,,,,,,,,,,,,,,,,,,,,,,,,,,,,,,,,,,,,,,,,,,,,,,,,,,,,,,,,147.12270686116779,102.08687025303384,93.60520510435697,78.70330864726904,168.85802878175093,196.76391124744472,3.0,3.2,-186,-274,0,-5,234,254,590.7808790206909,590.7809607982635,590.7847785949707,590.7955734729767,590.9406318664551,590.9406318664551,590.9406318664551,590.9406318664551,590.9406318664551,590.9406318664551,590.9406318664551,592.0201499462128,3,1.206113338470459,None,,,,,,,,,,,,,,,,,,206,1,2025-03-07_09h54.45.760,comp,2024.2.4,55.98997219392965,2025-03-07 09h54.56.295660 -0500,
130,130,0,critical,dhw,20.0,2.1,lower,78.0,78.0,133.0,57.0,57.0,133.0,1,2.0747270584106445,None,,,,,0,0,0,0,0,130,130,2,592.0390765666962,,,,,,,,,,,,,,,,,,,,,,,,,,,,,,,,,,,,,,,,,,,,,,,,,,,,,,,,,,,,,,,,,,,,,,,,,,,,,,,,,78.0,78.0,133.0,57.0,57.0,133.0,2.1,2.11,-164,276,0,260,191,-263,592.0216147899628,592.0216915607452,592.0245966911316,592.0390765666962,592.1751799583435,592.1751799583435,592.1751799583435,592.1751799583435,592.1751799583435,592.1751799583435,592.1751799583435,594.1162061691284,1,2.0747270584106445,None,,,,,,,,,,,,,,,,,,206,1,2025-03-07_09h54.45.760,comp,2024.2.4,55.98997219392965,2025-03-07 09h54.56.295660 -0500,
131,131,0,critical,dwh,20.0,3.0,lower,78.0,78.0,57.0,133.0,133.0,57.0,2,1.5092313289642334,None,,,,,0,0,0,0,0,131,131,68,594.1323401927948,,,,,,,,,,,,,,,,,,,,,,,,,,,,,,,,,,,,,,,,,,,,,,,,,,,,,,,,,,,,,,,,,,,,,,,,,,,,,,,,,78.0,78.0,57.0,133.0,133.0,57.0,3.0,3.2,-202,-255,0,12,191,277,594.1179523468018,594.1181082725525,594.1215529441833,594.1323401927948,594.2715375423431,594.2715375423431,594.2715375423431,594.2715375423431,594.2715375423431,594.2715375423431,594.2715375423431,595.6513803005219,2,1.5092313289642334,None,,,,,,,,,,,,,,,,,,206,1,2025-03-07_09h54.45.760,comp,2024.2.4,55.98997219392965,2025-03-07 09h54.56.295660 -0500,
132,132,0,critical,whd,20.0,4.0,upper,125.0,200.0,200.0,125.0,141.0,141.0,1,2.2467763423919678,None,,,,,0,0,0,0,0,132,132,95,595.6673185825348,,,,,,,,,,,,,,,,,,,,,,,,,,,,,,,,,,,,,,,,,,,,,,,,,,,,,,,,,,,,,,,,,,,,,,,,,,,,,,,,,125.0,200.0,200.0,125.0,141.0,141.0,4.0,4.1,-258,-287,0,6,229,-254,595.6529650688171,595.653044462204,595.6559641361237,595.6673185825348,595.8142640590668,595.8142640590668,595.8142640590668,595.8142640590668,595.8142640590668,595.8142640590668,595.8142640590668,597.92156457901,1,2.2467763423919678,None,,,,,,,,,,,,,,,,,,206,1,2025-03-07_09h54.45.760,comp,2024.2.4,55.98997219392965,2025-03-07 09h54.56.295660 -0500,
133,133,0,critical,dhw,20.0,1.0,upper,141.0,141.0,200.0,125.0,125.0,200.0,1,5.261946678161621,None,,,,,0,0,0,0,0,133,133,55,597.9396080970764,,,,,,,,,,,,,,,,,,,,,,,,,,,,,,,,,,,,,,,,,,,,,,,,,,,,,,,,,,,,,,,,,,,,,,,,,,,,,,,,,141.0,141.0,200.0,125.0,125.0,200.0,1.0,1.1,-709,258,-480,282,-222,274,597.9230892658234,597.9231667518616,597.9263753890991,597.9396080970764,598.0809783935547,598.0809783935547,598.0809783935547,598.0809783935547,598.0809783935547,598.0809783935547,598.0809783935547,603.2165081501007,1,5.261946678161621,None,,,,,,,,,,,,,,,,,,206,1,2025-03-07_09h54.45.760,comp,2024.2.4,55.98997219392965,2025-03-07 09h54.56.295660 -0500,
134,134,0,filler_random,None,None,None,None,None,None,None,None,None,None,1,1.5299105644226074,None,,,,,0,0,0,0,0,134,134,167,603.2324709892273,,,,,,,,,,,,,,,,,,,,,,,,,,,,,,,,,,,,,,,,,,,,,,,,,,,,,,,,,,,,,,,,,,,,,,,,,,,,,,,,,101.05362132870266,128.22278686857078,76.10265653482703,91.80138683154132,73.4192408068871,105.52475844676229,3.0,3.2,-206,-288,0,-13,195,288,603.2182748317719,603.2183525562286,603.2213072776794,603.2324709892273,603.3856201171875,603.3856201171875,603.3856201171875,603.3856201171875,603.3856201171875,603.3856201171875,603.3856201171875,604.7692527770996,1,1.5299105644226074,None,,,,,,,,,,,,,,,,,,206,1,2025-03-07_09h54.45.760,comp,2024.2.4,55.98997219392965,2025-03-07 09h54.56.295660 -0500,
135,135,0,critical,wdh,35.0,4.0,upper,125.0,200.0,127.0,127.0,200.0,125.0,1,1.6962611675262451,None,,,,,0,0,0,0,0,135,135,77,604.7852373123169,,,,,,,,,,,,,,,,,,,,,,,,,,,,,,,,,,,,,,,,,,,,,,,,,,,,,,,,,,,,,,,,,,,,,,,,,,,,,,,,,125.0,200.0,127.0,127.0,200.0,125.0,4.0,4.2,-260,-11,0,-266,222,-13,604.7711701393127,604.7712523937225,604.7743015289307,604.7852373123169,604.9344341754913,604.9344341754913,604.9344341754913,604.9344341754913,604.9344341754913,604.9344341754913,604.9344341754913,606.4997773170471,1,1.6962611675262451,None,,,,,,,,,,,,,,,,,,206,1,2025-03-07_09h54.45.760,comp,2024.2.4,55.98997219392965,2025-03-07 09h54.56.295660 -0500,
136,136,0,critical,whd,20.0,3.0,lower,57.0,133.0,133.0,57.0,78.0,78.0,3,6.365244388580322,None,,,,,0,0,0,0,0,136,136,92,606.5164225101471,,,,,,,,,,,,,,,,,,,,,,,,,,,,,,,,,,,,,,,,,,,,,,,,,,,,,,,,,,,,,,,,,,,,,,,,,,,,,,,,,57.0,133.0,133.0,57.0,78.0,78.0,3.0,3.2,-191,-285,0,-19,164,269,606.5012943744659,606.5013704299927,606.5045828819275,606.5164225101471,606.6695699691772,606.6695699691772,606.6695699691772,606.6695699691772,606.6695699691772,606.6695699691772,606.6695699691772,612.891844034195,3,6.365244388580322,None,,,,,,,,,,,,,,,,,,206,1,2025-03-07_09h54.45.760,comp,2024.2.4,55.98997219392965,2025-03-07 09h54.56.295660 -0500,
137,137,0,critical,hwd,35.0,3.0,lower,133.0,57.0,57.0,133.0,70.0,70.0,2,2.7505390644073486,None,,,,,0,0,0,0,0,137,137,98,612.9072308540344,,,,,,,,,,,,,,,,,,,,,,,,,,,,,,,,,,,,,,,,,,,,,,,,,,,,,,,,,,,,,,,,,,,,,,,,,,,,,,,,,133.0,57.0,57.0,133.0,70.0,70.0,3.0,3.2,-191,-290,0,-12,198,270,612.893358707428,612.893438577652,612.8963477611542,612.9072308540344,613.051548242569,613.051548242569,613.051548242569,613.051548242569,613.051548242569,613.051548242569,613.051548242569,615.6685597896576,2,2.7505390644073486,None,,,,,,,,,,,,,,,,,,206,1,2025-03-07_09h54.45.760,comp,2024.2.4,55.98997219392965,2025-03-07 09h54.56.295660 -0500,
138,138,0,critical,hwd,20.0,2.1,lower,133.0,57.0,57.0,133.0,78.0,78.0,3,2.7950448989868164,None,,,,,0,0,0,0,0,138,138,42,615.6948547363281,,,,,,,,,,,,,,,,,,,,,,,,,,,,,,,,,,,,,,,,,,,,,,,,,,,,,,,,,,,,,,,,,,,,,,,,,,,,,,,,,133.0,57.0,57.0,133.0,78.0,78.0,2.1,2.12,-191,-264,0,-279,202,280,615.6700704097748,615.6701474189758,615.6732256412506,615.6948547363281,615.8369634151459,615.8369634151459,615.8369634151459,615.8369634151459,615.8369634151459,615.8369634151459,615.8369634151459,618.4938213825226,3,2.7950448989868164,None,,,,,,,,,,,,,,,,,,206,1,2025-03-07_09h54.45.760,comp,2024.2.4,55.98997219392965,2025-03-07 09h54.56.295660 -0500,
139,139,0,filler_random,None,None,None,None,None,None,None,None,None,None,2,1.060302495956421,None,,,,,0,0,0,0,0,139,139,156,618.5092492103577,,,,,,,,,,,,,,,,,,,,,,,,,,,,,,,,,,,,,,,,,,,,,,,,,,,,,,,,,,,,,,,,,,,,,,,,,,,,,,,,,66.20956251755288,78.50453071538917,185.80055921391798,110.31980709864928,67.17636416294529,196.86636733309703,3.0,3.1,-190,282,0,-9,250,-271,618.4955224990845,618.495600938797,618.498527765274,618.5092492103577,618.653849363327,618.653849363327,618.653849363327,618.653849363327,618.653849363327,618.653849363327,618.653849363327,619.5870311260223,2,1.060302495956421,None,,,,,,,,,,,,,,,,,,206,1,2025-03-07_09h54.45.760,comp,2024.2.4,55.98997219392965,2025-03-07 09h54.56.295660 -0500,
