thisN,thisTrialN,thisRepN,effect,order,distance,config,diag,h_1,w_1,h_2,w_2,h_3,w_3,rect_choice.keys,rect_choice.rt,rect_choice.duration,instructions_loop.thisRepN,instructions_loop.thisTrialN,instructions_loop.thisN,instructions_loop.thisIndex,blocks.thisRepN,blocks.thisTrialN,blocks.thisN,blocks.thisIndex,trials.thisRepN,trials.thisTrialN,trials.thisN,trials.thisIndex,thisRow.t,notes,consent.started,agree_button.started,decline_button.started,consent_img.started,mouse.started,consent.stopped,agree_button.numClicks,agree_button.timesOn,agree_button.timesOff,decline_button.numClicks,decline_button.timesOn,decline_button.timesOff,mouse.x,mouse.y,mouse.leftButton,mouse.midButton,mouse.rightButton,mouse.time,mouse.clicked_name,exp_params.started,exp_params.stopped,welcome.started,welcome_text.started,welcome.stopped,instructions_1.started,instructions_1_text_1.started,instructions_1_text_2.started,key_resp.started,instructions_1.stopped,instructions_loop.key_resp.keys,instructions_loop.key_resp.rt,instructions_loop.key_resp.duration,instructions_2.started,instructions_2_text_1.started,instructions_2_text_2.started,key_resp_2.started,instructions_2.stopped,instructions_loop.key_resp_2.keys,instructions_loop.key_resp_2.rt,instructions_loop.key_resp_2.duration,instructions_3.started,instructions_3_text_1.started,r1_instr3.started,r2_instr3.started,r3_instr3.started,r1_instr3_label.started,r2_instr3_label.started,r3_instr3_label.started,instructions_3_text_3.started,instructions_3_text_4.started,key_resp_3.started,instructions_3.stopped,instructions_loop.key_resp_3.keys,instructions_loop.key_resp_3.rt,instructions_loop.key_resp_3.duration,instructions_4.started,instructions_4_text_1.started,instructions_4_text_3.started,instructions_4_text_2.started,key_resp_4.started,instructions_4.stopped,instructions_loop.key_resp_4.keys,instructions_loop.key_resp_4.rt,instructions_loop.key_resp_4.duration,instructions_5.started,instructions_5_text_1.started,instructions_5_text_2.started,key_resp_5.started,instructions_5.stopped,instructions_loop.key_resp_5.keys,instructions_loop.key_resp_5.rt,instructions_loop.key_resp_5.duration,start_exp.started,start_exp_text.started,key_resp_6.started,start_exp.stopped,key_resp_6.keys,key_resp_6.rt,key_resp_6.duration,h_1_tmp,w_1_tmp,h_2_tmp,w_2_tmp,h_3_tmp,w_3_tmp,config_tmp,config_tmp_1,r_1_x,r_1_y,r_2_x,r_2_y,r_3_x,r_3_y,pre_trial.started,pre_trial.stopped,choice_trial.started,rect_choice.started,r_1.started,r_2.started,r_3.started,r_1_label.started,r_2_label.started,r_3_label.started,prompt.started,choice_trial.stopped,trials.rect_choice.keys,trials.rect_choice.rt,trials.rect_choice.duration,end_block.started,end_block_text.started,end_block.stopped,end.started,end_text.started,key_resp_7.started,end.stopped,key_resp_7.keys,key_resp_7.rt,key_resp_7.duration,debriefing.started,debrief_form.started,end_debrief.started,debriefing.stopped,end_debrief.keys,end_debrief.rt,end_debrief.duration,participant,computer,date,expName,psychopyVersion,frameRate,expStart,
,,,,,,,,,,,,,,,,,,,,,,,,,,,,,,,0.014679670333862305,0.038809776306152344,0.038809776306152344,0.038809776306152344,0.014496564865112305,10.960725545883179,1,[10.919655799865723],[10.919683933258057],0,,,[-108.0],[-537.0],[1],[0],[0],[10.945524215698242],['agree_button'],,,,,,,,,,,,,,,,,,,,,,,,,,,,,,,,,,,,,,,,,,,,,,,,,,,,,,,,,,,,,,,,,,,,,,,,,,,,,,,,,,,,,,,,,,,,,,,,,,,,,,,,,,,207,2,2025-03-07_09h59.18.083,comp,2024.2.4,56.97497575275141,2025-03-07 09h59.25.574689 -0500,
,,,,,,,,,,,,,,,,,,,,,,,,,,,,,,,,,,,,,,,,,,,,,,,,,,10.96127200126648,10.961330890655518,,,,,,,,,,,,,,,,,,,,,,,,,,,,,,,,,,,,,,,,,,,,,,,,,,,,,,,,,,,,,,,,,,,,,,,,,,,,,,,,,,,,,,,,,,,,,,,,,,,,,,,,,207,2,2025-03-07_09h59.18.083,comp,2024.2.4,56.97497575275141,2025-03-07 09h59.25.574689 -0500,
,,,,,,,,,,,,,,,,,,,,,,,,,,,,,,,,,,,,,,,,,,,,,,,,,,,,10.96136999130249,10.979327917098999,12.968750476837158,,,,,,,,,,,,,,,,,,,,,,,,,,,,,,,,,,,,,,,,,,,,,,,,,,,,,,,,,,,,,,,,,,,,,,,,,,,,,,,,,,,,,,,,,,,,,,,,,,,,,,207,2,2025-03-07_09h59.18.083,comp,2024.2.4,56.97497575275141,2025-03-07 09h59.25.574689 -0500,
0,0,0,,,,,,,,,,,,,,,0,0,0,0,,,,,,,,,12.985499620437622,,,,,,,,,,,,,,,,,,,,,,,,,,12.969635963439941,12.985499620437622,12.985499620437622,14.46738862991333,18.423808336257935,space,3.9443414211273193,None,18.423954248428345,18.44240927696228,18.44240927696228,19.9375,28.457996129989624,space,8.514322757720947,None,28.45814561843872,28.48853850364685,28.48853850364685,28.48853850364685,28.48853850364685,28.48853850364685,28.48853850364685,28.48853850364685,28.48853850364685,28.48853850364685,29.972925424575806,31.46785879135132,space,1.4868600368499756,None,31.46801495552063,31.484768390655518,31.484768390655518,31.484768390655518,32.97354769706726,42.05970358848572,space,9.078219175338745,None,42.059855937957764,42.07717680931091,42.07717680931091,43.56165051460266,44.67946100234985,space,1.113633632659912,None,44.67968678474426,44.69507122039795,44.69507122039795,45.596957206726074,space,0.8927161693572998,None,,,,,,,,,,,,,,,,,,,,,,,,,,,,,,,,,,,,,,,,,,,,,,,207,2,2025-03-07_09h59.18.083,comp,2024.2.4,56.97497575275141,2025-03-07 09h59.25.574689 -0500,
0,0,0,filler_random,None,None,None,None,None,None,None,None,None,None,1,3.968172073364258,None,,,,,0,0,0,0,0,0,0,130,45.67546463012695,,,,,,,,,,,,,,,,,,,,,,,,,,,,,,,,,,,,,,,,,,,,,,,,,,,,,,,,,,,,,,,,,,,,,,,,,,,,,,,,,155.33146912063532,188.56183325418056,126.633749310116,148.75249638651746,82.71737186170424,73.94733717392852,4.0,4.2,-265,-17,0,-274,207,-17,45.65872931480408,45.658767223358154,45.660173177719116,45.67546463012695,45.82107925415039,45.82107925415039,45.82107925415039,45.82107925415039,45.82107925415039,45.82107925415039,45.82107925415039,49.648221015930176,1,3.968172073364258,None,,,,,,,,,,,,,,,,,,207,2,2025-03-07_09h59.18.083,comp,2024.2.4,56.97497575275141,2025-03-07 09h59.25.574689 -0500,
1,1,0,filler_random,None,None,None,None,None,None,None,None,None,None,1,2.699127197265625,None,,,,,0,0,0,0,0,1,1,156,49.664522647857666,,,,,,,,,,,,,,,,,,,,,,,,,,,,,,,,,,,,,,,,,,,,,,,,,,,,,,,,,,,,,,,,,,,,,,,,,,,,,,,,,166.03538175605115,156.38013682848177,62.96353261491552,157.97658320071997,132.22667272072425,63.77065430625175,1.0,1.2,-253,12,0,7,207,5,49.64980483055115,49.64986491203308,49.653138637542725,49.664522647857666,49.81403088569641,49.81403088569641,49.81403088569641,49.81403088569641,49.81403088569641,49.81403088569641,49.81403088569641,52.37170100212097,1,2.699127197265625,None,,,,,,,,,,,,,,,,,,207,2,2025-03-07_09h59.18.083,comp,2024.2.4,56.97497575275141,2025-03-07 09h59.25.574689 -0500,
2,2,0,critical,wdh,35.0,4.0,lower,57.0,133.0,70.0,70.0,133.0,57.0,3,3.407672166824341,None,,,,,0,0,0,0,0,2,2,76,52.38790559768677,,,,,,,,,,,,,,,,,,,,,,,,,,,,,,,,,,,,,,,,,,,,,,,,,,,,,,,,,,,,,,,,,,,,,,,,,,,,,,,,,57.0,133.0,70.0,70.0,133.0,57.0,4.0,4.1,-198,-267,0,-4,160,-270,52.37340331077576,52.37353849411011,52.376983404159546,52.38790559768677,52.53404498100281,52.53404498100281,52.53404498100281,52.53404498100281,52.53404498100281,52.53404498100281,52.53404498100281,55.7994430065155,3,3.407672166824341,None,,,,,,,,,,,,,,,,,,207,2,2025-03-07_09h59.18.083,comp,2024.2.4,56.97497575275141,2025-03-07 09h59.25.574689 -0500,
3,3,0,filler_random,None,None,None,None,None,None,None,None,None,None,1,1.2813208103179932,None,,,,,0,0,0,0,0,3,3,166,55.817771196365356,,,,,,,,,,,,,,,,,,,,,,,,,,,,,,,,,,,,,,,,,,,,,,,,,,,,,,,,,,,,,,,,,,,,,,,,,,,,,,,,,153.30888238733172,171.39330639284168,70.33561013015938,103.9546039814012,117.84171276615385,108.99323522001546,1.0,1.1,-714,269,-480,273,-278,260,55.801159143447876,55.80123949050903,55.80461382865906,55.817771196365356,55.96765375137329,55.96765375137329,55.96765375137329,55.96765375137329,55.96765375137329,55.96765375137329,55.96765375137329,57.1110417842865,1,1.2813208103179932,None,,,,,,,,,,,,,,,,,,207,2,2025-03-07_09h59.18.083,comp,2024.2.4,56.97497575275141,2025-03-07 09h59.25.574689 -0500,
4,4,0,critical,wdh,35.0,1.0,lower,57.0,133.0,70.0,70.0,133.0,57.0,3,4.523452520370483,None,,,,,0,0,0,0,0,4,4,72,57.127697467803955,,,,,,,,,,,,,,,,,,,,,,,,,,,,,,,,,,,,,,,,,,,,,,,,,,,,,,,,,,,,,,,,,,,,,,,,,,,,,,,,,57.0,133.0,70.0,70.0,133.0,57.0,1.0,1.3,282,-259,480,-268,640,-253,57.112526655197144,57.11264109611511,57.11581993103027,57.127697467803955,57.27328014373779,57.27328014373779,57.27328014373779,57.27328014373779,57.27328014373779,57.27328014373779,57.27328014373779,61.66977119445801,3,4.523452520370483,None,,,,,,,,,,,,,,,,,,207,2,2025-03-07_09h59.18.083,comp,2024.2.4,56.97497575275141,2025-03-07 09h59.25.574689 -0500,
5,5,0,critical,hdw,20.0,2.1,upper,200.0,125.0,141.0,141.0,125.0,200.0,3,4.327111721038818,None,,,,,0,0,0,0,0,5,5,23,61.68408393859863,,,,,,,,,,,,,,,,,,,,,,,,,,,,,,,,,,,,,,,,,,,,,,,,,,,,,,,,,,,,,,,,,,,,,,,,,,,,,,,,,200.0,125.0,141.0,141.0,125.0,200.0,2.1,2.12,-229,-284,0,-278,266,276,61.671326875686646,61.67145586013794,61.67477774620056,61.68408393859863,61.83533024787903,61.83533024787903,61.83533024787903,61.83533024787903,61.83533024787903,61.83533024787903,61.83533024787903,66.02428197860718,3,4.327111721038818,None,,,,,,,,,,,,,,,,,,207,2,2025-03-07_09h59.18.083,comp,2024.2.4,56.97497575275141,2025-03-07 09h59.25.574689 -0500,
6,6,0,catch,None,None,None,None,None,None,None,None,None,None,3,1.2922372817993164,None,,,,,0,0,0,0,0,6,6,124,66.03971290588379,,,,,,,,,,,,,,,,,,,,,,,,,,,,,,,,,,,,,,,,,,,,,,,,,,,,,,,,,,,,,,,,,,,,,,,,,,,,,,,,,92,98,68,122,143,182,4.0,4.1,-206,-281,0,18,248,-265,66.0261778831482,66.02625370025635,66.02936792373657,66.03971290588379,66.1853244304657,66.1853244304657,66.1853244304657,66.1853244304657,66.1853244304657,66.1853244304657,66.1853244304657,67.3379590511322,3,1.2922372817993164,None,,,,,,,,,,,,,,,,,,207,2,2025-03-07_09h59.18.083,comp,2024.2.4,56.97497575275141,2025-03-07 09h59.25.574689 -0500,
7,7,0,critical,dhw,35.0,1.0,lower,70.0,70.0,133.0,57.0,57.0,133.0,2,3.2103471755981445,None,,,,,0,0,0,0,0,7,7,48,67.35363101959229,,,,,,,,,,,,,,,,,,,,,,,,,,,,,,,,,,,,,,,,,,,,,,,,,,,,,,,,,,,,,,,,,,,,,,,,,,,,,,,,,70.0,70.0,133.0,57.0,57.0,133.0,1.0,1.2,-160,-19,0,15,191,-15,67.33938121795654,67.33945965766907,67.3428065776825,67.35363101959229,67.50123643875122,67.50123643875122,67.50123643875122,67.50123643875122,67.50123643875122,67.50123643875122,67.50123643875122,70.57165336608887,2,3.2103471755981445,None,,,,,,,,,,,,,,,,,,207,2,2025-03-07_09h59.18.083,comp,2024.2.4,56.97497575275141,2025-03-07 09h59.25.574689 -0500,
8,8,0,critical,hwd,20.0,2.1,lower,133.0,57.0,57.0,133.0,78.0,78.0,2,2.527939558029175,None,,,,,0,0,0,0,0,8,8,18,70.58779048919678,,,,,,,,,,,,,,,,,,,,,,,,,,,,,,,,,,,,,,,,,,,,,,,,,,,,,,,,,,,,,,,,,,,,,,,,,,,,,,,,,133.0,57.0,57.0,133.0,78.0,78.0,2.1,2.11,-191,274,0,266,202,-287,70.57323122024536,70.57331037521362,70.57688426971436,70.58779048919678,70.74654459953308,70.74654459953308,70.74654459953308,70.74654459953308,70.74654459953308,70.74654459953308,70.74654459953308,73.12497234344482,2,2.527939558029175,None,,,,,,,,,,,,,,,,,,207,2,2025-03-07_09h59.18.083,comp,2024.2.4,56.97497575275141,2025-03-07 09h59.25.574689 -0500,
9,9,0,critical,hdw,20.0,1.0,lower,133.0,57.0,78.0,78.0,57.0,133.0,3,1.2530367374420166,None,,,,,0,0,0,0,0,9,9,114,73.1439197063446,,,,,,,,,,,,,,,,,,,,,,,,,,,,,,,,,,,,,,,,,,,,,,,,,,,,,,,,,,,,,,,,,,,,,,,,,,,,,,,,,133.0,57.0,78.0,78.0,57.0,133.0,1.0,1.3,316,-262,480,-288,682,-269,73.12674498558044,73.12682437896729,73.13026237487793,73.1439197063446,73.28923845291138,73.28923845291138,73.28923845291138,73.28923845291138,73.28923845291138,73.28923845291138,73.28923845291138,74.40379691123962,3,1.2530367374420166,None,,,,,,,,,,,,,,,,,,207,2,2025-03-07_09h59.18.083,comp,2024.2.4,56.97497575275141,2025-03-07 09h59.25.574689 -0500,
10,10,0,critical,dhw,35.0,4.0,lower,70.0,70.0,133.0,57.0,57.0,133.0,3,3.115323781967163,None,,,,,0,0,0,0,0,10,10,52,74.42426037788391,,,,,,,,,,,,,,,,,,,,,,,,,,,,,,,,,,,,,,,,,,,,,,,,,,,,,,,,,,,,,,,,,,,,,,,,,,,,,,,,,70.0,70.0,133.0,57.0,57.0,133.0,4.0,4.2,-160,-15,0,-273,191,18,74.4052677154541,74.40534734725952,74.40838050842285,74.42426037788391,74.57473516464233,74.57473516464233,74.57473516464233,74.57473516464233,74.57473516464233,74.57473516464233,74.57473516464233,77.55687236785889,3,3.115323781967163,None,,,,,,,,,,,,,,,,,,207,2,2025-03-07_09h59.18.083,comp,2024.2.4,56.97497575275141,2025-03-07 09h59.25.574689 -0500,
11,11,0,filler_square,None,None,None,None,None,None,None,None,None,None,2,2.782454252243042,None,,,,,0,0,0,0,0,11,11,199,77.57338500022888,,,,,,,,,,,,,,,,,,,,,,,,,,,,,,,,,,,,,,,,,,,,,,,,,,,,,,,,,,,,,,,,,,,,,,,,,,,,,,,,,69.03637152305232,69.03637152305232,68.63359001891352,66.46673255160167,68.18994191123937,63.79644923402767,3.0,3.2,-164,-254,0,-19,161,283,77.55870485305786,77.55881309509277,77.56301593780518,77.57338500022888,77.72211813926697,77.72211813926697,77.72211813926697,77.72211813926697,77.72211813926697,77.72211813926697,77.72211813926697,80.3761854171753,2,2.782454252243042,None,,,,,,,,,,,,,,,,,,207,2,2025-03-07_09h59.18.083,comp,2024.2.4,56.97497575275141,2025-03-07 09h59.25.574689 -0500,
12,12,0,filler_square,None,None,None,None,None,None,None,None,None,None,3,1.2277042865753174,None,,,,,0,0,0,0,0,12,12,182,80.39215064048767,,,,,,,,,,,,,,,,,,,,,,,,,,,,,,,,,,,,,,,,,,,,,,,,,,,,,,,,,,,,,,,,,,,,,,,,,,,,,,,,,67.91837461789405,100.47200914516233,59.61061475990347,80.9162631423479,133.78937577234328,133.78937577234328,2.2,2.22,-187,255,0,-267,203,-270,80.37827658653259,80.37835836410522,80.38179349899292,80.39215064048767,80.54104495048523,80.54104495048523,80.54104495048523,80.54104495048523,80.54104495048523,80.54104495048523,80.54104495048523,81.62682461738586,3,1.2277042865753174,None,,,,,,,,,,,,,,,,,,207,2,2025-03-07_09h59.18.083,comp,2024.2.4,56.97497575275141,2025-03-07 09h59.25.574689 -0500,
13,13,0,critical,wdh,20.0,2.1,lower,57.0,133.0,78.0,78.0,133.0,57.0,2,1.8577547073364258,None,,,,,0,0,0,0,0,13,13,10,81.64296388626099,,,,,,,,,,,,,,,,,,,,,,,,,,,,,,,,,,,,,,,,,,,,,,,,,,,,,,,,,,,,,,,,,,,,,,,,,,,,,,,,,57.0,133.0,78.0,78.0,133.0,57.0,2.1,2.12,-202,-275,0,-272,164,272,81.62853407859802,81.6286518573761,81.63207054138184,81.64296388626099,81.79040193557739,81.79040193557739,81.79040193557739,81.79040193557739,81.79040193557739,81.79040193557739,81.79040193557739,83.50989747047424,2,1.8577547073364258,None,,,,,,,,,,,,,,,,,,207,2,2025-03-07_09h59.18.083,comp,2024.2.4,56.97497575275141,2025-03-07 09h59.25.574689 -0500,
14,14,0,critical,hdw,35.0,1.0,upper,200.0,125.0,127.0,127.0,125.0,200.0,1,4.268572807312012,None,,,,,0,0,0,0,0,14,14,109,83.52663254737854,,,,,,,,,,,,,,,,,,,,,,,,,,,,,,,,,,,,,,,,,,,,,,,,,,,,,,,,,,,,,,,,,,,,,,,,,,,,,,,,,200.0,125.0,127.0,127.0,125.0,200.0,1.0,1.1,-702,276,-480,267,-220,270,83.51152992248535,83.51164484024048,83.51484227180481,83.52663254737854,83.67507076263428,83.67507076263428,83.67507076263428,83.67507076263428,83.67507076263428,83.67507076263428,83.67507076263428,87.80946683883667,1,4.268572807312012,None,,,,,,,,,,,,,,,,,,207,2,2025-03-07_09h59.18.083,comp,2024.2.4,56.97497575275141,2025-03-07 09h59.25.574689 -0500,
15,15,0,filler_square,None,None,None,None,None,None,None,None,None,None,1,1.5353431701660156,None,,,,,0,0,0,0,0,15,15,179,87.8278660774231,,,,,,,,,,,,,,,,,,,,,,,,,,,,,,,,,,,,,,,,,,,,,,,,,,,,,,,,,,,,,,,,,,,,,,,,,,,,,,,,,157.03913129923222,157.03913129923222,133.37838647489144,72.82418211218177,108.64968594352837,93.66552831712181,3.0,3.1,-211,275,0,-3,179,-256,87.811279296875,87.81135654449463,87.81441354751587,87.8278660774231,87.96499156951904,87.96499156951904,87.96499156951904,87.96499156951904,87.96499156951904,87.96499156951904,87.96499156951904,89.37717366218567,1,1.5353431701660156,None,,,,,,,,,,,,,,,,,,207,2,2025-03-07_09h59.18.083,comp,2024.2.4,56.97497575275141,2025-03-07 09h59.25.574689 -0500,
16,16,0,catch,None,None,None,None,None,None,None,None,None,None,2,1.3305394649505615,None,,,,,0,0,0,0,0,16,16,129,89.39350748062134,,,,,,,,,,,,,,,,,,,,,,,,,,,,,,,,,,,,,,,,,,,,,,,,,,,,,,,,,,,,,,,,,,,,,,,,,,,,,,,,,111,79,139,186,93,97,2.1,2.12,-228,-278,0,-260,238,285,89.3792781829834,89.37935519218445,89.38310837745667,89.39350748062134,89.54265117645264,89.54265117645264,89.54265117645264,89.54265117645264,89.54265117645264,89.54265117645264,89.54265117645264,90.73208451271057,2,1.3305394649505615,None,,,,,,,,,,,,,,,,,,207,2,2025-03-07_09h59.18.083,comp,2024.2.4,56.97497575275141,2025-03-07 09h59.25.574689 -0500,
17,17,0,filler_square,None,None,None,None,None,None,None,None,None,None,2,1.806626558303833,None,,,,,0,0,0,0,0,17,17,209,90.7486641407013,,,,,,,,,,,,,,,,,,,,,,,,,,,,,,,,,,,,,,,,,,,,,,,,,,,,,,,,,,,,,,,,,,,,,,,,,,,,,,,,,133.32729537247664,169.4380678905959,170.5659131230638,170.5659131230638,122.5309082956712,168.5991304622836,2.2,2.22,-266,259,0,-276,266,-274,90.73391151428223,90.73399066925049,90.7373948097229,90.7486641407013,90.89895987510681,90.89895987510681,90.89895987510681,90.89895987510681,90.89895987510681,90.89895987510681,90.89895987510681,92.56526112556458,2,1.806626558303833,None,,,,,,,,,,,,,,,,,,207,2,2025-03-07_09h59.18.083,comp,2024.2.4,56.97497575275141,2025-03-07 09h59.25.574689 -0500,
18,18,0,filler_random,None,None,None,None,None,None,None,None,None,None,3,1.013122797012329,None,,,,,0,0,0,0,0,18,18,152,92.58270812034607,,,,,,,,,,,,,,,,,,,,,,,,,,,,,,,,,,,,,,,,,,,,,,,,,,,,,,,,,,,,,,,,,,,,,,,,,,,,,,,,,168.07794109919456,59.217943126423386,77.42949893199594,109.1130868092281,175.8080044151996,173.08821137227005,2.2,2.21,-180,-288,0,261,237,261,92.56740641593933,92.56748557090759,92.57102012634277,92.58270812034607,92.72606325149536,92.72606325149536,92.72606325149536,92.72606325149536,92.72606325149536,92.72606325149536,92.72606325149536,93.61400532722473,3,1.013122797012329,None,,,,,,,,,,,,,,,,,,207,2,2025-03-07_09h59.18.083,comp,2024.2.4,56.97497575275141,2025-03-07 09h59.25.574689 -0500,
19,19,0,critical,dwh,20.0,2.1,lower,78.0,78.0,57.0,133.0,133.0,57.0,3,4.093369722366333,None,,,,,0,0,0,0,0,19,19,30,93.63061189651489,,,,,,,,,,,,,,,,,,,,,,,,,,,,,,,,,,,,,,,,,,,,,,,,,,,,,,,,,,,,,,,,,,,,,,,,,,,,,,,,,78.0,78.0,57.0,133.0,133.0,57.0,2.1,2.11,-202,277,0,265,191,-276,93.61591100692749,93.616046667099,93.6192684173584,93.63061189651489,93.77840423583984,93.77840423583984,93.77840423583984,93.77840423583984,93.77840423583984,93.77840423583984,93.77840423583984,97.72992539405823,3,4.093369722366333,None,,,,,,,,,,,,,,,,,,207,2,2025-03-07_09h59.18.083,comp,2024.2.4,56.97497575275141,2025-03-07 09h59.25.574689 -0500,
20,20,0,critical,hwd,20.0,3.0,lower,133.0,57.0,57.0,133.0,78.0,78.0,1,6.363026142120361,None,,,,,0,0,0,0,0,20,20,104,97.7459466457367,,,,,,,,,,,,,,,,,,,,,,,,,,,,,,,,,,,,,,,,,,,,,,,,,,,,,,,,,,,,,,,,,,,,,,,,,,,,,,,,,133.0,57.0,57.0,133.0,78.0,78.0,3.0,3.1,-191,254,0,-4,202,-282,97.7314281463623,97.73150491714478,97.73503875732422,97.7459466457367,97.90275764465332,97.90275764465332,97.90275764465332,97.90275764465332,97.90275764465332,97.90275764465332,97.90275764465332,104.11225080490112,1,6.363026142120361,None,,,,,,,,,,,,,,,,,,207,2,2025-03-07_09h59.18.083,comp,2024.2.4,56.97497575275141,2025-03-07 09h59.25.574689 -0500,
21,21,0,critical,dhw,20.0,2.1,upper,141.0,141.0,200.0,125.0,125.0,200.0,2,1.7295994758605957,None,,,,,0,0,0,0,0,21,21,3,104.13038802146912,,,,,,,,,,,,,,,,,,,,,,,,,,,,,,,,,,,,,,,,,,,,,,,,,,,,,,,,,,,,,,,,,,,,,,,,,,,,,,,,,141.0,141.0,200.0,125.0,125.0,200.0,2.1,2.11,-229,257,0,283,258,-265,104.11388158798218,104.11397981643677,104.11741542816162,104.13038802146912,104.26864910125732,104.26864910125732,104.26864910125732,104.26864910125732,104.26864910125732,104.26864910125732,104.26864910125732,105.87017774581909,2,1.7295994758605957,None,,,,,,,,,,,,,,,,,,207,2,2025-03-07_09h59.18.083,comp,2024.2.4,56.97497575275141,2025-03-07 09h59.25.574689 -0500,
22,22,0,filler_square,None,None,None,None,None,None,None,None,None,None,2,1.4199397563934326,None,,,,,0,0,0,0,0,22,22,192,105.88721299171448,,,,,,,,,,,,,,,,,,,,,,,,,,,,,,,,,,,,,,,,,,,,,,,,,,,,,,,,,,,,,,,,,,,,,,,,,,,,,,,,,85.98894517238526,150.68722637583994,155.29881822371368,155.29881822371368,79.57125138303188,122.2016455853242,2.1,2.11,-249,275,0,260,235,-276,105.87229943275452,105.87238240242004,105.87631130218506,105.88721299171448,106.02865886688232,106.02865886688232,106.02865886688232,106.02865886688232,106.02865886688232,106.02865886688232,106.02865886688232,107.31608629226685,2,1.4199397563934326,None,,,,,,,,,,,,,,,,,,207,2,2025-03-07_09h59.18.083,comp,2024.2.4,56.97497575275141,2025-03-07 09h59.25.574689 -0500,
23,23,0,critical,whd,20.0,1.0,lower,57.0,133.0,133.0,57.0,78.0,78.0,2,1.9025142192840576,None,,,,,0,0,0,0,0,23,23,90,107.33254218101501,,,,,,,,,,,,,,,,,,,,,,,,,,,,,,,,,,,,,,,,,,,,,,,,,,,,,,,,,,,,,,,,,,,,,,,,,,,,,,,,,57.0,133.0,133.0,57.0,78.0,78.0,1.0,1.2,-191,-6,0,-8,164,-4,107.31772136688232,107.31786966323853,107.3216164112091,107.33254218101501,107.48759317398071,107.48759317398071,107.48759317398071,107.48759317398071,107.48759317398071,107.48759317398071,107.48759317398071,109.25184941291809,2,1.9025142192840576,None,,,,,,,,,,,,,,,,,,207,2,2025-03-07_09h59.18.083,comp,2024.2.4,56.97497575275141,2025-03-07 09h59.25.574689 -0500,
24,24,0,critical,wdh,20.0,2.1,lower,57.0,133.0,78.0,78.0,133.0,57.0,3,3.239159107208252,None,,,,,0,0,0,0,0,24,24,34,109.26797246932983,,,,,,,,,,,,,,,,,,,,,,,,,,,,,,,,,,,,,,,,,,,,,,,,,,,,,,,,,,,,,,,,,,,,,,,,,,,,,,,,,57.0,133.0,78.0,78.0,133.0,57.0,2.1,2.12,-202,-281,0,-274,164,276,109.25363278388977,109.25371170043945,109.25765204429626,109.26797246932983,109.42175197601318,109.42175197601318,109.42175197601318,109.42175197601318,109.42175197601318,109.42175197601318,109.42175197601318,112.51750040054321,3,3.239159107208252,None,,,,,,,,,,,,,,,,,,207,2,2025-03-07_09h59.18.083,comp,2024.2.4,56.97497575275141,2025-03-07 09h59.25.574689 -0500,
25,25,0,filler_random,None,None,None,None,None,None,None,None,None,None,2,2.6138172149658203,None,,,,,0,0,0,0,0,25,25,135,112.53359723091125,,,,,,,,,,,,,,,,,,,,,,,,,,,,,,,,,,,,,,,,,,,,,,,,,,,,,,,,,,,,,,,,,,,,,,,,,,,,,,,,,108.25813182114338,131.87359725455775,156.21125337810582,141.20018925304083,80.21457819540537,138.90752862435318,4.0,4.1,-233,-254,0,-1,236,-284,112.51937413215637,112.51945614814758,112.52288556098938,112.53359723091125,112.68379497528076,112.68379497528076,112.68379497528076,112.68379497528076,112.68379497528076,112.68379497528076,112.68379497528076,115.15191793441772,2,2.6138172149658203,None,,,,,,,,,,,,,,,,,,207,2,2025-03-07_09h59.18.083,comp,2024.2.4,56.97497575275141,2025-03-07 09h59.25.574689 -0500,
26,26,0,critical,hdw,20.0,3.0,lower,133.0,57.0,78.0,78.0,57.0,133.0,3,5.002901792526245,None,,,,,0,0,0,0,0,26,26,116,115.16827201843262,,,,,,,,,,,,,,,,,,,,,,,,,,,,,,,,,,,,,,,,,,,,,,,,,,,,,,,,,,,,,,,,,,,,,,,,,,,,,,,,,133.0,57.0,78.0,78.0,57.0,133.0,3.0,3.2,-164,-288,0,-6,202,283,115.153733253479,115.15384531021118,115.15751433372498,115.16827201843262,115.3168637752533,115.3168637752533,115.3168637752533,115.3168637752533,115.3168637752533,115.3168637752533,115.3168637752533,120.18616843223572,3,5.002901792526245,None,,,,,,,,,,,,,,,,,,207,2,2025-03-07_09h59.18.083,comp,2024.2.4,56.97497575275141,2025-03-07 09h59.25.574689 -0500,
27,27,0,filler_random,None,None,None,None,None,None,None,None,None,None,2,1.0222258567810059,None,,,,,0,0,0,0,0,27,27,169,120.20576071739197,,,,,,,,,,,,,,,,,,,,,,,,,,,,,,,,,,,,,,,,,,,,,,,,,,,,,,,,,,,,,,,,,,,,,,,,,,,,,,,,,75.73748484777143,161.51069961553648,114.8205677615299,144.38788458113987,97.26627829745051,85.50680622205694,2.2,2.22,-249,255,0,-254,211,-259,120.18800759315491,120.18813943862915,120.1915397644043,120.20576071739197,120.35372591018677,120.35372591018677,120.35372591018677,120.35372591018677,120.35372591018677,120.35372591018677,120.35372591018677,121.2374439239502,2,1.0222258567810059,None,,,,,,,,,,,,,,,,,,207,2,2025-03-07_09h59.18.083,comp,2024.2.4,56.97497575275141,2025-03-07 09h59.25.574689 -0500,
28,28,0,critical,whd,20.0,3.0,upper,125.0,200.0,200.0,125.0,141.0,141.0,1,2.6530706882476807,None,,,,,0,0,0,0,0,28,28,93,121.25402784347534,,,,,,,,,,,,,,,,,,,,,,,,,,,,,,,,,,,,,,,,,,,,,,,,,,,,,,,,,,,,,,,,,,,,,,,,,,,,,,,,,125.0,200.0,200.0,125.0,141.0,141.0,3.0,3.2,-258,-281,0,-1,229,253,121.2390022277832,121.23908114433289,121.24327659606934,121.25402784347534,121.40533065795898,121.40533065795898,121.40533065795898,121.40533065795898,121.40533065795898,121.40533065795898,121.40533065795898,123.92297649383545,1,2.6530706882476807,None,,,,,,,,,,,,,,,,,,207,2,2025-03-07_09h59.18.083,comp,2024.2.4,56.97497575275141,2025-03-07 09h59.25.574689 -0500,
29,29,0,critical,wdh,20.0,2.1,upper,125.0,200.0,141.0,141.0,200.0,125.0,3,4.689355850219727,None,,,,,0,0,0,0,0,29,29,35,123.93826746940613,,,,,,,,,,,,,,,,,,,,,,,,,,,,,,,,,,,,,,,,,,,,,,,,,,,,,,,,,,,,,,,,,,,,,,,,,,,,,,,,,125.0,200.0,141.0,141.0,200.0,125.0,2.1,2.11,-266,288,0,270,229,-279,123.9245879650116,123.92467856407166,123.92792677879333,123.93826746940613,124.08915948867798,124.08915948867798,124.08915948867798,124.08915948867798,124.08915948867798,124.08915948867798,124.08915948867798,128.63933777809143,3,4.689355850219727,None,,,,,,,,,,,,,,,,,,207,2,2025-03-07_09h59.18.083,comp,2024.2.4,56.97497575275141,2025-03-07 09h59.25.574689 -0500,
30,30,0,critical,whd,35.0,3.0,upper,125.0,200.0,200.0,125.0,127.0,127.0,1,2.1568925380706787,None,,,,,0,0,0,0,0,30,30,87,128.65566873550415,,,,,,,,,,,,,,,,,,,,,,,,,,,,,,,,,,,,,,,,,,,,,,,,,,,,,,,,,,,,,,,,,,,,,,,,,,,,,,,,,125.0,200.0,200.0,125.0,127.0,127.0,3.0,3.2,-258,-273,0,11,222,289,128.64094066619873,128.6410255432129,128.64473915100098,128.65566873550415,128.8120470046997,128.8120470046997,128.8120470046997,128.8120470046997,128.8120470046997,128.8120470046997,128.8120470046997,130.82381796836853,1,2.1568925380706787,None,,,,,,,,,,,,,,,,,,207,2,2025-03-07_09h59.18.083,comp,2024.2.4,56.97497575275141,2025-03-07 09h59.25.574689 -0500,
31,31,0,filler_square,None,None,None,None,None,None,None,None,None,None,1,1.355309247970581,None,,,,,0,0,0,0,0,31,31,194,130.84001636505127,,,,,,,,,,,,,,,,,,,,,,,,,,,,,,,,,,,,,,,,,,,,,,,,,,,,,,,,,,,,,,,,,,,,,,,,,,,,,,,,,155.85041876196578,155.85041876196578,94.32610984973581,109.4445067579035,148.7072719004933,99.09775098307254,2.2,2.21,-229,-286,0,272,200,254,130.82560873031616,130.82568955421448,130.82922673225403,130.84001636505127,130.98988604545593,130.98988604545593,130.98988604545593,130.98988604545593,130.98988604545593,130.98988604545593,130.98988604545593,132.2122209072113,1,1.355309247970581,None,,,,,,,,,,,,,,,,,,207,2,2025-03-07_09h59.18.083,comp,2024.2.4,56.97497575275141,2025-03-07 09h59.25.574689 -0500,
32,32,0,filler_square,None,None,None,None,None,None,None,None,None,None,1,1.0225551128387451,None,,,,,0,0,0,0,0,32,32,176,132.22913527488708,,,,,,,,,,,,,,,,,,,,,,,,,,,,,,,,,,,,,,,,,,,,,,,,,,,,,,,,,,,,,,,,,,,,,,,,,,,,,,,,,177.1222013639277,177.1222013639277,78.54272008027252,130.40416212347606,72.21720478343244,88.94231560662732,4.0,4.2,-250,11,0,-270,206,-4,132.2142562866211,132.21434688568115,132.2178659439087,132.22913527488708,132.3735773563385,132.3735773563385,132.3735773563385,132.3735773563385,132.3735773563385,132.3735773563385,132.3735773563385,133.25844931602478,1,1.0225551128387451,None,,,,,,,,,,,,,,,,,,207,2,2025-03-07_09h59.18.083,comp,2024.2.4,56.97497575275141,2025-03-07 09h59.25.574689 -0500,
33,33,0,filler_square,None,None,None,None,None,None,None,None,None,None,3,1.144561529159546,None,,,,,0,0,0,0,0,33,33,186,133.27533960342407,,,,,,,,,,,,,,,,,,,,,,,,,,,,,,,,,,,,,,,,,,,,,,,,,,,,,,,,,,,,,,,,,,,,,,,,,,,,,,,,,59.121302460746655,117.9887734988837,96.11862806185947,99.15952233442417,124.27683484936254,124.27683484936254,3.0,3.1,-205,277,0,3,208,-260,133.26025533676147,133.26037526130676,133.26357889175415,133.27533960342407,133.42682480812073,133.42682480812073,133.42682480812073,133.42682480812073,133.42682480812073,133.42682480812073,133.42682480812073,134.42478013038635,3,1.144561529159546,None,,,,,,,,,,,,,,,,,,207,2,2025-03-07_09h59.18.083,comp,2024.2.4,56.97497575275141,2025-03-07 09h59.25.574689 -0500,
34,34,0,filler_square,None,None,None,None,None,None,None,None,None,None,1,1.4736888408660889,None,,,,,0,0,0,0,0,34,34,200,134.4416298866272,,,,,,,,,,,,,,,,,,,,,,,,,,,,,,,,,,,,,,,,,,,,,,,,,,,,,,,,,,,,,,,,,,,,,,,,,,,,,,,,,116.23689228429834,116.23689228429834,57.95929924424323,101.49764645814724,89.86861536891767,65.32581728448945,4.0,4.2,-205,19,0,-264,179,-17,134.4266231060028,134.42670345306396,134.43081307411194,134.4416298866272,134.59028220176697,134.59028220176697,134.59028220176697,134.59028220176697,134.59028220176697,134.59028220176697,134.59028220176697,135.93248796463013,1,1.4736888408660889,None,,,,,,,,,,,,,,,,,,207,2,2025-03-07_09h59.18.083,comp,2024.2.4,56.97497575275141,2025-03-07 09h59.25.574689 -0500,
35,35,0,critical,wdh,20.0,3.0,lower,57.0,133.0,78.0,78.0,133.0,57.0,3,2.4454147815704346,None,,,,,0,0,0,0,0,35,35,80,135.95010995864868,,,,,,,,,,,,,,,,,,,,,,,,,,,,,,,,,,,,,,,,,,,,,,,,,,,,,,,,,,,,,,,,,,,,,,,,,,,,,,,,,57.0,133.0,78.0,78.0,133.0,57.0,3.0,3.2,-202,-281,0,9,164,288,135.93474173545837,135.93487334251404,135.93876099586487,135.95010995864868,136.0914590358734,136.0914590358734,136.0914590358734,136.0914590358734,136.0914590358734,136.0914590358734,136.0914590358734,138.40340876579285,3,2.4454147815704346,None,,,,,,,,,,,,,,,,,,207,2,2025-03-07_09h59.18.083,comp,2024.2.4,56.97497575275141,2025-03-07 09h59.25.574689 -0500,
36,36,0,critical,dwh,35.0,3.0,upper,127.0,127.0,125.0,200.0,200.0,125.0,2,2.9798083305358887,None,,,,,0,0,0,0,0,36,36,63,138.424302816391,,,,,,,,,,,,,,,,,,,,,,,,,,,,,,,,,,,,,,,,,,,,,,,,,,,,,,,,,,,,,,,,,,,,,,,,,,,,,,,,,127.0,127.0,125.0,200.0,200.0,125.0,3.0,3.2,-260,-251,0,18,258,251,138.40496230125427,138.40504264831543,138.408451795578,138.424302816391,138.56133270263672,138.56133270263672,138.56133270263672,138.56133270263672,138.56133270263672,138.56133270263672,138.56133270263672,141.41084480285645,2,2.9798083305358887,None,,,,,,,,,,,,,,,,,,207,2,2025-03-07_09h59.18.083,comp,2024.2.4,56.97497575275141,2025-03-07 09h59.25.574689 -0500,
37,37,0,filler_square,None,None,None,None,None,None,None,None,None,None,3,2.1840500831604004,None,,,,,0,0,0,0,0,37,37,178,141.42762088775635,,,,,,,,,,,,,,,,,,,,,,,,,,,,,,,,,,,,,,,,,,,,,,,,,,,,,,,,,,,,,,,,,,,,,,,,,,,,,,,,,84.16670777840119,85.10224147585038,86.95829601894644,86.95829601894644,79.76636672027061,85.72502365765772,3.0,3.1,-182,281,0,-1,182,-262,141.4126398563385,141.41271829605103,141.41654706001282,141.42762088775635,141.57763671875,141.57763671875,141.57763671875,141.57763671875,141.57763671875,141.57763671875,141.57763671875,143.6282925605774,3,2.1840500831604004,None,,,,,,,,,,,,,,,,,,207,2,2025-03-07_09h59.18.083,comp,2024.2.4,56.97497575275141,2025-03-07 09h59.25.574689 -0500,
38,38,0,filler_random,None,None,None,None,None,None,None,None,None,None,2,4.462599992752075,None,,,,,0,0,0,0,0,38,38,155,143.64486932754517,,,,,,,,,,,,,,,,,,,,,,,,,,,,,,,,,,,,,,,,,,,,,,,,,,,,,,,,,,,,,,,,,,,,,,,,,,,,,,,,,80.41139572874535,101.00720793392647,122.98665062851445,182.96225099010488,63.687921518458374,135.19534328032285,2.1,2.12,-238,-273,0,-262,255,250,143.63027620315552,143.63039112091064,143.6339328289032,143.64486932754517,143.79843997955322,143.79843997955322,143.79843997955322,143.79843997955322,143.79843997955322,143.79843997955322,143.79843997955322,148.1130850315094,2,4.462599992752075,None,,,,,,,,,,,,,,,,,,207,2,2025-03-07_09h59.18.083,comp,2024.2.4,56.97497575275141,2025-03-07 09h59.25.574689 -0500,
39,39,0,filler_square,None,None,None,None,None,None,None,None,None,None,3,3.633850336074829,None,,,,,0,0,0,0,0,39,39,181,148.12931966781616,,,,,,,,,,,,,,,,,,,,,,,,,,,,,,,,,,,,,,,,,,,,,,,,,,,,,,,,,,,,,,,,,,,,,,,,,,,,,,,,,97.64572992385018,98.92702792656635,98.5779729461799,65.74183831729118,99.861979363905,99.861979363905,1.0,1.1,-658,270,-480,287,-301,264,148.11491632461548,148.11502599716187,148.11848783493042,148.12931966781616,148.28265929222107,148.28265929222107,148.28265929222107,148.28265929222107,148.28265929222107,148.28265929222107,148.28265929222107,151.7800371646881,3,3.633850336074829,None,,,,,,,,,,,,,,,,,,207,2,2025-03-07_09h59.18.083,comp,2024.2.4,56.97497575275141,2025-03-07 09h59.25.574689 -0500,
40,40,0,critical,dhw,35.0,3.0,lower,70.0,70.0,133.0,57.0,57.0,133.0,3,2.431309223175049,None,,,,,0,0,0,0,0,40,40,50,151.79626560211182,,,,,,,,,,,,,,,,,,,,,,,,,,,,,,,,,,,,,,,,,,,,,,,,,,,,,,,,,,,,,,,,,,,,,,,,,,,,,,,,,70.0,70.0,133.0,57.0,57.0,133.0,3.0,3.1,-160,275,0,14,191,-268,151.7815420627594,151.78165483474731,151.78586888313293,151.79626560211182,151.9481725692749,151.9481725692749,151.9481725692749,151.9481725692749,151.9481725692749,151.9481725692749,151.9481725692749,154.22974157333374,3,2.431309223175049,None,,,,,,,,,,,,,,,,,,207,2,2025-03-07_09h59.18.083,comp,2024.2.4,56.97497575275141,2025-03-07 09h59.25.574689 -0500,
41,41,0,critical,hdw,35.0,3.0,upper,200.0,125.0,127.0,127.0,125.0,200.0,1,2.218447685241699,None,,,,,0,0,0,0,0,41,41,111,154.24944829940796,,,,,,,,,,,,,,,,,,,,,,,,,,,,,,,,,,,,,,,,,,,,,,,,,,,,,,,,,,,,,,,,,,,,,,,,,,,,,,,,,200.0,125.0,127.0,127.0,125.0,200.0,3.0,3.2,-222,-284,0,-3,260,270,154.23131680488586,154.23139476776123,154.2350037097931,154.24944829940796,154.38336372375488,154.38336372375488,154.38336372375488,154.38336372375488,154.38336372375488,154.38336372375488,154.38336372375488,156.47618889808655,1,2.218447685241699,None,,,,,,,,,,,,,,,,,,207,2,2025-03-07_09h59.18.083,comp,2024.2.4,56.97497575275141,2025-03-07 09h59.25.574689 -0500,
42,42,0,filler_square,None,None,None,None,None,None,None,None,None,None,2,2.342499017715454,None,,,,,0,0,0,0,0,42,42,205,156.49298763275146,,,,,,,,,,,,,,,,,,,,,,,,,,,,,,,,,,,,,,,,,,,,,,,,,,,,,,,,,,,,,,,,,,,,,,,,,,,,,,,,,80.6954523963114,85.23828006335356,90.67387219117961,90.67387219117961,66.74646225906922,75.82093844963264,1.0,1.1,-664,252,-480,253,-301,263,156.47803258895874,156.47811007499695,156.48168659210205,156.49298763275146,156.63166093826294,156.63166093826294,156.63166093826294,156.63166093826294,156.63166093826294,156.63166093826294,156.63166093826294,158.84637689590454,2,2.342499017715454,None,,,,,,,,,,,,,,,,,,207,2,2025-03-07_09h59.18.083,comp,2024.2.4,56.97497575275141,2025-03-07 09h59.25.574689 -0500,
43,43,0,critical,dwh,20.0,2.1,upper,141.0,141.0,125.0,200.0,200.0,125.0,2,2.029634475708008,None,,,,,0,0,0,0,0,43,43,31,158.8622498512268,,,,,,,,,,,,,,,,,,,,,,,,,,,,,,,,,,,,,,,,,,,,,,,,,,,,,,,,,,,,,,,,,,,,,,,,,,,,,,,,,141.0,141.0,125.0,200.0,200.0,125.0,2.1,2.12,-266,-262,0,-287,258,282,158.84801173210144,158.84809756278992,158.8514702320099,158.8622498512268,159.00270628929138,159.00270628929138,159.00270628929138,159.00270628929138,159.00270628929138,159.00270628929138,159.00270628929138,160.89841437339783,2,2.029634475708008,None,,,,,,,,,,,,,,,,,,207,2,2025-03-07_09h59.18.083,comp,2024.2.4,56.97497575275141,2025-03-07 09h59.25.574689 -0500,
44,44,0,critical,dhw,20.0,2.1,lower,78.0,78.0,133.0,57.0,57.0,133.0,3,1.823899269104004,None,,,,,0,0,0,0,0,44,44,26,160.91515111923218,,,,,,,,,,,,,,,,,,,,,,,,,,,,,,,,,,,,,,,,,,,,,,,,,,,,,,,,,,,,,,,,,,,,,,,,,,,,,,,,,78.0,78.0,133.0,57.0,57.0,133.0,2.1,2.12,-164,-287,0,-259,191,280,160.90000772476196,160.9000883102417,160.90331506729126,160.91515111923218,161.06283330917358,161.06283330917358,161.06283330917358,161.06283330917358,161.06283330917358,161.06283330917358,161.06283330917358,162.74906539916992,3,1.823899269104004,None,,,,,,,,,,,,,,,,,,207,2,2025-03-07_09h59.18.083,comp,2024.2.4,56.97497575275141,2025-03-07 09h59.25.574689 -0500,
45,45,0,filler_square,None,None,None,None,None,None,None,None,None,None,1,1.1974637508392334,None,,,,,0,0,0,0,0,45,45,172,162.76620960235596,,,,,,,,,,,,,,,,,,,,,,,,,,,,,,,,,,,,,,,,,,,,,,,,,,,,,,,,,,,,,,,,,,,,,,,,,,,,,,,,,175.25104022202368,175.25104022202368,70.56323926686163,111.91647872983873,126.2585979702816,107.29001229169506,1.0,1.1,-720,266,-480,279,-274,273,162.75097274780273,162.7510540485382,162.75436282157898,162.76620960235596,162.91665124893188,162.91665124893188,162.91665124893188,162.91665124893188,162.91665124893188,162.91665124893188,162.91665124893188,163.96702432632446,1,1.1974637508392334,None,,,,,,,,,,,,,,,,,,207,2,2025-03-07_09h59.18.083,comp,2024.2.4,56.97497575275141,2025-03-07 09h59.25.574689 -0500,
46,46,0,critical,wdh,35.0,2.1,lower,57.0,133.0,70.0,70.0,133.0,57.0,3,3.02014422416687,None,,,,,0,0,0,0,0,46,46,8,163.98288011550903,,,,,,,,,,,,,,,,,,,,,,,,,,,,,,,,,,,,,,,,,,,,,,,,,,,,,,,,,,,,,,,,,,,,,,,,,,,,,,,,,57.0,133.0,70.0,70.0,133.0,57.0,2.1,2.12,-198,-271,0,-270,160,288,163.96859097480774,163.96867775917053,163.97223806381226,163.98288011550903,164.13370990753174,164.13370990753174,164.13370990753174,164.13370990753174,164.13370990753174,164.13370990753174,164.13370990753174,167.0204358100891,3,3.02014422416687,None,,,,,,,,,,,,,,,,,,207,2,2025-03-07_09h59.18.083,comp,2024.2.4,56.97497575275141,2025-03-07 09h59.25.574689 -0500,
47,47,0,critical,hdw,20.0,2.1,lower,133.0,57.0,78.0,78.0,57.0,133.0,3,1.7750835418701172,None,,,,,0,0,0,0,0,47,47,46,167.03657245635986,,,,,,,,,,,,,,,,,,,,,,,,,,,,,,,,,,,,,,,,,,,,,,,,,,,,,,,,,,,,,,,,,,,,,,,,,,,,,,,,,133.0,57.0,78.0,78.0,57.0,133.0,2.1,2.12,-164,-275,0,-287,202,287,167.02204704284668,167.0221230983734,167.02533745765686,167.03657245635986,167.18534016609192,167.18534016609192,167.18534016609192,167.18534016609192,167.18534016609192,167.18534016609192,167.18534016609192,168.81869506835938,3,1.7750835418701172,None,,,,,,,,,,,,,,,,,,207,2,2025-03-07_09h59.18.083,comp,2024.2.4,56.97497575275141,2025-03-07 09h59.25.574689 -0500,
48,48,0,filler_square,None,None,None,None,None,None,None,None,None,None,1,3.791806697845459,None,,,,,0,0,0,0,0,48,48,187,168.83541250228882,,,,,,,,,,,,,,,,,,,,,,,,,,,,,,,,,,,,,,,,,,,,,,,,,,,,,,,,,,,,,,,,,,,,,,,,,,,,,,,,,70.34212951371973,70.34212951371973,66.22220036538525,63.62145891776963,66.90048277328559,67.67312852487369,3.0,3.2,-163,-279,0,-5,162,268,168.8204698562622,168.82054901123047,168.824711561203,168.83541250228882,168.99262690544128,168.99262690544128,168.99262690544128,168.99262690544128,168.99262690544128,168.99262690544128,168.99262690544128,172.6363067626953,1,3.791806697845459,None,,,,,,,,,,,,,,,,,,207,2,2025-03-07_09h59.18.083,comp,2024.2.4,56.97497575275141,2025-03-07 09h59.25.574689 -0500,
49,49,0,critical,wdh,20.0,1.0,upper,125.0,200.0,141.0,141.0,200.0,125.0,3,1.1817221641540527,None,,,,,0,0,0,0,0,49,49,79,172.65330290794373,,,,,,,,,,,,,,,,,,,,,,,,,,,,,,,,,,,,,,,,,,,,,,,,,,,,,,,,,,,,,,,,,,,,,,,,,,,,,,,,,125.0,200.0,141.0,141.0,200.0,125.0,1.0,1.1,-746,282,-480,285,-251,253,172.63788557052612,172.63796544075012,172.64148497581482,172.65330290794373,172.80286383628845,172.80286383628845,172.80286383628845,172.80286383628845,172.80286383628845,172.80286383628845,172.80286383628845,173.85296058654785,3,1.1817221641540527,None,,,,,,,,,,,,,,,,,,207,2,2025-03-07_09h59.18.083,comp,2024.2.4,56.97497575275141,2025-03-07 09h59.25.574689 -0500,
50,50,0,critical,hdw,35.0,2.1,lower,133.0,57.0,70.0,70.0,57.0,133.0,3,2.4202120304107666,None,,,,,0,0,0,0,0,50,50,20,173.87204337120056,,,,,,,,,,,,,,,,,,,,,,,,,,,,,,,,,,,,,,,,,,,,,,,,,,,,,,,,,,,,,,,,,,,,,,,,,,,,,,,,,133.0,57.0,70.0,70.0,57.0,133.0,2.1,2.12,-160,-265,0,-253,198,253,173.8546006679535,173.8546814918518,173.85822081565857,173.87204337120056,174.02126383781433,174.02126383781433,174.02126383781433,174.02126383781433,174.02126383781433,174.02126383781433,174.02126383781433,176.29547214508057,3,2.4202120304107666,None,,,,,,,,,,,,,,,,,,207,2,2025-03-07_09h59.18.083,comp,2024.2.4,56.97497575275141,2025-03-07 09h59.25.574689 -0500,
51,51,0,critical,hdw,20.0,3.0,upper,200.0,125.0,141.0,141.0,125.0,200.0,3,1.5167975425720215,None,,,,,0,0,0,0,0,51,51,117,176.3102991580963,,,,,,,,,,,,,,,,,,,,,,,,,,,,,,,,,,,,,,,,,,,,,,,,,,,,,,,,,,,,,,,,,,,,,,,,,,,,,,,,,200.0,125.0,141.0,141.0,125.0,200.0,3.0,3.1,-229,251,0,-8,266,-258,176.29698491096497,176.2970609664917,176.30014157295227,176.3102991580963,176.45450806617737,176.45450806617737,176.45450806617737,176.45450806617737,176.45450806617737,176.45450806617737,176.45450806617737,177.84057354927063,3,1.5167975425720215,None,,,,,,,,,,,,,,,,,,207,2,2025-03-07_09h59.18.083,comp,2024.2.4,56.97497575275141,2025-03-07 09h59.25.574689 -0500,
52,52,0,filler_random,None,None,None,None,None,None,None,None,None,None,1,1.8980729579925537,None,,,,,0,0,0,0,0,52,52,133,177.85708737373352,,,,,,,,,,,,,,,,,,,,,,,,,,,,,,,,,,,,,,,,,,,,,,,,,,,,,,,,,,,,,,,,,,,,,,,,,,,,,,,,,169.864792496896,126.31664577091779,91.2761212962924,134.66250107523985,150.4087744832496,134.33117329942993,1.0,1.3,254,-256,480,-264,710,-276,177.8424141407013,177.84249114990234,177.8458285331726,177.85708737373352,178.00424981117249,178.00424981117249,178.00424981117249,178.00424981117249,178.00424981117249,178.00424981117249,178.00424981117249,179.75744462013245,1,1.8980729579925537,None,,,,,,,,,,,,,,,,,,207,2,2025-03-07_09h59.18.083,comp,2024.2.4,56.97497575275141,2025-03-07 09h59.25.574689 -0500,
53,53,0,critical,hdw,35.0,2.1,upper,200.0,125.0,127.0,127.0,125.0,200.0,3,1.7653014659881592,None,,,,,0,0,0,0,0,53,53,45,179.77395248413086,,,,,,,,,,,,,,,,,,,,,,,,,,,,,,,,,,,,,,,,,,,,,,,,,,,,,,,,,,,,,,,,,,,,,,,,,,,,,,,,,200.0,125.0,127.0,127.0,125.0,200.0,2.1,2.11,-222,258,0,282,260,-255,179.75921058654785,179.75931668281555,179.76290011405945,179.77395248413086,179.92279052734375,179.92279052734375,179.92279052734375,179.92279052734375,179.92279052734375,179.92279052734375,179.92279052734375,181.54340767860413,3,1.7653014659881592,None,,,,,,,,,,,,,,,,,,207,2,2025-03-07_09h59.18.083,comp,2024.2.4,56.97497575275141,2025-03-07 09h59.25.574689 -0500,
54,54,0,critical,hdw,35.0,4.0,upper,200.0,125.0,127.0,127.0,125.0,200.0,3,1.622898817062378,None,,,,,0,0,0,0,0,54,54,113,181.56441473960876,,,,,,,,,,,,,,,,,,,,,,,,,,,,,,,,,,,,,,,,,,,,,,,,,,,,,,,,,,,,,,,,,,,,,,,,,,,,,,,,,200.0,125.0,127.0,127.0,125.0,200.0,4.0,4.1,-222,-258,0,4,260,-255,181.54498863220215,181.54506659507751,181.5486078262329,181.56441473960876,181.70515847206116,181.70515847206116,181.70515847206116,181.70515847206116,181.70515847206116,181.70515847206116,181.70515847206116,183.2057421207428,3,1.622898817062378,None,,,,,,,,,,,,,,,,,,207,2,2025-03-07_09h59.18.083,comp,2024.2.4,56.97497575275141,2025-03-07 09h59.25.574689 -0500,
55,55,0,critical,whd,35.0,4.0,upper,125.0,200.0,200.0,125.0,127.0,127.0,1,1.754068374633789,None,,,,,0,0,0,0,0,55,55,89,183.2261085510254,,,,,,,,,,,,,,,,,,,,,,,,,,,,,,,,,,,,,,,,,,,,,,,,,,,,,,,,,,,,,,,,,,,,,,,,,,,,,,,,,125.0,200.0,200.0,125.0,127.0,127.0,4.0,4.1,-258,-258,0,-3,222,-272,183.20734548568726,183.207421541214,183.21109127998352,183.2261085510254,183.3729076385498,183.3729076385498,183.3729076385498,183.3729076385498,183.3729076385498,183.3729076385498,183.3729076385498,184.99061131477356,1,1.754068374633789,None,,,,,,,,,,,,,,,,,,207,2,2025-03-07_09h59.18.083,comp,2024.2.4,56.97497575275141,2025-03-07 09h59.25.574689 -0500,
56,56,0,filler_random,None,None,None,None,None,None,None,None,None,None,1,0.9740979671478271,None,,,,,0,0,0,0,0,56,56,137,185.00681591033936,,,,,,,,,,,,,,,,,,,,,,,,,,,,,,,,,,,,,,,,,,,,,,,,,,,,,,,,,,,,,,,,,,,,,,,,,,,,,,,,,148.8299087959893,183.725407838965,60.79265272747028,93.30791290015466,67.09821382292604,119.0054046285918,2.2,2.22,-235,281,0,-276,202,-275,184.99227166175842,184.9923484325409,184.9960150718689,185.00681591033936,185.1583375930786,185.1583375930786,185.1583375930786,185.1583375930786,185.1583375930786,185.1583375930786,185.1583375930786,185.99201560020447,1,0.9740979671478271,None,,,,,,,,,,,,,,,,,,207,2,2025-03-07_09h59.18.083,comp,2024.2.4,56.97497575275141,2025-03-07 09h59.25.574689 -0500,
57,57,0,filler_random,None,None,None,None,None,None,None,None,None,None,1,2.5784988403320312,None,,,,,0,0,0,0,0,57,57,161,186.0088448524475,,,,,,,,,,,,,,,,,,,,,,,,,,,,,,,,,,,,,,,,,,,,,,,,,,,,,,,,,,,,,,,,,,,,,,,,,,,,,,,,,196.63729170535544,119.82791352770724,71.66586700367631,94.07269606255613,65.00129680272593,100.75700638782126,4.0,4.2,-203,19,0,-277,193,6,185.99382400512695,185.99394917488098,185.99747681617737,186.0088448524475,186.15824270248413,186.15824270248413,186.15824270248413,186.15824270248413,186.15824270248413,186.15824270248413,186.15824270248413,188.59360766410828,1,2.5784988403320312,None,,,,,,,,,,,,,,,,,,207,2,2025-03-07_09h59.18.083,comp,2024.2.4,56.97497575275141,2025-03-07 09h59.25.574689 -0500,
58,58,0,critical,whd,35.0,4.0,lower,57.0,133.0,133.0,57.0,70.0,70.0,2,2.9175350666046143,None,,,,,0,0,0,0,0,58,58,88,188.61358094215393,,,,,,,,,,,,,,,,,,,,,,,,,,,,,,,,,,,,,,,,,,,,,,,,,,,,,,,,,,,,,,,,,,,,,,,,,,,,,,,,,57.0,133.0,133.0,57.0,70.0,70.0,4.0,4.1,-191,-280,0,-6,160,-286,188.59528827667236,188.595374584198,188.5988965034485,188.61358094215393,188.7606806755066,188.7606806755066,188.7606806755066,188.7606806755066,188.7606806755066,188.7606806755066,188.7606806755066,191.54780197143555,2,2.9175350666046143,None,,,,,,,,,,,,,,,,,,207,2,2025-03-07_09h59.18.083,comp,2024.2.4,56.97497575275141,2025-03-07 09h59.25.574689 -0500,
59,59,0,critical,hwd,35.0,2.1,lower,133.0,57.0,57.0,133.0,70.0,70.0,2,3.87971568107605,None,,,,,0,0,0,0,0,59,59,40,191.56349349021912,,,,,,,,,,,,,,,,,,,,,,,,,,,,,,,,,,,,,,,,,,,,,,,,,,,,,,,,,,,,,,,,,,,,,,,,,,,,,,,,,133.0,57.0,57.0,133.0,70.0,70.0,2.1,2.11,-191,269,0,275,198,-285,191.5494089126587,191.54948830604553,191.55288910865784,191.56349349021912,191.71434807777405,191.71434807777405,191.71434807777405,191.71434807777405,191.71434807777405,191.71434807777405,191.71434807777405,195.44723320007324,2,3.87971568107605,None,,,,,,,,,,,,,,,,,,207,2,2025-03-07_09h59.18.083,comp,2024.2.4,56.97497575275141,2025-03-07 09h59.25.574689 -0500,
60,60,0,critical,hdw,35.0,1.0,lower,133.0,57.0,70.0,70.0,57.0,133.0,3,2.6121222972869873,None,,,,,0,0,0,0,0,60,60,108,195.46290946006775,,,,,,,,,,,,,,,,,,,,,,,,,,,,,,,,,,,,,,,,,,,,,,,,,,,,,,,,,,,,,,,,,,,,,,,,,,,,,,,,,133.0,57.0,70.0,70.0,57.0,133.0,1.0,1.1,-640,267,-480,275,-282,262,195.44903898239136,195.449116230011,195.45216822624207,195.46290946006775,195.6110758781433,195.6110758781433,195.6110758781433,195.6110758781433,195.6110758781433,195.6110758781433,195.6110758781433,198.07902765274048,3,2.6121222972869873,None,,,,,,,,,,,,,,,,,,207,2,2025-03-07_09h59.18.083,comp,2024.2.4,56.97497575275141,2025-03-07 09h59.25.574689 -0500,
61,61,0,critical,hwd,35.0,4.0,lower,133.0,57.0,57.0,133.0,70.0,70.0,2,2.0905072689056396,None,,,,,0,0,0,0,0,61,61,100,198.09697103500366,,,,,,,,,,,,,,,,,,,,,,,,,,,,,,,,,,,,,,,,,,,,,,,,,,,,,,,,,,,,,,,,,,,,,,,,,,,,,,,,,133.0,57.0,57.0,133.0,70.0,70.0,4.0,4.2,-191,18,0,-261,198,20,198.08050203323364,198.08061456680298,198.084237575531,198.09697103500366,198.24870920181274,198.24870920181274,198.24870920181274,198.24870920181274,198.24870920181274,198.24870920181274,198.24870920181274,200.20690751075745,2,2.0905072689056396,None,,,,,,,,,,,,,,,,,,207,2,2025-03-07_09h59.18.083,comp,2024.2.4,56.97497575275141,2025-03-07 09h59.25.574689 -0500,
62,62,0,filler_random,None,None,None,None,None,None,None,None,None,None,1,3.2481460571289062,None,,,,,0,0,0,0,0,62,62,167,200.22715067863464,,,,,,,,,,,,,,,,,,,,,,,,,,,,,,,,,,,,,,,,,,,,,,,,,,,,,,,,,,,,,,,,,,,,,,,,,,,,,,,,,148.33067191276416,162.969489964319,157.53261335416124,130.6009806541271,61.71877185170817,70.68874356982468,1.0,1.1,-723,286,-480,274,-283,254,200.20869779586792,200.20877885818481,200.21185851097107,200.22715067863464,200.36108684539795,200.36108684539795,200.36108684539795,200.36108684539795,200.36108684539795,200.36108684539795,200.36108684539795,203.49557876586914,1,3.2481460571289062,None,,,,,,,,,,,,,,,,,,207,2,2025-03-07_09h59.18.083,comp,2024.2.4,56.97497575275141,2025-03-07 09h59.25.574689 -0500,
63,63,0,critical,hwd,35.0,4.0,upper,200.0,125.0,125.0,200.0,127.0,127.0,2,6.4898521900177,None,,,,,0,0,0,0,0,63,63,101,203.51318955421448,,,,,,,,,,,,,,,,,,,,,,,,,,,,,,,,,,,,,,,,,,,,,,,,,,,,,,,,,,,,,,,,,,,,,,,,,,,,,,,,,200.0,125.0,125.0,200.0,127.0,127.0,4.0,4.2,-258,-12,0,-281,260,-1,203.4971854686737,203.49726390838623,203.50061130523682,203.51318955421448,203.66569590568542,203.66569590568542,203.66569590568542,203.66569590568542,203.66569590568542,203.66569590568542,203.66569590568542,210.01911759376526,2,6.4898521900177,None,,,,,,,,,,,,,,,,,,207,2,2025-03-07_09h59.18.083,comp,2024.2.4,56.97497575275141,2025-03-07 09h59.25.574689 -0500,
64,64,0,filler_square,None,None,None,None,None,None,None,None,None,None,2,1.1271333694458008,None,,,,,0,0,0,0,0,64,64,170,210.03598880767822,,,,,,,,,,,,,,,,,,,,,,,,,,,,,,,,,,,,,,,,,,,,,,,,,,,,,,,,,,,,,,,,,,,,,,,,,,,,,,,,,74.86529231552679,115.81685593565143,176.40237450215233,176.40237450215233,76.2176263030386,58.56008095868153,4.0,4.1,-242,-288,0,11,213,-272,210.02090978622437,210.02098560333252,210.0250105857849,210.03598880767822,210.1820011138916,210.1820011138916,210.1820011138916,210.1820011138916,210.1820011138916,210.1820011138916,210.1820011138916,211.180260181427,2,1.1271333694458008,None,,,,,,,,,,,,,,,,,,207,2,2025-03-07_09h59.18.083,comp,2024.2.4,56.97497575275141,2025-03-07 09h59.25.574689 -0500,
65,65,0,filler_square,None,None,None,None,None,None,None,None,None,None,1,2.8872907161712646,None,,,,,0,0,0,0,0,65,65,171,211.19574666023254,,,,,,,,,,,,,,,,,,,,,,,,,,,,,,,,,,,,,,,,,,,,,,,,,,,,,,,,,,,,,,,,,,,,,,,,,,,,,,,,,59.49930040892039,57.09212444075313,60.47449232549398,60.47449232549398,59.90169382250085,59.60490341134812,3.0,3.1,-155,285,0,19,156,-290,211.1820867061615,211.1821632385254,211.18532586097717,211.19574666023254,211.35613441467285,211.35613441467285,211.35613441467285,211.35613441467285,211.35613441467285,211.35613441467285,211.35613441467285,214.09792733192444,1,2.8872907161712646,None,,,,,,,,,,,,,,,,,,207,2,2025-03-07_09h59.18.083,comp,2024.2.4,56.97497575275141,2025-03-07 09h59.25.574689 -0500,
66,66,0,filler_square,None,None,None,None,None,None,None,None,None,None,2,2.0487983226776123,None,,,,,0,0,0,0,0,66,66,175,214.1146445274353,,,,,,,,,,,,,,,,,,,,,,,,,,,,,,,,,,,,,,,,,,,,,,,,,,,,,,,,,,,,,,,,,,,,,,,,,,,,,,,,,72.811517381596,139.95252870563078,140.14504844664765,140.14504844664765,57.27863518985654,129.2462819021283,2.2,2.22,-236,286,0,-265,231,-254,214.09988927841187,214.09996676445007,214.10358214378357,214.1146445274353,214.2662706375122,214.2662706375122,214.2662706375122,214.2662706375122,214.2662706375122,214.2662706375122,214.2662706375122,216.18292450904846,2,2.0487983226776123,None,,,,,,,,,,,,,,,,,,207,2,2025-03-07_09h59.18.083,comp,2024.2.4,56.97497575275141,2025-03-07 09h59.25.574689 -0500,
67,67,0,critical,dwh,35.0,1.0,upper,127.0,127.0,125.0,200.0,200.0,125.0,3,2.8255724906921387,None,,,,,0,0,0,0,0,67,67,61,216.20159721374512,,,,,,,,,,,,,,,,,,,,,,,,,,,,,,,,,,,,,,,,,,,,,,,,,,,,,,,,,,,,,,,,,,,,,,,,,,,,,,,,,127.0,127.0,125.0,200.0,200.0,125.0,1.0,1.2,-260,9,0,15,258,-9,216.1845097541809,216.18463826179504,216.18823981285095,216.20159721374512,216.35129594802856,216.35129594802856,216.35129594802856,216.35129594802856,216.35129594802856,216.35129594802856,216.35129594802856,219.03300738334656,3,2.8255724906921387,None,,,,,,,,,,,,,,,,,,207,2,2025-03-07_09h59.18.083,comp,2024.2.4,56.97497575275141,2025-03-07 09h59.25.574689 -0500,
68,68,0,filler_square,None,None,None,None,None,None,None,None,None,None,3,2.936185598373413,None,,,,,0,0,0,0,0,68,68,206,219.05098032951355,,,,,,,,,,,,,,,,,,,,,,,,,,,,,,,,,,,,,,,,,,,,,,,,,,,,,,,,,,,,,,,,,,,,,,,,,,,,,,,,,72.72749703694765,99.94795305768139,91.82084009034769,98.03026949723093,122.74425246878081,122.74425246878081,2.2,2.21,-195,-269,0,262,206,272,219.03498101234436,219.03505945205688,219.03814125061035,219.05098032951355,219.20606875419617,219.20606875419617,219.20606875419617,219.20606875419617,219.20606875419617,219.20606875419617,219.20606875419617,222.0040864944458,3,2.936185598373413,None,,,,,,,,,,,,,,,,,,207,2,2025-03-07_09h59.18.083,comp,2024.2.4,56.97497575275141,2025-03-07 09h59.25.574689 -0500,
69,69,0,filler_random,None,None,None,None,None,None,None,None,None,None,2,1.790691614151001,None,,,,,0,0,0,0,0,69,69,139,222.0204885005951,,,,,,,,,,,,,,,,,,,,,,,,,,,,,,,,,,,,,,,,,,,,,,,,,,,,,,,,,,,,,,,,,,,,,,,,,,,,,,,,,96.31630056019678,132.26301345396297,182.36050089982177,190.44788456567295,190.44768559215748,140.71941702388375,1.0,1.2,-257,-7,0,2,262,-2,222.00598335266113,222.0060682296753,222.00928258895874,222.0204885005951,222.1684811115265,222.1684811115265,222.1684811115265,222.1684811115265,222.1684811115265,222.1684811115265,222.1684811115265,223.82366108894348,2,1.790691614151001,None,,,,,,,,,,,,,,,,,,207,2,2025-03-07_09h59.18.083,comp,2024.2.4,56.97497575275141,2025-03-07 09h59.25.574689 -0500,
70,70,0,filler_square,None,None,None,None,None,None,None,None,None,None,2,1.6804821491241455,None,,,,,0,0,0,0,0,70,70,196,223.84262561798096,,,,,,,,,,,,,,,,,,,,,,,,,,,,,,,,,,,,,,,,,,,,,,,,,,,,,,,,,,,,,,,,,,,,,,,,,,,,,,,,,73.54958332821587,60.27484946286966,96.93885266013643,96.93885266013643,78.21050913454935,67.01147380646002,1.0,1.3,305,-277,480,-268,658,-261,223.825457572937,223.82553577423096,223.8285870552063,223.84262561798096,223.98563385009766,223.98563385009766,223.98563385009766,223.98563385009766,223.98563385009766,223.98563385009766,223.98563385009766,225.5401313304901,2,1.6804821491241455,None,,,,,,,,,,,,,,,,,,207,2,2025-03-07_09h59.18.083,comp,2024.2.4,56.97497575275141,2025-03-07 09h59.25.574689 -0500,
71,71,0,critical,whd,20.0,2.1,lower,57.0,133.0,133.0,57.0,78.0,78.0,2,3.9069225788116455,None,,,,,0,0,0,0,0,71,71,38,225.56023335456848,,,,,,,,,,,,,,,,,,,,,,,,,,,,,,,,,,,,,,,,,,,,,,,,,,,,,,,,,,,,,,,,,,,,,,,,,,,,,,,,,57.0,133.0,133.0,57.0,78.0,78.0,2.1,2.11,-191,261,0,258,164,-254,225.54178380966187,225.54186344146729,225.54491305351257,225.56023335456848,225.70335149765015,225.70335149765015,225.70335149765015,225.70335149765015,225.70335149765015,225.70335149765015,225.70335149765015,229.47318315505981,2,3.9069225788116455,None,,,,,,,,,,,,,,,,,,207,2,2025-03-07_09h59.18.083,comp,2024.2.4,56.97497575275141,2025-03-07 09h59.25.574689 -0500,
72,72,0,critical,dhw,20.0,4.0,lower,78.0,78.0,133.0,57.0,57.0,133.0,1,5.135743141174316,None,,,,,0,0,0,0,0,72,72,58,229.49215960502625,,,,,,,,,,,,,,,,,,,,,,,,,,,,,,,,,,,,,,,,,,,,,,,,,,,,,,,,,,,,,,,,,,,,,,,,,,,,,,,,,78.0,78.0,133.0,57.0,57.0,133.0,4.0,4.1,-164,-288,0,10,191,-264,229.4750621318817,229.47519659996033,229.4785304069519,229.49215960502625,229.63764429092407,229.63764429092407,229.63764429092407,229.63764429092407,229.63764429092407,229.63764429092407,229.63764429092407,234.63012766838074,1,5.135743141174316,None,,,,,,,,,,,,,,,,,,207,2,2025-03-07_09h59.18.083,comp,2024.2.4,56.97497575275141,2025-03-07 09h59.25.574689 -0500,
73,73,0,critical,hwd,35.0,3.0,upper,200.0,125.0,125.0,200.0,127.0,127.0,2,3.970313787460327,None,,,,,0,0,0,0,0,73,73,99,234.6486358642578,,,,,,,,,,,,,,,,,,,,,,,,,,,,,,,,,,,,,,,,,,,,,,,,,,,,,,,,,,,,,,,,,,,,,,,,,,,,,,,,,200.0,125.0,125.0,200.0,127.0,127.0,3.0,3.1,-258,259,0,7,260,-252,234.6317503452301,234.63183617591858,234.6352789402008,234.6486358642578,234.78922319412231,234.78922319412231,234.78922319412231,234.78922319412231,234.78922319412231,234.78922319412231,234.78922319412231,238.62865352630615,2,3.970313787460327,None,,,,,,,,,,,,,,,,,,207,2,2025-03-07_09h59.18.083,comp,2024.2.4,56.97497575275141,2025-03-07 09h59.25.574689 -0500,
74,74,0,catch,None,None,None,None,None,None,None,None,None,None,1,1.0706937313079834,None,,,,,0,0,0,0,0,74,74,120,238.645521402359,,,,,,,,,,,,,,,,,,,,,,,,,,,,,,,,,,,,,,,,,,,,,,,,,,,,,,,,,,,,,,,,,,,,,,,,,,,,,,,,,148,177,76,114,74,116,2.1,2.11,-242,256,0,276,211,-274,238.63079524040222,238.63087582588196,238.6344621181488,238.645521402359,238.79032945632935,238.79032945632935,238.79032945632935,238.79032945632935,238.79032945632935,238.79032945632935,238.79032945632935,239.72445583343506,1,1.0706937313079834,None,,,,,,,,,,,,,,,,,,207,2,2025-03-07_09h59.18.083,comp,2024.2.4,56.97497575275141,2025-03-07 09h59.25.574689 -0500,
75,75,0,filler_random,None,None,None,None,None,None,None,None,None,None,1,1.398148775100708,None,,,,,0,0,0,0,0,75,75,146,239.74081206321716,,,,,,,,,,,,,,,,,,,,,,,,,,,,,,,,,,,,,,,,,,,,,,,,,,,,,,,,,,,,,,,,,,,,,,,,,,,,,,,,,122.56326396263312,163.99799823228204,61.582694516227335,114.83442944063907,90.7860188786554,191.72630088015066,1.0,1.3,245,-278,480,-252,729,-288,239.72620749473572,239.7262864112854,239.72987818717957,239.74081206321716,239.89897656440735,239.89897656440735,239.89897656440735,239.89897656440735,239.89897656440735,239.89897656440735,239.89897656440735,241.15163850784302,1,1.398148775100708,None,,,,,,,,,,,,,,,,,,207,2,2025-03-07_09h59.18.083,comp,2024.2.4,56.97497575275141,2025-03-07 09h59.25.574689 -0500,
76,76,0,critical,dwh,35.0,2.1,lower,70.0,70.0,57.0,133.0,133.0,57.0,3,2.939361572265625,None,,,,,0,0,0,0,0,76,76,28,241.1675729751587,,,,,,,,,,,,,,,,,,,,,,,,,,,,,,,,,,,,,,,,,,,,,,,,,,,,,,,,,,,,,,,,,,,,,,,,,,,,,,,,,70.0,70.0,57.0,133.0,133.0,57.0,2.1,2.11,-198,279,0,260,191,-277,241.15307116508484,241.153146982193,241.15617036819458,241.1675729751587,241.30527806282043,241.30527806282043,241.30527806282043,241.30527806282043,241.30527806282043,241.30527806282043,241.30527806282043,244.10954475402832,3,2.939361572265625,None,,,,,,,,,,,,,,,,,,207,2,2025-03-07_09h59.18.083,comp,2024.2.4,56.97497575275141,2025-03-07 09h59.25.574689 -0500,
77,77,0,critical,dhw,20.0,4.0,upper,141.0,141.0,200.0,125.0,125.0,200.0,3,12.26183271408081,None,,,,,0,0,0,0,0,77,77,59,244.1265242099762,,,,,,,,,,,,,,,,,,,,,,,,,,,,,,,,,,,,,,,,,,,,,,,,,,,,,,,,,,,,,,,,,,,,,,,,,,,,,,,,,141.0,141.0,200.0,125.0,125.0,200.0,4.0,4.2,-229,-12,0,-264,258,-19,244.11121034622192,244.11128854751587,244.11494898796082,244.1265242099762,244.2787733078003,244.2787733078003,244.2787733078003,244.2787733078003,244.2787733078003,244.2787733078003,244.2787733078003,256.3965890407562,3,12.26183271408081,None,,,,,,,,,,,,,,,,,,207,2,2025-03-07_09h59.18.083,comp,2024.2.4,56.97497575275141,2025-03-07 09h59.25.574689 -0500,
78,78,0,filler_square,None,None,None,None,None,None,None,None,None,None,2,1.0861611366271973,None,,,,,0,0,0,0,0,78,78,193,256.413188457489,,,,,,,,,,,,,,,,,,,,,,,,,,,,,,,,,,,,,,,,,,,,,,,,,,,,,,,,,,,,,,,,,,,,,,,,,,,,,,,,,142.34961993838684,113.32106068696359,152.68778163163321,152.68778163163321,105.91953838031236,59.9476847524964,1.0,1.2,-229,-18,0,-9,202,-11,256.3983588218689,256.3984410762787,256.4017837047577,256.413188457489,256.5583882331848,256.5583882331848,256.5583882331848,256.5583882331848,256.5583882331848,256.5583882331848,256.5583882331848,257.5015151500702,2,1.0861611366271973,None,,,,,,,,,,,,,,,,,,207,2,2025-03-07_09h59.18.083,comp,2024.2.4,56.97497575275141,2025-03-07 09h59.25.574689 -0500,
79,79,0,critical,whd,35.0,2.1,lower,57.0,133.0,133.0,57.0,70.0,70.0,2,3.2222070693969727,None,,,,,0,0,0,0,0,79,79,36,257.5185761451721,,,,,,,,,,,,,,,,,,,,,,,,,,,,,,,,,,,,,,,,,,,,,,,,,,,,,,,,,,,,,,,,,,,,,,,,,,,,,,,,,57.0,133.0,133.0,57.0,70.0,70.0,2.1,2.11,-191,258,0,251,160,-264,257.503116607666,257.5031929016113,257.50670528411865,257.5185761451721,257.6621208190918,257.6621208190918,257.6621208190918,257.6621208190918,257.6621208190918,257.6621208190918,257.6621208190918,260.7457683086395,2,3.2222070693969727,None,,,,,,,,,,,,,,,,,,207,2,2025-03-07_09h59.18.083,comp,2024.2.4,56.97497575275141,2025-03-07 09h59.25.574689 -0500,
80,80,0,critical,hwd,20.0,2.1,upper,200.0,125.0,125.0,200.0,141.0,141.0,2,5.15279221534729,None,,,,,0,0,0,0,0,80,80,19,260.76261806488037,,,,,,,,,,,,,,,,,,,,,,,,,,,,,,,,,,,,,,,,,,,,,,,,,,,,,,,,,,,,,,,,,,,,,,,,,,,,,,,,,200.0,125.0,125.0,200.0,141.0,141.0,2.1,2.11,-258,253,0,257,266,-274,260.74739623069763,260.7474765777588,260.7507927417755,260.76261806488037,260.900719165802,260.900719165802,260.900719165802,260.900719165802,260.900719165802,260.900719165802,260.900719165802,265.9323844909668,2,5.15279221534729,None,,,,,,,,,,,,,,,,,,207,2,2025-03-07_09h59.18.083,comp,2024.2.4,56.97497575275141,2025-03-07 09h59.25.574689 -0500,
81,81,0,critical,wdh,20.0,1.0,lower,57.0,133.0,78.0,78.0,133.0,57.0,1,2.5287137031555176,None,,,,,0,0,0,0,0,81,81,78,265.9488995075226,,,,,,,,,,,,,,,,,,,,,,,,,,,,,,,,,,,,,,,,,,,,,,,,,,,,,,,,,,,,,,,,,,,,,,,,,,,,,,,,,57.0,133.0,78.0,78.0,133.0,57.0,1.0,1.1,-682,258,-480,265,-316,268,265.934002161026,265.9340806007385,265.9382631778717,265.9488995075226,266.10203433036804,266.10203433036804,266.10203433036804,266.10203433036804,266.10203433036804,266.10203433036804,266.10203433036804,268.4799475669861,1,2.5287137031555176,None,,,,,,,,,,,,,,,,,,207,2,2025-03-07_09h59.18.083,comp,2024.2.4,56.97497575275141,2025-03-07 09h59.25.574689 -0500,
82,82,0,critical,dwh,20.0,4.0,lower,78.0,78.0,57.0,133.0,133.0,57.0,2,2.633399486541748,None,,,,,0,0,0,0,0,82,82,70,268.4976472854614,,,,,,,,,,,,,,,,,,,,,,,,,,,,,,,,,,,,,,,,,,,,,,,,,,,,,,,,,,,,,,,,,,,,,,,,,,,,,,,,,78.0,78.0,57.0,133.0,133.0,57.0,4.0,4.1,-202,-256,0,-12,191,-281,268.4814245700836,268.4815022945404,268.4845333099365,268.4976472854614,268.64800477027893,268.64800477027893,268.64800477027893,268.64800477027893,268.64800477027893,268.64800477027893,268.64800477027893,271.133850812912,2,2.633399486541748,None,,,,,,,,,,,,,,,,,,207,2,2025-03-07_09h59.18.083,comp,2024.2.4,56.97497575275141,2025-03-07 09h59.25.574689 -0500,
83,83,0,critical,whd,35.0,2.1,lower,57.0,133.0,133.0,57.0,70.0,70.0,2,1.4860548973083496,None,,,,,0,0,0,0,0,83,83,12,271.14862179756165,,,,,,,,,,,,,,,,,,,,,,,,,,,,,,,,,,,,,,,,,,,,,,,,,,,,,,,,,,,,,,,,,,,,,,,,,,,,,,,,,57.0,133.0,133.0,57.0,70.0,70.0,2.1,2.12,-191,-276,0,-289,160,282,271.1354196071625,271.1354990005493,271.1388063430786,271.14862179756165,271.2993845939636,271.2993845939636,271.2993845939636,271.2993845939636,271.2993845939636,271.2993845939636,271.2993845939636,272.6496744155884,2,1.4860548973083496,None,,,,,,,,,,,,,,,,,,207,2,2025-03-07_09h59.18.083,comp,2024.2.4,56.97497575275141,2025-03-07 09h59.25.574689 -0500,
84,84,0,critical,dwh,35.0,1.0,lower,70.0,70.0,57.0,133.0,133.0,57.0,3,1.4607467651367188,None,,,,,0,0,0,0,0,84,84,60,272.66244173049927,,,,,,,,,,,,,,,,,,,,,,,,,,,,,,,,,,,,,,,,,,,,,,,,,,,,,,,,,,,,,,,,,,,,,,,,,,,,,,,,,70.0,70.0,57.0,133.0,133.0,57.0,1.0,1.2,-198,-4,0,-16,191,-19,272.6504502296448,272.6504895687103,272.6521270275116,272.66244173049927,272.8033514022827,272.8033514022827,272.8033514022827,272.8033514022827,272.8033514022827,272.8033514022827,272.8033514022827,274.1339273452759,3,1.4607467651367188,None,,,,,,,,,,,,,,,,,,207,2,2025-03-07_09h59.18.083,comp,2024.2.4,56.97497575275141,2025-03-07 09h59.25.574689 -0500,
85,85,0,critical,wdh,35.0,2.1,upper,125.0,200.0,127.0,127.0,200.0,125.0,3,1.2346675395965576,None,,,,,0,0,0,0,0,85,85,9,274.15249943733215,,,,,,,,,,,,,,,,,,,,,,,,,,,,,,,,,,,,,,,,,,,,,,,,,,,,,,,,,,,,,,,,,,,,,,,,,,,,,,,,,125.0,200.0,127.0,127.0,200.0,125.0,2.1,2.12,-260,-289,0,-269,222,271,274.1355245113373,274.13566279411316,274.13907742500305,274.15249943733215,274.3062286376953,274.3062286376953,274.3062286376953,274.3062286376953,274.3062286376953,274.3062286376953,274.3062286376953,275.40475058555603,3,1.2346675395965576,None,,,,,,,,,,,,,,,,,,207,2,2025-03-07_09h59.18.083,comp,2024.2.4,56.97497575275141,2025-03-07 09h59.25.574689 -0500,
86,86,0,filler_square,None,None,None,None,None,None,None,None,None,None,3,1.1315131187438965,None,,,,,0,0,0,0,0,86,86,177,275.4240424633026,,,,,,,,,,,,,,,,,,,,,,,,,,,,,,,,,,,,,,,,,,,,,,,,,,,,,,,,,,,,,,,,,,,,,,,,,,,,,,,,,60.55827674216277,131.8840183404481,94.66586319208386,130.93507207637555,151.90695803091677,151.90695803091677,1.0,1.2,-227,-13,0,-11,237,6,275.40689516067505,275.40697479248047,275.4104824066162,275.4240424633026,275.56851601600647,275.56851601600647,275.56851601600647,275.56851601600647,275.56851601600647,275.56851601600647,275.56851601600647,276.5732889175415,3,1.1315131187438965,None,,,,,,,,,,,,,,,,,,207,2,2025-03-07_09h59.18.083,comp,2024.2.4,56.97497575275141,2025-03-07 09h59.25.574689 -0500,
87,87,0,critical,hwd,35.0,1.0,upper,200.0,125.0,125.0,200.0,127.0,127.0,2,3.101166248321533,None,,,,,0,0,0,0,0,87,87,97,276.58989691734314,,,,,,,,,,,,,,,,,,,,,,,,,,,,,,,,,,,,,,,,,,,,,,,,,,,,,,,,,,,,,,,,,,,,,,,,,,,,,,,,,200.0,125.0,125.0,200.0,127.0,127.0,1.0,1.1,-738,285,-480,271,-220,261,276.5750095844269,276.5751383304596,276.578533411026,276.58989691734314,276.73490834236145,276.73490834236145,276.73490834236145,276.73490834236145,276.73490834236145,276.73490834236145,276.73490834236145,279.70577335357666,2,3.101166248321533,None,,,,,,,,,,,,,,,,,,207,2,2025-03-07_09h59.18.083,comp,2024.2.4,56.97497575275141,2025-03-07 09h59.25.574689 -0500,
88,88,0,filler_random,None,None,None,None,None,None,None,None,None,None,3,1.5295255184173584,None,,,,,0,0,0,0,0,88,88,143,279.722247838974,,,,,,,,,,,,,,,,,,,,,,,,,,,,,,,,,,,,,,,,,,,,,,,,,,,,,,,,,,,,,,,,,,,,,,,,,,,,,,,,,69.95768308855801,72.24756428860785,105.41965801706235,85.79619152699115,118.13899527820404,147.81938145810767,3.0,3.2,-175,-265,0,10,213,254,279.70777559280396,279.70785570144653,279.71186089515686,279.722247838974,279.8720841407776,279.8720841407776,279.8720841407776,279.8720841407776,279.8720841407776,279.8720841407776,279.8720841407776,281.2593915462494,3,1.5295255184173584,None,,,,,,,,,,,,,,,,,,207,2,2025-03-07_09h59.18.083,comp,2024.2.4,56.97497575275141,2025-03-07 09h59.25.574689 -0500,
89,89,0,catch,None,None,None,None,None,None,None,None,None,None,2,1.0515494346618652,None,,,,,0,0,0,0,0,89,89,125,281.28010511398315,,,,,,,,,,,,,,,,,,,,,,,,,,,,,,,,,,,,,,,,,,,,,,,,,,,,,,,,,,,,,,,,,,,,,,,,,,,,,,,,,105,85,176,149,81,109,2.2,2.21,-213,-283,0,284,225,262,281.2613453865051,281.2614233493805,281.26445960998535,281.28010511398315,281.42121958732605,281.42121958732605,281.42121958732605,281.42121958732605,281.42121958732605,281.42121958732605,281.42121958732605,282.3374536037445,2,1.0515494346618652,None,,,,,,,,,,,,,,,,,,207,2,2025-03-07_09h59.18.083,comp,2024.2.4,56.97497575275141,2025-03-07 09h59.25.574689 -0500,
90,90,0,filler_square,None,None,None,None,None,None,None,None,None,None,3,1.713599681854248,None,,,,,0,0,0,0,0,90,90,184,282.3542196750641,,,,,,,,,,,,,,,,,,,,,,,,,,,,,,,,,,,,,,,,,,,,,,,,,,,,,,,,,,,,,,,,,,,,,,,,,,,,,,,,,58.778068568543574,93.78381705445983,86.21953401910353,61.961346452066486,112.56061365653706,112.56061365653706,2.2,2.21,-174,-259,0,259,183,287,282.33928775787354,282.33936738967896,282.34327268600464,282.3542196750641,282.50400257110596,282.50400257110596,282.50400257110596,282.50400257110596,282.50400257110596,282.50400257110596,282.50400257110596,284.07576537132263,3,1.713599681854248,None,,,,,,,,,,,,,,,,,,207,2,2025-03-07_09h59.18.083,comp,2024.2.4,56.97497575275141,2025-03-07 09h59.25.574689 -0500,
91,91,0,filler_square,None,None,None,None,None,None,None,None,None,None,2,2.404681921005249,None,,,,,0,0,0,0,0,91,91,203,284.09420228004456,,,,,,,,,,,,,,,,,,,,,,,,,,,,,,,,,,,,,,,,,,,,,,,,,,,,,,,,,,,,,,,,,,,,,,,,,,,,,,,,,79.57167185259857,63.055365221357924,89.08293173828629,89.08293173828629,70.64673432477811,79.69871617924966,3.0,3.1,-172,261,0,12,180,-285,284.0777950286865,284.0778784751892,284.0813457965851,284.09420228004456,284.241329908371,284.241329908371,284.241329908371,284.241329908371,284.241329908371,284.241329908371,284.241329908371,286.50922894477844,2,2.404681921005249,None,,,,,,,,,,,,,,,,,,207,2,2025-03-07_09h59.18.083,comp,2024.2.4,56.97497575275141,2025-03-07 09h59.25.574689 -0500,
92,92,0,filler_random,None,None,None,None,None,None,None,None,None,None,3,1.8295097351074219,None,,,,,0,0,0,0,0,92,92,162,286.5259552001953,,,,,,,,,,,,,,,,,,,,,,,,,,,,,,,,,,,,,,,,,,,,,,,,,,,,,,,,,,,,,,,,,,,,,,,,,,,,,,,,,60.997368834508684,122.56587756320897,154.57428017559698,85.03931590952398,169.12981250763727,113.05669827846631,3.0,3.1,-200,254,0,18,195,-260,286.51110315322876,286.5111951828003,286.51428055763245,286.5259552001953,286.674870967865,286.674870967865,286.674870967865,286.674870967865,286.674870967865,286.674870967865,286.674870967865,288.374662399292,3,1.8295097351074219,None,,,,,,,,,,,,,,,,,,207,2,2025-03-07_09h59.18.083,comp,2024.2.4,56.97497575275141,2025-03-07 09h59.25.574689 -0500,
93,93,0,critical,whd,20.0,4.0,upper,125.0,200.0,200.0,125.0,141.0,141.0,1,4.525801181793213,None,,,,,0,0,0,0,0,93,93,95,288.390034198761,,,,,,,,,,,,,,,,,,,,,,,,,,,,,,,,,,,,,,,,,,,,,,,,,,,,,,,,,,,,,,,,,,,,,,,,,,,,,,,,,125.0,200.0,200.0,125.0,141.0,141.0,4.0,4.2,-258,-11,0,-287,229,4,288.3762722015381,288.3763527870178,288.3796765804291,288.390034198761,288.538937330246,288.538937330246,288.538937330246,288.538937330246,288.538937330246,288.538937330246,288.538937330246,292.92413878440857,1,4.525801181793213,None,,,,,,,,,,,,,,,,,,207,2,2025-03-07_09h59.18.083,comp,2024.2.4,56.97497575275141,2025-03-07 09h59.25.574689 -0500,
94,94,0,filler_random,None,None,None,None,None,None,None,None,None,None,1,1.4953632354736328,None,,,,,0,0,0,0,0,94,94,158,292.9405801296234,,,,,,,,,,,,,,,,,,,,,,,,,,,,,,,,,,,,,,,,,,,,,,,,,,,,,,,,,,,,,,,,,,,,,,,,,,,,,,,,,191.64897176596315,133.8780609025382,68.63568464477306,84.41636153597277,75.33054255351034,64.24469362332327,2.1,2.11,-205,284,0,289,170,-276,292.9260904788971,292.9261701107025,292.9297640323639,292.9405801296234,293.07834649086,293.07834649086,293.07834649086,293.07834649086,293.07834649086,293.07834649086,293.07834649086,294.44273805618286,1,1.4953632354736328,None,,,,,,,,,,,,,,,,,,207,2,2025-03-07_09h59.18.083,comp,2024.2.4,56.97497575275141,2025-03-07 09h59.25.574689 -0500,
95,95,0,critical,hdw,35.0,3.0,lower,133.0,57.0,70.0,70.0,57.0,133.0,3,8.488415002822876,None,,,,,0,0,0,0,0,95,95,110,294.45880603790283,,,,,,,,,,,,,,,,,,,,,,,,,,,,,,,,,,,,,,,,,,,,,,,,,,,,,,,,,,,,,,,,,,,,,,,,,,,,,,,,,133.0,57.0,70.0,70.0,57.0,133.0,3.0,3.2,-160,-266,0,-13,198,264,294.4444148540497,294.4444987773895,294.4479670524597,294.45880603790283,294.61092591285706,294.61092591285706,294.61092591285706,294.61092591285706,294.61092591285706,294.61092591285706,294.61092591285706,302.9517095088959,3,8.488415002822876,None,,,,,,,,,,,,,,,,,,207,2,2025-03-07_09h59.18.083,comp,2024.2.4,56.97497575275141,2025-03-07 09h59.25.574689 -0500,
96,96,0,critical,hwd,20.0,1.0,upper,200.0,125.0,125.0,200.0,141.0,141.0,2,1.9029765129089355,None,,,,,0,0,0,0,0,96,96,103,302.9644241333008,,,,,,,,,,,,,,,,,,,,,,,,,,,,,,,,,,,,,,,,,,,,,,,,,,,,,,,,,,,,,,,,,,,,,,,,,,,,,,,,,200.0,125.0,125.0,200.0,141.0,141.0,1.0,1.3,222,-282,480,-276,746,-271,302.95281624794006,302.95285058021545,302.9541549682617,302.9644241333008,303.11150431632996,303.11150431632996,303.11150431632996,303.11150431632996,303.11150431632996,303.11150431632996,303.11150431632996,304.8764419555664,2,1.9029765129089355,None,,,,,,,,,,,,,,,,,,207,2,2025-03-07_09h59.18.083,comp,2024.2.4,56.97497575275141,2025-03-07 09h59.25.574689 -0500,
97,97,0,critical,wdh,20.0,4.0,lower,57.0,133.0,78.0,78.0,133.0,57.0,3,1.9579977989196777,None,,,,,0,0,0,0,0,97,97,82,304.89315915107727,,,,,,,,,,,,,,,,,,,,,,,,,,,,,,,,,,,,,,,,,,,,,,,,,,,,,,,,,,,,,,,,,,,,,,,,,,,,,,,,,57.0,133.0,78.0,78.0,133.0,57.0,4.0,4.1,-202,-278,0,4,164,-260,304.878023147583,304.8781027793884,304.881413936615,304.89315915107727,305.03048062324524,305.03048062324524,305.03048062324524,305.03048062324524,305.03048062324524,305.03048062324524,305.03048062324524,306.86096572875977,3,1.9579977989196777,None,,,,,,,,,,,,,,,,,,207,2,2025-03-07_09h59.18.083,comp,2024.2.4,56.97497575275141,2025-03-07 09h59.25.574689 -0500,
98,98,0,critical,wdh,20.0,3.0,upper,125.0,200.0,141.0,141.0,200.0,125.0,3,1.21787691116333,None,,,,,0,0,0,0,0,98,98,81,306.88109850883484,,,,,,,,,,,,,,,,,,,,,,,,,,,,,,,,,,,,,,,,,,,,,,,,,,,,,,,,,,,,,,,,,,,,,,,,,,,,,,,,,125.0,200.0,141.0,141.0,200.0,125.0,3.0,3.2,-266,-275,0,-11,229,278,306.8624863624573,306.8626000881195,306.86596488952637,306.88109850883484,307.02803921699524,307.02803921699524,307.02803921699524,307.02803921699524,307.02803921699524,307.02803921699524,307.02803921699524,308.1126959323883,3,1.21787691116333,None,,,,,,,,,,,,,,,,,,207,2,2025-03-07_09h59.18.083,comp,2024.2.4,56.97497575275141,2025-03-07 09h59.25.574689 -0500,
99,99,0,filler_square,None,None,None,None,None,None,None,None,None,None,1,1.6661715507507324,None,,,,,0,0,0,0,0,99,99,188,308.12895226478577,,,,,,,,,,,,,,,,,,,,,,,,,,,,,,,,,,,,,,,,,,,,,,,,,,,,,,,,,,,,,,,,,,,,,,,,,,,,,,,,,107.40705710584078,107.40705710584078,86.86297698643432,72.6148380413959,65.4288136130172,61.108099787435236,4.0,4.2,-186,8,0,-262,163,-12,308.1144347190857,308.1145124435425,308.1186451911926,308.12895226478577,308.2786400318146,308.2786400318146,308.2786400318146,308.2786400318146,308.2786400318146,308.2786400318146,308.2786400318146,309.8117916584015,1,1.6661715507507324,None,,,,,,,,,,,,,,,,,,207,2,2025-03-07_09h59.18.083,comp,2024.2.4,56.97497575275141,2025-03-07 09h59.25.574689 -0500,
100,100,0,critical,hwd,20.0,4.0,upper,200.0,125.0,125.0,200.0,141.0,141.0,1,1.4392495155334473,None,,,,,0,0,0,0,0,100,100,107,309.8278098106384,,,,,,,,,,,,,,,,,,,,,,,,,,,,,,,,,,,,,,,,,,,,,,,,,,,,,,,,,,,,,,,,,,,,,,,,,,,,,,,,,200.0,125.0,125.0,200.0,141.0,141.0,4.0,4.2,-258,-2,0,-280,266,7,309.8132412433624,309.81331634521484,309.8166136741638,309.8278098106384,309.9780650138855,309.9780650138855,309.9780650138855,309.9780650138855,309.9780650138855,309.9780650138855,309.9780650138855,311.2841947078705,1,1.4392495155334473,None,,,,,,,,,,,,,,,,,,207,2,2025-03-07_09h59.18.083,comp,2024.2.4,56.97497575275141,2025-03-07 09h59.25.574689 -0500,
101,101,0,filler_square,None,None,None,None,None,None,None,None,None,None,2,1.3748786449432373,None,,,,,0,0,0,0,0,101,101,201,311.30081963539124,,,,,,,,,,,,,,,,,,,,,,,,,,,,,,,,,,,,,,,,,,,,,,,,,,,,,,,,,,,,,,,,,,,,,,,,,,,,,,,,,117.80583088501095,64.34847818911776,171.47131429996665,171.47131429996665,99.25231698831765,141.26721254963405,1.0,1.1,-694,254,-480,270,-228,250,311.28618693351746,311.28626251220703,311.2900860309601,311.30081963539124,311.44687032699585,311.44687032699585,311.44687032699585,311.44687032699585,311.44687032699585,311.44687032699585,311.44687032699585,312.6784989833832,2,1.3748786449432373,None,,,,,,,,,,,,,,,,,,207,2,2025-03-07_09h59.18.083,comp,2024.2.4,56.97497575275141,2025-03-07 09h59.25.574689 -0500,
102,102,0,filler_random,None,None,None,None,None,None,None,None,None,None,3,1.1396152973175049,None,,,,,0,0,0,0,0,102,102,144,312.6953966617584,,,,,,,,,,,,,,,,,,,,,,,,,,,,,,,,,,,,,,,,,,,,,,,,,,,,,,,,,,,,,,,,,,,,,,,,,,,,,,,,,103.43048957387228,101.91833063250124,97.72491539618997,72.96503404079009,178.92572870121995,190.8564269588513,1.0,1.3,297,-267,480,-253,708,-281,312.6804621219635,312.68066334724426,312.68418860435486,312.6953966617584,312.84708857536316,312.84708857536316,312.84708857536316,312.84708857536316,312.84708857536316,312.84708857536316,312.84708857536316,313.84827518463135,3,1.1396152973175049,None,,,,,,,,,,,,,,,,,,207,2,2025-03-07_09h59.18.083,comp,2024.2.4,56.97497575275141,2025-03-07 09h59.25.574689 -0500,
103,103,0,critical,hdw,35.0,2.1,upper,200.0,125.0,127.0,127.0,125.0,200.0,3,1.7316381931304932,None,,,,,0,0,0,0,0,103,103,21,313.86416363716125,,,,,,,,,,,,,,,,,,,,,,,,,,,,,,,,,,,,,,,,,,,,,,,,,,,,,,,,,,,,,,,,,,,,,,,,,,,,,,,,,200.0,125.0,127.0,127.0,125.0,200.0,2.1,2.12,-222,-271,0,-269,260,254,313.8499972820282,313.85007405281067,313.8536858558655,313.86416363716125,314.01383876800537,314.01383876800537,314.01383876800537,314.01383876800537,314.01383876800537,314.01383876800537,314.01383876800537,315.59805178642273,3,1.7316381931304932,None,,,,,,,,,,,,,,,,,,207,2,2025-03-07_09h59.18.083,comp,2024.2.4,56.97497575275141,2025-03-07 09h59.25.574689 -0500,
104,104,0,filler_random,None,None,None,None,None,None,None,None,None,None,1,1.0989923477172852,None,,,,,0,0,0,0,0,104,104,163,315.61506962776184,,,,,,,,,,,,,,,,,,,,,,,,,,,,,,,,,,,,,,,,,,,,,,,,,,,,,,,,,,,,,,,,,,,,,,,,,,,,,,,,,187.69560597551902,161.28452969200026,114.768849159165,75.21798529082398,81.90696020870135,108.89007452903161,1.0,1.2,-214,15,0,-7,188,-18,315.59985876083374,315.59999418258667,315.60417652130127,315.61506962776184,315.76305961608887,315.76305961608887,315.76305961608887,315.76305961608887,315.76305961608887,315.76305961608887,315.76305961608887,316.72647500038147,1,1.0989923477172852,None,,,,,,,,,,,,,,,,,,207,2,2025-03-07_09h59.18.083,comp,2024.2.4,56.97497575275141,2025-03-07 09h59.25.574689 -0500,
105,105,0,critical,dhw,35.0,2.1,lower,70.0,70.0,133.0,57.0,57.0,133.0,3,1.9093728065490723,None,,,,,0,0,0,0,0,105,105,24,316.74958205223083,,,,,,,,,,,,,,,,,,,,,,,,,,,,,,,,,,,,,,,,,,,,,,,,,,,,,,,,,,,,,,,,,,,,,,,,,,,,,,,,,70.0,70.0,133.0,57.0,57.0,133.0,2.1,2.12,-160,-284,0,-277,191,275,316.7269206047058,316.7269389629364,316.7277202606201,316.74958205223083,316.8795323371887,316.8795323371887,316.8795323371887,316.8795323371887,316.8795323371887,316.8795323371887,316.8795323371887,318.6720554828644,3,1.9093728065490723,None,,,,,,,,,,,,,,,,,,207,2,2025-03-07_09h59.18.083,comp,2024.2.4,56.97497575275141,2025-03-07 09h59.25.574689 -0500,
106,106,0,critical,hwd,35.0,2.1,upper,200.0,125.0,125.0,200.0,127.0,127.0,2,3.032870292663574,None,,,,,0,0,0,0,0,106,106,41,318.68995928764343,,,,,,,,,,,,,,,,,,,,,,,,,,,,,,,,,,,,,,,,,,,,,,,,,,,,,,,,,,,,,,,,,,,,,,,,,,,,,,,,,200.0,125.0,125.0,200.0,127.0,127.0,2.1,2.12,-258,-277,0,-261,260,258,318.6737344264984,318.67381286621094,318.6769037246704,318.68995928764343,318.8291869163513,318.8291869163513,318.8291869163513,318.8291869163513,318.8291869163513,318.8291869163513,318.8291869163513,321.7375273704529,2,3.032870292663574,None,,,,,,,,,,,,,,,,,,207,2,2025-03-07_09h59.18.083,comp,2024.2.4,56.97497575275141,2025-03-07 09h59.25.574689 -0500,
107,107,0,critical,hdw,20.0,4.0,lower,133.0,57.0,78.0,78.0,57.0,133.0,3,4.3442699909210205,None,,,,,0,0,0,0,0,107,107,118,321.75552678108215,,,,,,,,,,,,,,,,,,,,,,,,,,,,,,,,,,,,,,,,,,,,,,,,,,,,,,,,,,,,,,,,,,,,,,,,,,,,,,,,,133.0,57.0,78.0,78.0,57.0,133.0,4.0,4.2,-164,19,0,-286,202,8,321.73948788642883,321.73960280418396,321.74278020858765,321.75552678108215,321.9001052379608,321.9001052379608,321.9001052379608,321.9001052379608,321.9001052379608,321.9001052379608,321.9001052379608,326.1069760322571,3,4.3442699909210205,None,,,,,,,,,,,,,,,,,,207,2,2025-03-07_09h59.18.083,comp,2024.2.4,56.97497575275141,2025-03-07 09h59.25.574689 -0500,
108,108,0,filler_random,None,None,None,None,None,None,None,None,None,None,1,0.9713358879089355,None,,,,,0,0,0,0,0,108,108,132,326.1276080608368,,,,,,,,,,,,,,,,,,,,,,,,,,,,,,,,,,,,,,,,,,,,,,,,,,,,,,,,,,,,,,,,,,,,,,,,,,,,,,,,,172.64127057685923,196.26777429627748,63.47267659313842,171.3587326462739,186.22183141071898,72.93721469326888,2.1,2.12,-280,-273,0,-263,218,268,326.10871624946594,326.10879588127136,326.1118657588959,326.1276080608368,326.2710485458374,326.2710485458374,326.2710485458374,326.2710485458374,326.2710485458374,326.2710485458374,326.2710485458374,327.1017186641693,1,0.9713358879089355,None,,,,,,,,,,,,,,,,,,207,2,2025-03-07_09h59.18.083,comp,2024.2.4,56.97497575275141,2025-03-07 09h59.25.574689 -0500,
109,109,0,filler_random,None,None,None,None,None,None,None,None,None,None,2,1.2452244758605957,None,,,,,0,0,0,0,0,109,109,164,327.1177694797516,,,,,,,,,,,,,,,,,,,,,,,,,,,,,,,,,,,,,,,,,,,,,,,,,,,,,,,,,,,,,,,,,,,,,,,,,,,,,,,,,151.19206132628085,193.68838444033577,178.64067095885326,196.9460971022762,129.74932338534236,116.9654196558626,1.0,1.3,189,-262,480,-264,733,-257,327.1034641265869,327.10354256629944,327.10715079307556,327.1177694797516,327.2705750465393,327.2705750465393,327.2705750465393,327.2705750465393,327.2705750465393,327.2705750465393,327.2705750465393,328.3753273487091,2,1.2452244758605957,None,,,,,,,,,,,,,,,,,,207,2,2025-03-07_09h59.18.083,comp,2024.2.4,56.97497575275141,2025-03-07 09h59.25.574689 -0500,
110,110,0,critical,dwh,35.0,4.0,lower,70.0,70.0,57.0,133.0,133.0,57.0,3,9.099431037902832,None,,,,,0,0,0,0,0,110,110,64,328.3916006088257,,,,,,,,,,,,,,,,,,,,,,,,,,,,,,,,,,,,,,,,,,,,,,,,,,,,,,,,,,,,,,,,,,,,,,,,,,,,,,,,,70.0,70.0,57.0,133.0,133.0,57.0,4.0,4.1,-198,-266,0,-19,191,-288,328.37683272361755,328.37691044807434,328.3799238204956,328.3916006088257,328.53512835502625,328.53512835502625,328.53512835502625,328.53512835502625,328.53512835502625,328.53512835502625,328.53512835502625,337.5040612220764,3,9.099431037902832,None,,,,,,,,,,,,,,,,,,207,2,2025-03-07_09h59.18.083,comp,2024.2.4,56.97497575275141,2025-03-07 09h59.25.574689 -0500,
111,111,0,filler_random,None,None,None,None,None,None,None,None,None,None,3,1.0625834465026855,None,,,,,0,0,0,0,0,111,111,159,337.52471256256104,,,,,,,,,,,,,,,,,,,,,,,,,,,,,,,,,,,,,,,,,,,,,,,,,,,,,,,,,,,,,,,,,,,,,,,,,,,,,,,,,171.2994077582399,90.77024157592197,65.55598314200014,166.54796524598947,184.26733204974153,142.25428207391576,2.1,2.12,-225,-251,0,-259,250,278,337.5057895183563,337.50590085983276,337.50935339927673,337.52471256256104,337.6710388660431,337.6710388660431,337.6710388660431,337.6710388660431,337.6710388660431,337.6710388660431,337.6710388660431,338.59013986587524,3,1.0625834465026855,None,,,,,,,,,,,,,,,,,,207,2,2025-03-07_09h59.18.083,comp,2024.2.4,56.97497575275141,2025-03-07 09h59.25.574689 -0500,
112,112,0,filler_random,None,None,None,None,None,None,None,None,None,None,3,1.3082804679870605,None,,,,,0,0,0,0,0,112,112,160,338.6071631908417,,,,,,,,,,,,,,,,,,,,,,,,,,,,,,,,,,,,,,,,,,,,,,,,,,,,,,,,,,,,,,,,,,,,,,,,,,,,,,,,,104.89814859154255,103.28625239834577,182.4251432690773,87.15937106563645,127.00500706217674,152.99985407246118,1.0,1.2,-191,8,0,-17,216,-5,338.5919408798218,338.59202003479004,338.5954415798187,338.6071631908417,338.7598638534546,338.7598638534546,338.7598638534546,338.7598638534546,338.7598638534546,338.7598638534546,338.7598638534546,339.92319655418396,3,1.3082804679870605,None,,,,,,,,,,,,,,,,,,207,2,2025-03-07_09h59.18.083,comp,2024.2.4,56.97497575275141,2025-03-07 09h59.25.574689 -0500,
113,113,0,filler_random,None,None,None,None,None,None,None,None,None,None,1,1.6294050216674805,None,,,,,0,0,0,0,0,113,113,165,339.9416410923004,,,,,,,,,,,,,,,,,,,,,,,,,,,,,,,,,,,,,,,,,,,,,,,,,,,,,,,,,,,,,,,,,,,,,,,,,,,,,,,,,180.71359930744995,139.4012327761524,111.38693305786484,138.6261862415164,154.5551692638488,96.10953528161386,3.0,3.2,-235,-269,0,-13,213,270,339.92497992515564,339.9251039028168,339.9284818172455,339.9416410923004,340.08852648735046,340.08852648735046,340.08852648735046,340.08852648735046,340.08852648735046,340.08852648735046,340.08852648735046,341.57628178596497,1,1.6294050216674805,None,,,,,,,,,,,,,,,,,,207,2,2025-03-07_09h59.18.083,comp,2024.2.4,56.97497575275141,2025-03-07 09h59.25.574689 -0500,
114,114,0,filler_random,None,None,None,None,None,None,None,None,None,None,3,2.038417339324951,None,,,,,0,0,0,0,0,114,114,154,341.596923828125,,,,,,,,,,,,,,,,,,,,,,,,,,,,,,,,,,,,,,,,,,,,,,,,,,,,,,,,,,,,,,,,,,,,,,,,,,,,,,,,,190.63290335826343,113.45887940038382,126.48129822693902,85.70929190074631,97.19108983151233,188.1494796943998,3.0,3.2,-196,-287,0,16,233,264,341.5780420303345,341.578120470047,341.58118295669556,341.596923828125,341.74009370803833,341.74009370803833,341.74009370803833,341.74009370803833,341.74009370803833,341.74009370803833,341.74009370803833,343.6390085220337,3,2.038417339324951,None,,,,,,,,,,,,,,,,,,207,2,2025-03-07_09h59.18.083,comp,2024.2.4,56.97497575275141,2025-03-07 09h59.25.574689 -0500,
115,115,0,critical,whd,20.0,2.1,upper,125.0,200.0,200.0,125.0,141.0,141.0,2,1.7063989639282227,None,,,,,0,0,0,0,0,115,115,15,343.657062292099,,,,,,,,,,,,,,,,,,,,,,,,,,,,,,,,,,,,,,,,,,,,,,,,,,,,,,,,,,,,,,,,,,,,,,,,,,,,,,,,,125.0,200.0,200.0,125.0,141.0,141.0,2.1,2.12,-258,-254,0,-252,229,267,343.6405096054077,343.64060974121094,343.6438412666321,343.657062292099,343.80698251724243,343.80698251724243,343.80698251724243,343.80698251724243,343.80698251724243,343.80698251724243,343.80698251724243,345.37390661239624,2,1.7063989639282227,None,,,,,,,,,,,,,,,,,,207,2,2025-03-07_09h59.18.083,comp,2024.2.4,56.97497575275141,2025-03-07 09h59.25.574689 -0500,
116,116,0,catch,None,None,None,None,None,None,None,None,None,None,3,0.9794256687164307,None,,,,,0,0,0,0,0,116,116,123,345.3917782306671,,,,,,,,,,,,,,,,,,,,,,,,,,,,,,,,,,,,,,,,,,,,,,,,,,,,,,,,,,,,,,,,,,,,,,,,,,,,,,,,,91,99,105,85,189,136,4.0,4.2,-188,-19,0,-263,206,-2,345.3760795593262,345.376158952713,345.37994933128357,345.3917782306671,345.541734457016,345.541734457016,345.541734457016,345.541734457016,345.541734457016,345.541734457016,345.541734457016,346.37516045570374,3,0.9794256687164307,None,,,,,,,,,,,,,,,,,,207,2,2025-03-07_09h59.18.083,comp,2024.2.4,56.97497575275141,2025-03-07 09h59.25.574689 -0500,
117,117,0,critical,dhw,20.0,2.1,upper,141.0,141.0,200.0,125.0,125.0,200.0,3,1.4176521301269531,None,,,,,0,0,0,0,0,117,117,27,346.3932604789734,,,,,,,,,,,,,,,,,,,,,,,,,,,,,,,,,,,,,,,,,,,,,,,,,,,,,,,,,,,,,,,,,,,,,,,,,,,,,,,,,141.0,141.0,200.0,125.0,125.0,200.0,2.1,2.11,-229,281,0,262,258,-258,346.37682271003723,346.37695503234863,346.3804211616516,346.3932604789734,346.5414581298828,346.5414581298828,346.5414581298828,346.5414581298828,346.5414581298828,346.5414581298828,346.5414581298828,347.82740092277527,3,1.4176521301269531,None,,,,,,,,,,,,,,,,,,207,2,2025-03-07_09h59.18.083,comp,2024.2.4,56.97497575275141,2025-03-07 09h59.25.574689 -0500,
118,118,0,critical,wdh,35.0,2.1,upper,125.0,200.0,127.0,127.0,200.0,125.0,1,1.792863368988037,None,,,,,0,0,0,0,0,118,118,33,347.8426978588104,,,,,,,,,,,,,,,,,,,,,,,,,,,,,,,,,,,,,,,,,,,,,,,,,,,,,,,,,,,,,,,,,,,,,,,,,,,,,,,,,125.0,200.0,127.0,127.0,200.0,125.0,2.1,2.11,-260,265,0,260,222,-258,347.8289499282837,347.829026222229,347.8324794769287,347.8426978588104,347.99069333076477,347.99069333076477,347.99069333076477,347.99069333076477,347.99069333076477,347.99069333076477,347.99069333076477,349.6435344219208,1,1.792863368988037,None,,,,,,,,,,,,,,,,,,207,2,2025-03-07_09h59.18.083,comp,2024.2.4,56.97497575275141,2025-03-07 09h59.25.574689 -0500,
119,119,0,critical,dwh,20.0,4.0,upper,141.0,141.0,125.0,200.0,200.0,125.0,2,1.3994786739349365,None,,,,,0,0,0,0,0,119,119,71,349.65941882133484,,,,,,,,,,,,,,,,,,,,,,,,,,,,,,,,,,,,,,,,,,,,,,,,,,,,,,,,,,,,,,,,,,,,,,,,,,,,,,,,,141.0,141.0,125.0,200.0,200.0,125.0,4.0,4.1,-266,-263,0,12,258,-272,349.64517855644226,349.6452579498291,349.6486644744873,349.65941882133484,349.8086929321289,349.8086929321289,349.8086929321289,349.8086929321289,349.8086929321289,349.8086929321289,349.8086929321289,351.0753149986267,2,1.3994786739349365,None,,,,,,,,,,,,,,,,,,207,2,2025-03-07_09h59.18.083,comp,2024.2.4,56.97497575275141,2025-03-07 09h59.25.574689 -0500,
120,120,0,critical,dhw,20.0,1.0,upper,141.0,141.0,200.0,125.0,125.0,200.0,3,2.1683666706085205,None,,,,,0,0,0,0,0,120,120,55,351.09096908569336,,,,,,,,,,,,,,,,,,,,,,,,,,,,,,,,,,,,,,,,,,,,,,,,,,,,,,,,,,,,,,,,,,,,,,,,,,,,,,,,,141.0,141.0,200.0,125.0,125.0,200.0,1.0,1.3,251,-253,480,-276,738,-255,351.0768747329712,351.0769498348236,351.08044505119324,351.09096908569336,351.24464082717896,351.24464082717896,351.24464082717896,351.24464082717896,351.24464082717896,351.24464082717896,351.24464082717896,353.2773811817169,3,2.1683666706085205,None,,,,,,,,,,,,,,,,,,207,2,2025-03-07_09h59.18.083,comp,2024.2.4,56.97497575275141,2025-03-07 09h59.25.574689 -0500,
121,121,0,critical,dwh,20.0,3.0,lower,78.0,78.0,57.0,133.0,133.0,57.0,3,2.2607693672180176,None,,,,,0,0,0,0,0,121,121,68,353.2952792644501,,,,,,,,,,,,,,,,,,,,,,,,,,,,,,,,,,,,,,,,,,,,,,,,,,,,,,,,,,,,,,,,,,,,,,,,,,,,,,,,,78.0,78.0,57.0,133.0,133.0,57.0,3.0,3.1,-202,270,0,4,191,-284,353.2789535522461,353.2790298461914,353.28264355659485,353.2952792644501,353.4430830478668,353.4430830478668,353.4430830478668,353.4430830478668,353.4430830478668,353.4430830478668,353.4430830478668,355.5662217140198,3,2.2607693672180176,None,,,,,,,,,,,,,,,,,,207,2,2025-03-07_09h59.18.083,comp,2024.2.4,56.97497575275141,2025-03-07 09h59.25.574689 -0500,
122,122,0,catch,None,None,None,None,None,None,None,None,None,None,1,0.8367276191711426,None,,,,,0,0,0,0,0,122,122,121,355.5830338001251,,,,,,,,,,,,,,,,,,,,,,,,,,,,,,,,,,,,,,,,,,,,,,,,,,,,,,,,,,,,,,,,,,,,,,,,,,,,,,,,,171,154,81,109,102,88,1.0,1.2,-228,-19,0,-12,194,-9,355.56837916374207,355.5684609413147,355.5720953941345,355.5830338001251,355.72670912742615,355.72670912742615,355.72670912742615,355.72670912742615,355.72670912742615,355.72670912742615,355.72670912742615,356.4280688762665,1,0.8367276191711426,None,,,,,,,,,,,,,,,,,,207,2,2025-03-07_09h59.18.083,comp,2024.2.4,56.97497575275141,2025-03-07 09h59.25.574689 -0500,
123,123,0,filler_square,None,None,None,None,None,None,None,None,None,None,2,0.9106791019439697,None,,,,,0,0,0,0,0,123,123,180,356.44466066360474,,,,,,,,,,,,,,,,,,,,,,,,,,,,,,,,,,,,,,,,,,,,,,,,,,,,,,,,,,,,,,,,,,,,,,,,,,,,,,,,,93.70917247216082,101.65638365148774,148.2357281434557,148.2357281434557,64.0005626896919,100.61818781453061,3.0,3.2,-221,-271,0,17,220,272,356.42983984947205,356.42996525764465,356.4339280128479,356.44466066360474,356.5962951183319,356.5962951183319,356.5962951183319,356.5962951183319,356.5962951183319,356.5962951183319,356.5962951183319,357.35906505584717,2,0.9106791019439697,None,,,,,,,,,,,,,,,,,,207,2,2025-03-07_09h59.18.083,comp,2024.2.4,56.97497575275141,2025-03-07 09h59.25.574689 -0500,
124,124,0,critical,whd,35.0,1.0,lower,57.0,133.0,133.0,57.0,70.0,70.0,2,2.867635488510132,None,,,,,0,0,0,0,0,124,124,84,357.3757908344269,,,,,,,,,,,,,,,,,,,,,,,,,,,,,,,,,,,,,,,,,,,,,,,,,,,,,,,,,,,,,,,,,,,,,,,,,,,,,,,,,57.0,133.0,133.0,57.0,70.0,70.0,1.0,1.2,-191,-9,0,14,160,7,357.3605012893677,357.3606045246124,357.3637819290161,357.3757908344269,357.5296411514282,357.5296411514282,357.5296411514282,357.5296411514282,357.5296411514282,357.5296411514282,357.5296411514282,360.2463150024414,2,2.867635488510132,None,,,,,,,,,,,,,,,,,,207,2,2025-03-07_09h59.18.083,comp,2024.2.4,56.97497575275141,2025-03-07 09h59.25.574689 -0500,
125,125,0,critical,dwh,35.0,3.0,lower,70.0,70.0,57.0,133.0,133.0,57.0,3,1.716048240661621,None,,,,,0,0,0,0,0,125,125,62,360.2628221511841,,,,,,,,,,,,,,,,,,,,,,,,,,,,,,,,,,,,,,,,,,,,,,,,,,,,,,,,,,,,,,,,,,,,,,,,,,,,,,,,,70.0,70.0,57.0,133.0,133.0,57.0,3.0,3.2,-198,-263,0,19,191,290,360.247834444046,360.2479636669159,360.2520251274109,360.2628221511841,360.41247510910034,360.41247510910034,360.41247510910034,360.41247510910034,360.41247510910034,360.41247510910034,360.41247510910034,361.9950771331787,3,1.716048240661621,None,,,,,,,,,,,,,,,,,,207,2,2025-03-07_09h59.18.083,comp,2024.2.4,56.97497575275141,2025-03-07 09h59.25.574689 -0500,
126,126,0,filler_random,None,None,None,None,None,None,None,None,None,None,3,2.480320453643799,None,,,,,0,0,0,0,0,126,126,141,362.0112204551697,,,,,,,,,,,,,,,,,,,,,,,,,,,,,,,,,,,,,,,,,,,,,,,,,,,,,,,,,,,,,,,,,,,,,,,,,,,,,,,,,162.93117426826242,159.61571268778653,169.06524200799862,125.39920111366935,133.2492737263943,196.9623114028316,2.2,2.21,-239,-276,0,262,257,259,361.9970815181732,361.9971764087677,362.0008044242859,362.0112204551697,362.1534469127655,362.1534469127655,362.1534469127655,362.1534469127655,362.1534469127655,362.1534469127655,362.1534469127655,364.49963426589966,3,2.480320453643799,None,,,,,,,,,,,,,,,,,,207,2,2025-03-07_09h59.18.083,comp,2024.2.4,56.97497575275141,2025-03-07 09h59.25.574689 -0500,
127,127,0,filler_random,None,None,None,None,None,None,None,None,None,None,2,1.7884533405303955,None,,,,,0,0,0,0,0,127,127,148,364.51916241645813,,,,,,,,,,,,,,,,,,,,,,,,,,,,,,,,,,,,,,,,,,,,,,,,,,,,,,,,,,,,,,,,,,,,,,,,,,,,,,,,,83.31300017817945,80.03702776177005,198.17906326812428,140.35344672379486,151.14515695303737,131.80775355931615,2.2,2.21,-206,-275,0,286,232,260,364.50153851509094,364.50169110298157,364.50503873825073,364.51916241645813,364.6612091064453,364.6612091064453,364.6612091064453,364.6612091064453,364.6612091064453,364.6612091064453,364.6612091064453,366.3169505596161,2,1.7884533405303955,None,,,,,,,,,,,,,,,,,,207,2,2025-03-07_09h59.18.083,comp,2024.2.4,56.97497575275141,2025-03-07 09h59.25.574689 -0500,
128,128,0,filler_square,None,None,None,None,None,None,None,None,None,None,2,2.7797842025756836,None,,,,,0,0,0,0,0,128,128,208,366.33514499664307,,,,,,,,,,,,,,,,,,,,,,,,,,,,,,,,,,,,,,,,,,,,,,,,,,,,,,,,,,,,,,,,,,,,,,,,,,,,,,,,,67.49881371171087,70.45641230459923,78.46473197663555,78.46473197663555,63.03626234567904,58.84328759967685,4.0,4.1,-170,-272,0,10,165,-282,366.31882762908936,366.3189067840576,366.3219647407532,366.33514499664307,366.4797570705414,366.4797570705414,366.4797570705414,366.4797570705414,366.4797570705414,366.4797570705414,366.4797570705414,369.11922121047974,2,2.7797842025756836,None,,,,,,,,,,,,,,,,,,207,2,2025-03-07_09h59.18.083,comp,2024.2.4,56.97497575275141,2025-03-07 09h59.25.574689 -0500,
129,129,0,catch,None,None,None,None,None,None,None,None,None,None,3,1.5394301414489746,None,,,,,0,0,0,0,0,129,129,122,369.1361029148102,,,,,,,,,,,,,,,,,,,,,,,,,,,,,,,,,,,,,,,,,,,,,,,,,,,,,,,,,,,,,,,,,,,,,,,,,,,,,,,,,127,63,60,130,200,125,3.0,3.2,-192,-283,0,7,224,252,369.1214220523834,369.121586561203,369.1250982284546,369.1361029148102,369.2843255996704,369.2843255996704,369.2843255996704,369.2843255996704,369.2843255996704,369.2843255996704,369.2843255996704,370.6796193122864,3,1.5394301414489746,None,,,,,,,,,,,,,,,,,,207,2,2025-03-07_09h59.18.083,comp,2024.2.4,56.97497575275141,2025-03-07 09h59.25.574689 -0500,
130,130,0,filler_random,None,None,None,None,None,None,None,None,None,None,3,3.249882221221924,None,,,,,0,0,0,0,0,130,130,138,370.69780707359314,,,,,,,,,,,,,,,,,,,,,,,,,,,,,,,,,,,,,,,,,,,,,,,,,,,,,,,,,,,,,,,,,,,,,,,,,,,,,,,,,62.40101932327104,142.71134588952538,187.12769677437444,112.93553438707545,139.8167119848071,153.39648496913543,4.0,4.2,-224,13,0,-250,229,-2,370.68124985694885,370.6813280582428,370.6844074726105,370.69780707359314,370.8327353000641,370.8327353000641,370.8327353000641,370.8327353000641,370.8327353000641,370.8327353000641,370.8327353000641,373.95220375061035,3,3.249882221221924,None,,,,,,,,,,,,,,,,,,207,2,2025-03-07_09h59.18.083,comp,2024.2.4,56.97497575275141,2025-03-07 09h59.25.574689 -0500,
131,131,0,critical,dhw,35.0,2.1,upper,127.0,127.0,200.0,125.0,125.0,200.0,3,1.4423327445983887,None,,,,,0,0,0,0,0,131,131,1,373.9693522453308,,,,,,,,,,,,,,,,,,,,,,,,,,,,,,,,,,,,,,,,,,,,,,,,,,,,,,,,,,,,,,,,,,,,,,,,,,,,,,,,,127.0,127.0,200.0,125.0,125.0,200.0,2.1,2.12,-222,-257,0,-276,258,285,373.9539725780487,373.95410442352295,373.9575889110565,373.9693522453308,374.11271500587463,374.11271500587463,374.11271500587463,374.11271500587463,374.11271500587463,374.11271500587463,374.11271500587463,375.41981863975525,3,1.4423327445983887,None,,,,,,,,,,,,,,,,,,207,2,2025-03-07_09h59.18.083,comp,2024.2.4,56.97497575275141,2025-03-07 09h59.25.574689 -0500,
132,132,0,filler_random,None,None,None,None,None,None,None,None,None,None,2,2.413785457611084,None,,,,,0,0,0,0,0,132,132,153,375.43745374679565,,,,,,,,,,,,,,,,,,,,,,,,,,,,,,,,,,,,,,,,,,,,,,,,,,,,,,,,,,,,,,,,,,,,,,,,,,,,,,,,,197.40074076839278,64.13860148840266,148.32775091700194,97.95482119621275,176.49510410257068,76.26973776905623,2.2,2.21,-177,-261,0,286,183,252,375.4219722747803,375.42205262184143,375.4251492023468,375.43745374679565,375.5805289745331,375.5805289745331,375.5805289745331,375.5805289745331,375.5805289745331,375.5805289745331,375.5805289745331,377.86882877349854,2,2.413785457611084,None,,,,,,,,,,,,,,,,,,207,2,2025-03-07_09h59.18.083,comp,2024.2.4,56.97497575275141,2025-03-07 09h59.25.574689 -0500,
133,133,0,critical,dhw,35.0,3.0,upper,127.0,127.0,200.0,125.0,125.0,200.0,3,2.749568462371826,None,,,,,0,0,0,0,0,133,133,51,377.8855404853821,,,,,,,,,,,,,,,,,,,,,,,,,,,,,,,,,,,,,,,,,,,,,,,,,,,,,,,,,,,,,,,,,,,,,,,,,,,,,,,,,127.0,127.0,200.0,125.0,125.0,200.0,3.0,3.1,-222,274,0,-11,258,-265,377.8706557750702,377.87078523635864,377.87432503700256,377.8855404853821,378.0373775959015,378.0373775959015,378.0373775959015,378.0373775959015,378.0373775959015,378.0373775959015,378.0373775959015,380.6524624824524,3,2.749568462371826,None,,,,,,,,,,,,,,,,,,207,2,2025-03-07_09h59.18.083,comp,2024.2.4,56.97497575275141,2025-03-07 09h59.25.574689 -0500,
134,134,0,critical,whd,20.0,2.1,lower,57.0,133.0,133.0,57.0,78.0,78.0,2,4.446938753128052,None,,,,,0,0,0,0,0,134,134,14,380.66844272613525,,,,,,,,,,,,,,,,,,,,,,,,,,,,,,,,,,,,,,,,,,,,,,,,,,,,,,,,,,,,,,,,,,,,,,,,,,,,,,,,,57.0,133.0,133.0,57.0,78.0,78.0,2.1,2.11,-191,269,0,257,164,-271,380.65416431427,380.65430212020874,380.65803480148315,380.66844272613525,380.81732058525085,380.81732058525085,380.81732058525085,380.81732058525085,380.81732058525085,380.81732058525085,380.81732058525085,385.12032556533813,2,4.446938753128052,None,,,,,,,,,,,,,,,,,,207,2,2025-03-07_09h59.18.083,comp,2024.2.4,56.97497575275141,2025-03-07 09h59.25.574689 -0500,
135,135,0,critical,hwd,20.0,1.0,lower,133.0,57.0,57.0,133.0,78.0,78.0,2,3.395104169845581,None,,,,,0,0,0,0,0,135,135,102,385.13669753074646,,,,,,,,,,,,,,,,,,,,,,,,,,,,,,,,,,,,,,,,,,,,,,,,,,,,,,,,,,,,,,,,,,,,,,,,,,,,,,,,,133.0,57.0,57.0,133.0,78.0,78.0,1.0,1.1,-671,284,-480,281,-278,274,385.12188696861267,385.1219675540924,385.1256833076477,385.13669753074646,385.28665041923523,385.28665041923523,385.28665041923523,385.28665041923523,385.28665041923523,385.28665041923523,385.28665041923523,388.53778171539307,2,3.395104169845581,None,,,,,,,,,,,,,,,,,,207,2,2025-03-07_09h59.18.083,comp,2024.2.4,56.97497575275141,2025-03-07 09h59.25.574689 -0500,
136,136,0,critical,hwd,20.0,3.0,upper,200.0,125.0,125.0,200.0,141.0,141.0,2,2.7774689197540283,None,,,,,0,0,0,0,0,136,136,105,388.5542502403259,,,,,,,,,,,,,,,,,,,,,,,,,,,,,,,,,,,,,,,,,,,,,,,,,,,,,,,,,,,,,,,,,,,,,,,,,,,,,,,,,200.0,125.0,125.0,200.0,141.0,141.0,3.0,3.2,-258,-280,0,9,266,265,388.5392279624939,388.53930473327637,388.5426127910614,388.5542502403259,388.7097132205963,388.7097132205963,388.7097132205963,388.7097132205963,388.7097132205963,388.7097132205963,388.7097132205963,391.3364520072937,2,2.7774689197540283,None,,,,,,,,,,,,,,,,,,207,2,2025-03-07_09h59.18.083,comp,2024.2.4,56.97497575275141,2025-03-07 09h59.25.574689 -0500,
137,137,0,critical,hdw,20.0,2.1,lower,133.0,57.0,78.0,78.0,57.0,133.0,3,2.3218116760253906,None,,,,,0,0,0,0,0,137,137,22,391.3530912399292,,,,,,,,,,,,,,,,,,,,,,,,,,,,,,,,,,,,,,,,,,,,,,,,,,,,,,,,,,,,,,,,,,,,,,,,,,,,,,,,,133.0,57.0,78.0,78.0,57.0,133.0,2.1,2.11,-164,284,0,279,202,-268,391.33799481391907,391.3380732536316,391.3412764072418,391.3530912399292,391.4890863895416,391.4890863895416,391.4890863895416,391.4890863895416,391.4890863895416,391.4890863895416,391.4890863895416,393.6877636909485,3,2.3218116760253906,None,,,,,,,,,,,,,,,,,,207,2,2025-03-07_09h59.18.083,comp,2024.2.4,56.97497575275141,2025-03-07 09h59.25.574689 -0500,
138,138,0,filler_random,None,None,None,None,None,None,None,None,None,None,3,1.2276558876037598,None,,,,,0,0,0,0,0,138,138,136,393.7042019367218,,,,,,,,,,,,,,,,,,,,,,,,,,,,,,,,,,,,,,,,,,,,,,,,,,,,,,,,,,,,,,,,,,,,,,,,,,,,,,,,,173.53290280962787,67.38404463606498,128.0511175937146,61.20502302151532,167.74009654975498,192.24347402792364,4.0,4.1,-160,-262,0,2,223,-262,393.6894721984863,393.689572095871,393.6927926540375,393.7042019367218,393.85794258117676,393.85794258117676,393.85794258117676,393.85794258117676,393.85794258117676,393.85794258117676,393.85794258117676,394.9397487640381,3,1.2276558876037598,None,,,,,,,,,,,,,,,,,,207,2,2025-03-07_09h59.18.083,comp,2024.2.4,56.97497575275141,2025-03-07 09h59.25.574689 -0500,
139,139,0,critical,dwh,20.0,2.1,upper,141.0,141.0,125.0,200.0,200.0,125.0,2,2.670616626739502,None,,,,,0,0,0,0,0,139,139,7,394.95646023750305,,,,,,,,,,,,,,,,,,,,,,,,,,,,,,,,,,,,,,,,,,,,,,,,,,,,,,,,,,,,,,,,,,,,,,,,,,,,,,,,,141.0,141.0,125.0,200.0,200.0,125.0,2.1,2.12,-266,-274,0,-253,258,275,394.9413547515869,394.94143295288086,394.94562292099,394.95646023750305,395.10874223709106,395.10874223709106,395.10874223709106,395.10874223709106,395.10874223709106,395.10874223709106,395.10874223709106,397.640949010849,2,2.670616626739502,None,,,,,,,,,,,,,,,,,,207,2,2025-03-07_09h59.18.083,comp,2024.2.4,56.97497575275141,2025-03-07 09h59.25.574689 -0500,
