thisN,thisTrialN,thisRepN,effect,order,distance,config,diag,h_1,w_1,h_2,w_2,h_3,w_3,rect_choice.keys,rect_choice.rt,rect_choice.duration,instructions_loop.thisRepN,instructions_loop.thisTrialN,instructions_loop.thisN,instructions_loop.thisIndex,blocks.thisRepN,blocks.thisTrialN,blocks.thisN,blocks.thisIndex,trials.thisRepN,trials.thisTrialN,trials.thisN,trials.thisIndex,thisRow.t,notes,consent.started,agree_button.started,decline_button.started,consent_img.started,mouse.started,consent.stopped,agree_button.numClicks,agree_button.timesOn,agree_button.timesOff,decline_button.numClicks,decline_button.timesOn,decline_button.timesOff,mouse.x,mouse.y,mouse.leftButton,mouse.midButton,mouse.rightButton,mouse.time,mouse.clicked_name,exp_params.started,exp_params.stopped,welcome.started,welcome_text.started,welcome.stopped,instructions_1.started,instructions_1_text_1.started,instructions_1_text_2.started,key_resp.started,instructions_1.stopped,instructions_loop.key_resp.keys,instructions_loop.key_resp.rt,instructions_loop.key_resp.duration,instructions_2.started,instructions_2_text_1.started,instructions_2_text_2.started,key_resp_2.started,instructions_2.stopped,instructions_loop.key_resp_2.keys,instructions_loop.key_resp_2.rt,instructions_loop.key_resp_2.duration,instructions_3.started,instructions_3_text_1.started,r1_instr3.started,r2_instr3.started,r3_instr3.started,r1_instr3_label.started,r2_instr3_label.started,r3_instr3_label.started,instructions_3_text_3.started,instructions_3_text_4.started,key_resp_3.started,instructions_3.stopped,instructions_loop.key_resp_3.keys,instructions_loop.key_resp_3.rt,instructions_loop.key_resp_3.duration,instructions_4.started,instructions_4_text_1.started,instructions_4_text_3.started,instructions_4_text_2.started,key_resp_4.started,instructions_4.stopped,instructions_loop.key_resp_4.keys,instructions_loop.key_resp_4.rt,instructions_loop.key_resp_4.duration,instructions_5.started,instructions_5_text_1.started,instructions_5_text_2.started,key_resp_5.started,instructions_5.stopped,instructions_loop.key_resp_5.keys,instructions_loop.key_resp_5.rt,instructions_loop.key_resp_5.duration,start_exp.started,start_exp_text.started,key_resp_6.started,start_exp.stopped,key_resp_6.keys,key_resp_6.rt,key_resp_6.duration,h_1_tmp,w_1_tmp,h_2_tmp,w_2_tmp,h_3_tmp,w_3_tmp,config_tmp,config_tmp_1,r_1_x,r_1_y,r_2_x,r_2_y,r_3_x,r_3_y,pre_trial.started,pre_trial.stopped,choice_trial.started,rect_choice.started,r_1.started,r_2.started,r_3.started,r_1_label.started,r_2_label.started,r_3_label.started,prompt.started,choice_trial.stopped,trials.rect_choice.keys,trials.rect_choice.rt,trials.rect_choice.duration,end_block.started,end_block_text.started,end_block.stopped,end.started,end_text.started,key_resp_7.started,end.stopped,key_resp_7.keys,key_resp_7.rt,key_resp_7.duration,debriefing.started,debrief_form.started,end_debrief.started,debriefing.stopped,end_debrief.keys,end_debrief.rt,end_debrief.duration,participant,computer,date,expName,psychopyVersion,frameRate,expStart,
,,,,,,,,,,,,,,,,,,,,,,,,,,,,,,,0.01517033576965332,0.04171442985534668,0.04171442985534668,0.04171442985534668,0.014628410339355469,5.912946462631226,1,[5.8700244426727295],[5.870035886764526],0,,,[-74.0],[-489.0],[1],[0],[0],[5.897170066833496],['agree_button'],,,,,,,,,,,,,,,,,,,,,,,,,,,,,,,,,,,,,,,,,,,,,,,,,,,,,,,,,,,,,,,,,,,,,,,,,,,,,,,,,,,,,,,,,,,,,,,,,,,,,,,,,,,208,3,2025-03-07_10h00.16.398,comp,2024.2.4,60.05117008253932,2025-03-07 10h00.23.988266 -0500,
,,,,,,,,,,,,,,,,,,,,,,,,,,,,,,,,,,,,,,,,,,,,,,,,,,5.913215160369873,5.913252830505371,,,,,,,,,,,,,,,,,,,,,,,,,,,,,,,,,,,,,,,,,,,,,,,,,,,,,,,,,,,,,,,,,,,,,,,,,,,,,,,,,,,,,,,,,,,,,,,,,,,,,,,,,208,3,2025-03-07_10h00.16.398,comp,2024.2.4,60.05117008253932,2025-03-07 10h00.23.988266 -0500,
,,,,,,,,,,,,,,,,,,,,,,,,,,,,,,,,,,,,,,,,,,,,,,,,,,,,5.913278102874756,5.926678657531738,7.917218446731567,,,,,,,,,,,,,,,,,,,,,,,,,,,,,,,,,,,,,,,,,,,,,,,,,,,,,,,,,,,,,,,,,,,,,,,,,,,,,,,,,,,,,,,,,,,,,,,,,,,,,,208,3,2025-03-07_10h00.16.398,comp,2024.2.4,60.05117008253932,2025-03-07 10h00.23.988266 -0500,
0,0,0,,,,,,,,,,,,,,,0,0,0,0,,,,,,,,,7.934083938598633,,,,,,,,,,,,,,,,,,,,,,,,,,7.917781829833984,7.934083938598633,7.934083938598633,9.416590213775635,10.125098466873169,space,0.6951110363006592,None,10.125189304351807,10.150610208511353,10.150610208511353,11.633363008499146,14.051109075546265,space,2.409151315689087,None,14.051194906234741,14.073077201843262,14.073077201843262,14.073077201843262,14.073077201843262,14.073077201843262,14.073077201843262,14.073077201843262,14.073077201843262,14.073077201843262,15.550396203994751,21.668288946151733,space,6.108209133148193,None,21.668376684188843,21.683868646621704,21.683868646621704,21.683868646621704,23.18333649635315,25.31782579421997,space,2.1218318939208984,None,25.317910194396973,25.33332109451294,25.33332109451294,26.833186626434326,27.417579174041748,space,0.5768766403198242,None,27.417689323425293,27.43336319923401,27.43336319923401,28.450785636901855,space,1.00883150100708,None,,,,,,,,,,,,,,,,,,,,,,,,,,,,,,,,,,,,,,,,,,,,,,,208,3,2025-03-07_10h00.16.398,comp,2024.2.4,60.05117008253932,2025-03-07 10h00.23.988266 -0500,
0,0,0,critical,wdh,35.0,1.0,upper,125.0,200.0,127.0,127.0,200.0,125.0,1,5.1159703731536865,None,,,,,0,0,0,0,0,0,0,73,28.51003932952881,,,,,,,,,,,,,,,,,,,,,,,,,,,,,,,,,,,,,,,,,,,,,,,,,,,,,,,,,,,,,,,,,,,,,,,,,,,,,,,,,125.0,200.0,127.0,127.0,200.0,125.0,1.0,1.3,220,-258,480,-271,702,-256,28.496260404586792,28.49630618095398,28.498302698135376,28.51003932952881,28.657267570495605,28.657267570495605,28.657267570495605,28.657267570495605,28.657267570495605,28.657267570495605,28.657267570495605,33.63462996482849,1,5.1159703731536865,None,,,,,,,,,,,,,,,,,,208,3,2025-03-07_10h00.16.398,comp,2024.2.4,60.05117008253932,2025-03-07 10h00.23.988266 -0500,
1,1,0,critical,dhw,20.0,2.1,lower,78.0,78.0,133.0,57.0,57.0,133.0,2,4.265463590621948,None,,,,,0,0,0,0,0,1,1,2,33.65022349357605,,,,,,,,,,,,,,,,,,,,,,,,,,,,,,,,,,,,,,,,,,,,,,,,,,,,,,,,,,,,,,,,,,,,,,,,,,,,,,,,,78.0,78.0,133.0,57.0,57.0,133.0,2.1,2.11,-164,252,0,283,191,-254,33.63543629646301,33.635477781295776,33.63754153251648,33.65022349357605,33.79994201660156,33.79994201660156,33.79994201660156,33.79994201660156,33.79994201660156,33.79994201660156,33.79994201660156,37.91783165931702,2,4.265463590621948,None,,,,,,,,,,,,,,,,,,208,3,2025-03-07_10h00.16.398,comp,2024.2.4,60.05117008253932,2025-03-07 10h00.23.988266 -0500,
2,2,0,critical,whd,35.0,1.0,upper,125.0,200.0,200.0,125.0,127.0,127.0,2,3.5717718601226807,None,,,,,0,0,0,0,0,2,2,85,37.933385372161865,,,,,,,,,,,,,,,,,,,,,,,,,,,,,,,,,,,,,,,,,,,,,,,,,,,,,,,,,,,,,,,,,,,,,,,,,,,,,,,,,125.0,200.0,200.0,125.0,127.0,127.0,1.0,1.2,-258,-19,0,-20,222,-5,37.91858530044556,37.918625354766846,37.920677185058594,37.933385372161865,38.083416223526,38.083416223526,38.083416223526,38.083416223526,38.083416223526,38.083416223526,38.083416223526,41.51787829399109,2,3.5717718601226807,None,,,,,,,,,,,,,,,,,,208,3,2025-03-07_10h00.16.398,comp,2024.2.4,60.05117008253932,2025-03-07 10h00.23.988266 -0500,
3,3,0,critical,wdh,20.0,2.1,upper,125.0,200.0,141.0,141.0,200.0,125.0,1,1.8767783641815186,None,,,,,0,0,0,0,0,3,3,35,41.533036947250366,,,,,,,,,,,,,,,,,,,,,,,,,,,,,,,,,,,,,,,,,,,,,,,,,,,,,,,,,,,,,,,,,,,,,,,,,,,,,,,,,125.0,200.0,141.0,141.0,200.0,125.0,2.1,2.11,-266,276,0,250,229,-276,41.51868462562561,41.51872754096985,41.52109932899475,41.533036947250366,41.683385610580444,41.683385610580444,41.683385610580444,41.683385610580444,41.683385610580444,41.683385610580444,41.683385610580444,43.41788697242737,1,1.8767783641815186,None,,,,,,,,,,,,,,,,,,208,3,2025-03-07_10h00.16.398,comp,2024.2.4,60.05117008253932,2025-03-07 10h00.23.988266 -0500,
4,4,0,filler_square,None,None,None,None,None,None,None,None,None,None,3,2.3443381786346436,None,,,,,0,0,0,0,0,4,4,175,43.43345546722412,,,,,,,,,,,,,,,,,,,,,,,,,,,,,,,,,,,,,,,,,,,,,,,,,,,,,,,,,,,,,,,,,,,,,,,,,,,,,,,,,145.8300933991764,162.3242477752251,128.28440176523046,138.57613138026193,183.38543056090225,183.38543056090225,3.0,3.2,-246,-262,0,-7,257,279,43.4188506603241,43.41889429092407,43.420963764190674,43.43345546722412,43.583422899246216,43.583422899246216,43.583422899246216,43.583422899246216,43.583422899246216,43.583422899246216,43.583422899246216,45.78456425666809,3,2.3443381786346436,None,,,,,,,,,,,,,,,,,,208,3,2025-03-07_10h00.16.398,comp,2024.2.4,60.05117008253932,2025-03-07 10h00.23.988266 -0500,
5,5,0,critical,hwd,20.0,1.0,upper,200.0,125.0,125.0,200.0,141.0,141.0,1,1.6418938636779785,None,,,,,0,0,0,0,0,5,5,103,45.80004334449768,,,,,,,,,,,,,,,,,,,,,,,,,,,,,,,,,,,,,,,,,,,,,,,,,,,,,,,,,,,,,,,,,,,,,,,,,,,,,,,,,200.0,125.0,125.0,200.0,141.0,141.0,1.0,1.2,-258,-4,0,-20,266,-4,45.78535079956055,45.785393476486206,45.787450075149536,45.80004334449768,45.95003938674927,45.95003938674927,45.95003938674927,45.95003938674927,45.95003938674927,45.95003938674927,45.95003938674927,47.451321601867676,1,1.6418938636779785,None,,,,,,,,,,,,,,,,,,208,3,2025-03-07_10h00.16.398,comp,2024.2.4,60.05117008253932,2025-03-07 10h00.23.988266 -0500,
6,6,0,critical,dhw,20.0,3.0,upper,141.0,141.0,200.0,125.0,125.0,200.0,3,1.0003910064697266,None,,,,,0,0,0,0,0,6,6,57,47.46667170524597,,,,,,,,,,,,,,,,,,,,,,,,,,,,,,,,,,,,,,,,,,,,,,,,,,,,,,,,,,,,,,,,,,,,,,,,,,,,,,,,,141.0,141.0,200.0,125.0,125.0,200.0,3.0,3.2,-229,-270,0,14,258,259,47.452094316482544,47.45213532447815,47.45471119880676,47.46667170524597,47.616981744766235,47.616981744766235,47.616981744766235,47.616981744766235,47.616981744766235,47.616981744766235,47.616981744766235,48.48441290855408,3,1.0003910064697266,None,,,,,,,,,,,,,,,,,,208,3,2025-03-07_10h00.16.398,comp,2024.2.4,60.05117008253932,2025-03-07 10h00.23.988266 -0500,
7,7,0,critical,hwd,20.0,2.1,upper,200.0,125.0,125.0,200.0,141.0,141.0,2,1.4944038391113281,None,,,,,0,0,0,0,0,7,7,19,48.49972105026245,,,,,,,,,,,,,,,,,,,,,,,,,,,,,,,,,,,,,,,,,,,,,,,,,,,,,,,,,,,,,,,,,,,,,,,,,,,,,,,,,200.0,125.0,125.0,200.0,141.0,141.0,2.1,2.12,-258,-282,0,-252,266,256,48.48526477813721,48.48530626296997,48.48743796348572,48.49972105026245,48.65003752708435,48.65003752708435,48.65003752708435,48.65003752708435,48.65003752708435,48.65003752708435,48.65003752708435,50.00109243392944,2,1.4944038391113281,None,,,,,,,,,,,,,,,,,,208,3,2025-03-07_10h00.16.398,comp,2024.2.4,60.05117008253932,2025-03-07 10h00.23.988266 -0500,
8,8,0,catch,None,None,None,None,None,None,None,None,None,None,2,1.0990581512451172,None,,,,,0,0,0,0,0,8,8,121,50.01662063598633,,,,,,,,,,,,,,,,,,,,,,,,,,,,,,,,,,,,,,,,,,,,,,,,,,,,,,,,,,,,,,,,,,,,,,,,,,,,,,,,,116,74,138,187,63,127,2.1,2.12,-226,-255,0,-282,253,286,50.00212860107422,50.002171754837036,50.00472569465637,50.01662063598633,50.16641092300415,50.16641092300415,50.16641092300415,50.16641092300415,50.16641092300415,50.16641092300415,50.16641092300415,51.11810278892517,2,1.0990581512451172,None,,,,,,,,,,,,,,,,,,208,3,2025-03-07_10h00.16.398,comp,2024.2.4,60.05117008253932,2025-03-07 10h00.23.988266 -0500,
9,9,0,critical,hdw,35.0,4.0,upper,200.0,125.0,127.0,127.0,125.0,200.0,3,1.3003392219543457,None,,,,,0,0,0,0,0,9,9,113,51.13331413269043,,,,,,,,,,,,,,,,,,,,,,,,,,,,,,,,,,,,,,,,,,,,,,,,,,,,,,,,,,,,,,,,,,,,,,,,,,,,,,,,,200.0,125.0,127.0,127.0,125.0,200.0,4.0,4.1,-222,-263,0,6,260,-279,51.11888289451599,51.118924140930176,51.120934009552,51.13331413269043,51.283610105514526,51.283610105514526,51.283610105514526,51.283610105514526,51.283610105514526,51.283610105514526,51.283610105514526,52.451064348220825,3,1.3003392219543457,None,,,,,,,,,,,,,,,,,,208,3,2025-03-07_10h00.16.398,comp,2024.2.4,60.05117008253932,2025-03-07 10h00.23.988266 -0500,
10,10,0,catch,None,None,None,None,None,None,None,None,None,None,1,0.81689453125,None,,,,,0,0,0,0,0,10,10,128,52.46644616127014,,,,,,,,,,,,,,,,,,,,,,,,,,,,,,,,,,,,,,,,,,,,,,,,,,,,,,,,,,,,,,,,,,,,,,,,,,,,,,,,,200,125,69,121,108,82,2.1,2.12,-219,-259,0,-263,198,274,52.45211601257324,52.45215916633606,52.454647064208984,52.46644616127014,52.6165885925293,52.6165885925293,52.6165885925293,52.6165885925293,52.6165885925293,52.6165885925293,52.6165885925293,53.30113458633423,1,0.81689453125,None,,,,,,,,,,,,,,,,,,208,3,2025-03-07_10h00.16.398,comp,2024.2.4,60.05117008253932,2025-03-07 10h00.23.988266 -0500,
11,11,0,critical,dwh,35.0,1.0,lower,70.0,70.0,57.0,133.0,133.0,57.0,2,1.6367506980895996,None,,,,,0,0,0,0,0,11,11,60,53.31640934944153,,,,,,,,,,,,,,,,,,,,,,,,,,,,,,,,,,,,,,,,,,,,,,,,,,,,,,,,,,,,,,,,,,,,,,,,,,,,,,,,,70.0,70.0,57.0,133.0,133.0,57.0,1.0,1.3,282,-280,480,-284,671,-260,53.30193734169006,53.3019814491272,53.304388999938965,53.31640934944153,53.46659731864929,53.46659731864929,53.46659731864929,53.46659731864929,53.46659731864929,53.46659731864929,53.46659731864929,54.967792987823486,2,1.6367506980895996,None,,,,,,,,,,,,,,,,,,208,3,2025-03-07_10h00.16.398,comp,2024.2.4,60.05117008253932,2025-03-07 10h00.23.988266 -0500,
12,12,0,filler_square,None,None,None,None,None,None,None,None,None,None,3,1.5326628684997559,None,,,,,0,0,0,0,0,12,12,198,54.98304104804993,,,,,,,,,,,,,,,,,,,,,,,,,,,,,,,,,,,,,,,,,,,,,,,,,,,,,,,,,,,,,,,,,,,,,,,,,,,,,,,,,94.51394983980565,94.51394983980565,88.26653248060873,57.43852183674113,81.29500667690726,90.29104592742738,3.0,3.1,-172,273,0,1,170,-271,54.96874165534973,54.96878433227539,54.97113800048828,54.98304104804993,55.13308119773865,55.13308119773865,55.13308119773865,55.13308119773865,55.13308119773865,55.13308119773865,55.13308119773865,56.51756739616394,3,1.5326628684997559,None,,,,,,,,,,,,,,,,,,208,3,2025-03-07_10h00.16.398,comp,2024.2.4,60.05117008253932,2025-03-07 10h00.23.988266 -0500,
13,13,0,critical,wdh,20.0,2.1,upper,125.0,200.0,141.0,141.0,200.0,125.0,3,1.5983519554138184,None,,,,,0,0,0,0,0,13,13,11,56.53315353393555,,,,,,,,,,,,,,,,,,,,,,,,,,,,,,,,,,,,,,,,,,,,,,,,,,,,,,,,,,,,,,,,,,,,,,,,,,,,,,,,,125.0,200.0,141.0,141.0,200.0,125.0,2.1,2.12,-266,-255,0,-256,229,256,56.51834464073181,56.51838684082031,56.52056860923767,56.53315353393555,56.683483839035034,56.683483839035034,56.683483839035034,56.683483839035034,56.683483839035034,56.683483839035034,56.683483839035034,58.13454270362854,3,1.5983519554138184,None,,,,,,,,,,,,,,,,,,208,3,2025-03-07_10h00.16.398,comp,2024.2.4,60.05117008253932,2025-03-07 10h00.23.988266 -0500,
14,14,0,critical,wdh,35.0,3.0,lower,57.0,133.0,70.0,70.0,133.0,57.0,1,1.5663104057312012,None,,,,,0,0,0,0,0,14,14,74,58.149927377700806,,,,,,,,,,,,,,,,,,,,,,,,,,,,,,,,,,,,,,,,,,,,,,,,,,,,,,,,,,,,,,,,,,,,,,,,,,,,,,,,,57.0,133.0,70.0,70.0,133.0,57.0,3.0,3.2,-198,-261,0,13,160,275,58.13537907600403,58.13542199134827,58.13754844665527,58.149927377700806,58.29979133605957,58.29979133605957,58.29979133605957,58.29979133605957,58.29979133605957,58.29979133605957,58.29979133605957,59.71809983253479,1,1.5663104057312012,None,,,,,,,,,,,,,,,,,,208,3,2025-03-07_10h00.16.398,comp,2024.2.4,60.05117008253932,2025-03-07 10h00.23.988266 -0500,
15,15,0,critical,hwd,20.0,1.0,lower,133.0,57.0,57.0,133.0,78.0,78.0,1,0.9245767593383789,None,,,,,0,0,0,0,0,15,15,102,59.73331069946289,,,,,,,,,,,,,,,,,,,,,,,,,,,,,,,,,,,,,,,,,,,,,,,,,,,,,,,,,,,,,,,,,,,,,,,,,,,,,,,,,133.0,57.0,57.0,133.0,78.0,78.0,1.0,1.2,-191,-14,0,5,202,-1,59.71886205673218,59.718902349472046,59.72093105316162,59.73331069946289,59.88303017616272,59.88303017616272,59.88303017616272,59.88303017616272,59.88303017616272,59.88303017616272,59.88303017616272,60.66741609573364,1,0.9245767593383789,None,,,,,,,,,,,,,,,,,,208,3,2025-03-07_10h00.16.398,comp,2024.2.4,60.05117008253932,2025-03-07 10h00.23.988266 -0500,
16,16,0,filler_random,None,None,None,None,None,None,None,None,None,None,3,0.6786539554595947,None,,,,,0,0,0,0,0,16,16,144,60.68315839767456,,,,,,,,,,,,,,,,,,,,,,,,,,,,,,,,,,,,,,,,,,,,,,,,,,,,,,,,,,,,,,,,,,,,,,,,,,,,,,,,,81.71942753202828,150.01700642275262,80.23799857581012,73.46876310673176,126.75488279670412,154.43336538282398,3.0,3.2,-208,-281,0,-17,210,271,60.66835021972656,60.668392181396484,60.67047142982483,60.68315839767456,60.833088874816895,60.833088874816895,60.833088874816895,60.833088874816895,60.833088874816895,60.833088874816895,60.833088874816895,61.36761236190796,3,0.6786539554595947,None,,,,,,,,,,,,,,,,,,208,3,2025-03-07_10h00.16.398,comp,2024.2.4,60.05117008253932,2025-03-07 10h00.23.988266 -0500,
17,17,0,catch,None,None,None,None,None,None,None,None,None,None,2,0.8912379741668701,None,,,,,0,0,0,0,0,17,17,129,61.38312578201294,,,,,,,,,,,,,,,,,,,,,,,,,,,,,,,,,,,,,,,,,,,,,,,,,,,,,,,,,,,,,,,,,,,,,,,,,,,,,,,,,112,78,175,150,73,117,2.1,2.12,-210,-251,0,-261,230,268,61.368647813797,61.36869168281555,61.370787143707275,61.38312578201294,61.53313326835632,61.53313326835632,61.53313326835632,61.53313326835632,61.53313326835632,61.53313326835632,61.53313326835632,62.28422927856445,2,0.8912379741668701,None,,,,,,,,,,,,,,,,,,208,3,2025-03-07_10h00.16.398,comp,2024.2.4,60.05117008253932,2025-03-07 10h00.23.988266 -0500,
18,18,0,filler_random,None,None,None,None,None,None,None,None,None,None,3,1.438042402267456,None,,,,,0,0,0,0,0,18,18,155,62.299792528152466,,,,,,,,,,,,,,,,,,,,,,,,,,,,,,,,,,,,,,,,,,,,,,,,,,,,,,,,,,,,,,,,,,,,,,,,,,,,,,,,,188.25355850276406,145.03995978119525,175.91106522716134,162.71257721665117,163.00769053708802,192.1770985697887,4.0,4.1,-250,-282,0,-6,273,-289,62.28516101837158,62.28520393371582,62.287752628326416,62.299792528152466,62.450069427490234,62.450069427490234,62.450069427490234,62.450069427490234,62.450069427490234,62.450069427490234,62.450069427490234,63.751293420791626,3,1.438042402267456,None,,,,,,,,,,,,,,,,,,208,3,2025-03-07_10h00.16.398,comp,2024.2.4,60.05117008253932,2025-03-07 10h00.23.988266 -0500,
19,19,0,critical,whd,20.0,1.0,lower,57.0,133.0,133.0,57.0,78.0,78.0,2,1.0670037269592285,None,,,,,0,0,0,0,0,19,19,90,63.76633167266846,,,,,,,,,,,,,,,,,,,,,,,,,,,,,,,,,,,,,,,,,,,,,,,,,,,,,,,,,,,,,,,,,,,,,,,,,,,,,,,,,57.0,133.0,133.0,57.0,78.0,78.0,1.0,1.3,289,-288,480,-271,644,-277,63.7521026134491,63.75214505195618,63.75424599647522,63.76633167266846,63.916518688201904,63.916518688201904,63.916518688201904,63.916518688201904,63.916518688201904,63.916518688201904,63.916518688201904,64.85078859329224,2,1.0670037269592285,None,,,,,,,,,,,,,,,,,,208,3,2025-03-07_10h00.16.398,comp,2024.2.4,60.05117008253932,2025-03-07 10h00.23.988266 -0500,
20,20,0,critical,dhw,35.0,1.0,upper,127.0,127.0,200.0,125.0,125.0,200.0,3,1.7840611934661865,None,,,,,0,0,0,0,0,20,20,49,64.86631226539612,,,,,,,,,,,,,,,,,,,,,,,,,,,,,,,,,,,,,,,,,,,,,,,,,,,,,,,,,,,,,,,,,,,,,,,,,,,,,,,,,127.0,127.0,200.0,125.0,125.0,200.0,1.0,1.1,-702,264,-480,288,-222,275,64.85164856910706,64.85169124603271,64.85420513153076,64.86631226539612,65.01658129692078,65.01658129692078,65.01658129692078,65.01658129692078,65.01658129692078,65.01658129692078,65.01658129692078,66.66781091690063,3,1.7840611934661865,None,,,,,,,,,,,,,,,,,,208,3,2025-03-07_10h00.16.398,comp,2024.2.4,60.05117008253932,2025-03-07 10h00.23.988266 -0500,
21,21,0,critical,dwh,20.0,4.0,lower,78.0,78.0,57.0,133.0,133.0,57.0,1,1.6861836910247803,None,,,,,0,0,0,0,0,21,21,70,66.6830644607544,,,,,,,,,,,,,,,,,,,,,,,,,,,,,,,,,,,,,,,,,,,,,,,,,,,,,,,,,,,,,,,,,,,,,,,,,,,,,,,,,78.0,78.0,57.0,133.0,133.0,57.0,4.0,4.1,-202,-267,0,-17,191,-288,66.66861367225647,66.66865634918213,66.67193627357483,66.6830644607544,66.83297085762024,66.83297085762024,66.83297085762024,66.83297085762024,66.83297085762024,66.83297085762024,66.83297085762024,68.38415575027466,1,1.6861836910247803,None,,,,,,,,,,,,,,,,,,208,3,2025-03-07_10h00.16.398,comp,2024.2.4,60.05117008253932,2025-03-07 10h00.23.988266 -0500,
22,22,0,critical,hwd,20.0,3.0,lower,133.0,57.0,57.0,133.0,78.0,78.0,2,1.2669501304626465,None,,,,,0,0,0,0,0,22,22,104,68.39953756332397,,,,,,,,,,,,,,,,,,,,,,,,,,,,,,,,,,,,,,,,,,,,,,,,,,,,,,,,,,,,,,,,,,,,,,,,,,,,,,,,,133.0,57.0,57.0,133.0,78.0,78.0,3.0,3.2,-191,-272,0,1,202,278,68.38495635986328,68.38499784469604,68.38745617866516,68.39953756332397,68.54957699775696,68.54957699775696,68.54957699775696,68.54957699775696,68.54957699775696,68.54957699775696,68.54957699775696,69.66765856742859,2,1.2669501304626465,None,,,,,,,,,,,,,,,,,,208,3,2025-03-07_10h00.16.398,comp,2024.2.4,60.05117008253932,2025-03-07 10h00.23.988266 -0500,
23,23,0,critical,hdw,35.0,4.0,lower,133.0,57.0,70.0,70.0,57.0,133.0,3,0.8699355125427246,None,,,,,0,0,0,0,0,23,23,112,69.68307852745056,,,,,,,,,,,,,,,,,,,,,,,,,,,,,,,,,,,,,,,,,,,,,,,,,,,,,,,,,,,,,,,,,,,,,,,,,,,,,,,,,133.0,57.0,70.0,70.0,57.0,133.0,4.0,4.2,-160,13,0,-254,198,-15,69.66844153404236,69.66848468780518,69.67074871063232,69.68307852745056,69.83301258087158,69.83301258087158,69.83301258087158,69.83301258087158,69.83301258087158,69.83301258087158,69.83301258087158,70.56747436523438,3,0.8699355125427246,None,,,,,,,,,,,,,,,,,,208,3,2025-03-07_10h00.16.398,comp,2024.2.4,60.05117008253932,2025-03-07 10h00.23.988266 -0500,
24,24,0,critical,whd,35.0,3.0,lower,57.0,133.0,133.0,57.0,70.0,70.0,2,2.100226402282715,None,,,,,0,0,0,0,0,24,24,86,70.58282947540283,,,,,,,,,,,,,,,,,,,,,,,,,,,,,,,,,,,,,,,,,,,,,,,,,,,,,,,,,,,,,,,,,,,,,,,,,,,,,,,,,57.0,133.0,133.0,57.0,70.0,70.0,3.0,3.2,-191,-256,0,-7,160,287,70.56827569007874,70.56831693649292,70.57027983665466,70.58282947540283,70.73295664787292,70.73295664787292,70.73295664787292,70.73295664787292,70.73295664787292,70.73295664787292,70.73295664787292,72.70079302787781,2,2.100226402282715,None,,,,,,,,,,,,,,,,,,208,3,2025-03-07_10h00.16.398,comp,2024.2.4,60.05117008253932,2025-03-07 10h00.23.988266 -0500,
25,25,0,critical,dwh,20.0,2.1,upper,141.0,141.0,125.0,200.0,200.0,125.0,3,1.8147428035736084,None,,,,,0,0,0,0,0,25,25,7,72.71628618240356,,,,,,,,,,,,,,,,,,,,,,,,,,,,,,,,,,,,,,,,,,,,,,,,,,,,,,,,,,,,,,,,,,,,,,,,,,,,,,,,,141.0,141.0,125.0,200.0,200.0,125.0,2.1,2.11,-266,256,0,286,258,-281,72.7015962600708,72.7016384601593,72.70403456687927,72.71628618240356,72.86691689491272,72.86691689491272,72.86691689491272,72.86691689491272,72.86691689491272,72.86691689491272,72.86691689491272,74.53451323509216,3,1.8147428035736084,None,,,,,,,,,,,,,,,,,,208,3,2025-03-07_10h00.16.398,comp,2024.2.4,60.05117008253932,2025-03-07 10h00.23.988266 -0500,
26,26,0,critical,hdw,35.0,3.0,lower,133.0,57.0,70.0,70.0,57.0,133.0,1,1.32430100440979,None,,,,,0,0,0,0,0,26,26,110,74.5497887134552,,,,,,,,,,,,,,,,,,,,,,,,,,,,,,,,,,,,,,,,,,,,,,,,,,,,,,,,,,,,,,,,,,,,,,,,,,,,,,,,,133.0,57.0,70.0,70.0,57.0,133.0,3.0,3.2,-160,-251,0,5,198,269,74.53528618812561,74.53532695770264,74.53735423088074,74.5497887134552,74.6995894908905,74.6995894908905,74.6995894908905,74.6995894908905,74.6995894908905,74.6995894908905,74.6995894908905,75.88398861885071,1,1.32430100440979,None,,,,,,,,,,,,,,,,,,208,3,2025-03-07_10h00.16.398,comp,2024.2.4,60.05117008253932,2025-03-07 10h00.23.988266 -0500,
27,27,0,filler_square,None,None,None,None,None,None,None,None,None,None,1,1.3341143131256104,None,,,,,0,0,0,0,0,27,27,190,75.89974308013916,,,,,,,,,,,,,,,,,,,,,,,,,,,,,,,,,,,,,,,,,,,,,,,,,,,,,,,,,,,,,,,,,,,,,,,,,,,,,,,,,194.98998031183166,194.98998031183166,125.93725605270177,190.50801576036898,93.64703640742323,176.39184065801402,2.2,2.22,-289,276,0,-255,279,-265,75.88498640060425,75.88502860069275,75.88747644424438,75.89974308013916,76.04975152015686,76.04975152015686,76.04975152015686,76.04975152015686,76.04975152015686,76.04975152015686,76.04975152015686,77.25102257728577,1,1.3341143131256104,None,,,,,,,,,,,,,,,,,,208,3,2025-03-07_10h00.16.398,comp,2024.2.4,60.05117008253932,2025-03-07 10h00.23.988266 -0500,
28,28,0,filler_random,None,None,None,None,None,None,None,None,None,None,1,1.3347854614257812,None,,,,,0,0,0,0,0,28,28,161,77.26613926887512,,,,,,,,,,,,,,,,,,,,,,,,,,,,,,,,,,,,,,,,,,,,,,,,,,,,,,,,,,,,,,,,,,,,,,,,,,,,,,,,,114.6044118510028,179.20433616257856,66.2308802856253,173.75610224631774,80.42029726151432,137.32367830468058,2.2,2.22,-272,284,0,-262,252,-273,77.25193810462952,77.25197982788086,77.25435614585876,77.26613926887512,77.41630864143372,77.41630864143372,77.41630864143372,77.41630864143372,77.41630864143372,77.41630864143372,77.41630864143372,78.61748147010803,1,1.3347854614257812,None,,,,,,,,,,,,,,,,,,208,3,2025-03-07_10h00.16.398,comp,2024.2.4,60.05117008253932,2025-03-07 10h00.23.988266 -0500,
29,29,0,filler_random,None,None,None,None,None,None,None,None,None,None,2,1.41733717918396,None,,,,,0,0,0,0,0,29,29,159,78.63275361061096,,,,,,,,,,,,,,,,,,,,,,,,,,,,,,,,,,,,,,,,,,,,,,,,,,,,,,,,,,,,,,,,,,,,,,,,,,,,,,,,,165.38874767236246,196.40920360623613,199.49115926051846,168.59469424665758,86.94052007386337,93.91665119410945,3.0,3.1,-279,283,0,-10,227,-288,78.61838126182556,78.6184241771698,78.62072944641113,78.63275361061096,78.78337025642395,78.78337025642395,78.78337025642395,78.78337025642395,78.78337025642395,78.78337025642395,78.78337025642395,80.06757521629333,2,1.41733717918396,None,,,,,,,,,,,,,,,,,,208,3,2025-03-07_10h00.16.398,comp,2024.2.4,60.05117008253932,2025-03-07 10h00.23.988266 -0500,
30,30,0,critical,whd,35.0,2.1,lower,57.0,133.0,133.0,57.0,70.0,70.0,1,1.6219422817230225,None,,,,,0,0,0,0,0,30,30,36,80.08281564712524,,,,,,,,,,,,,,,,,,,,,,,,,,,,,,,,,,,,,,,,,,,,,,,,,,,,,,,,,,,,,,,,,,,,,,,,,,,,,,,,,57.0,133.0,133.0,57.0,70.0,70.0,2.1,2.11,-191,257,0,283,160,-282,80.06837201118469,80.06841468811035,80.07050967216492,80.08281564712524,80.23293352127075,80.23293352127075,80.23293352127075,80.23293352127075,80.23293352127075,80.23293352127075,80.23293352127075,81.71752405166626,1,1.6219422817230225,None,,,,,,,,,,,,,,,,,,208,3,2025-03-07_10h00.16.398,comp,2024.2.4,60.05117008253932,2025-03-07 10h00.23.988266 -0500,
31,31,0,critical,wdh,35.0,4.0,upper,125.0,200.0,127.0,127.0,200.0,125.0,3,1.1720712184906006,None,,,,,0,0,0,0,0,31,31,77,81.7327013015747,,,,,,,,,,,,,,,,,,,,,,,,,,,,,,,,,,,,,,,,,,,,,,,,,,,,,,,,,,,,,,,,,,,,,,,,,,,,,,,,,125.0,200.0,127.0,127.0,200.0,125.0,4.0,4.1,-260,-274,0,9,222,-289,81.71831226348877,81.71835255622864,81.72027468681335,81.7327013015747,81.88315486907959,81.88315486907959,81.88315486907959,81.88315486907959,81.88315486907959,81.88315486907959,81.88315486907959,82.91759133338928,3,1.1720712184906006,None,,,,,,,,,,,,,,,,,,208,3,2025-03-07_10h00.16.398,comp,2024.2.4,60.05117008253932,2025-03-07 10h00.23.988266 -0500,
32,32,0,filler_square,None,None,None,None,None,None,None,None,None,None,3,1.2611443996429443,None,,,,,0,0,0,0,0,32,32,207,82.9327986240387,,,,,,,,,,,,,,,,,,,,,,,,,,,,,,,,,,,,,,,,,,,,,,,,,,,,,,,,,,,,,,,,,,,,,,,,,,,,,,,,,93.84261857505211,125.33335244759412,102.26665989482504,70.36119104834708,126.08890355046036,126.08890355046036,3.0,3.1,-194,288,0,-6,194,-281,82.91856050491333,82.91860246658325,82.9207329750061,82.9327986240387,83.0830705165863,83.0830705165863,83.0830705165863,83.0830705165863,83.0830705165863,83.0830705165863,83.0830705165863,84.20084929466248,3,1.2611443996429443,None,,,,,,,,,,,,,,,,,,208,3,2025-03-07_10h00.16.398,comp,2024.2.4,60.05117008253932,2025-03-07 10h00.23.988266 -0500,
33,33,0,critical,dwh,20.0,2.1,lower,78.0,78.0,57.0,133.0,133.0,57.0,1,2.0170364379882812,None,,,,,0,0,0,0,0,33,33,6,84.21640539169312,,,,,,,,,,,,,,,,,,,,,,,,,,,,,,,,,,,,,,,,,,,,,,,,,,,,,,,,,,,,,,,,,,,,,,,,,,,,,,,,,78.0,78.0,57.0,133.0,133.0,57.0,2.1,2.11,-202,265,0,267,191,-285,84.20170664787292,84.20174789428711,84.20411610603333,84.21640539169312,84.36625671386719,84.36625671386719,84.36625671386719,84.36625671386719,84.36625671386719,84.36625671386719,84.36625671386719,86.25068140029907,1,2.0170364379882812,None,,,,,,,,,,,,,,,,,,208,3,2025-03-07_10h00.16.398,comp,2024.2.4,60.05117008253932,2025-03-07 10h00.23.988266 -0500,
34,34,0,critical,hdw,35.0,1.0,upper,200.0,125.0,127.0,127.0,125.0,200.0,3,0.6225998401641846,None,,,,,0,0,0,0,0,34,34,109,86.26607036590576,,,,,,,,,,,,,,,,,,,,,,,,,,,,,,,,,,,,,,,,,,,,,,,,,,,,,,,,,,,,,,,,,,,,,,,,,,,,,,,,,200.0,125.0,127.0,127.0,125.0,200.0,1.0,1.2,-222,-10,0,-2,260,13,86.25142669677734,86.2514660358429,86.2537350654602,86.26607036590576,86.41654753684998,86.41654753684998,86.41654753684998,86.41654753684998,86.41654753684998,86.41654753684998,86.41654753684998,86.90098476409912,3,0.6225998401641846,None,,,,,,,,,,,,,,,,,,208,3,2025-03-07_10h00.16.398,comp,2024.2.4,60.05117008253932,2025-03-07 10h00.23.988266 -0500,
35,35,0,critical,hdw,35.0,3.0,upper,200.0,125.0,127.0,127.0,125.0,200.0,1,0.6615736484527588,None,,,,,0,0,0,0,0,35,35,111,86.91610479354858,,,,,,,,,,,,,,,,,,,,,,,,,,,,,,,,,,,,,,,,,,,,,,,,,,,,,,,,,,,,,,,,,,,,,,,,,,,,,,,,,200.0,125.0,127.0,127.0,125.0,200.0,3.0,3.1,-222,276,0,-8,260,-266,86.9018132686615,86.90185475349426,86.90418338775635,86.91610479354858,87.06634855270386,87.06634855270386,87.06634855270386,87.06634855270386,87.06634855270386,87.06634855270386,87.06634855270386,87.58419847488403,1,0.6615736484527588,None,,,,,,,,,,,,,,,,,,208,3,2025-03-07_10h00.16.398,comp,2024.2.4,60.05117008253932,2025-03-07 10h00.23.988266 -0500,
36,36,0,filler_square,None,None,None,None,None,None,None,None,None,None,3,0.569340705871582,None,,,,,0,0,0,0,0,36,36,174,87.5996687412262,,,,,,,,,,,,,,,,,,,,,,,,,,,,,,,,,,,,,,,,,,,,,,,,,,,,,,,,,,,,,,,,,,,,,,,,,,,,,,,,,79.18654062812152,80.0790834470555,74.5212528107014,98.83744826440753,131.208362667507,131.208362667507,4.0,4.1,-185,-258,0,17,211,-260,87.58515191078186,87.58519387245178,87.5877013206482,87.5996687412262,87.74975681304932,87.74975681304932,87.74975681304932,87.74975681304932,87.74975681304932,87.74975681304932,87.74975681304932,88.18402886390686,3,0.569340705871582,None,,,,,,,,,,,,,,,,,,208,3,2025-03-07_10h00.16.398,comp,2024.2.4,60.05117008253932,2025-03-07 10h00.23.988266 -0500,
37,37,0,filler_square,None,None,None,None,None,None,None,None,None,None,2,0.8669404983520508,None,,,,,0,0,0,0,0,37,37,188,88.19952654838562,,,,,,,,,,,,,,,,,,,,,,,,,,,,,,,,,,,,,,,,,,,,,,,,,,,,,,,,,,,,,,,,,,,,,,,,,,,,,,,,,62.20008960894385,70.73785901333831,134.33259502036165,134.33259502036165,61.3761542344578,92.44253502392411,2.2,2.22,-199,282,0,-276,209,-259,88.18510341644287,88.18514704704285,88.18770170211792,88.19952654838562,88.34958505630493,88.34958505630493,88.34958505630493,88.34958505630493,88.34958505630493,88.34958505630493,88.34958505630493,89.08402895927429,2,0.8669404983520508,None,,,,,,,,,,,,,,,,,,208,3,2025-03-07_10h00.16.398,comp,2024.2.4,60.05117008253932,2025-03-07 10h00.23.988266 -0500,
38,38,0,critical,dhw,35.0,4.0,lower,70.0,70.0,133.0,57.0,57.0,133.0,1,1.1263935565948486,None,,,,,0,0,0,0,0,38,38,52,89.0994622707367,,,,,,,,,,,,,,,,,,,,,,,,,,,,,,,,,,,,,,,,,,,,,,,,,,,,,,,,,,,,,,,,,,,,,,,,,,,,,,,,,70.0,70.0,133.0,57.0,57.0,133.0,4.0,4.2,-160,-8,0,-256,191,7,89.08477520942688,89.08481407165527,89.08721280097961,89.0994622707367,89.24958348274231,89.24958348274231,89.24958348274231,89.24958348274231,89.24958348274231,89.24958348274231,89.24958348274231,90.2339518070221,1,1.1263935565948486,None,,,,,,,,,,,,,,,,,,208,3,2025-03-07_10h00.16.398,comp,2024.2.4,60.05117008253932,2025-03-07 10h00.23.988266 -0500,
39,39,0,critical,whd,35.0,2.1,upper,125.0,200.0,200.0,125.0,127.0,127.0,2,0.8081884384155273,None,,,,,0,0,0,0,0,39,39,37,90.24956583976746,,,,,,,,,,,,,,,,,,,,,,,,,,,,,,,,,,,,,,,,,,,,,,,,,,,,,,,,,,,,,,,,,,,,,,,,,,,,,,,,,125.0,200.0,200.0,125.0,127.0,127.0,2.1,2.11,-258,268,0,287,222,-282,90.23476505279541,90.2348062992096,90.23726439476013,90.24956583976746,90.39985394477844,90.39985394477844,90.39985394477844,90.39985394477844,90.39985394477844,90.39985394477844,90.39985394477844,91.06762051582336,2,0.8081884384155273,None,,,,,,,,,,,,,,,,,,208,3,2025-03-07_10h00.16.398,comp,2024.2.4,60.05117008253932,2025-03-07 10h00.23.988266 -0500,
40,40,0,critical,dwh,35.0,4.0,upper,127.0,127.0,125.0,200.0,200.0,125.0,3,0.7425081729888916,None,,,,,0,0,0,0,0,40,40,65,91.08312797546387,,,,,,,,,,,,,,,,,,,,,,,,,,,,,,,,,,,,,,,,,,,,,,,,,,,,,,,,,,,,,,,,,,,,,,,,,,,,,,,,,127.0,127.0,125.0,200.0,200.0,125.0,4.0,4.2,-260,17,0,-269,258,-10,91.06863307952881,91.06867694854736,91.07084059715271,91.08312797546387,91.23311638832092,91.23311638832092,91.23311638832092,91.23311638832092,91.23311638832092,91.23311638832092,91.23311638832092,91.83417558670044,3,0.7425081729888916,None,,,,,,,,,,,,,,,,,,208,3,2025-03-07_10h00.16.398,comp,2024.2.4,60.05117008253932,2025-03-07 10h00.23.988266 -0500,
41,41,0,critical,whd,20.0,2.1,upper,125.0,200.0,200.0,125.0,141.0,141.0,2,0.8712708950042725,None,,,,,0,0,0,0,0,41,41,39,91.84956765174866,,,,,,,,,,,,,,,,,,,,,,,,,,,,,,,,,,,,,,,,,,,,,,,,,,,,,,,,,,,,,,,,,,,,,,,,,,,,,,,,,125.0,200.0,200.0,125.0,141.0,141.0,2.1,2.11,-258,273,0,261,229,-253,91.8349859714508,91.83502888679504,91.83747816085815,91.84956765174866,91.99973344802856,91.99973344802856,91.99973344802856,91.99973344802856,91.99973344802856,91.99973344802856,91.99973344802856,92.73445510864258,2,0.8712708950042725,None,,,,,,,,,,,,,,,,,,208,3,2025-03-07_10h00.16.398,comp,2024.2.4,60.05117008253932,2025-03-07 10h00.23.988266 -0500,
42,42,0,critical,hdw,20.0,3.0,upper,200.0,125.0,141.0,141.0,125.0,200.0,3,1.228137731552124,None,,,,,0,0,0,0,0,42,42,117,92.74941849708557,,,,,,,,,,,,,,,,,,,,,,,,,,,,,,,,,,,,,,,,,,,,,,,,,,,,,,,,,,,,,,,,,,,,,,,,,,,,,,,,,200.0,125.0,141.0,141.0,125.0,200.0,3.0,3.1,-229,263,0,-2,266,-264,92.73525881767273,92.73529958724976,92.73777461051941,92.74941849708557,92.90004253387451,92.90004253387451,92.90004253387451,92.90004253387451,92.90004253387451,92.90004253387451,92.90004253387451,93.98420691490173,3,1.228137731552124,None,,,,,,,,,,,,,,,,,,208,3,2025-03-07_10h00.16.398,comp,2024.2.4,60.05117008253932,2025-03-07 10h00.23.988266 -0500,
43,43,0,critical,dhw,35.0,3.0,lower,70.0,70.0,133.0,57.0,57.0,133.0,2,1.362043857574463,None,,,,,0,0,0,0,0,43,43,50,93.9995985031128,,,,,,,,,,,,,,,,,,,,,,,,,,,,,,,,,,,,,,,,,,,,,,,,,,,,,,,,,,,,,,,,,,,,,,,,,,,,,,,,,70.0,70.0,133.0,57.0,57.0,133.0,3.0,3.1,-160,254,0,-19,191,-261,93.98502206802368,93.98506307601929,93.98713397979736,93.9995985031128,94.14955520629883,94.14955520629883,94.14955520629883,94.14955520629883,94.14955520629883,94.14955520629883,94.14955520629883,95.36744546890259,2,1.362043857574463,None,,,,,,,,,,,,,,,,,,208,3,2025-03-07_10h00.16.398,comp,2024.2.4,60.05117008253932,2025-03-07 10h00.23.988266 -0500,
44,44,0,critical,wdh,20.0,2.1,lower,57.0,133.0,78.0,78.0,133.0,57.0,1,1.0501410961151123,None,,,,,0,0,0,0,0,44,44,34,95.38318157196045,,,,,,,,,,,,,,,,,,,,,,,,,,,,,,,,,,,,,,,,,,,,,,,,,,,,,,,,,,,,,,,,,,,,,,,,,,,,,,,,,57.0,133.0,78.0,78.0,133.0,57.0,2.1,2.12,-202,-281,0,-267,164,266,95.36828279495239,95.36832594871521,95.37082576751709,95.38318157196045,95.53290462493896,95.53290462493896,95.53290462493896,95.53290462493896,95.53290462493896,95.53290462493896,95.53290462493896,96.45054841041565,1,1.0501410961151123,None,,,,,,,,,,,,,,,,,,208,3,2025-03-07_10h00.16.398,comp,2024.2.4,60.05117008253932,2025-03-07 10h00.23.988266 -0500,
45,45,0,critical,dhw,35.0,1.0,lower,70.0,70.0,133.0,57.0,57.0,133.0,3,1.2501540184020996,None,,,,,0,0,0,0,0,45,45,48,96.46616816520691,,,,,,,,,,,,,,,,,,,,,,,,,,,,,,,,,,,,,,,,,,,,,,,,,,,,,,,,,,,,,,,,,,,,,,,,,,,,,,,,,70.0,70.0,133.0,57.0,57.0,133.0,1.0,1.1,-640,264,-480,289,-289,277,96.45133638381958,96.4513771533966,96.45373225212097,96.46616816520691,96.61617755889893,96.61617755889893,96.61617755889893,96.61617755889893,96.61617755889893,96.61617755889893,96.61617755889893,97.7177324295044,3,1.2501540184020996,None,,,,,,,,,,,,,,,,,,208,3,2025-03-07_10h00.16.398,comp,2024.2.4,60.05117008253932,2025-03-07 10h00.23.988266 -0500,
46,46,0,critical,hwd,35.0,2.1,lower,133.0,57.0,57.0,133.0,70.0,70.0,2,1.3166728019714355,None,,,,,0,0,0,0,0,46,46,16,97.73302793502808,,,,,,,,,,,,,,,,,,,,,,,,,,,,,,,,,,,,,,,,,,,,,,,,,,,,,,,,,,,,,,,,,,,,,,,,,,,,,,,,,133.0,57.0,57.0,133.0,70.0,70.0,2.1,2.11,-191,269,0,283,198,-274,97.71853923797607,97.71858334541321,97.7211446762085,97.73302793502808,97.88273024559021,97.88273024559021,97.88273024559021,97.88273024559021,97.88273024559021,97.88273024559021,97.88273024559021,99.06744241714478,2,1.3166728019714355,None,,,,,,,,,,,,,,,,,,208,3,2025-03-07_10h00.16.398,comp,2024.2.4,60.05117008253932,2025-03-07 10h00.23.988266 -0500,
47,47,0,critical,dhw,20.0,1.0,lower,78.0,78.0,133.0,57.0,57.0,133.0,2,1.1340327262878418,None,,,,,0,0,0,0,0,47,47,54,99.08282041549683,,,,,,,,,,,,,,,,,,,,,,,,,,,,,,,,,,,,,,,,,,,,,,,,,,,,,,,,,,,,,,,,,,,,,,,,,,,,,,,,,78.0,78.0,133.0,57.0,57.0,133.0,1.0,1.3,316,-260,480,-263,671,-251,99.06846904754639,99.06852149963379,99.0710620880127,99.08282041549683,99.23278498649597,99.23278498649597,99.23278498649597,99.23278498649597,99.23278498649597,99.23278498649597,99.23278498649597,100.2340521812439,2,1.1340327262878418,None,,,,,,,,,,,,,,,,,,208,3,2025-03-07_10h00.16.398,comp,2024.2.4,60.05117008253932,2025-03-07 10h00.23.988266 -0500,
48,48,0,critical,hwd,35.0,2.1,upper,200.0,125.0,125.0,200.0,127.0,127.0,2,1.7512390613555908,None,,,,,0,0,0,0,0,48,48,41,100.24956393241882,,,,,,,,,,,,,,,,,,,,,,,,,,,,,,,,,,,,,,,,,,,,,,,,,,,,,,,,,,,,,,,,,,,,,,,,,,,,,,,,,200.0,125.0,125.0,200.0,127.0,127.0,2.1,2.11,-258,266,0,275,260,-286,100.23488998413086,100.23493003845215,100.23831701278687,100.24956393241882,100.39999532699585,100.39999532699585,100.39999532699585,100.39999532699585,100.39999532699585,100.39999532699585,100.39999532699585,102.01740264892578,2,1.7512390613555908,None,,,,,,,,,,,,,,,,,,208,3,2025-03-07_10h00.16.398,comp,2024.2.4,60.05117008253932,2025-03-07 10h00.23.988266 -0500,
49,49,0,critical,dwh,20.0,3.0,upper,141.0,141.0,125.0,200.0,200.0,125.0,2,0.8409814834594727,None,,,,,0,0,0,0,0,49,49,69,102.03272581100464,,,,,,,,,,,,,,,,,,,,,,,,,,,,,,,,,,,,,,,,,,,,,,,,,,,,,,,,,,,,,,,,,,,,,,,,,,,,,,,,,141.0,141.0,125.0,200.0,200.0,125.0,3.0,3.1,-266,282,0,-18,258,-284,102.01820302009583,102.01824474334717,102.02138829231262,102.03272581100464,102.18302345275879,102.18302345275879,102.18302345275879,102.18302345275879,102.18302345275879,102.18302345275879,102.18302345275879,102.88400530815125,2,0.8409814834594727,None,,,,,,,,,,,,,,,,,,208,3,2025-03-07_10h00.16.398,comp,2024.2.4,60.05117008253932,2025-03-07 10h00.23.988266 -0500,
50,50,0,critical,hwd,20.0,2.1,lower,133.0,57.0,57.0,133.0,78.0,78.0,1,1.5891458988189697,None,,,,,0,0,0,0,0,50,50,18,102.89947509765625,,,,,,,,,,,,,,,,,,,,,,,,,,,,,,,,,,,,,,,,,,,,,,,,,,,,,,,,,,,,,,,,,,,,,,,,,,,,,,,,,133.0,57.0,57.0,133.0,78.0,78.0,2.1,2.12,-191,-256,0,-276,202,265,102.88481593132019,102.88485789299011,102.88728284835815,102.89947509765625,103.04940915107727,103.04940915107727,103.04940915107727,103.04940915107727,103.04940915107727,103.04940915107727,103.04940915107727,104.50062537193298,1,1.5891458988189697,None,,,,,,,,,,,,,,,,,,208,3,2025-03-07_10h00.16.398,comp,2024.2.4,60.05117008253932,2025-03-07 10h00.23.988266 -0500,
51,51,0,critical,wdh,20.0,1.0,lower,57.0,133.0,78.0,78.0,133.0,57.0,3,1.7097997665405273,None,,,,,0,0,0,0,0,51,51,78,104.51594638824463,,,,,,,,,,,,,,,,,,,,,,,,,,,,,,,,,,,,,,,,,,,,,,,,,,,,,,,,,,,,,,,,,,,,,,,,,,,,,,,,,57.0,133.0,78.0,78.0,133.0,57.0,1.0,1.3,278,-282,480,-256,644,-274,104.50140738487244,104.50144672393799,104.50347566604614,104.51594638824463,104.66616559028625,104.66616559028625,104.66616559028625,104.66616559028625,104.66616559028625,104.66616559028625,104.66616559028625,106.23389005661011,3,1.7097997665405273,None,,,,,,,,,,,,,,,,,,208,3,2025-03-07_10h00.16.398,comp,2024.2.4,60.05117008253932,2025-03-07 10h00.23.988266 -0500,
52,52,0,critical,whd,20.0,2.1,lower,57.0,133.0,133.0,57.0,78.0,78.0,1,1.4659123420715332,None,,,,,0,0,0,0,0,52,52,38,106.24978947639465,,,,,,,,,,,,,,,,,,,,,,,,,,,,,,,,,,,,,,,,,,,,,,,,,,,,,,,,,,,,,,,,,,,,,,,,,,,,,,,,,57.0,133.0,133.0,57.0,78.0,78.0,2.1,2.11,-191,281,0,259,164,-252,106.23471975326538,106.2347617149353,106.23725414276123,106.24978947639465,106.39950132369995,106.39950132369995,106.39950132369995,106.39950132369995,106.39950132369995,106.39950132369995,106.39950132369995,107.73375463485718,1,1.4659123420715332,None,,,,,,,,,,,,,,,,,,208,3,2025-03-07_10h00.16.398,comp,2024.2.4,60.05117008253932,2025-03-07 10h00.23.988266 -0500,
53,53,0,critical,hdw,20.0,3.0,lower,133.0,57.0,78.0,78.0,57.0,133.0,3,1.2035739421844482,None,,,,,0,0,0,0,0,53,53,116,107.74912738800049,,,,,,,,,,,,,,,,,,,,,,,,,,,,,,,,,,,,,,,,,,,,,,,,,,,,,,,,,,,,,,,,,,,,,,,,,,,,,,,,,133.0,57.0,78.0,78.0,57.0,133.0,3.0,3.1,-164,252,0,-10,202,-257,107.73453116416931,107.73457193374634,107.73685789108276,107.74912738800049,107.8994152545929,107.8994152545929,107.8994152545929,107.8994152545929,107.8994152545929,107.8994152545929,107.8994152545929,108.96720361709595,3,1.2035739421844482,None,,,,,,,,,,,,,,,,,,208,3,2025-03-07_10h00.16.398,comp,2024.2.4,60.05117008253932,2025-03-07 10h00.23.988266 -0500,
54,54,0,critical,dwh,35.0,1.0,upper,127.0,127.0,125.0,200.0,200.0,125.0,3,1.1324985027313232,None,,,,,0,0,0,0,0,54,54,61,108.98257517814636,,,,,,,,,,,,,,,,,,,,,,,,,,,,,,,,,,,,,,,,,,,,,,,,,,,,,,,,,,,,,,,,,,,,,,,,,,,,,,,,,127.0,127.0,125.0,200.0,200.0,125.0,1.0,1.1,-740,272,-480,268,-222,289,108.96798920631409,108.96802997589111,108.97008228302002,108.98257517814636,109.13298654556274,109.13298654556274,109.13298654556274,109.13298654556274,109.13298654556274,109.13298654556274,109.13298654556274,110.11746454238892,3,1.1324985027313232,None,,,,,,,,,,,,,,,,,,208,3,2025-03-07_10h00.16.398,comp,2024.2.4,60.05117008253932,2025-03-07 10h00.23.988266 -0500,
55,55,0,critical,hdw,20.0,1.0,upper,200.0,125.0,141.0,141.0,125.0,200.0,1,1.019852638244629,None,,,,,0,0,0,0,0,55,55,115,110.13281750679016,,,,,,,,,,,,,,,,,,,,,,,,,,,,,,,,,,,,,,,,,,,,,,,,,,,,,,,,,,,,,,,,,,,,,,,,,,,,,,,,,200.0,125.0,141.0,141.0,125.0,200.0,1.0,1.3,251,-273,480,-286,746,-265,110.11827397346497,110.1183168888092,110.12042379379272,110.13281750679016,110.28289079666138,110.28289079666138,110.28289079666138,110.28289079666138,110.28289079666138,110.28289079666138,110.28289079666138,111.1673014163971,1,1.019852638244629,None,,,,,,,,,,,,,,,,,,208,3,2025-03-07_10h00.16.398,comp,2024.2.4,60.05117008253932,2025-03-07 10h00.23.988266 -0500,
56,56,0,critical,dhw,20.0,3.0,lower,78.0,78.0,133.0,57.0,57.0,133.0,3,1.0589642524719238,None,,,,,0,0,0,0,0,56,56,56,111.18253827095032,,,,,,,,,,,,,,,,,,,,,,,,,,,,,,,,,,,,,,,,,,,,,,,,,,,,,,,,,,,,,,,,,,,,,,,,,,,,,,,,,78.0,78.0,133.0,57.0,57.0,133.0,3.0,3.1,-164,273,0,-8,191,-267,111.16822671890259,111.16826868057251,111.17086839675903,111.18253827095032,111.33313202857971,111.33313202857971,111.33313202857971,111.33313202857971,111.33313202857971,111.33313202857971,111.33313202857971,112.25038599967957,3,1.0589642524719238,None,,,,,,,,,,,,,,,,,,208,3,2025-03-07_10h00.16.398,comp,2024.2.4,60.05117008253932,2025-03-07 10h00.23.988266 -0500,
57,57,0,critical,dhw,20.0,2.1,upper,141.0,141.0,200.0,125.0,125.0,200.0,2,1.2223751544952393,None,,,,,0,0,0,0,0,57,57,3,112.26613283157349,,,,,,,,,,,,,,,,,,,,,,,,,,,,,,,,,,,,,,,,,,,,,,,,,,,,,,,,,,,,,,,,,,,,,,,,,,,,,,,,,141.0,141.0,200.0,125.0,125.0,200.0,2.1,2.12,-229,-261,0,-272,258,253,112.25119495391846,112.25123834609985,112.25382018089294,112.26613283157349,112.41635584831238,112.41635584831238,112.41635584831238,112.41635584831238,112.41635584831238,112.41635584831238,112.41635584831238,113.5008761882782,2,1.2223751544952393,None,,,,,,,,,,,,,,,,,,208,3,2025-03-07_10h00.16.398,comp,2024.2.4,60.05117008253932,2025-03-07 10h00.23.988266 -0500,
58,58,0,filler_random,None,None,None,None,None,None,None,None,None,None,2,0.7669961452484131,None,,,,,0,0,0,0,0,58,58,149,113.51595664024353,,,,,,,,,,,,,,,,,,,,,,,,,,,,,,,,,,,,,,,,,,,,,,,,,,,,,,,,,,,,,,,,,,,,,,,,,,,,,,,,,178.68586020635104,117.08902580792548,170.35406860496715,193.01983794462916,102.34731999389285,113.63798993896253,3.0,3.2,-251,-266,0,-9,249,274,113.50178265571594,113.50182461738586,113.50389266014099,113.51595664024353,113.66620230674744,113.66620230674744,113.66620230674744,113.66620230674744,113.66620230674744,113.66620230674744,113.66620230674744,114.30065369606018,2,0.7669961452484131,None,,,,,,,,,,,,,,,,,,208,3,2025-03-07_10h00.16.398,comp,2024.2.4,60.05117008253932,2025-03-07 10h00.23.988266 -0500,
59,59,0,filler_random,None,None,None,None,None,None,None,None,None,None,2,0.6146411895751953,None,,,,,0,0,0,0,0,59,59,160,114.3159453868866,,,,,,,,,,,,,,,,,,,,,,,,,,,,,,,,,,,,,,,,,,,,,,,,,,,,,,,,,,,,,,,,,,,,,,,,,,,,,,,,,91.91802849231384,170.9163854738713,143.36361446734904,189.03437879433423,63.567145816143956,102.1613773804408,3.0,3.1,-276,253,0,-5,242,-266,114.30156183242798,114.301602602005,114.30473637580872,114.3159453868866,114.46613383293152,114.46613383293152,114.46613383293152,114.46613383293152,114.46613383293152,114.46613383293152,114.46613383293152,114.93406939506531,2,0.6146411895751953,None,,,,,,,,,,,,,,,,,,208,3,2025-03-07_10h00.16.398,comp,2024.2.4,60.05117008253932,2025-03-07 10h00.23.988266 -0500,
60,60,0,filler_square,None,None,None,None,None,None,None,None,None,None,1,0.7661943435668945,None,,,,,0,0,0,0,0,60,60,203,114.94945454597473,,,,,,,,,,,,,,,,,,,,,,,,,,,,,,,,,,,,,,,,,,,,,,,,,,,,,,,,,,,,,,,,,,,,,,,,,,,,,,,,,192.69828376093218,192.69828376093218,119.75076029464014,112.62189190645614,69.32019746905787,83.455282501028,1.0,1.2,-249,14,0,-6,194,-17,114.9350516796112,114.93509221076965,114.9375228881836,114.94945454597473,115.09953188896179,115.09953188896179,115.09953188896179,115.09953188896179,115.09953188896179,115.09953188896179,115.09953188896179,115.73406600952148,1,0.7661943435668945,None,,,,,,,,,,,,,,,,,,208,3,2025-03-07_10h00.16.398,comp,2024.2.4,60.05117008253932,2025-03-07 10h00.23.988266 -0500,
61,61,0,filler_random,None,None,None,None,None,None,None,None,None,None,1,1.988182544708252,None,,,,,0,0,0,0,0,61,61,153,115.74917340278625,,,,,,,,,,,,,,,,,,,,,,,,,,,,,,,,,,,,,,,,,,,,,,,,,,,,,,,,,,,,,,,,,,,,,,,,,,,,,,,,,115.02802815896848,84.84093777643312,182.97525730632555,57.113995423056885,118.89447418550968,66.58564353987882,4.0,4.2,-167,-3,0,-272,158,-7,115.73508596420288,115.73512744903564,115.73763966560364,115.74917340278625,115.89942574501038,115.89942574501038,115.89942574501038,115.89942574501038,115.89942574501038,115.89942574501038,115.89942574501038,117.75036978721619,1,1.988182544708252,None,,,,,,,,,,,,,,,,,,208,3,2025-03-07_10h00.16.398,comp,2024.2.4,60.05117008253932,2025-03-07 10h00.23.988266 -0500,
62,62,0,filler_random,None,None,None,None,None,None,None,None,None,None,1,1.0675296783447266,None,,,,,0,0,0,0,0,62,62,140,117.76583743095398,,,,,,,,,,,,,,,,,,,,,,,,,,,,,,,,,,,,,,,,,,,,,,,,,,,,,,,,,,,,,,,,,,,,,,,,,,,,,,,,,159.84535260035085,157.89177816271703,193.24602785356743,90.54274381064803,79.35881086792732,196.2041304991501,1.0,1.2,-220,-20,0,-3,239,-10,117.75126481056213,117.7513062953949,117.75331902503967,117.76583743095398,117.91623997688293,117.91623997688293,117.91623997688293,117.91623997688293,117.91623997688293,117.91623997688293,117.91623997688293,118.85062599182129,1,1.0675296783447266,None,,,,,,,,,,,,,,,,,,208,3,2025-03-07_10h00.16.398,comp,2024.2.4,60.05117008253932,2025-03-07 10h00.23.988266 -0500,
63,63,0,critical,hwd,35.0,2.1,lower,133.0,57.0,57.0,133.0,70.0,70.0,1,1.9114840030670166,None,,,,,0,0,0,0,0,63,63,40,118.8659200668335,,,,,,,,,,,,,,,,,,,,,,,,,,,,,,,,,,,,,,,,,,,,,,,,,,,,,,,,,,,,,,,,,,,,,,,,,,,,,,,,,133.0,57.0,57.0,133.0,70.0,70.0,2.1,2.12,-191,-277,0,-269,198,263,118.85141658782959,118.85145735740662,118.85353350639343,118.8659200668335,119.01602697372437,119.01602697372437,119.01602697372437,119.01602697372437,119.01602697372437,119.01602697372437,119.01602697372437,120.78371024131775,1,1.9114840030670166,None,,,,,,,,,,,,,,,,,,208,3,2025-03-07_10h00.16.398,comp,2024.2.4,60.05117008253932,2025-03-07 10h00.23.988266 -0500,
64,64,0,critical,dwh,20.0,2.1,upper,141.0,141.0,125.0,200.0,200.0,125.0,2,1.6099271774291992,None,,,,,0,0,0,0,0,64,64,31,120.79938912391663,,,,,,,,,,,,,,,,,,,,,,,,,,,,,,,,,,,,,,,,,,,,,,,,,,,,,,,,,,,,,,,,,,,,,,,,,,,,,,,,,141.0,141.0,125.0,200.0,200.0,125.0,2.1,2.12,-266,-288,0,-257,258,259,120.78451991081238,120.78456115722656,120.78689813613892,120.79938912391663,120.94952964782715,120.94952964782715,120.94952964782715,120.94952964782715,120.94952964782715,120.94952964782715,120.94952964782715,122.41731691360474,2,1.6099271774291992,None,,,,,,,,,,,,,,,,,,208,3,2025-03-07_10h00.16.398,comp,2024.2.4,60.05117008253932,2025-03-07 10h00.23.988266 -0500,
65,65,0,filler_random,None,None,None,None,None,None,None,None,None,None,2,0.8018860816955566,None,,,,,0,0,0,0,0,65,65,139,122.43277168273926,,,,,,,,,,,,,,,,,,,,,,,,,,,,,,,,,,,,,,,,,,,,,,,,,,,,,,,,,,,,,,,,,,,,,,,,,,,,,,,,,187.84494955465,87.28455363521294,160.32008662464642,186.8691490626478,109.53094603747755,128.80686332284492,1.0,1.2,-233,0,0,18,254,-12,122.41823482513428,122.4182779788971,122.42039322853088,122.43277168273926,122.58287978172302,122.58287978172302,122.58287978172302,122.58287978172302,122.58287978172302,122.58287978172302,122.58287978172302,123.250568151474,2,0.8018860816955566,None,,,,,,,,,,,,,,,,,,208,3,2025-03-07_10h00.16.398,comp,2024.2.4,60.05117008253932,2025-03-07 10h00.23.988266 -0500,
66,66,0,filler_square,None,None,None,None,None,None,None,None,None,None,3,1.0547380447387695,None,,,,,0,0,0,0,0,66,66,183,123.26595973968506,,,,,,,,,,,,,,,,,,,,,,,,,,,,,,,,,,,,,,,,,,,,,,,,,,,,,,,,,,,,,,,,,,,,,,,,,,,,,,,,,94.5789595460441,127.68526834081158,164.28193688571696,173.18518838145198,174.61475605675963,174.61475605675963,1.0,1.1,-726,273,-480,254,-210,275,123.25151920318604,123.2515618801117,123.25364756584167,123.26595973968506,123.41632342338562,123.41632342338562,123.41632342338562,123.41632342338562,123.41632342338562,123.41632342338562,123.41632342338562,124.3342125415802,3,1.0547380447387695,None,,,,,,,,,,,,,,,,,,208,3,2025-03-07_10h00.16.398,comp,2024.2.4,60.05117008253932,2025-03-07 10h00.23.988266 -0500,
67,67,0,critical,hdw,20.0,2.1,upper,200.0,125.0,141.0,141.0,125.0,200.0,3,1.2842040061950684,None,,,,,0,0,0,0,0,67,67,23,124.34921145439148,,,,,,,,,,,,,,,,,,,,,,,,,,,,,,,,,,,,,,,,,,,,,,,,,,,,,,,,,,,,,,,,,,,,,,,,,,,,,,,,,200.0,125.0,141.0,141.0,125.0,200.0,2.1,2.11,-229,264,0,257,266,-265,124.33504462242126,124.33508610725403,124.33722758293152,124.34921145439148,124.49950385093689,124.49950385093689,124.49950385093689,124.49950385093689,124.49950385093689,124.49950385093689,124.49950385093689,125.65058827400208,3,1.2842040061950684,None,,,,,,,,,,,,,,,,,,208,3,2025-03-07_10h00.16.398,comp,2024.2.4,60.05117008253932,2025-03-07 10h00.23.988266 -0500,
68,68,0,critical,dhw,35.0,4.0,upper,127.0,127.0,200.0,125.0,125.0,200.0,3,1.1918511390686035,None,,,,,0,0,0,0,0,68,68,53,125.66581106185913,,,,,,,,,,,,,,,,,,,,,,,,,,,,,,,,,,,,,,,,,,,,,,,,,,,,,,,,,,,,,,,,,,,,,,,,,,,,,,,,,127.0,127.0,200.0,125.0,125.0,200.0,4.0,4.2,-222,6,0,-278,258,10,125.65138649940491,125.65143036842346,125.65467309951782,125.66581106185913,125.81618309020996,125.81618309020996,125.81618309020996,125.81618309020996,125.81618309020996,125.81618309020996,125.81618309020996,126.86720037460327,3,1.1918511390686035,None,,,,,,,,,,,,,,,,,,208,3,2025-03-07_10h00.16.398,comp,2024.2.4,60.05117008253932,2025-03-07 10h00.23.988266 -0500,
69,69,0,filler_square,None,None,None,None,None,None,None,None,None,None,2,1.0631465911865234,None,,,,,0,0,0,0,0,69,69,170,126.88277268409729,,,,,,,,,,,,,,,,,,,,,,,,,,,,,,,,,,,,,,,,,,,,,,,,,,,,,,,,,,,,,,,,,,,,,,,,,,,,,,,,,97.89952599135592,115.94125725142511,140.31377860746505,140.31377860746505,87.67979665903754,104.0379417540869,1.0,1.3,256,-262,480,-285,698,-261,126.86818671226501,126.86823058128357,126.87068033218384,126.88277268409729,127.03279185295105,127.03279185295105,127.03279185295105,127.03279185295105,127.03279185295105,127.03279185295105,127.03279185295105,127.95058226585388,2,1.0631465911865234,None,,,,,,,,,,,,,,,,,,208,3,2025-03-07_10h00.16.398,comp,2024.2.4,60.05117008253932,2025-03-07 10h00.23.988266 -0500,
70,70,0,filler_random,None,None,None,None,None,None,None,None,None,None,3,1.5545556545257568,None,,,,,0,0,0,0,0,70,70,166,127.9660792350769,,,,,,,,,,,,,,,,,,,,,,,,,,,,,,,,,,,,,,,,,,,,,,,,,,,,,,,,,,,,,,,,,,,,,,,,,,,,,,,,,66.70294975742871,179.28812911248372,153.43713226440948,123.52323015632422,144.86218007988325,120.28883713421155,4.0,4.1,-247,-289,0,-9,218,-282,127.95147037506104,127.95152688026428,127.95387673377991,127.9660792350769,128.11623620986938,128.11623620986938,128.11623620986938,128.11623620986938,128.11623620986938,128.11623620986938,128.11623620986938,129.5338649749756,3,1.5545556545257568,None,,,,,,,,,,,,,,,,,,208,3,2025-03-07_10h00.16.398,comp,2024.2.4,60.05117008253932,2025-03-07 10h00.23.988266 -0500,
71,71,0,critical,dwh,20.0,1.0,lower,78.0,78.0,57.0,133.0,133.0,57.0,1,1.5820446014404297,None,,,,,0,0,0,0,0,71,71,66,129.54903483390808,,,,,,,,,,,,,,,,,,,,,,,,,,,,,,,,,,,,,,,,,,,,,,,,,,,,,,,,,,,,,,,,,,,,,,,,,,,,,,,,,78.0,78.0,57.0,133.0,133.0,57.0,1.0,1.1,-682,272,-480,259,-289,288,129.53464531898499,129.53468561172485,129.53705739974976,129.54903483390808,129.69923877716064,129.69923877716064,129.69923877716064,129.69923877716064,129.69923877716064,129.69923877716064,129.69923877716064,131.13387393951416,1,1.5820446014404297,None,,,,,,,,,,,,,,,,,,208,3,2025-03-07_10h00.16.398,comp,2024.2.4,60.05117008253932,2025-03-07 10h00.23.988266 -0500,
72,72,0,filler_square,None,None,None,None,None,None,None,None,None,None,1,1.6599326133728027,None,,,,,0,0,0,0,0,72,72,186,131.1493697166443,,,,,,,,,,,,,,,,,,,,,,,,,,,,,,,,,,,,,,,,,,,,,,,,,,,,,,,,,,,,,,,,,,,,,,,,,,,,,,,,,57.23307918490738,57.19257138609418,57.47937254078903,57.47937254078903,57.46065095638807,57.36757256180725,2.2,2.22,-153,256,0,-280,153,-285,131.13482403755188,131.13486695289612,131.13696384429932,131.1493697166443,131.29931044578552,131.29931044578552,131.29931044578552,131.29931044578552,131.29931044578552,131.29931044578552,131.29931044578552,132.81696915626526,1,1.6599326133728027,None,,,,,,,,,,,,,,,,,,208,3,2025-03-07_10h00.16.398,comp,2024.2.4,60.05117008253932,2025-03-07 10h00.23.988266 -0500,
73,73,0,critical,hdw,20.0,2.1,lower,133.0,57.0,78.0,78.0,57.0,133.0,3,1.2557704448699951,None,,,,,0,0,0,0,0,73,73,46,132.83266949653625,,,,,,,,,,,,,,,,,,,,,,,,,,,,,,,,,,,,,,,,,,,,,,,,,,,,,,,,,,,,,,,,,,,,,,,,,,,,,,,,,133.0,57.0,78.0,78.0,57.0,133.0,2.1,2.11,-164,271,0,281,202,-250,132.81778931617737,132.81783318519592,132.81994438171387,132.83266949653625,132.98259973526,132.98259973526,132.98259973526,132.98259973526,132.98259973526,132.98259973526,132.98259973526,134.10034322738647,3,1.2557704448699951,None,,,,,,,,,,,,,,,,,,208,3,2025-03-07_10h00.16.398,comp,2024.2.4,60.05117008253932,2025-03-07 10h00.23.988266 -0500,
74,74,0,filler_square,None,None,None,None,None,None,None,None,None,None,2,0.9993593692779541,None,,,,,0,0,0,0,0,74,74,184,134.11579966545105,,,,,,,,,,,,,,,,,,,,,,,,,,,,,,,,,,,,,,,,,,,,,,,,,,,,,,,,,,,,,,,,,,,,,,,,,,,,,,,,,76.05085351133994,63.79435018342888,84.25984193038676,84.25984193038676,67.18304988796979,59.926024499724946,2.2,2.22,-170,289,0,-288,168,-269,134.101322889328,134.1013650894165,134.10392236709595,134.11579966545105,134.2659170627594,134.2659170627594,134.2659170627594,134.2659170627594,134.2659170627594,134.2659170627594,134.2659170627594,135.1337113380432,2,0.9993593692779541,None,,,,,,,,,,,,,,,,,,208,3,2025-03-07_10h00.16.398,comp,2024.2.4,60.05117008253932,2025-03-07 10h00.23.988266 -0500,
75,75,0,filler_random,None,None,None,None,None,None,None,None,None,None,2,0.8193533420562744,None,,,,,0,0,0,0,0,75,75,154,135.14906978607178,,,,,,,,,,,,,,,,,,,,,,,,,,,,,,,,,,,,,,,,,,,,,,,,,,,,,,,,,,,,,,,,,,,,,,,,,,,,,,,,,161.87975163985385,147.9585643703051,194.6953993981133,99.74089992344354,84.2359665571515,74.59658587157924,1.0,1.2,-220,-7,0,-8,183,11,135.13461065292358,135.1346526145935,135.1369822025299,135.14906978607178,135.29936361312866,135.29936361312866,135.29936361312866,135.29936361312866,135.29936361312866,135.29936361312866,135.29936361312866,135.98369359970093,2,0.8193533420562744,None,,,,,,,,,,,,,,,,,,208,3,2025-03-07_10h00.16.398,comp,2024.2.4,60.05117008253932,2025-03-07 10h00.23.988266 -0500,
76,76,0,filler_square,None,None,None,None,None,None,None,None,None,None,2,0.8587276935577393,None,,,,,0,0,0,0,0,76,76,195,135.998961687088,,,,,,,,,,,,,,,,,,,,,,,,,,,,,,,,,,,,,,,,,,,,,,,,,,,,,,,,,,,,,,,,,,,,,,,,,,,,,,,,,172.42902819275696,172.42902819275696,106.49869314440787,152.16907988574326,89.73287540094913,60.91033742931348,3.0,3.2,-258,-287,0,-7,203,253,135.9846432209015,135.98468542099,135.98703336715698,135.998961687088,136.14940214157104,136.14940214157104,136.14940214157104,136.14940214157104,136.14940214157104,136.14940214157104,136.14940214157104,136.8672811985016,2,0.8587276935577393,None,,,,,,,,,,,,,,,,,,208,3,2025-03-07_10h00.16.398,comp,2024.2.4,60.05117008253932,2025-03-07 10h00.23.988266 -0500,
77,77,0,critical,dhw,35.0,2.1,upper,127.0,127.0,200.0,125.0,125.0,200.0,3,1.2162094116210938,None,,,,,0,0,0,0,0,77,77,25,136.88280630111694,,,,,,,,,,,,,,,,,,,,,,,,,,,,,,,,,,,,,,,,,,,,,,,,,,,,,,,,,,,,,,,,,,,,,,,,,,,,,,,,,127.0,127.0,200.0,125.0,125.0,200.0,2.1,2.11,-222,287,0,278,258,-287,136.8680920600891,136.86813592910767,136.87061047554016,136.88280630111694,137.0329008102417,137.0329008102417,137.0329008102417,137.0329008102417,137.0329008102417,137.0329008102417,137.0329008102417,138.11708307266235,3,1.2162094116210938,None,,,,,,,,,,,,,,,,,,208,3,2025-03-07_10h00.16.398,comp,2024.2.4,60.05117008253932,2025-03-07 10h00.23.988266 -0500,
78,78,0,critical,wdh,35.0,2.1,upper,125.0,200.0,127.0,127.0,200.0,125.0,3,1.0204100608825684,None,,,,,0,0,0,0,0,78,78,33,138.13240122795105,,,,,,,,,,,,,,,,,,,,,,,,,,,,,,,,,,,,,,,,,,,,,,,,,,,,,,,,,,,,,,,,,,,,,,,,,,,,,,,,,125.0,200.0,127.0,127.0,200.0,125.0,2.1,2.11,-260,254,0,275,222,-271,138.11790013313293,138.11794209480286,138.1203773021698,138.13240122795105,138.28271293640137,138.28271293640137,138.28271293640137,138.28271293640137,138.28271293640137,138.28271293640137,138.28271293640137,139.16721153259277,3,1.0204100608825684,None,,,,,,,,,,,,,,,,,,208,3,2025-03-07_10h00.16.398,comp,2024.2.4,60.05117008253932,2025-03-07 10h00.23.988266 -0500,
79,79,0,critical,hdw,35.0,2.1,upper,200.0,125.0,127.0,127.0,125.0,200.0,1,0.7058296203613281,None,,,,,0,0,0,0,0,79,79,21,139.1824746131897,,,,,,,,,,,,,,,,,,,,,,,,,,,,,,,,,,,,,,,,,,,,,,,,,,,,,,,,,,,,,,,,,,,,,,,,,,,,,,,,,200.0,125.0,127.0,127.0,125.0,200.0,2.1,2.11,-222,283,0,280,260,-254,139.16803240776062,139.1680748462677,139.17051935195923,139.1824746131897,139.33276772499084,139.33276772499084,139.33276772499084,139.33276772499084,139.33276772499084,139.33276772499084,139.33276772499084,139.9006278514862,1,0.7058296203613281,None,,,,,,,,,,,,,,,,,,208,3,2025-03-07_10h00.16.398,comp,2024.2.4,60.05117008253932,2025-03-07 10h00.23.988266 -0500,
80,80,0,critical,hdw,20.0,4.0,lower,133.0,57.0,78.0,78.0,57.0,133.0,1,1.1007647514343262,None,,,,,0,0,0,0,0,80,80,118,139.9157271385193,,,,,,,,,,,,,,,,,,,,,,,,,,,,,,,,,,,,,,,,,,,,,,,,,,,,,,,,,,,,,,,,,,,,,,,,,,,,,,,,,133.0,57.0,78.0,78.0,57.0,133.0,4.0,4.1,-164,-284,0,1,202,-289,139.9014437198639,139.90149903297424,139.90356397628784,139.9157271385193,140.0659031867981,140.0659031867981,140.0659031867981,140.0659031867981,140.0659031867981,140.0659031867981,140.0659031867981,141.03363132476807,1,1.1007647514343262,None,,,,,,,,,,,,,,,,,,208,3,2025-03-07_10h00.16.398,comp,2024.2.4,60.05117008253932,2025-03-07 10h00.23.988266 -0500,
81,81,0,critical,hdw,20.0,1.0,lower,133.0,57.0,78.0,78.0,57.0,133.0,3,0.7442009449005127,None,,,,,0,0,0,0,0,81,81,114,141.04901933670044,,,,,,,,,,,,,,,,,,,,,,,,,,,,,,,,,,,,,,,,,,,,,,,,,,,,,,,,,,,,,,,,,,,,,,,,,,,,,,,,,133.0,57.0,78.0,78.0,57.0,133.0,1.0,1.2,-164,0,0,-7,202,18,141.03439116477966,141.03443336486816,141.0368037223816,141.04901933670044,141.1992166042328,141.1992166042328,141.1992166042328,141.1992166042328,141.1992166042328,141.1992166042328,141.1992166042328,141.80021977424622,3,0.7442009449005127,None,,,,,,,,,,,,,,,,,,208,3,2025-03-07_10h00.16.398,comp,2024.2.4,60.05117008253932,2025-03-07 10h00.23.988266 -0500,
82,82,0,catch,None,None,None,None,None,None,None,None,None,None,2,0.7773399353027344,None,,,,,0,0,0,0,0,82,82,124,141.81586694717407,,,,,,,,,,,,,,,,,,,,,,,,,,,,,,,,,,,,,,,,,,,,,,,,,,,,,,,,,,,,,,,,,,,,,,,,,,,,,,,,,79,111,190,135,121,69,3.0,3.2,-219,-269,0,0,198,272,141.80124688148499,141.80128836631775,141.8034336566925,141.81586694717407,141.96622967720032,141.96622967720032,141.96622967720032,141.96622967720032,141.96622967720032,141.96622967720032,141.96622967720032,142.60037302970886,2,0.7773399353027344,None,,,,,,,,,,,,,,,,,,208,3,2025-03-07_10h00.16.398,comp,2024.2.4,60.05117008253932,2025-03-07 10h00.23.988266 -0500,
83,83,0,critical,whd,35.0,3.0,upper,125.0,200.0,200.0,125.0,127.0,127.0,2,0.7686657905578613,None,,,,,0,0,0,0,0,83,83,87,142.61600518226624,,,,,,,,,,,,,,,,,,,,,,,,,,,,,,,,,,,,,,,,,,,,,,,,,,,,,,,,,,,,,,,,,,,,,,,,,,,,,,,,,125.0,200.0,200.0,125.0,127.0,127.0,3.0,3.1,-258,267,0,12,222,-265,142.60117864608765,142.60122156143188,142.60367918014526,142.61600518226624,142.7659888267517,142.7659888267517,142.7659888267517,142.7659888267517,142.7659888267517,142.7659888267517,142.7659888267517,143.40059900283813,2,0.7686657905578613,None,,,,,,,,,,,,,,,,,,208,3,2025-03-07_10h00.16.398,comp,2024.2.4,60.05117008253932,2025-03-07 10h00.23.988266 -0500,
84,84,0,catch,None,None,None,None,None,None,None,None,None,None,2,0.8576488494873047,None,,,,,0,0,0,0,0,84,84,120,143.41577577590942,,,,,,,,,,,,,,,,,,,,,,,,,,,,,,,,,,,,,,,,,,,,,,,,,,,,,,,,,,,,,,,,,,,,,,,,,,,,,,,,,132,58,172,153,90,100,4.0,4.2,-202,-6,0,-286,222,-4,143.4016399383545,143.40168404579163,143.4038233757019,143.41577577590942,143.5660719871521,143.5660719871521,143.5660719871521,143.5660719871521,143.5660719871521,143.5660719871521,143.5660719871521,144.28467321395874,2,0.8576488494873047,None,,,,,,,,,,,,,,,,,,208,3,2025-03-07_10h00.16.398,comp,2024.2.4,60.05117008253932,2025-03-07 10h00.23.988266 -0500,
85,85,0,critical,hwd,35.0,3.0,upper,200.0,125.0,125.0,200.0,127.0,127.0,1,1.8461294174194336,None,,,,,0,0,0,0,0,85,85,99,144.2996208667755,,,,,,,,,,,,,,,,,,,,,,,,,,,,,,,,,,,,,,,,,,,,,,,,,,,,,,,,,,,,,,,,,,,,,,,,,,,,,,,,,200.0,125.0,125.0,200.0,127.0,127.0,3.0,3.1,-258,254,0,-9,260,-286,144.2853934764862,144.2854299545288,144.28717494010925,144.2996208667755,144.45011615753174,144.45011615753174,144.45011615753174,144.45011615753174,144.45011615753174,144.45011615753174,144.45011615753174,146.15055990219116,1,1.8461294174194336,None,,,,,,,,,,,,,,,,,,208,3,2025-03-07_10h00.16.398,comp,2024.2.4,60.05117008253932,2025-03-07 10h00.23.988266 -0500,
86,86,0,filler_random,None,None,None,None,None,None,None,None,None,None,2,0.9217641353607178,None,,,,,0,0,0,0,0,86,86,143,146.18262696266174,,,,,,,,,,,,,,,,,,,,,,,,,,,,,,,,,,,,,,,,,,,,,,,,,,,,,,,,,,,,,,,,,,,,,,,,,,,,,,,,,93.15316000047963,127.05897852879188,196.04844140634935,114.43132585611953,170.5284164659132,81.42220420971032,2.2,2.21,-217,-282,0,285,194,280,146.15148210525513,146.15154099464417,146.1538803577423,146.18262696266174,146.3163297176361,146.3163297176361,146.3163297176361,146.3163297176361,146.3163297176361,146.3163297176361,146.3163297176361,147.11707282066345,2,0.9217641353607178,None,,,,,,,,,,,,,,,,,,208,3,2025-03-07_10h00.16.398,comp,2024.2.4,60.05117008253932,2025-03-07 10h00.23.988266 -0500,
87,87,0,critical,wdh,35.0,4.0,lower,57.0,133.0,70.0,70.0,133.0,57.0,1,2.020117998123169,None,,,,,0,0,0,0,0,87,87,76,147.13237524032593,,,,,,,,,,,,,,,,,,,,,,,,,,,,,,,,,,,,,,,,,,,,,,,,,,,,,,,,,,,,,,,,,,,,,,,,,,,,,,,,,57.0,133.0,70.0,70.0,133.0,57.0,4.0,4.1,-198,-268,0,-3,160,-281,147.1178674697876,147.11790943145752,147.12040328979492,147.13237524032593,147.28252911567688,147.28252911567688,147.28252911567688,147.28252911567688,147.28252911567688,147.28252911567688,147.28252911567688,149.16689562797546,1,2.020117998123169,None,,,,,,,,,,,,,,,,,,208,3,2025-03-07_10h00.16.398,comp,2024.2.4,60.05117008253932,2025-03-07 10h00.23.988266 -0500,
88,88,0,filler_random,None,None,None,None,None,None,None,None,None,None,3,0.947833776473999,None,,,,,0,0,0,0,0,88,88,132,149.18238019943237,,,,,,,,,,,,,,,,,,,,,,,,,,,,,,,,,,,,,,,,,,,,,,,,,,,,,,,,,,,,,,,,,,,,,,,,,,,,,,,,,158.75082840988023,99.81388198016313,107.887609323591,174.8313130377033,199.84194488411796,178.51261498686887,2.1,2.11,-233,285,0,256,273,-253,149.16778421401978,149.16782593727112,149.17019963264465,149.18238019943237,149.33272314071655,149.33272314071655,149.33272314071655,149.33272314071655,149.33272314071655,149.33272314071655,149.33272314071655,150.1339430809021,3,0.947833776473999,None,,,,,,,,,,,,,,,,,,208,3,2025-03-07_10h00.16.398,comp,2024.2.4,60.05117008253932,2025-03-07 10h00.23.988266 -0500,
89,89,0,filler_square,None,None,None,None,None,None,None,None,None,None,3,1.3550126552581787,None,,,,,0,0,0,0,0,89,89,205,150.1492531299591,,,,,,,,,,,,,,,,,,,,,,,,,,,,,,,,,,,,,,,,,,,,,,,,,,,,,,,,,,,,,,,,,,,,,,,,,,,,,,,,,108.95325546436285,114.36737415201515,122.48736857900128,138.14194105617332,152.23675323716236,152.23675323716236,2.1,2.11,-222,278,0,290,241,-251,150.13490796089172,150.13495063781738,150.13733673095703,150.1492531299591,150.29926872253418,150.29926872253418,150.29926872253418,150.29926872253418,150.29926872253418,150.29926872253418,150.29926872253418,151.51718854904175,3,1.3550126552581787,None,,,,,,,,,,,,,,,,,,208,3,2025-03-07_10h00.16.398,comp,2024.2.4,60.05117008253932,2025-03-07 10h00.23.988266 -0500,
90,90,0,filler_random,None,None,None,None,None,None,None,None,None,None,3,1.1172466278076172,None,,,,,0,0,0,0,0,90,90,150,151.53234672546387,,,,,,,,,,,,,,,,,,,,,,,,,,,,,,,,,,,,,,,,,,,,,,,,,,,,,,,,,,,,,,,,,,,,,,,,,,,,,,,,,179.8810023767665,174.46884863865117,116.33131297146622,110.53927604867802,197.3934766705508,187.27946222767713,3.0,3.2,-239,-254,0,-19,245,265,151.51808214187622,151.51812314987183,151.52039670944214,151.53234672546387,151.68268156051636,151.68268156051636,151.68268156051636,151.68268156051636,151.68268156051636,151.68268156051636,151.68268156051636,152.66730213165283,3,1.1172466278076172,None,,,,,,,,,,,,,,,,,,208,3,2025-03-07_10h00.16.398,comp,2024.2.4,60.05117008253932,2025-03-07 10h00.23.988266 -0500,
91,91,0,critical,dhw,35.0,2.1,upper,127.0,127.0,200.0,125.0,125.0,200.0,3,1.870054006576538,None,,,,,0,0,0,0,0,91,91,1,152.68242192268372,,,,,,,,,,,,,,,,,,,,,,,,,,,,,,,,,,,,,,,,,,,,,,,,,,,,,,,,,,,,,,,,,,,,,,,,,,,,,,,,,127.0,127.0,200.0,125.0,125.0,200.0,2.1,2.11,-222,282,0,262,258,-258,152.66810154914856,152.66814279556274,152.67057299613953,152.68242192268372,152.8326599597931,152.8326599597931,152.8326599597931,152.8326599597931,152.8326599597931,152.8326599597931,152.8326599597931,154.56708240509033,3,1.870054006576538,None,,,,,,,,,,,,,,,,,,208,3,2025-03-07_10h00.16.398,comp,2024.2.4,60.05117008253932,2025-03-07 10h00.23.988266 -0500,
92,92,0,filler_random,None,None,None,None,None,None,None,None,None,None,3,2.5547311305999756,None,,,,,0,0,0,0,0,92,92,130,154.58232307434082,,,,,,,,,,,,,,,,,,,,,,,,,,,,,,,,,,,,,,,,,,,,,,,,,,,,,,,,,,,,,,,,,,,,,,,,,,,,,,,,,95.54377169859892,129.6978947523246,65.15864401425422,100.88670403308396,133.44138624277895,84.26650227774795,2.2,2.22,-211,260,0,-258,189,-282,154.5679886341095,154.56802797317505,154.57045531272888,154.58232307434082,154.73252820968628,154.73252820968628,154.73252820968628,154.73252820968628,154.73252820968628,154.73252820968628,154.73252820968628,157.15022683143616,3,2.5547311305999756,None,,,,,,,,,,,,,,,,,,208,3,2025-03-07_10h00.16.398,comp,2024.2.4,60.05117008253932,2025-03-07 10h00.23.988266 -0500,
93,93,0,filler_random,None,None,None,None,None,None,None,None,None,None,2,0.850806713104248,None,,,,,0,0,0,0,0,93,93,152,157.1655616760254,,,,,,,,,,,,,,,,,,,,,,,,,,,,,,,,,,,,,,,,,,,,,,,,,,,,,,,,,,,,,,,,,,,,,,,,,,,,,,,,,155.00389059791348,74.45355823190302,187.25617285867747,189.9155475323431,143.79073703000648,148.76074162247698,3.0,3.2,-228,-260,0,-19,265,266,157.15113377571106,157.15117573738098,157.15371370315552,157.1655616760254,157.31605100631714,157.31605100631714,157.31605100631714,157.31605100631714,157.31605100631714,157.31605100631714,157.31605100631714,158.03372240066528,2,0.850806713104248,None,,,,,,,,,,,,,,,,,,208,3,2025-03-07_10h00.16.398,comp,2024.2.4,60.05117008253932,2025-03-07 10h00.23.988266 -0500,
94,94,0,critical,wdh,35.0,2.1,lower,57.0,133.0,70.0,70.0,133.0,57.0,1,2.0552217960357666,None,,,,,0,0,0,0,0,94,94,8,158.0489592552185,,,,,,,,,,,,,,,,,,,,,,,,,,,,,,,,,,,,,,,,,,,,,,,,,,,,,,,,,,,,,,,,,,,,,,,,,,,,,,,,,57.0,133.0,70.0,70.0,133.0,57.0,2.1,2.11,-198,282,0,261,160,-269,158.0345561504364,158.03459692001343,158.03776383399963,158.0489592552185,158.1990041732788,158.1990041732788,158.1990041732788,158.1990041732788,158.1990041732788,158.1990041732788,158.1990041732788,160.11709332466125,1,2.0552217960357666,None,,,,,,,,,,,,,,,,,,208,3,2025-03-07_10h00.16.398,comp,2024.2.4,60.05117008253932,2025-03-07 10h00.23.988266 -0500,
95,95,0,critical,whd,20.0,4.0,upper,125.0,200.0,200.0,125.0,141.0,141.0,1,1.588139295578003,None,,,,,0,0,0,0,0,95,95,95,160.1323595046997,,,,,,,,,,,,,,,,,,,,,,,,,,,,,,,,,,,,,,,,,,,,,,,,,,,,,,,,,,,,,,,,,,,,,,,,,,,,,,,,,125.0,200.0,200.0,125.0,141.0,141.0,4.0,4.2,-258,11,0,-288,229,0,160.1179015636444,160.1179437637329,160.12036204338074,160.1323595046997,160.28271460533142,160.28271460533142,160.28271460533142,160.28271460533142,160.28271460533142,160.28271460533142,160.28271460533142,161.7338671684265,1,1.588139295578003,None,,,,,,,,,,,,,,,,,,208,3,2025-03-07_10h00.16.398,comp,2024.2.4,60.05117008253932,2025-03-07 10h00.23.988266 -0500,
96,96,0,catch,None,None,None,None,None,None,None,None,None,None,3,0.8673660755157471,None,,,,,0,0,0,0,0,96,96,123,161.74897837638855,,,,,,,,,,,,,,,,,,,,,,,,,,,,,,,,,,,,,,,,,,,,,,,,,,,,,,,,,,,,,,,,,,,,,,,,,,,,,,,,,99,91,85,105,177,148,2.1,2.11,-194,283,0,258,222,-253,161.73502373695374,161.73506784439087,161.73752617835999,161.74897837638855,161.8992989063263,161.8992989063263,161.8992989063263,161.8992989063263,161.8992989063263,161.8992989063263,161.8992989063263,162.63335704803467,3,0.8673660755157471,None,,,,,,,,,,,,,,,,,,208,3,2025-03-07_10h00.16.398,comp,2024.2.4,60.05117008253932,2025-03-07 10h00.23.988266 -0500,
97,97,0,filler_random,None,None,None,None,None,None,None,None,None,None,2,0.6969814300537109,None,,,,,0,0,0,0,0,97,97,134,162.64890551567078,,,,,,,,,,,,,,,,,,,,,,,,,,,,,,,,,,,,,,,,,,,,,,,,,,,,,,,,,,,,,,,,,,,,,,,,,,,,,,,,,95.3739871656677,86.09281877656456,107.75227399914868,171.73693111015558,81.36004239050479,153.7811943690757,3.0,3.1,-225,264,0,2,259,-256,162.63427662849426,162.6343171596527,162.63627362251282,162.64890551567078,162.7989785671234,162.7989785671234,162.7989785671234,162.7989785671234,162.7989785671234,162.7989785671234,162.7989785671234,163.35030221939087,2,0.6969814300537109,None,,,,,,,,,,,,,,,,,,208,3,2025-03-07_10h00.16.398,comp,2024.2.4,60.05117008253932,2025-03-07 10h00.23.988266 -0500,
98,98,0,catch,None,None,None,None,None,None,None,None,None,None,1,0.9492807388305664,None,,,,,0,0,0,0,0,98,98,125,163.36573815345764,,,,,,,,,,,,,,,,,,,,,,,,,,,,,,,,,,,,,,,,,,,,,,,,,,,,,,,,,,,,,,,,,,,,,,,,,,,,,,,,,153,172,91,99,127,63,2.1,2.12,-232,-250,0,-266,177,284,163.35133695602417,163.3513786792755,163.3539354801178,163.36573815345764,163.51570630073547,163.51570630073547,163.51570630073547,163.51570630073547,163.51570630073547,163.51570630073547,163.51570630073547,164.33365201950073,1,0.9492807388305664,None,,,,,,,,,,,,,,,,,,208,3,2025-03-07_10h00.16.398,comp,2024.2.4,60.05117008253932,2025-03-07 10h00.23.988266 -0500,
99,99,0,critical,whd,35.0,4.0,lower,57.0,133.0,133.0,57.0,70.0,70.0,2,0.988128662109375,None,,,,,0,0,0,0,0,99,99,88,164.3488907814026,,,,,,,,,,,,,,,,,,,,,,,,,,,,,,,,,,,,,,,,,,,,,,,,,,,,,,,,,,,,,,,,,,,,,,,,,,,,,,,,,57.0,133.0,133.0,57.0,70.0,70.0,4.0,4.2,-191,20,0,-284,160,-9,164.33442544937134,164.33446598052979,164.33658981323242,164.3488907814026,164.49906015396118,164.49906015396118,164.49906015396118,164.49906015396118,164.49906015396118,164.49906015396118,164.49906015396118,165.35014009475708,2,0.988128662109375,None,,,,,,,,,,,,,,,,,,208,3,2025-03-07_10h00.16.398,comp,2024.2.4,60.05117008253932,2025-03-07 10h00.23.988266 -0500,
100,100,0,critical,dhw,20.0,1.0,upper,141.0,141.0,200.0,125.0,125.0,200.0,3,0.8189196586608887,None,,,,,0,0,0,0,0,100,100,55,165.36554384231567,,,,,,,,,,,,,,,,,,,,,,,,,,,,,,,,,,,,,,,,,,,,,,,,,,,,,,,,,,,,,,,,,,,,,,,,,,,,,,,,,141.0,141.0,200.0,125.0,125.0,200.0,1.0,1.2,-229,-19,0,18,258,0,165.35090136528015,165.35094451904297,165.3533844947815,165.36554384231567,165.51589941978455,165.51589941978455,165.51589941978455,165.51589941978455,165.51589941978455,165.51589941978455,165.51589941978455,166.20046854019165,3,0.8189196586608887,None,,,,,,,,,,,,,,,,,,208,3,2025-03-07_10h00.16.398,comp,2024.2.4,60.05117008253932,2025-03-07 10h00.23.988266 -0500,
101,101,0,catch,None,None,None,None,None,None,None,None,None,None,1,0.6575362682342529,None,,,,,0,0,0,0,0,101,101,127,166.21562695503235,,,,,,,,,,,,,,,,,,,,,,,,,,,,,,,,,,,,,,,,,,,,,,,,,,,,,,,,,,,,,,,,,,,,,,,,,,,,,,,,,180,145,87,103,104,86,3.0,3.2,-220,-277,0,-12,190,259,166.20146465301514,166.20151591300964,166.20370388031006,166.21562695503235,166.36570239067078,166.36570239067078,166.36570239067078,166.36570239067078,166.36570239067078,166.36570239067078,166.36570239067078,166.88350892066956,1,0.6575362682342529,None,,,,,,,,,,,,,,,,,,208,3,2025-03-07_10h00.16.398,comp,2024.2.4,60.05117008253932,2025-03-07 10h00.23.988266 -0500,
102,102,0,critical,hwd,20.0,2.1,upper,200.0,125.0,125.0,200.0,141.0,141.0,2,0.7998056411743164,None,,,,,0,0,0,0,0,102,102,43,166.89901900291443,,,,,,,,,,,,,,,,,,,,,,,,,,,,,,,,,,,,,,,,,,,,,,,,,,,,,,,,,,,,,,,,,,,,,,,,,,,,,,,,,200.0,125.0,125.0,200.0,141.0,141.0,2.1,2.12,-258,-263,0,-271,266,264,166.8842704296112,166.88431119918823,166.88620328903198,166.89901900291443,167.0492684841156,167.0492684841156,167.0492684841156,167.0492684841156,167.0492684841156,167.0492684841156,167.0492684841156,167.700754404068,2,0.7998056411743164,None,,,,,,,,,,,,,,,,,,208,3,2025-03-07_10h00.16.398,comp,2024.2.4,60.05117008253932,2025-03-07 10h00.23.988266 -0500,
103,103,0,filler_random,None,None,None,None,None,None,None,None,None,None,2,1.4295783042907715,None,,,,,0,0,0,0,0,103,103,165,167.71584486961365,,,,,,,,,,,,,,,,,,,,,,,,,,,,,,,,,,,,,,,,,,,,,,,,,,,,,,,,,,,,,,,,,,,,,,,,,,,,,,,,,76.29251030530918,198.29620463086204,101.64658118483267,192.86392702308265,88.21007425863615,128.55730002807627,4.0,4.1,-292,-274,0,18,257,-281,167.70166158676147,167.70170259475708,167.70378828048706,167.71584486961365,167.8658082485199,167.8658082485199,167.8658082485199,167.8658082485199,167.8658082485199,167.8658082485199,167.8658082485199,169.15030980110168,2,1.4295783042907715,None,,,,,,,,,,,,,,,,,,208,3,2025-03-07_10h00.16.398,comp,2024.2.4,60.05117008253932,2025-03-07 10h00.23.988266 -0500,
104,104,0,filler_square,None,None,None,None,None,None,None,None,None,None,1,1.0432467460632324,None,,,,,0,0,0,0,0,104,104,189,169.16574692726135,,,,,,,,,,,,,,,,,,,,,,,,,,,,,,,,,,,,,,,,,,,,,,,,,,,,,,,,,,,,,,,,,,,,,,,,,,,,,,,,,159.70151562517992,159.70151562517992,93.86390798375376,139.7534909860288,60.47652026616827,58.97508121449464,3.0,3.1,-246,277,0,-7,195,-288,169.1512565612793,169.1512987613678,169.15386486053467,169.16574692726135,169.31606721878052,169.31606721878052,169.31606721878052,169.31606721878052,169.31606721878052,169.31606721878052,169.31606721878052,170.2169225215912,1,1.0432467460632324,None,,,,,,,,,,,,,,,,,,208,3,2025-03-07_10h00.16.398,comp,2024.2.4,60.05117008253932,2025-03-07 10h00.23.988266 -0500,
105,105,0,filler_square,None,None,None,None,None,None,None,None,None,None,3,1.1281635761260986,None,,,,,0,0,0,0,0,105,105,199,170.2330436706543,,,,,,,,,,,,,,,,,,,,,,,,,,,,,,,,,,,,,,,,,,,,,,,,,,,,,,,,,,,,,,,,,,,,,,,,,,,,,,,,,105.02690975707726,105.02690975707726,80.03590501762841,77.79576623579587,90.2404665158613,90.6816459470828,2.2,2.22,-187,289,0,-283,180,-265,170.21786880493164,170.21791172027588,170.220041513443,170.2330436706543,170.38252878189087,170.38252878189087,170.38252878189087,170.38252878189087,170.38252878189087,170.38252878189087,170.38252878189087,171.36679220199585,3,1.1281635761260986,None,,,,,,,,,,,,,,,,,,208,3,2025-03-07_10h00.16.398,comp,2024.2.4,60.05117008253932,2025-03-07 10h00.23.988266 -0500,
106,106,0,critical,dwh,35.0,2.1,upper,127.0,127.0,125.0,200.0,200.0,125.0,2,0.9162843227386475,None,,,,,0,0,0,0,0,106,106,5,171.38231682777405,,,,,,,,,,,,,,,,,,,,,,,,,,,,,,,,,,,,,,,,,,,,,,,,,,,,,,,,,,,,,,,,,,,,,,,,,,,,,,,,,127.0,127.0,125.0,200.0,200.0,125.0,2.1,2.12,-260,-276,0,-263,258,261,171.3676028251648,171.36764550209045,171.36970210075378,171.38231682777405,171.53286123275757,171.53286123275757,171.53286123275757,171.53286123275757,171.53286123275757,171.53286123275757,171.53286123275757,172.30037307739258,2,0.9162843227386475,None,,,,,,,,,,,,,,,,,,208,3,2025-03-07_10h00.16.398,comp,2024.2.4,60.05117008253932,2025-03-07 10h00.23.988266 -0500,
107,107,0,critical,hwd,20.0,2.1,lower,133.0,57.0,57.0,133.0,78.0,78.0,2,2.3334462642669678,None,,,,,0,0,0,0,0,107,107,42,172.31573295593262,,,,,,,,,,,,,,,,,,,,,,,,,,,,,,,,,,,,,,,,,,,,,,,,,,,,,,,,,,,,,,,,,,,,,,,,,,,,,,,,,133.0,57.0,57.0,133.0,78.0,78.0,2.1,2.11,-191,262,0,284,202,-272,172.30118060112,172.30122208595276,172.30333280563354,172.31573295593262,172.46583890914917,172.46583890914917,172.46583890914917,172.46583890914917,172.46583890914917,172.46583890914917,172.46583890914917,174.6667468547821,2,2.3334462642669678,None,,,,,,,,,,,,,,,,,,208,3,2025-03-07_10h00.16.398,comp,2024.2.4,60.05117008253932,2025-03-07 10h00.23.988266 -0500,
108,108,0,catch,None,None,None,None,None,None,None,None,None,None,2,0.767176628112793,None,,,,,0,0,0,0,0,108,108,126,174.68210363388062,,,,,,,,,,,,,,,,,,,,,,,,,,,,,,,,,,,,,,,,,,,,,,,,,,,,,,,,,,,,,,,,,,,,,,,,,,,,,,,,,119,71,181,144,98,92,4.0,4.1,-204,-286,0,15,214,-274,174.66778993606567,174.66783213615417,174.67019367218018,174.68210363388062,174.83233308792114,174.83233308792114,174.83233308792114,174.83233308792114,174.83233308792114,174.83233308792114,174.83233308792114,175.4669337272644,2,0.767176628112793,None,,,,,,,,,,,,,,,,,,208,3,2025-03-07_10h00.16.398,comp,2024.2.4,60.05117008253932,2025-03-07 10h00.23.988266 -0500,
109,109,0,critical,dwh,35.0,3.0,upper,127.0,127.0,125.0,200.0,200.0,125.0,2,0.7341923713684082,None,,,,,0,0,0,0,0,109,109,63,175.48215198516846,,,,,,,,,,,,,,,,,,,,,,,,,,,,,,,,,,,,,,,,,,,,,,,,,,,,,,,,,,,,,,,,,,,,,,,,,,,,,,,,,127.0,127.0,125.0,200.0,200.0,125.0,3.0,3.2,-260,-263,0,7,258,271,175.46773076057434,175.4677734375,175.47020936012268,175.48215198516846,175.63250827789307,175.63250827789307,175.63250827789307,175.63250827789307,175.63250827789307,175.63250827789307,175.63250827789307,176.23343420028687,2,0.7341923713684082,None,,,,,,,,,,,,,,,,,,208,3,2025-03-07_10h00.16.398,comp,2024.2.4,60.05117008253932,2025-03-07 10h00.23.988266 -0500,
110,110,0,filler_square,None,None,None,None,None,None,None,None,None,None,1,0.7121374607086182,None,,,,,0,0,0,0,0,110,110,179,176.24883675575256,,,,,,,,,,,,,,,,,,,,,,,,,,,,,,,,,,,,,,,,,,,,,,,,,,,,,,,,,,,,,,,,,,,,,,,,,,,,,,,,,171.86616842522494,171.86616842522494,77.79642241778981,112.86979402567971,163.24842821541313,170.56150834474488,2.2,2.22,-238,270,0,-272,238,-282,176.2344057559967,176.23444819450378,176.23647928237915,176.24883675575256,176.3990776538849,176.3990776538849,176.3990776538849,176.3990776538849,176.3990776538849,176.3990776538849,176.3990776538849,176.96700716018677,1,0.7121374607086182,None,,,,,,,,,,,,,,,,,,208,3,2025-03-07_10h00.16.398,comp,2024.2.4,60.05117008253932,2025-03-07 10h00.23.988266 -0500,
111,111,0,critical,hwd,20.0,3.0,upper,200.0,125.0,125.0,200.0,141.0,141.0,2,1.458315134048462,None,,,,,0,0,0,0,0,111,111,105,176.9827036857605,,,,,,,,,,,,,,,,,,,,,,,,,,,,,,,,,,,,,,,,,,,,,,,,,,,,,,,,,,,,,,,,,,,,,,,,,,,,,,,,,200.0,125.0,125.0,200.0,141.0,141.0,3.0,3.1,-258,271,0,12,266,-289,176.96783638000488,176.96787810325623,176.96996331214905,176.9827036857605,177.13237619400024,177.13237619400024,177.13237619400024,177.13237619400024,177.13237619400024,177.13237619400024,177.13237619400024,178.4503870010376,2,1.458315134048462,None,,,,,,,,,,,,,,,,,,208,3,2025-03-07_10h00.16.398,comp,2024.2.4,60.05117008253932,2025-03-07 10h00.23.988266 -0500,
112,112,0,filler_random,None,None,None,None,None,None,None,None,None,None,1,1.5112154483795166,None,,,,,0,0,0,0,0,112,112,163,178.46576762199402,,,,,,,,,,,,,,,,,,,,,,,,,,,,,,,,,,,,,,,,,,,,,,,,,,,,,,,,,,,,,,,,,,,,,,,,,,,,,,,,,126.7747484323931,146.85633557479707,89.19935255382248,143.43201342618266,95.94992470606823,103.10680449046842,1.0,1.3,239,-255,480,-281,699,-256,178.45132613182068,178.45136976242065,178.45359706878662,178.46576762199402,178.61556005477905,178.61556005477905,178.61556005477905,178.61556005477905,178.61556005477905,178.61556005477905,178.61556005477905,179.98339915275574,1,1.5112154483795166,None,,,,,,,,,,,,,,,,,,208,3,2025-03-07_10h00.16.398,comp,2024.2.4,60.05117008253932,2025-03-07 10h00.23.988266 -0500,
113,113,0,critical,dwh,35.0,2.1,lower,70.0,70.0,57.0,133.0,133.0,57.0,2,1.5049712657928467,None,,,,,0,0,0,0,0,113,113,28,179.9990463256836,,,,,,,,,,,,,,,,,,,,,,,,,,,,,,,,,,,,,,,,,,,,,,,,,,,,,,,,,,,,,,,,,,,,,,,,,,,,,,,,,70.0,70.0,57.0,133.0,133.0,57.0,2.1,2.12,-198,-259,0,-290,191,284,179.98415970802307,179.98420000076294,179.9860954284668,179.9990463256836,180.14897274971008,180.14897274971008,180.14897274971008,180.14897274971008,180.14897274971008,180.14897274971008,180.14897274971008,181.51670503616333,2,1.5049712657928467,None,,,,,,,,,,,,,,,,,,208,3,2025-03-07_10h00.16.398,comp,2024.2.4,60.05117008253932,2025-03-07 10h00.23.988266 -0500,
114,114,0,filler_random,None,None,None,None,None,None,None,None,None,None,3,1.4359350204467773,None,,,,,0,0,0,0,0,114,114,158,181.5321593284607,,,,,,,,,,,,,,,,,,,,,,,,,,,,,,,,,,,,,,,,,,,,,,,,,,,,,,,,,,,,,,,,,,,,,,,,,,,,,,,,,196.20702638672103,168.75894600172583,92.21698034743162,82.0890388456777,175.34091380007163,178.68919982634287,2.2,2.22,-221,273,0,-277,226,-289,181.51762795448303,181.51767015457153,181.5200982093811,181.5321593284607,181.68246293067932,181.68246293067932,181.68246293067932,181.68246293067932,181.68246293067932,181.68246293067932,181.68246293067932,182.98354768753052,3,1.4359350204467773,None,,,,,,,,,,,,,,,,,,208,3,2025-03-07_10h00.16.398,comp,2024.2.4,60.05117008253932,2025-03-07 10h00.23.988266 -0500,
115,115,0,filler_square,None,None,None,None,None,None,None,None,None,None,1,1.3053479194641113,None,,,,,0,0,0,0,0,115,115,194,182.99878025054932,,,,,,,,,,,,,,,,,,,,,,,,,,,,,,,,,,,,,,,,,,,,,,,,,,,,,,,,,,,,,,,,,,,,,,,,,,,,,,,,,155.12130272107095,155.12130272107095,108.77817907012272,95.54779339628645,131.7465522482774,147.35784749126918,4.0,4.1,-221,-257,0,-15,217,-290,182.9845199584961,182.98456287384033,182.98779582977295,182.99878025054932,183.1491837501526,183.1491837501526,183.1491837501526,183.1491837501526,183.1491837501526,183.1491837501526,183.1491837501526,184.31674695014954,1,1.3053479194641113,None,,,,,,,,,,,,,,,,,,208,3,2025-03-07_10h00.16.398,comp,2024.2.4,60.05117008253932,2025-03-07 10h00.23.988266 -0500,
116,116,0,catch,None,None,None,None,None,None,None,None,None,None,2,0.7253818511962891,None,,,,,0,0,0,0,0,116,116,122,184.33213233947754,,,,,,,,,,,,,,,,,,,,,,,,,,,,,,,,,,,,,,,,,,,,,,,,,,,,,,,,,,,,,,,,,,,,,,,,,,,,,,,,,64,126,184,141,128,62,3.0,3.1,-230,270,0,-18,198,-287,184.31777429580688,184.3178174495697,184.32024598121643,184.33213233947754,184.4825530052185,184.4825530052185,184.4825530052185,184.4825530052185,184.4825530052185,184.4825530052185,184.4825530052185,185.0668351650238,2,0.7253818511962891,None,,,,,,,,,,,,,,,,,,208,3,2025-03-07_10h00.16.398,comp,2024.2.4,60.05117008253932,2025-03-07 10h00.23.988266 -0500,
117,117,0,critical,wdh,35.0,3.0,upper,125.0,200.0,127.0,127.0,200.0,125.0,3,0.8854403495788574,None,,,,,0,0,0,0,0,117,117,75,185.08264183998108,,,,,,,,,,,,,,,,,,,,,,,,,,,,,,,,,,,,,,,,,,,,,,,,,,,,,,,,,,,,,,,,,,,,,,,,,,,,,,,,,125.0,200.0,127.0,127.0,200.0,125.0,3.0,3.1,-260,253,0,6,222,-251,185.06761932373047,185.06765985488892,185.06971979141235,185.08264183998108,185.23238158226013,185.23238158226013,185.23238158226013,185.23238158226013,185.23238158226013,185.23238158226013,185.23238158226013,185.983571767807,3,0.8854403495788574,None,,,,,,,,,,,,,,,,,,208,3,2025-03-07_10h00.16.398,comp,2024.2.4,60.05117008253932,2025-03-07 10h00.23.988266 -0500,
118,118,0,filler_random,None,None,None,None,None,None,None,None,None,None,3,0.9942076206207275,None,,,,,0,0,0,0,0,118,118,131,185.9987850189209,,,,,,,,,,,,,,,,,,,,,,,,,,,,,,,,,,,,,,,,,,,,,,,,,,,,,,,,,,,,,,,,,,,,,,,,,,,,,,,,,165.60749546190866,157.88867605141093,68.79826138904538,119.83541714547309,131.52774648353716,181.83881490038874,2.2,2.21,-235,-252,0,276,247,262,185.98445200920105,185.98450779914856,185.98679041862488,185.9987850189209,186.1491186618805,186.1491186618805,186.1491186618805,186.1491186618805,186.1491186618805,186.1491186618805,186.1491186618805,187.00013875961304,3,0.9942076206207275,None,,,,,,,,,,,,,,,,,,208,3,2025-03-07_10h00.16.398,comp,2024.2.4,60.05117008253932,2025-03-07 10h00.23.988266 -0500,
119,119,0,filler_random,None,None,None,None,None,None,None,None,None,None,2,1.6092782020568848,None,,,,,0,0,0,0,0,119,119,148,187.0157060623169,,,,,,,,,,,,,,,,,,,,,,,,,,,,,,,,,,,,,,,,,,,,,,,,,,,,,,,,,,,,,,,,,,,,,,,,,,,,,,,,,188.36669849782274,73.87050304342279,88.67142032416557,151.9048251061118,161.62026124978877,74.14903869734715,2.1,2.12,-209,-283,0,-260,209,269,187.00103187561035,187.00107431411743,187.0030438899994,187.0157060623169,187.16555190086365,187.16555190086365,187.16555190086365,187.16555190086365,187.16555190086365,187.16555190086365,187.16555190086365,188.6336178779602,2,1.6092782020568848,None,,,,,,,,,,,,,,,,,,208,3,2025-03-07_10h00.16.398,comp,2024.2.4,60.05117008253932,2025-03-07 10h00.23.988266 -0500,
120,120,0,critical,dhw,35.0,2.1,lower,70.0,70.0,133.0,57.0,57.0,133.0,2,1.51957368850708,None,,,,,0,0,0,0,0,120,120,0,188.64896845817566,,,,,,,,,,,,,,,,,,,,,,,,,,,,,,,,,,,,,,,,,,,,,,,,,,,,,,,,,,,,,,,,,,,,,,,,,,,,,,,,,70.0,70.0,133.0,57.0,57.0,133.0,2.1,2.11,-160,271,0,280,191,-256,188.63442301750183,188.63446593284607,188.63660216331482,188.64896845817566,188.79882836341858,188.79882836341858,188.79882836341858,188.79882836341858,188.79882836341858,188.79882836341858,188.79882836341858,190.18327736854553,2,1.51957368850708,None,,,,,,,,,,,,,,,,,,208,3,2025-03-07_10h00.16.398,comp,2024.2.4,60.05117008253932,2025-03-07 10h00.23.988266 -0500,
121,121,0,filler_random,None,None,None,None,None,None,None,None,None,None,3,1.2172744274139404,None,,,,,0,0,0,0,0,121,121,146,190.19879269599915,,,,,,,,,,,,,,,,,,,,,,,,,,,,,,,,,,,,,,,,,,,,,,,,,,,,,,,,,,,,,,,,,,,,,,,,,,,,,,,,,79.07453749408872,95.52945497163844,81.4526767968017,79.05267758831101,160.12849085323006,59.14886659740084,2.2,2.22,-183,251,0,-272,165,-263,190.18418502807617,190.18422627449036,190.1867368221283,190.19879269599915,190.34886479377747,190.34886479377747,190.34886479377747,190.34886479377747,190.34886479377747,190.34886479377747,190.34886479377747,191.43327236175537,3,1.2172744274139404,None,,,,,,,,,,,,,,,,,,208,3,2025-03-07_10h00.16.398,comp,2024.2.4,60.05117008253932,2025-03-07 10h00.23.988266 -0500,
122,122,0,filler_square,None,None,None,None,None,None,None,None,None,None,2,0.6713254451751709,None,,,,,0,0,0,0,0,122,122,172,191.44880390167236,,,,,,,,,,,,,,,,,,,,,,,,,,,,,,,,,,,,,,,,,,,,,,,,,,,,,,,,,,,,,,,,,,,,,,,,,,,,,,,,,130.87820247788375,79.52324662120536,140.50932293796984,140.50932293796984,114.57116997458094,115.60210217428882,4.0,4.1,-206,-275,0,-8,224,-253,191.43422150611877,191.43426299095154,191.4367995262146,191.44880390167236,191.59885048866272,191.59885048866272,191.59885048866272,191.59885048866272,191.59885048866272,191.59885048866272,191.59885048866272,192.13330078125,2,0.6713254451751709,None,,,,,,,,,,,,,,,,,,208,3,2025-03-07_10h00.16.398,comp,2024.2.4,60.05117008253932,2025-03-07 10h00.23.988266 -0500,
123,123,0,critical,dwh,20.0,2.1,lower,78.0,78.0,57.0,133.0,133.0,57.0,3,1.5715656280517578,None,,,,,0,0,0,0,0,123,123,30,192.1486475467682,,,,,,,,,,,,,,,,,,,,,,,,,,,,,,,,,,,,,,,,,,,,,,,,,,,,,,,,,,,,,,,,,,,,,,,,,,,,,,,,,78.0,78.0,57.0,133.0,133.0,57.0,2.1,2.11,-202,289,0,266,191,-284,192.13412952423096,192.13417267799377,192.1367256641388,192.1486475467682,192.29873538017273,192.29873538017273,192.29873538017273,192.29873538017273,192.29873538017273,192.29873538017273,192.29873538017273,193.73340964317322,3,1.5715656280517578,None,,,,,,,,,,,,,,,,,,208,3,2025-03-07_10h00.16.398,comp,2024.2.4,60.05117008253932,2025-03-07 10h00.23.988266 -0500,
124,124,0,filler_square,None,None,None,None,None,None,None,None,None,None,3,0.6354193687438965,None,,,,,0,0,0,0,0,124,124,187,193.74875593185425,,,,,,,,,,,,,,,,,,,,,,,,,,,,,,,,,,,,,,,,,,,,,,,,,,,,,,,,,,,,,,,,,,,,,,,,,,,,,,,,,155.95112435723223,105.10767506930551,64.6064542598566,152.14520141453858,158.57290499679647,158.57290499679647,1.0,1.2,-225,-19,0,-12,251,-14,193.73435759544373,193.73440170288086,193.7365174293518,193.74875593185425,193.8988709449768,193.8988709449768,193.8988709449768,193.8988709449768,193.8988709449768,193.8988709449768,193.8988709449768,194.40026450157166,3,0.6354193687438965,None,,,,,,,,,,,,,,,,,,208,3,2025-03-07_10h00.16.398,comp,2024.2.4,60.05117008253932,2025-03-07 10h00.23.988266 -0500,
125,125,0,filler_square,None,None,None,None,None,None,None,None,None,None,2,0.6668941974639893,None,,,,,0,0,0,0,0,125,125,180,194.4153769016266,,,,,,,,,,,,,,,,,,,,,,,,,,,,,,,,,,,,,,,,,,,,,,,,,,,,,,,,,,,,,,,,,,,,,,,,,,,,,,,,,82.09673719657579,87.10182396424766,110.46961248469546,110.46961248469546,100.95262141975243,74.39308661943868,3.0,3.1,-195,252,0,2,188,-284,194.4012098312378,194.40125346183777,194.40331959724426,194.4153769016266,194.56534051895142,194.56534051895142,194.56534051895142,194.56534051895142,194.56534051895142,194.56534051895142,194.56534051895142,195.0835428237915,2,0.6668941974639893,None,,,,,,,,,,,,,,,,,,208,3,2025-03-07_10h00.16.398,comp,2024.2.4,60.05117008253932,2025-03-07 10h00.23.988266 -0500,
126,126,0,critical,wdh,35.0,2.1,upper,125.0,200.0,127.0,127.0,200.0,125.0,1,1.669105052947998,None,,,,,0,0,0,0,0,126,126,9,195.09889841079712,,,,,,,,,,,,,,,,,,,,,,,,,,,,,,,,,,,,,,,,,,,,,,,,,,,,,,,,,,,,,,,,,,,,,,,,,,,,,,,,,125.0,200.0,127.0,127.0,200.0,125.0,2.1,2.12,-260,-282,0,-274,222,266,195.08429956436157,195.08434057235718,195.08684468269348,195.09889841079712,195.24893403053284,195.24893403053284,195.24893403053284,195.24893403053284,195.24893403053284,195.24893403053284,195.24893403053284,196.78341722488403,1,1.669105052947998,None,,,,,,,,,,,,,,,,,,208,3,2025-03-07_10h00.16.398,comp,2024.2.4,60.05117008253932,2025-03-07 10h00.23.988266 -0500,
127,127,0,filler_square,None,None,None,None,None,None,None,None,None,None,3,1.1314663887023926,None,,,,,0,0,0,0,0,127,127,181,196.79865264892578,,,,,,,,,,,,,,,,,,,,,,,,,,,,,,,,,,,,,,,,,,,,,,,,,,,,,,,,,,,,,,,,,,,,,,,,,,,,,,,,,133.0401121845982,133.0401121845982,66.13025953092354,101.01054475652481,132.12166197028006,130.65387637140378,2.1,2.12,-213,-267,0,-284,212,268,196.78438234329224,196.78442454338074,196.7865617275238,196.79865264892578,196.94886922836304,196.94886922836304,196.94886922836304,196.94886922836304,196.94886922836304,196.94886922836304,196.94886922836304,197.9334237575531,3,1.1314663887023926,None,,,,,,,,,,,,,,,,,,208,3,2025-03-07_10h00.16.398,comp,2024.2.4,60.05117008253932,2025-03-07 10h00.23.988266 -0500,
128,128,0,filler_square,None,None,None,None,None,None,None,None,None,None,2,0.9878408908843994,None,,,,,0,0,0,0,0,128,128,204,197.94893169403076,,,,,,,,,,,,,,,,,,,,,,,,,,,,,,,,,,,,,,,,,,,,,,,,,,,,,,,,,,,,,,,,,,,,,,,,,,,,,,,,,79.42893099268686,76.28735920229303,131.82536692351275,131.82536692351275,63.087596633937196,69.78437386848903,2.1,2.11,-200,255,0,287,197,-276,197.9343705177307,197.93441367149353,197.93655681610107,197.94893169403076,198.0988404750824,198.0988404750824,198.0988404750824,198.0988404750824,198.0988404750824,198.0988404750824,198.0988404750824,198.94984531402588,2,0.9878408908843994,None,,,,,,,,,,,,,,,,,,208,3,2025-03-07_10h00.16.398,comp,2024.2.4,60.05117008253932,2025-03-07 10h00.23.988266 -0500,
129,129,0,critical,hdw,20.0,2.1,upper,200.0,125.0,141.0,141.0,125.0,200.0,3,1.116849422454834,None,,,,,0,0,0,0,0,129,129,47,198.96550488471985,,,,,,,,,,,,,,,,,,,,,,,,,,,,,,,,,,,,,,,,,,,,,,,,,,,,,,,,,,,,,,,,,,,,,,,,,,,,,,,,,200.0,125.0,141.0,141.0,125.0,200.0,2.1,2.11,-229,277,0,279,266,-251,198.95076775550842,198.9508101940155,198.95331025123596,198.96550488471985,199.1156702041626,199.1156702041626,199.1156702041626,199.1156702041626,199.1156702041626,199.1156702041626,199.1156702041626,200.08373403549194,3,1.116849422454834,None,,,,,,,,,,,,,,,,,,208,3,2025-03-07_10h00.16.398,comp,2024.2.4,60.05117008253932,2025-03-07 10h00.23.988266 -0500,
130,130,0,critical,dhw,20.0,4.0,lower,78.0,78.0,133.0,57.0,57.0,133.0,3,1.4317653179168701,None,,,,,0,0,0,0,0,130,130,58,200.09895539283752,,,,,,,,,,,,,,,,,,,,,,,,,,,,,,,,,,,,,,,,,,,,,,,,,,,,,,,,,,,,,,,,,,,,,,,,,,,,,,,,,78.0,78.0,133.0,57.0,57.0,133.0,4.0,4.2,-164,12,0,-271,191,15,200.08452701568604,200.0845708847046,200.0868740081787,200.09895539283752,200.25012469291687,200.25012469291687,200.25012469291687,200.25012469291687,200.25012469291687,200.25012469291687,200.25012469291687,201.53344893455505,3,1.4317653179168701,None,,,,,,,,,,,,,,,,,,208,3,2025-03-07_10h00.16.398,comp,2024.2.4,60.05117008253932,2025-03-07 10h00.23.988266 -0500,
131,131,0,critical,dhw,20.0,4.0,upper,141.0,141.0,200.0,125.0,125.0,200.0,2,0.933250904083252,None,,,,,0,0,0,0,0,131,131,59,201.5491645336151,,,,,,,,,,,,,,,,,,,,,,,,,,,,,,,,,,,,,,,,,,,,,,,,,,,,,,,,,,,,,,,,,,,,,,,,,,,,,,,,,141.0,141.0,200.0,125.0,125.0,200.0,4.0,4.2,-229,15,0,-279,258,-9,201.53428745269775,201.53432822227478,201.5365149974823,201.5491645336151,201.69903135299683,201.69903135299683,201.69903135299683,201.69903135299683,201.69903135299683,201.69903135299683,201.69903135299683,202.50008964538574,2,0.933250904083252,None,,,,,,,,,,,,,,,,,,208,3,2025-03-07_10h00.16.398,comp,2024.2.4,60.05117008253932,2025-03-07 10h00.23.988266 -0500,
132,132,0,critical,hwd,35.0,4.0,lower,133.0,57.0,57.0,133.0,70.0,70.0,3,0.588519811630249,None,,,,,0,0,0,0,0,132,132,100,202.515380859375,,,,,,,,,,,,,,,,,,,,,,,,,,,,,,,,,,,,,,,,,,,,,,,,,,,,,,,,,,,,,,,,,,,,,,,,,,,,,,,,,133.0,57.0,57.0,133.0,70.0,70.0,4.0,4.1,-191,-286,0,-16,198,-260,202.50088381767273,202.50092458724976,202.50332498550415,202.515380859375,202.66541862487793,202.66541862487793,202.66541862487793,202.66541862487793,202.66541862487793,202.66541862487793,202.66541862487793,203.11661791801453,3,0.588519811630249,None,,,,,,,,,,,,,,,,,,208,3,2025-03-07_10h00.16.398,comp,2024.2.4,60.05117008253932,2025-03-07 10h00.23.988266 -0500,
133,133,0,filler_random,None,None,None,None,None,None,None,None,None,None,3,0.9828188419342041,None,,,,,0,0,0,0,0,133,133,138,203.13200521469116,,,,,,,,,,,,,,,,,,,,,,,,,,,,,,,,,,,,,,,,,,,,,,,,,,,,,,,,,,,,,,,,,,,,,,,,,,,,,,,,,156.0825186694725,128.50148205139652,183.38304534078986,169.50614655944565,187.1733486958778,189.4279955742628,4.0,4.1,-245,-284,0,18,275,-256,203.11752653121948,203.11756873130798,203.1198754310608,203.13200521469116,203.28234696388245,203.28234696388245,203.28234696388245,203.28234696388245,203.28234696388245,203.28234696388245,203.28234696388245,204.1168990135193,3,0.9828188419342041,None,,,,,,,,,,,,,,,,,,208,3,2025-03-07_10h00.16.398,comp,2024.2.4,60.05117008253932,2025-03-07 10h00.23.988266 -0500,
134,134,0,critical,hdw,20.0,2.1,lower,133.0,57.0,78.0,78.0,57.0,133.0,1,1.1661784648895264,None,,,,,0,0,0,0,0,134,134,22,204.13217663764954,,,,,,,,,,,,,,,,,,,,,,,,,,,,,,,,,,,,,,,,,,,,,,,,,,,,,,,,,,,,,,,,,,,,,,,,,,,,,,,,,133.0,57.0,78.0,78.0,57.0,133.0,2.1,2.11,-164,262,0,286,202,-265,204.1176872253418,204.11772799491882,204.11981105804443,204.13217663764954,204.2819492816925,204.2819492816925,204.2819492816925,204.2819492816925,204.2819492816925,204.2819492816925,204.2819492816925,205.300044298172,1,1.1661784648895264,None,,,,,,,,,,,,,,,,,,208,3,2025-03-07_10h00.16.398,comp,2024.2.4,60.05117008253932,2025-03-07 10h00.23.988266 -0500,
135,135,0,critical,dwh,35.0,3.0,lower,70.0,70.0,57.0,133.0,133.0,57.0,3,1.2934563159942627,None,,,,,0,0,0,0,0,135,135,62,205.31540703773499,,,,,,,,,,,,,,,,,,,,,,,,,,,,,,,,,,,,,,,,,,,,,,,,,,,,,,,,,,,,,,,,,,,,,,,,,,,,,,,,,70.0,70.0,57.0,133.0,133.0,57.0,3.0,3.1,-198,253,0,-8,191,-286,205.30082869529724,205.3008692264557,205.30325961112976,205.31540703773499,205.46555495262146,205.46555495262146,205.46555495262146,205.46555495262146,205.46555495262146,205.46555495262146,205.46555495262146,206.6163992881775,3,1.2934563159942627,None,,,,,,,,,,,,,,,,,,208,3,2025-03-07_10h00.16.398,comp,2024.2.4,60.05117008253932,2025-03-07 10h00.23.988266 -0500,
136,136,0,critical,hdw,35.0,2.1,upper,200.0,125.0,127.0,127.0,125.0,200.0,3,0.7677834033966064,None,,,,,0,0,0,0,0,136,136,45,206.63221168518066,,,,,,,,,,,,,,,,,,,,,,,,,,,,,,,,,,,,,,,,,,,,,,,,,,,,,,,,,,,,,,,,,,,,,,,,,,,,,,,,,200.0,125.0,127.0,127.0,125.0,200.0,2.1,2.11,-222,253,0,265,260,-250,206.6171863079071,206.61722707748413,206.6194829940796,206.63221168518066,206.78257298469543,206.78257298469543,206.78257298469543,206.78257298469543,206.78257298469543,206.78257298469543,206.78257298469543,207.4166178703308,3,0.7677834033966064,None,,,,,,,,,,,,,,,,,,208,3,2025-03-07_10h00.16.398,comp,2024.2.4,60.05117008253932,2025-03-07 10h00.23.988266 -0500,
137,137,0,filler_square,None,None,None,None,None,None,None,None,None,None,3,0.8413617610931396,None,,,,,0,0,0,0,0,137,137,176,207.4320068359375,,,,,,,,,,,,,,,,,,,,,,,,,,,,,,,,,,,,,,,,,,,,,,,,,,,,,,,,,,,,,,,,,,,,,,,,,,,,,,,,,104.22971054735245,75.99030885915964,114.72246543672267,151.18201525991634,167.64681952910286,167.64681952910286,1.0,1.3,270,-251,480,-277,735,-261,207.41757249832153,207.41761469841003,207.41967034339905,207.4320068359375,207.58220052719116,207.58220052719116,207.58220052719116,207.58220052719116,207.58220052719116,207.58220052719116,207.58220052719116,208.28336429595947,3,0.8413617610931396,None,,,,,,,,,,,,,,,,,,208,3,2025-03-07_10h00.16.398,comp,2024.2.4,60.05117008253932,2025-03-07 10h00.23.988266 -0500,
138,138,0,critical,dwh,20.0,3.0,lower,78.0,78.0,57.0,133.0,133.0,57.0,2,1.3258411884307861,None,,,,,0,0,0,0,0,138,138,68,208.29896473884583,,,,,,,,,,,,,,,,,,,,,,,,,,,,,,,,,,,,,,,,,,,,,,,,,,,,,,,,,,,,,,,,,,,,,,,,,,,,,,,,,78.0,78.0,57.0,133.0,133.0,57.0,3.0,3.1,-202,273,0,-16,191,-279,208.28412127494812,208.28415989875793,208.2861406803131,208.29896473884583,208.44877767562866,208.44877767562866,208.44877767562866,208.44877767562866,208.44877767562866,208.44877767562866,208.44877767562866,209.6332688331604,2,1.3258411884307861,None,,,,,,,,,,,,,,,,,,208,3,2025-03-07_10h00.16.398,comp,2024.2.4,60.05117008253932,2025-03-07 10h00.23.988266 -0500,
139,139,0,critical,dwh,35.0,2.1,upper,127.0,127.0,125.0,200.0,200.0,125.0,3,1.9119346141815186,None,,,,,0,0,0,0,0,139,139,29,209.64883303642273,,,,,,,,,,,,,,,,,,,,,,,,,,,,,,,,,,,,,,,,,,,,,,,,,,,,,,,,,,,,,,,,,,,,,,,,,,,,,,,,,127.0,127.0,125.0,200.0,200.0,125.0,2.1,2.11,-260,279,0,267,258,-276,209.63407111167908,209.6341152191162,209.63663339614868,209.64883303642273,209.79887795448303,209.79887795448303,209.79887795448303,209.79887795448303,209.79887795448303,209.79887795448303,209.79887795448303,211.56665110588074,3,1.9119346141815186,None,,,,,,,,,,,,,,,,,,208,3,2025-03-07_10h00.16.398,comp,2024.2.4,60.05117008253932,2025-03-07 10h00.23.988266 -0500,
140,140,0,filler_square,None,None,None,None,None,None,None,None,None,None,3,0.9858658313751221,None,,,,,0,0,0,0,0,140,140,191,211.58221530914307,,,,,,,,,,,,,,,,,,,,,,,,,,,,,,,,,,,,,,,,,,,,,,,,,,,,,,,,,,,,,,,,,,,,,,,,,,,,,,,,,177.01891649039226,163.10959960699833,171.08217700311098,76.4922495968205,188.90959420068663,188.90959420068663,4.0,4.1,-216,-273,0,19,229,-289,211.56761407852173,211.5676577091217,211.56992435455322,211.58221530914307,211.7321662902832,211.7321662902832,211.7321662902832,211.7321662902832,211.7321662902832,211.7321662902832,211.7321662902832,212.58348298072815,3,0.9858658313751221,None,,,,,,,,,,,,,,,,,,208,3,2025-03-07_10h00.16.398,comp,2024.2.4,60.05117008253932,2025-03-07 10h00.23.988266 -0500,
