thisN,thisTrialN,thisRepN,effect,order,distance,config,diag,h_1,w_1,h_2,w_2,h_3,w_3,rect_choice.keys,rect_choice.rt,rect_choice.duration,instructions_loop.thisRepN,instructions_loop.thisTrialN,instructions_loop.thisN,instructions_loop.thisIndex,blocks.thisRepN,blocks.thisTrialN,blocks.thisN,blocks.thisIndex,trials.thisRepN,trials.thisTrialN,trials.thisN,trials.thisIndex,thisRow.t,notes,consent.started,agree_button.started,decline_button.started,consent_img.started,mouse.started,consent.stopped,agree_button.numClicks,agree_button.timesOn,agree_button.timesOff,decline_button.numClicks,decline_button.timesOn,decline_button.timesOff,mouse.x,mouse.y,mouse.leftButton,mouse.midButton,mouse.rightButton,mouse.time,mouse.clicked_name,exp_params.started,exp_params.stopped,welcome.started,welcome_text.started,welcome.stopped,instructions_1.started,instructions_1_text_1.started,instructions_1_text_2.started,key_resp.started,instructions_1.stopped,instructions_loop.key_resp.keys,instructions_loop.key_resp.rt,instructions_loop.key_resp.duration,instructions_2.started,instructions_2_text_1.started,instructions_2_text_2.started,key_resp_2.started,instructions_2.stopped,instructions_loop.key_resp_2.keys,instructions_loop.key_resp_2.rt,instructions_loop.key_resp_2.duration,instructions_3.started,instructions_3_text_1.started,r1_instr3.started,r2_instr3.started,r3_instr3.started,r1_instr3_label.started,r2_instr3_label.started,r3_instr3_label.started,instructions_3_text_3.started,instructions_3_text_4.started,key_resp_3.started,instructions_3.stopped,instructions_loop.key_resp_3.keys,instructions_loop.key_resp_3.rt,instructions_loop.key_resp_3.duration,instructions_4.started,instructions_4_text_1.started,instructions_4_text_3.started,instructions_4_text_2.started,key_resp_4.started,instructions_4.stopped,instructions_loop.key_resp_4.keys,instructions_loop.key_resp_4.rt,instructions_loop.key_resp_4.duration,instructions_5.started,instructions_5_text_1.started,instructions_5_text_2.started,key_resp_5.started,instructions_5.stopped,instructions_loop.key_resp_5.keys,instructions_loop.key_resp_5.rt,instructions_loop.key_resp_5.duration,start_exp.started,start_exp_text.started,key_resp_6.started,start_exp.stopped,key_resp_6.keys,key_resp_6.rt,key_resp_6.duration,h_1_tmp,w_1_tmp,h_2_tmp,w_2_tmp,h_3_tmp,w_3_tmp,config_tmp,config_tmp_1,r_1_x,r_1_y,r_2_x,r_2_y,r_3_x,r_3_y,pre_trial.started,pre_trial.stopped,choice_trial.started,rect_choice.started,r_1.started,r_2.started,r_3.started,r_1_label.started,r_2_label.started,r_3_label.started,prompt.started,choice_trial.stopped,trials.rect_choice.keys,trials.rect_choice.rt,trials.rect_choice.duration,end_block.started,end_block_text.started,end_block.stopped,end.started,end_text.started,key_resp_7.started,end.stopped,key_resp_7.keys,key_resp_7.rt,key_resp_7.duration,debriefing.started,debrief_form.started,end_debrief.started,debriefing.stopped,end_debrief.keys,end_debrief.rt,end_debrief.duration,participant,computer,date,expName,psychopyVersion,frameRate,expStart,
,,,,,,,,,,,,,,,,,,,,,,,,,,,,,,,0.015027284622192383,0.038691043853759766,0.038691043853759766,0.038691043853759766,0.014811038970947266,7.123414993286133,1,[7.08254861831665],[7.082568645477295],0,,,[-43.0],[-508.0],[1],[0],[0],[7.107945680618286],['agree_button'],,,,,,,,,,,,,,,,,,,,,,,,,,,,,,,,,,,,,,,,,,,,,,,,,,,,,,,,,,,,,,,,,,,,,,,,,,,,,,,,,,,,,,,,,,,,,,,,,,,,,,,,,,,209,4,2025-03-07_10h02.28.101,comp,2024.2.4,None,2025-03-07 10h02.35.954914 -0500,
,,,,,,,,,,,,,,,,,,,,,,,,,,,,,,,,,,,,,,,,,,,,,,,,,,7.123907804489136,7.12396764755249,,,,,,,,,,,,,,,,,,,,,,,,,,,,,,,,,,,,,,,,,,,,,,,,,,,,,,,,,,,,,,,,,,,,,,,,,,,,,,,,,,,,,,,,,,,,,,,,,,,,,,,,,209,4,2025-03-07_10h02.28.101,comp,2024.2.4,None,2025-03-07 10h02.35.954914 -0500,
,,,,,,,,,,,,,,,,,,,,,,,,,,,,,,,,,,,,,,,,,,,,,,,,,,,,7.124006032943726,7.139237880706787,9.127027034759521,,,,,,,,,,,,,,,,,,,,,,,,,,,,,,,,,,,,,,,,,,,,,,,,,,,,,,,,,,,,,,,,,,,,,,,,,,,,,,,,,,,,,,,,,,,,,,,,,,,,,,209,4,2025-03-07_10h02.28.101,comp,2024.2.4,None,2025-03-07 10h02.35.954914 -0500,
0,0,0,,,,,,,,,,,,,,,0,0,0,0,,,,,,,,,9.151620388031006,,,,,,,,,,,,,,,,,,,,,,,,,,9.127944469451904,9.151620388031006,9.151620388031006,10.628051519393921,12.746707916259766,space,2.1129746437072754,None,12.7468581199646,12.762271404266357,12.762271404266357,14.258281230926514,20.113635540008545,space,5.850655555725098,None,20.11378836631775,20.142720222473145,20.142720222473145,20.142720222473145,20.142720222473145,20.142720222473145,20.142720222473145,20.142720222473145,20.142720222473145,20.142720222473145,21.622437715530396,24.987500190734863,space,3.3499574661254883,None,24.98768448829651,25.005292177200317,25.005292177200317,25.005292177200317,26.49888253211975,31.685834646224976,space,5.169739484786987,None,31.685985326766968,31.701500415802002,31.701500415802002,33.2096734046936,34.08596611022949,space,0.8674790859222412,None,34.08616042137146,34.101157426834106,34.101157426834106,35.73660349845886,space,1.6246135234832764,None,,,,,,,,,,,,,,,,,,,,,,,,,,,,,,,,,,,,,,,,,,,,,,,209,4,2025-03-07_10h02.28.101,comp,2024.2.4,None,2025-03-07 10h02.35.954914 -0500,
0,0,0,critical,wdh,35.0,1.0,lower,57.0,133.0,70.0,70.0,133.0,57.0,1,47.418140172958374,None,,,,,0,0,0,0,0,0,0,72,35.8110249042511,,,,,,,,,,,,,,,,,,,,,,,,,,,,,,,,,,,,,,,,,,,,,,,,,,,,,,,,,,,,,,,,,,,,,,,,,,,,,,,,,57.0,133.0,70.0,70.0,133.0,57.0,1.0,1.2,-198,-9,0,7,160,-1,35.795711278915405,35.795743465423584,35.79712176322937,35.8110249042511,35.96023488044739,35.96023488044739,35.96023488044739,35.96023488044739,35.96023488044739,35.96023488044739,35.96023488044739,83.2349021434784,1,47.418140172958374,None,,,,,,,,,,,,,,,,,,209,4,2025-03-07_10h02.28.101,comp,2024.2.4,None,2025-03-07 10h02.35.954914 -0500,
1,1,0,critical,hwd,20.0,3.0,lower,133.0,57.0,57.0,133.0,78.0,78.0,1,4.673279047012329,None,,,,,0,0,0,0,0,1,1,104,83.25113344192505,,,,,,,,,,,,,,,,,,,,,,,,,,,,,,,,,,,,,,,,,,,,,,,,,,,,,,,,,,,,,,,,,,,,,,,,,,,,,,,,,133.0,57.0,57.0,133.0,78.0,78.0,3.0,3.2,-191,-272,0,-20,202,266,83.23629212379456,83.23634386062622,83.23949027061462,83.25113344192505,83.41074752807617,83.41074752807617,83.41074752807617,83.41074752807617,83.41074752807617,83.41074752807617,83.41074752807617,87.93451189994812,1,4.673279047012329,None,,,,,,,,,,,,,,,,,,209,4,2025-03-07_10h02.28.101,comp,2024.2.4,None,2025-03-07 10h02.35.954914 -0500,
2,2,0,critical,dwh,20.0,3.0,upper,141.0,141.0,125.0,200.0,200.0,125.0,2,4.269599437713623,None,,,,,0,0,0,0,0,2,2,69,87.95111799240112,,,,,,,,,,,,,,,,,,,,,,,,,,,,,,,,,,,,,,,,,,,,,,,,,,,,,,,,,,,,,,,,,,,,,,,,,,,,,,,,,141.0,141.0,125.0,200.0,200.0,125.0,3.0,3.1,-266,287,0,9,258,-255,87.93601965904236,87.93609261512756,87.9392671585083,87.95111799240112,88.09140849113464,88.09140849113464,88.09140849113464,88.09140849113464,88.09140849113464,88.09140849113464,88.09140849113464,92.23480486869812,2,4.269599437713623,None,,,,,,,,,,,,,,,,,,209,4,2025-03-07_10h02.28.101,comp,2024.2.4,None,2025-03-07 10h02.35.954914 -0500,
3,3,0,critical,whd,35.0,2.1,lower,57.0,133.0,133.0,57.0,70.0,70.0,1,1.8413801193237305,None,,,,,0,0,0,0,0,3,3,36,92.25170826911926,,,,,,,,,,,,,,,,,,,,,,,,,,,,,,,,,,,,,,,,,,,,,,,,,,,,,,,,,,,,,,,,,,,,,,,,,,,,,,,,,57.0,133.0,133.0,57.0,70.0,70.0,2.1,2.12,-191,-257,0,-267,160,267,92.23644471168518,92.23658299446106,92.24011325836182,92.25170826911926,92.39205360412598,92.39205360412598,92.39205360412598,92.39205360412598,92.39205360412598,92.39205360412598,92.39205360412598,94.10541152954102,1,1.8413801193237305,None,,,,,,,,,,,,,,,,,,209,4,2025-03-07_10h02.28.101,comp,2024.2.4,None,2025-03-07 10h02.35.954914 -0500,
4,4,0,critical,whd,35.0,2.1,upper,125.0,200.0,200.0,125.0,127.0,127.0,2,6.931311130523682,None,,,,,0,0,0,0,0,4,4,13,94.12151265144348,,,,,,,,,,,,,,,,,,,,,,,,,,,,,,,,,,,,,,,,,,,,,,,,,,,,,,,,,,,,,,,,,,,,,,,,,,,,,,,,,125.0,200.0,200.0,125.0,127.0,127.0,2.1,2.11,-258,276,0,261,222,-276,94.10707783699036,94.10718965530396,94.11125159263611,94.12151265144348,94.27175807952881,94.27175807952881,94.27175807952881,94.27175807952881,94.27175807952881,94.27175807952881,94.27175807952881,101.05627417564392,2,6.931311130523682,None,,,,,,,,,,,,,,,,,,209,4,2025-03-07_10h02.28.101,comp,2024.2.4,None,2025-03-07 10h02.35.954914 -0500,
5,5,0,filler_random,None,None,None,None,None,None,None,None,None,None,3,5.052084445953369,None,,,,,0,0,0,0,0,5,5,131,101.07252383232117,,,,,,,,,,,,,,,,,,,,,,,,,,,,,,,,,,,,,,,,,,,,,,,,,,,,,,,,,,,,,,,,,,,,,,,,,,,,,,,,,179.8482198966842,73.73400922219454,140.61368649626544,155.1868486434798,166.93001052000005,152.08392669718202,3.0,3.2,-210,-280,0,3,250,259,101.05799198150635,101.0580689907074,101.06109285354614,101.07252383232117,101.22341084480286,101.22341084480286,101.22341084480286,101.22341084480286,101.22341084480286,101.22341084480286,101.22341084480286,106.1281623840332,3,5.052084445953369,None,,,,,,,,,,,,,,,,,,209,4,2025-03-07_10h02.28.101,comp,2024.2.4,None,2025-03-07 10h02.35.954914 -0500,
6,6,0,filler_square,None,None,None,None,None,None,None,None,None,None,1,1.987053394317627,None,,,,,0,0,0,0,0,6,6,209,106.147305727005,,,,,,,,,,,,,,,,,,,,,,,,,,,,,,,,,,,,,,,,,,,,,,,,,,,,,,,,,,,,,,,,,,,,,,,,,,,,,,,,,133.5412806351536,133.5412806351536,104.24773680404112,95.30254178697277,103.58437060676633,112.39703150442023,2.1,2.12,-210,-272,0,-276,200,251,106.13001704216003,106.13009572029114,106.13328957557678,106.147305727005,106.29250025749207,106.29250025749207,106.29250025749207,106.29250025749207,106.29250025749207,106.29250025749207,106.29250025749207,108.14562797546387,1,1.987053394317627,None,,,,,,,,,,,,,,,,,,209,4,2025-03-07_10h02.28.101,comp,2024.2.4,None,2025-03-07 10h02.35.954914 -0500,
7,7,0,critical,wdh,35.0,4.0,upper,125.0,200.0,127.0,127.0,200.0,125.0,1,6.043316602706909,None,,,,,0,0,0,0,0,7,7,77,108.16176843643188,,,,,,,,,,,,,,,,,,,,,,,,,,,,,,,,,,,,,,,,,,,,,,,,,,,,,,,,,,,,,,,,,,,,,,,,,,,,,,,,,125.0,200.0,127.0,127.0,200.0,125.0,4.0,4.2,-260,-15,0,-286,222,8,108.14723873138428,108.14734053611755,108.15093851089478,108.16176843643188,108.30952095985413,108.30952095985413,108.30952095985413,108.30952095985413,108.30952095985413,108.30952095985413,108.30952095985413,114.21092247962952,1,6.043316602706909,None,,,,,,,,,,,,,,,,,,209,4,2025-03-07_10h02.28.101,comp,2024.2.4,None,2025-03-07 10h02.35.954914 -0500,
8,8,0,critical,dwh,20.0,2.1,lower,78.0,78.0,57.0,133.0,133.0,57.0,3,5.630102872848511,None,,,,,0,0,0,0,0,8,8,6,114.2310106754303,,,,,,,,,,,,,,,,,,,,,,,,,,,,,,,,,,,,,,,,,,,,,,,,,,,,,,,,,,,,,,,,,,,,,,,,,,,,,,,,,78.0,78.0,57.0,133.0,133.0,57.0,2.1,2.12,-202,-285,0,-271,191,287,114.2123966217041,114.21247005462646,114.21548581123352,114.2310106754303,114.37584829330444,114.37584829330444,114.37584829330444,114.37584829330444,114.37584829330444,114.37584829330444,114.37584829330444,119.8788709640503,3,5.630102872848511,None,,,,,,,,,,,,,,,,,,209,4,2025-03-07_10h02.28.101,comp,2024.2.4,None,2025-03-07 10h02.35.954914 -0500,
9,9,0,critical,hdw,35.0,1.0,lower,133.0,57.0,70.0,70.0,57.0,133.0,1,1.462430715560913,None,,,,,0,0,0,0,0,9,9,108,119.89481043815613,,,,,,,,,,,,,,,,,,,,,,,,,,,,,,,,,,,,,,,,,,,,,,,,,,,,,,,,,,,,,,,,,,,,,,,,,,,,,,,,,133.0,57.0,70.0,70.0,57.0,133.0,1.0,1.2,-160,11,0,5,198,-11,119.88033866882324,119.88041377067566,119.8837456703186,119.89481043815613,120.04277396202087,120.04277396202087,120.04277396202087,120.04277396202087,120.04277396202087,120.04277396202087,120.04277396202087,121.36326384544373,1,1.462430715560913,None,,,,,,,,,,,,,,,,,,209,4,2025-03-07_10h02.28.101,comp,2024.2.4,None,2025-03-07 10h02.35.954914 -0500,
10,10,0,critical,hwd,35.0,2.1,lower,133.0,57.0,57.0,133.0,70.0,70.0,2,1.3457615375518799,None,,,,,0,0,0,0,0,10,10,40,121.37926077842712,,,,,,,,,,,,,,,,,,,,,,,,,,,,,,,,,,,,,,,,,,,,,,,,,,,,,,,,,,,,,,,,,,,,,,,,,,,,,,,,,133.0,57.0,57.0,133.0,70.0,70.0,2.1,2.12,-191,-258,0,-275,198,278,121.36482071876526,121.36489820480347,121.368567943573,121.37926077842712,121.53663659095764,121.53663659095764,121.53663659095764,121.53663659095764,121.53663659095764,121.53663659095764,121.53663659095764,122.73264956474304,2,1.3457615375518799,None,,,,,,,,,,,,,,,,,,209,4,2025-03-07_10h02.28.101,comp,2024.2.4,None,2025-03-07 10h02.35.954914 -0500,
11,11,0,critical,hwd,35.0,4.0,lower,133.0,57.0,57.0,133.0,70.0,70.0,1,1.0447871685028076,None,,,,,0,0,0,0,0,11,11,100,122.7522304058075,,,,,,,,,,,,,,,,,,,,,,,,,,,,,,,,,,,,,,,,,,,,,,,,,,,,,,,,,,,,,,,,,,,,,,,,,,,,,,,,,133.0,57.0,57.0,133.0,70.0,70.0,4.0,4.1,-191,-258,0,0,198,-274,122.73434090614319,122.73441767692566,122.73802614212036,122.7522304058075,122.89908266067505,122.89908266067505,122.89908266067505,122.89908266067505,122.89908266067505,122.89908266067505,122.89908266067505,123.81582760810852,1,1.0447871685028076,None,,,,,,,,,,,,,,,,,,209,4,2025-03-07_10h02.28.101,comp,2024.2.4,None,2025-03-07 10h02.35.954914 -0500,
12,12,0,filler_random,None,None,None,None,None,None,None,None,None,None,2,1.4932153224945068,None,,,,,0,0,0,0,0,12,12,152,123.83127689361572,,,,,,,,,,,,,,,,,,,,,,,,,,,,,,,,,,,,,,,,,,,,,,,,,,,,,,,,,,,,,,,,,,,,,,,,,,,,,,,,,103.40214239431864,116.278148902192,154.71395003471582,103.4288464334656,162.55439629120434,67.72941947909595,3.0,3.1,-206,269,0,15,182,-273,123.81761646270752,123.81769180297852,123.82102942466736,123.83127689361572,123.97884917259216,123.97884917259216,123.97884917259216,123.97884917259216,123.97884917259216,123.97884917259216,123.97884917259216,125.33822178840637,2,1.4932153224945068,None,,,,,,,,,,,,,,,,,,209,4,2025-03-07_10h02.28.101,comp,2024.2.4,None,2025-03-07 10h02.35.954914 -0500,
13,13,0,filler_square,None,None,None,None,None,None,None,None,None,None,3,2.390357494354248,None,,,,,0,0,0,0,0,13,13,177,125.35817122459412,,,,,,,,,,,,,,,,,,,,,,,,,,,,,,,,,,,,,,,,,,,,,,,,,,,,,,,,,,,,,,,,,,,,,,,,,,,,,,,,,152.50168185033044,165.5242576109234,131.10449782732644,73.7548056872161,186.35750631957174,186.35750631957174,2.2,2.22,-216,258,0,-257,226,-277,125.34008646011353,125.34016489982605,125.34324216842651,125.35817122459412,125.49885630607605,125.49885630607605,125.49885630607605,125.49885630607605,125.49885630607605,125.49885630607605,125.49885630607605,127.76612758636475,3,2.390357494354248,None,,,,,,,,,,,,,,,,,,209,4,2025-03-07_10h02.28.101,comp,2024.2.4,None,2025-03-07 10h02.35.954914 -0500,
14,14,0,filler_random,None,None,None,None,None,None,None,None,None,None,3,5.174285888671875,None,,,,,0,0,0,0,0,14,14,153,127.78227066993713,,,,,,,,,,,,,,,,,,,,,,,,,,,,,,,,,,,,,,,,,,,,,,,,,,,,,,,,,,,,,,,,,,,,,,,,,,,,,,,,,84.81643878534884,134.4337777825578,83.12550320154585,99.6448708778231,162.76110303320132,165.03052242260492,2.1,2.12,-213,-271,0,-283,228,251,127.76779365539551,127.76786851882935,127.77199721336365,127.78227066993713,127.93443083763123,127.93443083763123,127.93443083763123,127.93443083763123,127.93443083763123,127.93443083763123,127.93443083763123,132.96745252609253,3,5.174285888671875,None,,,,,,,,,,,,,,,,,,209,4,2025-03-07_10h02.28.101,comp,2024.2.4,None,2025-03-07 10h02.35.954914 -0500,
15,15,0,critical,dwh,35.0,4.0,lower,70.0,70.0,57.0,133.0,133.0,57.0,2,5.146611452102661,None,,,,,0,0,0,0,0,15,15,64,132.98602485656738,,,,,,,,,,,,,,,,,,,,,,,,,,,,,,,,,,,,,,,,,,,,,,,,,,,,,,,,,,,,,,,,,,,,,,,,,,,,,,,,,70.0,70.0,57.0,133.0,133.0,57.0,4.0,4.1,-198,-286,0,18,191,-289,132.9689531326294,132.96902871131897,132.9729986190796,132.98602485656738,133.13380336761475,133.13380336761475,133.13380336761475,133.13380336761475,133.13380336761475,133.13380336761475,133.13380336761475,138.13773441314697,2,5.146611452102661,None,,,,,,,,,,,,,,,,,,209,4,2025-03-07_10h02.28.101,comp,2024.2.4,None,2025-03-07 10h02.35.954914 -0500,
16,16,0,catch,None,None,None,None,None,None,None,None,None,None,2,1.3779711723327637,None,,,,,0,0,0,0,0,16,16,127,138.1545934677124,,,,,,,,,,,,,,,,,,,,,,,,,,,,,,,,,,,,,,,,,,,,,,,,,,,,,,,,,,,,,,,,,,,,,,,,,,,,,,,,,96,94,190,135,72,118,2.2,2.22,-210,279,0,-252,222,-275,138.13994026184082,138.14001941680908,138.14376378059387,138.1545934677124,138.3029499053955,138.3029499053955,138.3029499053955,138.3029499053955,138.3029499053955,138.3029499053955,138.3029499053955,139.54168891906738,2,1.3779711723327637,None,,,,,,,,,,,,,,,,,,209,4,2025-03-07_10h02.28.101,comp,2024.2.4,None,2025-03-07 10h02.35.954914 -0500,
17,17,0,filler_random,None,None,None,None,None,None,None,None,None,None,1,8.64037036895752,None,,,,,0,0,0,0,0,17,17,144,139.55612635612488,,,,,,,,,,,,,,,,,,,,,,,,,,,,,,,,,,,,,,,,,,,,,,,,,,,,,,,,,,,,,,,,,,,,,,,,,,,,,,,,,170.21612068815955,188.26282342463603,184.0166534372837,168.59055074438533,107.16625678060683,60.441000360460734,1.0,1.2,-274,-5,0,13,211,13,139.54334211349487,139.5434172153473,139.5464632511139,139.55612635612488,139.69917511940002,139.69917511940002,139.69917511940002,139.69917511940002,139.69917511940002,139.69917511940002,139.69917511940002,148.20930171012878,1,8.64037036895752,None,,,,,,,,,,,,,,,,,,209,4,2025-03-07_10h02.28.101,comp,2024.2.4,None,2025-03-07 10h02.35.954914 -0500,
18,18,0,critical,dhw,20.0,4.0,lower,78.0,78.0,133.0,57.0,57.0,133.0,3,4.566262722015381,None,,,,,0,0,0,0,0,18,18,58,148.23029136657715,,,,,,,,,,,,,,,,,,,,,,,,,,,,,,,,,,,,,,,,,,,,,,,,,,,,,,,,,,,,,,,,,,,,,,,,,,,,,,,,,78.0,78.0,133.0,57.0,57.0,133.0,4.0,4.2,-164,-7,0,-274,191,12,148.21103429794312,148.21112775802612,148.21460103988647,148.23029136657715,148.37621235847473,148.37621235847473,148.37621235847473,148.37621235847473,148.37621235847473,148.37621235847473,148.37621235847473,152.81316304206848,3,4.566262722015381,None,,,,,,,,,,,,,,,,,,209,4,2025-03-07_10h02.28.101,comp,2024.2.4,None,2025-03-07 10h02.35.954914 -0500,
19,19,0,filler_random,None,None,None,None,None,None,None,None,None,None,2,1.9924864768981934,None,,,,,0,0,0,0,0,19,19,146,152.82838916778564,,,,,,,,,,,,,,,,,,,,,,,,,,,,,,,,,,,,,,,,,,,,,,,,,,,,,,,,,,,,,,,,,,,,,,,,,,,,,,,,,67.52452835535195,161.7929287018069,137.9036218644056,158.3139722759878,87.69538449924838,92.24406608999138,1.0,1.1,-736,268,-480,276,-259,266,152.81490874290466,152.8149857521057,152.81807470321655,152.82838916778564,152.98326921463013,152.98326921463013,152.98326921463013,152.98326921463013,152.98326921463013,152.98326921463013,152.98326921463013,154.8230104446411,2,1.9924864768981934,None,,,,,,,,,,,,,,,,,,209,4,2025-03-07_10h02.28.101,comp,2024.2.4,None,2025-03-07 10h02.35.954914 -0500,
20,20,0,filler_random,None,None,None,None,None,None,None,None,None,None,1,3.7460412979125977,None,,,,,0,0,0,0,0,20,20,161,154.84314274787903,,,,,,,,,,,,,,,,,,,,,,,,,,,,,,,,,,,,,,,,,,,,,,,,,,,,,,,,,,,,,,,,,,,,,,,,,,,,,,,,,152.34186205374584,134.00898408029144,146.0581871902322,117.14981940789998,136.74925818433485,96.31891419942811,1.0,1.3,258,-279,480,-258,683,-271,154.82495188713074,154.82503080368042,154.8284957408905,154.84314274787903,154.97812676429749,154.97812676429749,154.97812676429749,154.97812676429749,154.97812676429749,154.97812676429749,154.97812676429749,158.59609079360962,1,3.7460412979125977,None,,,,,,,,,,,,,,,,,,209,4,2025-03-07_10h02.28.101,comp,2024.2.4,None,2025-03-07 10h02.35.954914 -0500,
21,21,0,critical,dwh,35.0,2.1,upper,127.0,127.0,125.0,200.0,200.0,125.0,2,2.894803524017334,None,,,,,0,0,0,0,0,21,21,29,158.61375904083252,,,,,,,,,,,,,,,,,,,,,,,,,,,,,,,,,,,,,,,,,,,,,,,,,,,,,,,,,,,,,,,,,,,,,,,,,,,,,,,,,127.0,127.0,125.0,200.0,200.0,125.0,2.1,2.12,-260,-281,0,-257,258,281,158.597638130188,158.59771347045898,158.60076236724854,158.61375904083252,158.75903701782227,158.75903701782227,158.75903701782227,158.75903701782227,158.75903701782227,158.75903701782227,158.75903701782227,161.5290400981903,2,2.894803524017334,None,,,,,,,,,,,,,,,,,,209,4,2025-03-07_10h02.28.101,comp,2024.2.4,None,2025-03-07 10h02.35.954914 -0500,
22,22,0,filler_random,None,None,None,None,None,None,None,None,None,None,3,2.1379895210266113,None,,,,,0,0,0,0,0,22,22,165,161.54787516593933,,,,,,,,,,,,,,,,,,,,,,,,,,,,,,,,,,,,,,,,,,,,,,,,,,,,,,,,,,,,,,,,,,,,,,,,,,,,,,,,,147.17937815209234,178.04591351857948,165.7954038448005,140.45707285288097,137.40233370166771,192.73644605282647,4.0,4.2,-255,-5,0,-264,263,0,161.53113436698914,161.53122735023499,161.53486728668213,161.54787516593933,161.6927194595337,161.6927194595337,161.6927194595337,161.6927194595337,161.6927194595337,161.6927194595337,161.6927194595337,163.69235801696777,3,2.1379895210266113,None,,,,,,,,,,,,,,,,,,209,4,2025-03-07_10h02.28.101,comp,2024.2.4,None,2025-03-07 10h02.35.954914 -0500,
23,23,0,critical,wdh,20.0,2.1,upper,125.0,200.0,141.0,141.0,200.0,125.0,1,1.1751844882965088,None,,,,,0,0,0,0,0,23,23,35,163.70938539505005,,,,,,,,,,,,,,,,,,,,,,,,,,,,,,,,,,,,,,,,,,,,,,,,,,,,,,,,,,,,,,,,,,,,,,,,,,,,,,,,,125.0,200.0,141.0,141.0,200.0,125.0,2.1,2.12,-266,-287,0,-274,229,290,163.69400453567505,163.69407963752747,163.69777822494507,163.70938539505005,163.86029434204102,163.86029434204102,163.86029434204102,163.86029434204102,163.86029434204102,163.86029434204102,163.86029434204102,164.9001111984253,1,1.1751844882965088,None,,,,,,,,,,,,,,,,,,209,4,2025-03-07_10h02.28.101,comp,2024.2.4,None,2025-03-07 10h02.35.954914 -0500,
24,24,0,critical,dwh,35.0,2.1,lower,70.0,70.0,57.0,133.0,133.0,57.0,3,3.2495932579040527,None,,,,,0,0,0,0,0,24,24,28,164.91512298583984,,,,,,,,,,,,,,,,,,,,,,,,,,,,,,,,,,,,,,,,,,,,,,,,,,,,,,,,,,,,,,,,,,,,,,,,,,,,,,,,,70.0,70.0,57.0,133.0,133.0,57.0,2.1,2.12,-198,-265,0,-273,191,268,164.90169978141785,164.9017779827118,164.90486645698547,164.91512298583984,165.05924725532532,165.05924725532532,165.05924725532532,165.05924725532532,165.05924725532532,165.05924725532532,165.05924725532532,168.17800903320312,3,3.2495932579040527,None,,,,,,,,,,,,,,,,,,209,4,2025-03-07_10h02.28.101,comp,2024.2.4,None,2025-03-07 10h02.35.954914 -0500,
25,25,0,filler_square,None,None,None,None,None,None,None,None,None,None,2,2.434694290161133,None,,,,,0,0,0,0,0,25,25,171,168.19384145736694,,,,,,,,,,,,,,,,,,,,,,,,,,,,,,,,,,,,,,,,,,,,,,,,,,,,,,,,,,,,,,,,,,,,,,,,,,,,,,,,,101.09534803920911,104.11282222405507,191.19002983208082,191.19002983208082,101.210367065674,158.31266134351256,3.0,3.2,-244,-264,0,-13,271,250,168.1798059940338,168.17988419532776,168.18359375,168.19384145736694,168.34484386444092,168.34484386444092,168.34484386444092,168.34484386444092,168.34484386444092,168.34484386444092,168.34484386444092,170.64457035064697,2,2.434694290161133,None,,,,,,,,,,,,,,,,,,209,4,2025-03-07_10h02.28.101,comp,2024.2.4,None,2025-03-07 10h02.35.954914 -0500,
26,26,0,critical,dwh,20.0,4.0,lower,78.0,78.0,57.0,133.0,133.0,57.0,2,1.7287461757659912,None,,,,,0,0,0,0,0,26,26,70,170.6606249809265,,,,,,,,,,,,,,,,,,,,,,,,,,,,,,,,,,,,,,,,,,,,,,,,,,,,,,,,,,,,,,,,,,,,,,,,,,,,,,,,,78.0,78.0,57.0,133.0,133.0,57.0,4.0,4.1,-202,-287,0,2,191,-251,170.64609384536743,170.64616751670837,170.64931964874268,170.6606249809265,170.8214008808136,170.8214008808136,170.8214008808136,170.8214008808136,170.8214008808136,170.8214008808136,170.8214008808136,172.39638447761536,2,1.7287461757659912,None,,,,,,,,,,,,,,,,,,209,4,2025-03-07_10h02.28.101,comp,2024.2.4,None,2025-03-07 10h02.35.954914 -0500,
27,27,0,critical,dhw,35.0,2.1,lower,70.0,70.0,133.0,57.0,57.0,133.0,2,1.3031654357910156,None,,,,,0,0,0,0,0,27,27,0,172.4137523174286,,,,,,,,,,,,,,,,,,,,,,,,,,,,,,,,,,,,,,,,,,,,,,,,,,,,,,,,,,,,,,,,,,,,,,,,,,,,,,,,,70.0,70.0,133.0,57.0,57.0,133.0,2.1,2.11,-160,267,0,267,191,-263,172.39792156219482,172.3979983329773,172.40213680267334,172.4137523174286,172.56829738616943,172.56829738616943,172.56829738616943,172.56829738616943,172.56829738616943,172.56829738616943,172.56829738616943,173.7194426059723,2,1.3031654357910156,None,,,,,,,,,,,,,,,,,,209,4,2025-03-07_10h02.28.101,comp,2024.2.4,None,2025-03-07 10h02.35.954914 -0500,
28,28,0,critical,dwh,20.0,2.1,upper,141.0,141.0,125.0,200.0,200.0,125.0,2,2.4570493698120117,None,,,,,0,0,0,0,0,28,28,7,173.73495769500732,,,,,,,,,,,,,,,,,,,,,,,,,,,,,,,,,,,,,,,,,,,,,,,,,,,,,,,,,,,,,,,,,,,,,,,,,,,,,,,,,141.0,141.0,125.0,200.0,200.0,125.0,2.1,2.11,-266,290,0,281,258,-283,173.7210237979889,173.72110223770142,173.72417402267456,173.73495769500732,173.8781816959381,173.8781816959381,173.8781816959381,173.8781816959381,173.8781816959381,173.8781816959381,173.8781816959381,176.19542479515076,2,2.4570493698120117,None,,,,,,,,,,,,,,,,,,209,4,2025-03-07_10h02.28.101,comp,2024.2.4,None,2025-03-07 10h02.35.954914 -0500,
29,29,0,critical,hdw,35.0,4.0,lower,133.0,57.0,70.0,70.0,57.0,133.0,1,2.217444658279419,None,,,,,0,0,0,0,0,29,29,112,176.21184134483337,,,,,,,,,,,,,,,,,,,,,,,,,,,,,,,,,,,,,,,,,,,,,,,,,,,,,,,,,,,,,,,,,,,,,,,,,,,,,,,,,133.0,57.0,70.0,70.0,57.0,133.0,4.0,4.2,-160,-19,0,-284,198,1,176.19706010818481,176.19714045524597,176.20065474510193,176.21184134483337,176.35159015655518,176.35159015655518,176.35159015655518,176.35159015655518,176.35159015655518,176.35159015655518,176.35159015655518,178.43414759635925,1,2.217444658279419,None,,,,,,,,,,,,,,,,,,209,4,2025-03-07_10h02.28.101,comp,2024.2.4,None,2025-03-07 10h02.35.954914 -0500,
30,30,0,critical,dhw,20.0,4.0,upper,141.0,141.0,200.0,125.0,125.0,200.0,3,1.681431770324707,None,,,,,0,0,0,0,0,30,30,59,178.4512162208557,,,,,,,,,,,,,,,,,,,,,,,,,,,,,,,,,,,,,,,,,,,,,,,,,,,,,,,,,,,,,,,,,,,,,,,,,,,,,,,,,141.0,141.0,200.0,125.0,125.0,200.0,4.0,4.2,-229,-4,0,-267,258,-19,178.43588066101074,178.43601083755493,178.4395775794983,178.4512162208557,178.59641528129578,178.59641528129578,178.59641528129578,178.59641528129578,178.59641528129578,178.59641528129578,178.59641528129578,180.1516716480255,3,1.681431770324707,None,,,,,,,,,,,,,,,,,,209,4,2025-03-07_10h02.28.101,comp,2024.2.4,None,2025-03-07 10h02.35.954914 -0500,
31,31,0,filler_random,None,None,None,None,None,None,None,None,None,None,1,1.5603299140930176,None,,,,,0,0,0,0,0,31,31,138,180.17240166664124,,,,,,,,,,,,,,,,,,,,,,,,,,,,,,,,,,,,,,,,,,,,,,,,,,,,,,,,,,,,,,,,,,,,,,,,,,,,,,,,,196.65404173745958,140.74896910959063,58.62823398871447,119.55750778316556,175.4068896582765,120.74928022882625,1.0,1.2,-226,-10,0,9,216,-11,180.15370512008667,180.15383791923523,180.1571843624115,180.17240166664124,180.3181393146515,180.3181393146515,180.3181393146515,180.3181393146515,180.3181393146515,180.3181393146515,180.3181393146515,181.7347388267517,1,1.5603299140930176,None,,,,,,,,,,,,,,,,,,209,4,2025-03-07_10h02.28.101,comp,2024.2.4,None,2025-03-07 10h02.35.954914 -0500,
32,32,0,critical,wdh,35.0,3.0,upper,125.0,200.0,127.0,127.0,200.0,125.0,1,1.9741895198822021,None,,,,,0,0,0,0,0,32,32,75,181.7511806488037,,,,,,,,,,,,,,,,,,,,,,,,,,,,,,,,,,,,,,,,,,,,,,,,,,,,,,,,,,,,,,,,,,,,,,,,,,,,,,,,,125.0,200.0,127.0,127.0,200.0,125.0,3.0,3.1,-260,276,0,-15,222,-284,181.736332654953,181.73640990257263,181.7402741909027,181.7511806488037,181.9045536518097,181.9045536518097,181.9045536518097,181.9045536518097,181.9045536518097,181.9045536518097,181.9045536518097,183.73203825950623,1,1.9741895198822021,None,,,,,,,,,,,,,,,,,,209,4,2025-03-07_10h02.28.101,comp,2024.2.4,None,2025-03-07 10h02.35.954914 -0500,
33,33,0,critical,hdw,35.0,2.1,lower,133.0,57.0,70.0,70.0,57.0,133.0,1,1.5888330936431885,None,,,,,0,0,0,0,0,33,33,20,183.75179862976074,,,,,,,,,,,,,,,,,,,,,,,,,,,,,,,,,,,,,,,,,,,,,,,,,,,,,,,,,,,,,,,,,,,,,,,,,,,,,,,,,133.0,57.0,70.0,70.0,57.0,133.0,2.1,2.12,-160,-284,0,-268,198,267,183.7335958480835,183.73367142677307,183.73676204681396,183.75179862976074,183.8996603488922,183.8996603488922,183.8996603488922,183.8996603488922,183.8996603488922,183.8996603488922,183.8996603488922,185.3609642982483,1,1.5888330936431885,None,,,,,,,,,,,,,,,,,,209,4,2025-03-07_10h02.28.101,comp,2024.2.4,None,2025-03-07 10h02.35.954914 -0500,
34,34,0,critical,dhw,35.0,2.1,upper,127.0,127.0,200.0,125.0,125.0,200.0,3,2.4154906272888184,None,,,,,0,0,0,0,0,34,34,25,185.381765127182,,,,,,,,,,,,,,,,,,,,,,,,,,,,,,,,,,,,,,,,,,,,,,,,,,,,,,,,,,,,,,,,,,,,,,,,,,,,,,,,,127.0,127.0,200.0,125.0,125.0,200.0,2.1,2.12,-222,-251,0,-266,258,251,185.3626492023468,185.36272287368774,185.36618971824646,185.381765127182,185.51761603355408,185.51761603355408,185.51761603355408,185.51761603355408,185.51761603355408,185.51761603355408,185.51761603355408,187.80528497695923,3,2.4154906272888184,None,,,,,,,,,,,,,,,,,,209,4,2025-03-07_10h02.28.101,comp,2024.2.4,None,2025-03-07 10h02.35.954914 -0500,
35,35,0,filler_square,None,None,None,None,None,None,None,None,None,None,1,1.5983564853668213,None,,,,,0,0,0,0,0,35,35,186,187.8223261833191,,,,,,,,,,,,,,,,,,,,,,,,,,,,,,,,,,,,,,,,,,,,,,,,,,,,,,,,,,,,,,,,,,,,,,,,,,,,,,,,,186.74747799813667,186.74747799813667,168.45187603150367,87.13318327230735,123.93617526263895,62.720342093755164,2.1,2.11,-233,262,0,261,171,-255,187.80734634399414,187.80742621421814,187.8112404346466,187.8223261833191,187.97122168540955,187.97122168540955,187.97122168540955,187.97122168540955,187.97122168540955,187.97122168540955,187.97122168540955,189.4366796016693,1,1.5983564853668213,None,,,,,,,,,,,,,,,,,,209,4,2025-03-07_10h02.28.101,comp,2024.2.4,None,2025-03-07 10h02.35.954914 -0500,
36,36,0,critical,dhw,35.0,2.1,lower,70.0,70.0,133.0,57.0,57.0,133.0,3,1.4158093929290771,None,,,,,0,0,0,0,0,36,36,24,189.45284605026245,,,,,,,,,,,,,,,,,,,,,,,,,,,,,,,,,,,,,,,,,,,,,,,,,,,,,,,,,,,,,,,,,,,,,,,,,,,,,,,,,70.0,70.0,133.0,57.0,57.0,133.0,2.1,2.12,-160,-254,0,-258,191,259,189.4384241104126,189.4385027885437,189.44251656532288,189.45284605026245,189.60135006904602,189.60135006904602,189.60135006904602,189.60135006904602,189.60135006904602,189.60135006904602,189.60135006904602,190.88502311706543,3,1.4158093929290771,None,,,,,,,,,,,,,,,,,,209,4,2025-03-07_10h02.28.101,comp,2024.2.4,None,2025-03-07 10h02.35.954914 -0500,
37,37,0,catch,None,None,None,None,None,None,None,None,None,None,2,1.2977561950683594,None,,,,,0,0,0,0,0,37,37,120,190.89944219589233,,,,,,,,,,,,,,,,,,,,,,,,,,,,,,,,,,,,,,,,,,,,,,,,,,,,,,,,,,,,,,,,,,,,,,,,,,,,,,,,,107,83,180,145,132,58,3.0,3.1,-210,273,0,-9,198,-289,190.88692021369934,190.88699555397034,190.89054560661316,190.89944219589233,191.05535984039307,191.05535984039307,191.05535984039307,191.05535984039307,191.05535984039307,191.05535984039307,191.05535984039307,192.20304894447327,2,1.2977561950683594,None,,,,,,,,,,,,,,,,,,209,4,2025-03-07_10h02.28.101,comp,2024.2.4,None,2025-03-07 10h02.35.954914 -0500,
38,38,0,critical,whd,20.0,2.1,lower,57.0,133.0,133.0,57.0,78.0,78.0,1,1.6822779178619385,None,,,,,0,0,0,0,0,38,38,14,192.21906447410583,,,,,,,,,,,,,,,,,,,,,,,,,,,,,,,,,,,,,,,,,,,,,,,,,,,,,,,,,,,,,,,,,,,,,,,,,,,,,,,,,57.0,133.0,133.0,57.0,78.0,78.0,2.1,2.11,-191,283,0,267,164,-266,192.20461130142212,192.2047107219696,192.20828700065613,192.21906447410583,192.37179923057556,192.37179923057556,192.37179923057556,192.37179923057556,192.37179923057556,192.37179923057556,192.37179923057556,193.90501880645752,1,1.6822779178619385,None,,,,,,,,,,,,,,,,,,209,4,2025-03-07_10h02.28.101,comp,2024.2.4,None,2025-03-07 10h02.35.954914 -0500,
39,39,0,filler_random,None,None,None,None,None,None,None,None,None,None,2,2.6268789768218994,None,,,,,0,0,0,0,0,39,39,160,193.9222617149353,,,,,,,,,,,,,,,,,,,,,,,,,,,,,,,,,,,,,,,,,,,,,,,,,,,,,,,,,,,,,,,,,,,,,,,,,,,,,,,,,92.78593714949714,83.44829566697797,190.58923002947677,71.44570564879342,99.30551722129658,108.04206155096931,4.0,4.2,-173,11,0,-280,186,14,193.90690732002258,193.90698647499084,193.91048097610474,193.9222617149353,194.07007384300232,194.07007384300232,194.07007384300232,194.07007384300232,194.07007384300232,194.07007384300232,194.07007384300232,196.55181789398193,2,2.6268789768218994,None,,,,,,,,,,,,,,,,,,209,4,2025-03-07_10h02.28.101,comp,2024.2.4,None,2025-03-07 10h02.35.954914 -0500,
40,40,0,critical,hdw,35.0,3.0,lower,133.0,57.0,70.0,70.0,57.0,133.0,3,4.980299711227417,None,,,,,0,0,0,0,0,40,40,110,196.5688555240631,,,,,,,,,,,,,,,,,,,,,,,,,,,,,,,,,,,,,,,,,,,,,,,,,,,,,,,,,,,,,,,,,,,,,,,,,,,,,,,,,133.0,57.0,70.0,70.0,57.0,133.0,3.0,3.1,-160,279,0,-3,198,-289,196.55337142944336,196.55344676971436,196.55722045898438,196.5688555240631,196.72022461891174,196.72022461891174,196.72022461891174,196.72022461891174,196.72022461891174,196.72022461891174,196.72022461891174,201.5550720691681,3,4.980299711227417,None,,,,,,,,,,,,,,,,,,209,4,2025-03-07_10h02.28.101,comp,2024.2.4,None,2025-03-07 10h02.35.954914 -0500,
41,41,0,critical,whd,35.0,1.0,upper,125.0,200.0,200.0,125.0,127.0,127.0,1,3.601400375366211,None,,,,,0,0,0,0,0,41,41,85,201.57123112678528,,,,,,,,,,,,,,,,,,,,,,,,,,,,,,,,,,,,,,,,,,,,,,,,,,,,,,,,,,,,,,,,,,,,,,,,,,,,,,,,,125.0,200.0,200.0,125.0,127.0,127.0,1.0,1.1,-738,252,-480,262,-258,286,201.55655074119568,201.55663013458252,201.560161113739,201.57123112678528,201.71967124938965,201.71967124938965,201.71967124938965,201.71967124938965,201.71967124938965,201.71967124938965,201.71967124938965,205.1894965171814,1,3.601400375366211,None,,,,,,,,,,,,,,,,,,209,4,2025-03-07_10h02.28.101,comp,2024.2.4,None,2025-03-07 10h02.35.954914 -0500,
42,42,0,critical,hdw,35.0,2.1,lower,133.0,57.0,70.0,70.0,57.0,133.0,3,2.495419979095459,None,,,,,0,0,0,0,0,42,42,44,205.20573663711548,,,,,,,,,,,,,,,,,,,,,,,,,,,,,,,,,,,,,,,,,,,,,,,,,,,,,,,,,,,,,,,,,,,,,,,,,,,,,,,,,133.0,57.0,70.0,70.0,57.0,133.0,2.1,2.12,-160,-286,0,-261,198,250,205.19102549552917,205.1911027431488,205.1944169998169,205.20573663711548,205.3546121120453,205.3546121120453,205.3546121120453,205.3546121120453,205.3546121120453,205.3546121120453,205.3546121120453,207.70541715621948,3,2.495419979095459,None,,,,,,,,,,,,,,,,,,209,4,2025-03-07_10h02.28.101,comp,2024.2.4,None,2025-03-07 10h02.35.954914 -0500,
43,43,0,critical,wdh,20.0,1.0,lower,57.0,133.0,78.0,78.0,133.0,57.0,1,2.331472158432007,None,,,,,0,0,0,0,0,43,43,78,207.72171473503113,,,,,,,,,,,,,,,,,,,,,,,,,,,,,,,,,,,,,,,,,,,,,,,,,,,,,,,,,,,,,,,,,,,,,,,,,,,,,,,,,57.0,133.0,78.0,78.0,133.0,57.0,1.0,1.2,-202,-18,0,-18,164,-9,207.7068738937378,207.70695161819458,207.70998859405518,207.72171473503113,207.86116862297058,207.86116862297058,207.86116862297058,207.86116862297058,207.86116862297058,207.86116862297058,207.86116862297058,210.0603141784668,1,2.331472158432007,None,,,,,,,,,,,,,,,,,,209,4,2025-03-07_10h02.28.101,comp,2024.2.4,None,2025-03-07 10h02.35.954914 -0500,
44,44,0,filler_square,None,None,None,None,None,None,None,None,None,None,3,1.1171774864196777,None,,,,,0,0,0,0,0,44,44,191,210.07940530776978,,,,,,,,,,,,,,,,,,,,,,,,,,,,,,,,,,,,,,,,,,,,,,,,,,,,,,,,,,,,,,,,,,,,,,,,,,,,,,,,,71.40464937446582,138.08342868470658,129.5451054710196,99.42839296175453,192.7690728113436,192.7690728113436,1.0,1.2,-215,-7,0,-18,242,4,210.0625741481781,210.06270790100098,210.06591248512268,210.07940530776978,210.2245855331421,210.2245855331421,210.2245855331421,210.2245855331421,210.2245855331421,210.2245855331421,210.2245855331421,211.20663690567017,3,1.1171774864196777,None,,,,,,,,,,,,,,,,,,209,4,2025-03-07_10h02.28.101,comp,2024.2.4,None,2025-03-07 10h02.35.954914 -0500,
45,45,0,filler_random,None,None,None,None,None,None,None,None,None,None,1,1.3095593452453613,None,,,,,0,0,0,0,0,45,45,133,211.22399258613586,,,,,,,,,,,,,,,,,,,,,,,,,,,,,,,,,,,,,,,,,,,,,,,,,,,,,,,,,,,,,,,,,,,,,,,,,,,,,,,,,178.99439675919191,132.33357318032762,127.50446464479894,92.08264828798228,125.22915207166557,176.98950829692205,2.2,2.22,-208,267,0,-255,231,-281,211.20856261253357,211.20867609977722,211.21212124824524,211.22399258613586,211.3631227016449,211.3631227016449,211.3631227016449,211.3631227016449,211.3631227016449,211.3631227016449,211.3631227016449,212.54116702079773,1,1.3095593452453613,None,,,,,,,,,,,,,,,,,,209,4,2025-03-07_10h02.28.101,comp,2024.2.4,None,2025-03-07 10h02.35.954914 -0500,
46,46,0,critical,hwd,35.0,2.1,upper,200.0,125.0,125.0,200.0,127.0,127.0,2,2.6766304969787598,None,,,,,0,0,0,0,0,46,46,17,212.56043696403503,,,,,,,,,,,,,,,,,,,,,,,,,,,,,,,,,,,,,,,,,,,,,,,,,,,,,,,,,,,,,,,,,,,,,,,,,,,,,,,,,200.0,125.0,125.0,200.0,127.0,127.0,2.1,2.12,-258,-255,0,-266,260,256,212.54275274276733,212.54283332824707,212.5460958480835,212.56043696403503,212.70827722549438,212.70827722549438,212.70827722549438,212.70827722549438,212.70827722549438,212.70827722549438,212.70827722549438,215.24196362495422,2,2.6766304969787598,None,,,,,,,,,,,,,,,,,,209,4,2025-03-07_10h02.28.101,comp,2024.2.4,None,2025-03-07 10h02.35.954914 -0500,
47,47,0,critical,whd,20.0,2.1,upper,125.0,200.0,200.0,125.0,141.0,141.0,1,1.303123950958252,None,,,,,0,0,0,0,0,47,47,39,215.26263093948364,,,,,,,,,,,,,,,,,,,,,,,,,,,,,,,,,,,,,,,,,,,,,,,,,,,,,,,,,,,,,,,,,,,,,,,,,,,,,,,,,125.0,200.0,200.0,125.0,141.0,141.0,2.1,2.11,-258,263,0,286,229,-283,215.24350666999817,215.2436168193817,215.2468593120575,215.26263093948364,215.40929555892944,215.40929555892944,215.40929555892944,215.40929555892944,215.40929555892944,215.40929555892944,215.40929555892944,216.57781600952148,1,1.303123950958252,None,,,,,,,,,,,,,,,,,,209,4,2025-03-07_10h02.28.101,comp,2024.2.4,None,2025-03-07 10h02.35.954914 -0500,
48,48,0,critical,hwd,20.0,4.0,lower,133.0,57.0,57.0,133.0,78.0,78.0,2,3.139108657836914,None,,,,,0,0,0,0,0,48,48,106,216.5936689376831,,,,,,,,,,,,,,,,,,,,,,,,,,,,,,,,,,,,,,,,,,,,,,,,,,,,,,,,,,,,,,,,,,,,,,,,,,,,,,,,,133.0,57.0,57.0,133.0,78.0,78.0,4.0,4.1,-191,-259,0,12,202,-289,216.57955050468445,216.5796411037445,216.5831160545349,216.5936689376831,216.74123096466064,216.74123096466064,216.74123096466064,216.74123096466064,216.74123096466064,216.74123096466064,216.74123096466064,219.74469375610352,2,3.139108657836914,None,,,,,,,,,,,,,,,,,,209,4,2025-03-07_10h02.28.101,comp,2024.2.4,None,2025-03-07 10h02.35.954914 -0500,
49,49,0,filler_random,None,None,None,None,None,None,None,None,None,None,3,1.3797614574432373,None,,,,,0,0,0,0,0,49,49,140,219.7608699798584,,,,,,,,,,,,,,,,,,,,,,,,,,,,,,,,,,,,,,,,,,,,,,,,,,,,,,,,,,,,,,,,,,,,,,,,,,,,,,,,,65.96344991105595,98.49246111969126,57.69608053224366,131.12763684899986,118.94897499544584,160.63656079451707,2.2,2.22,-211,255,0,-285,242,-266,219.7463355064392,219.74640774726868,219.75055527687073,219.7608699798584,219.91155457496643,219.91155457496643,219.91155457496643,219.91155457496643,219.91155457496643,219.91155457496643,219.91155457496643,221.1529459953308,3,1.3797614574432373,None,,,,,,,,,,,,,,,,,,209,4,2025-03-07_10h02.28.101,comp,2024.2.4,None,2025-03-07 10h02.35.954914 -0500,
50,50,0,catch,None,None,None,None,None,None,None,None,None,None,3,1.0711307525634766,None,,,,,0,0,0,0,0,50,50,126,221.17351174354553,,,,,,,,,,,,,,,,,,,,,,,,,,,,,,,,,,,,,,,,,,,,,,,,,,,,,,,,,,,,,,,,,,,,,,,,,,,,,,,,,91,99,98,92,199,126,1.0,1.1,-672,260,-480,253,-275,274,221.15486192703247,221.15493941307068,221.1579577922821,221.17351174354553,221.31232857704163,221.31232857704163,221.31232857704163,221.31232857704163,221.31232857704163,221.31232857704163,221.31232857704163,222.26241993904114,3,1.0711307525634766,None,,,,,,,,,,,,,,,,,,209,4,2025-03-07_10h02.28.101,comp,2024.2.4,None,2025-03-07 10h02.35.954914 -0500,
51,51,0,critical,hwd,20.0,4.0,upper,200.0,125.0,125.0,200.0,141.0,141.0,2,2.2224836349487305,None,,,,,0,0,0,0,0,51,51,107,222.27822256088257,,,,,,,,,,,,,,,,,,,,,,,,,,,,,,,,,,,,,,,,,,,,,,,,,,,,,,,,,,,,,,,,,,,,,,,,,,,,,,,,,200.0,125.0,125.0,200.0,141.0,141.0,4.0,4.1,-258,-263,0,-1,266,-252,222.26412558555603,222.26420259475708,222.26793718338013,222.27822256088257,222.4259376525879,222.4259376525879,222.4259376525879,222.4259376525879,222.4259376525879,222.4259376525879,222.4259376525879,224.513840675354,2,2.2224836349487305,None,,,,,,,,,,,,,,,,,,209,4,2025-03-07_10h02.28.101,comp,2024.2.4,None,2025-03-07 10h02.35.954914 -0500,
52,52,0,filler_square,None,None,None,None,None,None,None,None,None,None,3,1.2350244522094727,None,,,,,0,0,0,0,0,52,52,185,224.52974653244019,,,,,,,,,,,,,,,,,,,,,,,,,,,,,,,,,,,,,,,,,,,,,,,,,,,,,,,,,,,,,,,,,,,,,,,,,,,,,,,,,61.16153897402056,132.3282627951967,89.13486355123626,175.66791332397756,179.29463925825212,179.29463925825212,3.0,3.2,-250,-254,0,-5,273,258,224.5157721042633,224.51586961746216,224.5194594860077,224.52974653244019,224.67901492118835,224.67901492118835,224.67901492118835,224.67901492118835,224.67901492118835,224.67901492118835,224.67901492118835,225.77945280075073,3,1.2350244522094727,None,,,,,,,,,,,,,,,,,,209,4,2025-03-07_10h02.28.101,comp,2024.2.4,None,2025-03-07 10h02.35.954914 -0500,
53,53,0,filler_random,None,None,None,None,None,None,None,None,None,None,1,1.0657804012298584,None,,,,,0,0,0,0,0,53,53,139,225.79544520378113,,,,,,,,,,,,,,,,,,,,,,,,,,,,,,,,,,,,,,,,,,,,,,,,,,,,,,,,,,,,,,,,,,,,,,,,,,,,,,,,,170.40746203270925,190.14669575853713,135.54004894927283,133.30253894205973,149.7805222199498,136.790919039014,2.1,2.12,-258,-262,0,-259,231,272,225.7814223766327,225.7815716266632,225.78514218330383,225.79544520378113,225.944908618927,225.944908618927,225.944908618927,225.944908618927,225.944908618927,225.944908618927,225.944908618927,226.86719584465027,1,1.0657804012298584,None,,,,,,,,,,,,,,,,,,209,4,2025-03-07_10h02.28.101,comp,2024.2.4,None,2025-03-07 10h02.35.954914 -0500,
54,54,0,critical,hwd,35.0,2.1,upper,200.0,125.0,125.0,200.0,127.0,127.0,2,2.398416042327881,None,,,,,0,0,0,0,0,54,54,41,226.88712978363037,,,,,,,,,,,,,,,,,,,,,,,,,,,,,,,,,,,,,,,,,,,,,,,,,,,,,,,,,,,,,,,,,,,,,,,,,,,,,,,,,200.0,125.0,125.0,200.0,127.0,127.0,2.1,2.11,-258,288,0,285,260,-273,226.86877369880676,226.8688509464264,226.87196159362793,226.88712978363037,227.02980041503906,227.02980041503906,227.02980041503906,227.02980041503906,227.02980041503906,227.02980041503906,227.02980041503906,229.29814839363098,2,2.398416042327881,None,,,,,,,,,,,,,,,,,,209,4,2025-03-07_10h02.28.101,comp,2024.2.4,None,2025-03-07 10h02.35.954914 -0500,
55,55,0,filler_square,None,None,None,None,None,None,None,None,None,None,3,1.9386844635009766,None,,,,,0,0,0,0,0,55,55,189,229.31424808502197,,,,,,,,,,,,,,,,,,,,,,,,,,,,,,,,,,,,,,,,,,,,,,,,,,,,,,,,,,,,,,,,,,,,,,,,,,,,,,,,,64.72584227844624,71.8453341600725,102.42761143040798,97.33463028790763,111.37923234908814,111.37923234908814,1.0,1.2,-181,-7,0,10,200,6,229.30013227462769,229.30020904541016,229.30389189720154,229.31424808502197,229.46430015563965,229.46430015563965,229.46430015563965,229.46430015563965,229.46430015563965,229.46430015563965,229.46430015563965,231.25727128982544,3,1.9386844635009766,None,,,,,,,,,,,,,,,,,,209,4,2025-03-07_10h02.28.101,comp,2024.2.4,None,2025-03-07 10h02.35.954914 -0500,
56,56,0,filler_square,None,None,None,None,None,None,None,None,None,None,2,2.172053575515747,None,,,,,0,0,0,0,0,56,56,173,231.27313566207886,,,,,,,,,,,,,,,,,,,,,,,,,,,,,,,,,,,,,,,,,,,,,,,,,,,,,,,,,,,,,,,,,,,,,,,,,,,,,,,,,155.54282071733707,95.9025054765423,172.50741023155467,172.50741023155467,169.7772735104378,91.50936603144959,4.0,4.1,-230,-274,0,13,228,-253,231.25913095474243,231.25921058654785,231.26231026649475,231.27313566207886,231.41348361968994,231.41348361968994,231.41348361968994,231.41348361968994,231.41348361968994,231.41348361968994,231.41348361968994,233.4484121799469,2,2.172053575515747,None,,,,,,,,,,,,,,,,,,209,4,2025-03-07_10h02.28.101,comp,2024.2.4,None,2025-03-07 10h02.35.954914 -0500,
57,57,0,filler_square,None,None,None,None,None,None,None,None,None,None,3,2.532055139541626,None,,,,,0,0,0,0,0,57,57,197,233.4649109840393,,,,,,,,,,,,,,,,,,,,,,,,,,,,,,,,,,,,,,,,,,,,,,,,,,,,,,,,,,,,,,,,,,,,,,,,,,,,,,,,,65.07157087050092,68.4375159269823,70.28947701232953,70.28947701232953,65.8170682749903,69.85955841845033,2.2,2.22,-165,286,0,-262,166,-276,233.45019054412842,233.4502649307251,233.45390343666077,233.4649109840393,233.61590266227722,233.61590266227722,233.61590266227722,233.61590266227722,233.61590266227722,233.61590266227722,233.61590266227722,235.99993228912354,3,2.532055139541626,None,,,,,,,,,,,,,,,,,,209,4,2025-03-07_10h02.28.101,comp,2024.2.4,None,2025-03-07 10h02.35.954914 -0500,
58,58,0,critical,dhw,20.0,1.0,upper,141.0,141.0,200.0,125.0,125.0,200.0,3,1.3971366882324219,None,,,,,0,0,0,0,0,58,58,55,236.0158793926239,,,,,,,,,,,,,,,,,,,,,,,,,,,,,,,,,,,,,,,,,,,,,,,,,,,,,,,,,,,,,,,,,,,,,,,,,,,,,,,,,141.0,141.0,200.0,125.0,125.0,200.0,1.0,1.2,-229,4,0,4,258,11,236.00143027305603,236.00150561332703,236.00505566596985,236.0158793926239,236.1666567325592,236.1666567325592,236.1666567325592,236.1666567325592,236.1666567325592,236.1666567325592,236.1666567325592,237.4152352809906,3,1.3971366882324219,None,,,,,,,,,,,,,,,,,,209,4,2025-03-07_10h02.28.101,comp,2024.2.4,None,2025-03-07 10h02.35.954914 -0500,
59,59,0,critical,dhw,20.0,2.1,upper,141.0,141.0,200.0,125.0,125.0,200.0,3,0.8296422958374023,None,,,,,0,0,0,0,0,59,59,3,237.4316484928131,,,,,,,,,,,,,,,,,,,,,,,,,,,,,,,,,,,,,,,,,,,,,,,,,,,,,,,,,,,,,,,,,,,,,,,,,,,,,,,,,141.0,141.0,200.0,125.0,125.0,200.0,2.1,2.12,-229,-285,0,-253,258,286,237.4167993068695,237.4168782234192,237.42016649246216,237.4316484928131,237.57955765724182,237.57955765724182,237.57955765724182,237.57955765724182,237.57955765724182,237.57955765724182,237.57955765724182,238.2696349620819,3,0.8296422958374023,None,,,,,,,,,,,,,,,,,,209,4,2025-03-07_10h02.28.101,comp,2024.2.4,None,2025-03-07 10h02.35.954914 -0500,
60,60,0,critical,wdh,20.0,1.0,upper,125.0,200.0,141.0,141.0,200.0,125.0,1,1.356459140777588,None,,,,,0,0,0,0,0,60,60,79,238.2882161140442,,,,,,,,,,,,,,,,,,,,,,,,,,,,,,,,,,,,,,,,,,,,,,,,,,,,,,,,,,,,,,,,,,,,,,,,,,,,,,,,,125.0,200.0,141.0,141.0,200.0,125.0,1.0,1.3,214,-252,480,-271,709,-250,238.2713806629181,238.27151012420654,238.27496671676636,238.2882161140442,238.4349811077118,238.4349811077118,238.4349811077118,238.4349811077118,238.4349811077118,238.4349811077118,238.4349811077118,239.6563012599945,1,1.356459140777588,None,,,,,,,,,,,,,,,,,,209,4,2025-03-07_10h02.28.101,comp,2024.2.4,None,2025-03-07 10h02.35.954914 -0500,
61,61,0,filler_random,None,None,None,None,None,None,None,None,None,None,2,1.6924970149993896,None,,,,,0,0,0,0,0,61,61,167,239.67220377922058,,,,,,,,,,,,,,,,,,,,,,,,,,,,,,,,,,,,,,,,,,,,,,,,,,,,,,,,,,,,,,,,,,,,,,,,,,,,,,,,,80.55765819242626,125.54742185054272,125.11597300737884,151.11506216681462,103.06908974433432,160.22843825796798,2.2,2.22,-234,266,0,-266,252,-256,239.65802216529846,239.65809988975525,239.66111588478088,239.67220377922058,239.82239937782288,239.82239937782288,239.82239937782288,239.82239937782288,239.82239937782288,239.82239937782288,239.82239937782288,241.37031483650208,2,1.6924970149993896,None,,,,,,,,,,,,,,,,,,209,4,2025-03-07_10h02.28.101,comp,2024.2.4,None,2025-03-07 10h02.35.954914 -0500,
62,62,0,critical,hdw,20.0,3.0,upper,200.0,125.0,141.0,141.0,125.0,200.0,3,1.7019569873809814,None,,,,,0,0,0,0,0,62,62,117,241.39132046699524,,,,,,,,,,,,,,,,,,,,,,,,,,,,,,,,,,,,,,,,,,,,,,,,,,,,,,,,,,,,,,,,,,,,,,,,,,,,,,,,,200.0,125.0,141.0,141.0,125.0,200.0,3.0,3.2,-229,-260,0,3,266,264,241.37189292907715,241.37196826934814,241.37555408477783,241.39132046699524,241.5346336364746,241.5346336364746,241.5346336364746,241.5346336364746,241.5346336364746,241.5346336364746,241.5346336364746,243.10211634635925,3,1.7019569873809814,None,,,,,,,,,,,,,,,,,,209,4,2025-03-07_10h02.28.101,comp,2024.2.4,None,2025-03-07 10h02.35.954914 -0500,
63,63,0,filler_square,None,None,None,None,None,None,None,None,None,None,3,1.188345193862915,None,,,,,0,0,0,0,0,63,63,203,243.120774269104,,,,,,,,,,,,,,,,,,,,,,,,,,,,,,,,,,,,,,,,,,,,,,,,,,,,,,,,,,,,,,,,,,,,,,,,,,,,,,,,,78.7628246238432,101.67580766536209,66.99109484738688,97.27994767692348,109.07932859482867,109.07932859482867,2.1,2.12,-195,-260,0,-252,199,257,243.10401725769043,243.10414457321167,243.10757446289062,243.120774269104,243.26821494102478,243.26821494102478,243.26821494102478,243.26821494102478,243.26821494102478,243.26821494102478,243.26821494102478,244.311203956604,3,1.188345193862915,None,,,,,,,,,,,,,,,,,,209,4,2025-03-07_10h02.28.101,comp,2024.2.4,None,2025-03-07 10h02.35.954914 -0500,
64,64,0,critical,whd,20.0,2.1,upper,125.0,200.0,200.0,125.0,141.0,141.0,3,0.8200323581695557,None,,,,,0,0,0,0,0,64,64,15,244.32886576652527,,,,,,,,,,,,,,,,,,,,,,,,,,,,,,,,,,,,,,,,,,,,,,,,,,,,,,,,,,,,,,,,,,,,,,,,,,,,,,,,,125.0,200.0,200.0,125.0,141.0,141.0,2.1,2.12,-258,-271,0,-270,229,259,244.3128867149353,244.3130190372467,244.31647562980652,244.32886576652527,244.4738793373108,244.4738793373108,244.4738793373108,244.4738793373108,244.4738793373108,244.4738793373108,244.4738793373108,245.15347385406494,3,0.8200323581695557,None,,,,,,,,,,,,,,,,,,209,4,2025-03-07_10h02.28.101,comp,2024.2.4,None,2025-03-07 10h02.35.954914 -0500,
65,65,0,critical,hwd,35.0,4.0,upper,200.0,125.0,125.0,200.0,127.0,127.0,2,1.918071985244751,None,,,,,0,0,0,0,0,65,65,101,245.174622297287,,,,,,,,,,,,,,,,,,,,,,,,,,,,,,,,,,,,,,,,,,,,,,,,,,,,,,,,,,,,,,,,,,,,,,,,,,,,,,,,,200.0,125.0,125.0,200.0,127.0,127.0,4.0,4.1,-258,-278,0,-4,260,-257,245.15502953529358,245.15516066551208,245.15907645225525,245.174622297287,245.31919407844543,245.31919407844543,245.31919407844543,245.31919407844543,245.31919407844543,245.31919407844543,245.31919407844543,247.10534691810608,2,1.918071985244751,None,,,,,,,,,,,,,,,,,,209,4,2025-03-07_10h02.28.101,comp,2024.2.4,None,2025-03-07 10h02.35.954914 -0500,
66,66,0,critical,wdh,35.0,3.0,lower,57.0,133.0,70.0,70.0,133.0,57.0,3,1.643794059753418,None,,,,,0,0,0,0,0,66,66,74,247.12156653404236,,,,,,,,,,,,,,,,,,,,,,,,,,,,,,,,,,,,,,,,,,,,,,,,,,,,,,,,,,,,,,,,,,,,,,,,,,,,,,,,,57.0,133.0,70.0,70.0,133.0,57.0,3.0,3.1,-198,287,0,2,160,-262,247.10720944404602,247.10728693008423,247.1104531288147,247.12156653404236,247.26923513412476,247.26923513412476,247.26923513412476,247.26923513412476,247.26923513412476,247.26923513412476,247.26923513412476,248.7699625492096,3,1.643794059753418,None,,,,,,,,,,,,,,,,,,209,4,2025-03-07_10h02.28.101,comp,2024.2.4,None,2025-03-07 10h02.35.954914 -0500,
67,67,0,critical,whd,20.0,3.0,lower,57.0,133.0,133.0,57.0,78.0,78.0,1,1.2502667903900146,None,,,,,0,0,0,0,0,67,67,92,248.7864592075348,,,,,,,,,,,,,,,,,,,,,,,,,,,,,,,,,,,,,,,,,,,,,,,,,,,,,,,,,,,,,,,,,,,,,,,,,,,,,,,,,57.0,133.0,133.0,57.0,78.0,78.0,3.0,3.1,-191,269,0,4,164,-276,248.77151679992676,248.77162265777588,248.77520990371704,248.7864592075348,248.93762159347534,248.93762159347534,248.93762159347534,248.93762159347534,248.93762159347534,248.93762159347534,248.93762159347534,250.05367803573608,1,1.2502667903900146,None,,,,,,,,,,,,,,,,,,209,4,2025-03-07_10h02.28.101,comp,2024.2.4,None,2025-03-07 10h02.35.954914 -0500,
68,68,0,critical,whd,35.0,2.1,lower,57.0,133.0,133.0,57.0,70.0,70.0,2,2.2868316173553467,None,,,,,0,0,0,0,0,68,68,12,250.06985688209534,,,,,,,,,,,,,,,,,,,,,,,,,,,,,,,,,,,,,,,,,,,,,,,,,,,,,,,,,,,,,,,,,,,,,,,,,,,,,,,,,57.0,133.0,133.0,57.0,70.0,70.0,2.1,2.12,-191,-286,0,-284,160,279,250.05518555641174,250.0552589893341,250.05929589271545,250.06985688209534,250.2189576625824,250.2189576625824,250.2189576625824,250.2189576625824,250.2189576625824,250.2189576625824,250.2189576625824,252.3728244304657,2,2.2868316173553467,None,,,,,,,,,,,,,,,,,,209,4,2025-03-07_10h02.28.101,comp,2024.2.4,None,2025-03-07 10h02.35.954914 -0500,
69,69,0,critical,dhw,20.0,1.0,lower,78.0,78.0,133.0,57.0,57.0,133.0,2,3.374903917312622,None,,,,,0,0,0,0,0,69,69,54,252.38983821868896,,,,,,,,,,,,,,,,,,,,,,,,,,,,,,,,,,,,,,,,,,,,,,,,,,,,,,,,,,,,,,,,,,,,,,,,,,,,,,,,,78.0,78.0,133.0,57.0,57.0,133.0,1.0,1.2,-164,6,0,3,191,10,252.37451004981995,252.37465071678162,252.37866187095642,252.38983821868896,252.52518796920776,252.52518796920776,252.52518796920776,252.52518796920776,252.52518796920776,252.52518796920776,252.52518796920776,255.77938389778137,2,3.374903917312622,None,,,,,,,,,,,,,,,,,,209,4,2025-03-07_10h02.28.101,comp,2024.2.4,None,2025-03-07 10h02.35.954914 -0500,
70,70,0,critical,wdh,35.0,2.1,lower,57.0,133.0,70.0,70.0,133.0,57.0,3,1.4974279403686523,None,,,,,0,0,0,0,0,70,70,32,255.79527473449707,,,,,,,,,,,,,,,,,,,,,,,,,,,,,,,,,,,,,,,,,,,,,,,,,,,,,,,,,,,,,,,,,,,,,,,,,,,,,,,,,57.0,133.0,70.0,70.0,133.0,57.0,2.1,2.12,-198,-273,0,-268,160,252,255.78093719482422,255.78101110458374,255.78415822982788,255.79527473449707,255.93993949890137,255.93993949890137,255.93993949890137,255.93993949890137,255.93993949890137,255.93993949890137,255.93993949890137,257.3089699745178,3,1.4974279403686523,None,,,,,,,,,,,,,,,,,,209,4,2025-03-07_10h02.28.101,comp,2024.2.4,None,2025-03-07 10h02.35.954914 -0500,
71,71,0,critical,hwd,20.0,1.0,upper,200.0,125.0,125.0,200.0,141.0,141.0,1,1.7419841289520264,None,,,,,0,0,0,0,0,71,71,103,257.32694363594055,,,,,,,,,,,,,,,,,,,,,,,,,,,,,,,,,,,,,,,,,,,,,,,,,,,,,,,,,,,,,,,,,,,,,,,,,,,,,,,,,200.0,125.0,125.0,200.0,141.0,141.0,1.0,1.2,-258,-17,0,19,266,15,257.3104290962219,257.31050419807434,257.31367564201355,257.32694363594055,257.4725852012634,257.4725852012634,257.4725852012634,257.4725852012634,257.4725852012634,257.4725852012634,257.4725852012634,259.07221603393555,1,1.7419841289520264,None,,,,,,,,,,,,,,,,,,209,4,2025-03-07_10h02.28.101,comp,2024.2.4,None,2025-03-07 10h02.35.954914 -0500,
72,72,0,filler_square,None,None,None,None,None,None,None,None,None,None,1,13.188495397567749,None,,,,,0,0,0,0,0,72,72,183,259.08863258361816,,,,,,,,,,,,,,,,,,,,,,,,,,,,,,,,,,,,,,,,,,,,,,,,,,,,,,,,,,,,,,,,,,,,,,,,,,,,,,,,,79.46013963787131,79.46013963787131,76.61910912291019,61.44010912510605,72.86277984803442,64.56336356738203,4.0,4.1,-166,-286,0,-19,159,-261,259.07415199279785,259.0742576122284,259.07765340805054,259.08863258361816,259.2376308441162,259.2376308441162,259.2376308441162,259.2376308441162,259.2376308441162,259.2376308441162,259.2376308441162,272.28111600875854,1,13.188495397567749,None,,,,,,,,,,,,,,,,,,209,4,2025-03-07_10h02.28.101,comp,2024.2.4,None,2025-03-07 10h02.35.954914 -0500,
73,73,0,critical,wdh,20.0,2.1,lower,57.0,133.0,78.0,78.0,133.0,57.0,3,2.819002628326416,None,,,,,0,0,0,0,0,73,73,34,272.2978525161743,,,,,,,,,,,,,,,,,,,,,,,,,,,,,,,,,,,,,,,,,,,,,,,,,,,,,,,,,,,,,,,,,,,,,,,,,,,,,,,,,57.0,133.0,78.0,78.0,133.0,57.0,2.1,2.12,-202,-261,0,-257,164,263,272.28293085098267,272.28305745124817,272.28648018836975,272.2978525161743,272.4477367401123,272.4477367401123,272.4477367401123,272.4477367401123,272.4477367401123,272.4477367401123,272.4477367401123,275.1324908733368,3,2.819002628326416,None,,,,,,,,,,,,,,,,,,209,4,2025-03-07_10h02.28.101,comp,2024.2.4,None,2025-03-07 10h02.35.954914 -0500,
74,74,0,critical,hwd,35.0,3.0,upper,200.0,125.0,125.0,200.0,127.0,127.0,2,3.521254539489746,None,,,,,0,0,0,0,0,74,74,99,275.14742708206177,,,,,,,,,,,,,,,,,,,,,,,,,,,,,,,,,,,,,,,,,,,,,,,,,,,,,,,,,,,,,,,,,,,,,,,,,,,,,,,,,200.0,125.0,125.0,200.0,127.0,127.0,3.0,3.1,-258,285,0,3,260,-272,275.13407850265503,275.1341531276703,275.1372084617615,275.14742708206177,275.2983400821686,275.2983400821686,275.2983400821686,275.2983400821686,275.2983400821686,275.2983400821686,275.2983400821686,278.67806243896484,2,3.521254539489746,None,,,,,,,,,,,,,,,,,,209,4,2025-03-07_10h02.28.101,comp,2024.2.4,None,2025-03-07 10h02.35.954914 -0500,
75,75,0,critical,hwd,35.0,3.0,lower,133.0,57.0,57.0,133.0,70.0,70.0,1,1.8751137256622314,None,,,,,0,0,0,0,0,75,75,98,278.69805908203125,,,,,,,,,,,,,,,,,,,,,,,,,,,,,,,,,,,,,,,,,,,,,,,,,,,,,,,,,,,,,,,,,,,,,,,,,,,,,,,,,133.0,57.0,57.0,133.0,70.0,70.0,3.0,3.1,-191,254,0,-18,198,-275,278.67952060699463,278.6796154975891,278.6828463077545,278.69805908203125,278.8462221622467,278.8462221622467,278.8462221622467,278.8462221622467,278.8462221622467,278.8462221622467,278.8462221622467,280.58349418640137,1,1.8751137256622314,None,,,,,,,,,,,,,,,,,,209,4,2025-03-07_10h02.28.101,comp,2024.2.4,None,2025-03-07 10h02.35.954914 -0500,
76,76,0,filler_random,None,None,None,None,None,None,None,None,None,None,1,5.0106964111328125,None,,,,,0,0,0,0,0,76,76,168,280.6021547317505,,,,,,,,,,,,,,,,,,,,,,,,,,,,,,,,,,,,,,,,,,,,,,,,,,,,,,,,,,,,,,,,,,,,,,,,,,,,,,,,,143.22897640904822,95.46208184255829,102.08159095517308,120.15419012654738,128.23033488937796,69.53056013075691,3.0,3.2,-204,-250,0,-5,191,261,280.58540749549866,280.58550906181335,280.58896565437317,280.6021547317505,280.74761509895325,280.74761509895325,280.74761509895325,280.74761509895325,280.74761509895325,280.74761509895325,280.74761509895325,285.62791633605957,1,5.0106964111328125,None,,,,,,,,,,,,,,,,,,209,4,2025-03-07_10h02.28.101,comp,2024.2.4,None,2025-03-07 10h02.35.954914 -0500,
77,77,0,critical,hdw,20.0,4.0,upper,200.0,125.0,141.0,141.0,125.0,200.0,3,4.737059593200684,None,,,,,0,0,0,0,0,77,77,119,285.64429235458374,,,,,,,,,,,,,,,,,,,,,,,,,,,,,,,,,,,,,,,,,,,,,,,,,,,,,,,,,,,,,,,,,,,,,,,,,,,,,,,,,200.0,125.0,141.0,141.0,125.0,200.0,4.0,4.2,-229,-1,0,-284,266,3,285.6294915676117,285.62959837913513,285.6330738067627,285.64429235458374,285.78162360191345,285.78162360191345,285.78162360191345,285.78162360191345,285.78162360191345,285.78162360191345,285.78162360191345,290.3843128681183,3,4.737059593200684,None,,,,,,,,,,,,,,,,,,209,4,2025-03-07_10h02.28.101,comp,2024.2.4,None,2025-03-07 10h02.35.954914 -0500,
78,78,0,critical,dhw,20.0,2.1,lower,78.0,78.0,133.0,57.0,57.0,133.0,2,8.076962947845459,None,,,,,0,0,0,0,0,78,78,2,290.40039825439453,,,,,,,,,,,,,,,,,,,,,,,,,,,,,,,,,,,,,,,,,,,,,,,,,,,,,,,,,,,,,,,,,,,,,,,,,,,,,,,,,78.0,78.0,133.0,57.0,57.0,133.0,2.1,2.11,-164,271,0,272,191,-287,290.3859086036682,290.3859853744507,290.3895936012268,290.40039825439453,290.5499231815338,290.5499231815338,290.5499231815338,290.5499231815338,290.5499231815338,290.5499231815338,290.5499231815338,298.4857130050659,2,8.076962947845459,None,,,,,,,,,,,,,,,,,,209,4,2025-03-07_10h02.28.101,comp,2024.2.4,None,2025-03-07 10h02.35.954914 -0500,
79,79,0,filler_square,None,None,None,None,None,None,None,None,None,None,1,1.494786262512207,None,,,,,0,0,0,0,0,79,79,174,298.502587556839,,,,,,,,,,,,,,,,,,,,,,,,,,,,,,,,,,,,,,,,,,,,,,,,,,,,,,,,,,,,,,,,,,,,,,,,,,,,,,,,,169.07175152376925,169.07175152376925,95.46116797337945,72.16429317905165,141.9208358275921,143.97474626821912,2.2,2.21,-217,-275,0,281,204,286,298.4878737926483,298.48795652389526,298.4916088581085,298.502587556839,298.6518635749817,298.6518635749817,298.6518635749817,298.6518635749817,298.6518635749817,298.6518635749817,298.6518635749817,300.0050232410431,1,1.494786262512207,None,,,,,,,,,,,,,,,,,,209,4,2025-03-07_10h02.28.101,comp,2024.2.4,None,2025-03-07 10h02.35.954914 -0500,
80,80,0,filler_random,None,None,None,None,None,None,None,None,None,None,3,3.5269336700439453,None,,,,,0,0,0,0,0,80,80,158,300.02211689949036,,,,,,,,,,,,,,,,,,,,,,,,,,,,,,,,,,,,,,,,,,,,,,,,,,,,,,,,,,,,,,,,,,,,,,,,,,,,,,,,,66.2348505833824,141.77685627179653,125.68926596107241,67.48816290172104,91.8030834859044,129.24636546625686,1.0,1.2,-201,-18,0,-12,194,-15,300.0073387622833,300.0074231624603,300.0105538368225,300.02211689949036,300.16942715644836,300.16942715644836,300.16942715644836,300.16942715644836,300.16942715644836,300.16942715644836,300.16942715644836,303.55607771873474,3,3.5269336700439453,None,,,,,,,,,,,,,,,,,,209,4,2025-03-07_10h02.28.101,comp,2024.2.4,None,2025-03-07 10h02.35.954914 -0500,
81,81,0,filler_random,None,None,None,None,None,None,None,None,None,None,3,11.78745698928833,None,,,,,0,0,0,0,0,81,81,150,303.577472448349,,,,,,,,,,,,,,,,,,,,,,,,,,,,,,,,,,,,,,,,,,,,,,,,,,,,,,,,,,,,,,,,,,,,,,,,,,,,,,,,,85.85440912937649,106.46993455429953,187.82487797204212,100.12938003535454,135.1427675412443,142.22487091543178,2.2,2.21,-199,-261,0,283,217,258,303.5579249858856,303.5580337047577,303.56155467033386,303.577472448349,303.7204921245575,303.7204921245575,303.7204921245575,303.7204921245575,303.7204921245575,303.7204921245575,303.7204921245575,315.3762686252594,3,11.78745698928833,None,,,,,,,,,,,,,,,,,,209,4,2025-03-07_10h02.28.101,comp,2024.2.4,None,2025-03-07 10h02.35.954914 -0500,
82,82,0,filler_square,None,None,None,None,None,None,None,None,None,None,3,1.1436877250671387,None,,,,,0,0,0,0,0,82,82,190,315.39762592315674,,,,,,,,,,,,,,,,,,,,,,,,,,,,,,,,,,,,,,,,,,,,,,,,,,,,,,,,,,,,,,,,,,,,,,,,,,,,,,,,,137.18324971369267,82.00306434823827,153.98437920273784,109.46584954476411,180.0847384657904,180.0847384657904,4.0,4.2,-192,15,0,-280,241,4,315.3781900405884,315.37826466560364,315.3814787864685,315.39762592315674,315.54106760025024,315.54106760025024,315.54106760025024,315.54106760025024,315.54106760025024,315.54106760025024,315.54106760025024,316.5434672832489,3,1.1436877250671387,None,,,,,,,,,,,,,,,,,,209,4,2025-03-07_10h02.28.101,comp,2024.2.4,None,2025-03-07 10h02.35.954914 -0500,
83,83,0,critical,dwh,35.0,3.0,lower,70.0,70.0,57.0,133.0,133.0,57.0,3,1.7325105667114258,None,,,,,0,0,0,0,0,83,83,62,316.56025314331055,,,,,,,,,,,,,,,,,,,,,,,,,,,,,,,,,,,,,,,,,,,,,,,,,,,,,,,,,,,,,,,,,,,,,,,,,,,,,,,,,70.0,70.0,57.0,133.0,133.0,57.0,3.0,3.2,-198,-265,0,14,191,285,316.54539489746094,316.54555892944336,316.54882645606995,316.56025314331055,316.7045888900757,316.7045888900757,316.7045888900757,316.7045888900757,316.7045888900757,316.7045888900757,316.7045888900757,318.3077144622803,3,1.7325105667114258,None,,,,,,,,,,,,,,,,,,209,4,2025-03-07_10h02.28.101,comp,2024.2.4,None,2025-03-07 10h02.35.954914 -0500,
84,84,0,critical,wdh,35.0,4.0,lower,57.0,133.0,70.0,70.0,133.0,57.0,3,3.534764289855957,None,,,,,0,0,0,0,0,84,84,76,318.32598185539246,,,,,,,,,,,,,,,,,,,,,,,,,,,,,,,,,,,,,,,,,,,,,,,,,,,,,,,,,,,,,,,,,,,,,,,,,,,,,,,,,57.0,133.0,70.0,70.0,133.0,57.0,4.0,4.1,-198,-288,0,-3,160,-264,318.30913400650024,318.3092088699341,318.31250643730164,318.32598185539246,318.48278880119324,318.48278880119324,318.48278880119324,318.48278880119324,318.48278880119324,318.48278880119324,318.48278880119324,321.8754677772522,3,3.534764289855957,None,,,,,,,,,,,,,,,,,,209,4,2025-03-07_10h02.28.101,comp,2024.2.4,None,2025-03-07 10h02.35.954914 -0500,
85,85,0,catch,None,None,None,None,None,None,None,None,None,None,2,1.2409396171569824,None,,,,,0,0,0,0,0,85,85,129,321.89185309410095,,,,,,,,,,,,,,,,,,,,,,,,,,,,,,,,,,,,,,,,,,,,,,,,,,,,,,,,,,,,,,,,,,,,,,,,,,,,,,,,,109,81,180,145,94,96,1.0,1.3,271,-275,480,-272,696,-275,321.87740874290466,321.8774859905243,321.8805441856384,321.89185309410095,322.0394449234009,322.0394449234009,322.0394449234009,322.0394449234009,322.0394449234009,322.0394449234009,322.0394449234009,323.1444010734558,2,1.2409396171569824,None,,,,,,,,,,,,,,,,,,209,4,2025-03-07_10h02.28.101,comp,2024.2.4,None,2025-03-07 10h02.35.954914 -0500,
86,86,0,critical,dhw,20.0,3.0,upper,141.0,141.0,200.0,125.0,125.0,200.0,3,1.618335485458374,None,,,,,0,0,0,0,0,86,86,57,323.162401676178,,,,,,,,,,,,,,,,,,,,,,,,,,,,,,,,,,,,,,,,,,,,,,,,,,,,,,,,,,,,,,,,,,,,,,,,,,,,,,,,,141.0,141.0,200.0,125.0,125.0,200.0,3.0,3.1,-229,284,0,-4,258,-274,323.1460225582123,323.146098613739,323.1495110988617,323.162401676178,323.3088948726654,323.3088948726654,323.3088948726654,323.3088948726654,323.3088948726654,323.3088948726654,323.3088948726654,324.79526114463806,3,1.618335485458374,None,,,,,,,,,,,,,,,,,,209,4,2025-03-07_10h02.28.101,comp,2024.2.4,None,2025-03-07 10h02.35.954914 -0500,
87,87,0,filler_square,None,None,None,None,None,None,None,None,None,None,3,0.8317744731903076,None,,,,,0,0,0,0,0,87,87,193,324.8137879371643,,,,,,,,,,,,,,,,,,,,,,,,,,,,,,,,,,,,,,,,,,,,,,,,,,,,,,,,,,,,,,,,,,,,,,,,,,,,,,,,,57.50894395074525,108.75041158877553,117.26505868697156,111.72078862224996,161.37489469589255,161.37489469589255,4.0,4.2,-206,-12,0,-288,233,-1,324.7971909046173,324.79727125167847,324.80045318603516,324.8137879371643,324.96364569664,324.96364569664,324.96364569664,324.96364569664,324.96364569664,324.96364569664,324.96364569664,325.6524739265442,3,0.8317744731903076,None,,,,,,,,,,,,,,,,,,209,4,2025-03-07_10h02.28.101,comp,2024.2.4,None,2025-03-07 10h02.35.954914 -0500,
88,88,0,critical,whd,20.0,1.0,upper,125.0,200.0,200.0,125.0,141.0,141.0,1,27.625676155090332,None,,,,,0,0,0,0,0,88,88,91,325.6677234172821,,,,,,,,,,,,,,,,,,,,,,,,,,,,,,,,,,,,,,,,,,,,,,,,,,,,,,,,,,,,,,,,,,,,,,,,,,,,,,,,,125.0,200.0,200.0,125.0,141.0,141.0,1.0,1.3,222,-268,480,-264,709,-253,325.65394949913025,325.65402841567993,325.6570918560028,325.6677234172821,325.8117480278015,325.8117480278015,325.8117480278015,325.8117480278015,325.8117480278015,325.8117480278015,325.8117480278015,353.3014521598816,1,27.625676155090332,None,,,,,,,,,,,,,,,,,,209,4,2025-03-07_10h02.28.101,comp,2024.2.4,None,2025-03-07 10h02.35.954914 -0500,
89,89,0,critical,whd,20.0,4.0,lower,57.0,133.0,133.0,57.0,78.0,78.0,2,2.151224136352539,None,,,,,0,0,0,0,0,89,89,94,353.31784105300903,,,,,,,,,,,,,,,,,,,,,,,,,,,,,,,,,,,,,,,,,,,,,,,,,,,,,,,,,,,,,,,,,,,,,,,,,,,,,,,,,57.0,133.0,133.0,57.0,78.0,78.0,4.0,4.1,-191,-257,0,4,164,-288,353.3029901981354,353.3030655384064,353.30630373954773,353.31784105300903,353.46508598327637,353.46508598327637,353.46508598327637,353.46508598327637,353.46508598327637,353.46508598327637,353.46508598327637,355.48714780807495,2,2.151224136352539,None,,,,,,,,,,,,,,,,,,209,4,2025-03-07_10h02.28.101,comp,2024.2.4,None,2025-03-07 10h02.35.954914 -0500,
90,90,0,filler_random,None,None,None,None,None,None,None,None,None,None,2,1.1503386497497559,None,,,,,0,0,0,0,0,90,90,135,355.50324535369873,,,,,,,,,,,,,,,,,,,,,,,,,,,,,,,,,,,,,,,,,,,,,,,,,,,,,,,,,,,,,,,,,,,,,,,,,,,,,,,,,58.19292259929123,107.86363075012673,164.4507489291795,164.6316720965621,93.16451421114002,85.81142098021877,4.0,4.1,-232,-264,0,17,221,-250,355.4889717102051,355.4890491962433,355.4928798675537,355.50324535369873,355.6391339302063,355.6391339302063,355.6391339302063,355.6391339302063,355.6391339302063,355.6391339302063,355.6391339302063,356.67032051086426,2,1.1503386497497559,None,,,,,,,,,,,,,,,,,,209,4,2025-03-07_10h02.28.101,comp,2024.2.4,None,2025-03-07 10h02.35.954914 -0500,
91,91,0,filler_square,None,None,None,None,None,None,None,None,None,None,3,1.1444191932678223,None,,,,,0,0,0,0,0,91,91,181,356.6864318847656,,,,,,,,,,,,,,,,,,,,,,,,,,,,,,,,,,,,,,,,,,,,,,,,,,,,,,,,,,,,,,,,,,,,,,,,,,,,,,,,,120.36534155253713,135.0657344456236,59.30220585128803,163.8056276511915,166.10645072991008,166.10645072991008,2.2,2.21,-245,-284,0,275,261,262,356.67232298851013,356.67243337631226,356.6760997772217,356.6864318847656,356.8416383266449,356.8416383266449,356.8416383266449,356.8416383266449,356.8416383266449,356.8416383266449,356.8416383266449,357.83580803871155,3,1.1444191932678223,None,,,,,,,,,,,,,,,,,,209,4,2025-03-07_10h02.28.101,comp,2024.2.4,None,2025-03-07 10h02.35.954914 -0500,
92,92,0,filler_square,None,None,None,None,None,None,None,None,None,None,2,1.0988900661468506,None,,,,,0,0,0,0,0,92,92,195,357.85182929039,,,,,,,,,,,,,,,,,,,,,,,,,,,,,,,,,,,,,,,,,,,,,,,,,,,,,,,,,,,,,,,,,,,,,,,,,,,,,,,,,83.42594235098599,105.7646682192718,148.66154160029333,148.66154160029333,67.53262392635374,81.09623979899769,2.1,2.11,-223,260,0,287,211,-258,357.83756279945374,357.83764386177063,357.84094285964966,357.85182929039,358.0023477077484,358.0023477077484,358.0023477077484,358.0023477077484,358.0023477077484,358.0023477077484,358.0023477077484,358.9529938697815,2,1.0988900661468506,None,,,,,,,,,,,,,,,,,,209,4,2025-03-07_10h02.28.101,comp,2024.2.4,None,2025-03-07 10h02.35.954914 -0500,
93,93,0,critical,dwh,35.0,4.0,upper,127.0,127.0,125.0,200.0,200.0,125.0,2,1.5397179126739502,None,,,,,0,0,0,0,0,93,93,65,358.9690890312195,,,,,,,,,,,,,,,,,,,,,,,,,,,,,,,,,,,,,,,,,,,,,,,,,,,,,,,,,,,,,,,,,,,,,,,,,,,,,,,,,127.0,127.0,125.0,200.0,200.0,125.0,4.0,4.1,-260,-274,0,-11,258,-272,358.9544532299042,358.95454692840576,358.9575443267822,358.9690890312195,359.11814308166504,359.11814308166504,359.11814308166504,359.11814308166504,359.11814308166504,359.11814308166504,359.11814308166504,360.52191281318665,2,1.5397179126739502,None,,,,,,,,,,,,,,,,,,209,4,2025-03-07_10h02.28.101,comp,2024.2.4,None,2025-03-07 10h02.35.954914 -0500,
94,94,0,critical,dwh,20.0,3.0,lower,78.0,78.0,57.0,133.0,133.0,57.0,3,1.555422067642212,None,,,,,0,0,0,0,0,94,94,68,360.5373613834381,,,,,,,,,,,,,,,,,,,,,,,,,,,,,,,,,,,,,,,,,,,,,,,,,,,,,,,,,,,,,,,,,,,,,,,,,,,,,,,,,78.0,78.0,57.0,133.0,133.0,57.0,3.0,3.2,-202,-285,0,-14,191,276,360.52343106269836,360.52350544929504,360.5270104408264,360.5373613834381,360.6905906200409,360.6905906200409,360.6905906200409,360.6905906200409,360.6905906200409,360.6905906200409,360.6905906200409,362.10835576057434,3,1.555422067642212,None,,,,,,,,,,,,,,,,,,209,4,2025-03-07_10h02.28.101,comp,2024.2.4,None,2025-03-07 10h02.35.954914 -0500,
95,95,0,critical,hdw,20.0,2.1,lower,133.0,57.0,78.0,78.0,57.0,133.0,1,1.440835952758789,None,,,,,0,0,0,0,0,95,95,46,362.1246063709259,,,,,,,,,,,,,,,,,,,,,,,,,,,,,,,,,,,,,,,,,,,,,,,,,,,,,,,,,,,,,,,,,,,,,,,,,,,,,,,,,133.0,57.0,78.0,78.0,57.0,133.0,2.1,2.11,-164,271,0,290,202,-279,362.11021971702576,362.110342502594,362.11404061317444,362.1246063709259,362.27803206443787,362.27803206443787,362.27803206443787,362.27803206443787,362.27803206443787,362.27803206443787,362.27803206443787,363.57302474975586,1,1.440835952758789,None,,,,,,,,,,,,,,,,,,209,4,2025-03-07_10h02.28.101,comp,2024.2.4,None,2025-03-07 10h02.35.954914 -0500,
96,96,0,filler_random,None,None,None,None,None,None,None,None,None,None,2,1.3275787830352783,None,,,,,0,0,0,0,0,96,96,154,363.5896649360657,,,,,,,,,,,,,,,,,,,,,,,,,,,,,,,,,,,,,,,,,,,,,,,,,,,,,,,,,,,,,,,,,,,,,,,,,,,,,,,,,104.2518946983759,72.65939318014604,184.89365063105697,66.96487532757826,65.84280399394788,117.34310006082401,3.0,3.1,-166,278,0,17,188,-280,363.57476258277893,363.5748393535614,363.5790207386017,363.5896649360657,363.73932099342346,363.73932099342346,363.73932099342346,363.73932099342346,363.73932099342346,363.73932099342346,363.73932099342346,364.92190432548523,2,1.3275787830352783,None,,,,,,,,,,,,,,,,,,209,4,2025-03-07_10h02.28.101,comp,2024.2.4,None,2025-03-07 10h02.35.954914 -0500,
97,97,0,critical,dhw,35.0,4.0,lower,70.0,70.0,133.0,57.0,57.0,133.0,3,1.109236717224121,None,,,,,0,0,0,0,0,97,97,52,364.94431591033936,,,,,,,,,,,,,,,,,,,,,,,,,,,,,,,,,,,,,,,,,,,,,,,,,,,,,,,,,,,,,,,,,,,,,,,,,,,,,,,,,70.0,70.0,133.0,57.0,57.0,133.0,4.0,4.2,-160,10,0,-268,191,-10,364.9233248233795,364.9234023094177,364.9266538619995,364.94431591033936,365.09001326560974,365.09001326560974,365.09001326560974,365.09001326560974,365.09001326560974,365.09001326560974,365.09001326560974,366.0588595867157,3,1.109236717224121,None,,,,,,,,,,,,,,,,,,209,4,2025-03-07_10h02.28.101,comp,2024.2.4,None,2025-03-07 10h02.35.954914 -0500,
98,98,0,filler_square,None,None,None,None,None,None,None,None,None,None,3,1.1221909523010254,None,,,,,0,0,0,0,0,98,98,206,366.0754904747009,,,,,,,,,,,,,,,,,,,,,,,,,,,,,,,,,,,,,,,,,,,,,,,,,,,,,,,,,,,,,,,,,,,,,,,,,,,,,,,,,125.39349365809001,111.82843259208576,81.2797050280125,147.35196202194157,147.61467875297072,147.61467875297072,2.1,2.12,-226,-280,0,-285,243,256,366.06102538108826,366.06110405921936,366.0648603439331,366.0754904747009,366.22325348854065,366.22325348854065,366.22325348854065,366.22325348854065,366.22325348854065,366.22325348854065,366.22325348854065,367.20562505722046,3,1.1221909523010254,None,,,,,,,,,,,,,,,,,,209,4,2025-03-07_10h02.28.101,comp,2024.2.4,None,2025-03-07 10h02.35.954914 -0500,
99,99,0,critical,dwh,35.0,1.0,upper,127.0,127.0,125.0,200.0,200.0,125.0,2,3.944117784500122,None,,,,,0,0,0,0,0,99,99,61,367.2211287021637,,,,,,,,,,,,,,,,,,,,,,,,,,,,,,,,,,,,,,,,,,,,,,,,,,,,,,,,,,,,,,,,,,,,,,,,,,,,,,,,,127.0,127.0,125.0,200.0,200.0,125.0,1.0,1.2,-260,-11,0,-14,258,-19,367.2070617675781,367.20713686943054,367.2103068828583,367.2211287021637,367.37445616722107,367.37445616722107,367.37445616722107,367.37445616722107,367.37445616722107,367.37445616722107,367.37445616722107,371.17407965660095,2,3.944117784500122,None,,,,,,,,,,,,,,,,,,209,4,2025-03-07_10h02.28.101,comp,2024.2.4,None,2025-03-07 10h02.35.954914 -0500,
100,100,0,critical,whd,35.0,1.0,lower,57.0,133.0,133.0,57.0,70.0,70.0,1,1.2596166133880615,None,,,,,0,0,0,0,0,100,100,84,371.1934940814972,,,,,,,,,,,,,,,,,,,,,,,,,,,,,,,,,,,,,,,,,,,,,,,,,,,,,,,,,,,,,,,,,,,,,,,,,,,,,,,,,57.0,133.0,133.0,57.0,70.0,70.0,1.0,1.3,289,-280,480,-267,640,-286,371.1757071018219,371.1757845878601,371.1792051792145,371.1934940814972,371.3416712284088,371.3416712284088,371.3416712284088,371.3416712284088,371.3416712284088,371.3416712284088,371.3416712284088,372.45766949653625,1,1.2596166133880615,None,,,,,,,,,,,,,,,,,,209,4,2025-03-07_10h02.28.101,comp,2024.2.4,None,2025-03-07 10h02.35.954914 -0500,
101,101,0,filler_random,None,None,None,None,None,None,None,None,None,None,2,1.8089470863342285,None,,,,,0,0,0,0,0,101,101,148,372.47642254829407,,,,,,,,,,,,,,,,,,,,,,,,,,,,,,,,,,,,,,,,,,,,,,,,,,,,,,,,,,,,,,,,,,,,,,,,,,,,,,,,,195.20852087968362,125.19584708910655,135.4462619117792,173.3356151320964,93.131264317982,114.4221777530505,1.0,1.2,-245,0,0,16,240,12,372.45925116539,372.4593274593353,372.4625041484833,372.47642254829407,372.63076996803284,372.63076996803284,372.63076996803284,372.63076996803284,372.63076996803284,372.63076996803284,372.63076996803284,374.2897458076477,2,1.8089470863342285,None,,,,,,,,,,,,,,,,,,209,4,2025-03-07_10h02.28.101,comp,2024.2.4,None,2025-03-07 10h02.35.954914 -0500,
102,102,0,filler_square,None,None,None,None,None,None,None,None,None,None,2,1.0900228023529053,None,,,,,0,0,0,0,0,102,102,200,374.3067693710327,,,,,,,,,,,,,,,,,,,,,,,,,,,,,,,,,,,,,,,,,,,,,,,,,,,,,,,,,,,,,,,,,,,,,,,,,,,,,,,,,150.2585593601005,165.9877374972461,172.83002561437362,172.83002561437362,90.7056315673536,79.5022130018038,1.0,1.3,215,-277,480,-258,702,-287,374.29155373573303,374.2916884422302,374.2950870990753,374.3067693710327,374.4429361820221,374.4429361820221,374.4429361820221,374.4429361820221,374.4429361820221,374.4429361820221,374.4429361820221,375.4086992740631,2,1.0900228023529053,None,,,,,,,,,,,,,,,,,,209,4,2025-03-07_10h02.28.101,comp,2024.2.4,None,2025-03-07 10h02.35.954914 -0500,
103,103,0,filler_random,None,None,None,None,None,None,None,None,None,None,2,0.7144904136657715,None,,,,,0,0,0,0,0,103,103,136,375.42659878730774,,,,,,,,,,,,,,,,,,,,,,,,,,,,,,,,,,,,,,,,,,,,,,,,,,,,,,,,,,,,,,,,,,,,,,,,,,,,,,,,,199.221406539551,137.81004406218594,181.75581101443112,182.64462639492956,78.74257800225102,145.1454142429813,1.0,1.3,224,-273,480,-250,740,-284,375.41038513183594,375.41046047210693,375.4137394428253,375.42659878730774,375.578581571579,375.578581571579,375.578581571579,375.578581571579,375.578581571579,375.578581571579,375.578581571579,376.1464946269989,2,0.7144904136657715,None,,,,,,,,,,,,,,,,,,209,4,2025-03-07_10h02.28.101,comp,2024.2.4,None,2025-03-07 10h02.35.954914 -0500,
104,104,0,filler_square,None,None,None,None,None,None,None,None,None,None,3,0.9592032432556152,None,,,,,0,0,0,0,0,104,104,192,376.16572070121765,,,,,,,,,,,,,,,,,,,,,,,,,,,,,,,,,,,,,,,,,,,,,,,,,,,,,,,,,,,,,,,,,,,,,,,,,,,,,,,,,133.6481575095579,147.4141935457178,93.57318297145069,101.7921662206543,159.21792189936923,159.21792189936923,2.2,2.21,-221,-278,0,268,227,267,376.1488437652588,376.14892292022705,376.1519720554352,376.16572070121765,376.3099043369293,376.3099043369293,376.3099043369293,376.3099043369293,376.3099043369293,376.3099043369293,376.3099043369293,377.1281635761261,3,0.9592032432556152,None,,,,,,,,,,,,,,,,,,209,4,2025-03-07_10h02.28.101,comp,2024.2.4,None,2025-03-07 10h02.35.954914 -0500,
105,105,0,critical,wdh,35.0,2.1,upper,125.0,200.0,127.0,127.0,200.0,125.0,1,1.0241484642028809,None,,,,,0,0,0,0,0,105,105,33,377.14870977401733,,,,,,,,,,,,,,,,,,,,,,,,,,,,,,,,,,,,,,,,,,,,,,,,,,,,,,,,,,,,,,,,,,,,,,,,,,,,,,,,,125.0,200.0,127.0,127.0,200.0,125.0,2.1,2.11,-260,261,0,287,222,-261,377.12971568107605,377.1298270225525,377.13318634033203,377.14870977401733,377.2946422100067,377.2946422100067,377.2946422100067,377.2946422100067,377.2946422100067,377.2946422100067,377.2946422100067,378.1834981441498,1,1.0241484642028809,None,,,,,,,,,,,,,,,,,,209,4,2025-03-07_10h02.28.101,comp,2024.2.4,None,2025-03-07 10h02.35.954914 -0500,
106,106,0,critical,hdw,20.0,4.0,lower,133.0,57.0,78.0,78.0,57.0,133.0,3,1.2763123512268066,None,,,,,0,0,0,0,0,106,106,118,378.2010142803192,,,,,,,,,,,,,,,,,,,,,,,,,,,,,,,,,,,,,,,,,,,,,,,,,,,,,,,,,,,,,,,,,,,,,,,,,,,,,,,,,133.0,57.0,78.0,78.0,57.0,133.0,4.0,4.1,-164,-284,0,-13,202,-252,378.1850290298462,378.18510603904724,378.18812227249146,378.2010142803192,378.34221386909485,378.34221386909485,378.34221386909485,378.34221386909485,378.34221386909485,378.34221386909485,378.34221386909485,379.48542881011963,3,1.2763123512268066,None,,,,,,,,,,,,,,,,,,209,4,2025-03-07_10h02.28.101,comp,2024.2.4,None,2025-03-07 10h02.35.954914 -0500,
107,107,0,filler_square,None,None,None,None,None,None,None,None,None,None,2,0.9601562023162842,None,,,,,0,0,0,0,0,107,107,196,379.50094747543335,,,,,,,,,,,,,,,,,,,,,,,,,,,,,,,,,,,,,,,,,,,,,,,,,,,,,,,,,,,,,,,,,,,,,,,,,,,,,,,,,82.16085597243688,86.56693727594136,168.01037042417784,168.01037042417784,127.04703754400254,77.9161677492839,2.2,2.22,-223,281,0,-285,219,-284,379.48724484443665,379.4873197078705,379.49032855033875,379.50094747543335,379.6477131843567,379.6477131843567,379.6477131843567,379.6477131843567,379.6477131843567,379.6477131843567,379.6477131843567,380.47531247138977,2,0.9601562023162842,None,,,,,,,,,,,,,,,,,,209,4,2025-03-07_10h02.28.101,comp,2024.2.4,None,2025-03-07 10h02.35.954914 -0500,
108,108,0,filler_random,None,None,None,None,None,None,None,None,None,None,2,0.8497235774993896,None,,,,,0,0,0,0,0,108,108,141,380.4911296367645,,,,,,,,,,,,,,,,,,,,,,,,,,,,,,,,,,,,,,,,,,,,,,,,,,,,,,,,,,,,,,,,,,,,,,,,,,,,,,,,,71.47453938101073,117.54022702460836,157.53632278759795,125.76470107244727,154.20147726056632,78.52682687361335,3.0,3.1,-218,276,0,6,198,-261,380.47702860832214,380.47710275650024,380.48009872436523,380.4911296367645,380.6374361515045,380.6374361515045,380.6374361515045,380.6374361515045,380.6374361515045,380.6374361515045,380.6374361515045,381.3550374507904,2,0.8497235774993896,None,,,,,,,,,,,,,,,,,,209,4,2025-03-07_10h02.28.101,comp,2024.2.4,None,2025-03-07 10h02.35.954914 -0500,
109,109,0,filler_random,None,None,None,None,None,None,None,None,None,None,3,1.0710952281951904,None,,,,,0,0,0,0,0,109,109,142,381.3746154308319,,,,,,,,,,,,,,,,,,,,,,,,,,,,,,,,,,,,,,,,,,,,,,,,,,,,,,,,,,,,,,,,,,,,,,,,,,,,,,,,,144.65326206910515,66.54190224955781,119.02021172865133,57.08988246154261,120.34242897034432,78.02018711112565,1.0,1.1,-638,266,-480,267,-316,270,381.3567740917206,381.35685205459595,381.35993576049805,381.3746154308319,381.5120429992676,381.5120429992676,381.5120429992676,381.5120429992676,381.5120429992676,381.5120429992676,381.5120429992676,382.4489188194275,3,1.0710952281951904,None,,,,,,,,,,,,,,,,,,209,4,2025-03-07_10h02.28.101,comp,2024.2.4,None,2025-03-07 10h02.35.954914 -0500,
110,110,0,critical,whd,35.0,3.0,upper,125.0,200.0,200.0,125.0,127.0,127.0,3,1.6689653396606445,None,,,,,0,0,0,0,0,110,110,87,382.4637084007263,,,,,,,,,,,,,,,,,,,,,,,,,,,,,,,,,,,,,,,,,,,,,,,,,,,,,,,,,,,,,,,,,,,,,,,,,,,,,,,,,125.0,200.0,200.0,125.0,127.0,127.0,3.0,3.2,-258,-261,0,-7,222,275,382.4505569934845,382.4506411552429,382.4537534713745,382.4637084007263,382.6153588294983,382.6153588294983,382.6153588294983,382.6153588294983,382.6153588294983,382.6153588294983,382.6153588294983,384.1450865268707,3,1.6689653396606445,None,,,,,,,,,,,,,,,,,,209,4,2025-03-07_10h02.28.101,comp,2024.2.4,None,2025-03-07 10h02.35.954914 -0500,
111,111,0,critical,hwd,35.0,1.0,upper,200.0,125.0,125.0,200.0,127.0,127.0,2,2.3385398387908936,None,,,,,0,0,0,0,0,111,111,97,384.1623990535736,,,,,,,,,,,,,,,,,,,,,,,,,,,,,,,,,,,,,,,,,,,,,,,,,,,,,,,,,,,,,,,,,,,,,,,,,,,,,,,,,200.0,125.0,125.0,200.0,127.0,127.0,1.0,1.1,-738,284,-480,262,-220,255,384.1466574668884,384.14673233032227,384.1500999927521,384.1623990535736,384.31331872940063,384.31331872940063,384.31331872940063,384.31331872940063,384.31331872940063,384.31331872940063,384.31331872940063,386.51790285110474,2,2.3385398387908936,None,,,,,,,,,,,,,,,,,,209,4,2025-03-07_10h02.28.101,comp,2024.2.4,None,2025-03-07 10h02.35.954914 -0500,
112,112,0,filler_random,None,None,None,None,None,None,None,None,None,None,2,0.8785984516143799,None,,,,,0,0,0,0,0,112,112,151,386.5343773365021,,,,,,,,,,,,,,,,,,,,,,,,,,,,,,,,,,,,,,,,,,,,,,,,,,,,,,,,,,,,,,,,,,,,,,,,,,,,,,,,,103.40168232956377,150.24252215058954,109.26986615893648,143.8796194896352,148.43056791532734,175.5194082699009,4.0,4.1,-243,-261,0,10,256,-278,386.5196599960327,386.5197365283966,386.52318596839905,386.5343773365021,386.68951082229614,386.68951082229614,386.68951082229614,386.68951082229614,386.68951082229614,386.68951082229614,386.68951082229614,387.41535210609436,2,0.8785984516143799,None,,,,,,,,,,,,,,,,,,209,4,2025-03-07_10h02.28.101,comp,2024.2.4,None,2025-03-07 10h02.35.954914 -0500,
113,113,0,filler_random,None,None,None,None,None,None,None,None,None,None,2,2.3073368072509766,None,,,,,0,0,0,0,0,113,113,155,387.4339978694916,,,,,,,,,,,,,,,,,,,,,,,,,,,,,,,,,,,,,,,,,,,,,,,,,,,,,,,,,,,,,,,,,,,,,,,,,,,,,,,,,117.99374711162008,153.67454455190895,194.20254804033974,196.56403081757887,138.15113629184248,146.91452543010405,1.0,1.2,-271,19,0,17,268,-13,387.41730213165283,387.41738080978394,387.42091846466064,387.4339978694916,387.5802149772644,387.5802149772644,387.5802149772644,387.5802149772644,387.5802149772644,387.5802149772644,387.5802149772644,389.74423694610596,2,2.3073368072509766,None,,,,,,,,,,,,,,,,,,209,4,2025-03-07_10h02.28.101,comp,2024.2.4,None,2025-03-07 10h02.35.954914 -0500,
114,114,0,critical,dwh,20.0,2.1,upper,141.0,141.0,125.0,200.0,200.0,125.0,3,1.290923833847046,None,,,,,0,0,0,0,0,114,114,31,389.76194405555725,,,,,,,,,,,,,,,,,,,,,,,,,,,,,,,,,,,,,,,,,,,,,,,,,,,,,,,,,,,,,,,,,,,,,,,,,,,,,,,,,141.0,141.0,125.0,200.0,200.0,125.0,2.1,2.11,-266,281,0,260,258,-273,389.7458143234253,389.7458896636963,389.7493534088135,389.76194405555725,389.8989281654358,389.8989281654358,389.8989281654358,389.8989281654358,389.8989281654358,389.8989281654358,389.8989281654358,391.0553698539734,3,1.290923833847046,None,,,,,,,,,,,,,,,,,,209,4,2025-03-07_10h02.28.101,comp,2024.2.4,None,2025-03-07 10h02.35.954914 -0500,
115,115,0,critical,hwd,20.0,2.1,lower,133.0,57.0,57.0,133.0,78.0,78.0,2,2.4180655479431152,None,,,,,0,0,0,0,0,115,115,42,391.07506799697876,,,,,,,,,,,,,,,,,,,,,,,,,,,,,,,,,,,,,,,,,,,,,,,,,,,,,,,,,,,,,,,,,,,,,,,,,,,,,,,,,133.0,57.0,57.0,133.0,78.0,78.0,2.1,2.11,-191,274,0,274,202,-253,391.0568687915802,391.0569431781769,391.0600206851959,391.07506799697876,391.2155222892761,391.2155222892761,391.2155222892761,391.2155222892761,391.2155222892761,391.2155222892761,391.2155222892761,393.49771451950073,2,2.4180655479431152,None,,,,,,,,,,,,,,,,,,209,4,2025-03-07_10h02.28.101,comp,2024.2.4,None,2025-03-07 10h02.35.954914 -0500,
116,116,0,critical,whd,35.0,4.0,upper,125.0,200.0,200.0,125.0,127.0,127.0,2,1.9517462253570557,None,,,,,0,0,0,0,0,116,116,89,393.5171375274658,,,,,,,,,,,,,,,,,,,,,,,,,,,,,,,,,,,,,,,,,,,,,,,,,,,,,,,,,,,,,,,,,,,,,,,,,,,,,,,,,125.0,200.0,200.0,125.0,127.0,127.0,4.0,4.1,-258,-272,0,3,222,-260,393.4992027282715,393.49928188323975,393.50250720977783,393.5171375274658,393.6652479171753,393.6652479171753,393.6652479171753,393.6652479171753,393.6652479171753,393.6652479171753,393.6652479171753,395.47991847991943,2,1.9517462253570557,None,,,,,,,,,,,,,,,,,,209,4,2025-03-07_10h02.28.101,comp,2024.2.4,None,2025-03-07 10h02.35.954914 -0500,
117,117,0,filler_square,None,None,None,None,None,None,None,None,None,None,3,1.813633918762207,None,,,,,0,0,0,0,0,117,117,187,395.4959261417389,,,,,,,,,,,,,,,,,,,,,,,,,,,,,,,,,,,,,,,,,,,,,,,,,,,,,,,,,,,,,,,,,,,,,,,,,,,,,,,,,59.58695263286643,82.02808573366079,68.58347734227081,71.25705126838216,85.2474322272092,85.2474322272092,2.2,2.22,-173,255,0,-286,174,-257,395.48173666000366,395.48181533813477,395.484876871109,395.4959261417389,395.6510570049286,395.6510570049286,395.6510570049286,395.6510570049286,395.6510570049286,395.6510570049286,395.6510570049286,397.3176944255829,3,1.813633918762207,None,,,,,,,,,,,,,,,,,,209,4,2025-03-07_10h02.28.101,comp,2024.2.4,None,2025-03-07 10h02.35.954914 -0500,
118,118,0,critical,hdw,35.0,2.1,upper,200.0,125.0,127.0,127.0,125.0,200.0,3,1.487360954284668,None,,,,,0,0,0,0,0,118,118,45,397.3336217403412,,,,,,,,,,,,,,,,,,,,,,,,,,,,,,,,,,,,,,,,,,,,,,,,,,,,,,,,,,,,,,,,,,,,,,,,,,,,,,,,,200.0,125.0,127.0,127.0,125.0,200.0,2.1,2.11,-222,276,0,262,260,-254,397.31916856765747,397.3192446231842,397.3226068019867,397.3336217403412,397.47586464881897,397.47586464881897,397.47586464881897,397.47586464881897,397.47586464881897,397.47586464881897,397.47586464881897,398.8372120857239,3,1.487360954284668,None,,,,,,,,,,,,,,,,,,209,4,2025-03-07_10h02.28.101,comp,2024.2.4,None,2025-03-07 10h02.35.954914 -0500,
119,119,0,filler_square,None,None,None,None,None,None,None,None,None,None,1,0.89632248878479,None,,,,,0,0,0,0,0,119,119,180,398.8526511192322,,,,,,,,,,,,,,,,,,,,,,,,,,,,,,,,,,,,,,,,,,,,,,,,,,,,,,,,,,,,,,,,,,,,,,,,,,,,,,,,,178.00738360449438,178.00738360449438,62.017756470952236,84.48027382576737,99.78163681968826,113.32484389842853,3.0,3.1,-227,285,0,-7,195,-259,398.8392198085785,398.83930015563965,398.8424143791199,398.8526511192322,399.00034403800964,399.00034403800964,399.00034403800964,399.00034403800964,399.00034403800964,399.00034403800964,399.00034403800964,399.7529709339142,1,0.89632248878479,None,,,,,,,,,,,,,,,,,,209,4,2025-03-07_10h02.28.101,comp,2024.2.4,None,2025-03-07 10h02.35.954914 -0500,
120,120,0,critical,wdh,20.0,3.0,lower,57.0,133.0,78.0,78.0,133.0,57.0,2,2.1863954067230225,None,,,,,0,0,0,0,0,120,120,80,399.7712981700897,,,,,,,,,,,,,,,,,,,,,,,,,,,,,,,,,,,,,,,,,,,,,,,,,,,,,,,,,,,,,,,,,,,,,,,,,,,,,,,,,57.0,133.0,78.0,78.0,133.0,57.0,3.0,3.1,-202,263,0,-11,164,-284,399.7545871734619,399.7546672821045,399.7578082084656,399.7712981700897,399.91769075393677,399.91769075393677,399.91769075393677,399.91769075393677,399.91769075393677,399.91769075393677,399.91769075393677,401.96799635887146,2,2.1863954067230225,None,,,,,,,,,,,,,,,,,,209,4,2025-03-07_10h02.28.101,comp,2024.2.4,None,2025-03-07 10h02.35.954914 -0500,
121,121,0,filler_square,None,None,None,None,None,None,None,None,None,None,1,1.237196445465088,None,,,,,0,0,0,0,0,121,121,172,401.98387455940247,,,,,,,,,,,,,,,,,,,,,,,,,,,,,,,,,,,,,,,,,,,,,,,,,,,,,,,,,,,,,,,,,,,,,,,,,,,,,,,,,162.0749075958649,162.0749075958649,133.76621315740226,108.93814007589182,94.93729445574343,99.90678775250042,4.0,4.1,-232,-267,0,2,200,-253,401.9697597026825,401.96983551979065,401.9733154773712,401.98387455940247,402.13444995880127,402.13444995880127,402.13444995880127,402.13444995880127,402.13444995880127,402.13444995880127,402.13444995880127,403.23510909080505,1,1.237196445465088,None,,,,,,,,,,,,,,,,,,209,4,2025-03-07_10h02.28.101,comp,2024.2.4,None,2025-03-07 10h02.35.954914 -0500,
122,122,0,critical,dwh,35.0,2.1,lower,70.0,70.0,57.0,133.0,133.0,57.0,3,2.7303950786590576,None,,,,,0,0,0,0,0,122,122,4,403.2511305809021,,,,,,,,,,,,,,,,,,,,,,,,,,,,,,,,,,,,,,,,,,,,,,,,,,,,,,,,,,,,,,,,,,,,,,,,,,,,,,,,,70.0,70.0,57.0,133.0,133.0,57.0,2.1,2.12,-198,-282,0,-257,191,252,403.23659920692444,403.23667311668396,403.2408413887024,403.2511305809021,403.40205430984497,403.40205430984497,403.40205430984497,403.40205430984497,403.40205430984497,403.40205430984497,403.40205430984497,405.98578453063965,3,2.7303950786590576,None,,,,,,,,,,,,,,,,,,209,4,2025-03-07_10h02.28.101,comp,2024.2.4,None,2025-03-07 10h02.35.954914 -0500,
123,123,0,filler_random,None,None,None,None,None,None,None,None,None,None,2,1.6747703552246094,None,,,,,0,0,0,0,0,123,123,149,406.00202655792236,,,,,,,,,,,,,,,,,,,,,,,,,,,,,,,,,,,,,,,,,,,,,,,,,,,,,,,,,,,,,,,,,,,,,,,,,,,,,,,,,123.27305825120689,149.63604743189413,178.43226186535736,168.25944745183205,172.80706010246485,97.82553133926831,2.1,2.11,-255,268,0,287,229,-261,405.98765778541565,405.98777747154236,405.99127531051636,406.00202655792236,406.1502764225006,406.1502764225006,406.1502764225006,406.1502764225006,406.1502764225006,406.1502764225006,406.1502764225006,407.6949727535248,2,1.6747703552246094,None,,,,,,,,,,,,,,,,,,209,4,2025-03-07_10h02.28.101,comp,2024.2.4,None,2025-03-07 10h02.35.954914 -0500,
124,124,0,critical,hwd,20.0,2.1,upper,200.0,125.0,125.0,200.0,141.0,141.0,2,2.6338064670562744,None,,,,,0,0,0,0,0,124,124,43,407.7153995037079,,,,,,,,,,,,,,,,,,,,,,,,,,,,,,,,,,,,,,,,,,,,,,,,,,,,,,,,,,,,,,,,,,,,,,,,,,,,,,,,,200.0,125.0,125.0,200.0,141.0,141.0,2.1,2.11,-258,287,0,256,266,-265,407.69657921791077,407.696653842926,407.7000825405121,407.7153995037079,407.8529634475708,407.8529634475708,407.8529634475708,407.8529634475708,407.8529634475708,407.8529634475708,407.8529634475708,410.35395407676697,2,2.6338064670562744,None,,,,,,,,,,,,,,,,,,209,4,2025-03-07_10h02.28.101,comp,2024.2.4,None,2025-03-07 10h02.35.954914 -0500,
125,125,0,critical,dwh,20.0,4.0,upper,141.0,141.0,125.0,200.0,200.0,125.0,2,0.8352210521697998,None,,,,,0,0,0,0,0,125,125,71,410.36979603767395,,,,,,,,,,,,,,,,,,,,,,,,,,,,,,,,,,,,,,,,,,,,,,,,,,,,,,,,,,,,,,,,,,,,,,,,,,,,,,,,,141.0,141.0,125.0,200.0,200.0,125.0,4.0,4.1,-266,-260,0,-19,258,-259,410.3554379940033,410.3555142879486,410.35908794403076,410.36979603767395,410.5190773010254,410.5190773010254,410.5190773010254,410.5190773010254,410.5190773010254,410.5190773010254,410.5190773010254,411.22072410583496,2,0.8352210521697998,None,,,,,,,,,,,,,,,,,,209,4,2025-03-07_10h02.28.101,comp,2024.2.4,None,2025-03-07 10h02.35.954914 -0500,
126,126,0,critical,hwd,35.0,1.0,lower,133.0,57.0,57.0,133.0,70.0,70.0,3,1.5761451721191406,None,,,,,0,0,0,0,0,126,126,96,411.23667097091675,,,,,,,,,,,,,,,,,,,,,,,,,,,,,,,,,,,,,,,,,,,,,,,,,,,,,,,,,,,,,,,,,,,,,,,,,,,,,,,,,133.0,57.0,57.0,133.0,70.0,70.0,1.0,1.1,-671,271,-480,254,-282,277,411.2223789691925,411.22248125076294,411.22614550590515,411.23667097091675,411.38640666007996,411.38640666007996,411.38640666007996,411.38640666007996,411.38640666007996,411.38640666007996,411.38640666007996,412.82239842414856,3,1.5761451721191406,None,,,,,,,,,,,,,,,,,,209,4,2025-03-07_10h02.28.101,comp,2024.2.4,None,2025-03-07 10h02.35.954914 -0500,
127,127,0,critical,dwh,35.0,2.1,upper,127.0,127.0,125.0,200.0,200.0,125.0,3,1.3297483921051025,None,,,,,0,0,0,0,0,127,127,5,412.8380093574524,,,,,,,,,,,,,,,,,,,,,,,,,,,,,,,,,,,,,,,,,,,,,,,,,,,,,,,,,,,,,,,,,,,,,,,,,,,,,,,,,127.0,127.0,125.0,200.0,200.0,125.0,2.1,2.12,-260,-265,0,-280,258,275,412.8239221572876,412.82400155067444,412.82741522789,412.8380093574524,412.98819494247437,412.98819494247437,412.98819494247437,412.98819494247437,412.98819494247437,412.98819494247437,412.98819494247437,414.1697287559509,3,1.3297483921051025,None,,,,,,,,,,,,,,,,,,209,4,2025-03-07_10h02.28.101,comp,2024.2.4,None,2025-03-07 10h02.35.954914 -0500,
128,128,0,critical,wdh,20.0,4.0,lower,57.0,133.0,78.0,78.0,133.0,57.0,3,3.5802249908447266,None,,,,,0,0,0,0,0,128,128,82,414.1847231388092,,,,,,,,,,,,,,,,,,,,,,,,,,,,,,,,,,,,,,,,,,,,,,,,,,,,,,,,,,,,,,,,,,,,,,,,,,,,,,,,,57.0,133.0,78.0,78.0,133.0,57.0,4.0,4.2,-202,-8,0,-260,164,16,414.1713149547577,414.1713881492615,414.17485213279724,414.1847231388092,414.33739495277405,414.33739495277405,414.33739495277405,414.33739495277405,414.33739495277405,414.33739495277405,414.33739495277405,417.77981424331665,3,3.5802249908447266,None,,,,,,,,,,,,,,,,,,209,4,2025-03-07_10h02.28.101,comp,2024.2.4,None,2025-03-07 10h02.35.954914 -0500,
129,129,0,filler_square,None,None,None,None,None,None,None,None,None,None,1,0.9745008945465088,None,,,,,0,0,0,0,0,129,129,179,417.7991943359375,,,,,,,,,,,,,,,,,,,,,,,,,,,,,,,,,,,,,,,,,,,,,,,,,,,,,,,,,,,,,,,,,,,,,,,,,,,,,,,,,192.32135894873272,192.32135894873272,149.30063860694327,177.4957216661935,109.9541068298923,170.5856282805967,4.0,4.2,-281,4,0,-274,270,-14,417.78159403800964,417.7816710472107,417.78482818603516,417.7991943359375,417.9406020641327,417.9406020641327,417.9406020641327,417.9406020641327,417.9406020641327,417.9406020641327,417.9406020641327,418.78090739250183,1,0.9745008945465088,None,,,,,,,,,,,,,,,,,,209,4,2025-03-07_10h02.28.101,comp,2024.2.4,None,2025-03-07 10h02.35.954914 -0500,
130,130,0,critical,dhw,35.0,2.1,upper,127.0,127.0,200.0,125.0,125.0,200.0,2,1.0569748878479004,None,,,,,0,0,0,0,0,130,130,1,418.7960772514343,,,,,,,,,,,,,,,,,,,,,,,,,,,,,,,,,,,,,,,,,,,,,,,,,,,,,,,,,,,,,,,,,,,,,,,,,,,,,,,,,127.0,127.0,200.0,125.0,125.0,200.0,2.1,2.11,-222,269,0,260,258,-252,418.7822997570038,418.7823748588562,418.78544640541077,418.7960772514343,418.93808221817017,418.93808221817017,418.93808221817017,418.93808221817017,418.93808221817017,418.93808221817017,418.93808221817017,419.85675406455994,2,1.0569748878479004,None,,,,,,,,,,,,,,,,,,209,4,2025-03-07_10h02.28.101,comp,2024.2.4,None,2025-03-07 10h02.35.954914 -0500,
131,131,0,filler_square,None,None,None,None,None,None,None,None,None,None,1,2.532994031906128,None,,,,,0,0,0,0,0,131,131,175,419.8726716041565,,,,,,,,,,,,,,,,,,,,,,,,,,,,,,,,,,,,,,,,,,,,,,,,,,,,,,,,,,,,,,,,,,,,,,,,,,,,,,,,,102.52473249866992,102.52473249866992,81.26775576730859,80.03463114578959,82.49264443102237,94.89446953788082,2.1,2.11,-187,255,0,266,183,-285,419.85866594314575,419.85874605178833,419.86212825775146,419.8726716041565,420.0221574306488,420.0221574306488,420.0221574306488,420.0221574306488,420.0221574306488,420.0221574306488,420.0221574306488,422.40999460220337,1,2.532994031906128,None,,,,,,,,,,,,,,,,,,209,4,2025-03-07_10h02.28.101,comp,2024.2.4,None,2025-03-07 10h02.35.954914 -0500,
132,132,0,critical,whd,35.0,2.1,upper,125.0,200.0,200.0,125.0,127.0,127.0,3,1.5474419593811035,None,,,,,0,0,0,0,0,132,132,37,422.425856590271,,,,,,,,,,,,,,,,,,,,,,,,,,,,,,,,,,,,,,,,,,,,,,,,,,,,,,,,,,,,,,,,,,,,,,,,,,,,,,,,,125.0,200.0,200.0,125.0,127.0,127.0,2.1,2.12,-258,-255,0,-264,222,261,422.41182112693787,422.41190099716187,422.4153084754944,422.425856590271,422.5746908187866,422.5746908187866,422.5746908187866,422.5746908187866,422.5746908187866,422.5746908187866,422.5746908187866,423.97537779808044,3,1.5474419593811035,None,,,,,,,,,,,,,,,,,,209,4,2025-03-07_10h02.28.101,comp,2024.2.4,None,2025-03-07 10h02.35.954914 -0500,
133,133,0,critical,hwd,20.0,1.0,lower,133.0,57.0,57.0,133.0,78.0,78.0,2,1.684981346130371,None,,,,,0,0,0,0,0,133,133,102,423.99248027801514,,,,,,,,,,,,,,,,,,,,,,,,,,,,,,,,,,,,,,,,,,,,,,,,,,,,,,,,,,,,,,,,,,,,,,,,,,,,,,,,,133.0,57.0,57.0,133.0,78.0,78.0,1.0,1.2,-191,-4,0,-11,202,8,423.9768958091736,423.97697496414185,423.9803557395935,423.99248027801514,424.1452934741974,424.1452934741974,424.1452934741974,424.1452934741974,424.1452934741974,424.1452934741974,424.1452934741974,425.6835765838623,2,1.684981346130371,None,,,,,,,,,,,,,,,,,,209,4,2025-03-07_10h02.28.101,comp,2024.2.4,None,2025-03-07 10h02.35.954914 -0500,
134,134,0,critical,wdh,20.0,2.1,lower,57.0,133.0,78.0,78.0,133.0,57.0,1,3.644423484802246,None,,,,,0,0,0,0,0,134,134,10,425.70444345474243,,,,,,,,,,,,,,,,,,,,,,,,,,,,,,,,,,,,,,,,,,,,,,,,,,,,,,,,,,,,,,,,,,,,,,,,,,,,,,,,,57.0,133.0,78.0,78.0,133.0,57.0,2.1,2.11,-202,253,0,252,164,-257,425.685186624527,425.6852638721466,425.6888077259064,425.70444345474243,425.84785866737366,425.84785866737366,425.84785866737366,425.84785866737366,425.84785866737366,425.84785866737366,425.84785866737366,429.36389088630676,1,3.644423484802246,None,,,,,,,,,,,,,,,,,,209,4,2025-03-07_10h02.28.101,comp,2024.2.4,None,2025-03-07 10h02.35.954914 -0500,
135,135,0,critical,hdw,35.0,4.0,upper,200.0,125.0,127.0,127.0,125.0,200.0,3,2.146040916442871,None,,,,,0,0,0,0,0,135,135,113,429.3788216114044,,,,,,,,,,,,,,,,,,,,,,,,,,,,,,,,,,,,,,,,,,,,,,,,,,,,,,,,,,,,,,,,,,,,,,,,,,,,,,,,,200.0,125.0,127.0,127.0,125.0,200.0,4.0,4.2,-222,3,0,-273,260,3,429.36547589302063,429.3655710220337,429.36860632896423,429.3788216114044,429.5257067680359,429.5257067680359,429.5257067680359,429.5257067680359,429.5257067680359,429.5257067680359,429.5257067680359,431.52721643447876,3,2.146040916442871,None,,,,,,,,,,,,,,,,,,209,4,2025-03-07_10h02.28.101,comp,2024.2.4,None,2025-03-07 10h02.35.954914 -0500,
136,136,0,catch,None,None,None,None,None,None,None,None,None,None,3,0.9798948764801025,None,,,,,0,0,0,0,0,136,136,125,431.5449345111847,,,,,,,,,,,,,,,,,,,,,,,,,,,,,,,,,,,,,,,,,,,,,,,,,,,,,,,,,,,,,,,,,,,,,,,,,,,,,,,,,91,99,105,85,163,162,3.0,3.2,-188,-268,0,-9,220,261,431.5291976928711,431.52927899360657,431.5334732532501,431.5449345111847,431.6934199333191,431.6934199333191,431.6934199333191,431.6934199333191,431.6934199333191,431.6934199333191,431.6934199333191,432.52872800827026,3,0.9798948764801025,None,,,,,,,,,,,,,,,,,,209,4,2025-03-07_10h02.28.101,comp,2024.2.4,None,2025-03-07 10h02.35.954914 -0500,
137,137,0,filler_random,None,None,None,None,None,None,None,None,None,None,3,1.363900899887085,None,,,,,0,0,0,0,0,137,137,159,432.5449652671814,,,,,,,,,,,,,,,,,,,,,,,,,,,,,,,,,,,,,,,,,,,,,,,,,,,,,,,,,,,,,,,,,,,,,,,,,,,,,,,,,88.13159035809392,132.66746213485754,88.75925784942318,75.1389703244601,85.25497057944119,185.5379391489814,1.0,1.3,280,-287,480,-270,706,-251,432.5307490825653,432.5308542251587,432.53434705734253,432.5449652671814,432.6922821998596,432.6922821998596,432.6922821998596,432.6922821998596,432.6922821998596,432.6922821998596,432.6922821998596,433.9115471839905,3,1.363900899887085,None,,,,,,,,,,,,,,,,,,209,4,2025-03-07_10h02.28.101,comp,2024.2.4,None,2025-03-07 10h02.35.954914 -0500,
138,138,0,filler_square,None,None,None,None,None,None,None,None,None,None,2,0.9176831245422363,None,,,,,0,0,0,0,0,138,138,178,433.92764139175415,,,,,,,,,,,,,,,,,,,,,,,,,,,,,,,,,,,,,,,,,,,,,,,,,,,,,,,,,,,,,,,,,,,,,,,,,,,,,,,,,154.89219625380974,76.0043801085315,162.0071851270219,162.0071851270219,113.57225428355419,106.68048874410486,4.0,4.1,-215,-270,0,0,230,-257,433.91327834129333,433.9133539199829,433.9169068336487,433.92764139175415,434.08425188064575,434.08425188064575,434.08425188064575,434.08425188064575,434.08425188064575,434.08425188064575,434.08425188064575,434.86513805389404,2,0.9176831245422363,None,,,,,,,,,,,,,,,,,,209,4,2025-03-07_10h02.28.101,comp,2024.2.4,None,2025-03-07 10h02.35.954914 -0500,
139,139,0,filler_random,None,None,None,None,None,None,None,None,None,None,3,1.3837189674377441,None,,,,,0,0,0,0,0,139,139,163,434.8851954936981,,,,,,,,,,,,,,,,,,,,,,,,,,,,,,,,,,,,,,,,,,,,,,,,,,,,,,,,,,,,,,,,,,,,,,,,,,,,,,,,,91.0013994927921,92.82702466114358,172.9846534461331,70.7513096471984,144.60744383573848,151.46425192066525,1.0,1.1,-658,280,-480,257,-273,271,434.867139339447,434.8672685623169,434.87054443359375,434.8851954936981,435.0292317867279,435.0292317867279,435.0292317867279,435.0292317867279,435.0292317867279,435.0292317867279,435.0292317867279,436.28645610809326,3,1.3837189674377441,None,,,,,,,,,,,,,,,,,,209,4,2025-03-07_10h02.28.101,comp,2024.2.4,None,2025-03-07 10h02.35.954914 -0500,
140,140,0,catch,None,None,None,None,None,None,None,None,None,None,1,1.1671288013458252,None,,,,,0,0,0,0,0,140,140,122,436.3017828464508,,,,,,,,,,,,,,,,,,,,,,,,,,,,,,,,,,,,,,,,,,,,,,,,,,,,,,,,,,,,,,,,,,,,,,,,,,,,,,,,,169,156,68,122,113,77,4.0,4.1,-235,-289,0,1,196,-251,436.28830313682556,436.2883815765381,436.29141068458557,436.3017828464508,436.44467306137085,436.44467306137085,436.44467306137085,436.44467306137085,436.44467306137085,436.44467306137085,436.44467306137085,437.4829468727112,1,1.1671288013458252,None,,,,,,,,,,,,,,,,,,209,4,2025-03-07_10h02.28.101,comp,2024.2.4,None,2025-03-07 10h02.35.954914 -0500,
141,141,0,filler_random,None,None,None,None,None,None,None,None,None,None,2,0.8157434463500977,None,,,,,0,0,0,0,0,141,141,145,437.50111150741577,,,,,,,,,,,,,,,,,,,,,,,,,,,,,,,,,,,,,,,,,,,,,,,,,,,,,,,,,,,,,,,,,,,,,,,,,,,,,,,,,165.23808044350892,106.1600521164523,185.57655461588487,163.23105732990405,61.529193962562616,123.90419771538744,3.0,3.2,-231,-274,0,-11,240,281,437.48473048210144,437.4848380088806,437.4882538318634,437.50111150741577,437.64685797691345,437.64685797691345,437.64685797691345,437.64685797691345,437.64685797691345,437.64685797691345,437.64685797691345,438.32851457595825,2,0.8157434463500977,None,,,,,,,,,,,,,,,,,,209,4,2025-03-07_10h02.28.101,comp,2024.2.4,None,2025-03-07 10h02.35.954914 -0500,
142,142,0,critical,hwd,20.0,2.1,lower,133.0,57.0,57.0,133.0,78.0,78.0,1,1.4832026958465576,None,,,,,0,0,0,0,0,142,142,18,438.34643363952637,,,,,,,,,,,,,,,,,,,,,,,,,,,,,,,,,,,,,,,,,,,,,,,,,,,,,,,,,,,,,,,,,,,,,,,,,,,,,,,,,133.0,57.0,57.0,133.0,78.0,78.0,2.1,2.11,-191,277,0,270,202,-274,438.3301365375519,438.33025312423706,438.33379077911377,438.34643363952637,438.4971458911896,438.4971458911896,438.4971458911896,438.4971458911896,438.4971458911896,438.4971458911896,438.4971458911896,439.8343687057495,1,1.4832026958465576,None,,,,,,,,,,,,,,,,,,209,4,2025-03-07_10h02.28.101,comp,2024.2.4,None,2025-03-07 10h02.35.954914 -0500,
