thisN,thisTrialN,thisRepN,effect,order,distance,config,diag,h_1,w_1,h_2,w_2,h_3,w_3,rect_choice.keys,rect_choice.rt,rect_choice.duration,instructions_loop.thisRepN,instructions_loop.thisTrialN,instructions_loop.thisN,instructions_loop.thisIndex,blocks.thisRepN,blocks.thisTrialN,blocks.thisN,blocks.thisIndex,trials.thisRepN,trials.thisTrialN,trials.thisN,trials.thisIndex,thisRow.t,notes,consent.started,agree_button.started,decline_button.started,consent_img.started,mouse.started,consent.stopped,agree_button.numClicks,agree_button.timesOn,agree_button.timesOff,decline_button.numClicks,decline_button.timesOn,decline_button.timesOff,mouse.x,mouse.y,mouse.leftButton,mouse.midButton,mouse.rightButton,mouse.time,mouse.clicked_name,exp_params.started,exp_params.stopped,welcome.started,welcome_text.started,welcome.stopped,instructions_1.started,instructions_1_text_1.started,instructions_1_text_2.started,key_resp.started,instructions_1.stopped,instructions_loop.key_resp.keys,instructions_loop.key_resp.rt,instructions_loop.key_resp.duration,instructions_2.started,instructions_2_text_1.started,instructions_2_text_2.started,key_resp_2.started,instructions_2.stopped,instructions_loop.key_resp_2.keys,instructions_loop.key_resp_2.rt,instructions_loop.key_resp_2.duration,instructions_3.started,instructions_3_text_1.started,r1_instr3.started,r2_instr3.started,r3_instr3.started,r1_instr3_label.started,r2_instr3_label.started,r3_instr3_label.started,instructions_3_text_3.started,instructions_3_text_4.started,key_resp_3.started,instructions_3.stopped,instructions_loop.key_resp_3.keys,instructions_loop.key_resp_3.rt,instructions_loop.key_resp_3.duration,instructions_4.started,instructions_4_text_1.started,instructions_4_text_3.started,instructions_4_text_2.started,key_resp_4.started,instructions_4.stopped,instructions_loop.key_resp_4.keys,instructions_loop.key_resp_4.rt,instructions_loop.key_resp_4.duration,instructions_5.started,instructions_5_text_1.started,instructions_5_text_2.started,key_resp_5.started,instructions_5.stopped,instructions_loop.key_resp_5.keys,instructions_loop.key_resp_5.rt,instructions_loop.key_resp_5.duration,start_exp.started,start_exp_text.started,key_resp_6.started,start_exp.stopped,key_resp_6.keys,key_resp_6.rt,key_resp_6.duration,h_1_tmp,w_1_tmp,h_2_tmp,w_2_tmp,h_3_tmp,w_3_tmp,config_tmp,config_tmp_1,r_1_x,r_1_y,r_2_x,r_2_y,r_3_x,r_3_y,pre_trial.started,pre_trial.stopped,choice_trial.started,rect_choice.started,r_1.started,r_2.started,r_3.started,r_1_label.started,r_2_label.started,r_3_label.started,prompt.started,choice_trial.stopped,trials.rect_choice.keys,trials.rect_choice.rt,trials.rect_choice.duration,end_block.started,end_block_text.started,end_block.stopped,end.started,end_text.started,key_resp_7.started,end.stopped,key_resp_7.keys,key_resp_7.rt,key_resp_7.duration,debriefing.started,debrief_form.started,end_debrief.started,debriefing.stopped,end_debrief.keys,end_debrief.rt,end_debrief.duration,participant,computer,date,expName,psychopyVersion,frameRate,expStart,
,,,,,,,,,,,,,,,,,,,,,,,,,,,,,,,0.014960527420043945,0.03853487968444824,0.03853487968444824,0.03853487968444824,0.01476144790649414,15.878237247467041,1,[15.837343215942383],[15.837366342544556],0,,,[-109.0],[-513.0],[1],[0],[0],[15.862691164016724],['agree_button'],,,,,,,,,,,,,,,,,,,,,,,,,,,,,,,,,,,,,,,,,,,,,,,,,,,,,,,,,,,,,,,,,,,,,,,,,,,,,,,,,,,,,,,,,,,,,,,,,,,,,,,,,,,20,4,2025-02-18_15h07.01.174,comp,2024.2.4,57.946302011809465,2025-02-18 15h07.17.424293 -0500,
,,,,,,,,,,,,,,,,,,,,,,,,,,,,,,,,,,,,,,,,,,,,,,,,,,15.878782987594604,15.87885046005249,,,,,,,,,,,,,,,,,,,,,,,,,,,,,,,,,,,,,,,,,,,,,,,,,,,,,,,,,,,,,,,,,,,,,,,,,,,,,,,,,,,,,,,,,,,,,,,,,,,,,,,,,20,4,2025-02-18_15h07.01.174,comp,2024.2.4,57.946302011809465,2025-02-18 15h07.17.424293 -0500,
,,,,,,,,,,,,,,,,,,,,,,,,,,,,,,,,,,,,,,,,,,,,,,,,,,,,15.878891468048096,15.896702289581299,17.882639169692993,,,,,,,,,,,,,,,,,,,,,,,,,,,,,,,,,,,,,,,,,,,,,,,,,,,,,,,,,,,,,,,,,,,,,,,,,,,,,,,,,,,,,,,,,,,,,,,,,,,,,,20,4,2025-02-18_15h07.01.174,comp,2024.2.4,57.946302011809465,2025-02-18 15h07.17.424293 -0500,
0,0,0,,,,,,,,,,,,,,,0,0,0,0,,,,,,,,,17.903406620025635,,,,,,,,,,,,,,,,,,,,,,,,,,17.883739948272705,17.903406620025635,17.903406620025635,19.381133556365967,22.21964716911316,space,2.8210673332214355,None,22.219808101654053,22.23969316482544,22.23969316482544,23.730238437652588,25.24929904937744,space,1.50400972366333,None,25.249480962753296,25.282384395599365,25.282384395599365,25.282384395599365,25.282384395599365,25.282384395599365,25.282384395599365,25.282384395599365,25.282384395599365,25.282384395599365,26.754247665405273,30.516667127609253,space,3.7518765926361084,None,30.51684331893921,30.53603720664978,30.53603720664978,30.53603720664978,32.01408362388611,36.15168118476868,space,4.132883310317993,None,36.15183448791504,36.16724133491516,36.16724133491516,37.65239858627319,37.93708944320679,space,0.26979923248291016,None,37.937286376953125,37.95254039764404,37.95254039764404,39.019628047943115,space,1.0579266548156738,None,,,,,,,,,,,,,,,,,,,,,,,,,,,,,,,,,,,,,,,,,,,,,,,20,4,2025-02-18_15h07.01.174,comp,2024.2.4,57.946302011809465,2025-02-18 15h07.17.424293 -0500,
0,0,0,filler_square,None,None,None,None,None,None,None,None,None,None,2,7.17818284034729,None,,,,,0,0,0,0,0,0,0,173,39.096731424331665,,,,,,,,,,,,,,,,,,,,,,,,,,,,,,,,,,,,,,,,,,,,,,,,,,,,,,,,,,,,,,,,,,,,,,,,,,,,,,,,,69.05659962010694,90.94373413797764,93.2244116317344,93.2244116317344,61.85955959694541,61.886305456393345,3.0,3.2,-188,-282,0,2,174,254,39.07965302467346,39.0796856880188,39.08080053329468,39.096731424331665,39.24444341659546,39.24444341659546,39.24444341659546,39.24444341659546,39.24444341659546,39.24444341659546,39.24444341659546,46.280651569366455,2,7.17818284034729,None,,,,,,,,,,,,,,,,,,20,4,2025-02-18_15h07.01.174,comp,2024.2.4,57.946302011809465,2025-02-18 15h07.17.424293 -0500,
1,1,0,filler_square,None,None,None,None,None,None,None,None,None,None,1,3.6794278621673584,None,,,,,0,0,0,0,0,1,1,189,46.29869747161865,,,,,,,,,,,,,,,,,,,,,,,,,,,,,,,,,,,,,,,,,,,,,,,,,,,,,,,,,,,,,,,,,,,,,,,,,,,,,,,,,77.01040190071839,77.01040190071839,70.51693777369012,65.72959640215444,64.80793093808502,59.17639460234932,2.1,2.11,-167,252,0,278,158,-255,46.28221321105957,46.28226351737976,46.28410029411316,46.29869747161865,46.44123148918152,46.44123148918152,46.44123148918152,46.44123148918152,46.44123148918152,46.44123148918152,46.44123148918152,49.993550539016724,1,3.6794278621673584,None,,,,,,,,,,,,,,,,,,20,4,2025-02-18_15h07.01.174,comp,2024.2.4,57.946302011809465,2025-02-18 15h07.17.424293 -0500,
2,2,0,critical,wdh,35.0,1.0,upper,125.0,200.0,127.0,127.0,200.0,125.0,3,5.03635835647583,None,,,,,0,0,0,0,0,2,2,73,50.01379728317261,,,,,,,,,,,,,,,,,,,,,,,,,,,,,,,,,,,,,,,,,,,,,,,,,,,,,,,,,,,,,,,,,,,,,,,,,,,,,,,,,125.0,200.0,127.0,127.0,200.0,125.0,1.0,1.1,-740,266,-480,267,-258,255,49.99503755569458,49.995112895965576,49.99847674369812,50.01379728317261,50.158141136169434,50.158141136169434,50.158141136169434,50.158141136169434,50.158141136169434,50.158141136169434,50.158141136169434,55.06968665122986,3,5.03635835647583,None,,,,,,,,,,,,,,,,,,20,4,2025-02-18_15h07.01.174,comp,2024.2.4,57.946302011809465,2025-02-18 15h07.17.424293 -0500,
3,3,0,filler_random,None,None,None,None,None,None,None,None,None,None,2,2.5395078659057617,None,,,,,0,0,0,0,0,3,3,151,55.086801290512085,,,,,,,,,,,,,,,,,,,,,,,,,,,,,,,,,,,,,,,,,,,,,,,,,,,,,,,,,,,,,,,,,,,,,,,,,,,,,,,,,81.79675926543541,175.51540581950428,147.99399119574062,128.30624354525804,72.05921888385026,173.7734753439632,1.0,1.2,-248,-18,0,16,247,5,55.07136297225952,55.07144093513489,55.07430171966553,55.086801290512085,55.227043867111206,55.227043867111206,55.227043867111206,55.227043867111206,55.227043867111206,55.227043867111206,55.227043867111206,57.64273428916931,2,2.5395078659057617,None,,,,,,,,,,,,,,,,,,20,4,2025-02-18_15h07.01.174,comp,2024.2.4,57.946302011809465,2025-02-18 15h07.17.424293 -0500,
4,4,0,critical,hwd,20.0,2.1,upper,200.0,125.0,125.0,200.0,141.0,141.0,1,2.2418720722198486,None,,,,,0,0,0,0,0,4,4,43,57.664875745773315,,,,,,,,,,,,,,,,,,,,,,,,,,,,,,,,,,,,,,,,,,,,,,,,,,,,,,,,,,,,,,,,,,,,,,,,,,,,,,,,,200.0,125.0,125.0,200.0,141.0,141.0,2.1,2.12,-258,-263,0,-282,266,279,57.64428400993347,57.64438343048096,57.64747667312622,57.664875745773315,57.81096601486206,57.81096601486206,57.81096601486206,57.81096601486206,57.81096601486206,57.81096601486206,57.81096601486206,59.913508892059326,1,2.2418720722198486,None,,,,,,,,,,,,,,,,,,20,4,2025-02-18_15h07.01.174,comp,2024.2.4,57.946302011809465,2025-02-18 15h07.17.424293 -0500,
5,5,0,critical,hdw,35.0,3.0,upper,200.0,125.0,127.0,127.0,125.0,200.0,3,2.538188934326172,None,,,,,0,0,0,0,0,5,5,111,59.92938566207886,,,,,,,,,,,,,,,,,,,,,,,,,,,,,,,,,,,,,,,,,,,,,,,,,,,,,,,,,,,,,,,,,,,,,,,,,,,,,,,,,200.0,125.0,127.0,127.0,125.0,200.0,3.0,3.1,-222,278,0,19,260,-282,59.91528081893921,59.91539764404297,59.91866374015808,59.92938566207886,60.07766914367676,60.07766914367676,60.07766914367676,60.07766914367676,60.07766914367676,60.07766914367676,60.07766914367676,62.47872829437256,3,2.538188934326172,None,,,,,,,,,,,,,,,,,,20,4,2025-02-18_15h07.01.174,comp,2024.2.4,57.946302011809465,2025-02-18 15h07.17.424293 -0500,
6,6,0,filler_random,None,None,None,None,None,None,None,None,None,None,1,1.571542739868164,None,,,,,0,0,0,0,0,6,6,164,62.49557638168335,,,,,,,,,,,,,,,,,,,,,,,,,,,,,,,,,,,,,,,,,,,,,,,,,,,,,,,,,,,,,,,,,,,,,,,,,,,,,,,,,130.8404893853205,163.41690454614212,75.23957372773931,191.82703606397286,80.10377868940891,196.76293576125502,1.0,1.3,206,-261,480,-259,770,-272,62.48075723648071,62.480883836746216,62.48476576805115,62.49557638168335,62.64615440368652,62.64615440368652,62.64615440368652,62.64615440368652,62.64615440368652,62.64615440368652,62.64615440368652,64.07882165908813,1,1.571542739868164,None,,,,,,,,,,,,,,,,,,20,4,2025-02-18_15h07.01.174,comp,2024.2.4,57.946302011809465,2025-02-18 15h07.17.424293 -0500,
7,7,0,catch,None,None,None,None,None,None,None,None,None,None,3,1.4190874099731445,None,,,,,0,0,0,0,0,7,7,124,64.0951156616211,,,,,,,,,,,,,,,,,,,,,,,,,,,,,,,,,,,,,,,,,,,,,,,,,,,,,,,,,,,,,,,,,,,,,,,,,,,,,,,,,66,124,112,78,146,179,3.0,3.1,-197,289,0,8,224,-277,64.08091139793396,64.08098936080933,64.0844419002533,64.0951156616211,64.24505591392517,64.24505591392517,64.24505591392517,64.24505591392517,64.24505591392517,64.24505591392517,64.24505591392517,65.53055334091187,3,1.4190874099731445,None,,,,,,,,,,,,,,,,,,20,4,2025-02-18_15h07.01.174,comp,2024.2.4,57.946302011809465,2025-02-18 15h07.17.424293 -0500,
8,8,0,critical,dwh,20.0,2.1,lower,78.0,78.0,57.0,133.0,133.0,57.0,2,7.295339345932007,None,,,,,0,0,0,0,0,8,8,6,65.54757308959961,,,,,,,,,,,,,,,,,,,,,,,,,,,,,,,,,,,,,,,,,,,,,,,,,,,,,,,,,,,,,,,,,,,,,,,,,,,,,,,,,78.0,78.0,57.0,133.0,133.0,57.0,2.1,2.12,-202,-266,0,-277,191,258,65.53216576576233,65.53228640556335,65.53571152687073,65.54757308959961,65.70029473304749,65.70029473304749,65.70029473304749,65.70029473304749,65.70029473304749,65.70029473304749,65.70029473304749,72.85142803192139,2,7.295339345932007,None,,,,,,,,,,,,,,,,,,20,4,2025-02-18_15h07.01.174,comp,2024.2.4,57.946302011809465,2025-02-18 15h07.17.424293 -0500,
9,9,0,catch,None,None,None,None,None,None,None,None,None,None,3,1.2690672874450684,None,,,,,0,0,0,0,0,9,9,122,72.86982774734497,,,,,,,,,,,,,,,,,,,,,,,,,,,,,,,,,,,,,,,,,,,,,,,,,,,,,,,,,,,,,,,,,,,,,,,,,,,,,,,,,89,101,77,113,126,199,3.0,3.2,-203,-258,0,-18,252,269,72.85370206832886,72.85378551483154,72.85675477981567,72.86982774734497,73.01463055610657,73.01463055610657,73.01463055610657,73.01463055610657,73.01463055610657,73.01463055610657,73.01463055610657,74.15125226974487,3,1.2690672874450684,None,,,,,,,,,,,,,,,,,,20,4,2025-02-18_15h07.01.174,comp,2024.2.4,57.946302011809465,2025-02-18 15h07.17.424293 -0500,
10,10,0,critical,hwd,20.0,4.0,lower,133.0,57.0,57.0,133.0,78.0,78.0,2,2.96777081489563,None,,,,,0,0,0,0,0,10,10,106,74.17041015625,,,,,,,,,,,,,,,,,,,,,,,,,,,,,,,,,,,,,,,,,,,,,,,,,,,,,,,,,,,,,,,,,,,,,,,,,,,,,,,,,133.0,57.0,57.0,133.0,78.0,78.0,4.0,4.1,-191,-288,0,-19,202,-252,74.15315318107605,74.15329122543335,74.15664005279541,74.17041015625,74.31556797027588,74.31556797027588,74.31556797027588,74.31556797027588,74.31556797027588,74.31556797027588,74.31556797027588,77.14844369888306,2,2.96777081489563,None,,,,,,,,,,,,,,,,,,20,4,2025-02-18_15h07.01.174,comp,2024.2.4,57.946302011809465,2025-02-18 15h07.17.424293 -0500,
11,11,0,critical,hdw,20.0,4.0,upper,200.0,125.0,141.0,141.0,125.0,200.0,3,2.270188093185425,None,,,,,0,0,0,0,0,11,11,119,77.16483664512634,,,,,,,,,,,,,,,,,,,,,,,,,,,,,,,,,,,,,,,,,,,,,,,,,,,,,,,,,,,,,,,,,,,,,,,,,,,,,,,,,200.0,125.0,141.0,141.0,125.0,200.0,4.0,4.2,-229,8,0,-274,266,10,77.14997053146362,77.15004706382751,77.15322136878967,77.16483664512634,77.31637358665466,77.31637358665466,77.31637358665466,77.31637358665466,77.31637358665466,77.31637358665466,77.31637358665466,79.44317197799683,3,2.270188093185425,None,,,,,,,,,,,,,,,,,,20,4,2025-02-18_15h07.01.174,comp,2024.2.4,57.946302011809465,2025-02-18 15h07.17.424293 -0500,
12,12,0,critical,hwd,35.0,3.0,upper,200.0,125.0,125.0,200.0,127.0,127.0,1,1.9831249713897705,None,,,,,0,0,0,0,0,12,12,99,79.4593141078949,,,,,,,,,,,,,,,,,,,,,,,,,,,,,,,,,,,,,,,,,,,,,,,,,,,,,,,,,,,,,,,,,,,,,,,,,,,,,,,,,200.0,125.0,125.0,200.0,127.0,127.0,3.0,3.2,-258,-277,0,17,260,269,79.44468975067139,79.44476699829102,79.44765949249268,79.4593141078949,79.60081839561462,79.60081839561462,79.60081839561462,79.60081839561462,79.60081839561462,79.60081839561462,79.60081839561462,81.45102429389954,1,1.9831249713897705,None,,,,,,,,,,,,,,,,,,20,4,2025-02-18_15h07.01.174,comp,2024.2.4,57.946302011809465,2025-02-18 15h07.17.424293 -0500,
13,13,0,filler_random,None,None,None,None,None,None,None,None,None,None,2,0.8864388465881348,None,,,,,0,0,0,0,0,13,13,134,81.4679262638092,,,,,,,,,,,,,,,,,,,,,,,,,,,,,,,,,,,,,,,,,,,,,,,,,,,,,,,,,,,,,,,,,,,,,,,,,,,,,,,,,128.07171970777196,59.60872035183895,169.40442920367832,157.04037906516743,199.79115447414594,63.348255027311254,3.0,3.2,-204,-278,0,1,206,260,81.45278835296631,81.45286631584167,81.45637369155884,81.4679262638092,81.61554312705994,81.61554312705994,81.61554312705994,81.61554312705994,81.61554312705994,81.61554312705994,81.61554312705994,82.36900615692139,2,0.8864388465881348,None,,,,,,,,,,,,,,,,,,20,4,2025-02-18_15h07.01.174,comp,2024.2.4,57.946302011809465,2025-02-18 15h07.17.424293 -0500,
14,14,0,critical,dwh,35.0,2.1,lower,70.0,70.0,57.0,133.0,133.0,57.0,2,2.26611328125,None,,,,,0,0,0,0,0,14,14,4,82.38476729393005,,,,,,,,,,,,,,,,,,,,,,,,,,,,,,,,,,,,,,,,,,,,,,,,,,,,,,,,,,,,,,,,,,,,,,,,,,,,,,,,,70.0,70.0,57.0,133.0,133.0,57.0,2.1,2.11,-198,284,0,276,191,-266,82.37060642242432,82.37068438529968,82.37452721595764,82.38476729393005,82.53351354598999,82.53351354598999,82.53351354598999,82.53351354598999,82.53351354598999,82.53351354598999,82.53351354598999,84.65372109413147,2,2.26611328125,None,,,,,,,,,,,,,,,,,,20,4,2025-02-18_15h07.01.174,comp,2024.2.4,57.946302011809465,2025-02-18 15h07.17.424293 -0500,
15,15,0,filler_square,None,None,None,None,None,None,None,None,None,None,2,0.9476068019866943,None,,,,,0,0,0,0,0,15,15,171,84.67058801651001,,,,,,,,,,,,,,,,,,,,,,,,,,,,,,,,,,,,,,,,,,,,,,,,,,,,,,,,,,,,,,,,,,,,,,,,,,,,,,,,,73.71622018665674,76.49601054601976,102.22295096164149,102.22295096164149,97.58535093179295,70.28555307044446,3.0,3.2,-185,-256,0,-2,182,269,84.6560571193695,84.65614104270935,84.65968656539917,84.67058801651001,84.81826329231262,84.81826329231262,84.81826329231262,84.81826329231262,84.81826329231262,84.81826329231262,84.81826329231262,85.6338906288147,2,0.9476068019866943,None,,,,,,,,,,,,,,,,,,20,4,2025-02-18_15h07.01.174,comp,2024.2.4,57.946302011809465,2025-02-18 15h07.17.424293 -0500,
16,16,0,critical,whd,35.0,2.1,lower,57.0,133.0,133.0,57.0,70.0,70.0,2,2.624718427658081,None,,,,,0,0,0,0,0,16,16,12,85.65116238594055,,,,,,,,,,,,,,,,,,,,,,,,,,,,,,,,,,,,,,,,,,,,,,,,,,,,,,,,,,,,,,,,,,,,,,,,,,,,,,,,,57.0,133.0,133.0,57.0,70.0,70.0,2.1,2.12,-191,-254,0,-286,160,272,85.63544845581055,85.63552498817444,85.63850617408752,85.65116238594055,85.78791999816895,85.78791999816895,85.78791999816895,85.78791999816895,85.78791999816895,85.78791999816895,85.78791999816895,88.28677034378052,2,2.624718427658081,None,,,,,,,,,,,,,,,,,,20,4,2025-02-18_15h07.01.174,comp,2024.2.4,57.946302011809465,2025-02-18 15h07.17.424293 -0500,
17,17,0,critical,whd,35.0,4.0,lower,57.0,133.0,133.0,57.0,70.0,70.0,2,2.3955790996551514,None,,,,,0,0,0,0,0,17,17,88,88.30288076400757,,,,,,,,,,,,,,,,,,,,,,,,,,,,,,,,,,,,,,,,,,,,,,,,,,,,,,,,,,,,,,,,,,,,,,,,,,,,,,,,,57.0,133.0,133.0,57.0,70.0,70.0,4.0,4.2,-191,3,0,-257,160,-7,88.2882628440857,88.28836846351624,88.2918848991394,88.30288076400757,88.45216178894043,88.45216178894043,88.45216178894043,88.45216178894043,88.45216178894043,88.45216178894043,88.45216178894043,90.70776081085205,2,2.3955790996551514,None,,,,,,,,,,,,,,,,,,20,4,2025-02-18_15h07.01.174,comp,2024.2.4,57.946302011809465,2025-02-18 15h07.17.424293 -0500,
18,18,0,catch,None,None,None,None,None,None,None,None,None,None,3,1.1619148254394531,None,,,,,0,0,0,0,0,18,18,121,90.72862482070923,,,,,,,,,,,,,,,,,,,,,,,,,,,,,,,,,,,,,,,,,,,,,,,,,,,,,,,,,,,,,,,,,,,,,,,,,,,,,,,,,60,130,105,85,135,190,3.0,3.2,-204,-253,0,19,234,288,90.70992159843445,90.71002221107483,90.71293210983276,90.72862482070923,90.8718671798706,90.8718671798706,90.8718671798706,90.8718671798706,90.8718671798706,90.8718671798706,90.8718671798706,91.8949282169342,3,1.1619148254394531,None,,,,,,,,,,,,,,,,,,20,4,2025-02-18_15h07.01.174,comp,2024.2.4,57.946302011809465,2025-02-18 15h07.17.424293 -0500,
19,19,0,critical,whd,35.0,2.1,lower,57.0,133.0,133.0,57.0,70.0,70.0,2,2.5953681468963623,None,,,,,0,0,0,0,0,19,19,36,91.91077899932861,,,,,,,,,,,,,,,,,,,,,,,,,,,,,,,,,,,,,,,,,,,,,,,,,,,,,,,,,,,,,,,,,,,,,,,,,,,,,,,,,57.0,133.0,133.0,57.0,70.0,70.0,2.1,2.12,-191,-282,0,-252,160,276,91.89656400680542,91.89668107032776,91.89999008178711,91.91077899932861,92.05441522598267,92.05441522598267,92.05441522598267,92.05441522598267,92.05441522598267,92.05441522598267,92.05441522598267,94.52147269248962,2,2.5953681468963623,None,,,,,,,,,,,,,,,,,,20,4,2025-02-18_15h07.01.174,comp,2024.2.4,57.946302011809465,2025-02-18 15h07.17.424293 -0500,
20,20,0,filler_square,None,None,None,None,None,None,None,None,None,None,1,1.4821498394012451,None,,,,,0,0,0,0,0,20,20,180,94.53641152381897,,,,,,,,,,,,,,,,,,,,,,,,,,,,,,,,,,,,,,,,,,,,,,,,,,,,,,,,,,,,,,,,,,,,,,,,,,,,,,,,,82.8471514209314,82.8471514209314,78.74624048451393,59.97377087557328,60.002115307172296,74.80378422034394,2.2,2.21,-167,-262,0,283,163,282,94.52331066131592,94.52346992492676,94.52692604064941,94.53641152381897,94.6871747970581,94.6871747970581,94.6871747970581,94.6871747970581,94.6871747970581,94.6871747970581,94.6871747970581,96.0231819152832,1,1.4821498394012451,None,,,,,,,,,,,,,,,,,,20,4,2025-02-18_15h07.01.174,comp,2024.2.4,57.946302011809465,2025-02-18 15h07.17.424293 -0500,
21,21,0,critical,hwd,20.0,1.0,upper,200.0,125.0,125.0,200.0,141.0,141.0,1,2.683591842651367,None,,,,,0,0,0,0,0,21,21,103,96.03906083106995,,,,,,,,,,,,,,,,,,,,,,,,,,,,,,,,,,,,,,,,,,,,,,,,,,,,,,,,,,,,,,,,,,,,,,,,,,,,,,,,,200.0,125.0,125.0,200.0,141.0,141.0,1.0,1.1,-738,271,-480,289,-214,255,96.02478122711182,96.02485799789429,96.02822422981262,96.03906083106995,96.19140601158142,96.19140601158142,96.19140601158142,96.19140601158142,96.19140601158142,96.19140601158142,96.19140601158142,98.72774767875671,1,2.683591842651367,None,,,,,,,,,,,,,,,,,,20,4,2025-02-18_15h07.01.174,comp,2024.2.4,57.946302011809465,2025-02-18 15h07.17.424293 -0500,
22,22,0,filler_random,None,None,None,None,None,None,None,None,None,None,1,1.6629986763000488,None,,,,,0,0,0,0,0,22,22,148,98.7473566532135,,,,,,,,,,,,,,,,,,,,,,,,,,,,,,,,,,,,,,,,,,,,,,,,,,,,,,,,,,,,,,,,,,,,,,,,,,,,,,,,,89.34811840538319,159.04015617509634,89.93441026197492,65.12344984017967,87.00924207757011,173.55275939157838,2.2,2.21,-208,-271,0,259,215,266,98.7294864654541,98.72956323623657,98.732492685318,98.7473566532135,98.89042973518372,98.89042973518372,98.89042973518372,98.89042973518372,98.89042973518372,98.89042973518372,98.89042973518372,100.4237380027771,1,1.6629986763000488,None,,,,,,,,,,,,,,,,,,20,4,2025-02-18_15h07.01.174,comp,2024.2.4,57.946302011809465,2025-02-18 15h07.17.424293 -0500,
23,23,0,critical,dhw,20.0,2.1,lower,78.0,78.0,133.0,57.0,57.0,133.0,2,4.498584508895874,None,,,,,0,0,0,0,0,23,23,2,100.43991208076477,,,,,,,,,,,,,,,,,,,,,,,,,,,,,,,,,,,,,,,,,,,,,,,,,,,,,,,,,,,,,,,,,,,,,,,,,,,,,,,,,78.0,78.0,133.0,57.0,57.0,133.0,2.1,2.12,-164,-259,0,-268,191,286,100.42543864250183,100.42551374435425,100.4296042919159,100.43991208076477,100.59094381332397,100.59094381332397,100.59094381332397,100.59094381332397,100.59094381332397,100.59094381332397,100.59094381332397,104.95771837234497,2,4.498584508895874,None,,,,,,,,,,,,,,,,,,20,4,2025-02-18_15h07.01.174,comp,2024.2.4,57.946302011809465,2025-02-18 15h07.17.424293 -0500,
24,24,0,filler_random,None,None,None,None,None,None,None,None,None,None,2,0.9244592189788818,None,,,,,0,0,0,0,0,24,24,154,104.97604465484619,,,,,,,,,,,,,,,,,,,,,,,,,,,,,,,,,,,,,,,,,,,,,,,,,,,,,,,,,,,,,,,,,,,,,,,,,,,,,,,,,95.71696925568082,89.93843822276776,193.7820716424708,155.08938824946176,155.46696988558892,99.63923394460846,4.0,4.1,-219,-266,0,-2,223,-277,104.95937371253967,104.9594521522522,104.96271347999573,104.97604465484619,105.12641549110413,105.12641549110413,105.12641549110413,105.12641549110413,105.12641549110413,105.12641549110413,105.12641549110413,105.91217160224915,2,0.9244592189788818,None,,,,,,,,,,,,,,,,,,20,4,2025-02-18_15h07.01.174,comp,2024.2.4,57.946302011809465,2025-02-18 15h07.17.424293 -0500,
25,25,0,filler_random,None,None,None,None,None,None,None,None,None,None,2,0.9616901874542236,None,,,,,0,0,0,0,0,25,25,166,105.92845940589905,,,,,,,,,,,,,,,,,,,,,,,,,,,,,,,,,,,,,,,,,,,,,,,,,,,,,,,,,,,,,,,,,,,,,,,,,,,,,,,,,188.09126566338233,104.13738255984129,192.37949989965415,153.56080825588333,154.41052208345832,98.1488854186376,2.2,2.22,-225,265,0,-268,222,-281,105.91392779350281,105.91404938697815,105.91775941848755,105.92845940589905,106.07530641555786,106.07530641555786,106.07530641555786,106.07530641555786,106.07530641555786,106.07530641555786,106.07530641555786,106.89319443702698,2,0.9616901874542236,None,,,,,,,,,,,,,,,,,,20,4,2025-02-18_15h07.01.174,comp,2024.2.4,57.946302011809465,2025-02-18 15h07.17.424293 -0500,
26,26,0,filler_random,None,None,None,None,None,None,None,None,None,None,1,1.5566902160644531,None,,,,,0,0,0,0,0,26,26,144,106.90960216522217,,,,,,,,,,,,,,,,,,,,,,,,,,,,,,,,,,,,,,,,,,,,,,,,,,,,,,,,,,,,,,,,,,,,,,,,,,,,,,,,,194.03825266376992,136.0319759631725,133.99161655479247,93.45556921859725,197.11582158830268,148.74819474485903,2.2,2.21,-211,-268,0,286,217,285,106.89528727531433,106.89541172981262,106.8988389968872,106.90960216522217,107.06581997871399,107.06581997871399,107.06581997871399,107.06581997871399,107.06581997871399,107.06581997871399,107.06581997871399,108.47728538513184,1,1.5566902160644531,None,,,,,,,,,,,,,,,,,,20,4,2025-02-18_15h07.01.174,comp,2024.2.4,57.946302011809465,2025-02-18 15h07.17.424293 -0500,
27,27,0,critical,hwd,35.0,4.0,upper,200.0,125.0,125.0,200.0,127.0,127.0,2,1.3729960918426514,None,,,,,0,0,0,0,0,27,27,101,108.49352049827576,,,,,,,,,,,,,,,,,,,,,,,,,,,,,,,,,,,,,,,,,,,,,,,,,,,,,,,,,,,,,,,,,,,,,,,,,,,,,,,,,200.0,125.0,125.0,200.0,127.0,127.0,4.0,4.2,-258,-11,0,-267,260,-15,108.47888994216919,108.47900080680847,108.48284196853638,108.49352049827576,108.6409080028534,108.6409080028534,108.6409080028534,108.6409080028534,108.6409080028534,108.6409080028534,108.6409080028534,109.8757951259613,2,1.3729960918426514,None,,,,,,,,,,,,,,,,,,20,4,2025-02-18_15h07.01.174,comp,2024.2.4,57.946302011809465,2025-02-18 15h07.17.424293 -0500,
28,28,0,filler_random,None,None,None,None,None,None,None,None,None,None,3,1.161820888519287,None,,,,,0,0,0,0,0,28,28,158,109.89632248878479,,,,,,,,,,,,,,,,,,,,,,,,,,,,,,,,,,,,,,,,,,,,,,,,,,,,,,,,,,,,,,,,,,,,,,,,,,,,,,,,,174.83914184609387,133.86354104422514,93.94125074817802,120.99325078709458,184.49070342119333,183.6424215598254,2.1,2.12,-223,-269,0,-286,248,271,109.87756991386414,109.87764978408813,109.8808765411377,109.89632248878479,110.04323315620422,110.04323315620422,110.04323315620422,110.04323315620422,110.04323315620422,110.04323315620422,110.04323315620422,111.07735419273376,3,1.161820888519287,None,,,,,,,,,,,,,,,,,,20,4,2025-02-18_15h07.01.174,comp,2024.2.4,57.946302011809465,2025-02-18 15h07.17.424293 -0500,
29,29,0,filler_square,None,None,None,None,None,None,None,None,None,None,2,1.2993121147155762,None,,,,,0,0,0,0,0,29,29,197,111.09537482261658,,,,,,,,,,,,,,,,,,,,,,,,,,,,,,,,,,,,,,,,,,,,,,,,,,,,,,,,,,,,,,,,,,,,,,,,,,,,,,,,,94.04217413600553,95.3668330266554,96.14923409330525,96.14923409330525,91.67008315753355,73.84164485216453,2.2,2.22,-192,263,0,-286,181,-269,111.07936525344849,111.07944536209106,111.08266019821167,111.09537482261658,111.2441234588623,111.2441234588623,111.2441234588623,111.2441234588623,111.2441234588623,111.2441234588623,111.2441234588623,112.39883732795715,2,1.2993121147155762,None,,,,,,,,,,,,,,,,,,20,4,2025-02-18_15h07.01.174,comp,2024.2.4,57.946302011809465,2025-02-18 15h07.17.424293 -0500,
30,30,0,critical,hwd,35.0,3.0,lower,133.0,57.0,57.0,133.0,70.0,70.0,1,2.2274019718170166,None,,,,,0,0,0,0,0,30,30,98,112.41480612754822,,,,,,,,,,,,,,,,,,,,,,,,,,,,,,,,,,,,,,,,,,,,,,,,,,,,,,,,,,,,,,,,,,,,,,,,,,,,,,,,,133.0,57.0,57.0,133.0,70.0,70.0,3.0,3.1,-191,261,0,7,198,-252,112.4005274772644,112.4006290435791,112.40401697158813,112.41480612754822,112.5595338344574,112.5595338344574,112.5595338344574,112.5595338344574,112.5595338344574,112.5595338344574,112.5595338344574,114.64639377593994,1,2.2274019718170166,None,,,,,,,,,,,,,,,,,,20,4,2025-02-18_15h07.01.174,comp,2024.2.4,57.946302011809465,2025-02-18 15h07.17.424293 -0500,
31,31,0,critical,dwh,35.0,4.0,lower,70.0,70.0,57.0,133.0,133.0,57.0,2,1.3073551654815674,None,,,,,0,0,0,0,0,31,31,64,114.66283106803894,,,,,,,,,,,,,,,,,,,,,,,,,,,,,,,,,,,,,,,,,,,,,,,,,,,,,,,,,,,,,,,,,,,,,,,,,,,,,,,,,70.0,70.0,57.0,133.0,133.0,57.0,4.0,4.2,-198,-8,0,-272,191,15,114.64807558059692,114.64815306663513,114.65207362174988,114.66283106803894,114.81106066703796,114.81106066703796,114.81106066703796,114.81106066703796,114.81106066703796,114.81106066703796,114.81106066703796,115.98099112510681,2,1.3073551654815674,None,,,,,,,,,,,,,,,,,,20,4,2025-02-18_15h07.01.174,comp,2024.2.4,57.946302011809465,2025-02-18 15h07.17.424293 -0500,
32,32,0,critical,whd,35.0,2.1,upper,125.0,200.0,200.0,125.0,127.0,127.0,2,1.1717824935913086,None,,,,,0,0,0,0,0,32,32,37,115.9983069896698,,,,,,,,,,,,,,,,,,,,,,,,,,,,,,,,,,,,,,,,,,,,,,,,,,,,,,,,,,,,,,,,,,,,,,,,,,,,,,,,,125.0,200.0,200.0,125.0,127.0,127.0,2.1,2.11,-258,261,0,283,222,-279,115.98284244537354,115.98292446136475,115.98661398887634,115.9983069896698,116.13378858566284,116.13378858566284,116.13378858566284,116.13378858566284,116.13378858566284,116.13378858566284,116.13378858566284,117.18299174308777,2,1.1717824935913086,None,,,,,,,,,,,,,,,,,,20,4,2025-02-18_15h07.01.174,comp,2024.2.4,57.946302011809465,2025-02-18 15h07.17.424293 -0500,
33,33,0,critical,hwd,20.0,2.1,upper,200.0,125.0,125.0,200.0,141.0,141.0,1,2.4454848766326904,None,,,,,0,0,0,0,0,33,33,19,117.19704246520996,,,,,,,,,,,,,,,,,,,,,,,,,,,,,,,,,,,,,,,,,,,,,,,,,,,,,,,,,,,,,,,,,,,,,,,,,,,,,,,,,200.0,125.0,125.0,200.0,141.0,141.0,2.1,2.12,-258,-256,0,-266,266,272,117.18467855453491,117.18475079536438,117.18766617774963,117.19704246520996,117.34646463394165,117.34646463394165,117.34646463394165,117.34646463394165,117.34646463394165,117.34646463394165,117.34646463394165,119.66645908355713,1,2.4454848766326904,None,,,,,,,,,,,,,,,,,,20,4,2025-02-18_15h07.01.174,comp,2024.2.4,57.946302011809465,2025-02-18 15h07.17.424293 -0500,
34,34,0,critical,hdw,20.0,4.0,lower,133.0,57.0,78.0,78.0,57.0,133.0,1,2.949695587158203,None,,,,,0,0,0,0,0,34,34,118,119.68497395515442,,,,,,,,,,,,,,,,,,,,,,,,,,,,,,,,,,,,,,,,,,,,,,,,,,,,,,,,,,,,,,,,,,,,,,,,,,,,,,,,,133.0,57.0,78.0,78.0,57.0,133.0,4.0,4.1,-164,-284,0,2,202,-288,119.66815733909607,119.66826057434082,119.67129492759705,119.68497395515442,119.8349871635437,119.8349871635437,119.8349871635437,119.8349871635437,119.8349871635437,119.8349871635437,119.8349871635437,122.64829111099243,1,2.949695587158203,None,,,,,,,,,,,,,,,,,,20,4,2025-02-18_15h07.01.174,comp,2024.2.4,57.946302011809465,2025-02-18 15h07.17.424293 -0500,
35,35,0,critical,wdh,20.0,2.1,lower,57.0,133.0,78.0,78.0,133.0,57.0,3,1.9222259521484375,None,,,,,0,0,0,0,0,35,35,34,122.66442728042603,,,,,,,,,,,,,,,,,,,,,,,,,,,,,,,,,,,,,,,,,,,,,,,,,,,,,,,,,,,,,,,,,,,,,,,,,,,,,,,,,57.0,133.0,78.0,78.0,133.0,57.0,2.1,2.12,-202,-262,0,-269,164,283,122.65003180503845,122.65016460418701,122.65381002426147,122.66442728042603,122.81300449371338,122.81300449371338,122.81300449371338,122.81300449371338,122.81300449371338,122.81300449371338,122.81300449371338,124.60385942459106,3,1.9222259521484375,None,,,,,,,,,,,,,,,,,,20,4,2025-02-18_15h07.01.174,comp,2024.2.4,57.946302011809465,2025-02-18 15h07.17.424293 -0500,
36,36,0,critical,wdh,20.0,4.0,lower,57.0,133.0,78.0,78.0,133.0,57.0,3,1.8154408931732178,None,,,,,0,0,0,0,0,36,36,82,124.61945056915283,,,,,,,,,,,,,,,,,,,,,,,,,,,,,,,,,,,,,,,,,,,,,,,,,,,,,,,,,,,,,,,,,,,,,,,,,,,,,,,,,57.0,133.0,78.0,78.0,133.0,57.0,4.0,4.2,-202,-9,0,-252,164,-1,124.60532116889954,124.6054208278656,124.60827946662903,124.61945056915283,124.76431632041931,124.76431632041931,124.76431632041931,124.76431632041931,124.76431632041931,124.76431632041931,124.76431632041931,126.44181370735168,3,1.8154408931732178,None,,,,,,,,,,,,,,,,,,20,4,2025-02-18_15h07.01.174,comp,2024.2.4,57.946302011809465,2025-02-18 15h07.17.424293 -0500,
37,37,0,critical,wdh,35.0,4.0,upper,125.0,200.0,127.0,127.0,200.0,125.0,3,1.6799616813659668,None,,,,,0,0,0,0,0,37,37,77,126.45943665504456,,,,,,,,,,,,,,,,,,,,,,,,,,,,,,,,,,,,,,,,,,,,,,,,,,,,,,,,,,,,,,,,,,,,,,,,,,,,,,,,,125.0,200.0,127.0,127.0,200.0,125.0,4.0,4.1,-260,-281,0,-15,222,-252,126.44344568252563,126.44351744651794,126.44677662849426,126.45943665504456,126.60095691680908,126.60095691680908,126.60095691680908,126.60095691680908,126.60095691680908,126.60095691680908,126.60095691680908,128.14972710609436,3,1.6799616813659668,None,,,,,,,,,,,,,,,,,,20,4,2025-02-18_15h07.01.174,comp,2024.2.4,57.946302011809465,2025-02-18 15h07.17.424293 -0500,
38,38,0,filler_square,None,None,None,None,None,None,None,None,None,None,3,0.9560227394104004,None,,,,,0,0,0,0,0,38,38,190,128.1668553352356,,,,,,,,,,,,,,,,,,,,,,,,,,,,,,,,,,,,,,,,,,,,,,,,,,,,,,,,,,,,,,,,,,,,,,,,,,,,,,,,,66.49608859851227,97.94789762315031,84.57292837470736,105.36384349536942,185.04058875237132,185.04058875237132,2.2,2.22,-198,261,0,-255,241,-273,128.15155386924744,128.1516308784485,128.15555953979492,128.1668553352356,128.31723594665527,128.31723594665527,128.31723594665527,128.31723594665527,128.31723594665527,128.31723594665527,128.31723594665527,129.13374662399292,3,0.9560227394104004,None,,,,,,,,,,,,,,,,,,20,4,2025-02-18_15h07.01.174,comp,2024.2.4,57.946302011809465,2025-02-18 15h07.17.424293 -0500,
39,39,0,filler_square,None,None,None,None,None,None,None,None,None,None,2,0.8294436931610107,None,,,,,0,0,0,0,0,39,39,205,129.14954376220703,,,,,,,,,,,,,,,,,,,,,,,,,,,,,,,,,,,,,,,,,,,,,,,,,,,,,,,,,,,,,,,,,,,,,,,,,,,,,,,,,88.21316937677636,68.18081677796758,107.52513430761385,107.52513430761385,57.97784591525172,66.38689977485801,4.0,4.1,-184,-273,0,16,183,-271,129.1355848312378,129.1356599330902,129.1389229297638,129.14954376220703,129.30207586288452,129.30207586288452,129.30207586288452,129.30207586288452,129.30207586288452,129.30207586288452,129.30207586288452,129.9848849773407,2,0.8294436931610107,None,,,,,,,,,,,,,,,,,,20,4,2025-02-18_15h07.01.174,comp,2024.2.4,57.946302011809465,2025-02-18 15h07.17.424293 -0500,
40,40,0,filler_random,None,None,None,None,None,None,None,None,None,None,1,0.9492020606994629,None,,,,,0,0,0,0,0,40,40,155,130.00526905059814,,,,,,,,,,,,,,,,,,,,,,,,,,,,,,,,,,,,,,,,,,,,,,,,,,,,,,,,,,,,,,,,,,,,,,,,,,,,,,,,,191.83603185644264,198.35249429544749,117.26343256987475,126.49676028243867,116.10401422185228,151.76705053946233,3.0,3.2,-258,-282,0,-19,235,283,129.98670363426208,129.98678374290466,129.9897117614746,130.00526905059814,130.1489133834839,130.1489133834839,130.1489133834839,130.1489133834839,130.1489133834839,130.1489133834839,130.1489133834839,130.9592936038971,1,0.9492020606994629,None,,,,,,,,,,,,,,,,,,20,4,2025-02-18_15h07.01.174,comp,2024.2.4,57.946302011809465,2025-02-18 15h07.17.424293 -0500,
41,41,0,critical,dhw,35.0,4.0,lower,70.0,70.0,133.0,57.0,57.0,133.0,2,1.069610595703125,None,,,,,0,0,0,0,0,41,41,52,130.9744508266449,,,,,,,,,,,,,,,,,,,,,,,,,,,,,,,,,,,,,,,,,,,,,,,,,,,,,,,,,,,,,,,,,,,,,,,,,,,,,,,,,70.0,70.0,133.0,57.0,57.0,133.0,4.0,4.1,-160,-280,0,5,191,-269,130.96077299118042,130.9608495235443,130.96369171142578,130.9744508266449,131.11701560020447,131.11701560020447,131.11701560020447,131.11701560020447,131.11701560020447,131.11701560020447,131.11701560020447,132.046888589859,2,1.069610595703125,None,,,,,,,,,,,,,,,,,,20,4,2025-02-18_15h07.01.174,comp,2024.2.4,57.946302011809465,2025-02-18 15h07.17.424293 -0500,
42,42,0,critical,wdh,20.0,1.0,upper,125.0,200.0,141.0,141.0,200.0,125.0,3,2.177638292312622,None,,,,,0,0,0,0,0,42,42,79,132.064537525177,,,,,,,,,,,,,,,,,,,,,,,,,,,,,,,,,,,,,,,,,,,,,,,,,,,,,,,,,,,,,,,,,,,,,,,,,,,,,,,,,125.0,200.0,141.0,141.0,200.0,125.0,1.0,1.2,-266,-5,0,-6,229,6,132.0484058856964,132.04848289489746,132.0513825416565,132.064537525177,132.22025513648987,132.22025513648987,132.22025513648987,132.22025513648987,132.22025513648987,132.22025513648987,132.22025513648987,134.25109577178955,3,2.177638292312622,None,,,,,,,,,,,,,,,,,,20,4,2025-02-18_15h07.01.174,comp,2024.2.4,57.946302011809465,2025-02-18 15h07.17.424293 -0500,
43,43,0,critical,hdw,35.0,2.1,lower,133.0,57.0,70.0,70.0,57.0,133.0,3,1.8723475933074951,None,,,,,0,0,0,0,0,43,43,44,134.2659730911255,,,,,,,,,,,,,,,,,,,,,,,,,,,,,,,,,,,,,,,,,,,,,,,,,,,,,,,,,,,,,,,,,,,,,,,,,,,,,,,,,133.0,57.0,70.0,70.0,57.0,133.0,2.1,2.11,-160,287,0,281,198,-289,134.2526776790619,134.25275540351868,134.25607347488403,134.2659730911255,134.41630482673645,134.41630482673645,134.41630482673645,134.41630482673645,134.41630482673645,134.41630482673645,134.41630482673645,136.15083241462708,3,1.8723475933074951,None,,,,,,,,,,,,,,,,,,20,4,2025-02-18_15h07.01.174,comp,2024.2.4,57.946302011809465,2025-02-18 15h07.17.424293 -0500,
44,44,0,filler_square,None,None,None,None,None,None,None,None,None,None,1,1.0432381629943848,None,,,,,0,0,0,0,0,44,44,193,136.16699051856995,,,,,,,,,,,,,,,,,,,,,,,,,,,,,,,,,,,,,,,,,,,,,,,,,,,,,,,,,,,,,,,,,,,,,,,,,,,,,,,,,171.3675731180528,171.3675731180528,127.29810445790149,58.868117476083114,157.1294614216295,73.39151484694342,4.0,4.2,-211,20,0,-268,162,-1,136.15254426002502,136.15261673927307,136.15569233894348,136.16699051856995,136.31510472297668,136.31510472297668,136.31510472297668,136.31510472297668,136.31510472297668,136.31510472297668,136.31510472297668,137.23085808753967,1,1.0432381629943848,None,,,,,,,,,,,,,,,,,,20,4,2025-02-18_15h07.01.174,comp,2024.2.4,57.946302011809465,2025-02-18 15h07.17.424293 -0500,
45,45,0,critical,wdh,35.0,1.0,lower,57.0,133.0,70.0,70.0,133.0,57.0,3,1.0083141326904297,None,,,,,0,0,0,0,0,45,45,72,137.2505578994751,,,,,,,,,,,,,,,,,,,,,,,,,,,,,,,,,,,,,,,,,,,,,,,,,,,,,,,,,,,,,,,,,,,,,,,,,,,,,,,,,57.0,133.0,70.0,70.0,133.0,57.0,1.0,1.1,-678,288,-480,271,-320,271,137.2323818206787,137.2324616909027,137.23538494110107,137.2505578994751,137.3861789703369,137.3861789703369,137.3861789703369,137.3861789703369,137.3861789703369,137.3861789703369,137.3861789703369,138.26666831970215,3,1.0083141326904297,None,,,,,,,,,,,,,,,,,,20,4,2025-02-18_15h07.01.174,comp,2024.2.4,57.946302011809465,2025-02-18 15h07.17.424293 -0500,
46,46,0,critical,wdh,35.0,4.0,lower,57.0,133.0,70.0,70.0,133.0,57.0,3,1.3520066738128662,None,,,,,0,0,0,0,0,46,46,76,138.2825903892517,,,,,,,,,,,,,,,,,,,,,,,,,,,,,,,,,,,,,,,,,,,,,,,,,,,,,,,,,,,,,,,,,,,,,,,,,,,,,,,,,57.0,133.0,70.0,70.0,133.0,57.0,4.0,4.1,-198,-280,0,12,160,-261,138.26831722259521,138.2684290409088,138.27179741859436,138.2825903892517,138.4401078224182,138.4401078224182,138.4401078224182,138.4401078224182,138.4401078224182,138.4401078224182,138.4401078224182,139.65249133110046,3,1.3520066738128662,None,,,,,,,,,,,,,,,,,,20,4,2025-02-18_15h07.01.174,comp,2024.2.4,57.946302011809465,2025-02-18 15h07.17.424293 -0500,
47,47,0,critical,hwd,35.0,1.0,upper,200.0,125.0,125.0,200.0,127.0,127.0,1,1.542919397354126,None,,,,,0,0,0,0,0,47,47,97,139.66818618774414,,,,,,,,,,,,,,,,,,,,,,,,,,,,,,,,,,,,,,,,,,,,,,,,,,,,,,,,,,,,,,,,,,,,,,,,,,,,,,,,,200.0,125.0,125.0,200.0,127.0,127.0,1.0,1.3,222,-285,480,-289,740,-285,139.65425610542297,139.65441823005676,139.65786719322205,139.66818618774414,139.81938672065735,139.81938672065735,139.81938672065735,139.81938672065735,139.81938672065735,139.81938672065735,139.81938672065735,141.21697163581848,1,1.542919397354126,None,,,,,,,,,,,,,,,,,,20,4,2025-02-18_15h07.01.174,comp,2024.2.4,57.946302011809465,2025-02-18 15h07.17.424293 -0500,
48,48,0,critical,dwh,20.0,2.1,upper,141.0,141.0,125.0,200.0,200.0,125.0,3,1.5936071872711182,None,,,,,0,0,0,0,0,48,48,31,141.23368549346924,,,,,,,,,,,,,,,,,,,,,,,,,,,,,,,,,,,,,,,,,,,,,,,,,,,,,,,,,,,,,,,,,,,,,,,,,,,,,,,,,141.0,141.0,125.0,200.0,200.0,125.0,2.1,2.11,-266,277,0,285,258,-277,141.21856307983398,141.2186417579651,141.22157311439514,141.23368549346924,141.37120366096497,141.37120366096497,141.37120366096497,141.37120366096497,141.37120366096497,141.37120366096497,141.37120366096497,142.83895611763,3,1.5936071872711182,None,,,,,,,,,,,,,,,,,,20,4,2025-02-18_15h07.01.174,comp,2024.2.4,57.946302011809465,2025-02-18 15h07.17.424293 -0500,
49,49,0,critical,whd,20.0,2.1,upper,125.0,200.0,200.0,125.0,141.0,141.0,2,1.0113587379455566,None,,,,,0,0,0,0,0,49,49,15,142.85513496398926,,,,,,,,,,,,,,,,,,,,,,,,,,,,,,,,,,,,,,,,,,,,,,,,,,,,,,,,,,,,,,,,,,,,,,,,,,,,,,,,,125.0,200.0,200.0,125.0,141.0,141.0,2.1,2.11,-258,269,0,274,229,-279,142.8408579826355,142.84098601341248,142.84444737434387,142.85513496398926,143.00652241706848,143.00652241706848,143.00652241706848,143.00652241706848,143.00652241706848,143.00652241706848,143.00652241706848,143.87110805511475,2,1.0113587379455566,None,,,,,,,,,,,,,,,,,,20,4,2025-02-18_15h07.01.174,comp,2024.2.4,57.946302011809465,2025-02-18 15h07.17.424293 -0500,
50,50,0,critical,dhw,35.0,2.1,lower,70.0,70.0,133.0,57.0,57.0,133.0,3,1.0891048908233643,None,,,,,0,0,0,0,0,50,50,0,143.89003586769104,,,,,,,,,,,,,,,,,,,,,,,,,,,,,,,,,,,,,,,,,,,,,,,,,,,,,,,,,,,,,,,,,,,,,,,,,,,,,,,,,70.0,70.0,133.0,57.0,57.0,133.0,2.1,2.11,-160,284,0,286,191,-252,143.87276220321655,143.8728904724121,143.87705731391907,143.89003586769104,144.0380780696869,144.0380780696869,144.0380780696869,144.0380780696869,144.0380780696869,144.0380780696869,144.0380780696869,144.98639965057373,3,1.0891048908233643,None,,,,,,,,,,,,,,,,,,20,4,2025-02-18_15h07.01.174,comp,2024.2.4,57.946302011809465,2025-02-18 15h07.17.424293 -0500,
51,51,0,filler_random,None,None,None,None,None,None,None,None,None,None,3,1.1480903625488281,None,,,,,0,0,0,0,0,51,51,138,145.00669479370117,,,,,,,,,,,,,,,,,,,,,,,,,,,,,,,,,,,,,,,,,,,,,,,,,,,,,,,,,,,,,,,,,,,,,,,,,,,,,,,,,126.27162499203173,106.02549555603622,133.29074265814407,100.06174980853669,149.84399546993748,176.97062475355676,1.0,1.3,281,-260,480,-289,715,-274,144.98828959465027,144.98841404914856,144.99170756340027,145.00669479370117,145.15443444252014,145.15443444252014,145.15443444252014,145.15443444252014,145.15443444252014,145.15443444252014,145.15443444252014,146.17098569869995,3,1.1480903625488281,None,,,,,,,,,,,,,,,,,,20,4,2025-02-18_15h07.01.174,comp,2024.2.4,57.946302011809465,2025-02-18 15h07.17.424293 -0500,
52,52,0,filler_random,None,None,None,None,None,None,None,None,None,None,1,1.582841396331787,None,,,,,0,0,0,0,0,52,52,163,146.18780994415283,,,,,,,,,,,,,,,,,,,,,,,,,,,,,,,,,,,,,,,,,,,,,,,,,,,,,,,,,,,,,,,,,,,,,,,,,,,,,,,,,162.2398041870472,117.71697491208366,113.67291524055224,78.22734344687998,60.12109512062678,184.17822710180835,2.2,2.22,-194,266,0,-268,227,-264,146.1729974746704,146.17307329177856,146.17663168907166,146.18780994415283,146.33789730072021,146.33789730072021,146.33789730072021,146.33789730072021,146.33789730072021,146.33789730072021,146.33789730072021,147.7748646736145,1,1.582841396331787,None,,,,,,,,,,,,,,,,,,20,4,2025-02-18_15h07.01.174,comp,2024.2.4,57.946302011809465,2025-02-18 15h07.17.424293 -0500,
53,53,0,critical,dwh,20.0,2.1,lower,78.0,78.0,57.0,133.0,133.0,57.0,2,2.002720594406128,None,,,,,0,0,0,0,0,53,53,30,147.79144549369812,,,,,,,,,,,,,,,,,,,,,,,,,,,,,,,,,,,,,,,,,,,,,,,,,,,,,,,,,,,,,,,,,,,,,,,,,,,,,,,,,78.0,78.0,57.0,133.0,133.0,57.0,2.1,2.12,-202,-288,0,-284,191,267,147.7765507698059,147.7766535282135,147.77991461753845,147.79144549369812,147.9373550415039,147.9373550415039,147.9373550415039,147.9373550415039,147.9373550415039,147.9373550415039,147.9373550415039,149.80454444885254,2,2.002720594406128,None,,,,,,,,,,,,,,,,,,20,4,2025-02-18_15h07.01.174,comp,2024.2.4,57.946302011809465,2025-02-18 15h07.17.424293 -0500,
54,54,0,critical,wdh,35.0,2.1,lower,57.0,133.0,70.0,70.0,133.0,57.0,3,1.6519770622253418,None,,,,,0,0,0,0,0,54,54,32,149.82239818572998,,,,,,,,,,,,,,,,,,,,,,,,,,,,,,,,,,,,,,,,,,,,,,,,,,,,,,,,,,,,,,,,,,,,,,,,,,,,,,,,,57.0,133.0,70.0,70.0,133.0,57.0,2.1,2.11,-198,260,0,289,160,-272,149.8061408996582,149.80621886253357,149.80944800376892,149.82239818572998,149.97358632087708,149.97358632087708,149.97358632087708,149.97358632087708,149.97358632087708,149.97358632087708,149.97358632087708,151.48743748664856,3,1.6519770622253418,None,,,,,,,,,,,,,,,,,,20,4,2025-02-18_15h07.01.174,comp,2024.2.4,57.946302011809465,2025-02-18 15h07.17.424293 -0500,
55,55,0,critical,wdh,20.0,4.0,upper,125.0,200.0,141.0,141.0,200.0,125.0,3,1.6914622783660889,None,,,,,0,0,0,0,0,55,55,83,151.50276470184326,,,,,,,,,,,,,,,,,,,,,,,,,,,,,,,,,,,,,,,,,,,,,,,,,,,,,,,,,,,,,,,,,,,,,,,,,,,,,,,,,125.0,200.0,141.0,141.0,200.0,125.0,4.0,4.2,-266,0,0,-286,229,-2,151.48898792266846,151.4890649318695,151.49194836616516,151.50276470184326,151.6453788280487,151.6453788280487,151.6453788280487,151.6453788280487,151.6453788280487,151.6453788280487,151.6453788280487,153.2098090648651,3,1.6914622783660889,None,,,,,,,,,,,,,,,,,,20,4,2025-02-18_15h07.01.174,comp,2024.2.4,57.946302011809465,2025-02-18 15h07.17.424293 -0500,
56,56,0,critical,hdw,20.0,2.1,lower,133.0,57.0,78.0,78.0,57.0,133.0,1,1.244241714477539,None,,,,,0,0,0,0,0,56,56,22,153.23021364212036,,,,,,,,,,,,,,,,,,,,,,,,,,,,,,,,,,,,,,,,,,,,,,,,,,,,,,,,,,,,,,,,,,,,,,,,,,,,,,,,,133.0,57.0,78.0,78.0,57.0,133.0,2.1,2.11,-164,283,0,271,202,-253,153.21145367622375,153.21157360076904,153.21466493606567,153.23021364212036,153.37856435775757,153.37856435775757,153.37856435775757,153.37856435775757,153.37856435775757,153.37856435775757,153.37856435775757,154.48326539993286,1,1.244241714477539,None,,,,,,,,,,,,,,,,,,20,4,2025-02-18_15h07.01.174,comp,2024.2.4,57.946302011809465,2025-02-18 15h07.17.424293 -0500,
57,57,0,filler_random,None,None,None,None,None,None,None,None,None,None,1,1.12742280960083,None,,,,,0,0,0,0,0,57,57,152,154.49889206886292,,,,,,,,,,,,,,,,,,,,,,,,,,,,,,,,,,,,,,,,,,,,,,,,,,,,,,,,,,,,,,,,,,,,,,,,,,,,,,,,,186.25231859544084,161.24917815230805,94.24227596199111,136.48012929371288,85.15284126233692,178.9883288267369,1.0,1.1,-725,252,-480,290,-226,254,154.48492455482483,154.48499989509583,154.4878830909729,154.49889206886292,154.6443510055542,154.6443510055542,154.6443510055542,154.6443510055542,154.6443510055542,154.6443510055542,154.6443510055542,155.6304590702057,1,1.12742280960083,None,,,,,,,,,,,,,,,,,,20,4,2025-02-18_15h07.01.174,comp,2024.2.4,57.946302011809465,2025-02-18 15h07.17.424293 -0500,
58,58,0,filler_random,None,None,None,None,None,None,None,None,None,None,2,5.306515455245972,None,,,,,0,0,0,0,0,58,58,141,155.648095369339,,,,,,,,,,,,,,,,,,,,,,,,,,,,,,,,,,,,,,,,,,,,,,,,,,,,,,,,,,,,,,,,,,,,,,,,,,,,,,,,,198.3076247438361,155.4998828522517,180.6664875721218,195.35471985890615,100.47564939885204,95.41635944228517,1.0,1.3,209,-277,480,-279,721,-283,155.63215398788452,155.63223123550415,155.635080575943,155.648095369339,155.79176712036133,155.79176712036133,155.79176712036133,155.79176712036133,155.79176712036133,155.79176712036133,155.79176712036133,160.95781326293945,2,5.306515455245972,None,,,,,,,,,,,,,,,,,,20,4,2025-02-18_15h07.01.174,comp,2024.2.4,57.946302011809465,2025-02-18 15h07.17.424293 -0500,
59,59,0,critical,dwh,35.0,2.1,upper,127.0,127.0,125.0,200.0,200.0,125.0,2,1.2767589092254639,None,,,,,0,0,0,0,0,59,59,29,160.97424054145813,,,,,,,,,,,,,,,,,,,,,,,,,,,,,,,,,,,,,,,,,,,,,,,,,,,,,,,,,,,,,,,,,,,,,,,,,,,,,,,,,127.0,127.0,125.0,200.0,200.0,125.0,2.1,2.11,-260,259,0,256,258,-268,160.9593026638031,160.9594132900238,160.96250247955322,160.97424054145813,161.12909507751465,161.12909507751465,161.12909507751465,161.12909507751465,161.12909507751465,161.12909507751465,161.12909507751465,162.26667094230652,2,1.2767589092254639,None,,,,,,,,,,,,,,,,,,20,4,2025-02-18_15h07.01.174,comp,2024.2.4,57.946302011809465,2025-02-18 15h07.17.424293 -0500,
60,60,0,filler_random,None,None,None,None,None,None,None,None,None,None,1,1.3693745136260986,None,,,,,0,0,0,0,0,60,60,137,162.28154969215393,,,,,,,,,,,,,,,,,,,,,,,,,,,,,,,,,,,,,,,,,,,,,,,,,,,,,,,,,,,,,,,,,,,,,,,,,,,,,,,,,151.22149066152923,187.5870490643152,112.7368589302692,181.01112851765873,169.2430724139786,166.4728975938774,2.2,2.22,-280,259,0,-271,270,-252,162.26830124855042,162.26841044425964,162.2712550163269,162.28154969215393,162.42593789100647,162.42593789100647,162.42593789100647,162.42593789100647,162.42593789100647,162.42593789100647,162.42593789100647,163.65908670425415,1,1.3693745136260986,None,,,,,,,,,,,,,,,,,,20,4,2025-02-18_15h07.01.174,comp,2024.2.4,57.946302011809465,2025-02-18 15h07.17.424293 -0500,
61,61,0,filler_square,None,None,None,None,None,None,None,None,None,None,1,0.7815730571746826,None,,,,,0,0,0,0,0,61,61,191,163.67661142349243,,,,,,,,,,,,,,,,,,,,,,,,,,,,,,,,,,,,,,,,,,,,,,,,,,,,,,,,,,,,,,,,,,,,,,,,,,,,,,,,,179.95726627756477,179.95726627756477,109.61188507185153,85.78066380252749,98.97243358685209,73.74902887397795,2.2,2.22,-229,274,0,-262,176,-288,163.6611180305481,163.66119718551636,163.6648132801056,163.67661142349243,163.81644463539124,163.81644463539124,163.81644463539124,163.81644463539124,163.81644463539124,163.81644463539124,163.81644463539124,164.47629308700562,1,0.7815730571746826,None,,,,,,,,,,,,,,,,,,20,4,2025-02-18_15h07.01.174,comp,2024.2.4,57.946302011809465,2025-02-18 15h07.17.424293 -0500,
62,62,0,catch,None,None,None,None,None,None,None,None,None,None,2,0.8856828212738037,None,,,,,0,0,0,0,0,62,62,127,164.49268913269043,,,,,,,,,,,,,,,,,,,,,,,,,,,,,,,,,,,,,,,,,,,,,,,,,,,,,,,,,,,,,,,,,,,,,,,,,,,,,,,,,87,103,139,186,103,87,2.2,2.21,-240,-278,0,274,232,264,164.4781949520111,164.47827196121216,164.48148488998413,164.49268913269043,164.6496286392212,164.6496286392212,164.6496286392212,164.6496286392212,164.6496286392212,164.6496286392212,164.6496286392212,165.38025879859924,2,0.8856828212738037,None,,,,,,,,,,,,,,,,,,20,4,2025-02-18_15h07.01.174,comp,2024.2.4,57.946302011809465,2025-02-18 15h07.17.424293 -0500,
63,63,0,critical,dhw,20.0,1.0,upper,141.0,141.0,200.0,125.0,125.0,200.0,2,3.0380148887634277,None,,,,,0,0,0,0,0,63,63,55,165.39628982543945,,,,,,,,,,,,,,,,,,,,,,,,,,,,,,,,,,,,,,,,,,,,,,,,,,,,,,,,,,,,,,,,,,,,,,,,,,,,,,,,,141.0,141.0,200.0,125.0,125.0,200.0,1.0,1.3,251,-251,480,-279,738,-271,165.38209080696106,165.38222122192383,165.38565182685852,165.39628982543945,165.54457926750183,165.54457926750183,165.54457926750183,165.54457926750183,165.54457926750183,165.54457926750183,165.54457926750183,168.4455156326294,2,3.0380148887634277,None,,,,,,,,,,,,,,,,,,20,4,2025-02-18_15h07.01.174,comp,2024.2.4,57.946302011809465,2025-02-18 15h07.17.424293 -0500,
64,64,0,catch,None,None,None,None,None,None,None,None,None,None,2,1.0767292976379395,None,,,,,0,0,0,0,0,64,64,126,168.46222925186157,,,,,,,,,,,,,,,,,,,,,,,,,,,,,,,,,,,,,,,,,,,,,,,,,,,,,,,,,,,,,,,,,,,,,,,,,,,,,,,,,61,129,145,180,72,118,2.1,2.11,-250,282,0,273,245,-284,168.44747877120972,168.44755458831787,168.45062589645386,168.46222925186157,168.61180710792542,168.61180710792542,168.61180710792542,168.61180710792542,168.61180710792542,168.61180710792542,168.61180710792542,169.54554080963135,2,1.0767292976379395,None,,,,,,,,,,,,,,,,,,20,4,2025-02-18_15h07.01.174,comp,2024.2.4,57.946302011809465,2025-02-18 15h07.17.424293 -0500,
65,65,0,filler_random,None,None,None,None,None,None,None,None,None,None,1,1.2797794342041016,None,,,,,0,0,0,0,0,65,65,156,169.56236219406128,,,,,,,,,,,,,,,,,,,,,,,,,,,,,,,,,,,,,,,,,,,,,,,,,,,,,,,,,,,,,,,,,,,,,,,,,,,,,,,,,155.1504661459412,190.22737822576366,121.41451975139216,97.60340669612307,156.5042655859001,175.27475542944887,2.1,2.12,-240,-268,0,-272,232,275,169.54735898971558,169.54744243621826,169.55148553848267,169.56236219406128,169.71408343315125,169.71408343315125,169.71408343315125,169.71408343315125,169.71408343315125,169.71408343315125,169.71408343315125,170.85575985908508,1,1.2797794342041016,None,,,,,,,,,,,,,,,,,,20,4,2025-02-18_15h07.01.174,comp,2024.2.4,57.946302011809465,2025-02-18 15h07.17.424293 -0500,
66,66,0,critical,dhw,35.0,2.1,lower,70.0,70.0,133.0,57.0,57.0,133.0,3,1.6308279037475586,None,,,,,0,0,0,0,0,66,66,24,170.87594437599182,,,,,,,,,,,,,,,,,,,,,,,,,,,,,,,,,,,,,,,,,,,,,,,,,,,,,,,,,,,,,,,,,,,,,,,,,,,,,,,,,70.0,70.0,133.0,57.0,57.0,133.0,2.1,2.11,-160,288,0,282,191,-263,170.85729908943176,170.8574149608612,170.8602876663208,170.87594437599182,171.01229548454285,171.01229548454285,171.01229548454285,171.01229548454285,171.01229548454285,171.01229548454285,171.01229548454285,172.516357421875,3,1.6308279037475586,None,,,,,,,,,,,,,,,,,,20,4,2025-02-18_15h07.01.174,comp,2024.2.4,57.946302011809465,2025-02-18 15h07.17.424293 -0500,
67,67,0,filler_square,None,None,None,None,None,None,None,None,None,None,1,3.3056797981262207,None,,,,,0,0,0,0,0,67,67,202,172.53687572479248,,,,,,,,,,,,,,,,,,,,,,,,,,,,,,,,,,,,,,,,,,,,,,,,,,,,,,,,,,,,,,,,,,,,,,,,,,,,,,,,,69.16842645751794,69.16842645751794,63.23636118439127,57.28212721775175,68.21159220687571,61.116388808687645,1.0,1.1,-639,287,-480,261,-325,255,172.5183162689209,172.51844000816345,172.5213623046875,172.53687572479248,172.6794240474701,172.6794240474701,172.6794240474701,172.6794240474701,172.6794240474701,172.6794240474701,172.6794240474701,175.8485369682312,1,3.3056797981262207,None,,,,,,,,,,,,,,,,,,20,4,2025-02-18_15h07.01.174,comp,2024.2.4,57.946302011809465,2025-02-18 15h07.17.424293 -0500,
68,68,0,filler_square,None,None,None,None,None,None,None,None,None,None,2,1.4652750492095947,None,,,,,0,0,0,0,0,68,68,203,175.86518001556396,,,,,,,,,,,,,,,,,,,,,,,,,,,,,,,,,,,,,,,,,,,,,,,,,,,,,,,,,,,,,,,,,,,,,,,,,,,,,,,,,121.04935983306697,131.0647256164209,153.2718609022707,153.2718609022707,70.42751272012781,89.94347323963292,4.0,4.2,-238,15,0,-284,218,19,175.85041880607605,175.85053515434265,175.8535761833191,175.86518001556396,176.0136387348175,176.0136387348175,176.0136387348175,176.0136387348175,176.0136387348175,176.0136387348175,176.0136387348175,177.33531665802002,2,1.4652750492095947,None,,,,,,,,,,,,,,,,,,20,4,2025-02-18_15h07.01.174,comp,2024.2.4,57.946302011809465,2025-02-18 15h07.17.424293 -0500,
69,69,0,critical,dhw,20.0,2.1,lower,78.0,78.0,133.0,57.0,57.0,133.0,3,1.8174097537994385,None,,,,,0,0,0,0,0,69,69,26,177.35294365882874,,,,,,,,,,,,,,,,,,,,,,,,,,,,,,,,,,,,,,,,,,,,,,,,,,,,,,,,,,,,,,,,,,,,,,,,,,,,,,,,,78.0,78.0,133.0,57.0,57.0,133.0,2.1,2.12,-164,-271,0,-286,191,253,177.33688020706177,177.33695530891418,177.33985805511475,177.35294365882874,177.49856328964233,177.49856328964233,177.49856328964233,177.49856328964233,177.49856328964233,177.49856328964233,177.49856328964233,179.18676471710205,3,1.8174097537994385,None,,,,,,,,,,,,,,,,,,20,4,2025-02-18_15h07.01.174,comp,2024.2.4,57.946302011809465,2025-02-18 15h07.17.424293 -0500,
70,70,0,critical,whd,35.0,1.0,upper,125.0,200.0,200.0,125.0,127.0,127.0,2,2.6640989780426025,None,,,,,0,0,0,0,0,70,70,85,179.2020561695099,,,,,,,,,,,,,,,,,,,,,,,,,,,,,,,,,,,,,,,,,,,,,,,,,,,,,,,,,,,,,,,,,,,,,,,,,,,,,,,,,125.0,200.0,200.0,125.0,127.0,127.0,1.0,1.2,-258,9,0,-18,222,-1,179.18824100494385,179.18831777572632,179.1912136077881,179.2020561695099,179.34915447235107,179.34915447235107,179.34915447235107,179.34915447235107,179.34915447235107,179.34915447235107,179.34915447235107,181.88366556167603,2,2.6640989780426025,None,,,,,,,,,,,,,,,,,,20,4,2025-02-18_15h07.01.174,comp,2024.2.4,57.946302011809465,2025-02-18 15h07.17.424293 -0500,
71,71,0,critical,whd,20.0,2.1,lower,57.0,133.0,133.0,57.0,78.0,78.0,1,1.6542778015136719,None,,,,,0,0,0,0,0,71,71,38,181.89986968040466,,,,,,,,,,,,,,,,,,,,,,,,,,,,,,,,,,,,,,,,,,,,,,,,,,,,,,,,,,,,,,,,,,,,,,,,,,,,,,,,,57.0,133.0,133.0,57.0,78.0,78.0,2.1,2.12,-191,-271,0,-289,164,251,181.88531398773193,181.88543176651,181.88876962661743,181.89986968040466,182.0542812347412,182.0542812347412,182.0542812347412,182.0542812347412,182.0542812347412,182.0542812347412,182.0542812347412,183.56720566749573,1,1.6542778015136719,None,,,,,,,,,,,,,,,,,,20,4,2025-02-18_15h07.01.174,comp,2024.2.4,57.946302011809465,2025-02-18 15h07.17.424293 -0500,
72,72,0,critical,wdh,35.0,2.1,upper,125.0,200.0,127.0,127.0,200.0,125.0,3,1.8112108707427979,None,,,,,0,0,0,0,0,72,72,33,183.58351731300354,,,,,,,,,,,,,,,,,,,,,,,,,,,,,,,,,,,,,,,,,,,,,,,,,,,,,,,,,,,,,,,,,,,,,,,,,,,,,,,,,125.0,200.0,127.0,127.0,200.0,125.0,2.1,2.12,-260,-272,0,-274,222,258,183.56875371932983,183.56882858276367,183.57199263572693,183.58351731300354,183.73368382453918,183.73368382453918,183.73368382453918,183.73368382453918,183.73368382453918,183.73368382453918,183.73368382453918,185.3969488143921,3,1.8112108707427979,None,,,,,,,,,,,,,,,,,,20,4,2025-02-18_15h07.01.174,comp,2024.2.4,57.946302011809465,2025-02-18 15h07.17.424293 -0500,
73,73,0,critical,wdh,20.0,2.1,upper,125.0,200.0,141.0,141.0,200.0,125.0,3,1.0453159809112549,None,,,,,0,0,0,0,0,73,73,11,185.41476392745972,,,,,,,,,,,,,,,,,,,,,,,,,,,,,,,,,,,,,,,,,,,,,,,,,,,,,,,,,,,,,,,,,,,,,,,,,,,,,,,,,125.0,200.0,141.0,141.0,200.0,125.0,2.1,2.12,-266,-274,0,-273,229,254,185.39851236343384,185.39858841896057,185.4014377593994,185.41476392745972,185.5637171268463,185.5637171268463,185.5637171268463,185.5637171268463,185.5637171268463,185.5637171268463,185.5637171268463,186.47067618370056,3,1.0453159809112549,None,,,,,,,,,,,,,,,,,,20,4,2025-02-18_15h07.01.174,comp,2024.2.4,57.946302011809465,2025-02-18 15h07.17.424293 -0500,
74,74,0,filler_random,None,None,None,None,None,None,None,None,None,None,1,1.0034689903259277,None,,,,,0,0,0,0,0,74,74,133,186.4872658252716,,,,,,,,,,,,,,,,,,,,,,,,,,,,,,,,,,,,,,,,,,,,,,,,,,,,,,,,,,,,,,,,,,,,,,,,,,,,,,,,,189.61338801002555,197.9385819787065,76.05991783840547,135.47539623337804,174.23469449372092,188.66457573950896,3.0,3.1,-263,281,0,-17,258,-260,186.47245335578918,186.4725296497345,186.47644209861755,186.4872658252716,186.6338837146759,186.6338837146759,186.6338837146759,186.6338837146759,186.6338837146759,186.6338837146759,186.6338837146759,187.49343132972717,1,1.0034689903259277,None,,,,,,,,,,,,,,,,,,20,4,2025-02-18_15h07.01.174,comp,2024.2.4,57.946302011809465,2025-02-18 15h07.17.424293 -0500,
75,75,0,critical,whd,20.0,3.0,upper,125.0,200.0,200.0,125.0,141.0,141.0,1,2.6377315521240234,None,,,,,0,0,0,0,0,75,75,93,187.50871396064758,,,,,,,,,,,,,,,,,,,,,,,,,,,,,,,,,,,,,,,,,,,,,,,,,,,,,,,,,,,,,,,,,,,,,,,,,,,,,,,,,125.0,200.0,200.0,125.0,141.0,141.0,3.0,3.1,-258,274,0,16,229,-256,187.49492573738098,187.49500274658203,187.49789834022522,187.50871396064758,187.65298461914062,187.65298461914062,187.65298461914062,187.65298461914062,187.65298461914062,187.65298461914062,187.65298461914062,190.15603590011597,1,2.6377315521240234,None,,,,,,,,,,,,,,,,,,20,4,2025-02-18_15h07.01.174,comp,2024.2.4,57.946302011809465,2025-02-18 15h07.17.424293 -0500,
76,76,0,critical,hwd,20.0,3.0,lower,133.0,57.0,57.0,133.0,78.0,78.0,2,2.4318130016326904,None,,,,,0,0,0,0,0,76,76,104,190.17039704322815,,,,,,,,,,,,,,,,,,,,,,,,,,,,,,,,,,,,,,,,,,,,,,,,,,,,,,,,,,,,,,,,,,,,,,,,,,,,,,,,,133.0,57.0,57.0,133.0,78.0,78.0,3.0,3.2,-191,-263,0,-18,202,256,190.15761470794678,190.15769028663635,190.1605908870697,190.17039704322815,190.3213667869568,190.3213667869568,190.3213667869568,190.3213667869568,190.3213667869568,190.3213667869568,190.3213667869568,192.61912178993225,2,2.4318130016326904,None,,,,,,,,,,,,,,,,,,20,4,2025-02-18_15h07.01.174,comp,2024.2.4,57.946302011809465,2025-02-18 15h07.17.424293 -0500,
77,77,0,filler_square,None,None,None,None,None,None,None,None,None,None,1,1.2870376110076904,None,,,,,0,0,0,0,0,77,77,172,192.63541913032532,,,,,,,,,,,,,,,,,,,,,,,,,,,,,,,,,,,,,,,,,,,,,,,,,,,,,,,,,,,,,,,,,,,,,,,,,,,,,,,,,137.23822379873383,137.23822379873383,130.4269953469226,74.82474237659676,83.39367633095468,124.83603912420959,3.0,3.1,-202,277,0,19,196,-263,192.6210277080536,192.62110662460327,192.62513947486877,192.63541913032532,192.78284740447998,192.78284740447998,192.78284740447998,192.78284740447998,192.78284740447998,192.78284740447998,192.78284740447998,193.9426715373993,1,1.2870376110076904,None,,,,,,,,,,,,,,,,,,20,4,2025-02-18_15h07.01.174,comp,2024.2.4,57.946302011809465,2025-02-18 15h07.17.424293 -0500,
78,78,0,filler_square,None,None,None,None,None,None,None,None,None,None,3,0.8557941913604736,None,,,,,0,0,0,0,0,78,78,183,193.9624342918396,,,,,,,,,,,,,,,,,,,,,,,,,,,,,,,,,,,,,,,,,,,,,,,,,,,,,,,,,,,,,,,,,,,,,,,,,,,,,,,,,58.86716318705057,78.32369201444547,58.98671748216628,66.51686994524485,120.68115754680667,120.68115754680667,4.0,4.2,-168,-8,0,-265,190,-8,193.9443221092224,193.9444169998169,193.94724225997925,193.9624342918396,194.10414481163025,194.10414481163025,194.10414481163025,194.10414481163025,194.10414481163025,194.10414481163025,194.10414481163025,194.83615231513977,3,0.8557941913604736,None,,,,,,,,,,,,,,,,,,20,4,2025-02-18_15h07.01.174,comp,2024.2.4,57.946302011809465,2025-02-18 15h07.17.424293 -0500,
79,79,0,filler_square,None,None,None,None,None,None,None,None,None,None,2,1.1261975765228271,None,,,,,0,0,0,0,0,79,79,170,194.85198426246643,,,,,,,,,,,,,,,,,,,,,,,,,,,,,,,,,,,,,,,,,,,,,,,,,,,,,,,,,,,,,,,,,,,,,,,,,,,,,,,,,75.81914292457103,101.06935638477765,104.47974236017245,104.47974236017245,65.18792355578739,96.39488427596552,3.0,3.1,-199,258,0,-3,196,-278,194.83798670768738,194.83811712265015,194.84166431427002,194.85198426246643,195.00795435905457,195.00795435905457,195.00795435905457,195.00795435905457,195.00795435905457,195.00795435905457,195.00795435905457,195.99551677703857,2,1.1261975765228271,None,,,,,,,,,,,,,,,,,,20,4,2025-02-18_15h07.01.174,comp,2024.2.4,57.946302011809465,2025-02-18 15h07.17.424293 -0500,
80,80,0,critical,hdw,20.0,2.1,lower,133.0,57.0,78.0,78.0,57.0,133.0,3,1.157607078552246,None,,,,,0,0,0,0,0,80,80,46,196.0133776664734,,,,,,,,,,,,,,,,,,,,,,,,,,,,,,,,,,,,,,,,,,,,,,,,,,,,,,,,,,,,,,,,,,,,,,,,,,,,,,,,,133.0,57.0,78.0,78.0,57.0,133.0,2.1,2.11,-164,259,0,275,202,-289,195.99715399742126,195.99727416038513,196.00061464309692,196.0133776664734,196.1597888469696,196.1597888469696,196.1597888469696,196.1597888469696,196.1597888469696,196.1597888469696,196.1597888469696,197.1792778968811,3,1.157607078552246,None,,,,,,,,,,,,,,,,,,20,4,2025-02-18_15h07.01.174,comp,2024.2.4,57.946302011809465,2025-02-18 15h07.17.424293 -0500,
81,81,0,filler_random,None,None,None,None,None,None,None,None,None,None,2,1.4077262878417969,None,,,,,0,0,0,0,0,81,81,161,197.19467449188232,,,,,,,,,,,,,,,,,,,,,,,,,,,,,,,,,,,,,,,,,,,,,,,,,,,,,,,,,,,,,,,,,,,,,,,,,,,,,,,,,189.181973475997,170.15999211844442,198.2326573484223,190.73970383431265,146.797006545785,80.86337521337911,3.0,3.1,-276,280,0,-18,232,-282,197.18104362487793,197.18112230300903,197.18404030799866,197.19467449188232,197.3351662158966,197.3351662158966,197.3351662158966,197.3351662158966,197.3351662158966,197.3351662158966,197.3351662158966,198.60653638839722,2,1.4077262878417969,None,,,,,,,,,,,,,,,,,,20,4,2025-02-18_15h07.01.174,comp,2024.2.4,57.946302011809465,2025-02-18 15h07.17.424293 -0500,
82,82,0,critical,hwd,35.0,1.0,lower,133.0,57.0,57.0,133.0,70.0,70.0,1,2.3132479190826416,None,,,,,0,0,0,0,0,82,82,96,198.62512135505676,,,,,,,,,,,,,,,,,,,,,,,,,,,,,,,,,,,,,,,,,,,,,,,,,,,,,,,,,,,,,,,,,,,,,,,,,,,,,,,,,133.0,57.0,57.0,133.0,70.0,70.0,1.0,1.3,289,-289,480,-265,678,-252,198.6082479953766,198.6083242893219,198.61205053329468,198.62512135505676,198.77583122253418,198.77583122253418,198.77583122253418,198.77583122253418,198.77583122253418,198.77583122253418,198.77583122253418,200.95446181297302,1,2.3132479190826416,None,,,,,,,,,,,,,,,,,,20,4,2025-02-18_15h07.01.174,comp,2024.2.4,57.946302011809465,2025-02-18 15h07.17.424293 -0500,
83,83,0,critical,dhw,20.0,2.1,upper,141.0,141.0,200.0,125.0,125.0,200.0,2,1.5910887718200684,None,,,,,0,0,0,0,0,83,83,27,200.9711537361145,,,,,,,,,,,,,,,,,,,,,,,,,,,,,,,,,,,,,,,,,,,,,,,,,,,,,,,,,,,,,,,,,,,,,,,,,,,,,,,,,141.0,141.0,200.0,125.0,125.0,200.0,2.1,2.12,-229,-256,0,-252,258,265,200.95593857765198,200.9560158252716,200.95920586585999,200.9711537361145,201.12599658966064,201.12599658966064,201.12599658966064,201.12599658966064,201.12599658966064,201.12599658966064,201.12599658966064,202.5723056793213,2,1.5910887718200684,None,,,,,,,,,,,,,,,,,,20,4,2025-02-18_15h07.01.174,comp,2024.2.4,57.946302011809465,2025-02-18 15h07.17.424293 -0500,
84,84,0,filler_square,None,None,None,None,None,None,None,None,None,None,1,1.8391871452331543,None,,,,,0,0,0,0,0,84,84,194,202.5870168209076,,,,,,,,,,,,,,,,,,,,,,,,,,,,,,,,,,,,,,,,,,,,,,,,,,,,,,,,,,,,,,,,,,,,,,,,,,,,,,,,,188.15267338074008,188.15267338074008,151.11416428773873,169.59708587071665,112.6672953486272,141.77087115091868,4.0,4.1,-275,-286,0,-12,252,-256,202.57415199279785,202.574232339859,202.57748460769653,202.5870168209076,202.74249792099,202.74249792099,202.74249792099,202.74249792099,202.74249792099,202.74249792099,202.74249792099,204.43808889389038,1,1.8391871452331543,None,,,,,,,,,,,,,,,,,,20,4,2025-02-18_15h07.01.174,comp,2024.2.4,57.946302011809465,2025-02-18 15h07.17.424293 -0500,
85,85,0,filler_random,None,None,None,None,None,None,None,None,None,None,2,1.5155973434448242,None,,,,,0,0,0,0,0,85,85,160,204.4554214477539,,,,,,,,,,,,,,,,,,,,,,,,,,,,,,,,,,,,,,,,,,,,,,,,,,,,,,,,,,,,,,,,,,,,,,,,,,,,,,,,,126.5340718387999,158.3969316261905,195.9962109348698,111.7235871933074,121.41057700396945,110.6537131173066,1.0,1.1,-711,274,-480,278,-273,270,204.43977808952332,204.4398536682129,204.4429292678833,204.4554214477539,204.60742378234863,204.60742378234863,204.60742378234863,204.60742378234863,204.60742378234863,204.60742378234863,204.60742378234863,205.97328186035156,2,1.5155973434448242,None,,,,,,,,,,,,,,,,,,20,4,2025-02-18_15h07.01.174,comp,2024.2.4,57.946302011809465,2025-02-18 15h07.17.424293 -0500,
86,86,0,filler_random,None,None,None,None,None,None,None,None,None,None,3,2.380248785018921,None,,,,,0,0,0,0,0,86,86,150,205.99025630950928,,,,,,,,,,,,,,,,,,,,,,,,,,,,,,,,,,,,,,,,,,,,,,,,,,,,,,,,,,,,,,,,,,,,,,,,,,,,,,,,,144.64649208466722,152.81640236873776,193.62171194681767,151.2878448994249,189.52253237728792,146.0225208892849,2.2,2.21,-248,-274,0,288,245,270,205.97503757476807,205.97511768341064,205.97867512702942,205.99025630950928,206.1402006149292,206.1402006149292,206.1402006149292,206.1402006149292,206.1402006149292,206.1402006149292,206.1402006149292,208.37507963180542,3,2.380248785018921,None,,,,,,,,,,,,,,,,,,20,4,2025-02-18_15h07.01.174,comp,2024.2.4,57.946302011809465,2025-02-18 15h07.17.424293 -0500,
87,87,0,filler_square,None,None,None,None,None,None,None,None,None,None,1,1.7151384353637695,None,,,,,0,0,0,0,0,87,87,176,208.39132380485535,,,,,,,,,,,,,,,,,,,,,,,,,,,,,,,,,,,,,,,,,,,,,,,,,,,,,,,,,,,,,,,,,,,,,,,,,,,,,,,,,170.95688042664176,170.95688042664176,89.31614015787358,104.60383127348102,144.34711737960458,138.3799840033922,2.1,2.12,-234,-285,0,-253,217,253,208.37693572044373,208.37701845169067,208.38040781021118,208.39132380485535,208.53888177871704,208.53888177871704,208.53888177871704,208.53888177871704,208.53888177871704,208.53888177871704,208.53888177871704,210.12343978881836,1,1.7151384353637695,None,,,,,,,,,,,,,,,,,,20,4,2025-02-18_15h07.01.174,comp,2024.2.4,57.946302011809465,2025-02-18 15h07.17.424293 -0500,
88,88,0,filler_square,None,None,None,None,None,None,None,None,None,None,1,0.9585714340209961,None,,,,,0,0,0,0,0,88,88,187,210.13965320587158,,,,,,,,,,,,,,,,,,,,,,,,,,,,,,,,,,,,,,,,,,,,,,,,,,,,,,,,,,,,,,,,,,,,,,,,,,,,,,,,,174.70316835171087,174.70316835171087,132.36121097750822,170.38146437075767,165.05093833025109,98.596879877273,2.1,2.12,-269,-272,0,-266,230,262,210.12520098686218,210.12528014183044,210.12845158576965,210.13965320587158,210.2956075668335,210.2956075668335,210.2956075668335,210.2956075668335,210.2956075668335,210.2956075668335,210.2956075668335,211.11676168441772,1,0.9585714340209961,None,,,,,,,,,,,,,,,,,,20,4,2025-02-18_15h07.01.174,comp,2024.2.4,57.946302011809465,2025-02-18 15h07.17.424293 -0500,
89,89,0,critical,hdw,35.0,1.0,lower,133.0,57.0,70.0,70.0,57.0,133.0,1,2.3240559101104736,None,,,,,0,0,0,0,0,89,89,108,211.13418078422546,,,,,,,,,,,,,,,,,,,,,,,,,,,,,,,,,,,,,,,,,,,,,,,,,,,,,,,,,,,,,,,,,,,,,,,,,,,,,,,,,133.0,57.0,70.0,70.0,57.0,133.0,1.0,1.2,-160,11,0,-8,198,-6,211.11824941635132,211.1183512210846,211.12154388427734,211.13418078422546,211.27345299720764,211.27345299720764,211.27345299720764,211.27345299720764,211.27345299720764,211.27345299720764,211.27345299720764,213.4749572277069,1,2.3240559101104736,None,,,,,,,,,,,,,,,,,,20,4,2025-02-18_15h07.01.174,comp,2024.2.4,57.946302011809465,2025-02-18 15h07.17.424293 -0500,
90,90,0,filler_random,None,None,None,None,None,None,None,None,None,None,1,1.2715857028961182,None,,,,,0,0,0,0,0,90,90,136,213.49103212356567,,,,,,,,,,,,,,,,,,,,,,,,,,,,,,,,,,,,,,,,,,,,,,,,,,,,,,,,,,,,,,,,,,,,,,,,,,,,,,,,,171.67756467277434,184.5316277154492,150.18153654459343,199.3581707742574,154.12625532525175,92.57379663465389,2.1,2.12,-288,-277,0,-256,242,264,213.47670936584473,213.4767827987671,213.4797224998474,213.49103212356567,213.63263392448425,213.63263392448425,213.63263392448425,213.63263392448425,213.63263392448425,213.63263392448425,213.63263392448425,214.765563249588,1,1.2715857028961182,None,,,,,,,,,,,,,,,,,,20,4,2025-02-18_15h07.01.174,comp,2024.2.4,57.946302011809465,2025-02-18 15h07.17.424293 -0500,
91,91,0,critical,hdw,20.0,2.1,upper,200.0,125.0,141.0,141.0,125.0,200.0,3,1.1417508125305176,None,,,,,0,0,0,0,0,91,91,23,214.78082990646362,,,,,,,,,,,,,,,,,,,,,,,,,,,,,,,,,,,,,,,,,,,,,,,,,,,,,,,,,,,,,,,,,,,,,,,,,,,,,,,,,200.0,125.0,141.0,141.0,125.0,200.0,2.1,2.12,-229,-269,0,-264,266,281,214.76702547073364,214.76710200309753,214.76998209953308,214.78082990646362,214.92564964294434,214.92564964294434,214.92564964294434,214.92564964294434,214.92564964294434,214.92564964294434,214.92564964294434,215.9256112575531,3,1.1417508125305176,None,,,,,,,,,,,,,,,,,,20,4,2025-02-18_15h07.01.174,comp,2024.2.4,57.946302011809465,2025-02-18 15h07.17.424293 -0500,
92,92,0,critical,dhw,20.0,3.0,lower,78.0,78.0,133.0,57.0,57.0,133.0,3,1.2847070693969727,None,,,,,0,0,0,0,0,92,92,56,215.94165134429932,,,,,,,,,,,,,,,,,,,,,,,,,,,,,,,,,,,,,,,,,,,,,,,,,,,,,,,,,,,,,,,,,,,,,,,,,,,,,,,,,78.0,78.0,133.0,57.0,57.0,133.0,3.0,3.2,-164,-270,0,-13,191,289,215.92713117599487,215.92720985412598,215.93043541908264,215.94165134429932,216.08961462974548,216.08961462974548,216.08961462974548,216.08961462974548,216.08961462974548,216.08961462974548,216.08961462974548,217.24261021614075,3,1.2847070693969727,None,,,,,,,,,,,,,,,,,,20,4,2025-02-18_15h07.01.174,comp,2024.2.4,57.946302011809465,2025-02-18 15h07.17.424293 -0500,
93,93,0,filler_square,None,None,None,None,None,None,None,None,None,None,3,1.5041110515594482,None,,,,,0,0,0,0,0,93,93,179,217.2584466934204,,,,,,,,,,,,,,,,,,,,,,,,,,,,,,,,,,,,,,,,,,,,,,,,,,,,,,,,,,,,,,,,,,,,,,,,,,,,,,,,,140.86749101859814,185.9010241139152,88.97935912912779,107.09598045757124,189.31536147393456,189.31536147393456,3.0,3.2,-242,-269,0,5,244,275,217.24439215660095,217.2444703578949,217.24761843681335,217.2584466934204,217.40658140182495,217.40658140182495,217.40658140182495,217.40658140182495,217.40658140182495,217.40658140182495,217.40658140182495,218.76825618743896,3,1.5041110515594482,None,,,,,,,,,,,,,,,,,,20,4,2025-02-18_15h07.01.174,comp,2024.2.4,57.946302011809465,2025-02-18 15h07.17.424293 -0500,
94,94,0,critical,hdw,35.0,2.1,upper,200.0,125.0,127.0,127.0,125.0,200.0,1,1.7074565887451172,None,,,,,0,0,0,0,0,94,94,21,218.78347492218018,,,,,,,,,,,,,,,,,,,,,,,,,,,,,,,,,,,,,,,,,,,,,,,,,,,,,,,,,,,,,,,,,,,,,,,,,,,,,,,,,200.0,125.0,127.0,127.0,125.0,200.0,2.1,2.12,-222,-267,0,-272,260,255,218.76978206634521,218.76986145973206,218.77275896072388,218.78347492218018,218.92794632911682,218.92794632911682,218.92794632911682,218.92794632911682,218.92794632911682,218.92794632911682,218.92794632911682,220.4988877773285,1,1.7074565887451172,None,,,,,,,,,,,,,,,,,,20,4,2025-02-18_15h07.01.174,comp,2024.2.4,57.946302011809465,2025-02-18 15h07.17.424293 -0500,
95,95,0,filler_square,None,None,None,None,None,None,None,None,None,None,3,1.2988672256469727,None,,,,,0,0,0,0,0,95,95,182,220.5201232433319,,,,,,,,,,,,,,,,,,,,,,,,,,,,,,,,,,,,,,,,,,,,,,,,,,,,,,,,,,,,,,,,,,,,,,,,,,,,,,,,,137.82146713095972,137.82146713095972,83.93809297450062,63.23199427973003,118.1739380069576,123.83837953139943,3.0,3.1,-197,279,0,11,190,-285,220.50096464157104,220.50104403495789,220.5042598247528,220.5201232433319,220.66126322746277,220.66126322746277,220.66126322746277,220.66126322746277,220.66126322746277,220.66126322746277,220.66126322746277,221.82840251922607,3,1.2988672256469727,None,,,,,,,,,,,,,,,,,,20,4,2025-02-18_15h07.01.174,comp,2024.2.4,57.946302011809465,2025-02-18 15h07.17.424293 -0500,
96,96,0,critical,wdh,20.0,2.1,lower,57.0,133.0,78.0,78.0,133.0,57.0,3,1.3664112091064453,None,,,,,0,0,0,0,0,96,96,10,221.8440580368042,,,,,,,,,,,,,,,,,,,,,,,,,,,,,,,,,,,,,,,,,,,,,,,,,,,,,,,,,,,,,,,,,,,,,,,,,,,,,,,,,57.0,133.0,78.0,78.0,133.0,57.0,2.1,2.12,-202,-250,0,-287,164,274,221.82998323440552,221.83006238937378,221.83348488807678,221.8440580368042,221.99284958839417,221.99284958839417,221.99284958839417,221.99284958839417,221.99284958839417,221.99284958839417,221.99284958839417,223.2128870487213,3,1.3664112091064453,None,,,,,,,,,,,,,,,,,,20,4,2025-02-18_15h07.01.174,comp,2024.2.4,57.946302011809465,2025-02-18 15h07.17.424293 -0500,
97,97,0,critical,dhw,35.0,1.0,upper,127.0,127.0,200.0,125.0,125.0,200.0,2,2.786266803741455,None,,,,,0,0,0,0,0,97,97,49,223.23209691047668,,,,,,,,,,,,,,,,,,,,,,,,,,,,,,,,,,,,,,,,,,,,,,,,,,,,,,,,,,,,,,,,,,,,,,,,,,,,,,,,,127.0,127.0,200.0,125.0,125.0,200.0,1.0,1.1,-702,265,-480,281,-222,290,223.21448516845703,223.21456241607666,223.21786761283875,223.23209691047668,223.38353753089905,223.38353753089905,223.38353753089905,223.38353753089905,223.38353753089905,223.38353753089905,223.38353753089905,226.02997422218323,2,2.786266803741455,None,,,,,,,,,,,,,,,,,,20,4,2025-02-18_15h07.01.174,comp,2024.2.4,57.946302011809465,2025-02-18 15h07.17.424293 -0500,
98,98,0,catch,None,None,None,None,None,None,None,None,None,None,2,1.0133259296417236,None,,,,,0,0,0,0,0,98,98,128,226.0458493232727,,,,,,,,,,,,,,,,,,,,,,,,,,,,,,,,,,,,,,,,,,,,,,,,,,,,,,,,,,,,,,,,,,,,,,,,,,,,,,,,,129,61,180,145,102,88,4.0,4.2,-199,15,0,-257,212,11,226.0318374633789,226.03191304206848,226.03512167930603,226.0458493232727,226.1963746547699,226.1963746547699,226.1963746547699,226.1963746547699,226.1963746547699,226.1963746547699,226.1963746547699,227.0642867088318,2,1.0133259296417236,None,,,,,,,,,,,,,,,,,,20,4,2025-02-18_15h07.01.174,comp,2024.2.4,57.946302011809465,2025-02-18 15h07.17.424293 -0500,
99,99,0,critical,hwd,35.0,2.1,lower,133.0,57.0,57.0,133.0,70.0,70.0,3,None,None,,,,,0,0,0,0,0,99,99,16,227.08108711242676,,,,,,,,,,,,,,,,,,,,,,,,,,,,,,,,,,,,,,,,,,,,,,,,,,,,,,,,,,,,,,,,,,,,,,,,,,,,,,,,,133.0,57.0,57.0,133.0,70.0,70.0,2.1,2.11,-191,254,0,254,198,-264,227.06587529182434,227.06595396995544,227.07005667686462,227.08108711242676,,,,,,,,227.11183333396912,3,None,None,,,,,,,,,,,,,,,,,,20,4,2025-02-18_15h07.01.174,comp,2024.2.4,57.946302011809465,2025-02-18 15h07.17.424293 -0500,
100,100,0,critical,hdw,20.0,2.1,upper,200.0,125.0,141.0,141.0,125.0,200.0,1,1.3587324619293213,None,,,,,0,0,0,0,0,100,100,47,227.1315598487854,,,,,,,,,,,,,,,,,,,,,,,,,,,,,,,,,,,,,,,,,,,,,,,,,,,,,,,,,,,,,,,,,,,,,,,,,,,,,,,,,200.0,125.0,141.0,141.0,125.0,200.0,2.1,2.11,-229,273,0,258,266,-258,227.11350059509277,227.11357879638672,227.1168131828308,227.1315598487854,227.2800326347351,227.2800326347351,227.2800326347351,227.2800326347351,227.2800326347351,227.2800326347351,227.2800326347351,228.50766849517822,1,1.3587324619293213,None,,,,,,,,,,,,,,,,,,20,4,2025-02-18_15h07.01.174,comp,2024.2.4,57.946302011809465,2025-02-18 15h07.17.424293 -0500,
101,101,0,critical,whd,35.0,3.0,lower,57.0,133.0,133.0,57.0,70.0,70.0,2,1.0371782779693604,None,,,,,0,0,0,0,0,101,101,86,228.52507996559143,,,,,,,,,,,,,,,,,,,,,,,,,,,,,,,,,,,,,,,,,,,,,,,,,,,,,,,,,,,,,,,,,,,,,,,,,,,,,,,,,57.0,133.0,133.0,57.0,70.0,70.0,3.0,3.1,-191,287,0,2,160,-276,228.50913000106812,228.50920391082764,228.51257753372192,228.52507996559143,228.66445016860962,228.66445016860962,228.66445016860962,228.66445016860962,228.66445016860962,228.66445016860962,228.66445016860962,229.56477284431458,2,1.0371782779693604,None,,,,,,,,,,,,,,,,,,20,4,2025-02-18_15h07.01.174,comp,2024.2.4,57.946302011809465,2025-02-18 15h07.17.424293 -0500,
102,102,0,filler_random,None,None,None,None,None,None,None,None,None,None,1,1.0530517101287842,None,,,,,0,0,0,0,0,102,102,153,229.58129239082336,,,,,,,,,,,,,,,,,,,,,,,,,,,,,,,,,,,,,,,,,,,,,,,,,,,,,,,,,,,,,,,,,,,,,,,,,,,,,,,,,89.92019053848516,176.50382329880594,92.90404966370099,74.48850133824023,70.83688549534061,114.27421730911462,4.0,4.2,-221,-20,0,-289,190,-7,229.56658244132996,229.56666326522827,229.57070016860962,229.58129239082336,229.73411870002747,229.73411870002747,229.73411870002747,229.73411870002747,229.73411870002747,229.73411870002747,229.73411870002747,230.6479926109314,1,1.0530517101287842,None,,,,,,,,,,,,,,,,,,20,4,2025-02-18_15h07.01.174,comp,2024.2.4,57.946302011809465,2025-02-18 15h07.17.424293 -0500,
103,103,0,filler_random,None,None,None,None,None,None,None,None,None,None,1,2.0510387420654297,None,,,,,0,0,0,0,0,103,103,142,230.66368889808655,,,,,,,,,,,,,,,,,,,,,,,,,,,,,,,,,,,,,,,,,,,,,,,,,,,,,,,,,,,,,,,,,,,,,,,,,,,,,,,,,196.49953186321773,72.03589838555516,67.91861371461108,72.60172736619691,94.83840105628377,97.56086771454812,2.1,2.12,-168,-280,0,-257,181,279,230.6497254371643,230.64980268478394,230.65330839157104,230.66368889808655,230.81739401817322,230.81739401817322,230.81739401817322,230.81739401817322,230.81739401817322,230.81739401817322,230.81739401817322,232.73363327980042,1,2.0510387420654297,None,,,,,,,,,,,,,,,,,,20,4,2025-02-18_15h07.01.174,comp,2024.2.4,57.946302011809465,2025-02-18 15h07.17.424293 -0500,
104,104,0,filler_random,None,None,None,None,None,None,None,None,None,None,1,1.6378788948059082,None,,,,,0,0,0,0,0,104,104,162,232.7493212223053,,,,,,,,,,,,,,,,,,,,,,,,,,,,,,,,,,,,,,,,,,,,,,,,,,,,,,,,,,,,,,,,,,,,,,,,,,,,,,,,,181.31237932869422,197.55189962946184,70.44565503759128,160.8566196136296,155.0632905408148,110.20586662865742,2.1,2.11,-275,255,0,257,232,-260,232.73547077178955,232.7356083393097,232.73902130126953,232.7493212223053,232.89538550376892,232.89538550376892,232.89538550376892,232.89538550376892,232.89538550376892,232.89538550376892,232.89538550376892,234.3987331390381,1,1.6378788948059082,None,,,,,,,,,,,,,,,,,,20,4,2025-02-18_15h07.01.174,comp,2024.2.4,57.946302011809465,2025-02-18 15h07.17.424293 -0500,
105,105,0,critical,dwh,35.0,2.1,upper,127.0,127.0,125.0,200.0,200.0,125.0,2,1.515305757522583,None,,,,,0,0,0,0,0,105,105,5,234.41544222831726,,,,,,,,,,,,,,,,,,,,,,,,,,,,,,,,,,,,,,,,,,,,,,,,,,,,,,,,,,,,,,,,,,,,,,,,,,,,,,,,,127.0,127.0,125.0,200.0,200.0,125.0,2.1,2.12,-260,-277,0,-282,258,258,234.40028595924377,234.4003942012787,234.4038953781128,234.41544222831726,234.5625078678131,234.5625078678131,234.5625078678131,234.5625078678131,234.5625078678131,234.5625078678131,234.5625078678131,235.9328010082245,2,1.515305757522583,None,,,,,,,,,,,,,,,,,,20,4,2025-02-18_15h07.01.174,comp,2024.2.4,57.946302011809465,2025-02-18 15h07.17.424293 -0500,
106,106,0,filler_square,None,None,None,None,None,None,None,None,None,None,1,1.2843375205993652,None,,,,,0,0,0,0,0,106,106,175,235.94996285438538,,,,,,,,,,,,,,,,,,,,,,,,,,,,,,,,,,,,,,,,,,,,,,,,,,,,,,,,,,,,,,,,,,,,,,,,,,,,,,,,,98.64852064690845,98.64852064690845,77.78870967817856,84.68652310797347,93.22690342795212,59.384937663327975,2.1,2.11,-188,281,0,268,168,-261,235.93483757972717,235.93491506576538,235.93894052505493,235.94996285438538,236.10223150253296,236.10223150253296,236.10223150253296,236.10223150253296,236.10223150253296,236.10223150253296,236.10223150253296,237.2469892501831,1,1.2843375205993652,None,,,,,,,,,,,,,,,,,,20,4,2025-02-18_15h07.01.174,comp,2024.2.4,57.946302011809465,2025-02-18 15h07.17.424293 -0500,
107,107,0,filler_square,None,None,None,None,None,None,None,None,None,None,2,1.3959026336669922,None,,,,,0,0,0,0,0,107,107,201,237.26304507255554,,,,,,,,,,,,,,,,,,,,,,,,,,,,,,,,,,,,,,,,,,,,,,,,,,,,,,,,,,,,,,,,,,,,,,,,,,,,,,,,,68.8783781957201,74.11516394338312,75.55033579142166,75.55033579142166,59.810668771329915,75.09147184209823,3.0,3.2,-171,-287,0,0,171,288,237.24876189231873,237.24883818626404,237.25173091888428,237.26304507255554,237.4185140132904,237.4185140132904,237.4185140132904,237.4185140132904,237.4185140132904,237.4185140132904,237.4185140132904,238.66586208343506,2,1.3959026336669922,None,,,,,,,,,,,,,,,,,,20,4,2025-02-18_15h07.01.174,comp,2024.2.4,57.946302011809465,2025-02-18 15h07.17.424293 -0500,
108,108,0,critical,hwd,35.0,4.0,lower,133.0,57.0,57.0,133.0,70.0,70.0,2,1.18216872215271,None,,,,,0,0,0,0,0,108,108,100,238.68436527252197,,,,,,,,,,,,,,,,,,,,,,,,,,,,,,,,,,,,,,,,,,,,,,,,,,,,,,,,,,,,,,,,,,,,,,,,,,,,,,,,,133.0,57.0,57.0,133.0,70.0,70.0,4.0,4.1,-191,-289,0,18,198,-285,238.66738367080688,238.66746425628662,238.67069458961487,238.68436527252197,238.83350467681885,238.83350467681885,238.83350467681885,238.83350467681885,238.83350467681885,238.83350467681885,238.83350467681885,239.87330031394958,2,1.18216872215271,None,,,,,,,,,,,,,,,,,,20,4,2025-02-18_15h07.01.174,comp,2024.2.4,57.946302011809465,2025-02-18 15h07.17.424293 -0500,
109,109,0,critical,whd,20.0,4.0,upper,125.0,200.0,200.0,125.0,141.0,141.0,2,0.781069278717041,None,,,,,0,0,0,0,0,109,109,95,239.89334774017334,,,,,,,,,,,,,,,,,,,,,,,,,,,,,,,,,,,,,,,,,,,,,,,,,,,,,,,,,,,,,,,,,,,,,,,,,,,,,,,,,125.0,200.0,200.0,125.0,141.0,141.0,4.0,4.1,-258,-264,0,-4,229,-251,239.87478280067444,239.87485766410828,239.87770652770996,239.89334774017334,240.0344557762146,240.0344557762146,240.0344557762146,240.0344557762146,240.0344557762146,240.0344557762146,240.0344557762146,240.684552192688,2,0.781069278717041,None,,,,,,,,,,,,,,,,,,20,4,2025-02-18_15h07.01.174,comp,2024.2.4,57.946302011809465,2025-02-18 15h07.17.424293 -0500,
110,110,0,critical,dwh,35.0,2.1,lower,70.0,70.0,57.0,133.0,133.0,57.0,3,1.4671688079833984,None,,,,,0,0,0,0,0,110,110,28,240.70321321487427,,,,,,,,,,,,,,,,,,,,,,,,,,,,,,,,,,,,,,,,,,,,,,,,,,,,,,,,,,,,,,,,,,,,,,,,,,,,,,,,,70.0,70.0,57.0,133.0,133.0,57.0,2.1,2.11,-198,258,0,256,191,-269,240.68610906600952,240.68618869781494,240.68931794166565,240.70321321487427,240.85112380981445,240.85112380981445,240.85112380981445,240.85112380981445,240.85112380981445,240.85112380981445,240.85112380981445,242.18502855300903,3,1.4671688079833984,None,,,,,,,,,,,,,,,,,,20,4,2025-02-18_15h07.01.174,comp,2024.2.4,57.946302011809465,2025-02-18 15h07.17.424293 -0500,
111,111,0,filler_square,None,None,None,None,None,None,None,None,None,None,1,1.425844430923462,None,,,,,0,0,0,0,0,111,111,185,242.20065021514893,,,,,,,,,,,,,,,,,,,,,,,,,,,,,,,,,,,,,,,,,,,,,,,,,,,,,,,,,,,,,,,,,,,,,,,,,,,,,,,,,93.4029716029102,93.4029716029102,81.04853471839587,59.5052623396501,62.50452023764589,75.70892699627099,1.0,1.2,-172,-12,0,15,164,4,242.18681621551514,242.18690967559814,242.19028735160828,242.20065021514893,242.35086178779602,242.35086178779602,242.35086178779602,242.35086178779602,242.35086178779602,242.35086178779602,242.35086178779602,243.63488674163818,1,1.425844430923462,None,,,,,,,,,,,,,,,,,,20,4,2025-02-18_15h07.01.174,comp,2024.2.4,57.946302011809465,2025-02-18 15h07.17.424293 -0500,
112,112,0,catch,None,None,None,None,None,None,None,None,None,None,1,0.9511845111846924,None,,,,,0,0,0,0,0,112,112,125,243.6513967514038,,,,,,,,,,,,,,,,,,,,,,,,,,,,,,,,,,,,,,,,,,,,,,,,,,,,,,,,,,,,,,,,,,,,,,,,,,,,,,,,,191,134,120,70,70,120,4.0,4.1,-198,-257,0,11,191,-269,243.637038230896,243.63711977005005,243.64054822921753,243.6513967514038,243.79937767982483,243.79937767982483,243.79937767982483,243.79937767982483,243.79937767982483,243.79937767982483,243.79937767982483,244.61973214149475,1,0.9511845111846924,None,,,,,,,,,,,,,,,,,,20,4,2025-02-18_15h07.01.174,comp,2024.2.4,57.946302011809465,2025-02-18 15h07.17.424293 -0500,
113,113,0,filler_square,None,None,None,None,None,None,None,None,None,None,2,1.366727352142334,None,,,,,0,0,0,0,0,113,113,184,244.6354625225067,,,,,,,,,,,,,,,,,,,,,,,,,,,,,,,,,,,,,,,,,,,,,,,,,,,,,,,,,,,,,,,,,,,,,,,,,,,,,,,,,84.45547911310138,66.41498769422383,87.71965404896817,87.71965404896817,81.35774252349042,60.5497291159803,1.0,1.1,-653,281,-480,286,-310,256,244.62161326408386,244.62172603607178,244.62514972686768,244.6354625225067,244.7856788635254,244.7856788635254,244.7856788635254,244.7856788635254,244.7856788635254,244.7856788635254,244.7856788635254,246.00501203536987,2,1.366727352142334,None,,,,,,,,,,,,,,,,,,20,4,2025-02-18_15h07.01.174,comp,2024.2.4,57.946302011809465,2025-02-18 15h07.17.424293 -0500,
114,114,0,filler_random,None,None,None,None,None,None,None,None,None,None,3,1.6065306663513184,None,,,,,0,0,0,0,0,114,114,131,246.02170276641846,,,,,,,,,,,,,,,,,,,,,,,,,,,,,,,,,,,,,,,,,,,,,,,,,,,,,,,,,,,,,,,,,,,,,,,,,,,,,,,,,103.93693180917342,146.6336506471273,180.21615891438424,71.53288285344635,151.39673213457098,152.72442928379274,2.2,2.21,-205,-262,0,273,208,285,246.00701022148132,246.0070903301239,246.0109543800354,246.02170276641846,246.16885042190552,246.16885042190552,246.16885042190552,246.16885042190552,246.16885042190552,246.16885042190552,246.16885042190552,247.6392900943756,3,1.6065306663513184,None,,,,,,,,,,,,,,,,,,20,4,2025-02-18_15h07.01.174,comp,2024.2.4,57.946302011809465,2025-02-18 15h07.17.424293 -0500,
115,115,0,catch,None,None,None,None,None,None,None,None,None,None,2,1.0908749103546143,None,,,,,0,0,0,0,0,115,115,129,247.6560537815094,,,,,,,,,,,,,,,,,,,,,,,,,,,,,,,,,,,,,,,,,,,,,,,,,,,,,,,,,,,,,,,,,,,,,,,,,,,,,,,,,68,122,200,125,63,127,2.1,2.12,-220,-255,0,-276,222,250,247.64135313034058,247.64148044586182,247.64528632164001,247.6560537815094,247.80362248420715,247.80362248420715,247.80362248420715,247.80362248420715,247.80362248420715,247.80362248420715,247.80362248420715,248.7546055316925,2,1.0908749103546143,None,,,,,,,,,,,,,,,,,,20,4,2025-02-18_15h07.01.174,comp,2024.2.4,57.946302011809465,2025-02-18 15h07.17.424293 -0500,
116,116,0,filler_square,None,None,None,None,None,None,None,None,None,None,3,1.9262330532073975,None,,,,,0,0,0,0,0,116,116,206,248.77206110954285,,,,,,,,,,,,,,,,,,,,,,,,,,,,,,,,,,,,,,,,,,,,,,,,,,,,,,,,,,,,,,,,,,,,,,,,,,,,,,,,,66.96469398969822,72.17088931488416,76.48366134937626,74.5500939046034,80.3196360633781,80.3196360633781,3.0,3.1,-169,279,0,-9,173,-275,248.7566134929657,248.75674057006836,248.76062273979187,248.77206110954285,248.920081615448,248.920081615448,248.920081615448,248.920081615448,248.920081615448,248.920081615448,248.920081615448,250.7142152786255,3,1.9262330532073975,None,,,,,,,,,,,,,,,,,,20,4,2025-02-18_15h07.01.174,comp,2024.2.4,57.946302011809465,2025-02-18 15h07.17.424293 -0500,
117,117,0,filler_square,None,None,None,None,None,None,None,None,None,None,1,1.5804078578948975,None,,,,,0,0,0,0,0,117,117,199,250.73416209220886,,,,,,,,,,,,,,,,,,,,,,,,,,,,,,,,,,,,,,,,,,,,,,,,,,,,,,,,,,,,,,,,,,,,,,,,,,,,,,,,,156.23542049073845,156.23542049073845,67.46745106151522,136.90813541736497,115.52157356163293,125.59843882422786,1.0,1.1,-723,276,-480,265,-253,268,250.71601700782776,250.71609354019165,250.7189495563507,250.73416209220886,250.87286829948425,250.87286829948425,250.87286829948425,250.87286829948425,250.87286829948425,250.87286829948425,250.87286829948425,252.32546067237854,1,1.5804078578948975,None,,,,,,,,,,,,,,,,,,20,4,2025-02-18_15h07.01.174,comp,2024.2.4,57.946302011809465,2025-02-18 15h07.17.424293 -0500,
118,118,0,critical,dwh,35.0,3.0,lower,70.0,70.0,57.0,133.0,133.0,57.0,2,1.1613891124725342,None,,,,,0,0,0,0,0,118,118,62,252.3456630706787,,,,,,,,,,,,,,,,,,,,,,,,,,,,,,,,,,,,,,,,,,,,,,,,,,,,,,,,,,,,,,,,,,,,,,,,,,,,,,,,,70.0,70.0,57.0,133.0,133.0,57.0,3.0,3.2,-198,-286,0,-14,191,260,252.3274118900299,252.3274908065796,252.33043313026428,252.3456630706787,252.4870641231537,252.4870641231537,252.4870641231537,252.4870641231537,252.4870641231537,252.4870641231537,252.4870641231537,253.5135018825531,2,1.1613891124725342,None,,,,,,,,,,,,,,,,,,20,4,2025-02-18_15h07.01.174,comp,2024.2.4,57.946302011809465,2025-02-18 15h07.17.424293 -0500,
119,119,0,critical,wdh,20.0,3.0,upper,125.0,200.0,141.0,141.0,200.0,125.0,2,1.2015836238861084,None,,,,,0,0,0,0,0,119,119,81,253.53097009658813,,,,,,,,,,,,,,,,,,,,,,,,,,,,,,,,,,,,,,,,,,,,,,,,,,,,,,,,,,,,,,,,,,,,,,,,,,,,,,,,,125.0,200.0,141.0,141.0,200.0,125.0,3.0,3.2,-266,-256,0,16,229,251,253.51502346992493,253.51509976387024,253.5179727077484,253.53097009658813,253.67451310157776,253.67451310157776,253.67451310157776,253.67451310157776,253.67451310157776,253.67451310157776,253.67451310157776,254.73693561553955,2,1.2015836238861084,None,,,,,,,,,,,,,,,,,,20,4,2025-02-18_15h07.01.174,comp,2024.2.4,57.946302011809465,2025-02-18 15h07.17.424293 -0500,
120,120,0,filler_random,None,None,None,None,None,None,None,None,None,None,1,1.2252843379974365,None,,,,,0,0,0,0,0,120,120,165,254.75360751152039,,,,,,,,,,,,,,,,,,,,,,,,,,,,,,,,,,,,,,,,,,,,,,,,,,,,,,,,,,,,,,,,,,,,,,,,,,,,,,,,,166.6789401611393,110.96675249128378,115.25072182000318,86.78569739980631,69.36987899089561,144.6189838417714,3.0,3.2,-195,-282,0,-1,212,286,254.73864889144897,254.7387297153473,254.74188923835754,254.75360751152039,254.90189599990845,254.90189599990845,254.90189599990845,254.90189599990845,254.90189599990845,254.90189599990845,254.90189599990845,255.98924207687378,1,1.2252843379974365,None,,,,,,,,,,,,,,,,,,20,4,2025-02-18_15h07.01.174,comp,2024.2.4,57.946302011809465,2025-02-18 15h07.17.424293 -0500,
121,121,0,filler_random,None,None,None,None,None,None,None,None,None,None,1,2.6123790740966797,None,,,,,0,0,0,0,0,121,121,147,256.00616550445557,,,,,,,,,,,,,,,,,,,,,,,,,,,,,,,,,,,,,,,,,,,,,,,,,,,,,,,,,,,,,,,,,,,,,,,,,,,,,,,,,132.95258439048501,71.55925530936615,82.10093555775687,101.13909405993539,93.56712452459992,65.91293955748118,1.0,1.2,-182,9,0,0,180,18,255.99112486839294,255.99125957489014,255.99544048309326,256.00616550445557,256.15442991256714,256.15442991256714,256.15442991256714,256.15442991256714,256.15442991256714,256.15442991256714,256.15442991256714,258.6234107017517,1,2.6123790740966797,None,,,,,,,,,,,,,,,,,,20,4,2025-02-18_15h07.01.174,comp,2024.2.4,57.946302011809465,2025-02-18 15h07.17.424293 -0500,
122,122,0,filler_random,None,None,None,None,None,None,None,None,None,None,2,0.9467377662658691,None,,,,,0,0,0,0,0,122,122,130,258.6395790576935,,,,,,,,,,,,,,,,,,,,,,,,,,,,,,,,,,,,,,,,,,,,,,,,,,,,,,,,,,,,,,,,,,,,,,,,,,,,,,,,,68.45648061843671,163.56137525881252,188.54050754707794,123.67029556002447,170.12466357899575,141.40129947780957,3.0,3.2,-240,-255,0,-4,229,271,258.6251595020294,258.6252408027649,258.6287565231323,258.6395790576935,258.79044103622437,258.79044103622437,258.79044103622437,258.79044103622437,258.79044103622437,258.79044103622437,258.79044103622437,259.5961916446686,2,0.9467377662658691,None,,,,,,,,,,,,,,,,,,20,4,2025-02-18_15h07.01.174,comp,2024.2.4,57.946302011809465,2025-02-18 15h07.17.424293 -0500,
123,123,0,critical,dwh,20.0,1.0,upper,141.0,141.0,125.0,200.0,200.0,125.0,3,2.5515353679656982,None,,,,,0,0,0,0,0,123,123,67,259.61129117012024,,,,,,,,,,,,,,,,,,,,,,,,,,,,,,,,,,,,,,,,,,,,,,,,,,,,,,,,,,,,,,,,,,,,,,,,,,,,,,,,,141.0,141.0,125.0,200.0,200.0,125.0,1.0,1.1,-746,258,-480,283,-222,279,259.5977282524109,259.5978081226349,259.60069274902344,259.61129117012024,259.75727701187134,259.75727701187134,259.75727701187134,259.75727701187134,259.75727701187134,259.75727701187134,259.75727701187134,262.17422461509705,3,2.5515353679656982,None,,,,,,,,,,,,,,,,,,20,4,2025-02-18_15h07.01.174,comp,2024.2.4,57.946302011809465,2025-02-18 15h07.17.424293 -0500,
124,124,0,critical,dhw,35.0,2.1,upper,127.0,127.0,200.0,125.0,125.0,200.0,3,1.2523155212402344,None,,,,,0,0,0,0,0,124,124,25,262.1903541088104,,,,,,,,,,,,,,,,,,,,,,,,,,,,,,,,,,,,,,,,,,,,,,,,,,,,,,,,,,,,,,,,,,,,,,,,,,,,,,,,,127.0,127.0,200.0,125.0,125.0,200.0,2.1,2.11,-222,261,0,272,258,-281,262.1757984161377,262.175874710083,262.17928075790405,262.1903541088104,262.32801246643066,262.32801246643066,262.32801246643066,262.32801246643066,262.32801246643066,262.32801246643066,262.32801246643066,263.4597442150116,3,1.2523155212402344,None,,,,,,,,,,,,,,,,,,20,4,2025-02-18_15h07.01.174,comp,2024.2.4,57.946302011809465,2025-02-18 15h07.17.424293 -0500,
125,125,0,critical,hdw,35.0,3.0,lower,133.0,57.0,70.0,70.0,57.0,133.0,3,2.486889362335205,None,,,,,0,0,0,0,0,125,125,110,263.47544860839844,,,,,,,,,,,,,,,,,,,,,,,,,,,,,,,,,,,,,,,,,,,,,,,,,,,,,,,,,,,,,,,,,,,,,,,,,,,,,,,,,133.0,57.0,70.0,70.0,57.0,133.0,3.0,3.2,-160,-288,0,2,198,282,263.46132159233093,263.46143221855164,263.46488404273987,263.47544860839844,263.6268262863159,263.6268262863159,263.6268262863159,263.6268262863159,263.6268262863159,263.6268262863159,263.6268262863159,265.9766128063202,3,2.486889362335205,None,,,,,,,,,,,,,,,,,,20,4,2025-02-18_15h07.01.174,comp,2024.2.4,57.946302011809465,2025-02-18 15h07.17.424293 -0500,
126,126,0,critical,whd,20.0,2.1,lower,57.0,133.0,133.0,57.0,78.0,78.0,1,1.1699652671813965,None,,,,,0,0,0,0,0,126,126,14,265.99241852760315,,,,,,,,,,,,,,,,,,,,,,,,,,,,,,,,,,,,,,,,,,,,,,,,,,,,,,,,,,,,,,,,,,,,,,,,,,,,,,,,,57.0,133.0,133.0,57.0,78.0,78.0,2.1,2.11,-191,262,0,255,164,-255,265.97843623161316,265.9785795211792,265.98207092285156,265.99241852760315,266.14221477508545,266.14221477508545,266.14221477508545,266.14221477508545,266.14221477508545,266.14221477508545,266.14221477508545,267.1766052246094,1,1.1699652671813965,None,,,,,,,,,,,,,,,,,,20,4,2025-02-18_15h07.01.174,comp,2024.2.4,57.946302011809465,2025-02-18 15h07.17.424293 -0500,
127,127,0,critical,hdw,35.0,1.0,upper,200.0,125.0,127.0,127.0,125.0,200.0,1,0.9546029567718506,None,,,,,0,0,0,0,0,127,127,109,267.191855430603,,,,,,,,,,,,,,,,,,,,,,,,,,,,,,,,,,,,,,,,,,,,,,,,,,,,,,,,,,,,,,,,,,,,,,,,,,,,,,,,,200.0,125.0,127.0,127.0,125.0,200.0,1.0,1.3,258,-257,480,-256,740,-254,267.1781837940216,267.1782579421997,267.1815505027771,267.191855430603,267.3421080112457,267.3421080112457,267.3421080112457,267.3421080112457,267.3421080112457,267.3421080112457,267.3421080112457,268.15680050849915,1,0.9546029567718506,None,,,,,,,,,,,,,,,,,,20,4,2025-02-18_15h07.01.174,comp,2024.2.4,57.946302011809465,2025-02-18 15h07.17.424293 -0500,
128,128,0,filler_square,None,None,None,None,None,None,None,None,None,None,2,1.3012433052062988,None,,,,,0,0,0,0,0,128,128,196,268.1734616756439,,,,,,,,,,,,,,,,,,,,,,,,,,,,,,,,,,,,,,,,,,,,,,,,,,,,,,,,,,,,,,,,,,,,,,,,,,,,,,,,,97.21454653208608,64.53978416459464,124.10395399738044,124.10395399738044,122.5351161935166,92.05741919637379,2.1,2.12,-190,-274,0,-289,204,253,268.1585896015167,268.15866327285767,268.16154885292053,268.1734616756439,268.3086233139038,268.3086233139038,268.3086233139038,268.3086233139038,268.3086233139038,268.3086233139038,268.3086233139038,269.4797365665436,2,1.3012433052062988,None,,,,,,,,,,,,,,,,,,20,4,2025-02-18_15h07.01.174,comp,2024.2.4,57.946302011809465,2025-02-18 15h07.17.424293 -0500,
129,129,0,filler_random,None,None,None,None,None,None,None,None,None,None,1,2.0667295455932617,None,,,,,0,0,0,0,0,129,129,149,269.4956068992615,,,,,,,,,,,,,,,,,,,,,,,,,,,,,,,,,,,,,,,,,,,,,,,,,,,,,,,,,,,,,,,,,,,,,,,,,,,,,,,,,158.9271422029057,94.04811412910587,68.12539840466518,57.144303523138014,129.04898044836534,107.29587918933684,2.2,2.22,-172,253,0,-271,178,-266,269.4820086956024,269.4820890426636,269.4850254058838,269.4956068992615,269.6435897350311,269.6435897350311,269.6435897350311,269.6435897350311,269.6435897350311,269.6435897350311,269.6435897350311,271.58014583587646,1,2.0667295455932617,None,,,,,,,,,,,,,,,,,,20,4,2025-02-18_15h07.01.174,comp,2024.2.4,57.946302011809465,2025-02-18 15h07.17.424293 -0500,
130,130,0,critical,hdw,20.0,1.0,lower,133.0,57.0,78.0,78.0,57.0,133.0,3,1.596897840499878,None,,,,,0,0,0,0,0,130,130,114,271.5974028110504,,,,,,,,,,,,,,,,,,,,,,,,,,,,,,,,,,,,,,,,,,,,,,,,,,,,,,,,,,,,,,,,,,,,,,,,,,,,,,,,,133.0,57.0,78.0,78.0,57.0,133.0,1.0,1.2,-164,13,0,20,202,-12,271.5817039012909,271.58178305625916,271.58494663238525,271.5974028110504,271.74362897872925,271.74362897872925,271.74362897872925,271.74362897872925,271.74362897872925,271.74362897872925,271.74362897872925,273.2099051475525,3,1.596897840499878,None,,,,,,,,,,,,,,,,,,20,4,2025-02-18_15h07.01.174,comp,2024.2.4,57.946302011809465,2025-02-18 15h07.17.424293 -0500,
131,131,0,critical,dwh,35.0,4.0,upper,127.0,127.0,125.0,200.0,200.0,125.0,2,1.5040490627288818,None,,,,,0,0,0,0,0,131,131,65,273.226313829422,,,,,,,,,,,,,,,,,,,,,,,,,,,,,,,,,,,,,,,,,,,,,,,,,,,,,,,,,,,,,,,,,,,,,,,,,,,,,,,,,127.0,127.0,125.0,200.0,200.0,125.0,4.0,4.1,-260,-288,0,16,258,-265,273.21151185035706,273.211590051651,273.21491622924805,273.226313829422,273.3801031112671,273.3801031112671,273.3801031112671,273.3801031112671,273.3801031112671,273.3801031112671,273.3801031112671,274.7465925216675,2,1.5040490627288818,None,,,,,,,,,,,,,,,,,,20,4,2025-02-18_15h07.01.174,comp,2024.2.4,57.946302011809465,2025-02-18 15h07.17.424293 -0500,
132,132,0,filler_random,None,None,None,None,None,None,None,None,None,None,3,1.3845739364624023,None,,,,,0,0,0,0,0,132,132,167,274.76254391670227,,,,,,,,,,,,,,,,,,,,,,,,,,,,,,,,,,,,,,,,,,,,,,,,,,,,,,,,,,,,,,,,,,,,,,,,,,,,,,,,,149.81599368443352,94.21283095961698,144.67264542824154,100.91912629241472,94.48049243461182,80.43947540406671,2.1,2.12,-194,-264,0,-289,187,278,274.74869775772095,274.7488079071045,274.75231766700745,274.76254391670227,274.90979957580566,274.90979957580566,274.90979957580566,274.90979957580566,274.90979957580566,274.90979957580566,274.90979957580566,276.1546964645386,3,1.3845739364624023,None,,,,,,,,,,,,,,,,,,20,4,2025-02-18_15h07.01.174,comp,2024.2.4,57.946302011809465,2025-02-18 15h07.17.424293 -0500,
133,133,0,critical,whd,35.0,3.0,upper,125.0,200.0,200.0,125.0,127.0,127.0,2,1.8633956909179688,None,,,,,0,0,0,0,0,133,133,87,276.1707670688629,,,,,,,,,,,,,,,,,,,,,,,,,,,,,,,,,,,,,,,,,,,,,,,,,,,,,,,,,,,,,,,,,,,,,,,,,,,,,,,,,125.0,200.0,200.0,125.0,127.0,127.0,3.0,3.1,-258,256,0,-2,222,-267,276.15622329711914,276.1563012599945,276.15920400619507,276.1707670688629,276.3125698566437,276.3125698566437,276.3125698566437,276.3125698566437,276.3125698566437,276.3125698566437,276.3125698566437,278.0447292327881,2,1.8633956909179688,None,,,,,,,,,,,,,,,,,,20,4,2025-02-18_15h07.01.174,comp,2024.2.4,57.946302011809465,2025-02-18 15h07.17.424293 -0500,
134,134,0,critical,hdw,35.0,4.0,lower,133.0,57.0,70.0,70.0,57.0,133.0,1,2.522648334503174,None,,,,,0,0,0,0,0,134,134,112,278.06427812576294,,,,,,,,,,,,,,,,,,,,,,,,,,,,,,,,,,,,,,,,,,,,,,,,,,,,,,,,,,,,,,,,,,,,,,,,,,,,,,,,,133.0,57.0,70.0,70.0,57.0,133.0,4.0,4.2,-160,-8,0,-257,198,10,278.0461947917938,278.0462679862976,278.0494794845581,278.06427812576294,278.21291160583496,278.21291160583496,278.21291160583496,278.21291160583496,278.21291160583496,278.21291160583496,278.21291160583496,280.5953140258789,1,2.522648334503174,None,,,,,,,,,,,,,,,,,,20,4,2025-02-18_15h07.01.174,comp,2024.2.4,57.946302011809465,2025-02-18 15h07.17.424293 -0500,
135,135,0,critical,wdh,35.0,3.0,lower,57.0,133.0,70.0,70.0,133.0,57.0,3,1.1433615684509277,None,,,,,0,0,0,0,0,135,135,74,280.6117503643036,,,,,,,,,,,,,,,,,,,,,,,,,,,,,,,,,,,,,,,,,,,,,,,,,,,,,,,,,,,,,,,,,,,,,,,,,,,,,,,,,57.0,133.0,70.0,70.0,133.0,57.0,3.0,3.1,-198,251,0,-3,160,-254,280.59684562683105,280.5969223976135,280.6001019477844,280.6117503643036,280.76769828796387,280.76769828796387,280.76769828796387,280.76769828796387,280.76769828796387,280.76769828796387,280.76769828796387,281.7617175579071,3,1.1433615684509277,None,,,,,,,,,,,,,,,,,,20,4,2025-02-18_15h07.01.174,comp,2024.2.4,57.946302011809465,2025-02-18 15h07.17.424293 -0500,
136,136,0,critical,whd,35.0,1.0,lower,57.0,133.0,133.0,57.0,70.0,70.0,2,0.9808101654052734,None,,,,,0,0,0,0,0,136,136,84,281.78184056282043,,,,,,,,,,,,,,,,,,,,,,,,,,,,,,,,,,,,,,,,,,,,,,,,,,,,,,,,,,,,,,,,,,,,,,,,,,,,,,,,,57.0,133.0,133.0,57.0,70.0,70.0,1.0,1.2,-191,8,0,15,160,6,281.7632415294647,281.7633204460144,281.7667291164398,281.78184056282043,281.9293224811554,281.9293224811554,281.9293224811554,281.9293224811554,281.9293224811554,281.9293224811554,281.9293224811554,282.78040885925293,2,0.9808101654052734,None,,,,,,,,,,,,,,,,,,20,4,2025-02-18_15h07.01.174,comp,2024.2.4,57.946302011809465,2025-02-18 15h07.17.424293 -0500,
137,137,0,filler_square,None,None,None,None,None,None,None,None,None,None,1,1.4380617141723633,None,,,,,0,0,0,0,0,137,137,195,282.7962784767151,,,,,,,,,,,,,,,,,,,,,,,,,,,,,,,,,,,,,,,,,,,,,,,,,,,,,,,,,,,,,,,,,,,,,,,,,,,,,,,,,192.84436892701217,192.84436892701217,189.40580926609084,155.9361501180825,162.97014311668164,157.2997605530685,1.0,1.2,-270,6,0,-14,253,-7,282.78210639953613,282.7821786403656,282.78516149520874,282.7962784767151,282.9491136074066,282.9491136074066,282.9491136074066,282.9491136074066,282.9491136074066,282.9491136074066,282.9491136074066,284.24719190597534,1,1.4380617141723633,None,,,,,,,,,,,,,,,,,,20,4,2025-02-18_15h07.01.174,comp,2024.2.4,57.946302011809465,2025-02-18 15h07.17.424293 -0500,
138,138,0,critical,dwh,20.0,3.0,upper,141.0,141.0,125.0,200.0,200.0,125.0,2,1.4877772331237793,None,,,,,0,0,0,0,0,138,138,69,284.26659989356995,,,,,,,,,,,,,,,,,,,,,,,,,,,,,,,,,,,,,,,,,,,,,,,,,,,,,,,,,,,,,,,,,,,,,,,,,,,,,,,,,141.0,141.0,125.0,200.0,200.0,125.0,3.0,3.1,-266,263,0,-5,258,-254,284.2487542629242,284.2488329410553,284.2518877983093,284.26659989356995,284.403133392334,284.403133392334,284.403133392334,284.403133392334,284.403133392334,284.403133392334,284.403133392334,285.7645003795624,2,1.4877772331237793,None,,,,,,,,,,,,,,,,,,20,4,2025-02-18_15h07.01.174,comp,2024.2.4,57.946302011809465,2025-02-18 15h07.17.424293 -0500,
139,139,0,filler_random,None,None,None,None,None,None,None,None,None,None,1,0.7938196659088135,None,,,,,0,0,0,0,0,139,139,145,285.7850787639618,,,,,,,,,,,,,,,,,,,,,,,,,,,,,,,,,,,,,,,,,,,,,,,,,,,,,,,,,,,,,,,,,,,,,,,,,,,,,,,,,189.1065557756641,152.65018766586815,135.82233916500942,114.59700802953097,127.46862743103104,85.4833160043361,1.0,1.2,-230,4,0,-8,196,2,285.7661635875702,285.7662396430969,285.76944494247437,285.7850787639618,285.9323766231537,285.9323766231537,285.9323766231537,285.9323766231537,285.9323766231537,285.9323766231537,285.9323766231537,286.58900928497314,1,0.7938196659088135,None,,,,,,,,,,,,,,,,,,20,4,2025-02-18_15h07.01.174,comp,2024.2.4,57.946302011809465,2025-02-18 15h07.17.424293 -0500,
