thisN,thisTrialN,thisRepN,effect,order,distance,config,diag,h_1,w_1,h_2,w_2,h_3,w_3,rect_choice.keys,rect_choice.rt,rect_choice.duration,instructions_loop.thisRepN,instructions_loop.thisTrialN,instructions_loop.thisN,instructions_loop.thisIndex,blocks.thisRepN,blocks.thisTrialN,blocks.thisN,blocks.thisIndex,trials.thisRepN,trials.thisTrialN,trials.thisN,trials.thisIndex,thisRow.t,notes,consent.started,agree_button.started,decline_button.started,consent_img.started,mouse.started,consent.stopped,agree_button.numClicks,agree_button.timesOn,agree_button.timesOff,decline_button.numClicks,decline_button.timesOn,decline_button.timesOff,mouse.x,mouse.y,mouse.leftButton,mouse.midButton,mouse.rightButton,mouse.time,mouse.clicked_name,exp_params.started,exp_params.stopped,welcome.started,welcome_text.started,welcome.stopped,instructions_1.started,instructions_1_text_1.started,instructions_1_text_2.started,key_resp.started,instructions_1.stopped,instructions_loop.key_resp.keys,instructions_loop.key_resp.rt,instructions_loop.key_resp.duration,instructions_2.started,instructions_2_text_1.started,instructions_2_text_2.started,key_resp_2.started,instructions_2.stopped,instructions_loop.key_resp_2.keys,instructions_loop.key_resp_2.rt,instructions_loop.key_resp_2.duration,instructions_3.started,instructions_3_text_1.started,r1_instr3.started,r2_instr3.started,r3_instr3.started,r1_instr3_label.started,r2_instr3_label.started,r3_instr3_label.started,instructions_3_text_3.started,instructions_3_text_4.started,key_resp_3.started,instructions_3.stopped,instructions_loop.key_resp_3.keys,instructions_loop.key_resp_3.rt,instructions_loop.key_resp_3.duration,instructions_4.started,instructions_4_text_1.started,instructions_4_text_3.started,instructions_4_text_2.started,key_resp_4.started,instructions_4.stopped,instructions_loop.key_resp_4.keys,instructions_loop.key_resp_4.rt,instructions_loop.key_resp_4.duration,instructions_5.started,instructions_5_text_1.started,instructions_5_text_2.started,key_resp_5.started,instructions_5.stopped,instructions_loop.key_resp_5.keys,instructions_loop.key_resp_5.rt,instructions_loop.key_resp_5.duration,start_exp.started,start_exp_text.started,key_resp_6.started,start_exp.stopped,key_resp_6.keys,key_resp_6.rt,key_resp_6.duration,h_1_tmp,w_1_tmp,h_2_tmp,w_2_tmp,h_3_tmp,w_3_tmp,config_tmp,config_tmp_1,r_1_x,r_1_y,r_2_x,r_2_y,r_3_x,r_3_y,pre_trial.started,pre_trial.stopped,choice_trial.started,rect_choice.started,r_1.started,r_2.started,r_3.started,r_1_label.started,r_2_label.started,r_3_label.started,prompt.started,choice_trial.stopped,trials.rect_choice.keys,trials.rect_choice.rt,trials.rect_choice.duration,end_block.started,end_block_text.started,end_block.stopped,end.started,end_text.started,key_resp_7.started,end.stopped,key_resp_7.keys,key_resp_7.rt,key_resp_7.duration,debriefing.started,debrief_form.started,end_debrief.started,debriefing.stopped,end_debrief.keys,end_debrief.rt,end_debrief.duration,participant,computer,date,expName,psychopyVersion,frameRate,expStart,
,,,,,,,,,,,,,,,,,,,,,,,,,,,,,,,0.014770746231079102,0.03125619888305664,0.03125619888305664,0.03125619888305664,0.014581441879272461,12.877350091934204,0,,,0,,,[-66.0],[-525.0],[1],[0],[0],[12.862001419067383],['agree_button'],,,,,,,,,,,,,,,,,,,,,,,,,,,,,,,,,,,,,,,,,,,,,,,,,,,,,,,,,,,,,,,,,,,,,,,,,,,,,,,,,,,,,,,,,,,,,,,,,,,,,,,,,,,210,1,2025-03-07_10h47.09.833,comp,2024.2.4,57.073513903346736,2025-03-07 10h47.17.528577 -0500,
,,,,,,,,,,,,,,,,,,,,,,,,,,,,,,,,,,,,,,,,,,,,,,,,,,12.877737283706665,12.87783694267273,,,,,,,,,,,,,,,,,,,,,,,,,,,,,,,,,,,,,,,,,,,,,,,,,,,,,,,,,,,,,,,,,,,,,,,,,,,,,,,,,,,,,,,,,,,,,,,,,,,,,,,,,210,1,2025-03-07_10h47.09.833,comp,2024.2.4,57.073513903346736,2025-03-07 10h47.17.528577 -0500,
,,,,,,,,,,,,,,,,,,,,,,,,,,,,,,,,,,,,,,,,,,,,,,,,,,,,12.877900123596191,12.893044233322144,14.883548736572266,,,,,,,,,,,,,,,,,,,,,,,,,,,,,,,,,,,,,,,,,,,,,,,,,,,,,,,,,,,,,,,,,,,,,,,,,,,,,,,,,,,,,,,,,,,,,,,,,,,,,,210,1,2025-03-07_10h47.09.833,comp,2024.2.4,57.073513903346736,2025-03-07 10h47.17.528577 -0500,
0,0,0,,,,,,,,,,,,,,,0,0,0,0,,,,,,,,,14.90126085281372,,,,,,,,,,,,,,,,,,,,,,,,,,14.884493827819824,14.90126085281372,14.90126085281372,16.382701635360718,19.618036031723022,space,3.229433536529541,None,19.618184328079224,19.634297132492065,19.634297132492065,21.117677688598633,29.086616039276123,space,7.966335773468018,None,29.086766004562378,29.11922287940979,29.11922287940979,29.11922287940979,29.11922287940979,29.11922287940979,29.11922287940979,29.11922287940979,29.11922287940979,29.11922287940979,30.592045307159424,35.47796940803528,space,4.875518560409546,None,35.478140354156494,35.49460792541504,35.49460792541504,35.49460792541504,36.989038944244385,39.92451858520508,space,2.926461935043335,None,39.92466640472412,39.9399995803833,39.9399995803833,41.4235200881958,43.00901532173157,space,1.5723686218261719,None,43.009230613708496,43.024174451828,43.024174451828,44.24271845817566,space,1.211808443069458,None,,,,,,,,,,,,,,,,,,,,,,,,,,,,,,,,,,,,,,,,,,,,,,,210,1,2025-03-07_10h47.09.833,comp,2024.2.4,57.073513903346736,2025-03-07 10h47.17.528577 -0500,
0,0,0,critical,wdh,20.0,2.1,upper,125.0,200.0,141.0,141.0,200.0,125.0,1,5.245708465576172,None,,,,,0,0,0,0,0,0,0,35,44.31787323951721,,,,,,,,,,,,,,,,,,,,,,,,,,,,,,,,,,,,,,,,,,,,,,,,,,,,,,,,,,,,,,,,,,,,,,,,,,,,,,,,,125.0,200.0,141.0,141.0,200.0,125.0,2.1,2.12,-266,-279,0,-255,229,269,44.30132794380188,44.30137062072754,44.30281925201416,44.31787323951721,44.467511892318726,44.467511892318726,44.467511892318726,44.467511892318726,44.467511892318726,44.467511892318726,44.467511892318726,49.57731008529663,1,5.245708465576172,None,,,,,,,,,,,,,,,,,,210,1,2025-03-07_10h47.09.833,comp,2024.2.4,57.073513903346736,2025-03-07 10h47.17.528577 -0500,
1,1,0,critical,hdw,20.0,4.0,lower,133.0,57.0,78.0,78.0,57.0,133.0,3,18.13797950744629,None,,,,,0,0,0,0,0,1,1,118,49.593828201293945,,,,,,,,,,,,,,,,,,,,,,,,,,,,,,,,,,,,,,,,,,,,,,,,,,,,,,,,,,,,,,,,,,,,,,,,,,,,,,,,,133.0,57.0,78.0,78.0,57.0,133.0,4.0,4.2,-164,-8,0,-281,202,3,49.57895827293396,49.579092025756836,49.58254051208496,49.593828201293945,49.74465274810791,49.74465274810791,49.74465274810791,49.74465274810791,49.74465274810791,49.74465274810791,49.74465274810791,67.73425340652466,3,18.13797950744629,None,,,,,,,,,,,,,,,,,,210,1,2025-03-07_10h47.09.833,comp,2024.2.4,57.073513903346736,2025-03-07 10h47.17.528577 -0500,
2,2,0,critical,hdw,20.0,2.1,lower,133.0,57.0,78.0,78.0,57.0,133.0,3,6.289969205856323,None,,,,,0,0,0,0,0,2,2,22,67.75559115409851,,,,,,,,,,,,,,,,,,,,,,,,,,,,,,,,,,,,,,,,,,,,,,,,,,,,,,,,,,,,,,,,,,,,,,,,,,,,,,,,,133.0,57.0,78.0,78.0,57.0,133.0,2.1,2.12,-164,-271,0,-262,202,282,67.73577833175659,67.73585653305054,67.73955249786377,67.75559115409851,67.88713788986206,67.88713788986206,67.88713788986206,67.88713788986206,67.88713788986206,67.88713788986206,67.88713788986206,74.05059599876404,3,6.289969205856323,None,,,,,,,,,,,,,,,,,,210,1,2025-03-07_10h47.09.833,comp,2024.2.4,57.073513903346736,2025-03-07 10h47.17.528577 -0500,
3,3,0,critical,dhw,20.0,2.1,upper,141.0,141.0,200.0,125.0,125.0,200.0,3,2.2576911449432373,None,,,,,0,0,0,0,0,3,3,3,74.06640529632568,,,,,,,,,,,,,,,,,,,,,,,,,,,,,,,,,,,,,,,,,,,,,,,,,,,,,,,,,,,,,,,,,,,,,,,,,,,,,,,,,141.0,141.0,200.0,125.0,125.0,200.0,2.1,2.12,-229,-282,0,-262,258,289,74.0521650314331,74.05224680900574,74.05520558357239,74.06640529632568,74.21002769470215,74.21002769470215,74.21002769470215,74.21002769470215,74.21002769470215,74.21002769470215,74.21002769470215,76.34204196929932,3,2.2576911449432373,None,,,,,,,,,,,,,,,,,,210,1,2025-03-07_10h47.09.833,comp,2024.2.4,57.073513903346736,2025-03-07 10h47.17.528577 -0500,
4,4,0,critical,dhw,35.0,2.1,lower,70.0,70.0,133.0,57.0,57.0,133.0,3,3.6137001514434814,None,,,,,0,0,0,0,0,4,4,0,76.358243227005,,,,,,,,,,,,,,,,,,,,,,,,,,,,,,,,,,,,,,,,,,,,,,,,,,,,,,,,,,,,,,,,,,,,,,,,,,,,,,,,,70.0,70.0,133.0,57.0,57.0,133.0,2.1,2.11,-160,271,0,276,191,-275,76.34366035461426,76.34373688697815,76.34701299667358,76.358243227005,76.50217962265015,76.50217962265015,76.50217962265015,76.50217962265015,76.50217962265015,76.50217962265015,76.50217962265015,79.97623825073242,3,3.6137001514434814,None,,,,,,,,,,,,,,,,,,210,1,2025-03-07_10h47.09.833,comp,2024.2.4,57.073513903346736,2025-03-07 10h47.17.528577 -0500,
5,5,0,critical,wdh,20.0,1.0,lower,57.0,133.0,78.0,78.0,133.0,57.0,3,2.6608452796936035,None,,,,,0,0,0,0,0,5,5,78,79.99150776863098,,,,,,,,,,,,,,,,,,,,,,,,,,,,,,,,,,,,,,,,,,,,,,,,,,,,,,,,,,,,,,,,,,,,,,,,,,,,,,,,,57.0,133.0,78.0,78.0,133.0,57.0,1.0,1.2,-202,3,0,9,164,-13,79.97770166397095,79.97778272628784,79.98066067695618,79.99150776863098,80.13653516769409,80.13653516769409,80.13653516769409,80.13653516769409,80.13653516769409,80.13653516769409,80.13653516769409,82.65705895423889,3,2.6608452796936035,None,,,,,,,,,,,,,,,,,,210,1,2025-03-07_10h47.09.833,comp,2024.2.4,57.073513903346736,2025-03-07 10h47.17.528577 -0500,
6,6,0,filler_random,None,None,None,None,None,None,None,None,None,None,3,6.9627439975738525,None,,,,,0,0,0,0,0,6,6,131,82.67376399040222,,,,,,,,,,,,,,,,,,,,,,,,,,,,,,,,,,,,,,,,,,,,,,,,,,,,,,,,,,,,,,,,,,,,,,,,,,,,,,,,,111.60246740717784,90.17171783309342,198.93397766081713,68.891037191796,149.79965832772126,143.351089974533,3.0,3.1,-176,276,0,13,202,-285,82.65908288955688,82.65921521186829,82.66282081604004,82.67376399040222,82.82118058204651,82.82118058204651,82.82118058204651,82.82118058204651,82.82118058204651,82.82118058204651,82.82118058204651,89.6403706073761,3,6.9627439975738525,None,,,,,,,,,,,,,,,,,,210,1,2025-03-07_10h47.09.833,comp,2024.2.4,57.073513903346736,2025-03-07 10h47.17.528577 -0500,
7,7,0,critical,dhw,35.0,2.1,lower,70.0,70.0,133.0,57.0,57.0,133.0,3,2.7146694660186768,None,,,,,0,0,0,0,0,7,7,24,89.65773892402649,,,,,,,,,,,,,,,,,,,,,,,,,,,,,,,,,,,,,,,,,,,,,,,,,,,,,,,,,,,,,,,,,,,,,,,,,,,,,,,,,70.0,70.0,133.0,57.0,57.0,133.0,2.1,2.12,-160,-283,0,-281,191,281,89.64192342758179,89.64200782775879,89.64605760574341,89.65773892402649,89.81295275688171,89.81295275688171,89.81295275688171,89.81295275688171,89.81295275688171,89.81295275688171,89.81295275688171,92.39101219177246,3,2.7146694660186768,None,,,,,,,,,,,,,,,,,,210,1,2025-03-07_10h47.09.833,comp,2024.2.4,57.073513903346736,2025-03-07 10h47.17.528577 -0500,
8,8,0,filler_square,None,None,None,None,None,None,None,None,None,None,2,1.9565377235412598,None,,,,,0,0,0,0,0,8,8,202,92.40698862075806,,,,,,,,,,,,,,,,,,,,,,,,,,,,,,,,,,,,,,,,,,,,,,,,,,,,,,,,,,,,,,,,,,,,,,,,,,,,,,,,,153.44457741007074,100.30496502853671,192.8093930195667,192.8093930195667,97.52204590989616,73.12421099562177,3.0,3.2,-243,-289,0,0,229,286,92.39301824569702,92.39309692382812,92.39663100242615,92.40698862075806,92.55856251716614,92.55856251716614,92.55856251716614,92.55856251716614,92.55856251716614,92.55856251716614,92.55856251716614,94.38174438476562,2,1.9565377235412598,None,,,,,,,,,,,,,,,,,,210,1,2025-03-07_10h47.09.833,comp,2024.2.4,57.073513903346736,2025-03-07 10h47.17.528577 -0500,
9,9,0,catch,None,None,None,None,None,None,None,None,None,None,3,1.4369182586669922,None,,,,,0,0,0,0,0,9,9,128,94.40009784698486,,,,,,,,,,,,,,,,,,,,,,,,,,,,,,,,,,,,,,,,,,,,,,,,,,,,,,,,,,,,,,,,,,,,,,,,,,,,,,,,,94,96,120,70,135,190,3.0,3.2,-179,-262,0,-19,226,275,94.38393235206604,94.38401675224304,94.38730049133301,94.40009784698486,94.54566860198975,94.54566860198975,94.54566860198975,94.54566860198975,94.54566860198975,94.54566860198975,94.54566860198975,95.84245657920837,3,1.4369182586669922,None,,,,,,,,,,,,,,,,,,210,1,2025-03-07_10h47.09.833,comp,2024.2.4,57.073513903346736,2025-03-07 10h47.17.528577 -0500,
10,10,0,critical,wdh,20.0,3.0,lower,57.0,133.0,78.0,78.0,133.0,57.0,1,3.161313056945801,None,,,,,0,0,0,0,0,10,10,80,95.85847067832947,,,,,,,,,,,,,,,,,,,,,,,,,,,,,,,,,,,,,,,,,,,,,,,,,,,,,,,,,,,,,,,,,,,,,,,,,,,,,,,,,57.0,133.0,78.0,78.0,133.0,57.0,3.0,3.2,-202,-254,0,-8,164,284,95.84412598609924,95.84422898292542,95.84762048721313,95.85847067832947,96.00885057449341,96.00885057449341,96.00885057449341,96.00885057449341,96.00885057449341,96.00885057449341,96.00885057449341,99.03698635101318,1,3.161313056945801,None,,,,,,,,,,,,,,,,,,210,1,2025-03-07_10h47.09.833,comp,2024.2.4,57.073513903346736,2025-03-07 10h47.17.528577 -0500,
11,11,0,filler_random,None,None,None,None,None,None,None,None,None,None,1,1.5575857162475586,None,,,,,0,0,0,0,0,11,11,168,99.05434513092041,,,,,,,,,,,,,,,,,,,,,,,,,,,,,,,,,,,,,,,,,,,,,,,,,,,,,,,,,,,,,,,,,,,,,,,,,,,,,,,,,197.94228049944027,132.89652148374157,84.6848281490046,66.84930053233872,109.27569663922566,104.01447033225799,2.1,2.11,-196,262,0,275,181,-267,99.03867173194885,99.03874945640564,99.04163432121277,99.05434513092041,99.19239163398743,99.19239163398743,99.19239163398743,99.19239163398743,99.19239163398743,99.19239163398743,99.19239163398743,100.63148498535156,1,1.5575857162475586,None,,,,,,,,,,,,,,,,,,210,1,2025-03-07_10h47.09.833,comp,2024.2.4,57.073513903346736,2025-03-07 10h47.17.528577 -0500,
12,12,0,filler_random,None,None,None,None,None,None,None,None,None,None,1,1.5274059772491455,None,,,,,0,0,0,0,0,12,12,135,100.65241026878357,,,,,,,,,,,,,,,,,,,,,,,,,,,,,,,,,,,,,,,,,,,,,,,,,,,,,,,,,,,,,,,,,,,,,,,,,,,,,,,,,191.49883975532688,169.5783818956659,65.91339722020622,137.59013139462252,155.86707411734363,149.66690933940401,2.1,2.12,-250,-262,0,-272,240,257,100.63354110717773,100.63362312316895,100.6368842124939,100.65241026878357,100.79751968383789,100.79751968383789,100.79751968383789,100.79751968383789,100.79751968383789,100.79751968383789,100.79751968383789,102.19043827056885,1,1.5274059772491455,None,,,,,,,,,,,,,,,,,,210,1,2025-03-07_10h47.09.833,comp,2024.2.4,57.073513903346736,2025-03-07 10h47.17.528577 -0500,
13,13,0,critical,hwd,35.0,1.0,upper,200.0,125.0,125.0,200.0,127.0,127.0,2,5.053879499435425,None,,,,,0,0,0,0,0,13,13,97,102.20600271224976,,,,,,,,,,,,,,,,,,,,,,,,,,,,,,,,,,,,,,,,,,,,,,,,,,,,,,,,,,,,,,,,,,,,,,,,,,,,,,,,,200.0,125.0,125.0,200.0,127.0,127.0,1.0,1.1,-738,251,-480,254,-220,281,102.19199442863464,102.19207334518433,102.19521236419678,102.20600271224976,102.34195256233215,102.34195256233215,102.34195256233215,102.34195256233215,102.34195256233215,102.34195256233215,102.34195256233215,107.26983213424683,2,5.053879499435425,None,,,,,,,,,,,,,,,,,,210,1,2025-03-07_10h47.09.833,comp,2024.2.4,57.073513903346736,2025-03-07 10h47.17.528577 -0500,
14,14,0,filler_random,None,None,None,None,None,None,None,None,None,None,3,1.1044933795928955,None,,,,,0,0,0,0,0,14,14,154,107.2857072353363,,,,,,,,,,,,,,,,,,,,,,,,,,,,,,,,,,,,,,,,,,,,,,,,,,,,,,,,,,,,,,,,,,,,,,,,,,,,,,,,,72.57979318938413,107.24419289544281,88.11047361271325,87.13632083001102,187.4311423317784,157.5615152760939,2.1,2.12,-193,-260,0,-281,218,286,107.27156496047974,107.271644115448,107.27450799942017,107.2857072353363,107.42842888832092,107.42842888832092,107.42842888832092,107.42842888832092,107.42842888832092,107.42842888832092,107.42842888832092,108.39537072181702,3,1.1044933795928955,None,,,,,,,,,,,,,,,,,,210,1,2025-03-07_10h47.09.833,comp,2024.2.4,57.073513903346736,2025-03-07 10h47.17.528577 -0500,
15,15,0,filler_square,None,None,None,None,None,None,None,None,None,None,3,4.372092247009277,None,,,,,0,0,0,0,0,15,15,171,108.41547417640686,,,,,,,,,,,,,,,,,,,,,,,,,,,,,,,,,,,,,,,,,,,,,,,,,,,,,,,,,,,,,,,,,,,,,,,,,,,,,,,,,57.75102830223678,57.75102830223678,57.35979756039237,57.13822902047819,57.16146206664854,57.211332570491706,1.0,1.3,327,-260,480,-257,633,-265,108.39743709564209,108.39751935005188,108.40069580078125,108.41547417640686,108.56192398071289,108.56192398071289,108.56192398071289,108.56192398071289,108.56192398071289,108.56192398071289,108.56192398071289,112.7972297668457,3,4.372092247009277,None,,,,,,,,,,,,,,,,,,210,1,2025-03-07_10h47.09.833,comp,2024.2.4,57.073513903346736,2025-03-07 10h47.17.528577 -0500,
16,16,0,filler_square,None,None,None,None,None,None,None,None,None,None,1,1.6696083545684814,None,,,,,0,0,0,0,0,16,16,175,112.81400799751282,,,,,,,,,,,,,,,,,,,,,,,,,,,,,,,,,,,,,,,,,,,,,,,,,,,,,,,,,,,,,,,,,,,,,,,,,,,,,,,,,138.2577049519081,138.2577049519081,79.06274876542989,132.38926035641998,67.65471644446639,81.52677107935406,2.2,2.21,-231,-287,0,267,203,273,112.799067735672,112.79917407035828,112.80242490768433,112.81400799751282,112.96343946456909,112.96343946456909,112.96343946456909,112.96343946456909,112.96343946456909,112.96343946456909,112.96343946456909,114.49697470664978,1,1.6696083545684814,None,,,,,,,,,,,,,,,,,,210,1,2025-03-07_10h47.09.833,comp,2024.2.4,57.073513903346736,2025-03-07 10h47.17.528577 -0500,
17,17,0,critical,whd,20.0,3.0,upper,125.0,200.0,200.0,125.0,141.0,141.0,1,2.1476919651031494,None,,,,,0,0,0,0,0,17,17,93,114.51267719268799,,,,,,,,,,,,,,,,,,,,,,,,,,,,,,,,,,,,,,,,,,,,,,,,,,,,,,,,,,,,,,,,,,,,,,,,,,,,,,,,,125.0,200.0,200.0,125.0,141.0,141.0,3.0,3.2,-258,-251,0,-6,229,266,114.49849534034729,114.4985728263855,114.5015926361084,114.51267719268799,114.66367673873901,114.66367673873901,114.66367673873901,114.66367673873901,114.66367673873901,114.66367673873901,114.66367673873901,116.6626341342926,1,2.1476919651031494,None,,,,,,,,,,,,,,,,,,210,1,2025-03-07_10h47.09.833,comp,2024.2.4,57.073513903346736,2025-03-07 10h47.17.528577 -0500,
18,18,0,critical,wdh,20.0,2.1,lower,57.0,133.0,78.0,78.0,133.0,57.0,3,2.1643216609954834,None,,,,,0,0,0,0,0,18,18,10,116.67989110946655,,,,,,,,,,,,,,,,,,,,,,,,,,,,,,,,,,,,,,,,,,,,,,,,,,,,,,,,,,,,,,,,,,,,,,,,,,,,,,,,,57.0,133.0,78.0,78.0,133.0,57.0,2.1,2.11,-202,263,0,289,164,-274,116.66421127319336,116.66429090499878,116.66720294952393,116.67989110946655,116.81802654266357,116.81802654266357,116.81802654266357,116.81802654266357,116.81802654266357,116.81802654266357,116.81802654266357,118.85025644302368,3,2.1643216609954834,None,,,,,,,,,,,,,,,,,,210,1,2025-03-07_10h47.09.833,comp,2024.2.4,57.073513903346736,2025-03-07 10h47.17.528577 -0500,
19,19,0,catch,None,None,None,None,None,None,None,None,None,None,2,1.042100191116333,None,,,,,0,0,0,0,0,19,19,124,118.86651563644409,,,,,,,,,,,,,,,,,,,,,,,,,,,,,,,,,,,,,,,,,,,,,,,,,,,,,,,,,,,,,,,,,,,,,,,,,,,,,,,,,113,77,200,125,119,71,4.0,4.1,-197,-286,0,18,194,-262,118.8523473739624,118.85243511199951,118.85569500923157,118.86651563644409,119.0186538696289,119.0186538696289,119.0186538696289,119.0186538696289,119.0186538696289,119.0186538696289,119.0186538696289,119.91669082641602,2,1.042100191116333,None,,,,,,,,,,,,,,,,,,210,1,2025-03-07_10h47.09.833,comp,2024.2.4,57.073513903346736,2025-03-07 10h47.17.528577 -0500,
20,20,0,filler_random,None,None,None,None,None,None,None,None,None,None,1,5.310958385467529,None,,,,,0,0,0,0,0,20,20,158,119.93357586860657,,,,,,,,,,,,,,,,,,,,,,,,,,,,,,,,,,,,,,,,,,,,,,,,,,,,,,,,,,,,,,,,,,,,,,,,,,,,,,,,,185.3558059375229,80.63985945961731,59.610939674813,168.8962083946879,194.77863062331613,61.39425723821094,4.0,4.2,-221,17,0,-290,211,16,119.91861486434937,119.91873025894165,119.9225914478302,119.93357586860657,120.08637738227844,120.08637738227844,120.08637738227844,120.08637738227844,120.08637738227844,120.08637738227844,120.08637738227844,125.25163888931274,1,5.310958385467529,None,,,,,,,,,,,,,,,,,,210,1,2025-03-07_10h47.09.833,comp,2024.2.4,57.073513903346736,2025-03-07 10h47.17.528577 -0500,
21,21,0,filler_square,None,None,None,None,None,None,None,None,None,None,1,1.455035924911499,None,,,,,0,0,0,0,0,21,21,189,125.26865363121033,,,,,,,,,,,,,,,,,,,,,,,,,,,,,,,,,,,,,,,,,,,,,,,,,,,,,,,,,,,,,,,,,,,,,,,,,,,,,,,,,76.10946827262411,76.10946827262411,67.7732804993531,62.14923057630836,63.056425845843606,66.95920045891128,4.0,4.1,-165,-254,0,-3,161,-265,125.25353527069092,125.25361609458923,125.25762867927551,125.26865363121033,125.41605877876282,125.41605877876282,125.41605877876282,125.41605877876282,125.41605877876282,125.41605877876282,125.41605877876282,126.73433256149292,1,1.455035924911499,None,,,,,,,,,,,,,,,,,,210,1,2025-03-07_10h47.09.833,comp,2024.2.4,57.073513903346736,2025-03-07 10h47.17.528577 -0500,
22,22,0,critical,dhw,20.0,2.1,lower,78.0,78.0,133.0,57.0,57.0,133.0,2,2.8897860050201416,None,,,,,0,0,0,0,0,22,22,2,126.75402998924255,,,,,,,,,,,,,,,,,,,,,,,,,,,,,,,,,,,,,,,,,,,,,,,,,,,,,,,,,,,,,,,,,,,,,,,,,,,,,,,,,78.0,78.0,133.0,57.0,57.0,133.0,2.1,2.12,-164,-272,0,-251,191,271,126.73597192764282,126.73605298995972,126.73958468437195,126.75402998924255,126.90271496772766,126.90271496772766,126.90271496772766,126.90271496772766,126.90271496772766,126.90271496772766,126.90271496772766,129.65374445915222,2,2.8897860050201416,None,,,,,,,,,,,,,,,,,,210,1,2025-03-07_10h47.09.833,comp,2024.2.4,57.073513903346736,2025-03-07 10h47.17.528577 -0500,
23,23,0,critical,whd,35.0,3.0,lower,57.0,133.0,133.0,57.0,70.0,70.0,2,2.678473711013794,None,,,,,0,0,0,0,0,23,23,86,129.66962790489197,,,,,,,,,,,,,,,,,,,,,,,,,,,,,,,,,,,,,,,,,,,,,,,,,,,,,,,,,,,,,,,,,,,,,,,,,,,,,,,,,57.0,133.0,133.0,57.0,70.0,70.0,3.0,3.1,-191,285,0,1,160,-269,129.6553406715393,129.655419588089,129.6586241722107,129.66962790489197,129.8187804222107,129.8187804222107,129.8187804222107,129.8187804222107,129.8187804222107,129.8187804222107,129.8187804222107,132.35636353492737,2,2.678473711013794,None,,,,,,,,,,,,,,,,,,210,1,2025-03-07_10h47.09.833,comp,2024.2.4,57.073513903346736,2025-03-07 10h47.17.528577 -0500,
24,24,0,filler_random,None,None,None,None,None,None,None,None,None,None,2,1.9175441265106201,None,,,,,0,0,0,0,0,24,24,165,132.3764684200287,,,,,,,,,,,,,,,,,,,,,,,,,,,,,,,,,,,,,,,,,,,,,,,,,,,,,,,,,,,,,,,,,,,,,,,,,,,,,,,,,109.36222879096003,86.81376977946313,176.48128656927324,89.76072686414966,103.39569901964057,117.66893692741763,2.1,2.12,-184,-284,0,-266,200,259,132.35848188400269,132.35862255096436,132.36164927482605,132.3764684200287,132.52158546447754,132.52158546447754,132.52158546447754,132.52158546447754,132.52158546447754,132.52158546447754,132.52158546447754,134.3055703639984,2,1.9175441265106201,None,,,,,,,,,,,,,,,,,,210,1,2025-03-07_10h47.09.833,comp,2024.2.4,57.073513903346736,2025-03-07 10h47.17.528577 -0500,
25,25,0,filler_square,None,None,None,None,None,None,None,None,None,None,2,2.641918897628784,None,,,,,0,0,0,0,0,25,25,183,134.32210898399353,,,,,,,,,,,,,,,,,,,,,,,,,,,,,,,,,,,,,,,,,,,,,,,,,,,,,,,,,,,,,,,,,,,,,,,,,,,,,,,,,63.39753563696044,57.66083160357599,90.00406736621298,86.98730101173413,96.90504116238459,96.90504116238459,2.1,2.12,-168,-271,0,-282,188,260,134.30767011642456,134.30775213241577,134.31103610992432,134.32210898399353,134.46181201934814,134.46181201934814,134.46181201934814,134.46181201934814,134.46181201934814,134.46181201934814,134.46181201934814,136.9741666316986,2,2.641918897628784,None,,,,,,,,,,,,,,,,,,210,1,2025-03-07_10h47.09.833,comp,2024.2.4,57.073513903346736,2025-03-07 10h47.17.528577 -0500,
26,26,0,critical,dwh,35.0,3.0,lower,70.0,70.0,57.0,133.0,133.0,57.0,3,2.8211021423339844,None,,,,,0,0,0,0,0,26,26,62,136.9908185005188,,,,,,,,,,,,,,,,,,,,,,,,,,,,,,,,,,,,,,,,,,,,,,,,,,,,,,,,,,,,,,,,,,,,,,,,,,,,,,,,,70.0,70.0,57.0,133.0,133.0,57.0,3.0,3.2,-198,-263,0,11,191,250,136.97597241401672,136.976083278656,136.97984766960144,136.9908185005188,137.14633083343506,137.14633083343506,137.14633083343506,137.14633083343506,137.14633083343506,137.14633083343506,137.14633083343506,139.82930636405945,3,2.8211021423339844,None,,,,,,,,,,,,,,,,,,210,1,2025-03-07_10h47.09.833,comp,2024.2.4,57.073513903346736,2025-03-07 10h47.17.528577 -0500,
27,27,0,filler_random,None,None,None,None,None,None,None,None,None,None,1,1.0784645080566406,None,,,,,0,0,0,0,0,27,27,145,139.84518480300903,,,,,,,,,,,,,,,,,,,,,,,,,,,,,,,,,,,,,,,,,,,,,,,,,,,,,,,,,,,,,,,,,,,,,,,,,,,,,,,,,194.65337781423983,188.051028328421,125.24760925099103,150.9645398456283,98.34660236908768,133.5677375853324,3.0,3.1,-266,270,0,-11,238,-280,139.83093523979187,139.83102011680603,139.83386540412903,139.84518480300903,139.98664164543152,139.98664164543152,139.98664164543152,139.98664164543152,139.98664164543152,139.98664164543152,139.98664164543152,140.93739342689514,1,1.0784645080566406,None,,,,,,,,,,,,,,,,,,210,1,2025-03-07_10h47.09.833,comp,2024.2.4,57.073513903346736,2025-03-07 10h47.17.528577 -0500,
28,28,0,filler_random,None,None,None,None,None,None,None,None,None,None,3,1.9959094524383545,None,,,,,0,0,0,0,0,28,28,146,140.951886177063,,,,,,,,,,,,,,,,,,,,,,,,,,,,,,,,,,,,,,,,,,,,,,,,,,,,,,,,,,,,,,,,,,,,,,,,,,,,,,,,,90.07227176271955,146.42114542438514,84.60162101738553,171.225374983071,171.856368999101,105.91975256368374,2.2,2.22,-255,264,0,-264,235,-275,140.93907761573792,140.9391553401947,140.9419984817505,140.951886177063,141.0901198387146,141.0901198387146,141.0901198387146,141.0901198387146,141.0901198387146,141.0901198387146,141.0901198387146,142.94989848136902,3,1.9959094524383545,None,,,,,,,,,,,,,,,,,,210,1,2025-03-07_10h47.09.833,comp,2024.2.4,57.073513903346736,2025-03-07 10h47.17.528577 -0500,
29,29,0,filler_square,None,None,None,None,None,None,None,None,None,None,1,1.725238561630249,None,,,,,0,0,0,0,0,29,29,182,142.96667575836182,,,,,,,,,,,,,,,,,,,,,,,,,,,,,,,,,,,,,,,,,,,,,,,,,,,,,,,,,,,,,,,,,,,,,,,,,,,,,,,,,125.19100710854353,125.19100710854353,65.9956844284049,61.22816531059601,86.13971702037372,98.03367012024013,3.0,3.1,-189,289,0,13,176,-256,142.95189690589905,142.95201444625854,142.95528078079224,142.96667575836182,143.10614466667175,143.10614466667175,143.10614466667175,143.10614466667175,143.10614466667175,143.10614466667175,143.10614466667175,144.70976495742798,1,1.725238561630249,None,,,,,,,,,,,,,,,,,,210,1,2025-03-07_10h47.09.833,comp,2024.2.4,57.073513903346736,2025-03-07 10h47.17.528577 -0500,
30,30,0,critical,hwd,20.0,1.0,lower,133.0,57.0,57.0,133.0,78.0,78.0,2,1.7346575260162354,None,,,,,0,0,0,0,0,30,30,102,144.72517347335815,,,,,,,,,,,,,,,,,,,,,,,,,,,,,,,,,,,,,,,,,,,,,,,,,,,,,,,,,,,,,,,,,,,,,,,,,,,,,,,,,133.0,57.0,57.0,133.0,78.0,78.0,1.0,1.3,289,-258,480,-284,682,-264,144.71137619018555,144.7114543914795,144.71461129188538,144.72517347335815,144.87327599525452,144.87327599525452,144.87327599525452,144.87327599525452,144.87327599525452,144.87327599525452,144.87327599525452,146.47515773773193,2,1.7346575260162354,None,,,,,,,,,,,,,,,,,,210,1,2025-03-07_10h47.09.833,comp,2024.2.4,57.073513903346736,2025-03-07 10h47.17.528577 -0500,
31,31,0,critical,hdw,35.0,3.0,upper,200.0,125.0,127.0,127.0,125.0,200.0,3,1.9771289825439453,None,,,,,0,0,0,0,0,31,31,111,146.49061918258667,,,,,,,,,,,,,,,,,,,,,,,,,,,,,,,,,,,,,,,,,,,,,,,,,,,,,,,,,,,,,,,,,,,,,,,,,,,,,,,,,200.0,125.0,127.0,127.0,125.0,200.0,3.0,3.1,-222,258,0,20,260,-288,146.47674703598022,146.47682642936707,146.48025918006897,146.49061918258667,146.63927054405212,146.63927054405212,146.63927054405212,146.63927054405212,146.63927054405212,146.63927054405212,146.63927054405212,148.48494148254395,3,1.9771289825439453,None,,,,,,,,,,,,,,,,,,210,1,2025-03-07_10h47.09.833,comp,2024.2.4,57.073513903346736,2025-03-07 10h47.17.528577 -0500,
32,32,0,critical,hdw,20.0,3.0,upper,200.0,125.0,141.0,141.0,125.0,200.0,3,2.05157732963562,None,,,,,0,0,0,0,0,32,32,117,148.50481009483337,,,,,,,,,,,,,,,,,,,,,,,,,,,,,,,,,,,,,,,,,,,,,,,,,,,,,,,,,,,,,,,,,,,,,,,,,,,,,,,,,200.0,125.0,141.0,141.0,125.0,200.0,3.0,3.2,-229,-273,0,-7,266,260,148.48646306991577,148.48654127120972,148.489417552948,148.50481009483337,148.6420476436615,148.6420476436615,148.6420476436615,148.6420476436615,148.6420476436615,148.6420476436615,148.6420476436615,150.55961775779724,3,2.05157732963562,None,,,,,,,,,,,,,,,,,,210,1,2025-03-07_10h47.09.833,comp,2024.2.4,57.073513903346736,2025-03-07 10h47.17.528577 -0500,
33,33,0,critical,hdw,20.0,1.0,upper,200.0,125.0,141.0,141.0,125.0,200.0,1,4.076703786849976,None,,,,,0,0,0,0,0,33,33,115,150.57624197006226,,,,,,,,,,,,,,,,,,,,,,,,,,,,,,,,,,,,,,,,,,,,,,,,,,,,,,,,,,,,,,,,,,,,,,,,,,,,,,,,,200.0,125.0,141.0,141.0,125.0,200.0,1.0,1.1,-709,270,-480,279,-214,288,150.56121182441711,150.56129503250122,150.5653576850891,150.57624197006226,150.72621178627014,150.72621178627014,150.72621178627014,150.72621178627014,150.72621178627014,150.72621178627014,150.72621178627014,154.66356301307678,1,4.076703786849976,None,,,,,,,,,,,,,,,,,,210,1,2025-03-07_10h47.09.833,comp,2024.2.4,57.073513903346736,2025-03-07 10h47.17.528577 -0500,
34,34,0,filler_random,None,None,None,None,None,None,None,None,None,None,2,1.4680306911468506,None,,,,,0,0,0,0,0,34,34,159,154.67975401878357,,,,,,,,,,,,,,,,,,,,,,,,,,,,,,,,,,,,,,,,,,,,,,,,,,,,,,,,,,,,,,,,,,,,,,,,,,,,,,,,,137.34463977497205,155.076857045088,180.16425989814448,153.7306689259811,92.06331506666578,98.4840966524711,2.2,2.22,-250,289,0,-282,222,-285,154.6654109954834,154.6654930114746,154.66879153251648,154.67975401878357,154.82417130470276,154.82417130470276,154.82417130470276,154.82417130470276,154.82417130470276,154.82417130470276,154.82417130470276,156.16085004806519,2,1.4680306911468506,None,,,,,,,,,,,,,,,,,,210,1,2025-03-07_10h47.09.833,comp,2024.2.4,57.073513903346736,2025-03-07 10h47.17.528577 -0500,
35,35,0,filler_square,None,None,None,None,None,None,None,None,None,None,3,1.6796448230743408,None,,,,,0,0,0,0,0,35,35,172,156.18085885047913,,,,,,,,,,,,,,,,,,,,,,,,,,,,,,,,,,,,,,,,,,,,,,,,,,,,,,,,,,,,,,,,,,,,,,,,,,,,,,,,,75.53105747629053,88.1387428154634,91.5996533557223,78.33408228986434,102.03813798287268,102.03813798287268,3.0,3.2,-179,-262,0,14,186,268,156.16274428367615,156.16282176971436,156.16584038734436,156.18085885047913,156.32701873779297,156.32701873779297,156.32701873779297,156.32701873779297,156.32701873779297,156.32701873779297,156.32701873779297,157.8647584915161,3,1.6796448230743408,None,,,,,,,,,,,,,,,,,,210,1,2025-03-07_10h47.09.833,comp,2024.2.4,57.073513903346736,2025-03-07 10h47.17.528577 -0500,
36,36,0,critical,whd,35.0,1.0,lower,57.0,133.0,133.0,57.0,70.0,70.0,2,1.6752774715423584,None,,,,,0,0,0,0,0,36,36,84,157.88122153282166,,,,,,,,,,,,,,,,,,,,,,,,,,,,,,,,,,,,,,,,,,,,,,,,,,,,,,,,,,,,,,,,,,,,,,,,,,,,,,,,,57.0,133.0,133.0,57.0,70.0,70.0,1.0,1.1,-671,290,-480,276,-320,277,157.86636447906494,157.86644673347473,157.86955618858337,157.88122153282166,158.03318071365356,158.03318071365356,158.03318071365356,158.03318071365356,158.03318071365356,158.03318071365356,158.03318071365356,159.5630340576172,2,1.6752774715423584,None,,,,,,,,,,,,,,,,,,210,1,2025-03-07_10h47.09.833,comp,2024.2.4,57.073513903346736,2025-03-07 10h47.17.528577 -0500,
37,37,0,critical,dhw,35.0,4.0,upper,127.0,127.0,200.0,125.0,125.0,200.0,3,1.4962120056152344,None,,,,,0,0,0,0,0,37,37,53,159.57944107055664,,,,,,,,,,,,,,,,,,,,,,,,,,,,,,,,,,,,,,,,,,,,,,,,,,,,,,,,,,,,,,,,,,,,,,,,,,,,,,,,,127.0,127.0,200.0,125.0,125.0,200.0,4.0,4.2,-222,-3,0,-279,258,15,159.56453585624695,159.5646150112152,159.56776189804077,159.57944107055664,159.7280387878418,159.7280387878418,159.7280387878418,159.7280387878418,159.7280387878418,159.7280387878418,159.7280387878418,161.07939743995667,3,1.4962120056152344,None,,,,,,,,,,,,,,,,,,210,1,2025-03-07_10h47.09.833,comp,2024.2.4,57.073513903346736,2025-03-07 10h47.17.528577 -0500,
38,38,0,filler_random,None,None,None,None,None,None,None,None,None,None,2,1.5812032222747803,None,,,,,0,0,0,0,0,38,38,147,161.09571075439453,,,,,,,,,,,,,,,,,,,,,,,,,,,,,,,,,,,,,,,,,,,,,,,,,,,,,,,,,,,,,,,,,,,,,,,,,,,,,,,,,140.10578149962078,61.26028157219661,190.38314341720852,129.06561169124552,96.89772491227023,180.14317095550848,2.1,2.12,-191,-271,0,-275,251,273,161.0814528465271,161.0815327167511,161.08498239517212,161.09571075439453,161.2547960281372,161.2547960281372,161.2547960281372,161.2547960281372,161.2547960281372,161.2547960281372,161.2547960281372,162.6799910068512,2,1.5812032222747803,None,,,,,,,,,,,,,,,,,,210,1,2025-03-07_10h47.09.833,comp,2024.2.4,57.073513903346736,2025-03-07 10h47.17.528577 -0500,
39,39,0,filler_random,None,None,None,None,None,None,None,None,None,None,1,1.314178705215454,None,,,,,0,0,0,0,0,39,39,152,162.69744205474854,,,,,,,,,,,,,,,,,,,,,,,,,,,,,,,,,,,,,,,,,,,,,,,,,,,,,,,,,,,,,,,,,,,,,,,,,,,,,,,,,91.99635600584585,191.4806440540143,110.99649852945873,109.27563100723464,58.27756267990047,142.12421397966793,4.0,4.2,-246,-12,0,-258,222,-14,162.6817078590393,162.68178796768188,162.6854395866394,162.69744205474854,162.8514266014099,162.8514266014099,162.8514266014099,162.8514266014099,162.8514266014099,162.8514266014099,162.8514266014099,164.01449584960938,1,1.314178705215454,None,,,,,,,,,,,,,,,,,,210,1,2025-03-07_10h47.09.833,comp,2024.2.4,57.073513903346736,2025-03-07 10h47.17.528577 -0500,
40,40,0,critical,whd,20.0,4.0,upper,125.0,200.0,200.0,125.0,141.0,141.0,2,3.247314453125,None,,,,,0,0,0,0,0,40,40,95,164.0291395187378,,,,,,,,,,,,,,,,,,,,,,,,,,,,,,,,,,,,,,,,,,,,,,,,,,,,,,,,,,,,,,,,,,,,,,,,,,,,,,,,,125.0,200.0,200.0,125.0,141.0,141.0,4.0,4.2,-258,5,0,-286,229,17,164.01602339744568,164.0161006450653,164.01935577392578,164.0291395187378,164.17679357528687,164.17679357528687,164.17679357528687,164.17679357528687,164.17679357528687,164.17679357528687,164.17679357528687,167.28204655647278,2,3.247314453125,None,,,,,,,,,,,,,,,,,,210,1,2025-03-07_10h47.09.833,comp,2024.2.4,57.073513903346736,2025-03-07 10h47.17.528577 -0500,
41,41,0,filler_random,None,None,None,None,None,None,None,None,None,None,1,1.074751615524292,None,,,,,0,0,0,0,0,41,41,133,167.29804372787476,,,,,,,,,,,,,,,,,,,,,,,,,,,,,,,,,,,,,,,,,,,,,,,,,,,,,,,,,,,,,,,,,,,,,,,,,,,,,,,,,179.259136016475,64.40148069547963,81.04320635785132,164.9520875175014,169.79235206840224,115.34959779537253,4.0,4.1,-211,-288,0,-1,236,-254,167.2837119102478,167.2837963104248,167.28718066215515,167.29804372787476,167.45283317565918,167.45283317565918,167.45283317565918,167.45283317565918,167.45283317565918,167.45283317565918,167.45283317565918,168.38370752334595,1,1.074751615524292,None,,,,,,,,,,,,,,,,,,210,1,2025-03-07_10h47.09.833,comp,2024.2.4,57.073513903346736,2025-03-07 10h47.17.528577 -0500,
42,42,0,critical,dwh,35.0,1.0,lower,70.0,70.0,57.0,133.0,133.0,57.0,3,5.660048246383667,None,,,,,0,0,0,0,0,42,42,60,168.40036487579346,,,,,,,,,,,,,,,,,,,,,,,,,,,,,,,,,,,,,,,,,,,,,,,,,,,,,,,,,,,,,,,,,,,,,,,,,,,,,,,,,70.0,70.0,57.0,133.0,133.0,57.0,1.0,1.1,-678,250,-480,270,-289,281,168.38550114631653,168.38558316230774,168.38945889472961,168.40036487579346,168.55187320709229,168.55187320709229,168.55187320709229,168.55187320709229,168.55187320709229,168.55187320709229,168.55187320709229,174.06805729866028,3,5.660048246383667,None,,,,,,,,,,,,,,,,,,210,1,2025-03-07_10h47.09.833,comp,2024.2.4,57.073513903346736,2025-03-07 10h47.17.528577 -0500,
43,43,0,filler_random,None,None,None,None,None,None,None,None,None,None,2,2.7591617107391357,None,,,,,0,0,0,0,0,43,43,162,174.0847885608673,,,,,,,,,,,,,,,,,,,,,,,,,,,,,,,,,,,,,,,,,,,,,,,,,,,,,,,,,,,,,,,,,,,,,,,,,,,,,,,,,175.30694056683936,161.4325071724104,168.00653731860965,192.40069736718556,181.3248090962622,125.60664160924426,3.0,3.1,-273,261,0,15,255,-290,174.07026767730713,174.07040786743164,174.07383394241333,174.0847885608673,174.2350950241089,174.2350950241089,174.2350950241089,174.2350950241089,174.2350950241089,174.2350950241089,174.2350950241089,176.8645315170288,2,2.7591617107391357,None,,,,,,,,,,,,,,,,,,210,1,2025-03-07_10h47.09.833,comp,2024.2.4,57.073513903346736,2025-03-07 10h47.17.528577 -0500,
44,44,0,catch,None,None,None,None,None,None,None,None,None,None,2,1.3582642078399658,None,,,,,0,0,0,0,0,44,44,126,176.88550186157227,,,,,,,,,,,,,,,,,,,,,,,,,,,,,,,,,,,,,,,,,,,,,,,,,,,,,,,,,,,,,,,,,,,,,,,,,,,,,,,,,63,127,139,186,106,84,2.2,2.22,-252,281,0,-289,231,-257,176.86667609214783,176.86675667762756,176.87001538276672,176.88550186157227,177.01828289031982,177.01828289031982,177.01828289031982,177.01828289031982,177.01828289031982,177.01828289031982,177.01828289031982,178.26156640052795,2,1.3582642078399658,None,,,,,,,,,,,,,,,,,,210,1,2025-03-07_10h47.09.833,comp,2024.2.4,57.073513903346736,2025-03-07 10h47.17.528577 -0500,
45,45,0,filler_random,None,None,None,None,None,None,None,None,None,None,3,1.1427597999572754,None,,,,,0,0,0,0,0,45,45,132,178.2768440246582,,,,,,,,,,,,,,,,,,,,,,,,,,,,,,,,,,,,,,,,,,,,,,,,,,,,,,,,,,,,,,,,,,,,,,,,,,,,,,,,,151.37029159255624,170.65537073388492,192.6179748293195,109.67352896025444,172.14894662130183,171.88966430262207,3.0,3.1,-236,280,0,8,237,-253,178.26327776908875,178.26335835456848,178.2661783695221,178.2768440246582,178.41566920280457,178.41566920280457,178.41566920280457,178.41566920280457,178.41566920280457,178.41566920280457,178.41566920280457,179.4360375404358,3,1.1427597999572754,None,,,,,,,,,,,,,,,,,,210,1,2025-03-07_10h47.09.833,comp,2024.2.4,57.073513903346736,2025-03-07 10h47.17.528577 -0500,
46,46,0,critical,wdh,35.0,2.1,upper,125.0,200.0,127.0,127.0,200.0,125.0,1,1.1573772430419922,None,,,,,0,0,0,0,0,46,46,9,179.4547655582428,,,,,,,,,,,,,,,,,,,,,,,,,,,,,,,,,,,,,,,,,,,,,,,,,,,,,,,,,,,,,,,,,,,,,,,,,,,,,,,,,125.0,200.0,127.0,127.0,200.0,125.0,2.1,2.12,-260,-263,0,-287,222,271,179.43763852119446,179.43771481513977,179.44105529785156,179.4547655582428,179.6016526222229,179.6016526222229,179.6016526222229,179.6016526222229,179.6016526222229,179.6016526222229,179.6016526222229,180.61850953102112,1,1.1573772430419922,None,,,,,,,,,,,,,,,,,,210,1,2025-03-07_10h47.09.833,comp,2024.2.4,57.073513903346736,2025-03-07 10h47.17.528577 -0500,
47,47,0,critical,hdw,35.0,4.0,lower,133.0,57.0,70.0,70.0,57.0,133.0,3,2.711430072784424,None,,,,,0,0,0,0,0,47,47,112,180.6364505290985,,,,,,,,,,,,,,,,,,,,,,,,,,,,,,,,,,,,,,,,,,,,,,,,,,,,,,,,,,,,,,,,,,,,,,,,,,,,,,,,,133.0,57.0,70.0,70.0,57.0,133.0,4.0,4.2,-160,-16,0,-287,198,-4,180.62014079093933,180.62022042274475,180.62344598770142,180.6364505290985,180.78515100479126,180.78515100479126,180.78515100479126,180.78515100479126,180.78515100479126,180.78515100479126,180.78515100479126,183.3628945350647,3,2.711430072784424,None,,,,,,,,,,,,,,,,,,210,1,2025-03-07_10h47.09.833,comp,2024.2.4,57.073513903346736,2025-03-07 10h47.17.528577 -0500,
48,48,0,filler_random,None,None,None,None,None,None,None,None,None,None,1,1.0321578979492188,None,,,,,0,0,0,0,0,48,48,141,183.37953686714172,,,,,,,,,,,,,,,,,,,,,,,,,,,,,,,,,,,,,,,,,,,,,,,,,,,,,,,,,,,,,,,,,,,,,,,,,,,,,,,,,183.33136018048395,182.1616347636795,87.66377700769397,158.72146714031285,64.86311085051119,197.7049455961095,2.1,2.11,-266,251,0,258,274,-278,183.36465740203857,183.3647916316986,183.3680236339569,183.37953686714172,183.52004289627075,183.52004289627075,183.52004289627075,183.52004289627075,183.52004289627075,183.52004289627075,183.52004289627075,184.42289304733276,1,1.0321578979492188,None,,,,,,,,,,,,,,,,,,210,1,2025-03-07_10h47.09.833,comp,2024.2.4,57.073513903346736,2025-03-07 10h47.17.528577 -0500,
49,49,0,critical,whd,20.0,3.0,lower,57.0,133.0,133.0,57.0,78.0,78.0,3,3.1091864109039307,None,,,,,0,0,0,0,0,49,49,92,184.43912959098816,,,,,,,,,,,,,,,,,,,,,,,,,,,,,,,,,,,,,,,,,,,,,,,,,,,,,,,,,,,,,,,,,,,,,,,,,,,,,,,,,57.0,133.0,133.0,57.0,78.0,78.0,3.0,3.2,-191,-263,0,-14,164,280,184.42449235916138,184.42457389831543,184.42757749557495,184.43912959098816,184.59181237220764,184.59181237220764,184.59181237220764,184.59181237220764,184.59181237220764,184.59181237220764,184.59181237220764,187.55300164222717,3,3.1091864109039307,None,,,,,,,,,,,,,,,,,,210,1,2025-03-07_10h47.09.833,comp,2024.2.4,57.073513903346736,2025-03-07 10h47.17.528577 -0500,
50,50,0,critical,wdh,35.0,2.1,lower,57.0,133.0,70.0,70.0,133.0,57.0,2,2.6986114978790283,None,,,,,0,0,0,0,0,50,50,32,187.56949377059937,,,,,,,,,,,,,,,,,,,,,,,,,,,,,,,,,,,,,,,,,,,,,,,,,,,,,,,,,,,,,,,,,,,,,,,,,,,,,,,,,57.0,133.0,70.0,70.0,133.0,57.0,2.1,2.11,-198,277,0,270,160,-271,187.55446124076843,187.5545403957367,187.5576159954071,187.56949377059937,187.72479009628296,187.72479009628296,187.72479009628296,187.72479009628296,187.72479009628296,187.72479009628296,187.72479009628296,190.2702031135559,2,2.6986114978790283,None,,,,,,,,,,,,,,,,,,210,1,2025-03-07_10h47.09.833,comp,2024.2.4,57.073513903346736,2025-03-07 10h47.17.528577 -0500,
51,51,0,critical,dhw,20.0,4.0,upper,141.0,141.0,200.0,125.0,125.0,200.0,2,6.545996427536011,None,,,,,0,0,0,0,0,51,51,59,190.29051327705383,,,,,,,,,,,,,,,,,,,,,,,,,,,,,,,,,,,,,,,,,,,,,,,,,,,,,,,,,,,,,,,,,,,,,,,,,,,,,,,,,141.0,141.0,200.0,125.0,125.0,200.0,4.0,4.2,-229,-18,0,-259,258,-1,190.27169823646545,190.27177715301514,190.2747368812561,190.29051327705383,190.43817114830017,190.43817114830017,190.43817114830017,190.43817114830017,190.43817114830017,190.43817114830017,190.43817114830017,196.8406538963318,2,6.545996427536011,None,,,,,,,,,,,,,,,,,,210,1,2025-03-07_10h47.09.833,comp,2024.2.4,57.073513903346736,2025-03-07 10h47.17.528577 -0500,
52,52,0,filler_square,None,None,None,None,None,None,None,None,None,None,2,1.050858736038208,None,,,,,0,0,0,0,0,52,52,201,196.8568832874298,,,,,,,,,,,,,,,,,,,,,,,,,,,,,,,,,,,,,,,,,,,,,,,,,,,,,,,,,,,,,,,,,,,,,,,,,,,,,,,,,163.6736857446166,120.68027644616379,171.92807527192508,171.92807527192508,78.08734064827642,116.52023019432502,2.2,2.21,-242,-264,0,272,240,278,196.84245681762695,196.84253454208374,196.8460602760315,196.8568832874298,197.00707459449768,197.00707459449768,197.00707459449768,197.00707459449768,197.00707459449768,197.00707459449768,197.00707459449768,197.9245626926422,2,1.050858736038208,None,,,,,,,,,,,,,,,,,,210,1,2025-03-07_10h47.09.833,comp,2024.2.4,57.073513903346736,2025-03-07 10h47.17.528577 -0500,
53,53,0,critical,whd,35.0,3.0,upper,125.0,200.0,200.0,125.0,127.0,127.0,2,2.096031904220581,None,,,,,0,0,0,0,0,53,53,87,197.9405233860016,,,,,,,,,,,,,,,,,,,,,,,,,,,,,,,,,,,,,,,,,,,,,,,,,,,,,,,,,,,,,,,,,,,,,,,,,,,,,,,,,125.0,200.0,200.0,125.0,127.0,127.0,3.0,3.1,-258,264,0,4,222,-284,197.92604112625122,197.9261438846588,197.9301779270172,197.9405233860016,198.09484028816223,198.09484028816223,198.09484028816223,198.09484028816223,198.09484028816223,198.09484028816223,198.09484028816223,200.04389452934265,2,2.096031904220581,None,,,,,,,,,,,,,,,,,,210,1,2025-03-07_10h47.09.833,comp,2024.2.4,57.073513903346736,2025-03-07 10h47.17.528577 -0500,
54,54,0,critical,hdw,35.0,1.0,lower,133.0,57.0,70.0,70.0,57.0,133.0,3,2.0081264972686768,None,,,,,0,0,0,0,0,54,54,108,200.06042337417603,,,,,,,,,,,,,,,,,,,,,,,,,,,,,,,,,,,,,,,,,,,,,,,,,,,,,,,,,,,,,,,,,,,,,,,,,,,,,,,,,133.0,57.0,70.0,70.0,57.0,133.0,1.0,1.3,320,-254,480,-272,678,-284,200.045716047287,200.04584503173828,200.04954266548157,200.06042337417603,200.21816992759705,200.21816992759705,200.21816992759705,200.21816992759705,200.21816992759705,200.21816992759705,200.21816992759705,202.07659435272217,3,2.0081264972686768,None,,,,,,,,,,,,,,,,,,210,1,2025-03-07_10h47.09.833,comp,2024.2.4,57.073513903346736,2025-03-07 10h47.17.528577 -0500,
55,55,0,critical,hwd,35.0,2.1,lower,133.0,57.0,57.0,133.0,70.0,70.0,2,4.407999038696289,None,,,,,0,0,0,0,0,55,55,16,202.09276914596558,,,,,,,,,,,,,,,,,,,,,,,,,,,,,,,,,,,,,,,,,,,,,,,,,,,,,,,,,,,,,,,,,,,,,,,,,,,,,,,,,133.0,57.0,57.0,133.0,70.0,70.0,2.1,2.11,-191,270,0,251,198,-258,202.07827067375183,202.07835721969604,202.0818018913269,202.09276914596558,202.2423119544983,202.2423119544983,202.2423119544983,202.2423119544983,202.2423119544983,202.2423119544983,202.2423119544983,206.5104570388794,2,4.407999038696289,None,,,,,,,,,,,,,,,,,,210,1,2025-03-07_10h47.09.833,comp,2024.2.4,57.073513903346736,2025-03-07 10h47.17.528577 -0500,
56,56,0,critical,whd,35.0,2.1,upper,125.0,200.0,200.0,125.0,127.0,127.0,1,1.862128496170044,None,,,,,0,0,0,0,0,56,56,37,206.52643513679504,,,,,,,,,,,,,,,,,,,,,,,,,,,,,,,,,,,,,,,,,,,,,,,,,,,,,,,,,,,,,,,,,,,,,,,,,,,,,,,,,125.0,200.0,200.0,125.0,127.0,127.0,2.1,2.12,-258,-268,0,-269,222,257,206.51200318336487,206.51208543777466,206.5155050754547,206.52643513679504,206.68204641342163,206.68204641342163,206.68204641342163,206.68204641342163,206.68204641342163,206.68204641342163,206.68204641342163,208.39529252052307,1,1.862128496170044,None,,,,,,,,,,,,,,,,,,210,1,2025-03-07_10h47.09.833,comp,2024.2.4,57.073513903346736,2025-03-07 10h47.17.528577 -0500,
57,57,0,critical,wdh,20.0,4.0,lower,57.0,133.0,78.0,78.0,133.0,57.0,1,6.128797292709351,None,,,,,0,0,0,0,0,57,57,82,208.4115800857544,,,,,,,,,,,,,,,,,,,,,,,,,,,,,,,,,,,,,,,,,,,,,,,,,,,,,,,,,,,,,,,,,,,,,,,,,,,,,,,,,57.0,133.0,78.0,78.0,133.0,57.0,4.0,4.2,-202,10,0,-276,164,-7,208.39686036109924,208.3970034122467,208.40056204795837,208.4115800857544,208.56207609176636,208.56207609176636,208.56207609176636,208.56207609176636,208.56207609176636,208.56207609176636,208.56207609176636,214.54528379440308,1,6.128797292709351,None,,,,,,,,,,,,,,,,,,210,1,2025-03-07_10h47.09.833,comp,2024.2.4,57.073513903346736,2025-03-07 10h47.17.528577 -0500,
58,58,0,critical,dwh,35.0,4.0,upper,127.0,127.0,125.0,200.0,200.0,125.0,2,1.1606242656707764,None,,,,,0,0,0,0,0,58,58,65,214.56348848342896,,,,,,,,,,,,,,,,,,,,,,,,,,,,,,,,,,,,,,,,,,,,,,,,,,,,,,,,,,,,,,,,,,,,,,,,,,,,,,,,,127.0,127.0,125.0,200.0,200.0,125.0,4.0,4.1,-260,-275,0,2,258,-266,214.54681086540222,214.5468909740448,214.54993557929993,214.56348848342896,214.71495127677917,214.71495127677917,214.71495127677917,214.71495127677917,214.71495127677917,214.71495127677917,214.71495127677917,215.72946786880493,2,1.1606242656707764,None,,,,,,,,,,,,,,,,,,210,1,2025-03-07_10h47.09.833,comp,2024.2.4,57.073513903346736,2025-03-07 10h47.17.528577 -0500,
59,59,0,critical,hdw,35.0,4.0,upper,200.0,125.0,127.0,127.0,125.0,200.0,3,1.5546247959136963,None,,,,,0,0,0,0,0,59,59,113,215.7450885772705,,,,,,,,,,,,,,,,,,,,,,,,,,,,,,,,,,,,,,,,,,,,,,,,,,,,,,,,,,,,,,,,,,,,,,,,,,,,,,,,,200.0,125.0,127.0,127.0,125.0,200.0,4.0,4.1,-222,-253,0,16,260,-269,215.730952501297,215.7310290336609,215.73440742492676,215.7450885772705,215.89735054969788,215.89735054969788,215.89735054969788,215.89735054969788,215.89735054969788,215.89735054969788,215.89735054969788,217.3130156993866,3,1.5546247959136963,None,,,,,,,,,,,,,,,,,,210,1,2025-03-07_10h47.09.833,comp,2024.2.4,57.073513903346736,2025-03-07 10h47.17.528577 -0500,
60,60,0,filler_square,None,None,None,None,None,None,None,None,None,None,2,1.2289817333221436,None,,,,,0,0,0,0,0,60,60,197,217.32935690879822,,,,,,,,,,,,,,,,,,,,,,,,,,,,,,,,,,,,,,,,,,,,,,,,,,,,,,,,,,,,,,,,,,,,,,,,,,,,,,,,,71.23709768669953,77.5084473478565,92.60751090482779,92.60751090482779,65.3014994944416,75.53315931089887,3.0,3.1,-181,251,0,9,180,-290,217.31484746932983,217.314959526062,217.31817626953125,217.32935690879822,217.4791283607483,217.4791283607483,217.4791283607483,217.4791283607483,217.4791283607483,217.4791283607483,217.4791283607483,218.5630521774292,2,1.2289817333221436,None,,,,,,,,,,,,,,,,,,210,1,2025-03-07_10h47.09.833,comp,2024.2.4,57.073513903346736,2025-03-07 10h47.17.528577 -0500,
61,61,0,critical,hdw,20.0,2.1,upper,200.0,125.0,141.0,141.0,125.0,200.0,1,6.61369252204895,None,,,,,0,0,0,0,0,61,61,47,218.58223271369934,,,,,,,,,,,,,,,,,,,,,,,,,,,,,,,,,,,,,,,,,,,,,,,,,,,,,,,,,,,,,,,,,,,,,,,,,,,,,,,,,200.0,125.0,141.0,141.0,125.0,200.0,2.1,2.11,-229,274,0,273,266,-263,218.5645661354065,218.56464648246765,218.5677628517151,218.58223271369934,218.73058152198792,218.73058152198792,218.73058152198792,218.73058152198792,218.73058152198792,218.73058152198792,218.73058152198792,225.20078945159912,1,6.61369252204895,None,,,,,,,,,,,,,,,,,,210,1,2025-03-07_10h47.09.833,comp,2024.2.4,57.073513903346736,2025-03-07 10h47.17.528577 -0500,
62,62,0,filler_square,None,None,None,None,None,None,None,None,None,None,3,1.2907698154449463,None,,,,,0,0,0,0,0,62,62,170,225.2174940109253,,,,,,,,,,,,,,,,,,,,,,,,,,,,,,,,,,,,,,,,,,,,,,,,,,,,,,,,,,,,,,,,,,,,,,,,,,,,,,,,,116.70014538581319,99.10304338862741,93.57373332355759,122.6374565098714,193.3696835911655,193.3696835911655,2.1,2.11,-207,278,0,287,254,-281,225.20312786102295,225.20326471328735,225.20664191246033,225.2174940109253,225.36406087875366,225.36406087875366,225.36406087875366,225.36406087875366,225.36406087875366,225.36406087875366,225.36406087875366,226.51886081695557,3,1.2907698154449463,None,,,,,,,,,,,,,,,,,,210,1,2025-03-07_10h47.09.833,comp,2024.2.4,57.073513903346736,2025-03-07 10h47.17.528577 -0500,
63,63,0,critical,wdh,35.0,1.0,upper,125.0,200.0,127.0,127.0,200.0,125.0,1,2.63566517829895,None,,,,,0,0,0,0,0,63,63,73,226.53765106201172,,,,,,,,,,,,,,,,,,,,,,,,,,,,,,,,,,,,,,,,,,,,,,,,,,,,,,,,,,,,,,,,,,,,,,,,,,,,,,,,,125.0,200.0,127.0,127.0,200.0,125.0,1.0,1.1,-740,279,-480,277,-258,269,226.52056527137756,226.52070474624634,226.5240936279297,226.53765106201172,226.68296599388123,226.68296599388123,226.68296599388123,226.68296599388123,226.68296599388123,226.68296599388123,226.68296599388123,229.18454599380493,1,2.63566517829895,None,,,,,,,,,,,,,,,,,,210,1,2025-03-07_10h47.09.833,comp,2024.2.4,57.073513903346736,2025-03-07 10h47.17.528577 -0500,
64,64,0,critical,dhw,35.0,3.0,upper,127.0,127.0,200.0,125.0,125.0,200.0,2,2.7875771522521973,None,,,,,0,0,0,0,0,64,64,51,229.2002067565918,,,,,,,,,,,,,,,,,,,,,,,,,,,,,,,,,,,,,,,,,,,,,,,,,,,,,,,,,,,,,,,,,,,,,,,,,,,,,,,,,127.0,127.0,200.0,125.0,125.0,200.0,3.0,3.1,-222,264,0,-12,258,-282,229.18613958358765,229.18621969223022,229.18936967849731,229.2002067565918,229.33760571479797,229.33760571479797,229.33760571479797,229.33760571479797,229.33760571479797,229.33760571479797,229.33760571479797,232.00252056121826,2,2.7875771522521973,None,,,,,,,,,,,,,,,,,,210,1,2025-03-07_10h47.09.833,comp,2024.2.4,57.073513903346736,2025-03-07 10h47.17.528577 -0500,
65,65,0,critical,hwd,20.0,3.0,lower,133.0,57.0,57.0,133.0,78.0,78.0,3,1.7437744140625,None,,,,,0,0,0,0,0,65,65,104,232.02818131446838,,,,,,,,,,,,,,,,,,,,,,,,,,,,,,,,,,,,,,,,,,,,,,,,,,,,,,,,,,,,,,,,,,,,,,,,,,,,,,,,,133.0,57.0,57.0,133.0,78.0,78.0,3.0,3.2,-191,-288,0,-17,202,265,232.00405836105347,232.00413608551025,232.00724816322327,232.02818131446838,232.1686146259308,232.1686146259308,232.1686146259308,232.1686146259308,232.1686146259308,232.1686146259308,232.1686146259308,233.78545713424683,3,1.7437744140625,None,,,,,,,,,,,,,,,,,,210,1,2025-03-07_10h47.09.833,comp,2024.2.4,57.073513903346736,2025-03-07 10h47.17.528577 -0500,
66,66,0,critical,dhw,20.0,1.0,upper,141.0,141.0,200.0,125.0,125.0,200.0,2,2.066422939300537,None,,,,,0,0,0,0,0,66,66,55,233.80159044265747,,,,,,,,,,,,,,,,,,,,,,,,,,,,,,,,,,,,,,,,,,,,,,,,,,,,,,,,,,,,,,,,,,,,,,,,,,,,,,,,,141.0,141.0,200.0,125.0,125.0,200.0,1.0,1.3,251,-258,480,-275,738,-282,233.7871994972229,233.78733325004578,233.79075503349304,233.80159044265747,233.9566740989685,233.9566740989685,233.9566740989685,233.9566740989685,233.9566740989685,233.9566740989685,233.9566740989685,235.8863389492035,2,2.066422939300537,None,,,,,,,,,,,,,,,,,,210,1,2025-03-07_10h47.09.833,comp,2024.2.4,57.073513903346736,2025-03-07 10h47.17.528577 -0500,
67,67,0,critical,hwd,20.0,4.0,upper,200.0,125.0,125.0,200.0,141.0,141.0,2,1.9338645935058594,None,,,,,0,0,0,0,0,67,67,107,235.90225553512573,,,,,,,,,,,,,,,,,,,,,,,,,,,,,,,,,,,,,,,,,,,,,,,,,,,,,,,,,,,,,,,,,,,,,,,,,,,,,,,,,200.0,125.0,125.0,200.0,141.0,141.0,4.0,4.1,-258,-270,0,18,266,-256,235.88775491714478,235.88783264160156,235.89192485809326,235.90225553512573,236.05432152748108,236.05432152748108,236.05432152748108,236.05432152748108,236.05432152748108,236.05432152748108,236.05432152748108,237.85420274734497,2,1.9338645935058594,None,,,,,,,,,,,,,,,,,,210,1,2025-03-07_10h47.09.833,comp,2024.2.4,57.073513903346736,2025-03-07 10h47.17.528577 -0500,
68,68,0,filler_square,None,None,None,None,None,None,None,None,None,None,3,1.4215221405029297,None,,,,,0,0,0,0,0,68,68,191,237.87025427818298,,,,,,,,,,,,,,,,,,,,,,,,,,,,,,,,,,,,,,,,,,,,,,,,,,,,,,,,,,,,,,,,,,,,,,,,,,,,,,,,,74.73312278949336,58.39159574300013,77.70828338105451,67.45717601763124,97.80920480879843,97.80920480879843,2.2,2.22,-159,271,0,-278,179,-284,237.85625910758972,237.85634016990662,237.85974836349487,237.87025427818298,238.01911449432373,238.01911449432373,238.01911449432373,238.01911449432373,238.01911449432373,238.01911449432373,238.01911449432373,239.30609345436096,3,1.4215221405029297,None,,,,,,,,,,,,,,,,,,210,1,2025-03-07_10h47.09.833,comp,2024.2.4,57.073513903346736,2025-03-07 10h47.17.528577 -0500,
69,69,0,critical,dwh,35.0,2.1,upper,127.0,127.0,125.0,200.0,200.0,125.0,2,4.759319067001343,None,,,,,0,0,0,0,0,69,69,29,239.3249270915985,,,,,,,,,,,,,,,,,,,,,,,,,,,,,,,,,,,,,,,,,,,,,,,,,,,,,,,,,,,,,,,,,,,,,,,,,,,,,,,,,127.0,127.0,125.0,200.0,200.0,125.0,2.1,2.12,-260,-269,0,-275,258,266,239.30766820907593,239.30775117874146,239.31075382232666,239.3249270915985,239.4714105129242,239.4714105129242,239.4714105129242,239.4714105129242,239.4714105129242,239.4714105129242,239.4714105129242,244.08794474601746,2,4.759319067001343,None,,,,,,,,,,,,,,,,,,210,1,2025-03-07_10h47.09.833,comp,2024.2.4,57.073513903346736,2025-03-07 10h47.17.528577 -0500,
70,70,0,catch,None,None,None,None,None,None,None,None,None,None,1,1.6349060535430908,None,,,,,0,0,0,0,0,70,70,122,244.10484504699707,,,,,,,,,,,,,,,,,,,,,,,,,,,,,,,,,,,,,,,,,,,,,,,,,,,,,,,,,,,,,,,,,,,,,,,,,,,,,,,,,160,165,110,80,71,119,2.2,2.21,-218,-265,0,258,196,268,244.08984279632568,244.08994674682617,244.09312343597412,244.10484504699707,244.25572514533997,244.25572514533997,244.25572514533997,244.25572514533997,244.25572514533997,244.25572514533997,244.25572514533997,245.7539701461792,1,1.6349060535430908,None,,,,,,,,,,,,,,,,,,210,1,2025-03-07_10h47.09.833,comp,2024.2.4,57.073513903346736,2025-03-07 10h47.17.528577 -0500,
71,71,0,critical,dwh,20.0,4.0,lower,78.0,78.0,57.0,133.0,133.0,57.0,3,2.3387563228607178,None,,,,,0,0,0,0,0,71,71,70,245.76900339126587,,,,,,,,,,,,,,,,,,,,,,,,,,,,,,,,,,,,,,,,,,,,,,,,,,,,,,,,,,,,,,,,,,,,,,,,,,,,,,,,,78.0,78.0,57.0,133.0,133.0,57.0,4.0,4.2,-202,8,0,-251,191,12,245.75546717643738,245.75554704666138,245.75846076011658,245.76900339126587,245.906587600708,245.906587600708,245.906587600708,245.906587600708,245.906587600708,245.906587600708,245.906587600708,248.12020206451416,3,2.3387563228607178,None,,,,,,,,,,,,,,,,,,210,1,2025-03-07_10h47.09.833,comp,2024.2.4,57.073513903346736,2025-03-07 10h47.17.528577 -0500,
72,72,0,critical,dhw,35.0,1.0,upper,127.0,127.0,200.0,125.0,125.0,200.0,3,2.4831368923187256,None,,,,,0,0,0,0,0,72,72,49,248.13744926452637,,,,,,,,,,,,,,,,,,,,,,,,,,,,,,,,,,,,,,,,,,,,,,,,,,,,,,,,,,,,,,,,,,,,,,,,,,,,,,,,,127.0,127.0,200.0,125.0,125.0,200.0,1.0,1.3,258,-258,480,-269,738,-270,248.12167692184448,248.12175345420837,248.12460231781006,248.13744926452637,248.2921690940857,248.2921690940857,248.2921690940857,248.2921690940857,248.2921690940857,248.2921690940857,248.2921690940857,250.6275074481964,3,2.4831368923187256,None,,,,,,,,,,,,,,,,,,210,1,2025-03-07_10h47.09.833,comp,2024.2.4,57.073513903346736,2025-03-07 10h47.17.528577 -0500,
73,73,0,critical,dwh,20.0,2.1,upper,141.0,141.0,125.0,200.0,200.0,125.0,2,4.717772006988525,None,,,,,0,0,0,0,0,73,73,31,250.64598965644836,,,,,,,,,,,,,,,,,,,,,,,,,,,,,,,,,,,,,,,,,,,,,,,,,,,,,,,,,,,,,,,,,,,,,,,,,,,,,,,,,141.0,141.0,125.0,200.0,200.0,125.0,2.1,2.12,-266,-289,0,-271,258,253,250.62919664382935,250.6292839050293,250.6325569152832,250.64598965644836,250.7909379005432,250.7909379005432,250.7909379005432,250.7909379005432,250.7909379005432,250.7909379005432,250.7909379005432,255.37719678878784,2,4.717772006988525,None,,,,,,,,,,,,,,,,,,210,1,2025-03-07_10h47.09.833,comp,2024.2.4,57.073513903346736,2025-03-07 10h47.17.528577 -0500,
74,74,0,critical,hdw,35.0,3.0,lower,133.0,57.0,70.0,70.0,57.0,133.0,3,1.5868430137634277,None,,,,,0,0,0,0,0,74,74,110,255.39316272735596,,,,,,,,,,,,,,,,,,,,,,,,,,,,,,,,,,,,,,,,,,,,,,,,,,,,,,,,,,,,,,,,,,,,,,,,,,,,,,,,,133.0,57.0,70.0,70.0,57.0,133.0,3.0,3.1,-160,262,0,11,198,-255,255.3790566921234,255.37915968894958,255.3827362060547,255.39316272735596,255.54252576828003,255.54252576828003,255.54252576828003,255.54252576828003,255.54252576828003,255.54252576828003,255.54252576828003,256.9927418231964,3,1.5868430137634277,None,,,,,,,,,,,,,,,,,,210,1,2025-03-07_10h47.09.833,comp,2024.2.4,57.073513903346736,2025-03-07 10h47.17.528577 -0500,
75,75,0,critical,whd,20.0,2.1,upper,125.0,200.0,200.0,125.0,141.0,141.0,1,2.6349964141845703,None,,,,,0,0,0,0,0,75,75,15,257.0092465877533,,,,,,,,,,,,,,,,,,,,,,,,,,,,,,,,,,,,,,,,,,,,,,,,,,,,,,,,,,,,,,,,,,,,,,,,,,,,,,,,,125.0,200.0,200.0,125.0,141.0,141.0,2.1,2.11,-258,281,0,254,229,-279,256.99436140060425,256.9944598674774,256.99782276153564,257.0092465877533,257.1690242290497,257.1690242290497,257.1690242290497,257.1690242290497,257.1690242290497,257.1690242290497,257.1690242290497,259.6506927013397,1,2.6349964141845703,None,,,,,,,,,,,,,,,,,,210,1,2025-03-07_10h47.09.833,comp,2024.2.4,57.073513903346736,2025-03-07 10h47.17.528577 -0500,
76,76,0,critical,whd,35.0,2.1,lower,57.0,133.0,133.0,57.0,70.0,70.0,2,1.8137474060058594,None,,,,,0,0,0,0,0,76,76,12,259.6709702014923,,,,,,,,,,,,,,,,,,,,,,,,,,,,,,,,,,,,,,,,,,,,,,,,,,,,,,,,,,,,,,,,,,,,,,,,,,,,,,,,,57.0,133.0,133.0,57.0,70.0,70.0,2.1,2.12,-191,-271,0,-255,160,262,259.65220046043396,259.65228176116943,259.6551957130432,259.6709702014923,259.80828952789307,259.80828952789307,259.80828952789307,259.80828952789307,259.80828952789307,259.80828952789307,259.80828952789307,261.49532198905945,2,1.8137474060058594,None,,,,,,,,,,,,,,,,,,210,1,2025-03-07_10h47.09.833,comp,2024.2.4,57.073513903346736,2025-03-07 10h47.17.528577 -0500,
77,77,0,critical,wdh,20.0,1.0,upper,125.0,200.0,141.0,141.0,200.0,125.0,3,1.4692471027374268,None,,,,,0,0,0,0,0,77,77,79,261.51134490966797,,,,,,,,,,,,,,,,,,,,,,,,,,,,,,,,,,,,,,,,,,,,,,,,,,,,,,,,,,,,,,,,,,,,,,,,,,,,,,,,,125.0,200.0,141.0,141.0,200.0,125.0,1.0,1.3,214,-279,480,-280,709,-278,261.4969642162323,261.4970500469208,261.50057554244995,261.51134490966797,261.6606020927429,261.6606020927429,261.6606020927429,261.6606020927429,261.6606020927429,261.6606020927429,261.6606020927429,262.9838354587555,3,1.4692471027374268,None,,,,,,,,,,,,,,,,,,210,1,2025-03-07_10h47.09.833,comp,2024.2.4,57.073513903346736,2025-03-07 10h47.17.528577 -0500,
78,78,0,critical,dhw,20.0,1.0,lower,78.0,78.0,133.0,57.0,57.0,133.0,2,2.108792781829834,None,,,,,0,0,0,0,0,78,78,54,262.99973487854004,,,,,,,,,,,,,,,,,,,,,,,,,,,,,,,,,,,,,,,,,,,,,,,,,,,,,,,,,,,,,,,,,,,,,,,,,,,,,,,,,78.0,78.0,133.0,57.0,57.0,133.0,1.0,1.2,-164,-13,0,-8,191,7,262.9852805137634,262.98536372184753,262.9882674217224,262.99973487854004,263.14462971687317,263.14462971687317,263.14462971687317,263.14462971687317,263.14462971687317,263.14462971687317,263.14462971687317,265.128053188324,2,2.108792781829834,None,,,,,,,,,,,,,,,,,,210,1,2025-03-07_10h47.09.833,comp,2024.2.4,57.073513903346736,2025-03-07 10h47.17.528577 -0500,
79,79,0,catch,None,None,None,None,None,None,None,None,None,None,1,1.283695936203003,None,,,,,0,0,0,0,0,79,79,129,265.1442003250122,,,,,,,,,,,,,,,,,,,,,,,,,,,,,,,,,,,,,,,,,,,,,,,,,,,,,,,,,,,,,,,,,,,,,,,,,,,,,,,,,156,169,125,65,75,115,2.2,2.22,-213,269,0,-263,186,-255,265.1298954486847,265.13000082969666,265.1334373950958,265.1442003250122,265.2981770038605,265.2981770038605,265.2981770038605,265.2981770038605,265.2981770038605,265.2981770038605,265.2981770038605,266.4458465576172,1,1.283695936203003,None,,,,,,,,,,,,,,,,,,210,1,2025-03-07_10h47.09.833,comp,2024.2.4,57.073513903346736,2025-03-07 10h47.17.528577 -0500,
80,80,0,filler_random,None,None,None,None,None,None,None,None,None,None,1,2.005922317504883,None,,,,,0,0,0,0,0,80,80,143,266.46230602264404,,,,,,,,,,,,,,,,,,,,,,,,,,,,,,,,,,,,,,,,,,,,,,,,,,,,,,,,,,,,,,,,,,,,,,,,,,,,,,,,,103.6268461727676,198.20387077946683,159.40961254754455,97.62499849170149,129.38187654096583,90.9366640118732,4.0,4.1,-244,-289,0,-13,190,-254,266.4476284980774,266.44770860671997,266.4517436027527,266.46230602264404,266.622713804245,266.622713804245,266.622713804245,266.622713804245,266.622713804245,266.622713804245,266.622713804245,268.4806070327759,1,2.005922317504883,None,,,,,,,,,,,,,,,,,,210,1,2025-03-07_10h47.09.833,comp,2024.2.4,57.073513903346736,2025-03-07 10h47.17.528577 -0500,
81,81,0,filler_square,None,None,None,None,None,None,None,None,None,None,2,1.6443605422973633,None,,,,,0,0,0,0,0,81,81,205,268.4967772960663,,,,,,,,,,,,,,,,,,,,,,,,,,,,,,,,,,,,,,,,,,,,,,,,,,,,,,,,,,,,,,,,,,,,,,,,,,,,,,,,,66.78367630760415,70.25017058457813,97.31329802125906,97.31329802125906,83.7783270696149,72.34993064339791,4.0,4.2,-180,-7,0,-268,181,15,268.4824333190918,268.4825689792633,268.4864206314087,268.4967772960663,268.6454601287842,268.6454601287842,268.6454601287842,268.6454601287842,268.6454601287842,268.6454601287842,268.6454601287842,270.1458616256714,2,1.6443605422973633,None,,,,,,,,,,,,,,,,,,210,1,2025-03-07_10h47.09.833,comp,2024.2.4,57.073513903346736,2025-03-07 10h47.17.528577 -0500,
82,82,0,critical,hwd,20.0,2.1,upper,200.0,125.0,125.0,200.0,141.0,141.0,3,1.8081963062286377,None,,,,,0,0,0,0,0,82,82,43,270.1651256084442,,,,,,,,,,,,,,,,,,,,,,,,,,,,,,,,,,,,,,,,,,,,,,,,,,,,,,,,,,,,,,,,,,,,,,,,,,,,,,,,,200.0,125.0,125.0,200.0,141.0,141.0,2.1,2.12,-258,-267,0,-274,266,263,270.1473693847656,270.14745354652405,270.1504271030426,270.1651256084442,270.3134620189667,270.3134620189667,270.3134620189667,270.3134620189667,270.3134620189667,270.3134620189667,270.3134620189667,271.9811534881592,3,1.8081963062286377,None,,,,,,,,,,,,,,,,,,210,1,2025-03-07_10h47.09.833,comp,2024.2.4,57.073513903346736,2025-03-07 10h47.17.528577 -0500,
83,83,0,filler_square,None,None,None,None,None,None,None,None,None,None,3,1.86210036277771,None,,,,,0,0,0,0,0,83,83,179,271.9980182647705,,,,,,,,,,,,,,,,,,,,,,,,,,,,,,,,,,,,,,,,,,,,,,,,,,,,,,,,,,,,,,,,,,,,,,,,,,,,,,,,,90.9775152234829,83.77368034786748,73.7554963508027,66.66403605408506,127.09539030610135,127.09539030610135,2.2,2.21,-171,-262,0,274,193,271,271.98311614990234,271.9831974506378,271.98725414276123,271.9980182647705,272.1475684642792,272.1475684642792,272.1475684642792,272.1475684642792,272.1475684642792,272.1475684642792,272.1475684642792,273.8646824359894,3,1.86210036277771,None,,,,,,,,,,,,,,,,,,210,1,2025-03-07_10h47.09.833,comp,2024.2.4,57.073513903346736,2025-03-07 10h47.17.528577 -0500,
84,84,0,critical,dwh,35.0,2.1,lower,70.0,70.0,57.0,133.0,133.0,57.0,3,2.171231508255005,None,,,,,0,0,0,0,0,84,84,28,273.88067054748535,,,,,,,,,,,,,,,,,,,,,,,,,,,,,,,,,,,,,,,,,,,,,,,,,,,,,,,,,,,,,,,,,,,,,,,,,,,,,,,,,70.0,70.0,57.0,133.0,133.0,57.0,2.1,2.11,-198,269,0,278,191,-260,273.8662474155426,273.8663282394409,273.86965918540955,273.88067054748535,274.0371286869049,274.0371286869049,274.0371286869049,274.0371286869049,274.0371286869049,274.0371286869049,274.0371286869049,276.065390586853,3,2.171231508255005,None,,,,,,,,,,,,,,,,,,210,1,2025-03-07_10h47.09.833,comp,2024.2.4,57.073513903346736,2025-03-07 10h47.17.528577 -0500,
85,85,0,catch,None,None,None,None,None,None,None,None,None,None,3,1.339653730392456,None,,,,,0,0,0,0,0,85,85,125,276.0814480781555,,,,,,,,,,,,,,,,,,,,,,,,,,,,,,,,,,,,,,,,,,,,,,,,,,,,,,,,,,,,,,,,,,,,,,,,,,,,,,,,,107,83,93,97,152,173,2.2,2.22,-186,288,0,-289,231,-269,276.06762981414795,276.06770968437195,276.071044921875,276.0814480781555,276.23444414138794,276.23444414138794,276.23444414138794,276.23444414138794,276.23444414138794,276.23444414138794,276.23444414138794,277.43255639076233,3,1.339653730392456,None,,,,,,,,,,,,,,,,,,210,1,2025-03-07_10h47.09.833,comp,2024.2.4,57.073513903346736,2025-03-07 10h47.17.528577 -0500,
86,86,0,critical,hwd,20.0,2.1,lower,133.0,57.0,57.0,133.0,78.0,78.0,2,1.8830945491790771,None,,,,,0,0,0,0,0,86,86,42,277.44886684417725,,,,,,,,,,,,,,,,,,,,,,,,,,,,,,,,,,,,,,,,,,,,,,,,,,,,,,,,,,,,,,,,,,,,,,,,,,,,,,,,,133.0,57.0,57.0,133.0,78.0,78.0,2.1,2.12,-191,-253,0,-255,202,258,277.4340159893036,277.4341173171997,277.4374692440033,277.44886684417725,277.60249400138855,277.60249400138855,277.60249400138855,277.60249400138855,277.60249400138855,277.60249400138855,277.60249400138855,279.34582781791687,2,1.8830945491790771,None,,,,,,,,,,,,,,,,,,210,1,2025-03-07_10h47.09.833,comp,2024.2.4,57.073513903346736,2025-03-07 10h47.17.528577 -0500,
87,87,0,critical,dwh,20.0,2.1,upper,141.0,141.0,125.0,200.0,200.0,125.0,3,3.1509132385253906,None,,,,,0,0,0,0,0,87,87,7,279.3660614490509,,,,,,,,,,,,,,,,,,,,,,,,,,,,,,,,,,,,,,,,,,,,,,,,,,,,,,,,,,,,,,,,,,,,,,,,,,,,,,,,,141.0,141.0,125.0,200.0,200.0,125.0,2.1,2.12,-266,-281,0,-265,258,281,279.34736466407776,279.34744572639465,279.3503234386444,279.3660614490509,279.49939608573914,279.49939608573914,279.49939608573914,279.49939608573914,279.49939608573914,279.49939608573914,279.49939608573914,282.52534341812134,3,3.1509132385253906,None,,,,,,,,,,,,,,,,,,210,1,2025-03-07_10h47.09.833,comp,2024.2.4,57.073513903346736,2025-03-07 10h47.17.528577 -0500,
88,88,0,filler_square,None,None,None,None,None,None,None,None,None,None,2,1.1442251205444336,None,,,,,0,0,0,0,0,88,88,188,282.5410752296448,,,,,,,,,,,,,,,,,,,,,,,,,,,,,,,,,,,,,,,,,,,,,,,,,,,,,,,,,,,,,,,,,,,,,,,,,,,,,,,,,96.9235277333537,112.46350106133619,113.214018854481,113.214018854481,97.53402451121036,71.9051265563977,2.1,2.11,-209,272,0,251,189,-265,282.5271375179291,282.5272183418274,282.5301208496094,282.5410752296448,282.684947013855,282.684947013855,282.684947013855,282.684947013855,282.684947013855,282.684947013855,282.684947013855,283.69220757484436,2,1.1442251205444336,None,,,,,,,,,,,,,,,,,,210,1,2025-03-07_10h47.09.833,comp,2024.2.4,57.073513903346736,2025-03-07 10h47.17.528577 -0500,
89,89,0,critical,wdh,35.0,1.0,lower,57.0,133.0,70.0,70.0,133.0,57.0,1,2.175507068634033,None,,,,,0,0,0,0,0,89,89,72,283.70864701271057,,,,,,,,,,,,,,,,,,,,,,,,,,,,,,,,,,,,,,,,,,,,,,,,,,,,,,,,,,,,,,,,,,,,,,,,,,,,,,,,,57.0,133.0,70.0,70.0,133.0,57.0,1.0,1.3,282,-265,480,-287,640,-255,283.69380593299866,283.69388341903687,283.69745993614197,283.70864701271057,283.85200476646423,283.85200476646423,283.85200476646423,283.85200476646423,283.85200476646423,283.85200476646423,283.85200476646423,285.8864176273346,1,2.175507068634033,None,,,,,,,,,,,,,,,,,,210,1,2025-03-07_10h47.09.833,comp,2024.2.4,57.073513903346736,2025-03-07 10h47.17.528577 -0500,
90,90,0,filler_square,None,None,None,None,None,None,None,None,None,None,1,2.012268543243408,None,,,,,0,0,0,0,0,90,90,194,285.9036211967468,,,,,,,,,,,,,,,,,,,,,,,,,,,,,,,,,,,,,,,,,,,,,,,,,,,,,,,,,,,,,,,,,,,,,,,,,,,,,,,,,108.91193598027068,63.28639950781739,118.42076108857407,118.42076108857407,78.66246781638836,74.9945160017385,3.0,3.1,-187,265,0,-3,193,-273,285.8883068561554,285.88842272758484,285.8917248249054,285.9036211967468,286.05176067352295,286.05176067352295,286.05176067352295,286.05176067352295,286.05176067352295,286.05176067352295,286.05176067352295,287.91958141326904,1,2.012268543243408,None,,,,,,,,,,,,,,,,,,210,1,2025-03-07_10h47.09.833,comp,2024.2.4,57.073513903346736,2025-03-07 10h47.17.528577 -0500,
91,91,0,filler_square,None,None,None,None,None,None,None,None,None,None,2,5.445025682449341,None,,,,,0,0,0,0,0,91,91,196,287.93635082244873,,,,,,,,,,,,,,,,,,,,,,,,,,,,,,,,,,,,,,,,,,,,,,,,,,,,,,,,,,,,,,,,,,,,,,,,,,,,,,,,,78.96812580449428,79.74612093153883,86.3763972704254,86.3763972704254,81.98512002179123,64.13244057236211,2.1,2.12,-179,-281,0,-260,171,272,287.92138934135437,287.921471118927,287.9252407550812,287.93635082244873,288.0881071090698,288.0881071090698,288.0881071090698,288.0881071090698,288.0881071090698,288.0881071090698,288.0881071090698,293.3899531364441,2,5.445025682449341,None,,,,,,,,,,,,,,,,,,210,1,2025-03-07_10h47.09.833,comp,2024.2.4,57.073513903346736,2025-03-07 10h47.17.528577 -0500,
92,92,0,filler_square,None,None,None,None,None,None,None,None,None,None,2,1.2396724224090576,None,,,,,0,0,0,0,0,92,92,181,293.4067003726959,,,,,,,,,,,,,,,,,,,,,,,,,,,,,,,,,,,,,,,,,,,,,,,,,,,,,,,,,,,,,,,,,,,,,,,,,,,,,,,,,94.78598343213089,58.23822231145651,118.35702191376637,118.35702191376637,108.59087625257959,109.735908453218,4.0,4.2,-184,18,0,-272,210,-12,293.39206552505493,293.3921523094177,293.39556789398193,293.4067003726959,293.55342650413513,293.55342650413513,293.55342650413513,293.55342650413513,293.55342650413513,293.55342650413513,293.55342650413513,294.65664553642273,2,1.2396724224090576,None,,,,,,,,,,,,,,,,,,210,1,2025-03-07_10h47.09.833,comp,2024.2.4,57.073513903346736,2025-03-07 10h47.17.528577 -0500,
93,93,0,critical,dhw,35.0,3.0,lower,70.0,70.0,133.0,57.0,57.0,133.0,2,4.676262378692627,None,,,,,0,0,0,0,0,93,93,50,294.6724100112915,,,,,,,,,,,,,,,,,,,,,,,,,,,,,,,,,,,,,,,,,,,,,,,,,,,,,,,,,,,,,,,,,,,,,,,,,,,,,,,,,70.0,70.0,133.0,57.0,57.0,133.0,3.0,3.1,-160,261,0,2,191,-269,294.6583163738251,294.65840005874634,294.6615972518921,294.6724100112915,294.82111144065857,294.82111144065857,294.82111144065857,294.82111144065857,294.82111144065857,294.82111144065857,294.82111144065857,299.3568482398987,2,4.676262378692627,None,,,,,,,,,,,,,,,,,,210,1,2025-03-07_10h47.09.833,comp,2024.2.4,57.073513903346736,2025-03-07 10h47.17.528577 -0500,
94,94,0,critical,dwh,20.0,2.1,lower,78.0,78.0,57.0,133.0,133.0,57.0,2,2.0951805114746094,None,,,,,0,0,0,0,0,94,94,6,299.3733217716217,,,,,,,,,,,,,,,,,,,,,,,,,,,,,,,,,,,,,,,,,,,,,,,,,,,,,,,,,,,,,,,,,,,,,,,,,,,,,,,,,78.0,78.0,57.0,133.0,133.0,57.0,2.1,2.12,-202,-253,0,-270,191,279,299.3584408760071,299.3585247993469,299.36174273490906,299.3733217716217,299.52138447761536,299.52138447761536,299.52138447761536,299.52138447761536,299.52138447761536,299.52138447761536,299.52138447761536,301.47464418411255,2,2.0951805114746094,None,,,,,,,,,,,,,,,,,,210,1,2025-03-07_10h47.09.833,comp,2024.2.4,57.073513903346736,2025-03-07 10h47.17.528577 -0500,
95,95,0,filler_square,None,None,None,None,None,None,None,None,None,None,1,0.9845805168151855,None,,,,,0,0,0,0,0,95,95,208,301.4911961555481,,,,,,,,,,,,,,,,,,,,,,,,,,,,,,,,,,,,,,,,,,,,,,,,,,,,,,,,,,,,,,,,,,,,,,,,,,,,,,,,,166.87619590363948,166.87619590363948,141.0633696959643,76.62924038352833,124.25972356287949,69.29754415994674,2.2,2.22,-218,265,0,-270,169,-281,301.4767107963562,301.4767904281616,301.480281829834,301.4911961555481,301.6341075897217,301.6341075897217,301.6341075897217,301.6341075897217,301.6341075897217,301.6341075897217,301.6341075897217,302.4895794391632,1,0.9845805168151855,None,,,,,,,,,,,,,,,,,,210,1,2025-03-07_10h47.09.833,comp,2024.2.4,57.073513903346736,2025-03-07 10h47.17.528577 -0500,
96,96,0,critical,hwd,35.0,4.0,lower,133.0,57.0,57.0,133.0,70.0,70.0,3,2.3116202354431152,None,,,,,0,0,0,0,0,96,96,100,302.5162601470947,,,,,,,,,,,,,,,,,,,,,,,,,,,,,,,,,,,,,,,,,,,,,,,,,,,,,,,,,,,,,,,,,,,,,,,,,,,,,,,,,133.0,57.0,57.0,133.0,70.0,70.0,4.0,4.1,-191,-285,0,10,198,-277,302.49118876457214,302.49128580093384,302.49481678009033,302.5162601470947,302.65725111961365,302.65725111961365,302.65725111961365,302.65725111961365,302.65725111961365,302.65725111961365,302.65725111961365,304.83897709846497,3,2.3116202354431152,None,,,,,,,,,,,,,,,,,,210,1,2025-03-07_10h47.09.833,comp,2024.2.4,57.073513903346736,2025-03-07 10h47.17.528577 -0500,
97,97,0,filler_square,None,None,None,None,None,None,None,None,None,None,1,1.2683954238891602,None,,,,,0,0,0,0,0,97,97,176,304.8557267189026,,,,,,,,,,,,,,,,,,,,,,,,,,,,,,,,,,,,,,,,,,,,,,,,,,,,,,,,,,,,,,,,,,,,,,,,,,,,,,,,,88.5351951109993,88.5351951109993,63.317655745288974,78.38644477825503,64.39547686049654,78.67319298384137,1.0,1.3,301,-252,480,-274,655,-251,304.8394651412964,304.8394830226898,304.84025526046753,304.8557267189026,304.9898693561554,304.9898693561554,304.9898693561554,304.9898693561554,304.9898693561554,304.9898693561554,304.9898693561554,306.1411712169647,1,1.2683954238891602,None,,,,,,,,,,,,,,,,,,210,1,2025-03-07_10h47.09.833,comp,2024.2.4,57.073513903346736,2025-03-07 10h47.17.528577 -0500,
98,98,0,critical,hwd,35.0,1.0,lower,133.0,57.0,57.0,133.0,70.0,70.0,2,2.8554487228393555,None,,,,,0,0,0,0,0,98,98,96,306.15682649612427,,,,,,,,,,,,,,,,,,,,,,,,,,,,,,,,,,,,,,,,,,,,,,,,,,,,,,,,,,,,,,,,,,,,,,,,,,,,,,,,,133.0,57.0,57.0,133.0,70.0,70.0,1.0,1.2,-191,9,0,-19,198,12,306.14273858070374,306.1428442001343,306.14630341529846,306.15682649612427,306.3084728717804,306.3084728717804,306.3084728717804,306.3084728717804,306.3084728717804,306.3084728717804,306.3084728717804,309.02786111831665,2,2.8554487228393555,None,,,,,,,,,,,,,,,,,,210,1,2025-03-07_10h47.09.833,comp,2024.2.4,57.073513903346736,2025-03-07 10h47.17.528577 -0500,
99,99,0,critical,hdw,20.0,2.1,lower,133.0,57.0,78.0,78.0,57.0,133.0,3,1.591670036315918,None,,,,,0,0,0,0,0,99,99,46,309.04545998573303,,,,,,,,,,,,,,,,,,,,,,,,,,,,,,,,,,,,,,,,,,,,,,,,,,,,,,,,,,,,,,,,,,,,,,,,,,,,,,,,,133.0,57.0,78.0,78.0,57.0,133.0,2.1,2.12,-164,-278,0,-287,202,280,309.02960538864136,309.0296850204468,309.0326225757599,309.04545998573303,309.1929783821106,309.1929783821106,309.1929783821106,309.1929783821106,309.1929783821106,309.1929783821106,309.1929783821106,310.64123129844666,3,1.591670036315918,None,,,,,,,,,,,,,,,,,,210,1,2025-03-07_10h47.09.833,comp,2024.2.4,57.073513903346736,2025-03-07 10h47.17.528577 -0500,
100,100,0,critical,wdh,20.0,3.0,upper,125.0,200.0,141.0,141.0,200.0,125.0,3,1.914994478225708,None,,,,,0,0,0,0,0,100,100,81,310.6573531627655,,,,,,,,,,,,,,,,,,,,,,,,,,,,,,,,,,,,,,,,,,,,,,,,,,,,,,,,,,,,,,,,,,,,,,,,,,,,,,,,,125.0,200.0,141.0,141.0,200.0,125.0,3.0,3.1,-266,253,0,9,229,-252,310.64274168014526,310.64282155036926,310.64575028419495,310.6573531627655,310.80607438087463,310.80607438087463,310.80607438087463,310.80607438087463,310.80607438087463,310.80607438087463,310.80607438087463,312.57581305503845,3,1.914994478225708,None,,,,,,,,,,,,,,,,,,210,1,2025-03-07_10h47.09.833,comp,2024.2.4,57.073513903346736,2025-03-07 10h47.17.528577 -0500,
101,101,0,critical,wdh,35.0,3.0,lower,57.0,133.0,70.0,70.0,133.0,57.0,1,1.984168291091919,None,,,,,0,0,0,0,0,101,101,74,312.59564661979675,,,,,,,,,,,,,,,,,,,,,,,,,,,,,,,,,,,,,,,,,,,,,,,,,,,,,,,,,,,,,,,,,,,,,,,,,,,,,,,,,57.0,133.0,70.0,70.0,133.0,57.0,3.0,3.2,-198,-266,0,3,160,284,312.57730507850647,312.5773866176605,312.58043694496155,312.59564661979675,312.7310471534729,312.7310471534729,312.7310471534729,312.7310471534729,312.7310471534729,312.7310471534729,312.7310471534729,314.5933828353882,1,1.984168291091919,None,,,,,,,,,,,,,,,,,,210,1,2025-03-07_10h47.09.833,comp,2024.2.4,57.073513903346736,2025-03-07 10h47.17.528577 -0500,
102,102,0,critical,whd,35.0,2.1,lower,57.0,133.0,133.0,57.0,70.0,70.0,2,1.9869749546051025,None,,,,,0,0,0,0,0,102,102,36,314.6088914871216,,,,,,,,,,,,,,,,,,,,,,,,,,,,,,,,,,,,,,,,,,,,,,,,,,,,,,,,,,,,,,,,,,,,,,,,,,,,,,,,,57.0,133.0,133.0,57.0,70.0,70.0,2.1,2.11,-191,269,0,275,160,-282,314.5950222015381,314.59509897232056,314.59816455841064,314.6088914871216,314.75274419784546,314.75274419784546,314.75274419784546,314.75274419784546,314.75274419784546,314.75274419784546,314.75274419784546,316.61128187179565,2,1.9869749546051025,None,,,,,,,,,,,,,,,,,,210,1,2025-03-07_10h47.09.833,comp,2024.2.4,57.073513903346736,2025-03-07 10h47.17.528577 -0500,
103,103,0,critical,hwd,35.0,2.1,upper,200.0,125.0,125.0,200.0,127.0,127.0,1,1.5853900909423828,None,,,,,0,0,0,0,0,103,103,17,316.62662267684937,,,,,,,,,,,,,,,,,,,,,,,,,,,,,,,,,,,,,,,,,,,,,,,,,,,,,,,,,,,,,,,,,,,,,,,,,,,,,,,,,200.0,125.0,125.0,200.0,127.0,127.0,2.1,2.11,-258,289,0,268,260,-282,316.61278009414673,316.61285853385925,316.61625719070435,316.62662267684937,316.7770013809204,316.7770013809204,316.7770013809204,316.7770013809204,316.7770013809204,316.7770013809204,316.7770013809204,318.2310495376587,1,1.5853900909423828,None,,,,,,,,,,,,,,,,,,210,1,2025-03-07_10h47.09.833,comp,2024.2.4,57.073513903346736,2025-03-07 10h47.17.528577 -0500,
104,104,0,filler_random,None,None,None,None,None,None,None,None,None,None,2,1.5081613063812256,None,,,,,0,0,0,0,0,104,104,136,318.2478024959564,,,,,,,,,,,,,,,,,,,,,,,,,,,,,,,,,,,,,,,,,,,,,,,,,,,,,,,,,,,,,,,,,,,,,,,,,,,,,,,,,123.4050595361888,79.63201492856741,176.61128505799908,129.60762264606615,108.50351896125576,135.99385157577717,4.0,4.1,-201,-278,0,-20,229,-286,318.2330014705658,318.23308181762695,318.2364311218262,318.2478024959564,318.39574241638184,318.39574241638184,318.39574241638184,318.39574241638184,318.39574241638184,318.39574241638184,318.39574241638184,319.7679371833801,2,1.5081613063812256,None,,,,,,,,,,,,,,,,,,210,1,2025-03-07_10h47.09.833,comp,2024.2.4,57.073513903346736,2025-03-07 10h47.17.528577 -0500,
105,105,0,critical,dhw,35.0,2.1,upper,127.0,127.0,200.0,125.0,125.0,200.0,3,1.475698709487915,None,,,,,0,0,0,0,0,105,105,25,319.78405809402466,,,,,,,,,,,,,,,,,,,,,,,,,,,,,,,,,,,,,,,,,,,,,,,,,,,,,,,,,,,,,,,,,,,,,,,,,,,,,,,,,127.0,127.0,200.0,125.0,125.0,200.0,2.1,2.11,-222,254,0,261,258,-274,319.7694549560547,319.7695336341858,319.77247738838196,319.78405809402466,319.9347143173218,319.9347143173218,319.9347143173218,319.9347143173218,319.9347143173218,319.9347143173218,319.9347143173218,321.2637357711792,3,1.475698709487915,None,,,,,,,,,,,,,,,,,,210,1,2025-03-07_10h47.09.833,comp,2024.2.4,57.073513903346736,2025-03-07 10h47.17.528577 -0500,
106,106,0,critical,hwd,35.0,2.1,lower,133.0,57.0,57.0,133.0,70.0,70.0,1,1.52400803565979,None,,,,,0,0,0,0,0,106,106,40,321.2798466682434,,,,,,,,,,,,,,,,,,,,,,,,,,,,,,,,,,,,,,,,,,,,,,,,,,,,,,,,,,,,,,,,,,,,,,,,,,,,,,,,,133.0,57.0,57.0,133.0,70.0,70.0,2.1,2.12,-191,-278,0,-264,198,272,321.2654011249542,321.2654855251312,321.26899933815,321.2798466682434,321.429075717926,321.429075717926,321.429075717926,321.429075717926,321.429075717926,321.429075717926,321.429075717926,322.8187561035156,1,1.52400803565979,None,,,,,,,,,,,,,,,,,,210,1,2025-03-07_10h47.09.833,comp,2024.2.4,57.073513903346736,2025-03-07 10h47.17.528577 -0500,
107,107,0,filler_square,None,None,None,None,None,None,None,None,None,None,2,4.077488899230957,None,,,,,0,0,0,0,0,107,107,200,322.83892345428467,,,,,,,,,,,,,,,,,,,,,,,,,,,,,,,,,,,,,,,,,,,,,,,,,,,,,,,,,,,,,,,,,,,,,,,,,,,,,,,,,64.2406555044747,61.454400976660736,59.682823858400134,60.16772204435193,65.31954753075694,65.31954753075694,2.1,2.12,-157,-268,0,-282,159,287,322.8205244541168,322.82060384750366,322.8234877586365,322.83892345428467,322.97949051856995,322.97949051856995,322.97949051856995,322.97949051856995,322.97949051856995,322.97949051856995,322.97949051856995,326.91923666000366,2,4.077488899230957,None,,,,,,,,,,,,,,,,,,210,1,2025-03-07_10h47.09.833,comp,2024.2.4,57.073513903346736,2025-03-07 10h47.17.528577 -0500,
108,108,0,critical,wdh,20.0,2.1,lower,57.0,133.0,78.0,78.0,133.0,57.0,3,2.5569560527801514,None,,,,,0,0,0,0,0,108,108,34,326.9356429576874,,,,,,,,,,,,,,,,,,,,,,,,,,,,,,,,,,,,,,,,,,,,,,,,,,,,,,,,,,,,,,,,,,,,,,,,,,,,,,,,,57.0,133.0,78.0,78.0,133.0,57.0,2.1,2.12,-202,-266,0,-280,164,264,326.9207947254181,326.92087388038635,326.9238760471344,326.9356429576874,327.0812268257141,327.0812268257141,327.0812268257141,327.0812268257141,327.0812268257141,327.0812268257141,327.0812268257141,329.50244545936584,3,2.5569560527801514,None,,,,,,,,,,,,,,,,,,210,1,2025-03-07_10h47.09.833,comp,2024.2.4,57.073513903346736,2025-03-07 10h47.17.528577 -0500,
109,109,0,critical,dhw,20.0,3.0,lower,78.0,78.0,133.0,57.0,57.0,133.0,2,2.1765308380126953,None,,,,,0,0,0,0,0,109,109,56,329.5234296321869,,,,,,,,,,,,,,,,,,,,,,,,,,,,,,,,,,,,,,,,,,,,,,,,,,,,,,,,,,,,,,,,,,,,,,,,,,,,,,,,,78.0,78.0,133.0,57.0,57.0,133.0,3.0,3.2,-164,-287,0,3,191,264,329.50410532951355,329.5041859149933,329.50753831863403,329.5234296321869,329.6652216911316,329.6652216911316,329.6652216911316,329.6652216911316,329.6652216911316,329.6652216911316,329.6652216911316,331.7160151004791,2,2.1765308380126953,None,,,,,,,,,,,,,,,,,,210,1,2025-03-07_10h47.09.833,comp,2024.2.4,57.073513903346736,2025-03-07 10h47.17.528577 -0500,
110,110,0,critical,dwh,20.0,4.0,upper,141.0,141.0,125.0,200.0,200.0,125.0,3,2.255920171737671,None,,,,,0,0,0,0,0,110,110,71,331.7319791316986,,,,,,,,,,,,,,,,,,,,,,,,,,,,,,,,,,,,,,,,,,,,,,,,,,,,,,,,,,,,,,,,,,,,,,,,,,,,,,,,,141.0,141.0,125.0,200.0,200.0,125.0,4.0,4.1,-266,-287,0,2,258,-287,331.7175672054291,331.717645406723,331.7210524082184,331.7319791316986,331.8814902305603,331.8814902305603,331.8814902305603,331.8814902305603,331.8814902305603,331.8814902305603,331.8814902305603,334.0021755695343,3,2.255920171737671,None,,,,,,,,,,,,,,,,,,210,1,2025-03-07_10h47.09.833,comp,2024.2.4,57.073513903346736,2025-03-07 10h47.17.528577 -0500,
111,111,0,critical,hwd,35.0,2.1,upper,200.0,125.0,125.0,200.0,127.0,127.0,2,5.8500189781188965,None,,,,,0,0,0,0,0,111,111,41,334.01816487312317,,,,,,,,,,,,,,,,,,,,,,,,,,,,,,,,,,,,,,,,,,,,,,,,,,,,,,,,,,,,,,,,,,,,,,,,,,,,,,,,,200.0,125.0,125.0,200.0,127.0,127.0,2.1,2.11,-258,267,0,256,260,-283,334.0038785934448,334.00399446487427,334.0078091621399,334.01816487312317,334.1563742160797,334.1563742160797,334.1563742160797,334.1563742160797,334.1563742160797,334.1563742160797,334.1563742160797,339.8733706474304,2,5.8500189781188965,None,,,,,,,,,,,,,,,,,,210,1,2025-03-07_10h47.09.833,comp,2024.2.4,57.073513903346736,2025-03-07 10h47.17.528577 -0500,
112,112,0,filler_random,None,None,None,None,None,None,None,None,None,None,3,1.3820922374725342,None,,,,,0,0,0,0,0,112,112,155,339.89408826828003,,,,,,,,,,,,,,,,,,,,,,,,,,,,,,,,,,,,,,,,,,,,,,,,,,,,,,,,,,,,,,,,,,,,,,,,,,,,,,,,,80.22257778592733,80.50247454590688,74.34896568726063,70.87958409143917,98.09047795275859,74.0332569518965,1.0,1.2,-172,7,0,-17,168,3,339.87527108192444,339.87538719177246,339.8785717487335,339.89408826828003,340.0355031490326,340.0355031490326,340.0355031490326,340.0355031490326,340.0355031490326,340.0355031490326,340.0355031490326,341.29055666923523,3,1.3820922374725342,None,,,,,,,,,,,,,,,,,,210,1,2025-03-07_10h47.09.833,comp,2024.2.4,57.073513903346736,2025-03-07 10h47.17.528577 -0500,
113,113,0,critical,dwh,20.0,3.0,lower,78.0,78.0,57.0,133.0,133.0,57.0,3,2.2954957485198975,None,,,,,0,0,0,0,0,113,113,68,341.3085160255432,,,,,,,,,,,,,,,,,,,,,,,,,,,,,,,,,,,,,,,,,,,,,,,,,,,,,,,,,,,,,,,,,,,,,,,,,,,,,,,,,78.0,78.0,57.0,133.0,133.0,57.0,3.0,3.1,-202,272,0,-19,191,-254,341.2922372817993,341.29232931137085,341.29575181007385,341.3085160255432,341.452702999115,341.452702999115,341.452702999115,341.452702999115,341.452702999115,341.452702999115,341.452702999115,343.61919140815735,3,2.2954957485198975,None,,,,,,,,,,,,,,,,,,210,1,2025-03-07_10h47.09.833,comp,2024.2.4,57.073513903346736,2025-03-07 10h47.17.528577 -0500,
114,114,0,critical,hdw,35.0,2.1,lower,133.0,57.0,70.0,70.0,57.0,133.0,1,1.9206900596618652,None,,,,,0,0,0,0,0,114,114,20,343.6352617740631,,,,,,,,,,,,,,,,,,,,,,,,,,,,,,,,,,,,,,,,,,,,,,,,,,,,,,,,,,,,,,,,,,,,,,,,,,,,,,,,,133.0,57.0,70.0,70.0,57.0,133.0,2.1,2.11,-160,281,0,262,198,-258,343.62071990966797,343.62079906463623,343.6239244937897,343.6352617740631,343.7839901447296,343.7839901447296,343.7839901447296,343.7839901447296,343.7839901447296,343.7839901447296,343.7839901447296,345.5691645145416,1,1.9206900596618652,None,,,,,,,,,,,,,,,,,,210,1,2025-03-07_10h47.09.833,comp,2024.2.4,57.073513903346736,2025-03-07 10h47.17.528577 -0500,
115,115,0,filler_random,None,None,None,None,None,None,None,None,None,None,1,2.4899256229400635,None,,,,,0,0,0,0,0,115,115,157,345.58603978157043,,,,,,,,,,,,,,,,,,,,,,,,,,,,,,,,,,,,,,,,,,,,,,,,,,,,,,,,,,,,,,,,,,,,,,,,,,,,,,,,,100.27339815462912,195.0253621028089,95.01451249367338,135.76861884126475,187.6698721570427,72.86673482857569,2.1,2.12,-261,-263,0,-278,200,290,345.57110118865967,345.5711805820465,345.574423789978,345.58603978157043,345.7382867336273,345.7382867336273,345.7382867336273,345.7382867336273,345.7382867336273,345.7382867336273,345.7382867336273,348.08908700942993,1,2.4899256229400635,None,,,,,,,,,,,,,,,,,,210,1,2025-03-07_10h47.09.833,comp,2024.2.4,57.073513903346736,2025-03-07 10h47.17.528577 -0500,
116,116,0,filler_random,None,None,None,None,None,None,None,None,None,None,1,2.0345571041107178,None,,,,,0,0,0,0,0,116,116,164,348.1054062843323,,,,,,,,,,,,,,,,,,,,,,,,,,,,,,,,,,,,,,,,,,,,,,,,,,,,,,,,,,,,,,,,,,,,,,,,,,,,,,,,,176.6219060877881,172.0705387344724,80.95932530369204,188.43575952195482,125.75238298782018,190.63221472592295,3.0,3.1,-276,276,0,-14,286,-289,348.0908691883087,348.09102869033813,348.0944399833679,348.1054062843323,348.25529623031616,348.25529623031616,348.25529623031616,348.25529623031616,348.25529623031616,348.25529623031616,348.25529623031616,350.1555938720703,1,2.0345571041107178,None,,,,,,,,,,,,,,,,,,210,1,2025-03-07_10h47.09.833,comp,2024.2.4,57.073513903346736,2025-03-07 10h47.17.528577 -0500,
117,117,0,filler_square,None,None,None,None,None,None,None,None,None,None,1,1.8406116962432861,None,,,,,0,0,0,0,0,117,117,187,350.17182755470276,,,,,,,,,,,,,,,,,,,,,,,,,,,,,,,,,,,,,,,,,,,,,,,,,,,,,,,,,,,,,,,,,,,,,,,,,,,,,,,,,187.17502193579372,187.17502193579372,68.39623254346651,150.28378602481996,141.5906590476239,173.92104439948744,3.0,3.1,-265,275,0,-3,258,-265,350.1573944091797,350.15747594833374,350.16150307655334,350.17182755470276,350.31868529319763,350.31868529319763,350.31868529319763,350.31868529319763,350.31868529319763,350.31868529319763,350.31868529319763,352.02109575271606,1,1.8406116962432861,None,,,,,,,,,,,,,,,,,,210,1,2025-03-07_10h47.09.833,comp,2024.2.4,57.073513903346736,2025-03-07 10h47.17.528577 -0500,
118,118,0,catch,None,None,None,None,None,None,None,None,None,None,2,1.1910216808319092,None,,,,,0,0,0,0,0,118,118,127,352.0378954410553,,,,,,,,,,,,,,,,,,,,,,,,,,,,,,,,,,,,,,,,,,,,,,,,,,,,,,,,,,,,,,,,,,,,,,,,,,,,,,,,,74,116,181,144,126,64,2.2,2.21,-226,-283,0,288,200,277,352.0229332447052,352.0230185985565,352.0260283946991,352.0378954410553,352.1893277168274,352.1893277168274,352.1893277168274,352.1893277168274,352.1893277168274,352.1893277168274,352.1893277168274,353.24230217933655,2,1.1910216808319092,None,,,,,,,,,,,,,,,,,,210,1,2025-03-07_10h47.09.833,comp,2024.2.4,57.073513903346736,2025-03-07 10h47.17.528577 -0500,
119,119,0,critical,dwh,20.0,1.0,lower,78.0,78.0,57.0,133.0,133.0,57.0,2,1.7629947662353516,None,,,,,0,0,0,0,0,119,119,66,353.2575342655182,,,,,,,,,,,,,,,,,,,,,,,,,,,,,,,,,,,,,,,,,,,,,,,,,,,,,,,,,,,,,,,,,,,,,,,,,,,,,,,,,78.0,78.0,57.0,133.0,133.0,57.0,1.0,1.3,278,-275,480,-252,671,-273,353.24396872520447,353.2440519332886,353.24718952178955,353.2575342655182,353.4055109024048,353.4055109024048,353.4055109024048,353.4055109024048,353.4055109024048,353.4055109024048,353.4055109024048,355.022647857666,2,1.7629947662353516,None,,,,,,,,,,,,,,,,,,210,1,2025-03-07_10h47.09.833,comp,2024.2.4,57.073513903346736,2025-03-07 10h47.17.528577 -0500,
120,120,0,critical,hdw,20.0,3.0,lower,133.0,57.0,78.0,78.0,57.0,133.0,3,2.0520524978637695,None,,,,,0,0,0,0,0,120,120,116,355.03980326652527,,,,,,,,,,,,,,,,,,,,,,,,,,,,,,,,,,,,,,,,,,,,,,,,,,,,,,,,,,,,,,,,,,,,,,,,,,,,,,,,,133.0,57.0,78.0,78.0,57.0,133.0,3.0,3.2,-164,-253,0,16,202,252,355.02427077293396,355.0243456363678,355.02774834632874,355.03980326652527,355.19559144973755,355.19559144973755,355.19559144973755,355.19559144973755,355.19559144973755,355.19559144973755,355.19559144973755,357.108439207077,3,2.0520524978637695,None,,,,,,,,,,,,,,,,,,210,1,2025-03-07_10h47.09.833,comp,2024.2.4,57.073513903346736,2025-03-07 10h47.17.528577 -0500,
121,121,0,filler_random,None,None,None,None,None,None,None,None,None,None,3,2.832052230834961,None,,,,,0,0,0,0,0,121,121,140,357.12401151657104,,,,,,,,,,,,,,,,,,,,,,,,,,,,,,,,,,,,,,,,,,,,,,,,,,,,,,,,,,,,,,,,,,,,,,,,,,,,,,,,,81.64403528511824,162.1920115143066,110.95064139804535,106.75818295454738,128.43180890685787,103.48699924646746,2.1,2.11,-230,273,0,280,201,-266,357.1102023124695,357.1103003025055,357.11358308792114,357.12401151657104,357.27735137939453,357.27735137939453,357.27735137939453,357.27735137939453,357.27735137939453,357.27735137939453,357.27735137939453,359.97439074516296,3,2.832052230834961,None,,,,,,,,,,,,,,,,,,210,1,2025-03-07_10h47.09.833,comp,2024.2.4,57.073513903346736,2025-03-07 10h47.17.528577 -0500,
122,122,0,critical,hdw,20.0,4.0,upper,200.0,125.0,141.0,141.0,125.0,200.0,1,2.4203827381134033,None,,,,,0,0,0,0,0,122,122,119,359.9916489124298,,,,,,,,,,,,,,,,,,,,,,,,,,,,,,,,,,,,,,,,,,,,,,,,,,,,,,,,,,,,,,,,,,,,,,,,,,,,,,,,,200.0,125.0,141.0,141.0,125.0,200.0,4.0,4.1,-229,-277,0,6,266,-285,359.9759302139282,359.9760112762451,359.97907853126526,359.9916489124298,360.14298605918884,360.14298605918884,360.14298605918884,360.14298605918884,360.14298605918884,360.14298605918884,360.14298605918884,362.42697763442993,1,2.4203827381134033,None,,,,,,,,,,,,,,,,,,210,1,2025-03-07_10h47.09.833,comp,2024.2.4,57.073513903346736,2025-03-07 10h47.17.528577 -0500,
123,123,0,critical,hdw,35.0,2.1,lower,133.0,57.0,70.0,70.0,57.0,133.0,1,1.2978367805480957,None,,,,,0,0,0,0,0,123,123,44,362.4428000450134,,,,,,,,,,,,,,,,,,,,,,,,,,,,,,,,,,,,,,,,,,,,,,,,,,,,,,,,,,,,,,,,,,,,,,,,,,,,,,,,,133.0,57.0,70.0,70.0,57.0,133.0,2.1,2.11,-160,282,0,289,198,-258,362.4287610054016,362.4288811683655,362.4323742389679,362.4428000450134,362.5845775604248,362.5845775604248,362.5845775604248,362.5845775604248,362.5845775604248,362.5845775604248,362.5845775604248,363.7430272102356,1,1.2978367805480957,None,,,,,,,,,,,,,,,,,,210,1,2025-03-07_10h47.09.833,comp,2024.2.4,57.073513903346736,2025-03-07 10h47.17.528577 -0500,
124,124,0,critical,hdw,20.0,2.1,upper,200.0,125.0,141.0,141.0,125.0,200.0,1,4.429706811904907,None,,,,,0,0,0,0,0,124,124,23,363.75910806655884,,,,,,,,,,,,,,,,,,,,,,,,,,,,,,,,,,,,,,,,,,,,,,,,,,,,,,,,,,,,,,,,,,,,,,,,,,,,,,,,,200.0,125.0,141.0,141.0,125.0,200.0,2.1,2.12,-229,-263,0,-262,266,279,363.74461126327515,363.7446939945221,363.74823474884033,363.75910806655884,363.91025972366333,363.91025972366333,363.91025972366333,363.91025972366333,363.91025972366333,363.91025972366333,363.91025972366333,368.1935248374939,1,4.429706811904907,None,,,,,,,,,,,,,,,,,,210,1,2025-03-07_10h47.09.833,comp,2024.2.4,57.073513903346736,2025-03-07 10h47.17.528577 -0500,
125,125,0,critical,dwh,20.0,1.0,upper,141.0,141.0,125.0,200.0,200.0,125.0,2,1.2407662868499756,None,,,,,0,0,0,0,0,125,125,67,368.2111418247223,,,,,,,,,,,,,,,,,,,,,,,,,,,,,,,,,,,,,,,,,,,,,,,,,,,,,,,,,,,,,,,,,,,,,,,,,,,,,,,,,141.0,141.0,125.0,200.0,200.0,125.0,1.0,1.2,-266,-15,0,5,258,0,368.1951103210449,368.19520902633667,368.19856095314026,368.2111418247223,368.36153054237366,368.36153054237366,368.36153054237366,368.36153054237366,368.36153054237366,368.36153054237366,368.36153054237366,369.465754032135,2,1.2407662868499756,None,,,,,,,,,,,,,,,,,,210,1,2025-03-07_10h47.09.833,comp,2024.2.4,57.073513903346736,2025-03-07 10h47.17.528577 -0500,
126,126,0,critical,dwh,35.0,3.0,upper,127.0,127.0,125.0,200.0,200.0,125.0,3,1.1910269260406494,None,,,,,0,0,0,0,0,126,126,63,369.4855852127075,,,,,,,,,,,,,,,,,,,,,,,,,,,,,,,,,,,,,,,,,,,,,,,,,,,,,,,,,,,,,,,,,,,,,,,,,,,,,,,,,127.0,127.0,125.0,200.0,200.0,125.0,3.0,3.2,-260,-277,0,2,258,287,369.46729850769043,369.467378616333,369.47025442123413,369.4855852127075,369.6310336589813,369.6310336589813,369.6310336589813,369.6310336589813,369.6310336589813,369.6310336589813,369.6310336589813,370.678941488266,3,1.1910269260406494,None,,,,,,,,,,,,,,,,,,210,1,2025-03-07_10h47.09.833,comp,2024.2.4,57.073513903346736,2025-03-07 10h47.17.528577 -0500,
127,127,0,filler_square,None,None,None,None,None,None,None,None,None,None,3,1.436410903930664,None,,,,,0,0,0,0,0,127,127,203,370.6955873966217,,,,,,,,,,,,,,,,,,,,,,,,,,,,,,,,,,,,,,,,,,,,,,,,,,,,,,,,,,,,,,,,,,,,,,,,,,,,,,,,,138.7814743120549,106.741393529156,59.16996087481511,81.15829856251844,143.63113835090604,143.63113835090604,3.0,3.1,-190,262,0,15,208,-268,370.680668592453,370.6807475090027,370.68454146385193,370.6955873966217,370.8326635360718,370.8326635360718,370.8326635360718,370.8326635360718,370.8326635360718,370.8326635360718,370.8326635360718,372.14513301849365,3,1.436410903930664,None,,,,,,,,,,,,,,,,,,210,1,2025-03-07_10h47.09.833,comp,2024.2.4,57.073513903346736,2025-03-07 10h47.17.528577 -0500,
128,128,0,filler_random,None,None,None,None,None,None,None,None,None,None,3,1.3062822818756104,None,,,,,0,0,0,0,0,128,128,167,372.162654876709,,,,,,,,,,,,,,,,,,,,,,,,,,,,,,,,,,,,,,,,,,,,,,,,,,,,,,,,,,,,,,,,,,,,,,,,,,,,,,,,,76.52984672433642,80.88976425915878,95.62885531724774,71.27174571876816,111.41550520278119,164.24032268541242,1.0,1.1,-652,270,-480,274,-266,262,372.1469991207123,372.14712500572205,372.1504683494568,372.162654876709,372.3129904270172,372.3129904270172,372.3129904270172,372.3129904270172,372.3129904270172,372.3129904270172,372.3129904270172,373.4805853366852,3,1.3062822818756104,None,,,,,,,,,,,,,,,,,,210,1,2025-03-07_10h47.09.833,comp,2024.2.4,57.073513903346736,2025-03-07 10h47.17.528577 -0500,
129,129,0,filler_square,None,None,None,None,None,None,None,None,None,None,3,1.2825744152069092,None,,,,,0,0,0,0,0,129,129,177,373.49737668037415,,,,,,,,,,,,,,,,,,,,,,,,,,,,,,,,,,,,,,,,,,,,,,,,,,,,,,,,,,,,,,,,,,,,,,,,,,,,,,,,,103.36033952342359,133.56071321571395,119.41545358512971,120.55809425980011,147.16304480182623,147.16304480182623,2.2,2.21,-223,-286,0,266,230,251,373.48257517814636,373.48265743255615,373.4864957332611,373.49737668037415,373.64679884910583,373.64679884910583,373.64679884910583,373.64679884910583,373.64679884910583,373.64679884910583,373.64679884910583,374.79384326934814,3,1.2825744152069092,None,,,,,,,,,,,,,,,,,,210,1,2025-03-07_10h47.09.833,comp,2024.2.4,57.073513903346736,2025-03-07 10h47.17.528577 -0500,
130,130,0,filler_square,None,None,None,None,None,None,None,None,None,None,1,1.1694414615631104,None,,,,,0,0,0,0,0,130,130,207,374.81050086021423,,,,,,,,,,,,,,,,,,,,,,,,,,,,,,,,,,,,,,,,,,,,,,,,,,,,,,,,,,,,,,,,,,,,,,,,,,,,,,,,,129.52899716950824,129.52899716950824,60.75066114576155,62.9913229960798,79.20226803957866,123.31844082138565,2.1,2.11,-192,283,0,267,189,-282,374.795606136322,374.7956850528717,374.79852056503296,374.81050086021423,374.9659972190857,374.9659972190857,374.9659972190857,374.9659972190857,374.9659972190857,374.9659972190857,374.9659972190857,375.99642157554626,1,1.1694414615631104,None,,,,,,,,,,,,,,,,,,210,1,2025-03-07_10h47.09.833,comp,2024.2.4,57.073513903346736,2025-03-07 10h47.17.528577 -0500,
131,131,0,critical,dhw,20.0,4.0,lower,78.0,78.0,133.0,57.0,57.0,133.0,3,1.7757036685943604,None,,,,,0,0,0,0,0,131,131,58,376.01212882995605,,,,,,,,,,,,,,,,,,,,,,,,,,,,,,,,,,,,,,,,,,,,,,,,,,,,,,,,,,,,,,,,,,,,,,,,,,,,,,,,,78.0,78.0,133.0,57.0,57.0,133.0,4.0,4.2,-164,-6,0,-264,191,12,375.99801754951477,375.9980981349945,376.0016508102417,376.01212882995605,376.1619715690613,376.1619715690613,376.1619715690613,376.1619715690613,376.1619715690613,376.1619715690613,376.1619715690613,377.7972011566162,3,1.7757036685943604,None,,,,,,,,,,,,,,,,,,210,1,2025-03-07_10h47.09.833,comp,2024.2.4,57.073513903346736,2025-03-07 10h47.17.528577 -0500,
132,132,0,filler_square,None,None,None,None,None,None,None,None,None,None,2,1.1737112998962402,None,,,,,0,0,0,0,0,132,132,206,377.8142468929291,,,,,,,,,,,,,,,,,,,,,,,,,,,,,,,,,,,,,,,,,,,,,,,,,,,,,,,,,,,,,,,,,,,,,,,,,,,,,,,,,71.76753892356938,107.98686981697128,122.99697325877361,122.99697325877361,111.59419539720264,112.76873541446272,2.2,2.21,-211,-265,0,262,214,255,377.7993071079254,377.79938864707947,377.8030927181244,377.8142468929291,377.96157693862915,377.96157693862915,377.96157693862915,377.96157693862915,377.96157693862915,377.96157693862915,377.96157693862915,379.0066695213318,2,1.1737112998962402,None,,,,,,,,,,,,,,,,,,210,1,2025-03-07_10h47.09.833,comp,2024.2.4,57.073513903346736,2025-03-07 10h47.17.528577 -0500,
133,133,0,filler_square,None,None,None,None,None,None,None,None,None,None,3,1.713869333267212,None,,,,,0,0,0,0,0,133,133,173,379.02673530578613,,,,,,,,,,,,,,,,,,,,,,,,,,,,,,,,,,,,,,,,,,,,,,,,,,,,,,,,,,,,,,,,,,,,,,,,,,,,,,,,,80.52709302823123,74.168804431401,81.87124459236264,81.87124459236264,79.63844272599542,66.54015717382056,2.1,2.12,-174,-269,0,-261,170,255,379.0084810256958,379.00856018066406,379.0114257335663,379.02673530578613,379.16911935806274,379.16911935806274,379.16911935806274,379.16911935806274,379.16911935806274,379.16911935806274,379.16911935806274,380.75128054618835,3,1.713869333267212,None,,,,,,,,,,,,,,,,,,210,1,2025-03-07_10h47.09.833,comp,2024.2.4,57.073513903346736,2025-03-07 10h47.17.528577 -0500,
134,134,0,filler_square,None,None,None,None,None,None,None,None,None,None,1,2.87959623336792,None,,,,,0,0,0,0,0,134,134,174,380.7727189064026,,,,,,,,,,,,,,,,,,,,,,,,,,,,,,,,,,,,,,,,,,,,,,,,,,,,,,,,,,,,,,,,,,,,,,,,,,,,,,,,,177.16708908566557,177.16708908566557,95.50663374866808,146.9827134724602,151.39899546464483,84.00214745868976,3.0,3.1,-258,259,0,3,211,-251,380.75318670272827,380.75326800346375,380.75673365592957,380.7727189064026,380.91161847114563,380.91161847114563,380.91161847114563,380.91161847114563,380.91161847114563,380.91161847114563,380.91161847114563,383.66629791259766,1,2.87959623336792,None,,,,,,,,,,,,,,,,,,210,1,2025-03-07_10h47.09.833,comp,2024.2.4,57.073513903346736,2025-03-07 10h47.17.528577 -0500,
135,135,0,critical,hdw,20.0,1.0,lower,133.0,57.0,78.0,78.0,57.0,133.0,1,3.1952717304229736,None,,,,,0,0,0,0,0,135,135,114,383.6817693710327,,,,,,,,,,,,,,,,,,,,,,,,,,,,,,,,,,,,,,,,,,,,,,,,,,,,,,,,,,,,,,,,,,,,,,,,,,,,,,,,,133.0,57.0,78.0,78.0,57.0,133.0,1.0,1.2,-164,-1,0,12,202,2,383.6677658557892,383.66784620285034,383.67131662368774,383.6817693710327,383.8337173461914,383.8337173461914,383.8337173461914,383.8337173461914,383.8337173461914,383.8337173461914,383.8337173461914,386.88155221939087,1,3.1952717304229736,None,,,,,,,,,,,,,,,,,,210,1,2025-03-07_10h47.09.833,comp,2024.2.4,57.073513903346736,2025-03-07 10h47.17.528577 -0500,
136,136,0,critical,hdw,35.0,1.0,upper,200.0,125.0,127.0,127.0,125.0,200.0,3,3.161850929260254,None,,,,,0,0,0,0,0,136,136,109,386.89834332466125,,,,,,,,,,,,,,,,,,,,,,,,,,,,,,,,,,,,,,,,,,,,,,,,,,,,,,,,,,,,,,,,,,,,,,,,,,,,,,,,,200.0,125.0,127.0,127.0,125.0,200.0,1.0,1.3,258,-277,480,-255,740,-289,386.8832211494446,386.8833577632904,386.88700914382935,386.89834332466125,387.05311489105225,387.05311489105225,387.05311489105225,387.05311489105225,387.05311489105225,387.05311489105225,387.05311489105225,390.0711295604706,3,3.161850929260254,None,,,,,,,,,,,,,,,,,,210,1,2025-03-07_10h47.09.833,comp,2024.2.4,57.073513903346736,2025-03-07 10h47.17.528577 -0500,
137,137,0,critical,hwd,20.0,3.0,upper,200.0,125.0,125.0,200.0,141.0,141.0,2,1.5545923709869385,None,,,,,0,0,0,0,0,137,137,105,390.08935284614563,,,,,,,,,,,,,,,,,,,,,,,,,,,,,,,,,,,,,,,,,,,,,,,,,,,,,,,,,,,,,,,,,,,,,,,,,,,,,,,,,200.0,125.0,125.0,200.0,141.0,141.0,3.0,3.1,-258,283,0,6,266,-259,390.07272696495056,390.07280826568604,390.0756890773773,390.08935284614563,390.2344114780426,390.2344114780426,390.2344114780426,390.2344114780426,390.2344114780426,390.2344114780426,390.2344114780426,391.65313720703125,2,1.5545923709869385,None,,,,,,,,,,,,,,,,,,210,1,2025-03-07_10h47.09.833,comp,2024.2.4,57.073513903346736,2025-03-07 10h47.17.528577 -0500,
138,138,0,filler_random,None,None,None,None,None,None,None,None,None,None,3,5.990960359573364,None,,,,,0,0,0,0,0,138,138,156,391.66952562332153,,,,,,,,,,,,,,,,,,,,,,,,,,,,,,,,,,,,,,,,,,,,,,,,,,,,,,,,,,,,,,,,,,,,,,,,,,,,,,,,,70.87357968372575,162.26002661874935,91.31378541250226,101.9275681765848,153.97142788481236,77.2936443901746,2.2,2.22,-228,255,0,-280,186,-285,391.6549439430237,391.6550703048706,391.65846014022827,391.66952562332153,391.82383728027344,391.82383728027344,391.82383728027344,391.82383728027344,391.82383728027344,391.82383728027344,391.82383728027344,397.6736259460449,3,5.990960359573364,None,,,,,,,,,,,,,,,,,,210,1,2025-03-07_10h47.09.833,comp,2024.2.4,57.073513903346736,2025-03-07 10h47.17.528577 -0500,
139,139,0,critical,whd,20.0,4.0,lower,57.0,133.0,133.0,57.0,78.0,78.0,2,1.8940346240997314,None,,,,,0,0,0,0,0,139,139,94,397.6943235397339,,,,,,,,,,,,,,,,,,,,,,,,,,,,,,,,,,,,,,,,,,,,,,,,,,,,,,,,,,,,,,,,,,,,,,,,,,,,,,,,,57.0,133.0,133.0,57.0,78.0,78.0,4.0,4.1,-191,-288,0,-11,164,-283,397.67519426345825,397.67530941963196,397.6785328388214,397.6943235397339,397.83720302581787,397.83720302581787,397.83720302581787,397.83720302581787,397.83720302581787,397.83720302581787,397.83720302581787,399.6058053970337,2,1.8940346240997314,None,,,,,,,,,,,,,,,,,,210,1,2025-03-07_10h47.09.833,comp,2024.2.4,57.073513903346736,2025-03-07 10h47.17.528577 -0500,
