thisN,thisTrialN,thisRepN,effect,order,distance,config,diag,h_1,w_1,h_2,w_2,h_3,w_3,rect_choice.keys,rect_choice.rt,rect_choice.duration,instructions_loop.thisRepN,instructions_loop.thisTrialN,instructions_loop.thisN,instructions_loop.thisIndex,blocks.thisRepN,blocks.thisTrialN,blocks.thisN,blocks.thisIndex,trials.thisRepN,trials.thisTrialN,trials.thisN,trials.thisIndex,thisRow.t,notes,consent.started,agree_button.started,decline_button.started,consent_img.started,mouse.started,consent.stopped,agree_button.numClicks,agree_button.timesOn,agree_button.timesOff,decline_button.numClicks,decline_button.timesOn,decline_button.timesOff,mouse.x,mouse.y,mouse.leftButton,mouse.midButton,mouse.rightButton,mouse.time,mouse.clicked_name,exp_params.started,exp_params.stopped,welcome.started,welcome_text.started,welcome.stopped,instructions_1.started,instructions_1_text_1.started,instructions_1_text_2.started,key_resp.started,instructions_1.stopped,instructions_loop.key_resp.keys,instructions_loop.key_resp.rt,instructions_loop.key_resp.duration,instructions_2.started,instructions_2_text_1.started,instructions_2_text_2.started,key_resp_2.started,instructions_2.stopped,instructions_loop.key_resp_2.keys,instructions_loop.key_resp_2.rt,instructions_loop.key_resp_2.duration,instructions_3.started,instructions_3_text_1.started,r1_instr3.started,r2_instr3.started,r3_instr3.started,r1_instr3_label.started,r2_instr3_label.started,r3_instr3_label.started,instructions_3_text_3.started,instructions_3_text_4.started,key_resp_3.started,instructions_3.stopped,instructions_loop.key_resp_3.keys,instructions_loop.key_resp_3.rt,instructions_loop.key_resp_3.duration,instructions_4.started,instructions_4_text_1.started,instructions_4_text_3.started,instructions_4_text_2.started,key_resp_4.started,instructions_4.stopped,instructions_loop.key_resp_4.keys,instructions_loop.key_resp_4.rt,instructions_loop.key_resp_4.duration,instructions_5.started,instructions_5_text_1.started,instructions_5_text_2.started,key_resp_5.started,instructions_5.stopped,instructions_loop.key_resp_5.keys,instructions_loop.key_resp_5.rt,instructions_loop.key_resp_5.duration,start_exp.started,start_exp_text.started,key_resp_6.started,start_exp.stopped,key_resp_6.keys,key_resp_6.rt,key_resp_6.duration,h_1_tmp,w_1_tmp,h_2_tmp,w_2_tmp,h_3_tmp,w_3_tmp,config_tmp,config_tmp_1,r_1_x,r_1_y,r_2_x,r_2_y,r_3_x,r_3_y,pre_trial.started,pre_trial.stopped,choice_trial.started,rect_choice.started,r_1.started,r_2.started,r_3.started,r_1_label.started,r_2_label.started,r_3_label.started,prompt.started,choice_trial.stopped,trials.rect_choice.keys,trials.rect_choice.rt,trials.rect_choice.duration,end_block.started,end_block_text.started,end_block.stopped,end.started,end_text.started,key_resp_7.started,end.stopped,key_resp_7.keys,key_resp_7.rt,key_resp_7.duration,debriefing.started,debrief_form.started,end_debrief.started,debriefing.stopped,end_debrief.keys,end_debrief.rt,end_debrief.duration,participant,computer,date,expName,psychopyVersion,frameRate,expStart,
,,,,,,,,,,,,,,,,,,,,,,,,,,,,,,,0.015593528747558594,0.041810035705566406,0.041810035705566406,0.041810035705566406,0.015049457550048828,39.05625557899475,1,[39.013192653656006],[39.01320457458496],0,,,[-82.0],[-518.0],[1],[0],[0],[39.04009461402893],['agree_button'],,,,,,,,,,,,,,,,,,,,,,,,,,,,,,,,,,,,,,,,,,,,,,,,,,,,,,,,,,,,,,,,,,,,,,,,,,,,,,,,,,,,,,,,,,,,,,,,,,,,,,,,,,,212,3,2025-03-07_10h51.12.347,comp,2024.2.4,60.045066325376574,2025-03-07 10h51.19.953562 -0500,
,,,,,,,,,,,,,,,,,,,,,,,,,,,,,,,,,,,,,,,,,,,,,,,,,,39.05654048919678,39.05658745765686,,,,,,,,,,,,,,,,,,,,,,,,,,,,,,,,,,,,,,,,,,,,,,,,,,,,,,,,,,,,,,,,,,,,,,,,,,,,,,,,,,,,,,,,,,,,,,,,,,,,,,,,,212,3,2025-03-07_10h51.12.347,comp,2024.2.4,60.045066325376574,2025-03-07 10h51.19.953562 -0500,
,,,,,,,,,,,,,,,,,,,,,,,,,,,,,,,,,,,,,,,,,,,,,,,,,,,,39.056880235672,39.070762395858765,41.06338715553284,,,,,,,,,,,,,,,,,,,,,,,,,,,,,,,,,,,,,,,,,,,,,,,,,,,,,,,,,,,,,,,,,,,,,,,,,,,,,,,,,,,,,,,,,,,,,,,,,,,,,,212,3,2025-03-07_10h51.12.347,comp,2024.2.4,60.045066325376574,2025-03-07 10h51.19.953562 -0500,
0,0,0,,,,,,,,,,,,,,,0,0,0,0,,,,,,,,,41.08013343811035,,,,,,,,,,,,,,,,,,,,,,,,,,41.06396269798279,41.08013343811035,41.08013343811035,42.563223123550415,45.481544733047485,space,2.9006590843200684,None,45.48163056373596,45.49683594703674,45.49683594703674,46.99723696708679,53.19784617424011,space,6.185502052307129,None,53.197935342788696,53.21977782249451,53.21977782249451,53.21977782249451,53.21977782249451,53.21977782249451,53.21977782249451,53.21977782249451,53.21977782249451,53.21977782249451,54.69702196121216,59.84833073616028,space,5.134151935577393,None,59.84842276573181,59.863752126693726,59.863752126693726,59.863752126693726,61.36323809623718,66.81436276435852,space,5.44425892829895,None,66.81444597244263,66.83019852638245,66.83019852638245,68.32981276512146,69.264883518219,space,0.9171557426452637,None,69.26500129699707,69.28099226951599,69.28099226951599,70.8975419998169,space,1.6068894863128662,None,,,,,,,,,,,,,,,,,,,,,,,,,,,,,,,,,,,,,,,,,,,,,,,212,3,2025-03-07_10h51.12.347,comp,2024.2.4,60.045066325376574,2025-03-07 10h51.19.953562 -0500,
0,0,0,filler_random,None,None,None,None,None,None,None,None,None,None,3,3.6504502296447754,None,,,,,0,0,0,0,0,0,0,139,70.95714735984802,,,,,,,,,,,,,,,,,,,,,,,,,,,,,,,,,,,,,,,,,,,,,,,,,,,,,,,,,,,,,,,,,,,,,,,,,,,,,,,,,139.44889081345838,88.18493380231511,96.11015161444939,96.29292751273934,173.64251573329562,175.72118108352126,2.2,2.21,-188,-273,0,272,232,270,70.94326400756836,70.94330954551697,70.94536995887756,70.95714735984802,71.10308885574341,71.10308885574341,71.10308885574341,71.10308885574341,71.10308885574341,71.10308885574341,71.10308885574341,74.6144757270813,3,3.6504502296447754,None,,,,,,,,,,,,,,,,,,212,3,2025-03-07_10h51.12.347,comp,2024.2.4,60.045066325376574,2025-03-07 10h51.19.953562 -0500,
1,1,0,critical,dwh,35.0,2.1,upper,127.0,127.0,125.0,200.0,200.0,125.0,3,20.304510831832886,None,,,,,0,0,0,0,0,1,1,5,74.63007378578186,,,,,,,,,,,,,,,,,,,,,,,,,,,,,,,,,,,,,,,,,,,,,,,,,,,,,,,,,,,,,,,,,,,,,,,,,,,,,,,,,127.0,127.0,125.0,200.0,200.0,125.0,2.1,2.12,-260,-282,0,-263,258,278,74.61527991294861,74.61532044410706,74.61826229095459,74.63007378578186,74.78130149841309,74.78130149841309,74.78130149841309,74.78130149841309,74.78130149841309,74.78130149841309,74.78130149841309,94.94776821136475,3,20.304510831832886,None,,,,,,,,,,,,,,,,,,212,3,2025-03-07_10h51.12.347,comp,2024.2.4,60.045066325376574,2025-03-07 10h51.19.953562 -0500,
2,2,0,critical,hdw,35.0,2.1,upper,200.0,125.0,127.0,127.0,125.0,200.0,1,10.93921184539795,None,,,,,0,0,0,0,0,2,2,21,94.96295714378357,,,,,,,,,,,,,,,,,,,,,,,,,,,,,,,,,,,,,,,,,,,,,,,,,,,,,,,,,,,,,,,,,,,,,,,,,,,,,,,,,200.0,125.0,127.0,127.0,125.0,200.0,2.1,2.12,-222,-275,0,-257,260,285,94.94858074188232,94.94861936569214,94.95097756385803,94.96295714378357,95.11349630355835,95.11349630355835,95.11349630355835,95.11349630355835,95.11349630355835,95.11349630355835,95.11349630355835,105.91467928886414,1,10.93921184539795,None,,,,,,,,,,,,,,,,,,212,3,2025-03-07_10h51.12.347,comp,2024.2.4,60.045066325376574,2025-03-07 10h51.19.953562 -0500,
3,3,0,filler_random,None,None,None,None,None,None,None,None,None,None,1,3.2774436473846436,None,,,,,0,0,0,0,0,3,3,137,105.92963576316833,,,,,,,,,,,,,,,,,,,,,,,,,,,,,,,,,,,,,,,,,,,,,,,,,,,,,,,,,,,,,,,,,,,,,,,,,,,,,,,,,177.3724270871419,149.8144490884392,145.294949652715,76.45561901839041,106.38506259218988,120.93656748340902,2.1,2.12,-209,-260,0,-286,195,264,105.91562080383301,105.91566228866577,105.91783785820007,105.92963576316833,106.08007669448853,106.08007669448853,106.08007669448853,106.08007669448853,106.08007669448853,106.08007669448853,106.08007669448853,109.2142117023468,1,3.2774436473846436,None,,,,,,,,,,,,,,,,,,212,3,2025-03-07_10h51.12.347,comp,2024.2.4,60.045066325376574,2025-03-07 10h51.19.953562 -0500,
4,4,0,catch,None,None,None,None,None,None,None,None,None,None,3,3.0413239002227783,None,,,,,0,0,0,0,0,4,4,121,109.22979760169983,,,,,,,,,,,,,,,,,,,,,,,,,,,,,,,,,,,,,,,,,,,,,,,,,,,,,,,,,,,,,,,,,,,,,,,,,,,,,,,,,64,126,65,125,163,162,1.0,1.3,258,-281,480,-285,720,-289,109.21530199050903,109.21534442901611,109.21750855445862,109.22979760169983,109.37965250015259,109.37965250015259,109.37965250015259,109.37965250015259,109.37965250015259,109.37965250015259,109.37965250015259,112.28093433380127,3,3.0413239002227783,None,,,,,,,,,,,,,,,,,,212,3,2025-03-07_10h51.12.347,comp,2024.2.4,60.045066325376574,2025-03-07 10h51.19.953562 -0500,
5,5,0,filler_square,None,None,None,None,None,None,None,None,None,None,2,3.3502962589263916,None,,,,,0,0,0,0,0,5,5,173,112.29652261734009,,,,,,,,,,,,,,,,,,,,,,,,,,,,,,,,,,,,,,,,,,,,,,,,,,,,,,,,,,,,,,,,,,,,,,,,,,,,,,,,,67.29411479299377,85.96562634068516,94.64092369562128,94.64092369562128,72.13694472635953,80.67963906540822,1.0,1.2,-186,-19,0,-10,184,-15,112.28189015388489,112.28193092346191,112.28436660766602,112.29652261734009,112.4462993144989,112.4462993144989,112.4462993144989,112.4462993144989,112.4462993144989,112.4462993144989,112.4462993144989,115.6640956401825,2,3.3502962589263916,None,,,,,,,,,,,,,,,,,,212,3,2025-03-07_10h51.12.347,comp,2024.2.4,60.045066325376574,2025-03-07 10h51.19.953562 -0500,
6,6,0,critical,dhw,35.0,4.0,upper,127.0,127.0,200.0,125.0,125.0,200.0,2,22.38370156288147,None,,,,,0,0,0,0,0,6,6,53,115.6794638633728,,,,,,,,,,,,,,,,,,,,,,,,,,,,,,,,,,,,,,,,,,,,,,,,,,,,,,,,,,,,,,,,,,,,,,,,,,,,,,,,,127.0,127.0,200.0,125.0,125.0,200.0,4.0,4.1,-222,-259,0,-2,258,-254,115.66489577293396,115.66493654251099,115.66754269599915,115.6794638633728,115.82984805107117,115.82984805107117,115.82984805107117,115.82984805107117,115.82984805107117,115.82984805107117,115.82984805107117,138.08076238632202,2,22.38370156288147,None,,,,,,,,,,,,,,,,,,212,3,2025-03-07_10h51.12.347,comp,2024.2.4,60.045066325376574,2025-03-07 10h51.19.953562 -0500,
7,7,0,filler_random,None,None,None,None,None,None,None,None,None,None,2,2.1751554012298584,None,,,,,0,0,0,0,0,7,7,158,138.09608817100525,,,,,,,,,,,,,,,,,,,,,,,,,,,,,,,,,,,,,,,,,,,,,,,,,,,,,,,,,,,,,,,,,,,,,,,,,,,,,,,,,110.09746867384894,77.83816366398452,142.04527570005376,160.56375385363188,120.59676352984272,118.04831351784175,2.2,2.21,-215,-272,0,282,235,278,138.08167719841003,138.08171963691711,138.08509993553162,138.09608817100525,138.24613785743713,138.24613785743713,138.24613785743713,138.24613785743713,138.24613785743713,138.24613785743713,138.24613785743713,140.28076839447021,2,2.1751554012298584,None,,,,,,,,,,,,,,,,,,212,3,2025-03-07_10h51.12.347,comp,2024.2.4,60.045066325376574,2025-03-07 10h51.19.953562 -0500,
8,8,0,filler_random,None,None,None,None,None,None,None,None,None,None,1,1.701878309249878,None,,,,,0,0,0,0,0,8,8,169,140.2963273525238,,,,,,,,,,,,,,,,,,,,,,,,,,,,,,,,,,,,,,,,,,,,,,,,,,,,,,,,,,,,,,,,,,,,,,,,,,,,,,,,,198.93809664795918,161.77117701182735,85.64038801540335,163.43261969619493,69.51413156735626,71.82409798944903,1.0,1.3,221,-260,480,-269,694,-287,140.28168368339539,140.281724691391,140.28389286994934,140.2963273525238,140.4461920261383,140.4461920261383,140.4461920261383,140.4461920261383,140.4461920261383,140.4461920261383,140.4461920261383,142.01403284072876,1,1.701878309249878,None,,,,,,,,,,,,,,,,,,212,3,2025-03-07_10h51.12.347,comp,2024.2.4,60.045066325376574,2025-03-07 10h51.19.953562 -0500,
9,9,0,filler_random,None,None,None,None,None,None,None,None,None,None,1,15.377382755279541,None,,,,,0,0,0,0,0,9,9,135,142.02933979034424,,,,,,,,,,,,,,,,,,,,,,,,,,,,,,,,,,,,,,,,,,,,,,,,,,,,,,,,,,,,,,,,,,,,,,,,,,,,,,,,,121.41840972966062,189.49697556885644,157.7749653112868,138.8012024030593,181.52276050989275,72.0115908797208,2.2,2.21,-260,-252,0,266,201,289,142.01497793197632,142.01501727104187,142.0171513557434,142.02933979034424,142.17959713935852,142.17959713935852,142.17959713935852,142.17959713935852,142.17959713935852,142.17959713935852,142.17959713935852,157.41392135620117,1,15.377382755279541,None,,,,,,,,,,,,,,,,,,212,3,2025-03-07_10h51.12.347,comp,2024.2.4,60.045066325376574,2025-03-07 10h51.19.953562 -0500,
10,10,0,critical,hdw,35.0,3.0,lower,133.0,57.0,70.0,70.0,57.0,133.0,3,6.0723371505737305,None,,,,,0,0,0,0,0,10,10,110,157.42939162254333,,,,,,,,,,,,,,,,,,,,,,,,,,,,,,,,,,,,,,,,,,,,,,,,,,,,,,,,,,,,,,,,,,,,,,,,,,,,,,,,,133.0,57.0,70.0,70.0,57.0,133.0,3.0,3.2,-160,-283,0,-17,198,267,157.41475129127502,157.4147937297821,157.4173493385315,157.42939162254333,157.57919478416443,157.57919478416443,157.57919478416443,157.57919478416443,157.57919478416443,157.57919478416443,157.57919478416443,163.51392889022827,3,6.0723371505737305,None,,,,,,,,,,,,,,,,,,212,3,2025-03-07_10h51.12.347,comp,2024.2.4,60.045066325376574,2025-03-07 10h51.19.953562 -0500,
11,11,0,critical,dwh,20.0,3.0,upper,141.0,141.0,125.0,200.0,200.0,125.0,3,12.383238315582275,None,,,,,0,0,0,0,0,11,11,69,163.5291006565094,,,,,,,,,,,,,,,,,,,,,,,,,,,,,,,,,,,,,,,,,,,,,,,,,,,,,,,,,,,,,,,,,,,,,,,,,,,,,,,,,141.0,141.0,125.0,200.0,200.0,125.0,3.0,3.2,-266,-254,0,-19,258,285,163.51474285125732,163.5147831439972,163.51724433898926,163.5291006565094,163.67944836616516,163.67944836616516,163.67944836616516,163.67944836616516,163.67944836616516,163.67944836616516,163.67944836616516,175.91400742530823,3,12.383238315582275,None,,,,,,,,,,,,,,,,,,212,3,2025-03-07_10h51.12.347,comp,2024.2.4,60.045066325376574,2025-03-07 10h51.19.953562 -0500,
12,12,0,catch,None,None,None,None,None,None,None,None,None,None,3,2.166748046875,None,,,,,0,0,0,0,0,12,12,128,175.92937922477722,,,,,,,,,,,,,,,,,,,,,,,,,,,,,,,,,,,,,,,,,,,,,,,,,,,,,,,,,,,,,,,,,,,,,,,,,,,,,,,,,79,111,97,93,154,171,1.0,1.1,-678,279,-480,269,-252,257,175.9150788784027,175.91512060165405,175.91770195960999,175.92937922477722,176.079274892807,176.079274892807,176.079274892807,176.079274892807,176.079274892807,176.079274892807,176.079274892807,178.09725093841553,3,2.166748046875,None,,,,,,,,,,,,,,,,,,212,3,2025-03-07_10h51.12.347,comp,2024.2.4,60.045066325376574,2025-03-07 10h51.19.953562 -0500,
13,13,0,critical,hwd,35.0,4.0,upper,200.0,125.0,125.0,200.0,127.0,127.0,2,8.301016330718994,None,,,,,0,0,0,0,0,13,13,101,178.1126573085785,,,,,,,,,,,,,,,,,,,,,,,,,,,,,,,,,,,,,,,,,,,,,,,,,,,,,,,,,,,,,,,,,,,,,,,,,,,,,,,,,200.0,125.0,125.0,200.0,127.0,127.0,4.0,4.2,-258,0,0,-282,260,-14,178.09807682037354,178.09811878204346,178.1006679534912,178.1126573085785,178.26264357566833,178.26264357566833,178.26264357566833,178.26264357566833,178.26264357566833,178.26264357566833,178.26264357566833,186.4303915500641,2,8.301016330718994,None,,,,,,,,,,,,,,,,,,212,3,2025-03-07_10h51.12.347,comp,2024.2.4,60.045066325376574,2025-03-07 10h51.19.953562 -0500,
14,14,0,filler_random,None,None,None,None,None,None,None,None,None,None,2,2.2503244876861572,None,,,,,0,0,0,0,0,14,14,163,186.4456181526184,,,,,,,,,,,,,,,,,,,,,,,,,,,,,,,,,,,,,,,,,,,,,,,,,,,,,,,,,,,,,,,,,,,,,,,,,,,,,,,,,57.74648659401725,117.192089446337,135.8607339385475,157.1298410298042,136.38368109858865,124.01041261940998,3.0,3.2,-233,-256,0,17,237,257,186.43132042884827,186.4313621520996,186.43352818489075,186.4456181526184,186.59579348564148,186.59579348564148,186.59579348564148,186.59579348564148,186.59579348564148,186.59579348564148,186.59579348564148,188.71364378929138,2,2.2503244876861572,None,,,,,,,,,,,,,,,,,,212,3,2025-03-07_10h51.12.347,comp,2024.2.4,60.045066325376574,2025-03-07 10h51.19.953562 -0500,
15,15,0,filler_square,None,None,None,None,None,None,None,None,None,None,2,10.933465242385864,None,,,,,0,0,0,0,0,15,15,175,188.72908210754395,,,,,,,,,,,,,,,,,,,,,,,,,,,,,,,,,,,,,,,,,,,,,,,,,,,,,,,,,,,,,,,,,,,,,,,,,,,,,,,,,58.31312412091508,72.26978768212533,77.70178161654201,88.38486907336464,90.03593861625185,90.03593861625185,3.0,3.1,-176,260,0,20,185,-275,188.71458864212036,188.7146291732788,188.71675968170166,188.72908210754395,188.8791229724884,188.8791229724884,188.8791229724884,188.8791229724884,188.8791229724884,188.8791229724884,188.8791229724884,199.66376113891602,2,10.933465242385864,None,,,,,,,,,,,,,,,,,,212,3,2025-03-07_10h51.12.347,comp,2024.2.4,60.045066325376574,2025-03-07 10h51.19.953562 -0500,
16,16,0,critical,dhw,20.0,2.1,upper,141.0,141.0,200.0,125.0,125.0,200.0,2,30.27927541732788,None,,,,,0,0,0,0,0,16,16,3,199.67925715446472,,,,,,,,,,,,,,,,,,,,,,,,,,,,,,,,,,,,,,,,,,,,,,,,,,,,,,,,,,,,,,,,,,,,,,,,,,,,,,,,,141.0,141.0,200.0,125.0,125.0,200.0,2.1,2.12,-229,-278,0,-262,258,289,199.66455507278442,199.6645965576172,199.66698002815247,199.67925715446472,199.82924556732178,199.82924556732178,199.82924556732178,199.82924556732178,199.82924556732178,199.82924556732178,199.82924556732178,229.9635787010193,2,30.27927541732788,None,,,,,,,,,,,,,,,,,,212,3,2025-03-07_10h51.12.347,comp,2024.2.4,60.045066325376574,2025-03-07 10h51.19.953562 -0500,
17,17,0,filler_square,None,None,None,None,None,None,None,None,None,None,1,2.6432647705078125,None,,,,,0,0,0,0,0,17,17,207,229.97897791862488,,,,,,,,,,,,,,,,,,,,,,,,,,,,,,,,,,,,,,,,,,,,,,,,,,,,,,,,,,,,,,,,,,,,,,,,,,,,,,,,,153.89147739605707,153.89147739605707,151.2308224959555,122.32967257138209,110.65898992310164,136.1695198181202,2.2,2.21,-234,-264,0,278,225,252,229.96454501152039,229.9645881652832,229.96671271324158,229.97897791862488,230.12918949127197,230.12918949127197,230.12918949127197,230.12918949127197,230.12918949127197,230.12918949127197,230.12918949127197,232.63005781173706,1,2.6432647705078125,None,,,,,,,,,,,,,,,,,,212,3,2025-03-07_10h51.12.347,comp,2024.2.4,60.045066325376574,2025-03-07 10h51.19.953562 -0500,
18,18,0,critical,whd,20.0,4.0,upper,125.0,200.0,200.0,125.0,141.0,141.0,1,3.617030143737793,None,,,,,0,0,0,0,0,18,18,95,232.64558744430542,,,,,,,,,,,,,,,,,,,,,,,,,,,,,,,,,,,,,,,,,,,,,,,,,,,,,,,,,,,,,,,,,,,,,,,,,,,,,,,,,125.0,200.0,200.0,125.0,141.0,141.0,4.0,4.1,-258,-254,0,10,229,-274,232.63085961341858,232.63090062141418,232.63338232040405,232.64558744430542,232.79568672180176,232.79568672180176,232.79568672180176,232.79568672180176,232.79568672180176,232.79568672180176,232.79568672180176,236.2800064086914,1,3.617030143737793,None,,,,,,,,,,,,,,,,,,212,3,2025-03-07_10h51.12.347,comp,2024.2.4,60.045066325376574,2025-03-07 10h51.19.953562 -0500,
19,19,0,critical,hwd,35.0,2.1,lower,133.0,57.0,57.0,133.0,70.0,70.0,2,5.502197980880737,None,,,,,0,0,0,0,0,19,19,40,236.29529738426208,,,,,,,,,,,,,,,,,,,,,,,,,,,,,,,,,,,,,,,,,,,,,,,,,,,,,,,,,,,,,,,,,,,,,,,,,,,,,,,,,133.0,57.0,57.0,133.0,70.0,70.0,2.1,2.11,-191,278,0,265,198,-256,236.28080940246582,236.2808496952057,236.28336310386658,236.29529738426208,236.44556283950806,236.44556283950806,236.44556283950806,236.44556283950806,236.44556283950806,236.44556283950806,236.44556283950806,241.813227891922,2,5.502197980880737,None,,,,,,,,,,,,,,,,,,212,3,2025-03-07_10h51.12.347,comp,2024.2.4,60.045066325376574,2025-03-07 10h51.19.953562 -0500,
20,20,0,critical,hdw,35.0,2.1,lower,133.0,57.0,70.0,70.0,57.0,133.0,1,8.433657884597778,None,,,,,0,0,0,0,0,20,20,44,241.82856130599976,,,,,,,,,,,,,,,,,,,,,,,,,,,,,,,,,,,,,,,,,,,,,,,,,,,,,,,,,,,,,,,,,,,,,,,,,,,,,,,,,133.0,57.0,70.0,70.0,57.0,133.0,2.1,2.11,-160,267,0,258,198,-284,241.814026594162,241.8140676021576,241.81617045402527,241.82856130599976,241.97863745689392,241.97863745689392,241.97863745689392,241.97863745689392,241.97863745689392,241.97863745689392,241.97863745689392,250.26352214813232,1,8.433657884597778,None,,,,,,,,,,,,,,,,,,212,3,2025-03-07_10h51.12.347,comp,2024.2.4,60.045066325376574,2025-03-07 10h51.19.953562 -0500,
21,21,0,critical,wdh,35.0,4.0,lower,57.0,133.0,70.0,70.0,133.0,57.0,1,2.726999521255493,None,,,,,0,0,0,0,0,21,21,76,250.2790186405182,,,,,,,,,,,,,,,,,,,,,,,,,,,,,,,,,,,,,,,,,,,,,,,,,,,,,,,,,,,,,,,,,,,,,,,,,,,,,,,,,57.0,133.0,70.0,70.0,133.0,57.0,4.0,4.1,-198,-274,0,8,160,-286,250.26431155204773,250.26435494422913,250.26665091514587,250.2790186405182,250.4285593032837,250.4285593032837,250.4285593032837,250.4285593032837,250.4285593032837,250.4285593032837,250.4285593032837,253.01303696632385,1,2.726999521255493,None,,,,,,,,,,,,,,,,,,212,3,2025-03-07_10h51.12.347,comp,2024.2.4,60.045066325376574,2025-03-07 10h51.19.953562 -0500,
22,22,0,critical,hdw,20.0,2.1,lower,133.0,57.0,78.0,78.0,57.0,133.0,3,2.7934134006500244,None,,,,,0,0,0,0,0,22,22,22,253.0286521911621,,,,,,,,,,,,,,,,,,,,,,,,,,,,,,,,,,,,,,,,,,,,,,,,,,,,,,,,,,,,,,,,,,,,,,,,,,,,,,,,,133.0,57.0,78.0,78.0,57.0,133.0,2.1,2.12,-164,-290,0,-253,202,282,253.01385521888733,253.01389408111572,253.01644468307495,253.0286521911621,253.17874693870544,253.17874693870544,253.17874693870544,253.17874693870544,253.17874693870544,253.17874693870544,253.17874693870544,255.82964539527893,3,2.7934134006500244,None,,,,,,,,,,,,,,,,,,212,3,2025-03-07_10h51.12.347,comp,2024.2.4,60.045066325376574,2025-03-07 10h51.19.953562 -0500,
23,23,0,critical,dwh,20.0,4.0,lower,78.0,78.0,57.0,133.0,133.0,57.0,2,3.8004307746887207,None,,,,,0,0,0,0,0,23,23,70,255.84537935256958,,,,,,,,,,,,,,,,,,,,,,,,,,,,,,,,,,,,,,,,,,,,,,,,,,,,,,,,,,,,,,,,,,,,,,,,,,,,,,,,,78.0,78.0,57.0,133.0,133.0,57.0,4.0,4.2,-202,10,0,-276,191,2,255.83045053482056,255.83050513267517,255.8339138031006,255.84537935256958,255.99558901786804,255.99558901786804,255.99558901786804,255.99558901786804,255.99558901786804,255.99558901786804,255.99558901786804,259.6630311012268,2,3.8004307746887207,None,,,,,,,,,,,,,,,,,,212,3,2025-03-07_10h51.12.347,comp,2024.2.4,60.045066325376574,2025-03-07 10h51.19.953562 -0500,
24,24,0,filler_random,None,None,None,None,None,None,None,None,None,None,3,15.902583122253418,None,,,,,0,0,0,0,0,24,24,154,259.6784517765045,,,,,,,,,,,,,,,,,,,,,,,,,,,,,,,,,,,,,,,,,,,,,,,,,,,,,,,,,,,,,,,,,,,,,,,,,,,,,,,,,133.30379790226928,144.58361784636662,71.46417380805313,107.14599312856643,186.67139886773117,113.37094550530313,2.1,2.12,-222,-285,0,-253,206,264,259.6639721393585,259.6640114784241,259.6665449142456,259.6784517765045,259.8286888599396,259.8286888599396,259.8286888599396,259.8286888599396,259.8286888599396,259.8286888599396,259.8286888599396,275.59646248817444,3,15.902583122253418,None,,,,,,,,,,,,,,,,,,212,3,2025-03-07_10h51.12.347,comp,2024.2.4,60.045066325376574,2025-03-07 10h51.19.953562 -0500,
25,25,0,filler_random,None,None,None,None,None,None,None,None,None,None,2,4.31571364402771,None,,,,,0,0,0,0,0,25,25,157,275.6119050979614,,,,,,,,,,,,,,,,,,,,,,,,,,,,,,,,,,,,,,,,,,,,,,,,,,,,,,,,,,,,,,,,,,,,,,,,,,,,,,,,,142.6984551139699,137.09860463757957,134.31401615507326,154.1985535630833,150.4219317924841,107.5614637402765,2.1,2.12,-242,-267,0,-252,227,268,275.5973951816559,275.597439289093,275.6007888317108,275.6119050979614,275.7620687484741,275.7620687484741,275.7620687484741,275.7620687484741,275.7620687484741,275.7620687484741,275.7620687484741,279.9303710460663,2,4.31571364402771,None,,,,,,,,,,,,,,,,,,212,3,2025-03-07_10h51.12.347,comp,2024.2.4,60.045066325376574,2025-03-07 10h51.19.953562 -0500,
26,26,0,critical,whd,20.0,1.0,upper,125.0,200.0,200.0,125.0,141.0,141.0,1,5.7716004848480225,None,,,,,0,0,0,0,0,26,26,91,279.9453167915344,,,,,,,,,,,,,,,,,,,,,,,,,,,,,,,,,,,,,,,,,,,,,,,,,,,,,,,,,,,,,,,,,,,,,,,,,,,,,,,,,125.0,200.0,200.0,125.0,141.0,141.0,1.0,1.2,-258,-10,0,9,229,-7,279.93118476867676,279.93122577667236,279.933669090271,279.9453167915344,280.09528636932373,280.09528636932373,280.09528636932373,280.09528636932373,280.09528636932373,280.09528636932373,280.09528636932373,285.7298562526703,1,5.7716004848480225,None,,,,,,,,,,,,,,,,,,212,3,2025-03-07_10h51.12.347,comp,2024.2.4,60.045066325376574,2025-03-07 10h51.19.953562 -0500,
27,27,0,critical,hdw,35.0,4.0,upper,200.0,125.0,127.0,127.0,125.0,200.0,3,3.566612958908081,None,,,,,0,0,0,0,0,27,27,113,285.74497151374817,,,,,,,,,,,,,,,,,,,,,,,,,,,,,,,,,,,,,,,,,,,,,,,,,,,,,,,,,,,,,,,,,,,,,,,,,,,,,,,,,200.0,125.0,127.0,127.0,125.0,200.0,4.0,4.2,-222,18,0,-266,260,7,285.73062896728516,285.7306697368622,285.7327723503113,285.74497151374817,285.89529395103455,285.89529395103455,285.89529395103455,285.89529395103455,285.89529395103455,285.89529395103455,285.89529395103455,289.3132493495941,3,3.566612958908081,None,,,,,,,,,,,,,,,,,,212,3,2025-03-07_10h51.12.347,comp,2024.2.4,60.045066325376574,2025-03-07 10h51.19.953562 -0500,
28,28,0,critical,wdh,35.0,4.0,upper,125.0,200.0,127.0,127.0,200.0,125.0,1,4.100528717041016,None,,,,,0,0,0,0,0,28,28,77,289.3285291194916,,,,,,,,,,,,,,,,,,,,,,,,,,,,,,,,,,,,,,,,,,,,,,,,,,,,,,,,,,,,,,,,,,,,,,,,,,,,,,,,,125.0,200.0,127.0,127.0,200.0,125.0,4.0,4.2,-260,0,0,-260,222,3,289.3141486644745,289.314190864563,289.31643748283386,289.3285291194916,289.47871828079224,289.47871828079224,289.47871828079224,289.47871828079224,289.47871828079224,289.47871828079224,289.47871828079224,293.4464690685272,1,4.100528717041016,None,,,,,,,,,,,,,,,,,,212,3,2025-03-07_10h51.12.347,comp,2024.2.4,60.045066325376574,2025-03-07 10h51.19.953562 -0500,
29,29,0,critical,wdh,20.0,4.0,lower,57.0,133.0,78.0,78.0,133.0,57.0,1,3.63342547416687,None,,,,,0,0,0,0,0,29,29,82,293.46169090270996,,,,,,,,,,,,,,,,,,,,,,,,,,,,,,,,,,,,,,,,,,,,,,,,,,,,,,,,,,,,,,,,,,,,,,,,,,,,,,,,,57.0,133.0,78.0,78.0,133.0,57.0,4.0,4.2,-202,-13,0,-267,164,3,293.44729471206665,293.44733572006226,293.4497106075287,293.46169090270996,293.6116192340851,293.6116192340851,293.6116192340851,293.6116192340851,293.6116192340851,293.6116192340851,293.6116192340851,297.09636211395264,1,3.63342547416687,None,,,,,,,,,,,,,,,,,,212,3,2025-03-07_10h51.12.347,comp,2024.2.4,60.045066325376574,2025-03-07 10h51.19.953562 -0500,
30,30,0,critical,dhw,35.0,2.1,upper,127.0,127.0,200.0,125.0,125.0,200.0,3,5.421096563339233,None,,,,,0,0,0,0,0,30,30,1,297.111873626709,,,,,,,,,,,,,,,,,,,,,,,,,,,,,,,,,,,,,,,,,,,,,,,,,,,,,,,,,,,,,,,,,,,,,,,,,,,,,,,,,127.0,127.0,200.0,125.0,125.0,200.0,2.1,2.12,-222,-268,0,-290,258,281,297.0972580909729,297.0973014831543,297.09966468811035,297.111873626709,297.2618455886841,297.2618455886841,297.2618455886841,297.2618455886841,297.2618455886841,297.2618455886841,297.2618455886841,302.5463318824768,3,5.421096563339233,None,,,,,,,,,,,,,,,,,,212,3,2025-03-07_10h51.12.347,comp,2024.2.4,60.045066325376574,2025-03-07 10h51.19.953562 -0500,
31,31,0,critical,whd,20.0,3.0,upper,125.0,200.0,200.0,125.0,141.0,141.0,1,32.755151987075806,None,,,,,0,0,0,0,0,31,31,93,302.5614149570465,,,,,,,,,,,,,,,,,,,,,,,,,,,,,,,,,,,,,,,,,,,,,,,,,,,,,,,,,,,,,,,,,,,,,,,,,,,,,,,,,125.0,200.0,200.0,125.0,141.0,141.0,3.0,3.1,-258,273,0,15,229,-250,302.5471227169037,302.5471615791321,302.54942059516907,302.5614149570465,302.7118239402771,302.7118239402771,302.7118239402771,302.7118239402771,302.7118239402771,302.7118239402771,302.7118239402771,335.32951045036316,1,32.755151987075806,None,,,,,,,,,,,,,,,,,,212,3,2025-03-07_10h51.12.347,comp,2024.2.4,60.045066325376574,2025-03-07 10h51.19.953562 -0500,
32,32,0,filler_square,None,None,None,None,None,None,None,None,None,None,2,2.5718843936920166,None,,,,,0,0,0,0,0,32,32,208,335.34468698501587,,,,,,,,,,,,,,,,,,,,,,,,,,,,,,,,,,,,,,,,,,,,,,,,,,,,,,,,,,,,,,,,,,,,,,,,,,,,,,,,,78.95360405604634,59.88919743198933,90.29238540491039,90.29238540491039,60.881675790429966,58.26625525651318,4.0,4.1,-171,-279,0,-15,170,-274,335.3304569721222,335.3305139541626,335.33265924453735,335.34468698501587,335.4945869445801,335.4945869445801,335.4945869445801,335.4945869445801,335.4945869445801,335.4945869445801,335.4945869445801,337.9291310310364,2,2.5718843936920166,None,,,,,,,,,,,,,,,,,,212,3,2025-03-07_10h51.12.347,comp,2024.2.4,60.045066325376574,2025-03-07 10h51.19.953562 -0500,
33,33,0,filler_square,None,None,None,None,None,None,None,None,None,None,2,2.0361108779907227,None,,,,,0,0,0,0,0,33,33,182,337.94458389282227,,,,,,,,,,,,,,,,,,,,,,,,,,,,,,,,,,,,,,,,,,,,,,,,,,,,,,,,,,,,,,,,,,,,,,,,,,,,,,,,,70.4813453789049,137.67401764774405,159.05657388137087,159.05657388137087,122.86406136895924,120.81044834341836,1.0,1.1,-724,261,-480,283,-244,290,337.9301459789276,337.93018794059753,337.93286991119385,337.94458389282227,338.0948061943054,338.0948061943054,338.0948061943054,338.0948061943054,338.0948061943054,338.0948061943054,338.0948061943054,339.99591851234436,2,2.0361108779907227,None,,,,,,,,,,,,,,,,,,212,3,2025-03-07_10h51.12.347,comp,2024.2.4,60.045066325376574,2025-03-07 10h51.19.953562 -0500,
34,34,0,filler_random,None,None,None,None,None,None,None,None,None,None,3,2.7214255332946777,None,,,,,0,0,0,0,0,34,34,138,340.0111725330353,,,,,,,,,,,,,,,,,,,,,,,,,,,,,,,,,,,,,,,,,,,,,,,,,,,,,,,,,,,,,,,,,,,,,,,,,,,,,,,,,94.4395303186727,128.01778796941178,177.87974474647422,131.24326246520874,142.75861235922795,193.53165611907485,3.0,3.1,-226,288,0,9,258,-275,339.99692726135254,339.996967792511,339.99957299232483,340.0111725330353,340.1615822315216,340.1615822315216,340.1615822315216,340.1615822315216,340.1615822315216,340.1615822315216,340.1615822315216,342.7460174560547,3,2.7214255332946777,None,,,,,,,,,,,,,,,,,,212,3,2025-03-07_10h51.12.347,comp,2024.2.4,60.045066325376574,2025-03-07 10h51.19.953562 -0500,
35,35,0,filler_random,None,None,None,None,None,None,None,None,None,None,3,2.4764723777770996,None,,,,,0,0,0,0,0,35,35,161,342.7612683773041,,,,,,,,,,,,,,,,,,,,,,,,,,,,,,,,,,,,,,,,,,,,,,,,,,,,,,,,,,,,,,,,,,,,,,,,,,,,,,,,,162.44595606605986,172.36535066000266,178.0177690995929,92.73874804916314,172.3184345509053,170.676851108027,2.2,2.21,-229,-261,0,289,228,273,342.74697971343994,342.74701952934265,342.74958753585815,342.7612683773041,342.9115822315216,342.9115822315216,342.9115822315216,342.9115822315216,342.9115822315216,342.9115822315216,342.9115822315216,345.2459936141968,3,2.4764723777770996,None,,,,,,,,,,,,,,,,,,212,3,2025-03-07_10h51.12.347,comp,2024.2.4,60.045066325376574,2025-03-07 10h51.19.953562 -0500,
36,36,0,critical,dwh,20.0,4.0,upper,141.0,141.0,125.0,200.0,200.0,125.0,2,3.055006980895996,None,,,,,0,0,0,0,0,36,36,71,345.2615170478821,,,,,,,,,,,,,,,,,,,,,,,,,,,,,,,,,,,,,,,,,,,,,,,,,,,,,,,,,,,,,,,,,,,,,,,,,,,,,,,,,141.0,141.0,125.0,200.0,200.0,125.0,4.0,4.1,-266,-276,0,6,258,-290,345.2467966079712,345.2468378543854,345.2496917247772,345.2615170478821,345.4115390777588,345.4115390777588,345.4115390777588,345.4115390777588,345.4115390777588,345.4115390777588,345.4115390777588,348.3294107913971,2,3.055006980895996,None,,,,,,,,,,,,,,,,,,212,3,2025-03-07_10h51.12.347,comp,2024.2.4,60.045066325376574,2025-03-07 10h51.19.953562 -0500,
37,37,0,filler_square,None,None,None,None,None,None,None,None,None,None,2,2.036201000213623,None,,,,,0,0,0,0,0,37,37,177,348.3444926738739,,,,,,,,,,,,,,,,,,,,,,,,,,,,,,,,,,,,,,,,,,,,,,,,,,,,,,,,,,,,,,,,,,,,,,,,,,,,,,,,,73.02673365721586,109.30120185273319,111.10176022481002,111.10176022481002,89.07741985887881,89.52991293522986,4.0,4.1,-206,-254,0,-13,196,-283,348.3303737640381,348.33041429519653,348.33273911476135,348.3444926738739,348.4945979118347,348.4945979118347,348.4945979118347,348.4945979118347,348.4945979118347,348.4945979118347,348.4945979118347,350.3957631587982,2,2.036201000213623,None,,,,,,,,,,,,,,,,,,212,3,2025-03-07_10h51.12.347,comp,2024.2.4,60.045066325376574,2025-03-07 10h51.19.953562 -0500,
38,38,0,critical,hwd,35.0,3.0,upper,200.0,125.0,125.0,200.0,127.0,127.0,2,2.1462886333465576,None,,,,,0,0,0,0,0,38,38,99,350.4111156463623,,,,,,,,,,,,,,,,,,,,,,,,,,,,,,,,,,,,,,,,,,,,,,,,,,,,,,,,,,,,,,,,,,,,,,,,,,,,,,,,,200.0,125.0,125.0,200.0,127.0,127.0,3.0,3.1,-258,280,0,-3,260,-282,350.39654183387756,350.3965835571289,350.3990375995636,350.4111156463623,350.5614969730377,350.5614969730377,350.5614969730377,350.5614969730377,350.5614969730377,350.5614969730377,350.5614969730377,352.5626609325409,2,2.1462886333465576,None,,,,,,,,,,,,,,,,,,212,3,2025-03-07_10h51.12.347,comp,2024.2.4,60.045066325376574,2025-03-07 10h51.19.953562 -0500,
39,39,0,critical,whd,35.0,4.0,upper,125.0,200.0,200.0,125.0,127.0,127.0,1,2.4024298191070557,None,,,,,0,0,0,0,0,39,39,89,352.57805466651917,,,,,,,,,,,,,,,,,,,,,,,,,,,,,,,,,,,,,,,,,,,,,,,,,,,,,,,,,,,,,,,,,,,,,,,,,,,,,,,,,125.0,200.0,200.0,125.0,127.0,127.0,4.0,4.1,-258,-255,0,12,222,-280,352.56347703933716,352.56353211402893,352.5659809112549,352.57805466651917,352.7281575202942,352.7281575202942,352.7281575202942,352.7281575202942,352.7281575202942,352.7281575202942,352.7281575202942,354.9958460330963,1,2.4024298191070557,None,,,,,,,,,,,,,,,,,,212,3,2025-03-07_10h51.12.347,comp,2024.2.4,60.045066325376574,2025-03-07 10h51.19.953562 -0500,
40,40,0,critical,whd,35.0,3.0,upper,125.0,200.0,200.0,125.0,127.0,127.0,1,13.426156044006348,None,,,,,0,0,0,0,0,40,40,87,355.0111792087555,,,,,,,,,,,,,,,,,,,,,,,,,,,,,,,,,,,,,,,,,,,,,,,,,,,,,,,,,,,,,,,,,,,,,,,,,,,,,,,,,125.0,200.0,200.0,125.0,127.0,127.0,3.0,3.2,-258,-271,0,12,222,250,354.9966444969177,354.99668526649475,354.99914717674255,355.0111792087555,355.16147351264954,355.16147351264954,355.16147351264954,355.16147351264954,355.16147351264954,355.16147351264954,355.16147351264954,368.4458291530609,1,13.426156044006348,None,,,,,,,,,,,,,,,,,,212,3,2025-03-07_10h51.12.347,comp,2024.2.4,60.045066325376574,2025-03-07 10h51.19.953562 -0500,
41,41,0,critical,whd,20.0,4.0,lower,57.0,133.0,133.0,57.0,78.0,78.0,2,11.68785047531128,None,,,,,0,0,0,0,0,41,41,94,368.46121644973755,,,,,,,,,,,,,,,,,,,,,,,,,,,,,,,,,,,,,,,,,,,,,,,,,,,,,,,,,,,,,,,,,,,,,,,,,,,,,,,,,57.0,133.0,133.0,57.0,78.0,78.0,4.0,4.1,-191,-265,0,1,164,-287,368.4466290473938,368.44667053222656,368.4491024017334,368.46121644973755,368.6111571788788,368.6111571788788,368.6111571788788,368.6111571788788,368.6111571788788,368.6111571788788,368.6111571788788,380.162264585495,2,11.68785047531128,None,,,,,,,,,,,,,,,,,,212,3,2025-03-07_10h51.12.347,comp,2024.2.4,60.045066325376574,2025-03-07 10h51.19.953562 -0500,
42,42,0,filler_random,None,None,None,None,None,None,None,None,None,None,2,2.075590133666992,None,,,,,0,0,0,0,0,42,42,165,380.177592754364,,,,,,,,,,,,,,,,,,,,,,,,,,,,,,,,,,,,,,,,,,,,,,,,,,,,,,,,,,,,,,,,,,,,,,,,,,,,,,,,,91.7937891907537,149.72387659746238,179.26628471916572,181.7681981049112,164.45314063254568,163.42810543959322,3.0,3.1,-262,288,0,-4,269,-286,380.16317987442017,380.1632218360901,380.1658251285553,380.177592754364,380.32801961898804,380.32801961898804,380.32801961898804,380.32801961898804,380.32801961898804,380.32801961898804,380.32801961898804,382.26239824295044,2,2.075590133666992,None,,,,,,,,,,,,,,,,,,212,3,2025-03-07_10h51.12.347,comp,2024.2.4,60.045066325376574,2025-03-07 10h51.19.953562 -0500,
43,43,0,critical,dhw,20.0,4.0,upper,141.0,141.0,200.0,125.0,125.0,200.0,2,12.46471381187439,None,,,,,0,0,0,0,0,43,43,59,382.27802777290344,,,,,,,,,,,,,,,,,,,,,,,,,,,,,,,,,,,,,,,,,,,,,,,,,,,,,,,,,,,,,,,,,,,,,,,,,,,,,,,,,141.0,141.0,200.0,125.0,125.0,200.0,4.0,4.2,-229,14,0,-277,258,4,382.2632005214691,382.2632415294647,382.2666006088257,382.27802777290344,382.4279749393463,382.4279749393463,382.4279749393463,382.4279749393463,382.4279749393463,382.4279749393463,382.4279749393463,394.7456908226013,2,12.46471381187439,None,,,,,,,,,,,,,,,,,,212,3,2025-03-07_10h51.12.347,comp,2024.2.4,60.045066325376574,2025-03-07 10h51.19.953562 -0500,
44,44,0,critical,wdh,20.0,2.1,upper,125.0,200.0,141.0,141.0,200.0,125.0,3,5.017942905426025,None,,,,,0,0,0,0,0,44,44,35,394.7622334957123,,,,,,,,,,,,,,,,,,,,,,,,,,,,,,,,,,,,,,,,,,,,,,,,,,,,,,,,,,,,,,,,,,,,,,,,,,,,,,,,,125.0,200.0,141.0,141.0,200.0,125.0,2.1,2.12,-266,-262,0,-266,229,252,394.74649143218994,394.7465331554413,394.74871730804443,394.7622334957123,394.9112501144409,394.9112501144409,394.9112501144409,394.9112501144409,394.9112501144409,394.9112501144409,394.9112501144409,399.79557752609253,3,5.017942905426025,None,,,,,,,,,,,,,,,,,,212,3,2025-03-07_10h51.12.347,comp,2024.2.4,60.045066325376574,2025-03-07 10h51.19.953562 -0500,
45,45,0,critical,wdh,35.0,2.1,lower,57.0,133.0,70.0,70.0,133.0,57.0,1,6.938168525695801,None,,,,,0,0,0,0,0,45,45,8,399.81082034111023,,,,,,,,,,,,,,,,,,,,,,,,,,,,,,,,,,,,,,,,,,,,,,,,,,,,,,,,,,,,,,,,,,,,,,,,,,,,,,,,,57.0,133.0,70.0,70.0,133.0,57.0,2.1,2.11,-198,254,0,273,160,-280,399.7963676452637,399.7964084148407,399.7985715866089,399.81082034111023,399.96096754074097,399.96096754074097,399.96096754074097,399.96096754074097,399.96096754074097,399.96096754074097,399.96096754074097,406.76206970214844,1,6.938168525695801,None,,,,,,,,,,,,,,,,,,212,3,2025-03-07_10h51.12.347,comp,2024.2.4,60.045066325376574,2025-03-07 10h51.19.953562 -0500,
46,46,0,critical,dwh,35.0,4.0,lower,70.0,70.0,57.0,133.0,133.0,57.0,2,3.5169003009796143,None,,,,,0,0,0,0,0,46,46,64,406.7774157524109,,,,,,,,,,,,,,,,,,,,,,,,,,,,,,,,,,,,,,,,,,,,,,,,,,,,,,,,,,,,,,,,,,,,,,,,,,,,,,,,,70.0,70.0,57.0,133.0,133.0,57.0,4.0,4.2,-198,-6,0,-275,191,-17,406.7628479003906,406.76288890838623,406.76539611816406,406.7774157524109,406.9275486469269,406.9275486469269,406.9275486469269,406.9275486469269,406.9275486469269,406.9275486469269,406.9275486469269,410.2955801486969,2,3.5169003009796143,None,,,,,,,,,,,,,,,,,,212,3,2025-03-07_10h51.12.347,comp,2024.2.4,60.045066325376574,2025-03-07 10h51.19.953562 -0500,
47,47,0,filler_random,None,None,None,None,None,None,None,None,None,None,1,17.33355402946472,None,,,,,0,0,0,0,0,47,47,145,410.3110647201538,,,,,,,,,,,,,,,,,,,,,,,,,,,,,,,,,,,,,,,,,,,,,,,,,,,,,,,,,,,,,,,,,,,,,,,,,,,,,,,,,76.07772205480835,168.43474798120536,115.72659629752489,126.1282221759513,132.42958587590147,121.38626433018717,2.1,2.11,-243,288,0,263,220,-258,410.29644870758057,410.2965030670166,410.2991178035736,410.3110647201538,410.4612293243408,410.4612293243408,410.4612293243408,410.4612293243408,410.4612293243408,410.4612293243408,410.4612293243408,427.6457691192627,1,17.33355402946472,None,,,,,,,,,,,,,,,,,,212,3,2025-03-07_10h51.12.347,comp,2024.2.4,60.045066325376574,2025-03-07 10h51.19.953562 -0500,
48,48,0,critical,dhw,20.0,1.0,upper,141.0,141.0,200.0,125.0,125.0,200.0,2,12.887741565704346,None,,,,,0,0,0,0,0,48,48,55,427.660902261734,,,,,,,,,,,,,,,,,,,,,,,,,,,,,,,,,,,,,,,,,,,,,,,,,,,,,,,,,,,,,,,,,,,,,,,,,,,,,,,,,141.0,141.0,200.0,125.0,125.0,200.0,1.0,1.1,-709,258,-480,251,-222,257,427.64657378196716,427.64661598205566,427.64904379844666,427.660902261734,427.81097745895386,427.81097745895386,427.81097745895386,427.81097745895386,427.81097745895386,427.81097745895386,427.81097745895386,440.5619990825653,2,12.887741565704346,None,,,,,,,,,,,,,,,,,,212,3,2025-03-07_10h51.12.347,comp,2024.2.4,60.045066325376574,2025-03-07 10h51.19.953562 -0500,
49,49,0,filler_square,None,None,None,None,None,None,None,None,None,None,1,2.4115219116210938,None,,,,,0,0,0,0,0,49,49,203,440.57724165916443,,,,,,,,,,,,,,,,,,,,,,,,,,,,,,,,,,,,,,,,,,,,,,,,,,,,,,,,,,,,,,,,,,,,,,,,,,,,,,,,,142.83911505887366,142.83911505887366,83.52280574450754,101.49058938041617,62.6113117796379,120.46889248037684,4.0,4.2,-218,11,0,-282,207,2,440.5629575252533,440.562997341156,440.56551861763,440.57724165916443,440.7276883125305,440.7276883125305,440.7276883125305,440.7276883125305,440.7276883125305,440.7276883125305,440.7276883125305,442.9951045513153,1,2.4115219116210938,None,,,,,,,,,,,,,,,,,,212,3,2025-03-07_10h51.12.347,comp,2024.2.4,60.045066325376574,2025-03-07 10h51.19.953562 -0500,
50,50,0,critical,hdw,35.0,2.1,upper,200.0,125.0,127.0,127.0,125.0,200.0,1,39.19377112388611,None,,,,,0,0,0,0,0,50,50,45,443.01076436042786,,,,,,,,,,,,,,,,,,,,,,,,,,,,,,,,,,,,,,,,,,,,,,,,,,,,,,,,,,,,,,,,,,,,,,,,,,,,,,,,,200.0,125.0,127.0,127.0,125.0,200.0,2.1,2.11,-222,269,0,260,260,-274,442.9959063529968,442.9959485530853,442.99874091148376,443.01076436042786,443.1608507633209,443.1608507633209,443.1608507633209,443.1608507633209,443.1608507633209,443.1608507633209,443.1608507633209,482.2116973400116,1,39.19377112388611,None,,,,,,,,,,,,,,,,,,212,3,2025-03-07_10h51.12.347,comp,2024.2.4,60.045066325376574,2025-03-07 10h51.19.953562 -0500,
51,51,0,critical,whd,35.0,2.1,lower,57.0,133.0,133.0,57.0,70.0,70.0,2,23.768608331680298,None,,,,,0,0,0,0,0,51,51,12,482.2271509170532,,,,,,,,,,,,,,,,,,,,,,,,,,,,,,,,,,,,,,,,,,,,,,,,,,,,,,,,,,,,,,,,,,,,,,,,,,,,,,,,,57.0,133.0,133.0,57.0,70.0,70.0,2.1,2.12,-191,-274,0,-282,160,275,482.21251583099365,482.21255707740784,482.2146451473236,482.2271509170532,482.3770191669464,482.3770191669464,482.3770191669464,482.3770191669464,482.3770191669464,482.3770191669464,482.3770191669464,506.0113854408264,2,23.768608331680298,None,,,,,,,,,,,,,,,,,,212,3,2025-03-07_10h51.12.347,comp,2024.2.4,60.045066325376574,2025-03-07 10h51.19.953562 -0500,
52,52,0,critical,whd,35.0,2.1,lower,57.0,133.0,133.0,57.0,70.0,70.0,1,12.136695146560669,None,,,,,0,0,0,0,0,52,52,36,506.0268020629883,,,,,,,,,,,,,,,,,,,,,,,,,,,,,,,,,,,,,,,,,,,,,,,,,,,,,,,,,,,,,,,,,,,,,,,,,,,,,,,,,57.0,133.0,133.0,57.0,70.0,70.0,2.1,2.11,-191,256,0,259,160,-255,506.01222372055054,506.01226329803467,506.01583075523376,506.0268020629883,506.17708683013916,506.17708683013916,506.17708683013916,506.17708683013916,506.17708683013916,506.17708683013916,506.17708683013916,518.1779193878174,1,12.136695146560669,None,,,,,,,,,,,,,,,,,,212,3,2025-03-07_10h51.12.347,comp,2024.2.4,60.045066325376574,2025-03-07 10h51.19.953562 -0500,
53,53,0,critical,whd,35.0,1.0,lower,57.0,133.0,133.0,57.0,70.0,70.0,1,2.1787822246551514,None,,,,,0,0,0,0,0,53,53,84,518.1933677196503,,,,,,,,,,,,,,,,,,,,,,,,,,,,,,,,,,,,,,,,,,,,,,,,,,,,,,,,,,,,,,,,,,,,,,,,,,,,,,,,,57.0,133.0,133.0,57.0,70.0,70.0,1.0,1.3,289,-287,480,-261,640,-253,518.1787474155426,518.178789138794,518.1813061237335,518.1933677196503,518.3450081348419,518.3450081348419,518.3450081348419,518.3450081348419,518.3450081348419,518.3450081348419,518.3450081348419,520.3778109550476,1,2.1787822246551514,None,,,,,,,,,,,,,,,,,,212,3,2025-03-07_10h51.12.347,comp,2024.2.4,60.045066325376574,2025-03-07 10h51.19.953562 -0500,
54,54,0,critical,wdh,20.0,2.1,lower,57.0,133.0,78.0,78.0,133.0,57.0,1,5.100047588348389,None,,,,,0,0,0,0,0,54,54,34,520.3935558795929,,,,,,,,,,,,,,,,,,,,,,,,,,,,,,,,,,,,,,,,,,,,,,,,,,,,,,,,,,,,,,,,,,,,,,,,,,,,,,,,,57.0,133.0,78.0,78.0,133.0,57.0,2.1,2.12,-202,-276,0,-266,164,283,520.3786134719849,520.3786542415619,520.3812277317047,520.3935558795929,520.5436570644379,520.5436570644379,520.5436570644379,520.5436570644379,520.5436570644379,520.5436570644379,520.5436570644379,525.511198759079,1,5.100047588348389,None,,,,,,,,,,,,,,,,,,212,3,2025-03-07_10h51.12.347,comp,2024.2.4,60.045066325376574,2025-03-07 10h51.19.953562 -0500,
55,55,0,catch,None,None,None,None,None,None,None,None,None,None,1,1.1096808910369873,None,,,,,0,0,0,0,0,55,55,126,525.5265312194824,,,,,,,,,,,,,,,,,,,,,,,,,,,,,,,,,,,,,,,,,,,,,,,,,,,,,,,,,,,,,,,,,,,,,,,,,,,,,,,,,157,168,117,73,75,115,4.0,4.2,-216,18,0,-285,190,3,525.5122270584106,525.5122666358948,525.5148475170135,525.5265312194824,525.676971912384,525.676971912384,525.676971912384,525.676971912384,525.676971912384,525.676971912384,525.676971912384,526.6445362567902,1,1.1096808910369873,None,,,,,,,,,,,,,,,,,,212,3,2025-03-07_10h51.12.347,comp,2024.2.4,60.045066325376574,2025-03-07 10h51.19.953562 -0500,
56,56,0,filler_random,None,None,None,None,None,None,None,None,None,None,2,1.9033288955688477,None,,,,,0,0,0,0,0,56,56,136,526.6601023674011,,,,,,,,,,,,,,,,,,,,,,,,,,,,,,,,,,,,,,,,,,,,,,,,,,,,,,,,,,,,,,,,,,,,,,,,,,,,,,,,,107.43786913429302,59.87218424527593,109.27671610566713,145.22886878370693,91.14596654219002,130.2323287856512,2.2,2.21,-199,-251,0,290,234,278,526.6454610824585,526.6455156803131,526.6479585170746,526.6601023674011,526.8101434707642,526.8101434707642,526.8101434707642,526.8101434707642,526.8101434707642,526.8101434707642,526.8101434707642,528.5780167579651,2,1.9033288955688477,None,,,,,,,,,,,,,,,,,,212,3,2025-03-07_10h51.12.347,comp,2024.2.4,60.045066325376574,2025-03-07 10h51.19.953562 -0500,
57,57,0,filler_square,None,None,None,None,None,None,None,None,None,None,3,1.732330322265625,None,,,,,0,0,0,0,0,57,57,174,528.5933547019958,,,,,,,,,,,,,,,,,,,,,,,,,,,,,,,,,,,,,,,,,,,,,,,,,,,,,,,,,,,,,,,,,,,,,,,,,,,,,,,,,88.91636872312394,130.1708976355167,108.73294066600847,142.434102528104,159.11074000555138,159.11074000555138,2.2,2.22,-232,263,0,-283,247,-289,528.578989982605,528.5790309906006,528.5815556049347,528.5933547019958,528.7433667182922,528.7433667182922,528.7433667182922,528.7433667182922,528.7433667182922,528.7433667182922,528.7433667182922,530.3280358314514,3,1.732330322265625,None,,,,,,,,,,,,,,,,,,212,3,2025-03-07_10h51.12.347,comp,2024.2.4,60.045066325376574,2025-03-07 10h51.19.953562 -0500,
58,58,0,filler_random,None,None,None,None,None,None,None,None,None,None,3,1.1411364078521729,None,,,,,0,0,0,0,0,58,58,130,530.3434705734253,,,,,,,,,,,,,,,,,,,,,,,,,,,,,,,,,,,,,,,,,,,,,,,,,,,,,,,,,,,,,,,,,,,,,,,,,,,,,,,,,92.08751117745243,89.14093540110966,100.65218956364524,82.72341049705767,175.31397915615509,172.2305607553265,3.0,3.2,-182,-255,0,12,223,286,530.3289530277252,530.3289952278137,530.3311636447906,530.3434705734253,530.4933543205261,530.4933543205261,530.4933543205261,530.4933543205261,530.4933543205261,530.4933543205261,530.4933543205261,531.4945032596588,3,1.1411364078521729,None,,,,,,,,,,,,,,,,,,212,3,2025-03-07_10h51.12.347,comp,2024.2.4,60.045066325376574,2025-03-07 10h51.19.953562 -0500,
59,59,0,critical,dwh,35.0,3.0,upper,127.0,127.0,125.0,200.0,200.0,125.0,2,4.27784538269043,None,,,,,0,0,0,0,0,59,59,63,531.5102005004883,,,,,,,,,,,,,,,,,,,,,,,,,,,,,,,,,,,,,,,,,,,,,,,,,,,,,,,,,,,,,,,,,,,,,,,,,,,,,,,,,127.0,127.0,125.0,200.0,200.0,125.0,3.0,3.1,-260,274,0,-10,258,-269,531.495304107666,531.4953441619873,531.4975128173828,531.5102005004883,531.6603639125824,531.6603639125824,531.6603639125824,531.6603639125824,531.6603639125824,531.6603639125824,531.6603639125824,535.7947125434875,2,4.27784538269043,None,,,,,,,,,,,,,,,,,,212,3,2025-03-07_10h51.12.347,comp,2024.2.4,60.045066325376574,2025-03-07 10h51.19.953562 -0500,
60,60,0,filler_square,None,None,None,None,None,None,None,None,None,None,2,2.3336853981018066,None,,,,,0,0,0,0,0,60,60,178,535.8102099895477,,,,,,,,,,,,,,,,,,,,,,,,,,,,,,,,,,,,,,,,,,,,,,,,,,,,,,,,,,,,,,,,,,,,,,,,,,,,,,,,,74.52923629567317,119.57998304628786,168.8937678988239,168.8937678988239,117.79634400090715,68.72949725528272,1.0,1.2,-240,-5,0,10,215,-15,535.7957193851471,535.7957627773285,535.7984268665314,535.8102099895477,535.9605150222778,535.9605150222778,535.9605150222778,535.9605150222778,535.9605150222778,535.9605150222778,535.9605150222778,538.1612813472748,2,2.3336853981018066,None,,,,,,,,,,,,,,,,,,212,3,2025-03-07_10h51.12.347,comp,2024.2.4,60.045066325376574,2025-03-07 10h51.19.953562 -0500,
61,61,0,critical,dhw,20.0,2.1,upper,141.0,141.0,200.0,125.0,125.0,200.0,2,18.811421394348145,None,,,,,0,0,0,0,0,61,61,27,538.1766979694366,,,,,,,,,,,,,,,,,,,,,,,,,,,,,,,,,,,,,,,,,,,,,,,,,,,,,,,,,,,,,,,,,,,,,,,,,,,,,,,,,141.0,141.0,200.0,125.0,125.0,200.0,2.1,2.11,-229,284,0,269,258,-269,538.1620154380798,538.1620533466339,538.1640038490295,538.1766979694366,538.3269248008728,538.3269248008728,538.3269248008728,538.3269248008728,538.3269248008728,538.3269248008728,538.3269248008728,556.9944474697113,2,18.811421394348145,None,,,,,,,,,,,,,,,,,,212,3,2025-03-07_10h51.12.347,comp,2024.2.4,60.045066325376574,2025-03-07 10h51.19.953562 -0500,
62,62,0,filler_square,None,None,None,None,None,None,None,None,None,None,2,2.137770175933838,None,,,,,0,0,0,0,0,62,62,181,557.0100736618042,,,,,,,,,,,,,,,,,,,,,,,,,,,,,,,,,,,,,,,,,,,,,,,,,,,,,,,,,,,,,,,,,,,,,,,,,,,,,,,,,78.6780500204806,89.30353568671285,90.38587161563797,90.38587161563797,62.40978781716406,59.17316485125748,2.1,2.12,-186,-274,0,-286,171,253,556.995406627655,556.9954490661621,556.9976003170013,557.0100736618042,557.1597456932068,557.1597456932068,557.1597456932068,557.1597456932068,557.1597456932068,557.1597456932068,557.1597456932068,559.160929441452,2,2.137770175933838,None,,,,,,,,,,,,,,,,,,212,3,2025-03-07_10h51.12.347,comp,2024.2.4,60.045066325376574,2025-03-07 10h51.19.953562 -0500,
63,63,0,critical,hwd,20.0,3.0,lower,133.0,57.0,57.0,133.0,78.0,78.0,2,12.986772298812866,None,,,,,0,0,0,0,0,63,63,104,559.1763164997101,,,,,,,,,,,,,,,,,,,,,,,,,,,,,,,,,,,,,,,,,,,,,,,,,,,,,,,,,,,,,,,,,,,,,,,,,,,,,,,,,133.0,57.0,57.0,133.0,78.0,78.0,3.0,3.2,-191,-275,0,16,202,266,559.1618511676788,559.1618912220001,559.1644403934479,559.1763164997101,559.3265419006348,559.3265419006348,559.3265419006348,559.3265419006348,559.3265419006348,559.3265419006348,559.3265419006348,572.1774654388428,2,12.986772298812866,None,,,,,,,,,,,,,,,,,,212,3,2025-03-07_10h51.12.347,comp,2024.2.4,60.045066325376574,2025-03-07 10h51.19.953562 -0500,
64,64,0,catch,None,None,None,None,None,None,None,None,None,None,1,1.227081537246704,None,,,,,0,0,0,0,0,64,64,120,572.1929407119751,,,,,,,,,,,,,,,,,,,,,,,,,,,,,,,,,,,,,,,,,,,,,,,,,,,,,,,,,,,,,,,,,,,,,,,,,,,,,,,,,137,188,92,98,104,86,1.0,1.1,-719,265,-480,263,-292,272,572.1785242557526,572.178564786911,572.1809952259064,572.1929407119751,572.3432087898254,572.3432087898254,572.3432087898254,572.3432087898254,572.3432087898254,572.3432087898254,572.3432087898254,573.4275348186493,1,1.227081537246704,None,,,,,,,,,,,,,,,,,,212,3,2025-03-07_10h51.12.347,comp,2024.2.4,60.045066325376574,2025-03-07 10h51.19.953562 -0500,
65,65,0,critical,hdw,20.0,3.0,upper,200.0,125.0,141.0,141.0,125.0,200.0,1,7.498311281204224,None,,,,,0,0,0,0,0,65,65,117,573.443235874176,,,,,,,,,,,,,,,,,,,,,,,,,,,,,,,,,,,,,,,,,,,,,,,,,,,,,,,,,,,,,,,,,,,,,,,,,,,,,,,,,200.0,125.0,141.0,141.0,125.0,200.0,3.0,3.2,-229,-279,0,8,266,251,573.4283275604248,573.4283702373505,573.4307765960693,573.443235874176,573.5934147834778,573.5934147834778,573.5934147834778,573.5934147834778,573.5934147834778,573.5934147834778,573.5934147834778,580.944521188736,1,7.498311281204224,None,,,,,,,,,,,,,,,,,,212,3,2025-03-07_10h51.12.347,comp,2024.2.4,60.045066325376574,2025-03-07 10h51.19.953562 -0500,
66,66,0,critical,hdw,20.0,4.0,upper,200.0,125.0,141.0,141.0,125.0,200.0,1,15.516889333724976,None,,,,,0,0,0,0,0,66,66,119,580.9598009586334,,,,,,,,,,,,,,,,,,,,,,,,,,,,,,,,,,,,,,,,,,,,,,,,,,,,,,,,,,,,,,,,,,,,,,,,,,,,,,,,,200.0,125.0,141.0,141.0,125.0,200.0,4.0,4.2,-229,16,0,-260,266,-3,580.9452846050262,580.9453270435333,580.947509765625,580.9598009586334,581.1098742485046,581.1098742485046,581.1098742485046,581.1098742485046,581.1098742485046,581.1098742485046,581.1098742485046,596.4942996501923,1,15.516889333724976,None,,,,,,,,,,,,,,,,,,212,3,2025-03-07_10h51.12.347,comp,2024.2.4,60.045066325376574,2025-03-07 10h51.19.953562 -0500,
67,67,0,filler_random,None,None,None,None,None,None,None,None,None,None,2,2.238056182861328,None,,,,,0,0,0,0,0,67,67,155,596.5095481872559,,,,,,,,,,,,,,,,,,,,,,,,,,,,,,,,,,,,,,,,,,,,,,,,,,,,,,,,,,,,,,,,,,,,,,,,,,,,,,,,,94.21441615320761,150.41550048272086,182.84862024732465,152.62197011987053,163.71182574802594,58.11468741561408,3.0,3.2,-248,-269,0,14,201,270,596.4951803684235,596.4952208995819,596.4977819919586,596.5095481872559,596.659637928009,596.659637928009,596.659637928009,596.659637928009,596.659637928009,596.659637928009,596.659637928009,598.7608225345612,2,2.238056182861328,None,,,,,,,,,,,,,,,,,,212,3,2025-03-07_10h51.12.347,comp,2024.2.4,60.045066325376574,2025-03-07 10h51.19.953562 -0500,
68,68,0,critical,wdh,35.0,1.0,lower,57.0,133.0,70.0,70.0,133.0,57.0,1,7.971578121185303,None,,,,,0,0,0,0,0,68,68,72,598.7760078907013,,,,,,,,,,,,,,,,,,,,,,,,,,,,,,,,,,,,,,,,,,,,,,,,,,,,,,,,,,,,,,,,,,,,,,,,,,,,,,,,,57.0,133.0,70.0,70.0,133.0,57.0,1.0,1.1,-678,277,-480,269,-320,287,598.7616167068481,598.7616579532623,598.764182806015,598.7760078907013,598.9262306690216,598.9262306690216,598.9262306690216,598.9262306690216,598.9262306690216,598.9262306690216,598.9262306690216,606.7607705593109,1,7.971578121185303,None,,,,,,,,,,,,,,,,,,212,3,2025-03-07_10h51.12.347,comp,2024.2.4,60.045066325376574,2025-03-07 10h51.19.953562 -0500,
69,69,0,critical,dhw,35.0,3.0,lower,70.0,70.0,133.0,57.0,57.0,133.0,3,2.875547409057617,None,,,,,0,0,0,0,0,69,69,50,606.776077747345,,,,,,,,,,,,,,,,,,,,,,,,,,,,,,,,,,,,,,,,,,,,,,,,,,,,,,,,,,,,,,,,,,,,,,,,,,,,,,,,,70.0,70.0,133.0,57.0,57.0,133.0,3.0,3.1,-160,254,0,-14,191,-288,606.7615611553192,606.7616007328033,606.7640397548676,606.776077747345,606.9261519908905,606.9261519908905,606.9261519908905,606.9261519908905,606.9261519908905,606.9261519908905,606.9261519908905,609.6604950428009,3,2.875547409057617,None,,,,,,,,,,,,,,,,,,212,3,2025-03-07_10h51.12.347,comp,2024.2.4,60.045066325376574,2025-03-07 10h51.19.953562 -0500,
70,70,0,critical,wdh,35.0,2.1,upper,125.0,200.0,127.0,127.0,200.0,125.0,3,3.471283435821533,None,,,,,0,0,0,0,0,70,70,33,609.6762065887451,,,,,,,,,,,,,,,,,,,,,,,,,,,,,,,,,,,,,,,,,,,,,,,,,,,,,,,,,,,,,,,,,,,,,,,,,,,,,,,,,125.0,200.0,127.0,127.0,200.0,125.0,2.1,2.12,-260,-262,0,-271,222,253,609.6612989902496,609.6613414287567,609.6637246608734,609.6762065887451,609.8265535831451,609.8265535831451,609.8265535831451,609.8265535831451,609.8265535831451,609.8265535831451,609.8265535831451,613.1608626842499,3,3.471283435821533,None,,,,,,,,,,,,,,,,,,212,3,2025-03-07_10h51.12.347,comp,2024.2.4,60.045066325376574,2025-03-07 10h51.19.953562 -0500,
71,71,0,critical,hdw,35.0,4.0,lower,133.0,57.0,70.0,70.0,57.0,133.0,3,7.338541507720947,None,,,,,0,0,0,0,0,71,71,112,613.17604637146,,,,,,,,,,,,,,,,,,,,,,,,,,,,,,,,,,,,,,,,,,,,,,,,,,,,,,,,,,,,,,,,,,,,,,,,,,,,,,,,,133.0,57.0,70.0,70.0,57.0,133.0,4.0,4.1,-160,-288,0,2,198,-256,613.1616513729095,613.1616909503937,613.1641068458557,613.17604637146,613.3261592388153,613.3261592388153,613.3261592388153,613.3261592388153,613.3261592388153,613.3261592388153,613.3261592388153,620.5272891521454,3,7.338541507720947,None,,,,,,,,,,,,,,,,,,212,3,2025-03-07_10h51.12.347,comp,2024.2.4,60.045066325376574,2025-03-07 10h51.19.953562 -0500,
72,72,0,critical,hwd,35.0,2.1,lower,133.0,57.0,57.0,133.0,70.0,70.0,2,2.0520341396331787,None,,,,,0,0,0,0,0,72,72,16,620.5427012443542,,,,,,,,,,,,,,,,,,,,,,,,,,,,,,,,,,,,,,,,,,,,,,,,,,,,,,,,,,,,,,,,,,,,,,,,,,,,,,,,,133.0,57.0,57.0,133.0,70.0,70.0,2.1,2.11,-191,271,0,252,198,-266,620.5280945301056,620.5281345844269,620.5308156013489,620.5427012443542,620.692761182785,620.692761182785,620.692761182785,620.692761182785,620.692761182785,620.692761182785,620.692761182785,622.6104116439819,2,2.0520341396331787,None,,,,,,,,,,,,,,,,,,212,3,2025-03-07_10h51.12.347,comp,2024.2.4,60.045066325376574,2025-03-07 10h51.19.953562 -0500,
73,73,0,filler_random,None,None,None,None,None,None,None,None,None,None,2,24.000643730163574,None,,,,,0,0,0,0,0,73,73,153,622.6258771419525,,,,,,,,,,,,,,,,,,,,,,,,,,,,,,,,,,,,,,,,,,,,,,,,,,,,,,,,,,,,,,,,,,,,,,,,,,,,,,,,,189.98267001697957,77.21027724422834,102.2378542320619,146.70592215937887,122.13513805863843,68.46406033038627,3.0,3.1,-208,253,0,-10,204,-260,622.6113500595093,622.611391544342,622.6138119697571,622.6258771419525,622.7760772705078,622.7760772705078,622.7760772705078,622.7760772705078,622.7760772705078,622.7760772705078,622.7760772705078,646.6436884403229,2,24.000643730163574,None,,,,,,,,,,,,,,,,,,212,3,2025-03-07_10h51.12.347,comp,2024.2.4,60.045066325376574,2025-03-07 10h51.19.953562 -0500,
74,74,0,filler_square,None,None,None,None,None,None,None,None,None,None,3,1.5513885021209717,None,,,,,0,0,0,0,0,74,74,179,646.6591131687164,,,,,,,,,,,,,,,,,,,,,,,,,,,,,,,,,,,,,,,,,,,,,,,,,,,,,,,,,,,,,,,,,,,,,,,,,,,,,,,,,95.72714367869122,140.86797160184037,58.71522438254011,113.47201801271606,164.06964067978492,164.06964067978492,2.1,2.12,-223,-267,0,-256,235,279,646.6446104049683,646.6446495056152,646.647022485733,646.6591131687164,646.8093440532684,646.8093440532684,646.8093440532684,646.8093440532684,646.8093440532684,646.8093440532684,646.8093440532684,648.2270181179047,3,1.5513885021209717,None,,,,,,,,,,,,,,,,,,212,3,2025-03-07_10h51.12.347,comp,2024.2.4,60.045066325376574,2025-03-07 10h51.19.953562 -0500,
75,75,0,critical,whd,35.0,1.0,upper,125.0,200.0,200.0,125.0,127.0,127.0,1,2.3681211471557617,None,,,,,0,0,0,0,0,75,75,85,648.2423603534698,,,,,,,,,,,,,,,,,,,,,,,,,,,,,,,,,,,,,,,,,,,,,,,,,,,,,,,,,,,,,,,,,,,,,,,,,,,,,,,,,125.0,200.0,200.0,125.0,127.0,127.0,1.0,1.3,222,-261,480,-250,702,-281,648.2278180122375,648.2278590202332,648.2303686141968,648.2423603534698,648.3926765918732,648.3926765918732,648.3926765918732,648.3926765918732,648.3926765918732,648.3926765918732,648.3926765918732,650.6271710395813,1,2.3681211471557617,None,,,,,,,,,,,,,,,,,,212,3,2025-03-07_10h51.12.347,comp,2024.2.4,60.045066325376574,2025-03-07 10h51.19.953562 -0500,
76,76,0,filler_square,None,None,None,None,None,None,None,None,None,None,3,1.816765308380127,None,,,,,0,0,0,0,0,76,76,172,650.6425983905792,,,,,,,,,,,,,,,,,,,,,,,,,,,,,,,,,,,,,,,,,,,,,,,,,,,,,,,,,,,,,,,,,,,,,,,,,,,,,,,,,71.74729141348666,100.1091708119128,90.6434316148623,57.97750581327572,107.61518425254437,107.61518425254437,4.0,4.1,-175,-252,0,8,179,-262,650.6281259059906,650.6281690597534,650.6316640377045,650.6425983905792,650.792462348938,650.792462348938,650.792462348938,650.792462348938,650.792462348938,650.792462348938,650.792462348938,652.4768989086151,3,1.816765308380127,None,,,,,,,,,,,,,,,,,,212,3,2025-03-07_10h51.12.347,comp,2024.2.4,60.045066325376574,2025-03-07 10h51.19.953562 -0500,
77,77,0,catch,None,None,None,None,None,None,None,None,None,None,3,1.2059199810028076,None,,,,,0,0,0,0,0,77,77,124,652.4924066066742,,,,,,,,,,,,,,,,,,,,,,,,,,,,,,,,,,,,,,,,,,,,,,,,,,,,,,,,,,,,,,,,,,,,,,,,,,,,,,,,,79,111,76,114,166,159,2.2,2.22,-208,251,0,-273,232,-253,652.4779934883118,652.4780356884003,652.4805805683136,652.4924066066742,652.6426453590393,652.6426453590393,652.6426453590393,652.6426453590393,652.6426453590393,652.6426453590393,652.6426453590393,653.7106955051422,3,1.2059199810028076,None,,,,,,,,,,,,,,,,,,212,3,2025-03-07_10h51.12.347,comp,2024.2.4,60.045066325376574,2025-03-07 10h51.19.953562 -0500,
78,78,0,critical,dhw,35.0,3.0,upper,127.0,127.0,200.0,125.0,125.0,200.0,2,4.957426309585571,None,,,,,0,0,0,0,0,78,78,51,653.7257595062256,,,,,,,,,,,,,,,,,,,,,,,,,,,,,,,,,,,,,,,,,,,,,,,,,,,,,,,,,,,,,,,,,,,,,,,,,,,,,,,,,127.0,127.0,200.0,125.0,125.0,200.0,3.0,3.2,-222,-255,0,-6,258,273,653.7115066051483,653.7115480899811,653.7137041091919,653.7257595062256,653.8760588169098,653.8760588169098,653.8760588169098,653.8760588169098,653.8760588169098,653.8760588169098,653.8760588169098,658.6937870979309,2,4.957426309585571,None,,,,,,,,,,,,,,,,,,212,3,2025-03-07_10h51.12.347,comp,2024.2.4,60.045066325376574,2025-03-07 10h51.19.953562 -0500,
79,79,0,critical,hdw,20.0,1.0,lower,133.0,57.0,78.0,78.0,57.0,133.0,3,4.846275091171265,None,,,,,0,0,0,0,0,79,79,114,658.7093522548676,,,,,,,,,,,,,,,,,,,,,,,,,,,,,,,,,,,,,,,,,,,,,,,,,,,,,,,,,,,,,,,,,,,,,,,,,,,,,,,,,133.0,57.0,78.0,78.0,57.0,133.0,1.0,1.1,-644,258,-480,280,-278,287,658.6945908069611,658.6946313381195,658.6970763206482,658.7093522548676,658.8594441413879,658.8594441413879,658.8594441413879,658.8594441413879,658.8594441413879,658.8594441413879,658.8594441413879,663.560271024704,3,4.846275091171265,None,,,,,,,,,,,,,,,,,,212,3,2025-03-07_10h51.12.347,comp,2024.2.4,60.045066325376574,2025-03-07 10h51.19.953562 -0500,
80,80,0,critical,dwh,20.0,3.0,lower,78.0,78.0,57.0,133.0,133.0,57.0,2,2.348818063735962,None,,,,,0,0,0,0,0,80,80,68,663.5758469104767,,,,,,,,,,,,,,,,,,,,,,,,,,,,,,,,,,,,,,,,,,,,,,,,,,,,,,,,,,,,,,,,,,,,,,,,,,,,,,,,,78.0,78.0,57.0,133.0,133.0,57.0,3.0,3.2,-202,-284,0,9,191,272,663.5610752105713,663.5611157417297,663.5634019374847,663.5758469104767,663.7256662845612,663.7256662845612,663.7256662845612,663.7256662845612,663.7256662845612,663.7256662845612,663.7256662845612,665.9269332885742,2,2.348818063735962,None,,,,,,,,,,,,,,,,,,212,3,2025-03-07_10h51.12.347,comp,2024.2.4,60.045066325376574,2025-03-07 10h51.19.953562 -0500,
81,81,0,filler_square,None,None,None,None,None,None,None,None,None,None,1,1.6925787925720215,None,,,,,0,0,0,0,0,81,81,180,665.9425828456879,,,,,,,,,,,,,,,,,,,,,,,,,,,,,,,,,,,,,,,,,,,,,,,,,,,,,,,,,,,,,,,,,,,,,,,,,,,,,,,,,129.338786599025,129.338786599025,104.295887514346,115.08230294608654,116.7421635226381,84.11348621113572,3.0,3.1,-218,264,0,13,196,-286,665.9280161857605,665.9280579090118,665.9306261539459,665.9425828456879,666.092547416687,666.092547416687,666.092547416687,666.092547416687,666.092547416687,666.092547416687,666.092547416687,667.6434690952301,1,1.6925787925720215,None,,,,,,,,,,,,,,,,,,212,3,2025-03-07_10h51.12.347,comp,2024.2.4,60.045066325376574,2025-03-07 10h51.19.953562 -0500,
82,82,0,critical,hwd,20.0,2.1,upper,200.0,125.0,125.0,200.0,141.0,141.0,2,8.408178329467773,None,,,,,0,0,0,0,0,82,82,19,667.6591901779175,,,,,,,,,,,,,,,,,,,,,,,,,,,,,,,,,,,,,,,,,,,,,,,,,,,,,,,,,,,,,,,,,,,,,,,,,,,,,,,,,200.0,125.0,125.0,200.0,141.0,141.0,2.1,2.11,-258,252,0,288,266,-289,667.6443059444427,667.644345998764,667.6467754840851,667.6591901779175,667.8093576431274,667.8093576431274,667.8093576431274,667.8093576431274,667.8093576431274,667.8093576431274,667.8093576431274,676.0770919322968,2,8.408178329467773,None,,,,,,,,,,,,,,,,,,212,3,2025-03-07_10h51.12.347,comp,2024.2.4,60.045066325376574,2025-03-07 10h51.19.953562 -0500,
83,83,0,filler_random,None,None,None,None,None,None,None,None,None,None,3,1.605607271194458,None,,,,,0,0,0,0,0,83,83,162,676.0926282405853,,,,,,,,,,,,,,,,,,,,,,,,,,,,,,,,,,,,,,,,,,,,,,,,,,,,,,,,,,,,,,,,,,,,,,,,,,,,,,,,,63.919500121254586,184.52375184911105,119.68800006889865,121.75991016672097,186.99106883937364,170.2781232137547,3.0,3.1,-249,287,0,-16,242,-267,676.0780208110809,676.0780644416809,676.0806059837341,676.0926282405853,676.2425844669342,676.2425844669342,676.2425844669342,676.2425844669342,676.2425844669342,676.2425844669342,676.2425844669342,677.710691690445,3,1.605607271194458,None,,,,,,,,,,,,,,,,,,212,3,2025-03-07_10h51.12.347,comp,2024.2.4,60.045066325376574,2025-03-07 10h51.19.953562 -0500,
84,84,0,critical,dwh,20.0,2.1,lower,78.0,78.0,57.0,133.0,133.0,57.0,2,6.615024566650391,None,,,,,0,0,0,0,0,84,84,30,677.7256014347076,,,,,,,,,,,,,,,,,,,,,,,,,,,,,,,,,,,,,,,,,,,,,,,,,,,,,,,,,,,,,,,,,,,,,,,,,,,,,,,,,78.0,78.0,57.0,133.0,133.0,57.0,2.1,2.12,-202,-273,0,-252,191,266,677.7114782333374,677.711531162262,677.7137022018433,677.7256014347076,677.8756682872772,677.8756682872772,677.8756682872772,677.8756682872772,677.8756682872772,677.8756682872772,677.8756682872772,684.343729019165,2,6.615024566650391,None,,,,,,,,,,,,,,,,,,212,3,2025-03-07_10h51.12.347,comp,2024.2.4,60.045066325376574,2025-03-07 10h51.19.953562 -0500,
85,85,0,critical,dwh,20.0,2.1,lower,78.0,78.0,57.0,133.0,133.0,57.0,2,1.955028772354126,None,,,,,0,0,0,0,0,85,85,6,684.359121799469,,,,,,,,,,,,,,,,,,,,,,,,,,,,,,,,,,,,,,,,,,,,,,,,,,,,,,,,,,,,,,,,,,,,,,,,,,,,,,,,,78.0,78.0,57.0,133.0,133.0,57.0,2.1,2.12,-202,-281,0,-282,191,273,684.3445191383362,684.3445596694946,684.3467071056366,684.359121799469,684.5091989040375,684.5091989040375,684.5091989040375,684.5091989040375,684.5091989040375,684.5091989040375,684.5091989040375,686.3268024921417,2,1.955028772354126,None,,,,,,,,,,,,,,,,,,212,3,2025-03-07_10h51.12.347,comp,2024.2.4,60.045066325376574,2025-03-07 10h51.19.953562 -0500,
86,86,0,critical,hdw,35.0,2.1,lower,133.0,57.0,70.0,70.0,57.0,133.0,3,2.3664803504943848,None,,,,,0,0,0,0,0,86,86,20,686.3421483039856,,,,,,,,,,,,,,,,,,,,,,,,,,,,,,,,,,,,,,,,,,,,,,,,,,,,,,,,,,,,,,,,,,,,,,,,,,,,,,,,,133.0,57.0,70.0,70.0,57.0,133.0,2.1,2.12,-160,-255,0,-274,198,264,686.3275966644287,686.32763671875,686.3300774097443,686.3421483039856,686.4922411441803,686.4922411441803,686.4922411441803,686.4922411441803,686.4922411441803,686.4922411441803,686.4922411441803,688.7101492881775,3,2.3664803504943848,None,,,,,,,,,,,,,,,,,,212,3,2025-03-07_10h51.12.347,comp,2024.2.4,60.045066325376574,2025-03-07 10h51.19.953562 -0500,
87,87,0,filler_square,None,None,None,None,None,None,None,None,None,None,3,1.2610642910003662,None,,,,,0,0,0,0,0,87,87,205,688.7258367538452,,,,,,,,,,,,,,,,,,,,,,,,,,,,,,,,,,,,,,,,,,,,,,,,,,,,,,,,,,,,,,,,,,,,,,,,,,,,,,,,,79.0415657151643,172.66925578328963,135.58051613382935,75.28650658103611,185.0142212258119,185.0142212258119,2.1,2.12,-220,-277,0,-279,226,261,688.711088180542,688.7111303806305,688.713723897934,688.7258367538452,688.8756666183472,688.8756666183472,688.8756666183472,688.8756666183472,688.8756666183472,688.8756666183472,688.8756666183472,689.993513584137,3,1.2610642910003662,None,,,,,,,,,,,,,,,,,,212,3,2025-03-07_10h51.12.347,comp,2024.2.4,60.045066325376574,2025-03-07 10h51.19.953562 -0500,
88,88,0,critical,hdw,20.0,2.1,lower,133.0,57.0,78.0,78.0,57.0,133.0,1,3.8668642044067383,None,,,,,0,0,0,0,0,88,88,46,690.00896525383,,,,,,,,,,,,,,,,,,,,,,,,,,,,,,,,,,,,,,,,,,,,,,,,,,,,,,,,,,,,,,,,,,,,,,,,,,,,,,,,,133.0,57.0,78.0,78.0,57.0,133.0,2.1,2.12,-164,-252,0,-278,202,287,689.9942562580109,689.9942951202393,689.9963157176971,690.00896525383,690.1590447425842,690.1590447425842,690.1590447425842,690.1590447425842,690.1590447425842,690.1590447425842,690.1590447425842,693.8933298587799,1,3.8668642044067383,None,,,,,,,,,,,,,,,,,,212,3,2025-03-07_10h51.12.347,comp,2024.2.4,60.045066325376574,2025-03-07 10h51.19.953562 -0500,
89,89,0,critical,wdh,20.0,1.0,lower,57.0,133.0,78.0,78.0,133.0,57.0,1,3.8694605827331543,None,,,,,0,0,0,0,0,89,89,78,693.908739566803,,,,,,,,,,,,,,,,,,,,,,,,,,,,,,,,,,,,,,,,,,,,,,,,,,,,,,,,,,,,,,,,,,,,,,,,,,,,,,,,,57.0,133.0,78.0,78.0,133.0,57.0,1.0,1.1,-682,275,-480,253,-316,251,693.8941192626953,693.8941586017609,693.896754026413,693.908739566803,694.0588715076447,694.0588715076447,694.0588715076447,694.0588715076447,694.0588715076447,694.0588715076447,694.0588715076447,697.7934081554413,1,3.8694605827331543,None,,,,,,,,,,,,,,,,,,212,3,2025-03-07_10h51.12.347,comp,2024.2.4,60.045066325376574,2025-03-07 10h51.19.953562 -0500,
90,90,0,filler_random,None,None,None,None,None,None,None,None,None,None,2,1.5052497386932373,None,,,,,0,0,0,0,0,90,90,149,697.8087406158447,,,,,,,,,,,,,,,,,,,,,,,,,,,,,,,,,,,,,,,,,,,,,,,,,,,,,,,,,,,,,,,,,,,,,,,,,,,,,,,,,60.045944282564705,77.26163706558233,86.09221215614352,143.53134423593093,74.11768639332503,89.78296081015094,3.0,3.1,-206,258,0,13,213,-279,697.7943017482758,697.794341802597,697.7969787120819,697.8087406158447,697.9589340686798,697.9589340686798,697.9589340686798,697.9589340686798,697.9589340686798,697.9589340686798,697.9589340686798,699.3267197608948,2,1.5052497386932373,None,,,,,,,,,,,,,,,,,,212,3,2025-03-07_10h51.12.347,comp,2024.2.4,60.045066325376574,2025-03-07 10h51.19.953562 -0500,
91,91,0,critical,whd,20.0,1.0,lower,57.0,133.0,133.0,57.0,78.0,78.0,1,4.117061138153076,None,,,,,0,0,0,0,0,91,91,90,699.3586695194244,,,,,,,,,,,,,,,,,,,,,,,,,,,,,,,,,,,,,,,,,,,,,,,,,,,,,,,,,,,,,,,,,,,,,,,,,,,,,,,,,57.0,133.0,133.0,57.0,78.0,78.0,1.0,1.2,-191,7,0,-15,164,17,699.3274598121643,699.327513217926,699.3298528194427,699.3586695194244,699.4921441078186,699.4921441078186,699.4921441078186,699.4921441078186,699.4921441078186,699.4921441078186,699.4921441078186,703.493465423584,1,4.117061138153076,None,,,,,,,,,,,,,,,,,,212,3,2025-03-07_10h51.12.347,comp,2024.2.4,60.045066325376574,2025-03-07 10h51.19.953562 -0500,
92,92,0,critical,dhw,20.0,4.0,lower,78.0,78.0,133.0,57.0,57.0,133.0,3,3.3835818767547607,None,,,,,0,0,0,0,0,92,92,58,703.5087313652039,,,,,,,,,,,,,,,,,,,,,,,,,,,,,,,,,,,,,,,,,,,,,,,,,,,,,,,,,,,,,,,,,,,,,,,,,,,,,,,,,78.0,78.0,133.0,57.0,57.0,133.0,4.0,4.1,-164,-274,0,0,191,-252,703.4942762851715,703.4943170547485,703.4965283870697,703.5087313652039,703.6588776111603,703.6588776111603,703.6588776111603,703.6588776111603,703.6588776111603,703.6588776111603,703.6588776111603,706.9099774360657,3,3.3835818767547607,None,,,,,,,,,,,,,,,,,,212,3,2025-03-07_10h51.12.347,comp,2024.2.4,60.045066325376574,2025-03-07 10h51.19.953562 -0500,
93,93,0,critical,dhw,35.0,2.1,upper,127.0,127.0,200.0,125.0,125.0,200.0,2,2.4847278594970703,None,,,,,0,0,0,0,0,93,93,25,706.9253811836243,,,,,,,,,,,,,,,,,,,,,,,,,,,,,,,,,,,,,,,,,,,,,,,,,,,,,,,,,,,,,,,,,,,,,,,,,,,,,,,,,127.0,127.0,200.0,125.0,125.0,200.0,2.1,2.12,-222,-283,0,-280,258,283,706.9107863903046,706.9108264446259,706.9133672714233,706.9253811836243,707.0755825042725,707.0755825042725,707.0755825042725,707.0755825042725,707.0755825042725,707.0755825042725,707.0755825042725,709.4269177913666,2,2.4847278594970703,None,,,,,,,,,,,,,,,,,,212,3,2025-03-07_10h51.12.347,comp,2024.2.4,60.045066325376574,2025-03-07 10h51.19.953562 -0500,
94,94,0,critical,whd,35.0,2.1,upper,125.0,200.0,200.0,125.0,127.0,127.0,1,1.6559197902679443,None,,,,,0,0,0,0,0,94,94,37,709.4419746398926,,,,,,,,,,,,,,,,,,,,,,,,,,,,,,,,,,,,,,,,,,,,,,,,,,,,,,,,,,,,,,,,,,,,,,,,,,,,,,,,,125.0,200.0,200.0,125.0,127.0,127.0,2.1,2.11,-258,277,0,250,222,-280,709.427731513977,709.4277713298798,709.4302067756653,709.4419746398926,709.5922992229462,709.5922992229462,709.5922992229462,709.5922992229462,709.5922992229462,709.5922992229462,709.5922992229462,711.1102411746979,1,1.6559197902679443,None,,,,,,,,,,,,,,,,,,212,3,2025-03-07_10h51.12.347,comp,2024.2.4,60.045066325376574,2025-03-07 10h51.19.953562 -0500,
95,95,0,filler_random,None,None,None,None,None,None,None,None,None,None,2,10.604672908782959,None,,,,,0,0,0,0,0,95,95,142,711.1253552436829,,,,,,,,,,,,,,,,,,,,,,,,,,,,,,,,,,,,,,,,,,,,,,,,,,,,,,,,,,,,,,,,,,,,,,,,,,,,,,,,,90.082312887591,113.32348211421913,175.26359181360627,79.13331941309863,118.28102517966082,91.31388284801847,2.2,2.22,-192,284,0,-282,181,-265,711.111145734787,711.1111876964569,711.1137745380402,711.1253552436829,711.2757909297943,711.2757909297943,711.2757909297943,711.2757909297943,711.2757909297943,711.2757909297943,711.2757909297943,721.7433187961578,2,10.604672908782959,None,,,,,,,,,,,,,,,,,,212,3,2025-03-07_10h51.12.347,comp,2024.2.4,60.045066325376574,2025-03-07 10h51.19.953562 -0500,
96,96,0,catch,None,None,None,None,None,None,None,None,None,None,2,1.4762375354766846,None,,,,,0,0,0,0,0,96,96,125,721.7585830688477,,,,,,,,,,,,,,,,,,,,,,,,,,,,,,,,,,,,,,,,,,,,,,,,,,,,,,,,,,,,,,,,,,,,,,,,,,,,,,,,,117,73,165,160,107,83,1.0,1.1,-692,271,-480,278,-262,262,721.7443709373474,721.7444140911102,721.7467770576477,721.7585830688477,721.9089243412018,721.9089243412018,721.9089243412018,721.9089243412018,721.9089243412018,721.9089243412018,721.9089243412018,723.2431886196136,2,1.4762375354766846,None,,,,,,,,,,,,,,,,,,212,3,2025-03-07_10h51.12.347,comp,2024.2.4,60.045066325376574,2025-03-07 10h51.19.953562 -0500,
97,97,0,critical,hwd,20.0,1.0,upper,200.0,125.0,125.0,200.0,141.0,141.0,2,15.167169094085693,None,,,,,0,0,0,0,0,97,97,103,723.2587947845459,,,,,,,,,,,,,,,,,,,,,,,,,,,,,,,,,,,,,,,,,,,,,,,,,,,,,,,,,,,,,,,,,,,,,,,,,,,,,,,,,200.0,125.0,125.0,200.0,141.0,141.0,1.0,1.2,-258,10,0,1,266,15,723.2440385818481,723.2440795898438,723.2468016147614,723.2587947845459,723.4088251590729,723.4088251590729,723.4088251590729,723.4088251590729,723.4088251590729,723.4088251590729,723.4088251590729,738.4432504177094,2,15.167169094085693,None,,,,,,,,,,,,,,,,,,212,3,2025-03-07_10h51.12.347,comp,2024.2.4,60.045066325376574,2025-03-07 10h51.19.953562 -0500,
98,98,0,filler_square,None,None,None,None,None,None,None,None,None,None,1,1.5673658847808838,None,,,,,0,0,0,0,0,98,98,187,738.458461523056,,,,,,,,,,,,,,,,,,,,,,,,,,,,,,,,,,,,,,,,,,,,,,,,,,,,,,,,,,,,,,,,,,,,,,,,,,,,,,,,,131.80811410612853,131.80811410612853,90.52576546498729,68.51084198572367,69.46435129165106,118.0455242956971,4.0,4.1,-196,-284,0,1,189,-259,738.4442040920258,738.4442436695099,738.4467828273773,738.458461523056,738.6087074279785,738.6087074279785,738.6087074279785,738.6087074279785,738.6087074279785,738.6087074279785,738.6087074279785,740.0433628559113,1,1.5673658847808838,None,,,,,,,,,,,,,,,,,,212,3,2025-03-07_10h51.12.347,comp,2024.2.4,60.045066325376574,2025-03-07 10h51.19.953562 -0500,
99,99,0,filler_square,None,None,None,None,None,None,None,None,None,None,2,4.296325445175171,None,,,,,0,0,0,0,0,99,99,199,740.0584697723389,,,,,,,,,,,,,,,,,,,,,,,,,,,,,,,,,,,,,,,,,,,,,,,,,,,,,,,,,,,,,,,,,,,,,,,,,,,,,,,,,159.48902741919682,115.34345354389339,199.49097206794366,199.49097206794366,190.5318896217458,197.88460609800114,4.0,4.1,-253,-260,0,-19,295,-287,740.0443708896637,740.0444123744965,740.0470087528229,740.0584697723389,740.208845615387,740.208845615387,740.208845615387,740.208845615387,740.208845615387,740.208845615387,740.208845615387,744.3602254390717,2,4.296325445175171,None,,,,,,,,,,,,,,,,,,212,3,2025-03-07_10h51.12.347,comp,2024.2.4,60.045066325376574,2025-03-07 10h51.19.953562 -0500,
100,100,0,critical,whd,35.0,3.0,lower,57.0,133.0,133.0,57.0,70.0,70.0,1,2.1327626705169678,None,,,,,0,0,0,0,0,100,100,86,744.3754260540009,,,,,,,,,,,,,,,,,,,,,,,,,,,,,,,,,,,,,,,,,,,,,,,,,,,,,,,,,,,,,,,,,,,,,,,,,,,,,,,,,57.0,133.0,133.0,57.0,70.0,70.0,3.0,3.1,-191,286,0,9,160,-278,744.3610274791718,744.3610699176788,744.3632645606995,744.3754260540009,744.5251989364624,744.5251989364624,744.5251989364624,744.5251989364624,744.5251989364624,744.5251989364624,744.5251989364624,746.5098509788513,1,2.1327626705169678,None,,,,,,,,,,,,,,,,,,212,3,2025-03-07_10h51.12.347,comp,2024.2.4,60.045066325376574,2025-03-07 10h51.19.953562 -0500,
101,101,0,critical,whd,35.0,4.0,lower,57.0,133.0,133.0,57.0,70.0,70.0,1,1.3883614540100098,None,,,,,0,0,0,0,0,101,101,88,746.5253028869629,,,,,,,,,,,,,,,,,,,,,,,,,,,,,,,,,,,,,,,,,,,,,,,,,,,,,,,,,,,,,,,,,,,,,,,,,,,,,,,,,57.0,133.0,133.0,57.0,70.0,70.0,4.0,4.1,-191,-265,0,-3,160,-259,746.5106317996979,746.5106725692749,746.5131056308746,746.5253028869629,746.6751389503479,746.6751389503479,746.6751389503479,746.6751389503479,746.6751389503479,746.6751389503479,746.6751389503479,747.9262466430664,1,1.3883614540100098,None,,,,,,,,,,,,,,,,,,212,3,2025-03-07_10h51.12.347,comp,2024.2.4,60.045066325376574,2025-03-07 10h51.19.953562 -0500,
102,102,0,filler_random,None,None,None,None,None,None,None,None,None,None,3,1.9090025424957275,None,,,,,0,0,0,0,0,102,102,143,747.9416408538818,,,,,,,,,,,,,,,,,,,,,,,,,,,,,,,,,,,,,,,,,,,,,,,,,,,,,,,,,,,,,,,,,,,,,,,,,,,,,,,,,81.17025780504522,60.14389694264262,181.82954161550214,89.11027310540241,185.914203629653,180.29741443520345,2.2,2.21,-171,-253,0,271,231,266,747.9271509647369,747.9271910190582,747.9299795627594,747.9416408538818,748.091958284378,748.091958284378,748.091958284378,748.091958284378,748.091958284378,748.091958284378,748.091958284378,749.859738111496,3,1.9090025424957275,None,,,,,,,,,,,,,,,,,,212,3,2025-03-07_10h51.12.347,comp,2024.2.4,60.045066325376574,2025-03-07 10h51.19.953562 -0500,
103,103,0,filler_square,None,None,None,None,None,None,None,None,None,None,3,15.303420066833496,None,,,,,0,0,0,0,0,103,103,170,749.8753266334534,,,,,,,,,,,,,,,,,,,,,,,,,,,,,,,,,,,,,,,,,,,,,,,,,,,,,,,,,,,,,,,,,,,,,,,,,,,,,,,,,136.66468254415523,140.9143572512935,109.19594583557864,126.83849652247027,146.0505431332241,146.0505431332241,2.1,2.11,-230,280,0,266,232,-262,749.86066198349,749.8607034683228,749.8631737232208,749.8753266334534,750.0253655910492,750.0253655910492,750.0253655910492,750.0253655910492,750.0253655910492,750.0253655910492,750.0253655910492,765.1929874420166,3,15.303420066833496,None,,,,,,,,,,,,,,,,,,212,3,2025-03-07_10h51.12.347,comp,2024.2.4,60.045066325376574,2025-03-07 10h51.19.953562 -0500,
104,104,0,critical,dhw,20.0,1.0,lower,78.0,78.0,133.0,57.0,57.0,133.0,3,4.147021532058716,None,,,,,0,0,0,0,0,104,104,54,765.2082531452179,,,,,,,,,,,,,,,,,,,,,,,,,,,,,,,,,,,,,,,,,,,,,,,,,,,,,,,,,,,,,,,,,,,,,,,,,,,,,,,,,78.0,78.0,133.0,57.0,57.0,133.0,1.0,1.3,316,-251,480,-267,671,-253,765.193779706955,765.1938190460205,765.1962904930115,765.2082531452179,765.3584263324738,765.3584263324738,765.3584263324738,765.3584263324738,765.3584263324738,765.3584263324738,765.3584263324738,769.3598544597626,3,4.147021532058716,None,,,,,,,,,,,,,,,,,,212,3,2025-03-07_10h51.12.347,comp,2024.2.4,60.045066325376574,2025-03-07 10h51.19.953562 -0500,
105,105,0,critical,dhw,20.0,3.0,lower,78.0,78.0,133.0,57.0,57.0,133.0,3,1.3329236507415771,None,,,,,0,0,0,0,0,105,105,56,769.3751270771027,,,,,,,,,,,,,,,,,,,,,,,,,,,,,,,,,,,,,,,,,,,,,,,,,,,,,,,,,,,,,,,,,,,,,,,,,,,,,,,,,78.0,78.0,133.0,57.0,57.0,133.0,3.0,3.1,-164,278,0,7,191,-283,769.3606395721436,769.3606798648834,769.363139629364,769.3751270771027,769.5250558853149,769.5250558853149,769.5250558853149,769.5250558853149,769.5250558853149,769.5250558853149,769.5250558853149,770.7095673084259,3,1.3329236507415771,None,,,,,,,,,,,,,,,,,,212,3,2025-03-07_10h51.12.347,comp,2024.2.4,60.045066325376574,2025-03-07 10h51.19.953562 -0500,
106,106,0,filler_random,None,None,None,None,None,None,None,None,None,None,2,1.6846017837524414,None,,,,,0,0,0,0,0,106,106,160,770.725081205368,,,,,,,,,,,,,,,,,,,,,,,,,,,,,,,,,,,,,,,,,,,,,,,,,,,,,,,,,,,,,,,,,,,,,,,,,,,,,,,,,63.16426650933732,69.2411448253667,123.51086916651708,167.1688877980435,143.65218789658087,96.3022012776105,2.2,2.21,-214,-257,0,266,228,269,770.7104895114899,770.7105317115784,770.7127201557159,770.725081205368,770.8750610351562,770.8750610351562,770.8750610351562,770.8750610351562,770.8750610351562,770.8750610351562,770.8750610351562,772.426276922226,2,1.6846017837524414,None,,,,,,,,,,,,,,,,,,212,3,2025-03-07_10h51.12.347,comp,2024.2.4,60.045066325376574,2025-03-07 10h51.19.953562 -0500,
107,107,0,critical,hwd,35.0,2.1,upper,200.0,125.0,125.0,200.0,127.0,127.0,2,2.0560412406921387,None,,,,,0,0,0,0,0,107,107,41,772.4414944648743,,,,,,,,,,,,,,,,,,,,,,,,,,,,,,,,,,,,,,,,,,,,,,,,,,,,,,,,,,,,,,,,,,,,,,,,,,,,,,,,,200.0,125.0,125.0,200.0,127.0,127.0,2.1,2.11,-258,270,0,287,260,-276,772.427077293396,772.4271152019501,772.4293911457062,772.4414944648743,772.5918231010437,772.5918231010437,772.5918231010437,772.5918231010437,772.5918231010437,772.5918231010437,772.5918231010437,774.5098421573639,2,2.0560412406921387,None,,,,,,,,,,,,,,,,,,212,3,2025-03-07_10h51.12.347,comp,2024.2.4,60.045066325376574,2025-03-07 10h51.19.953562 -0500,
108,108,0,critical,hdw,35.0,3.0,upper,200.0,125.0,127.0,127.0,125.0,200.0,3,2.0454444885253906,None,,,,,0,0,0,0,0,108,108,111,774.5249547958374,,,,,,,,,,,,,,,,,,,,,,,,,,,,,,,,,,,,,,,,,,,,,,,,,,,,,,,,,,,,,,,,,,,,,,,,,,,,,,,,,200.0,125.0,127.0,127.0,125.0,200.0,3.0,3.1,-222,279,0,-13,260,-267,774.5106387138367,774.510678768158,774.5128316879272,774.5249547958374,774.6751990318298,774.6751990318298,774.6751990318298,774.6751990318298,774.6751990318298,774.6751990318298,774.6751990318298,776.5763266086578,3,2.0454444885253906,None,,,,,,,,,,,,,,,,,,212,3,2025-03-07_10h51.12.347,comp,2024.2.4,60.045066325376574,2025-03-07 10h51.19.953562 -0500,
109,109,0,critical,dwh,20.0,1.0,upper,141.0,141.0,125.0,200.0,200.0,125.0,2,3.4506044387817383,None,,,,,0,0,0,0,0,109,109,67,776.5917809009552,,,,,,,,,,,,,,,,,,,,,,,,,,,,,,,,,,,,,,,,,,,,,,,,,,,,,,,,,,,,,,,,,,,,,,,,,,,,,,,,,141.0,141.0,125.0,200.0,200.0,125.0,1.0,1.2,-266,-12,0,6,258,18,776.5771067142487,776.5771472454071,776.5797083377838,776.5917809009552,776.7418718338013,776.7418718338013,776.7418718338013,776.7418718338013,776.7418718338013,776.7418718338013,776.7418718338013,780.0596106052399,2,3.4506044387817383,None,,,,,,,,,,,,,,,,,,212,3,2025-03-07_10h51.12.347,comp,2024.2.4,60.045066325376574,2025-03-07 10h51.19.953562 -0500,
110,110,0,critical,wdh,35.0,2.1,upper,125.0,200.0,127.0,127.0,200.0,125.0,1,2.000645399093628,None,,,,,0,0,0,0,0,110,110,9,780.0748918056488,,,,,,,,,,,,,,,,,,,,,,,,,,,,,,,,,,,,,,,,,,,,,,,,,,,,,,,,,,,,,,,,,,,,,,,,,,,,,,,,,125.0,200.0,127.0,127.0,200.0,125.0,2.1,2.11,-260,254,0,283,222,-262,780.0603938102722,780.0604350566864,780.063803434372,780.0748918056488,780.2251017093658,780.2251017093658,780.2251017093658,780.2251017093658,780.2251017093658,780.2251017093658,780.2251017093658,782.092930316925,1,2.000645399093628,None,,,,,,,,,,,,,,,,,,212,3,2025-03-07_10h51.12.347,comp,2024.2.4,60.045066325376574,2025-03-07 10h51.19.953562 -0500,
111,111,0,critical,hwd,20.0,1.0,lower,133.0,57.0,57.0,133.0,78.0,78.0,2,1.9894866943359375,None,,,,,0,0,0,0,0,111,111,102,782.108090877533,,,,,,,,,,,,,,,,,,,,,,,,,,,,,,,,,,,,,,,,,,,,,,,,,,,,,,,,,,,,,,,,,,,,,,,,,,,,,,,,,133.0,57.0,57.0,133.0,78.0,78.0,1.0,1.1,-671,289,-480,275,-278,287,782.0937378406525,782.0937781333923,782.0961842536926,782.108090877533,782.2585415840149,782.2585415840149,782.2585415840149,782.2585415840149,782.2585415840149,782.2585415840149,782.2585415840149,784.1094551086426,2,1.9894866943359375,None,,,,,,,,,,,,,,,,,,212,3,2025-03-07_10h51.12.347,comp,2024.2.4,60.045066325376574,2025-03-07 10h51.19.953562 -0500,
112,112,0,critical,dwh,35.0,3.0,lower,70.0,70.0,57.0,133.0,133.0,57.0,2,1.3095312118530273,None,,,,,0,0,0,0,0,112,112,62,784.1248333454132,,,,,,,,,,,,,,,,,,,,,,,,,,,,,,,,,,,,,,,,,,,,,,,,,,,,,,,,,,,,,,,,,,,,,,,,,,,,,,,,,70.0,70.0,57.0,133.0,133.0,57.0,3.0,3.2,-198,-279,0,17,191,263,784.1102273464203,784.110267162323,784.1124103069305,784.1248333454132,784.2749130725861,784.2749130725861,784.2749130725861,784.2749130725861,784.2749130725861,784.2749130725861,784.2749130725861,785.4426198005676,2,1.3095312118530273,None,,,,,,,,,,,,,,,,,,212,3,2025-03-07_10h51.12.347,comp,2024.2.4,60.045066325376574,2025-03-07 10h51.19.953562 -0500,
113,113,0,filler_random,None,None,None,None,None,None,None,None,None,None,1,1.1761555671691895,None,,,,,0,0,0,0,0,113,113,164,785.4582402706146,,,,,,,,,,,,,,,,,,,,,,,,,,,,,,,,,,,,,,,,,,,,,,,,,,,,,,,,,,,,,,,,,,,,,,,,,,,,,,,,,95.15525801303978,166.10460149958692,68.73948456548305,127.97983049520859,105.1694770724074,89.21751563420928,3.0,3.1,-243,261,0,3,205,-261,785.4435188770294,785.4435589313507,785.4457223415375,785.4582402706146,785.6082897186279,785.6082897186279,785.6082897186279,785.6082897186279,785.6082897186279,785.6082897186279,785.6082897186279,786.6426293849945,1,1.1761555671691895,None,,,,,,,,,,,,,,,,,,212,3,2025-03-07_10h51.12.347,comp,2024.2.4,60.045066325376574,2025-03-07 10h51.19.953562 -0500,
114,114,0,catch,None,None,None,None,None,None,None,None,None,None,2,1.4879601001739502,None,,,,,0,0,0,0,0,114,114,127,786.6583189964294,,,,,,,,,,,,,,,,,,,,,,,,,,,,,,,,,,,,,,,,,,,,,,,,,,,,,,,,,,,,,,,,,,,,,,,,,,,,,,,,,101,89,158,167,58,132,2.1,2.12,-224,-281,0,-285,246,277,786.6436712741852,786.6437137126923,786.646194934845,786.6583189964294,786.8083035945892,786.8083035945892,786.8083035945892,786.8083035945892,786.8083035945892,786.8083035945892,786.8083035945892,788.1596143245697,2,1.4879601001739502,None,,,,,,,,,,,,,,,,,,212,3,2025-03-07_10h51.12.347,comp,2024.2.4,60.045066325376574,2025-03-07 10h51.19.953562 -0500,
115,115,0,filler_square,None,None,None,None,None,None,None,None,None,None,3,1.427466869354248,None,,,,,0,0,0,0,0,115,115,191,788.1748926639557,,,,,,,,,,,,,,,,,,,,,,,,,,,,,,,,,,,,,,,,,,,,,,,,,,,,,,,,,,,,,,,,,,,,,,,,,,,,,,,,,150.9062153825542,72.43191341120547,122.8312971251893,97.74852062615285,165.68003282814317,165.68003282814317,4.0,4.1,-181,-278,0,-16,228,-282,788.1605591773987,788.1605999469757,788.1627440452576,788.1748926639557,788.3249571323395,788.3249571323395,788.3249571323395,788.3249571323395,788.3249571323395,788.3249571323395,788.3249571323395,789.6094636917114,3,1.427466869354248,None,,,,,,,,,,,,,,,,,,212,3,2025-03-07_10h51.12.347,comp,2024.2.4,60.045066325376574,2025-03-07 10h51.19.953562 -0500,
116,116,0,critical,dhw,20.0,3.0,upper,141.0,141.0,200.0,125.0,125.0,200.0,2,5.193270683288574,None,,,,,0,0,0,0,0,116,116,57,789.6249754428864,,,,,,,,,,,,,,,,,,,,,,,,,,,,,,,,,,,,,,,,,,,,,,,,,,,,,,,,,,,,,,,,,,,,,,,,,,,,,,,,,141.0,141.0,200.0,125.0,125.0,200.0,3.0,3.1,-229,271,0,-4,258,-275,789.6102819442749,789.6103234291077,789.6123807430267,789.6249754428864,789.7750453948975,789.7750453948975,789.7750453948975,789.7750453948975,789.7750453948975,789.7750453948975,789.7750453948975,794.8260958194733,2,5.193270683288574,None,,,,,,,,,,,,,,,,,,212,3,2025-03-07_10h51.12.347,comp,2024.2.4,60.045066325376574,2025-03-07 10h51.19.953562 -0500,
117,117,0,filler_square,None,None,None,None,None,None,None,None,None,None,3,6.5043745040893555,None,,,,,0,0,0,0,0,117,117,183,794.8417358398438,,,,,,,,,,,,,,,,,,,,,,,,,,,,,,,,,,,,,,,,,,,,,,,,,,,,,,,,,,,,,,,,,,,,,,,,,,,,,,,,,81.75236006239905,81.75236006239905,75.1941596137857,75.52028264302047,73.67741925074155,80.20563735189927,4.0,4.1,-175,-285,0,-15,174,-261,794.8270568847656,794.8270993232727,794.829615354538,794.8417358398438,794.9914531707764,794.9914531707764,794.9914531707764,794.9914531707764,794.9914531707764,794.9914531707764,794.9914531707764,801.359224319458,3,6.5043745040893555,None,,,,,,,,,,,,,,,,,,212,3,2025-03-07_10h51.12.347,comp,2024.2.4,60.045066325376574,2025-03-07 10h51.19.953562 -0500,
118,118,0,critical,wdh,35.0,2.1,lower,57.0,133.0,70.0,70.0,133.0,57.0,1,2.7651984691619873,None,,,,,0,0,0,0,0,118,118,32,801.3745822906494,,,,,,,,,,,,,,,,,,,,,,,,,,,,,,,,,,,,,,,,,,,,,,,,,,,,,,,,,,,,,,,,,,,,,,,,,,,,,,,,,57.0,133.0,70.0,70.0,133.0,57.0,2.1,2.11,-198,253,0,278,160,-269,801.3600225448608,801.3600645065308,801.3627078533173,801.3745822906494,801.5247988700867,801.5247988700867,801.5247988700867,801.5247988700867,801.5247988700867,801.5247988700867,801.5247988700867,804.1426937580109,1,2.7651984691619873,None,,,,,,,,,,,,,,,,,,212,3,2025-03-07_10h51.12.347,comp,2024.2.4,60.045066325376574,2025-03-07 10h51.19.953562 -0500,
119,119,0,filler_square,None,None,None,None,None,None,None,None,None,None,2,1.6510813236236572,None,,,,,0,0,0,0,0,119,119,202,804.1583466529846,,,,,,,,,,,,,,,,,,,,,,,,,,,,,,,,,,,,,,,,,,,,,,,,,,,,,,,,,,,,,,,,,,,,,,,,,,,,,,,,,60.381078901455616,72.70711266364212,132.04719714991,132.04719714991,66.5166038085389,130.48113091289207,4.0,4.1,-198,-284,0,6,227,-250,804.1436281204224,804.1436700820923,804.1458115577698,804.1583466529846,804.308286190033,804.308286190033,804.308286190033,804.308286190033,804.308286190033,804.308286190033,804.308286190033,805.8260052204132,2,1.6510813236236572,None,,,,,,,,,,,,,,,,,,212,3,2025-03-07_10h51.12.347,comp,2024.2.4,60.045066325376574,2025-03-07 10h51.19.953562 -0500,
120,120,0,filler_square,None,None,None,None,None,None,None,None,None,None,1,2.0168850421905518,None,,,,,0,0,0,0,0,120,120,193,805.84139585495,,,,,,,,,,,,,,,,,,,,,,,,,,,,,,,,,,,,,,,,,,,,,,,,,,,,,,,,,,,,,,,,,,,,,,,,,,,,,,,,,76.3136846703499,76.3136846703499,60.89218303671875,57.74396862750998,61.17163649524796,70.25481692570675,4.0,4.2,-163,-9,0,-257,160,12,805.8269894123077,805.8270299434662,805.8295783996582,805.84139585495,805.9914753437042,805.9914753437042,805.9914753437042,805.9914753437042,805.9914753437042,805.9914753437042,805.9914753437042,807.8758223056793,1,2.0168850421905518,None,,,,,,,,,,,,,,,,,,212,3,2025-03-07_10h51.12.347,comp,2024.2.4,60.045066325376574,2025-03-07 10h51.19.953562 -0500,
121,121,0,filler_square,None,None,None,None,None,None,None,None,None,None,3,1.6003141403198242,None,,,,,0,0,0,0,0,121,121,196,807.8912887573242,,,,,,,,,,,,,,,,,,,,,,,,,,,,,,,,,,,,,,,,,,,,,,,,,,,,,,,,,,,,,,,,,,,,,,,,,,,,,,,,,89.85415584365646,64.86757428579459,61.43833340354229,148.58422854517636,178.33716366565613,178.33716366565613,1.0,1.1,-683,252,-480,279,-221,252,807.8767762184143,807.8768184185028,807.8792788982391,807.8912887573242,808.041512966156,808.041512966156,808.041512966156,808.041512966156,808.041512966156,808.041512966156,808.041512966156,809.4928433895111,3,1.6003141403198242,None,,,,,,,,,,,,,,,,,,212,3,2025-03-07_10h51.12.347,comp,2024.2.4,60.045066325376574,2025-03-07 10h51.19.953562 -0500,
122,122,0,critical,hdw,35.0,1.0,lower,133.0,57.0,70.0,70.0,57.0,133.0,1,2.446897268295288,None,,,,,0,0,0,0,0,122,122,108,809.508297920227,,,,,,,,,,,,,,,,,,,,,,,,,,,,,,,,,,,,,,,,,,,,,,,,,,,,,,,,,,,,,,,,,,,,,,,,,,,,,,,,,133.0,57.0,70.0,70.0,57.0,133.0,1.0,1.1,-640,273,-480,281,-282,284,809.4936761856079,809.4937167167664,809.496258020401,809.508297920227,809.6585257053375,809.6585257053375,809.6585257053375,809.6585257053375,809.6585257053375,809.6585257053375,809.6585257053375,811.9592750072479,1,2.446897268295288,None,,,,,,,,,,,,,,,,,,212,3,2025-03-07_10h51.12.347,comp,2024.2.4,60.045066325376574,2025-03-07 10h51.19.953562 -0500,
123,123,0,critical,wdh,35.0,3.0,upper,125.0,200.0,127.0,127.0,200.0,125.0,1,2.2114346027374268,None,,,,,0,0,0,0,0,123,123,75,811.9747378826141,,,,,,,,,,,,,,,,,,,,,,,,,,,,,,,,,,,,,,,,,,,,,,,,,,,,,,,,,,,,,,,,,,,,,,,,,,,,,,,,,125.0,200.0,127.0,127.0,200.0,125.0,3.0,3.2,-260,-255,0,10,222,267,811.9600410461426,811.9600808620453,811.9627370834351,811.9747378826141,812.1248471736908,812.1248471736908,812.1248471736908,812.1248471736908,812.1248471736908,812.1248471736908,812.1248471736908,814.1925809383392,1,2.2114346027374268,None,,,,,,,,,,,,,,,,,,212,3,2025-03-07_10h51.12.347,comp,2024.2.4,60.045066325376574,2025-03-07 10h51.19.953562 -0500,
124,124,0,critical,hdw,20.0,1.0,upper,200.0,125.0,141.0,141.0,125.0,200.0,3,4.4834325313568115,None,,,,,0,0,0,0,0,124,124,115,814.208235502243,,,,,,,,,,,,,,,,,,,,,,,,,,,,,,,,,,,,,,,,,,,,,,,,,,,,,,,,,,,,,,,,,,,,,,,,,,,,,,,,,200.0,125.0,141.0,141.0,125.0,200.0,1.0,1.2,-229,-2,0,-20,266,3,814.1933763027191,814.193416595459,814.1958680152893,814.208235502243,814.3586463928223,814.3586463928223,814.3586463928223,814.3586463928223,814.3586463928223,814.3586463928223,814.3586463928223,818.7094655036926,3,4.4834325313568115,None,,,,,,,,,,,,,,,,,,212,3,2025-03-07_10h51.12.347,comp,2024.2.4,60.045066325376574,2025-03-07 10h51.19.953562 -0500,
125,125,0,critical,dhw,35.0,2.1,lower,70.0,70.0,133.0,57.0,57.0,133.0,3,1.5669341087341309,None,,,,,0,0,0,0,0,125,125,0,818.7244739532471,,,,,,,,,,,,,,,,,,,,,,,,,,,,,,,,,,,,,,,,,,,,,,,,,,,,,,,,,,,,,,,,,,,,,,,,,,,,,,,,,70.0,70.0,133.0,57.0,57.0,133.0,2.1,2.12,-160,-285,0,-251,191,278,818.7102541923523,818.7102932929993,818.7126524448395,818.7244739532471,818.8746795654297,818.8746795654297,818.8746795654297,818.8746795654297,818.8746795654297,818.8746795654297,818.8746795654297,820.309220790863,3,1.5669341087341309,None,,,,,,,,,,,,,,,,,,212,3,2025-03-07_10h51.12.347,comp,2024.2.4,60.045066325376574,2025-03-07 10h51.19.953562 -0500,
126,126,0,critical,hwd,35.0,1.0,lower,133.0,57.0,57.0,133.0,70.0,70.0,2,1.6046366691589355,None,,,,,0,0,0,0,0,126,126,96,820.3246655464172,,,,,,,,,,,,,,,,,,,,,,,,,,,,,,,,,,,,,,,,,,,,,,,,,,,,,,,,,,,,,,,,,,,,,,,,,,,,,,,,,133.0,57.0,57.0,133.0,70.0,70.0,1.0,1.3,289,-261,480,-278,678,-286,820.3100256919861,820.310065984726,820.3122117519379,820.3246655464172,820.4747979640961,820.4747979640961,820.4747979640961,820.4747979640961,820.4747979640961,820.4747979640961,820.4747979640961,821.9423758983612,2,1.6046366691589355,None,,,,,,,,,,,,,,,,,,212,3,2025-03-07_10h51.12.347,comp,2024.2.4,60.045066325376574,2025-03-07 10h51.19.953562 -0500,
127,127,0,filler_random,None,None,None,None,None,None,None,None,None,None,1,1.533778190612793,None,,,,,0,0,0,0,0,127,127,133,821.9578218460083,,,,,,,,,,,,,,,,,,,,,,,,,,,,,,,,,,,,,,,,,,,,,,,,,,,,,,,,,,,,,,,,,,,,,,,,,,,,,,,,,191.87568734094634,173.9494098142785,157.041729944848,111.35323645569343,64.15892178561772,154.09796803664483,2.1,2.12,-239,-266,0,-274,229,264,821.9432933330536,821.943333864212,821.9454636573792,821.9578218460083,822.1082348823547,822.1082348823547,822.1082348823547,822.1082348823547,822.1082348823547,822.1082348823547,822.1082348823547,823.4928572177887,1,1.533778190612793,None,,,,,,,,,,,,,,,,,,212,3,2025-03-07_10h51.12.347,comp,2024.2.4,60.045066325376574,2025-03-07 10h51.19.953562 -0500,
128,128,0,critical,hwd,35.0,2.1,upper,200.0,125.0,125.0,200.0,127.0,127.0,2,3.269022226333618,None,,,,,0,0,0,0,0,128,128,17,823.5082063674927,,,,,,,,,,,,,,,,,,,,,,,,,,,,,,,,,,,,,,,,,,,,,,,,,,,,,,,,,,,,,,,,,,,,,,,,,,,,,,,,,200.0,125.0,125.0,200.0,127.0,127.0,2.1,2.12,-258,-265,0,-257,260,275,823.4937045574188,823.4937455654144,823.4961333274841,823.5082063674927,823.6583487987518,823.6583487987518,823.6583487987518,823.6583487987518,823.6583487987518,823.6583487987518,823.6583487987518,826.7926120758057,2,3.269022226333618,None,,,,,,,,,,,,,,,,,,212,3,2025-03-07_10h51.12.347,comp,2024.2.4,60.045066325376574,2025-03-07 10h51.19.953562 -0500,
129,129,0,critical,hwd,20.0,3.0,upper,200.0,125.0,125.0,200.0,141.0,141.0,2,1.5942986011505127,None,,,,,0,0,0,0,0,129,129,105,826.807740688324,,,,,,,,,,,,,,,,,,,,,,,,,,,,,,,,,,,,,,,,,,,,,,,,,,,,,,,,,,,,,,,,,,,,,,,,,,,,,,,,,200.0,125.0,125.0,200.0,141.0,141.0,3.0,3.1,-258,266,0,20,266,-263,826.7933750152588,826.7934153079987,826.7955479621887,826.807740688324,826.9581916332245,826.9581916332245,826.9581916332245,826.9581916332245,826.9581916332245,826.9581916332245,826.9581916332245,828.409280538559,2,1.5942986011505127,None,,,,,,,,,,,,,,,,,,212,3,2025-03-07_10h51.12.347,comp,2024.2.4,60.045066325376574,2025-03-07 10h51.19.953562 -0500,
130,130,0,critical,whd,20.0,2.1,upper,125.0,200.0,200.0,125.0,141.0,141.0,1,1.6577174663543701,None,,,,,0,0,0,0,0,130,130,39,828.4246666431427,,,,,,,,,,,,,,,,,,,,,,,,,,,,,,,,,,,,,,,,,,,,,,,,,,,,,,,,,,,,,,,,,,,,,,,,,,,,,,,,,125.0,200.0,200.0,125.0,141.0,141.0,2.1,2.12,-258,-255,0,-288,229,281,828.4100675582886,828.4101088047028,828.4121596813202,828.4246666431427,828.5747435092926,828.5747435092926,828.5747435092926,828.5747435092926,828.5747435092926,828.5747435092926,828.5747435092926,830.0925681591034,1,1.6577174663543701,None,,,,,,,,,,,,,,,,,,212,3,2025-03-07_10h51.12.347,comp,2024.2.4,60.045066325376574,2025-03-07 10h51.19.953562 -0500,
131,131,0,filler_square,None,None,None,None,None,None,None,None,None,None,3,3.4049723148345947,None,,,,,0,0,0,0,0,131,131,186,830.1080799102783,,,,,,,,,,,,,,,,,,,,,,,,,,,,,,,,,,,,,,,,,,,,,,,,,,,,,,,,,,,,,,,,,,,,,,,,,,,,,,,,,84.51758033066298,64.90704205343621,78.86144110625258,80.60560544726718,90.64884442585742,90.64884442585742,1.0,1.1,-649,279,-480,270,-298,254,830.0935344696045,830.0935761928558,830.0960214138031,830.1080799102783,830.2581231594086,830.2581231594086,830.2581231594086,830.2581231594086,830.2581231594086,830.2581231594086,830.2581231594086,833.5257878303528,3,3.4049723148345947,None,,,,,,,,,,,,,,,,,,212,3,2025-03-07_10h51.12.347,comp,2024.2.4,60.045066325376574,2025-03-07 10h51.19.953562 -0500,
132,132,0,filler_square,None,None,None,None,None,None,None,None,None,None,3,1.084108829498291,None,,,,,0,0,0,0,0,132,132,198,833.5411357879639,,,,,,,,,,,,,,,,,,,,,,,,,,,,,,,,,,,,,,,,,,,,,,,,,,,,,,,,,,,,,,,,,,,,,,,,,,,,,,,,,80.0656902841449,119.62083061580752,74.21143753899946,68.70181912436617,165.09984664113043,165.09984664113043,1.0,1.3,290,-251,480,-270,693,-263,833.5267281532288,833.5267689228058,833.5296070575714,833.5411357879639,833.6912958621979,833.6912958621979,833.6912958621979,833.6912958621979,833.6912958621979,833.6912958621979,833.6912958621979,834.6424419879913,3,1.084108829498291,None,,,,,,,,,,,,,,,,,,212,3,2025-03-07_10h51.12.347,comp,2024.2.4,60.045066325376574,2025-03-07 10h51.19.953562 -0500,
133,133,0,critical,dhw,35.0,1.0,lower,70.0,70.0,133.0,57.0,57.0,133.0,3,3.5034313201904297,None,,,,,0,0,0,0,0,133,133,48,834.65775847435,,,,,,,,,,,,,,,,,,,,,,,,,,,,,,,,,,,,,,,,,,,,,,,,,,,,,,,,,,,,,,,,,,,,,,,,,,,,,,,,,70.0,70.0,133.0,57.0,57.0,133.0,1.0,1.1,-640,280,-480,275,-289,265,834.6432547569275,834.6432948112488,834.6454458236694,834.65775847435,834.8079025745392,834.8079025745392,834.8079025745392,834.8079025745392,834.8079025745392,834.8079025745392,834.8079025745392,838.1757526397705,3,3.5034313201904297,None,,,,,,,,,,,,,,,,,,212,3,2025-03-07_10h51.12.347,comp,2024.2.4,60.045066325376574,2025-03-07 10h51.19.953562 -0500,
134,134,0,critical,dhw,20.0,2.1,lower,78.0,78.0,133.0,57.0,57.0,133.0,3,2.6339352130889893,None,,,,,0,0,0,0,0,134,134,2,838.1911239624023,,,,,,,,,,,,,,,,,,,,,,,,,,,,,,,,,,,,,,,,,,,,,,,,,,,,,,,,,,,,,,,,,,,,,,,,,,,,,,,,,78.0,78.0,133.0,57.0,57.0,133.0,2.1,2.11,-164,278,0,257,191,-288,838.1765623092651,838.1766030788422,838.1790623664856,838.1911239624023,838.3416545391083,838.3416545391083,838.3416545391083,838.3416545391083,838.3416545391083,838.3416545391083,838.3416545391083,840.8422782421112,3,2.6339352130889893,None,,,,,,,,,,,,,,,,,,212,3,2025-03-07_10h51.12.347,comp,2024.2.4,60.045066325376574,2025-03-07 10h51.19.953562 -0500,
135,135,0,filler_square,None,None,None,None,None,None,None,None,None,None,1,1.7194406986236572,None,,,,,0,0,0,0,0,135,135,194,840.85768699646,,,,,,,,,,,,,,,,,,,,,,,,,,,,,,,,,,,,,,,,,,,,,,,,,,,,,,,,,,,,,,,,,,,,,,,,,,,,,,,,,188.01479703024808,188.01479703024808,125.05651950070728,167.62495569147467,94.02002873252717,164.11575005594273,2.1,2.12,-274,-271,0,-257,262,255,840.843227148056,840.8432693481445,840.8458979129791,840.85768699646,841.0080354213715,841.0080354213715,841.0080354213715,841.0080354213715,841.0080354213715,841.0080354213715,841.0080354213715,842.5925860404968,1,1.7194406986236572,None,,,,,,,,,,,,,,,,,,212,3,2025-03-07_10h51.12.347,comp,2024.2.4,60.045066325376574,2025-03-07 10h51.19.953562 -0500,
136,136,0,critical,wdh,20.0,4.0,upper,125.0,200.0,141.0,141.0,200.0,125.0,1,4.874703884124756,None,,,,,0,0,0,0,0,136,136,83,842.607682466507,,,,,,,,,,,,,,,,,,,,,,,,,,,,,,,,,,,,,,,,,,,,,,,,,,,,,,,,,,,,,,,,,,,,,,,,,,,,,,,,,125.0,200.0,141.0,141.0,200.0,125.0,4.0,4.1,-266,-266,0,0,229,-277,842.5933854579926,842.5934247970581,842.5958788394928,842.607682466507,842.7581715583801,842.7581715583801,842.7581715583801,842.7581715583801,842.7581715583801,842.7581715583801,842.7581715583801,847.4925372600555,1,4.874703884124756,None,,,,,,,,,,,,,,,,,,212,3,2025-03-07_10h51.12.347,comp,2024.2.4,60.045066325376574,2025-03-07 10h51.19.953562 -0500,
137,137,0,critical,hwd,20.0,4.0,lower,133.0,57.0,57.0,133.0,78.0,78.0,2,3.3009395599365234,None,,,,,0,0,0,0,0,137,137,106,847.5081145763397,,,,,,,,,,,,,,,,,,,,,,,,,,,,,,,,,,,,,,,,,,,,,,,,,,,,,,,,,,,,,,,,,,,,,,,,,,,,,,,,,133.0,57.0,57.0,133.0,78.0,78.0,4.0,4.2,-191,-14,0,-259,202,9,847.4933185577393,847.4933588504791,847.4956786632538,847.5081145763397,847.65784907341,847.65784907341,847.65784907341,847.65784907341,847.65784907341,847.65784907341,847.65784907341,850.8255813121796,2,3.3009395599365234,None,,,,,,,,,,,,,,,,,,212,3,2025-03-07_10h51.12.347,comp,2024.2.4,60.045066325376574,2025-03-07 10h51.19.953562 -0500,
138,138,0,critical,wdh,35.0,1.0,upper,125.0,200.0,127.0,127.0,200.0,125.0,1,2.368206262588501,None,,,,,0,0,0,0,0,138,138,73,850.8408603668213,,,,,,,,,,,,,,,,,,,,,,,,,,,,,,,,,,,,,,,,,,,,,,,,,,,,,,,,,,,,,,,,,,,,,,,,,,,,,,,,,125.0,200.0,127.0,127.0,200.0,125.0,1.0,1.1,-740,286,-480,260,-258,285,850.8263256549835,850.8263657093048,850.8286619186401,850.8408603668213,850.99134516716,850.99134516716,850.99134516716,850.99134516716,850.99134516716,850.99134516716,850.99134516716,853.2259638309479,1,2.368206262588501,None,,,,,,,,,,,,,,,,,,212,3,2025-03-07_10h51.12.347,comp,2024.2.4,60.045066325376574,2025-03-07 10h51.19.953562 -0500,
139,139,0,filler_square,None,None,None,None,None,None,None,None,None,None,3,1.8825902938842773,None,,,,,0,0,0,0,0,139,139,200,853.2411096096039,,,,,,,,,,,,,,,,,,,,,,,,,,,,,,,,,,,,,,,,,,,,,,,,,,,,,,,,,,,,,,,,,,,,,,,,,,,,,,,,,139.67959256752368,99.0090675062163,128.5033768538957,181.30903902394158,198.62610057188238,198.62610057188238,1.0,1.2,-236,19,0,-9,286,-5,853.2269132137299,853.2269563674927,853.2294707298279,853.2411096096039,853.3913018703461,853.3913018703461,853.3913018703461,853.3913018703461,853.3913018703461,853.3913018703461,853.3913018703461,855.1258509159088,3,1.8825902938842773,None,,,,,,,,,,,,,,,,,,212,3,2025-03-07_10h51.12.347,comp,2024.2.4,60.045066325376574,2025-03-07 10h51.19.953562 -0500,
140,140,0,critical,dwh,35.0,4.0,upper,127.0,127.0,125.0,200.0,200.0,125.0,2,3.171682357788086,None,,,,,0,0,0,0,0,140,140,65,855.1412177085876,,,,,,,,,,,,,,,,,,,,,,,,,,,,,,,,,,,,,,,,,,,,,,,,,,,,,,,,,,,,,,,,,,,,,,,,,,,,,,,,,127.0,127.0,125.0,200.0,200.0,125.0,4.0,4.1,-260,-259,0,0,258,-262,855.1266283988953,855.1266677379608,855.1290254592896,855.1412177085876,855.2912917137146,855.2912917137146,855.2912917137146,855.2912917137146,855.2912917137146,855.2912917137146,855.2912917137146,858.3258290290833,2,3.171682357788086,None,,,,,,,,,,,,,,,,,,212,3,2025-03-07_10h51.12.347,comp,2024.2.4,60.045066325376574,2025-03-07 10h51.19.953562 -0500,
141,141,0,critical,dwh,35.0,2.1,lower,70.0,70.0,57.0,133.0,133.0,57.0,2,4.283994197845459,None,,,,,0,0,0,0,0,141,141,4,858.341001033783,,,,,,,,,,,,,,,,,,,,,,,,,,,,,,,,,,,,,,,,,,,,,,,,,,,,,,,,,,,,,,,,,,,,,,,,,,,,,,,,,70.0,70.0,57.0,133.0,133.0,57.0,2.1,2.12,-198,-272,0,-283,191,284,858.326642036438,858.3266837596893,858.328851222992,858.341001033783,858.4911317825317,858.4911317825317,858.4911317825317,858.4911317825317,858.4911317825317,858.4911317825317,858.4911317825317,862.6421494483948,2,4.283994197845459,None,,,,,,,,,,,,,,,,,,212,3,2025-03-07_10h51.12.347,comp,2024.2.4,60.045066325376574,2025-03-07 10h51.19.953562 -0500,
