thisN,thisTrialN,thisRepN,effect,order,distance,config,diag,h_1,w_1,h_2,w_2,h_3,w_3,rect_choice.keys,rect_choice.rt,rect_choice.duration,instructions_loop.thisRepN,instructions_loop.thisTrialN,instructions_loop.thisN,instructions_loop.thisIndex,blocks.thisRepN,blocks.thisTrialN,blocks.thisN,blocks.thisIndex,trials.thisRepN,trials.thisTrialN,trials.thisN,trials.thisIndex,thisRow.t,notes,consent.started,agree_button.started,decline_button.started,consent_img.started,mouse.started,consent.stopped,agree_button.numClicks,agree_button.timesOn,agree_button.timesOff,decline_button.numClicks,decline_button.timesOn,decline_button.timesOff,mouse.x,mouse.y,mouse.leftButton,mouse.midButton,mouse.rightButton,mouse.time,mouse.clicked_name,exp_params.started,exp_params.stopped,welcome.started,welcome_text.started,welcome.stopped,instructions_1.started,instructions_1_text_1.started,instructions_1_text_2.started,key_resp.started,instructions_1.stopped,instructions_loop.key_resp.keys,instructions_loop.key_resp.rt,instructions_loop.key_resp.duration,instructions_2.started,instructions_2_text_1.started,instructions_2_text_2.started,key_resp_2.started,instructions_2.stopped,instructions_loop.key_resp_2.keys,instructions_loop.key_resp_2.rt,instructions_loop.key_resp_2.duration,instructions_3.started,instructions_3_text_1.started,r1_instr3.started,r2_instr3.started,r3_instr3.started,r1_instr3_label.started,r2_instr3_label.started,r3_instr3_label.started,instructions_3_text_3.started,instructions_3_text_4.started,key_resp_3.started,instructions_3.stopped,instructions_loop.key_resp_3.keys,instructions_loop.key_resp_3.rt,instructions_loop.key_resp_3.duration,instructions_4.started,instructions_4_text_1.started,instructions_4_text_3.started,instructions_4_text_2.started,key_resp_4.started,instructions_4.stopped,instructions_loop.key_resp_4.keys,instructions_loop.key_resp_4.rt,instructions_loop.key_resp_4.duration,instructions_5.started,instructions_5_text_1.started,instructions_5_text_2.started,key_resp_5.started,instructions_5.stopped,instructions_loop.key_resp_5.keys,instructions_loop.key_resp_5.rt,instructions_loop.key_resp_5.duration,start_exp.started,start_exp_text.started,key_resp_6.started,start_exp.stopped,key_resp_6.keys,key_resp_6.rt,key_resp_6.duration,h_1_tmp,w_1_tmp,h_2_tmp,w_2_tmp,h_3_tmp,w_3_tmp,config_tmp,config_tmp_1,r_1_x,r_1_y,r_2_x,r_2_y,r_3_x,r_3_y,pre_trial.started,pre_trial.stopped,choice_trial.started,rect_choice.started,r_1.started,r_2.started,r_3.started,r_1_label.started,r_2_label.started,r_3_label.started,prompt.started,choice_trial.stopped,trials.rect_choice.keys,trials.rect_choice.rt,trials.rect_choice.duration,end_block.started,end_block_text.started,end_block.stopped,end.started,end_text.started,key_resp_7.started,end.stopped,key_resp_7.keys,key_resp_7.rt,key_resp_7.duration,debriefing.started,debrief_form.started,end_debrief.started,debriefing.stopped,end_debrief.keys,end_debrief.rt,end_debrief.duration,participant,computer,date,expName,psychopyVersion,frameRate,expStart,
,,,,,,,,,,,,,,,,,,,,,,,,,,,,,,,0.014913082122802734,0.03917193412780762,0.03917193412780762,0.03917193412780762,0.014721155166625977,25.538434743881226,1,[25.496949911117554],[25.496979475021362],0,,,[-88.0],[-502.0],[1],[0],[0],[25.522791147232056],['agree_button'],,,,,,,,,,,,,,,,,,,,,,,,,,,,,,,,,,,,,,,,,,,,,,,,,,,,,,,,,,,,,,,,,,,,,,,,,,,,,,,,,,,,,,,,,,,,,,,,,,,,,,,,,,,213,4,2025-03-07_10h53.26.003,comp,2024.2.4,54.74120536774705,2025-03-07 10h53.31.432086 -0500,
,,,,,,,,,,,,,,,,,,,,,,,,,,,,,,,,,,,,,,,,,,,,,,,,,,25.53905463218689,25.539113998413086,,,,,,,,,,,,,,,,,,,,,,,,,,,,,,,,,,,,,,,,,,,,,,,,,,,,,,,,,,,,,,,,,,,,,,,,,,,,,,,,,,,,,,,,,,,,,,,,,,,,,,,,,213,4,2025-03-07_10h53.26.003,comp,2024.2.4,54.74120536774705,2025-03-07 10h53.31.432086 -0500,
,,,,,,,,,,,,,,,,,,,,,,,,,,,,,,,,,,,,,,,,,,,,,,,,,,,,25.53915309906006,25.55461883544922,27.546547889709473,,,,,,,,,,,,,,,,,,,,,,,,,,,,,,,,,,,,,,,,,,,,,,,,,,,,,,,,,,,,,,,,,,,,,,,,,,,,,,,,,,,,,,,,,,,,,,,,,,,,,,213,4,2025-03-07_10h53.26.003,comp,2024.2.4,54.74120536774705,2025-03-07 10h53.31.432086 -0500,
0,0,0,,,,,,,,,,,,,,,0,0,0,0,,,,,,,,,27.563427209854126,,,,,,,,,,,,,,,,,,,,,,,,,,27.547444105148315,27.563427209854126,27.563427209854126,29.049450397491455,32.31695222854614,space,3.2579152584075928,None,32.317097902297974,32.33442258834839,32.33442258834839,33.83181595802307,37.60829734802246,space,3.7707278728485107,None,37.608479261398315,37.637556314468384,37.637556314468384,37.637556314468384,37.637556314468384,37.637556314468384,37.637556314468384,37.637556314468384,37.637556314468384,37.637556314468384,39.11783146858215,45.493398904800415,space,6.372867822647095,None,45.49356293678284,45.513797760009766,45.513797760009766,45.513797760009766,47.002769470214844,51.538626194000244,space,4.528303146362305,None,51.538777112960815,51.554627418518066,51.554627418518066,53.03785037994385,53.57178592681885,space,0.5258259773254395,None,53.571985483169556,53.590895652770996,53.590895652770996,54.47272276878357,space,0.8679490089416504,None,,,,,,,,,,,,,,,,,,,,,,,,,,,,,,,,,,,,,,,,,,,,,,,213,4,2025-03-07_10h53.26.003,comp,2024.2.4,54.74120536774705,2025-03-07 10h53.31.432086 -0500,
0,0,0,critical,hwd,20.0,3.0,lower,133.0,57.0,57.0,133.0,78.0,78.0,2,5.263319969177246,None,,,,,0,0,0,0,0,0,0,104,54.54728436470032,,,,,,,,,,,,,,,,,,,,,,,,,,,,,,,,,,,,,,,,,,,,,,,,,,,,,,,,,,,,,,,,,,,,,,,,,,,,,,,,,133.0,57.0,57.0,133.0,78.0,78.0,3.0,3.2,-191,-264,0,-3,202,270,54.53169798851013,54.53173089027405,54.53294396400452,54.54728436470032,54.69767427444458,54.69767427444458,54.69767427444458,54.69767427444458,54.69767427444458,54.69767427444458,54.69767427444458,59.8237829208374,2,5.263319969177246,None,,,,,,,,,,,,,,,,,,213,4,2025-03-07_10h53.26.003,comp,2024.2.4,54.74120536774705,2025-03-07 10h53.31.432086 -0500,
1,1,0,critical,dwh,35.0,3.0,lower,70.0,70.0,57.0,133.0,133.0,57.0,2,8.823597192764282,None,,,,,0,0,0,0,0,1,1,62,59.84322452545166,,,,,,,,,,,,,,,,,,,,,,,,,,,,,,,,,,,,,,,,,,,,,,,,,,,,,,,,,,,,,,,,,,,,,,,,,,,,,,,,,70.0,70.0,57.0,133.0,133.0,57.0,3.0,3.1,-198,284,0,-4,191,-265,59.82527565956116,59.82538294792175,59.82857155799866,59.84322452545166,59.99509835243225,59.99509835243225,59.99509835243225,59.99509835243225,59.99509835243225,59.99509835243225,59.99509835243225,68.68420886993408,2,8.823597192764282,None,,,,,,,,,,,,,,,,,,213,4,2025-03-07_10h53.26.003,comp,2024.2.4,54.74120536774705,2025-03-07 10h53.31.432086 -0500,
2,2,0,filler_random,None,None,None,None,None,None,None,None,None,None,3,4.357255220413208,None,,,,,0,0,0,0,0,2,2,130,68.70201253890991,,,,,,,,,,,,,,,,,,,,,,,,,,,,,,,,,,,,,,,,,,,,,,,,,,,,,,,,,,,,,,,,,,,,,,,,,,,,,,,,,79.7036178250871,161.43693697292537,169.0176110872021,79.8549829836686,174.6939409517197,114.25447288281828,2.1,2.11,-217,256,0,275,193,-252,68.68591523170471,68.68599319458008,68.68892478942871,68.70201253890991,68.8426125049591,68.8426125049591,68.8426125049591,68.8426125049591,68.8426125049591,68.8426125049591,68.8426125049591,73.06224322319031,3,4.357255220413208,None,,,,,,,,,,,,,,,,,,213,4,2025-03-07_10h53.26.003,comp,2024.2.4,54.74120536774705,2025-03-07 10h53.31.432086 -0500,
3,3,0,filler_random,None,None,None,None,None,None,None,None,None,None,3,3.627408981323242,None,,,,,0,0,0,0,0,3,3,150,73.07919573783875,,,,,,,,,,,,,,,,,,,,,,,,,,,,,,,,,,,,,,,,,,,,,,,,,,,,,,,,,,,,,,,,,,,,,,,,,,,,,,,,,78.01014013163375,197.6372362693603,77.23443618416584,74.67273123320109,162.94240041086988,151.54191078267945,1.0,1.2,-232,-19,0,-13,209,10,73.06399321556091,73.06412768363953,73.06752562522888,73.07919573783875,73.2286365032196,73.2286365032196,73.2286365032196,73.2286365032196,73.2286365032196,73.2286365032196,73.2286365032196,76.71994352340698,3,3.627408981323242,None,,,,,,,,,,,,,,,,,,213,4,2025-03-07_10h53.26.003,comp,2024.2.4,54.74120536774705,2025-03-07 10h53.31.432086 -0500,
4,4,0,filler_square,None,None,None,None,None,None,None,None,None,None,3,8.534781694412231,None,,,,,0,0,0,0,0,4,4,185,76.7406313419342,,,,,,,,,,,,,,,,,,,,,,,,,,,,,,,,,,,,,,,,,,,,,,,,,,,,,,,,,,,,,,,,,,,,,,,,,,,,,,,,,119.35875430105062,119.35875430105062,62.261873110704705,103.77695240201587,109.54144596151266,75.3989568043,2.2,2.22,-208,268,0,-281,186,-274,76.72203159332275,76.72211003303528,76.72530055046082,76.7406313419342,76.88041591644287,76.88041591644287,76.88041591644287,76.88041591644287,76.88041591644287,76.88041591644287,76.88041591644287,85.28247046470642,3,8.534781694412231,None,,,,,,,,,,,,,,,,,,213,4,2025-03-07_10h53.26.003,comp,2024.2.4,54.74120536774705,2025-03-07 10h53.31.432086 -0500,
5,5,0,filler_square,None,None,None,None,None,None,None,None,None,None,3,4.81535267829895,None,,,,,0,0,0,0,0,5,5,203,85.29953789710999,,,,,,,,,,,,,,,,,,,,,,,,,,,,,,,,,,,,,,,,,,,,,,,,,,,,,,,,,,,,,,,,,,,,,,,,,,,,,,,,,62.40653083745535,68.14632501428368,67.7971682513313,58.5983546317849,70.6673609850835,70.6673609850835,2.1,2.12,-159,-271,0,-254,161,254,85.2842345237732,85.28434538841248,85.28750562667847,85.29953789710999,85.44923830032349,85.44923830032349,85.44923830032349,85.44923830032349,85.44923830032349,85.44923830032349,85.44923830032349,90.13392996788025,3,4.81535267829895,None,,,,,,,,,,,,,,,,,,213,4,2025-03-07_10h53.26.003,comp,2024.2.4,54.74120536774705,2025-03-07 10h53.31.432086 -0500,
6,6,0,critical,whd,20.0,2.1,lower,57.0,133.0,133.0,57.0,78.0,78.0,1,6.342568397521973,None,,,,,0,0,0,0,0,6,6,38,90.14985179901123,,,,,,,,,,,,,,,,,,,,,,,,,,,,,,,,,,,,,,,,,,,,,,,,,,,,,,,,,,,,,,,,,,,,,,,,,,,,,,,,,57.0,133.0,133.0,57.0,78.0,78.0,2.1,2.12,-191,-262,0,-259,164,250,90.13532948493958,90.13541340827942,90.13853526115417,90.14985179901123,90.29038333892822,90.29038333892822,90.29038333892822,90.29038333892822,90.29038333892822,90.29038333892822,90.29038333892822,96.50799322128296,1,6.342568397521973,None,,,,,,,,,,,,,,,,,,213,4,2025-03-07_10h53.26.003,comp,2024.2.4,54.74120536774705,2025-03-07 10h53.31.432086 -0500,
7,7,0,filler_square,None,None,None,None,None,None,None,None,None,None,2,2.502593517303467,None,,,,,0,0,0,0,0,7,7,188,96.52391362190247,,,,,,,,,,,,,,,,,,,,,,,,,,,,,,,,,,,,,,,,,,,,,,,,,,,,,,,,,,,,,,,,,,,,,,,,,,,,,,,,,92.91788512255951,125.53778873237253,126.43542758222739,126.43542758222739,59.74743286441989,107.0229686771821,1.0,1.1,-702,271,-480,281,-267,270,96.50978350639343,96.50985932350159,96.51276063919067,96.52391362190247,96.66646933555603,96.66646933555603,96.66646933555603,96.66646933555603,96.66646933555603,96.66646933555603,96.66646933555603,99.0460913181305,2,2.502593517303467,None,,,,,,,,,,,,,,,,,,213,4,2025-03-07_10h53.26.003,comp,2024.2.4,54.74120536774705,2025-03-07 10h53.31.432086 -0500,
8,8,0,critical,hdw,35.0,2.1,upper,200.0,125.0,127.0,127.0,125.0,200.0,3,2.328352212905884,None,,,,,0,0,0,0,0,8,8,21,99.06668138504028,,,,,,,,,,,,,,,,,,,,,,,,,,,,,,,,,,,,,,,,,,,,,,,,,,,,,,,,,,,,,,,,,,,,,,,,,,,,,,,,,200.0,125.0,127.0,127.0,125.0,200.0,2.1,2.12,-222,-269,0,-267,260,273,99.04771637916565,99.04779171943665,99.05136704444885,99.06668138504028,99.20377373695374,99.20377373695374,99.20377373695374,99.20377373695374,99.20377373695374,99.20377373695374,99.20377373695374,101.40388107299805,3,2.328352212905884,None,,,,,,,,,,,,,,,,,,213,4,2025-03-07_10h53.26.003,comp,2024.2.4,54.74120536774705,2025-03-07 10h53.31.432086 -0500,
9,9,0,filler_random,None,None,None,None,None,None,None,None,None,None,2,6.9502904415130615,None,,,,,0,0,0,0,0,9,9,160,101.42072796821594,,,,,,,,,,,,,,,,,,,,,,,,,,,,,,,,,,,,,,,,,,,,,,,,,,,,,,,,,,,,,,,,,,,,,,,,,,,,,,,,,179.89343935817908,189.3875502777524,151.4049172676663,197.8103344350372,112.88423775639146,164.31949348650522,3.0,3.1,-290,259,0,9,277,-288,101.40570425987244,101.40579509735107,101.40905499458313,101.42072796821594,101.56852078437805,101.56852078437805,101.56852078437805,101.56852078437805,101.56852078437805,101.56852078437805,101.56852078437805,108.37620520591736,2,6.9502904415130615,None,,,,,,,,,,,,,,,,,,213,4,2025-03-07_10h53.26.003,comp,2024.2.4,54.74120536774705,2025-03-07 10h53.31.432086 -0500,
10,10,0,critical,dhw,20.0,4.0,upper,141.0,141.0,200.0,125.0,125.0,200.0,3,4.578315734863281,None,,,,,0,0,0,0,0,10,10,59,108.39228129386902,,,,,,,,,,,,,,,,,,,,,,,,,,,,,,,,,,,,,,,,,,,,,,,,,,,,,,,,,,,,,,,,,,,,,,,,,,,,,,,,,141.0,141.0,200.0,125.0,125.0,200.0,4.0,4.2,-229,11,0,-256,258,-3,108.37784123420715,108.37794041633606,108.38146543502808,108.39228129386902,108.53984522819519,108.53984522819519,108.53984522819519,108.53984522819519,108.53984522819519,108.53984522819519,108.53984522819519,112.97492408752441,3,4.578315734863281,None,,,,,,,,,,,,,,,,,,213,4,2025-03-07_10h53.26.003,comp,2024.2.4,54.74120536774705,2025-03-07 10h53.31.432086 -0500,
11,11,0,critical,hdw,20.0,2.1,upper,200.0,125.0,141.0,141.0,125.0,200.0,3,3.2283425331115723,None,,,,,0,0,0,0,0,11,11,23,112.99100732803345,,,,,,,,,,,,,,,,,,,,,,,,,,,,,,,,,,,,,,,,,,,,,,,,,,,,,,,,,,,,,,,,,,,,,,,,,,,,,,,,,200.0,125.0,141.0,141.0,125.0,200.0,2.1,2.11,-229,265,0,272,266,-259,112.9764506816864,112.97652912139893,112.98007345199585,112.99100732803345,113.13936614990234,113.13936614990234,113.13936614990234,113.13936614990234,113.13936614990234,113.13936614990234,113.13936614990234,116.22477006912231,3,3.2283425331115723,None,,,,,,,,,,,,,,,,,,213,4,2025-03-07_10h53.26.003,comp,2024.2.4,54.74120536774705,2025-03-07 10h53.31.432086 -0500,
12,12,0,critical,hwd,35.0,1.0,lower,133.0,57.0,57.0,133.0,70.0,70.0,1,6.354411363601685,None,,,,,0,0,0,0,0,12,12,96,116.24047541618347,,,,,,,,,,,,,,,,,,,,,,,,,,,,,,,,,,,,,,,,,,,,,,,,,,,,,,,,,,,,,,,,,,,,,,,,,,,,,,,,,133.0,57.0,57.0,133.0,70.0,70.0,1.0,1.1,-671,277,-480,255,-282,286,116.22618889808655,116.2262647151947,116.22931838035583,116.24047541618347,116.38844394683838,116.38844394683838,116.38844394683838,116.38844394683838,116.38844394683838,116.38844394683838,116.38844394683838,122.59769439697266,1,6.354411363601685,None,,,,,,,,,,,,,,,,,,213,4,2025-03-07_10h53.26.003,comp,2024.2.4,54.74120536774705,2025-03-07 10h53.31.432086 -0500,
13,13,0,filler_square,None,None,None,None,None,None,None,None,None,None,1,2.9925878047943115,None,,,,,0,0,0,0,0,13,13,191,122.61807918548584,,,,,,,,,,,,,,,,,,,,,,,,,,,,,,,,,,,,,,,,,,,,,,,,,,,,,,,,,,,,,,,,,,,,,,,,,,,,,,,,,99.14845816109201,99.14845816109201,81.90831042598847,79.55683697504706,75.64621982114197,97.65643957098163,4.0,4.2,-185,-16,0,-280,185,12,122.59954810142517,122.5996265411377,122.60252714157104,122.61807918548584,122.76042175292969,122.76042175292969,122.76042175292969,122.76042175292969,122.76042175292969,122.76042175292969,122.76042175292969,125.62886548042297,1,2.9925878047943115,None,,,,,,,,,,,,,,,,,,213,4,2025-03-07_10h53.26.003,comp,2024.2.4,54.74120536774705,2025-03-07 10h53.31.432086 -0500,
14,14,0,filler_random,None,None,None,None,None,None,None,None,None,None,1,2.741870164871216,None,,,,,0,0,0,0,0,14,14,143,125.64470481872559,,,,,,,,,,,,,,,,,,,,,,,,,,,,,,,,,,,,,,,,,,,,,,,,,,,,,,,,,,,,,,,,,,,,,,,,,,,,,,,,,139.3458582752892,122.80347751421458,72.17603109698284,117.16333112781044,109.71889190017737,113.72730264960566,1.0,1.1,-696,272,-480,267,-269,288,125.63077926635742,125.63085508346558,125.63438439369202,125.64470481872559,125.7942545413971,125.7942545413971,125.7942545413971,125.7942545413971,125.7942545413971,125.7942545413971,125.7942545413971,128.3974244594574,1,2.741870164871216,None,,,,,,,,,,,,,,,,,,213,4,2025-03-07_10h53.26.003,comp,2024.2.4,54.74120536774705,2025-03-07 10h53.31.432086 -0500,
15,15,0,critical,hdw,35.0,1.0,upper,200.0,125.0,127.0,127.0,125.0,200.0,3,3.1511948108673096,None,,,,,0,0,0,0,0,15,15,109,128.41184496879578,,,,,,,,,,,,,,,,,,,,,,,,,,,,,,,,,,,,,,,,,,,,,,,,,,,,,,,,,,,,,,,,,,,,,,,,,,,,,,,,,200.0,125.0,127.0,127.0,125.0,200.0,1.0,1.3,258,-265,480,-256,740,-262,128.3989293575287,128.39904308319092,128.40224719047546,128.41184496879578,128.56148552894592,128.56148552894592,128.56148552894592,128.56148552894592,128.56148552894592,128.56148552894592,128.56148552894592,131.56673002243042,3,3.1511948108673096,None,,,,,,,,,,,,,,,,,,213,4,2025-03-07_10h53.26.003,comp,2024.2.4,54.74120536774705,2025-03-07 10h53.31.432086 -0500,
16,16,0,filler_square,None,None,None,None,None,None,None,None,None,None,2,6.1160712242126465,None,,,,,0,0,0,0,0,16,16,192,131.5824840068817,,,,,,,,,,,,,,,,,,,,,,,,,,,,,,,,,,,,,,,,,,,,,,,,,,,,,,,,,,,,,,,,,,,,,,,,,,,,,,,,,57.033532638426806,60.974932337253584,61.64735013599995,61.64735013599995,57.999089648313586,58.199938126022694,3.0,3.1,-157,285,0,-8,156,-287,131.56857991218567,131.56866025924683,131.5718286037445,131.5824840068817,131.73172235488892,131.73172235488892,131.73172235488892,131.73172235488892,131.73172235488892,131.73172235488892,131.73172235488892,137.71500039100647,2,6.1160712242126465,None,,,,,,,,,,,,,,,,,,213,4,2025-03-07_10h53.26.003,comp,2024.2.4,54.74120536774705,2025-03-07 10h53.31.432086 -0500,
17,17,0,critical,hdw,20.0,1.0,upper,200.0,125.0,141.0,141.0,125.0,200.0,3,6.423445224761963,None,,,,,0,0,0,0,0,17,17,115,137.73123335838318,,,,,,,,,,,,,,,,,,,,,,,,,,,,,,,,,,,,,,,,,,,,,,,,,,,,,,,,,,,,,,,,,,,,,,,,,,,,,,,,,200.0,125.0,141.0,141.0,125.0,200.0,1.0,1.2,-229,-18,0,-4,266,-13,137.71661376953125,137.71671080589294,137.7200164794922,137.73123335838318,137.8810431957245,137.8810431957245,137.8810431957245,137.8810431957245,137.8810431957245,137.8810431957245,137.8810431957245,144.16893696784973,3,6.423445224761963,None,,,,,,,,,,,,,,,,,,213,4,2025-03-07_10h53.26.003,comp,2024.2.4,54.74120536774705,2025-03-07 10h53.31.432086 -0500,
18,18,0,critical,wdh,35.0,4.0,upper,125.0,200.0,127.0,127.0,200.0,125.0,1,6.596290588378906,None,,,,,0,0,0,0,0,18,18,77,144.18446826934814,,,,,,,,,,,,,,,,,,,,,,,,,,,,,,,,,,,,,,,,,,,,,,,,,,,,,,,,,,,,,,,,,,,,,,,,,,,,,,,,,125.0,200.0,127.0,127.0,200.0,125.0,4.0,4.1,-260,-260,0,-18,222,-256,144.1704421043396,144.1705186367035,144.17365717887878,144.18446826934814,144.3314230442047,144.3314230442047,144.3314230442047,144.3314230442047,144.3314230442047,144.3314230442047,144.3314230442047,150.78571200370789,1,6.596290588378906,None,,,,,,,,,,,,,,,,,,213,4,2025-03-07_10h53.26.003,comp,2024.2.4,54.74120536774705,2025-03-07 10h53.31.432086 -0500,
19,19,0,filler_random,None,None,None,None,None,None,None,None,None,None,1,4.2371110916137695,None,,,,,0,0,0,0,0,19,19,141,150.80546736717224,,,,,,,,,,,,,,,,,,,,,,,,,,,,,,,,,,,,,,,,,,,,,,,,,,,,,,,,,,,,,,,,,,,,,,,,,,,,,,,,,114.03149185582532,191.36639706160094,147.79500493243148,77.09138188421258,109.5145194448059,134.29402132814153,3.0,3.1,-230,254,0,2,202,-255,150.78771209716797,150.78779125213623,150.79077124595642,150.80546736717224,150.95251512527466,150.95251512527466,150.95251512527466,150.95251512527466,150.95251512527466,150.95251512527466,150.95251512527466,155.0535478591919,1,4.2371110916137695,None,,,,,,,,,,,,,,,,,,213,4,2025-03-07_10h53.26.003,comp,2024.2.4,54.74120536774705,2025-03-07 10h53.31.432086 -0500,
20,20,0,filler_square,None,None,None,None,None,None,None,None,None,None,3,11.811120510101318,None,,,,,0,0,0,0,0,20,20,176,155.0715925693512,,,,,,,,,,,,,,,,,,,,,,,,,,,,,,,,,,,,,,,,,,,,,,,,,,,,,,,,,,,,,,,,,,,,,,,,,,,,,,,,,61.8918253401816,99.18847133793486,77.36388779166909,78.47780562487563,110.1339588583765,110.1339588583765,2.1,2.11,-185,275,0,255,190,-252,155.05536127090454,155.0554416179657,155.05856108665466,155.0715925693512,155.22245144844055,155.22245144844055,155.22245144844055,155.22245144844055,155.22245144844055,155.22245144844055,155.22245144844055,166.89926099777222,3,11.811120510101318,None,,,,,,,,,,,,,,,,,,213,4,2025-03-07_10h53.26.003,comp,2024.2.4,54.74120536774705,2025-03-07 10h53.31.432086 -0500,
21,21,0,filler_square,None,None,None,None,None,None,None,None,None,None,3,2.7738890647888184,None,,,,,0,0,0,0,0,21,21,199,166.91675662994385,,,,,,,,,,,,,,,,,,,,,,,,,,,,,,,,,,,,,,,,,,,,,,,,,,,,,,,,,,,,,,,,,,,,,,,,,,,,,,,,,124.12230973186988,91.0732053850846,164.1546266651763,113.66594624638961,172.37599514255857,172.37599514255857,1.0,1.3,282,-251,480,-272,719,-263,166.90099573135376,166.90106964111328,166.903981924057,166.91675662994385,167.05863904953003,167.05863904953003,167.05863904953003,167.05863904953003,167.05863904953003,167.05863904953003,167.05863904953003,169.69388699531555,3,2.7738890647888184,None,,,,,,,,,,,,,,,,,,213,4,2025-03-07_10h53.26.003,comp,2024.2.4,54.74120536774705,2025-03-07 10h53.31.432086 -0500,
22,22,0,critical,hdw,35.0,2.1,lower,133.0,57.0,70.0,70.0,57.0,133.0,3,2.9087460041046143,None,,,,,0,0,0,0,0,22,22,44,169.71011471748352,,,,,,,,,,,,,,,,,,,,,,,,,,,,,,,,,,,,,,,,,,,,,,,,,,,,,,,,,,,,,,,,,,,,,,,,,,,,,,,,,133.0,57.0,70.0,70.0,57.0,133.0,2.1,2.12,-160,-286,0,-265,198,284,169.69532561302185,169.69541573524475,169.69926619529724,169.71011471748352,169.85896110534668,169.85896110534668,169.85896110534668,169.85896110534668,169.85896110534668,169.85896110534668,169.85896110534668,172.6298267841339,3,2.9087460041046143,None,,,,,,,,,,,,,,,,,,213,4,2025-03-07_10h53.26.003,comp,2024.2.4,54.74120536774705,2025-03-07 10h53.31.432086 -0500,
23,23,0,filler_random,None,None,None,None,None,None,None,None,None,None,2,2.8908302783966064,None,,,,,0,0,0,0,0,23,23,138,172.64824795722961,,,,,,,,,,,,,,,,,,,,,,,,,,,,,,,,,,,,,,,,,,,,,,,,,,,,,,,,,,,,,,,,,,,,,,,,,,,,,,,,,120.42504754219675,183.5770633537595,195.42713314275372,185.63478967787862,58.38871501967529,177.4031303290704,2.1,2.12,-281,-257,0,-260,278,275,172.63162326812744,172.6317584514618,172.63502955436707,172.64824795722961,172.7936327457428,172.7936327457428,172.7936327457428,172.7936327457428,172.7936327457428,172.7936327457428,172.7936327457428,175.5449140071869,2,2.8908302783966064,None,,,,,,,,,,,,,,,,,,213,4,2025-03-07_10h53.26.003,comp,2024.2.4,54.74120536774705,2025-03-07 10h53.31.432086 -0500,
24,24,0,critical,dhw,35.0,3.0,lower,70.0,70.0,133.0,57.0,57.0,133.0,3,10.034264326095581,None,,,,,0,0,0,0,0,24,24,50,175.56043529510498,,,,,,,,,,,,,,,,,,,,,,,,,,,,,,,,,,,,,,,,,,,,,,,,,,,,,,,,,,,,,,,,,,,,,,,,,,,,,,,,,70.0,70.0,133.0,57.0,57.0,133.0,3.0,3.1,-160,262,0,-19,191,-285,175.5464105606079,175.5464870929718,175.54947185516357,175.56043529510498,175.71409940719604,175.71409940719604,175.71409940719604,175.71409940719604,175.71409940719604,175.71409940719604,175.71409940719604,185.59725737571716,3,10.034264326095581,None,,,,,,,,,,,,,,,,,,213,4,2025-03-07_10h53.26.003,comp,2024.2.4,54.74120536774705,2025-03-07 10h53.31.432086 -0500,
25,25,0,critical,hwd,35.0,4.0,lower,133.0,57.0,57.0,133.0,70.0,70.0,1,4.414351224899292,None,,,,,0,0,0,0,0,25,25,100,185.61307835578918,,,,,,,,,,,,,,,,,,,,,,,,,,,,,,,,,,,,,,,,,,,,,,,,,,,,,,,,,,,,,,,,,,,,,,,,,,,,,,,,,133.0,57.0,57.0,133.0,70.0,70.0,4.0,4.1,-191,-280,0,6,198,-256,185.5988404750824,185.59891986846924,185.60213923454285,185.61307835578918,185.7708671092987,185.7708671092987,185.7708671092987,185.7708671092987,185.7708671092987,185.7708671092987,185.7708671092987,190.03099751472473,1,4.414351224899292,None,,,,,,,,,,,,,,,,,,213,4,2025-03-07_10h53.26.003,comp,2024.2.4,54.74120536774705,2025-03-07 10h53.31.432086 -0500,
26,26,0,critical,whd,20.0,1.0,lower,57.0,133.0,133.0,57.0,78.0,78.0,1,6.604184865951538,None,,,,,0,0,0,0,0,26,26,90,190.04675960540771,,,,,,,,,,,,,,,,,,,,,,,,,,,,,,,,,,,,,,,,,,,,,,,,,,,,,,,,,,,,,,,,,,,,,,,,,,,,,,,,,57.0,133.0,133.0,57.0,78.0,78.0,1.0,1.3,289,-278,480,-276,644,-262,190.03257036209106,190.03265047073364,190.0357789993286,190.04675960540771,190.20014214515686,190.20014214515686,190.20014214515686,190.20014214515686,190.20014214515686,190.20014214515686,190.20014214515686,196.65376710891724,1,6.604184865951538,None,,,,,,,,,,,,,,,,,,213,4,2025-03-07_10h53.26.003,comp,2024.2.4,54.74120536774705,2025-03-07 10h53.31.432086 -0500,
27,27,0,critical,whd,35.0,2.1,upper,125.0,200.0,200.0,125.0,127.0,127.0,1,5.357731580734253,None,,,,,0,0,0,0,0,27,27,13,196.67007088661194,,,,,,,,,,,,,,,,,,,,,,,,,,,,,,,,,,,,,,,,,,,,,,,,,,,,,,,,,,,,,,,,,,,,,,,,,,,,,,,,,125.0,200.0,200.0,125.0,127.0,127.0,2.1,2.11,-258,283,0,253,222,-262,196.65567278862,196.65575075149536,196.65911555290222,196.67007088661194,196.8185362815857,196.8185362815857,196.8185362815857,196.8185362815857,196.8185362815857,196.8185362815857,196.8185362815857,202.0386562347412,1,5.357731580734253,None,,,,,,,,,,,,,,,,,,213,4,2025-03-07_10h53.26.003,comp,2024.2.4,54.74120536774705,2025-03-07 10h53.31.432086 -0500,
28,28,0,critical,dhw,20.0,2.1,lower,78.0,78.0,133.0,57.0,57.0,133.0,3,7.322707653045654,None,,,,,0,0,0,0,0,28,28,26,202.05694270133972,,,,,,,,,,,,,,,,,,,,,,,,,,,,,,,,,,,,,,,,,,,,,,,,,,,,,,,,,,,,,,,,,,,,,,,,,,,,,,,,,78.0,78.0,133.0,57.0,57.0,133.0,2.1,2.12,-164,-287,0,-281,191,267,202.04024577140808,202.04043221473694,202.0435791015625,202.05694270133972,202.2029185295105,202.2029185295105,202.2029185295105,202.2029185295105,202.2029185295105,202.2029185295105,202.2029185295105,209.3899428844452,3,7.322707653045654,None,,,,,,,,,,,,,,,,,,213,4,2025-03-07_10h53.26.003,comp,2024.2.4,54.74120536774705,2025-03-07 10h53.31.432086 -0500,
29,29,0,filler_random,None,None,None,None,None,None,None,None,None,None,2,2.6844661235809326,None,,,,,0,0,0,0,0,29,29,156,209.40622782707214,,,,,,,,,,,,,,,,,,,,,,,,,,,,,,,,,,,,,,,,,,,,,,,,,,,,,,,,,,,,,,,,,,,,,,,,,,,,,,,,,168.15296907543603,65.70606169395563,158.85528326506358,120.44080062472264,68.45852043281147,163.61233827009255,3.0,3.2,-189,-275,0,-2,238,281,209.39182329177856,209.39190196990967,209.3954303264618,209.40622782707214,209.55823874473572,209.55823874473572,209.55823874473572,209.55823874473572,209.55823874473572,209.55823874473572,209.55823874473572,212.10550165176392,2,2.6844661235809326,None,,,,,,,,,,,,,,,,,,213,4,2025-03-07_10h53.26.003,comp,2024.2.4,54.74120536774705,2025-03-07 10h53.31.432086 -0500,
30,30,0,critical,hwd,35.0,4.0,upper,200.0,125.0,125.0,200.0,127.0,127.0,1,3.6090633869171143,None,,,,,0,0,0,0,0,30,30,101,212.12181329727173,,,,,,,,,,,,,,,,,,,,,,,,,,,,,,,,,,,,,,,,,,,,,,,,,,,,,,,,,,,,,,,,,,,,,,,,,,,,,,,,,200.0,125.0,125.0,200.0,127.0,127.0,4.0,4.1,-258,-272,0,10,260,-267,212.10703659057617,212.10711479187012,212.11024260520935,212.12181329727173,212.27097153663635,212.27097153663635,212.27097153663635,212.27097153663635,212.27097153663635,212.27097153663635,212.27097153663635,215.7493758201599,1,3.6090633869171143,None,,,,,,,,,,,,,,,,,,213,4,2025-03-07_10h53.26.003,comp,2024.2.4,54.74120536774705,2025-03-07 10h53.31.432086 -0500,
31,31,0,critical,wdh,35.0,1.0,lower,57.0,133.0,70.0,70.0,133.0,57.0,1,4.366590738296509,None,,,,,0,0,0,0,0,31,31,72,215.764075756073,,,,,,,,,,,,,,,,,,,,,,,,,,,,,,,,,,,,,,,,,,,,,,,,,,,,,,,,,,,,,,,,,,,,,,,,,,,,,,,,,57.0,133.0,70.0,70.0,133.0,57.0,1.0,1.2,-198,17,0,2,160,-13,215.7507951259613,215.75087189674377,215.753751039505,215.764075756073,215.9076747894287,215.9076747894287,215.9076747894287,215.9076747894287,215.9076747894287,215.9076747894287,215.9076747894287,220.14092755317688,1,4.366590738296509,None,,,,,,,,,,,,,,,,,,213,4,2025-03-07_10h53.26.003,comp,2024.2.4,54.74120536774705,2025-03-07 10h53.31.432086 -0500,
32,32,0,critical,dhw,35.0,2.1,upper,127.0,127.0,200.0,125.0,125.0,200.0,3,5.223373889923096,None,,,,,0,0,0,0,0,32,32,25,220.16384148597717,,,,,,,,,,,,,,,,,,,,,,,,,,,,,,,,,,,,,,,,,,,,,,,,,,,,,,,,,,,,,,,,,,,,,,,,,,,,,,,,,127.0,127.0,200.0,125.0,125.0,200.0,2.1,2.12,-222,-265,0,-282,258,260,220.14249658584595,220.14257502555847,220.14580988883972,220.16384148597717,220.30910086631775,220.30910086631775,220.30910086631775,220.30910086631775,220.30910086631775,220.30910086631775,220.30910086631775,225.3961000442505,3,5.223373889923096,None,,,,,,,,,,,,,,,,,,213,4,2025-03-07_10h53.26.003,comp,2024.2.4,54.74120536774705,2025-03-07 10h53.31.432086 -0500,
33,33,0,critical,wdh,20.0,1.0,upper,125.0,200.0,141.0,141.0,200.0,125.0,1,3.0838775634765625,None,,,,,0,0,0,0,0,33,33,79,225.4160861968994,,,,,,,,,,,,,,,,,,,,,,,,,,,,,,,,,,,,,,,,,,,,,,,,,,,,,,,,,,,,,,,,,,,,,,,,,,,,,,,,,125.0,200.0,141.0,141.0,200.0,125.0,1.0,1.2,-266,11,0,-6,229,-16,225.39792776107788,225.3980565071106,225.40132856369019,225.4160861968994,225.5608229637146,225.5608229637146,225.5608229637146,225.5608229637146,225.5608229637146,225.5608229637146,225.5608229637146,228.51552057266235,1,3.0838775634765625,None,,,,,,,,,,,,,,,,,,213,4,2025-03-07_10h53.26.003,comp,2024.2.4,54.74120536774705,2025-03-07 10h53.31.432086 -0500,
34,34,0,critical,dhw,20.0,2.1,upper,141.0,141.0,200.0,125.0,125.0,200.0,3,4.486964702606201,None,,,,,0,0,0,0,0,34,34,3,228.5318238735199,,,,,,,,,,,,,,,,,,,,,,,,,,,,,,,,,,,,,,,,,,,,,,,,,,,,,,,,,,,,,,,,,,,,,,,,,,,,,,,,,141.0,141.0,200.0,125.0,125.0,200.0,2.1,2.12,-229,-288,0,-262,258,279,228.51710963249207,228.51718473434448,228.5205066204071,228.5318238735199,228.6754982471466,228.6754982471466,228.6754982471466,228.6754982471466,228.6754982471466,228.6754982471466,228.6754982471466,233.02098202705383,3,4.486964702606201,None,,,,,,,,,,,,,,,,,,213,4,2025-03-07_10h53.26.003,comp,2024.2.4,54.74120536774705,2025-03-07 10h53.31.432086 -0500,
35,35,0,critical,wdh,35.0,2.1,upper,125.0,200.0,127.0,127.0,200.0,125.0,1,3.116022825241089,None,,,,,0,0,0,0,0,35,35,9,233.03864812850952,,,,,,,,,,,,,,,,,,,,,,,,,,,,,,,,,,,,,,,,,,,,,,,,,,,,,,,,,,,,,,,,,,,,,,,,,,,,,,,,,125.0,200.0,127.0,127.0,200.0,125.0,2.1,2.11,-260,255,0,254,222,-265,233.022540807724,233.02262043952942,233.02559447288513,233.03864812850952,233.17902183532715,233.17902183532715,233.17902183532715,233.17902183532715,233.17902183532715,233.17902183532715,233.17902183532715,236.16636872291565,1,3.116022825241089,None,,,,,,,,,,,,,,,,,,213,4,2025-03-07_10h53.26.003,comp,2024.2.4,54.74120536774705,2025-03-07 10h53.31.432086 -0500,
36,36,0,critical,whd,35.0,2.1,lower,57.0,133.0,133.0,57.0,70.0,70.0,1,4.732883930206299,None,,,,,0,0,0,0,0,36,36,36,236.18180871009827,,,,,,,,,,,,,,,,,,,,,,,,,,,,,,,,,,,,,,,,,,,,,,,,,,,,,,,,,,,,,,,,,,,,,,,,,,,,,,,,,57.0,133.0,133.0,57.0,70.0,70.0,2.1,2.11,-191,250,0,287,160,-254,236.1680772304535,236.16815972328186,236.17109608650208,236.18180871009827,236.32994604110718,236.32994604110718,236.32994604110718,236.32994604110718,236.32994604110718,236.32994604110718,236.32994604110718,240.93113899230957,1,4.732883930206299,None,,,,,,,,,,,,,,,,,,213,4,2025-03-07_10h53.26.003,comp,2024.2.4,54.74120536774705,2025-03-07 10h53.31.432086 -0500,
37,37,0,critical,whd,35.0,4.0,upper,125.0,200.0,200.0,125.0,127.0,127.0,1,5.167982816696167,None,,,,,0,0,0,0,0,37,37,89,240.9469120502472,,,,,,,,,,,,,,,,,,,,,,,,,,,,,,,,,,,,,,,,,,,,,,,,,,,,,,,,,,,,,,,,,,,,,,,,,,,,,,,,,125.0,200.0,200.0,125.0,127.0,127.0,4.0,4.1,-258,-276,0,-16,222,-286,240.93276572227478,240.9328429698944,240.93653106689453,240.9469120502472,241.09739208221436,241.09739208221436,241.09739208221436,241.09739208221436,241.09739208221436,241.09739208221436,241.09739208221436,246.13561487197876,1,5.167982816696167,None,,,,,,,,,,,,,,,,,,213,4,2025-03-07_10h53.26.003,comp,2024.2.4,54.74120536774705,2025-03-07 10h53.31.432086 -0500,
38,38,0,filler_random,None,None,None,None,None,None,None,None,None,None,3,2.449093818664551,None,,,,,0,0,0,0,0,38,38,155,246.15359592437744,,,,,,,,,,,,,,,,,,,,,,,,,,,,,,,,,,,,,,,,,,,,,,,,,,,,,,,,,,,,,,,,,,,,,,,,,,,,,,,,,141.39879925085307,185.22935288736306,59.41973213472023,61.27870542657318,171.70018424917697,187.51117669583883,1.0,1.2,-219,16,0,4,220,-16,246.13757133483887,246.13764929771423,246.14102816581726,246.15359592437744,246.29974699020386,246.29974699020386,246.29974699020386,246.29974699020386,246.29974699020386,246.29974699020386,246.29974699020386,248.61658239364624,3,2.449093818664551,None,,,,,,,,,,,,,,,,,,213,4,2025-03-07_10h53.26.003,comp,2024.2.4,54.74120536774705,2025-03-07 10h53.31.432086 -0500,
39,39,0,filler_square,None,None,None,None,None,None,None,None,None,None,1,3.9759984016418457,None,,,,,0,0,0,0,0,39,39,189,248.63533282279968,,,,,,,,,,,,,,,,,,,,,,,,,,,,,,,,,,,,,,,,,,,,,,,,,,,,,,,,,,,,,,,,,,,,,,,,,,,,,,,,,185.39021210555393,185.39021210555393,78.0251826803262,172.7261873267908,57.246574455118854,90.0926505221804,1.0,1.1,-755,268,-480,252,-253,280,248.6186022758484,248.61868047714233,248.6219892501831,248.63533282279968,248.78529572486877,248.78529572486877,248.78529572486877,248.78529572486877,248.78529572486877,248.78529572486877,248.78529572486877,252.61942219734192,1,3.9759984016418457,None,,,,,,,,,,,,,,,,,,213,4,2025-03-07_10h53.26.003,comp,2024.2.4,54.74120536774705,2025-03-07 10h53.31.432086 -0500,
40,40,0,filler_random,None,None,None,None,None,None,None,None,None,None,2,2.629605531692505,None,,,,,0,0,0,0,0,40,40,148,252.6378116607666,,,,,,,,,,,,,,,,,,,,,,,,,,,,,,,,,,,,,,,,,,,,,,,,,,,,,,,,,,,,,,,,,,,,,,,,,,,,,,,,,61.07854218403168,81.5755799603567,97.80915370581928,186.63469825762914,99.47389176222808,114.52524296007965,3.0,3.1,-230,278,0,-16,247,-288,252.62133526802063,252.62142252922058,252.62471532821655,252.6378116607666,252.7865526676178,252.7865526676178,252.7865526676178,252.7865526676178,252.7865526676178,252.7865526676178,252.7865526676178,255.26966762542725,2,2.629605531692505,None,,,,,,,,,,,,,,,,,,213,4,2025-03-07_10h53.26.003,comp,2024.2.4,54.74120536774705,2025-03-07 10h53.31.432086 -0500,
41,41,0,filler_random,None,None,None,None,None,None,None,None,None,None,2,2.188410758972168,None,,,,,0,0,0,0,0,41,41,167,255.2864716053009,,,,,,,,,,,,,,,,,,,,,,,,,,,,,,,,,,,,,,,,,,,,,,,,,,,,,,,,,,,,,,,,,,,,,,,,,,,,,,,,,155.9631830444638,163.45344314120814,199.29855853162815,183.32785301011035,88.88395880839299,138.9191682790293,2.1,2.11,-269,285,0,269,257,-274,255.27129745483398,255.27140307426453,255.27482676506042,255.2864716053009,255.43504905700684,255.43504905700684,255.43504905700684,255.43504905700684,255.43504905700684,255.43504905700684,255.43504905700684,257.4866187572479,2,2.188410758972168,None,,,,,,,,,,,,,,,,,,213,4,2025-03-07_10h53.26.003,comp,2024.2.4,54.74120536774705,2025-03-07 10h53.31.432086 -0500,
42,42,0,filler_random,None,None,None,None,None,None,None,None,None,None,1,4.644183397293091,None,,,,,0,0,0,0,0,42,42,164,257.50338530540466,,,,,,,,,,,,,,,,,,,,,,,,,,,,,,,,,,,,,,,,,,,,,,,,,,,,,,,,,,,,,,,,,,,,,,,,,,,,,,,,,194.13867687258667,176.74795537742617,94.20157217111777,178.93779521004984,114.8361114616516,90.66769375291669,1.0,1.1,-754,287,-480,288,-249,275,257.4883427619934,257.48842191696167,257.4917194843292,257.50338530540466,257.6594033241272,257.6594033241272,257.6594033241272,257.6594033241272,257.6594033241272,257.6594033241272,257.6594033241272,262.15586376190186,1,4.644183397293091,None,,,,,,,,,,,,,,,,,,213,4,2025-03-07_10h53.26.003,comp,2024.2.4,54.74120536774705,2025-03-07 10h53.31.432086 -0500,
43,43,0,critical,hwd,20.0,2.1,upper,200.0,125.0,125.0,200.0,141.0,141.0,2,3.375340461730957,None,,,,,0,0,0,0,0,43,43,43,262.1722755432129,,,,,,,,,,,,,,,,,,,,,,,,,,,,,,,,,,,,,,,,,,,,,,,,,,,,,,,,,,,,,,,,,,,,,,,,,,,,,,,,,200.0,125.0,125.0,200.0,141.0,141.0,2.1,2.12,-258,-280,0,-290,266,250,262.1576271057129,262.15776681900024,262.16144847869873,262.1722755432129,262.3223536014557,262.3223536014557,262.3223536014557,262.3223536014557,262.3223536014557,262.3223536014557,262.3223536014557,265.5561182498932,2,3.375340461730957,None,,,,,,,,,,,,,,,,,,213,4,2025-03-07_10h53.26.003,comp,2024.2.4,54.74120536774705,2025-03-07 10h53.31.432086 -0500,
44,44,0,filler_random,None,None,None,None,None,None,None,None,None,None,3,4.175082206726074,None,,,,,0,0,0,0,0,44,44,137,265.5720088481903,,,,,,,,,,,,,,,,,,,,,,,,,,,,,,,,,,,,,,,,,,,,,,,,,,,,,,,,,,,,,,,,,,,,,,,,,,,,,,,,,70.1961203550987,193.15874015057892,64.42853271442148,187.12835434550888,155.87188661885682,179.45201566634978,2.2,2.22,-286,286,0,-255,279,-289,265.55776286125183,265.5578408241272,265.56118845939636,265.5720088481903,265.7240993976593,265.7240993976593,265.7240993976593,265.7240993976593,265.7240993976593,265.7240993976593,265.7240993976593,269.75616550445557,3,4.175082206726074,None,,,,,,,,,,,,,,,,,,213,4,2025-03-07_10h53.26.003,comp,2024.2.4,54.74120536774705,2025-03-07 10h53.31.432086 -0500,
45,45,0,critical,hdw,20.0,1.0,lower,133.0,57.0,78.0,78.0,57.0,133.0,3,8.54622507095337,None,,,,,0,0,0,0,0,45,45,114,269.77705812454224,,,,,,,,,,,,,,,,,,,,,,,,,,,,,,,,,,,,,,,,,,,,,,,,,,,,,,,,,,,,,,,,,,,,,,,,,,,,,,,,,133.0,57.0,78.0,78.0,57.0,133.0,1.0,1.1,-644,269,-480,263,-278,265,269.75781440734863,269.7579095363617,269.76128458976746,269.77705812454224,269.9244558811188,269.9244558811188,269.9244558811188,269.9244558811188,269.9244558811188,269.9244558811188,269.9244558811188,278.3252999782562,3,8.54622507095337,None,,,,,,,,,,,,,,,,,,213,4,2025-03-07_10h53.26.003,comp,2024.2.4,54.74120536774705,2025-03-07 10h53.31.432086 -0500,
46,46,0,critical,hwd,20.0,1.0,lower,133.0,57.0,57.0,133.0,78.0,78.0,2,4.57110333442688,None,,,,,0,0,0,0,0,46,46,102,278.3445944786072,,,,,,,,,,,,,,,,,,,,,,,,,,,,,,,,,,,,,,,,,,,,,,,,,,,,,,,,,,,,,,,,,,,,,,,,,,,,,,,,,133.0,57.0,57.0,133.0,78.0,78.0,1.0,1.2,-191,9,0,1,202,16,278.3267619609833,278.3268373012543,278.3297894001007,278.3445944786072,278.49667596817017,278.49667596817017,278.49667596817017,278.49667596817017,278.49667596817017,278.49667596817017,278.49667596817017,282.92194056510925,2,4.57110333442688,None,,,,,,,,,,,,,,,,,,213,4,2025-03-07_10h53.26.003,comp,2024.2.4,54.74120536774705,2025-03-07 10h53.31.432086 -0500,
47,47,0,critical,dwh,35.0,2.1,lower,70.0,70.0,57.0,133.0,133.0,57.0,2,4.865046977996826,None,,,,,0,0,0,0,0,47,47,4,282.9377110004425,,,,,,,,,,,,,,,,,,,,,,,,,,,,,,,,,,,,,,,,,,,,,,,,,,,,,,,,,,,,,,,,,,,,,,,,,,,,,,,,,70.0,70.0,57.0,133.0,133.0,57.0,2.1,2.12,-198,-286,0,-262,191,283,282.9234869480133,282.9235637187958,282.92643690109253,282.9377110004425,283.07795548439026,283.07795548439026,283.07795548439026,283.07795548439026,283.07795548439026,283.07795548439026,283.07795548439026,287.82176184654236,2,4.865046977996826,None,,,,,,,,,,,,,,,,,,213,4,2025-03-07_10h53.26.003,comp,2024.2.4,54.74120536774705,2025-03-07 10h53.31.432086 -0500,
48,48,0,filler_random,None,None,None,None,None,None,None,None,None,None,3,3.5709586143493652,None,,,,,0,0,0,0,0,48,48,140,287.83973002433777,,,,,,,,,,,,,,,,,,,,,,,,,,,,,,,,,,,,,,,,,,,,,,,,,,,,,,,,,,,,,,,,,,,,,,,,,,,,,,,,,83.42560876863635,87.99642608567774,87.91080302703762,74.41818069742898,131.60815024323966,176.55664839036277,4.0,4.2,-177,18,0,-259,221,7,287.8236541748047,287.82379698753357,287.8270971775055,287.83973002433777,287.9800715446472,287.9800715446472,287.9800715446472,287.9800715446472,287.9800715446472,287.9800715446472,287.9800715446472,291.4141535758972,3,3.5709586143493652,None,,,,,,,,,,,,,,,,,,213,4,2025-03-07_10h53.26.003,comp,2024.2.4,54.74120536774705,2025-03-07 10h53.31.432086 -0500,
49,49,0,critical,hdw,20.0,3.0,upper,200.0,125.0,141.0,141.0,125.0,200.0,3,5.5583271980285645,None,,,,,0,0,0,0,0,49,49,117,291.43027687072754,,,,,,,,,,,,,,,,,,,,,,,,,,,,,,,,,,,,,,,,,,,,,,,,,,,,,,,,,,,,,,,,,,,,,,,,,,,,,,,,,200.0,125.0,141.0,141.0,125.0,200.0,3.0,3.2,-229,-272,0,-19,266,282,291.41579818725586,291.41590309143066,291.4195411205292,291.43027687072754,291.57940888404846,291.57940888404846,291.57940888404846,291.57940888404846,291.57940888404846,291.57940888404846,291.57940888404846,296.9995849132538,3,5.5583271980285645,None,,,,,,,,,,,,,,,,,,213,4,2025-03-07_10h53.26.003,comp,2024.2.4,54.74120536774705,2025-03-07 10h53.31.432086 -0500,
50,50,0,filler_random,None,None,None,None,None,None,None,None,None,None,3,6.147198677062988,None,,,,,0,0,0,0,0,50,50,165,297.0162332057953,,,,,,,,,,,,,,,,,,,,,,,,,,,,,,,,,,,,,,,,,,,,,,,,,,,,,,,,,,,,,,,,,,,,,,,,,,,,,,,,,176.14719274273438,176.3976872002009,161.31272893317254,191.2605614982206,137.60282334330114,191.24575132721736,3.0,3.1,-280,280,0,11,287,-286,297.0013449192047,297.00142669677734,297.0054793357849,297.0162332057953,297.16690945625305,297.16690945625305,297.16690945625305,297.16690945625305,297.16690945625305,297.16690945625305,297.16690945625305,303.1741976737976,3,6.147198677062988,None,,,,,,,,,,,,,,,,,,213,4,2025-03-07_10h53.26.003,comp,2024.2.4,54.74120536774705,2025-03-07 10h53.31.432086 -0500,
51,51,0,critical,hdw,35.0,3.0,lower,133.0,57.0,70.0,70.0,57.0,133.0,3,17.208826065063477,None,,,,,0,0,0,0,0,51,51,110,303.1943950653076,,,,,,,,,,,,,,,,,,,,,,,,,,,,,,,,,,,,,,,,,,,,,,,,,,,,,,,,,,,,,,,,,,,,,,,,,,,,,,,,,133.0,57.0,70.0,70.0,57.0,133.0,3.0,3.1,-160,290,0,-14,198,-265,303.1757471561432,303.1758258342743,303.1787669658661,303.1943950653076,303.3321375846863,303.3321375846863,303.3321375846863,303.3321375846863,303.3321375846863,303.3321375846863,303.3321375846863,320.40545678138733,3,17.208826065063477,None,,,,,,,,,,,,,,,,,,213,4,2025-03-07_10h53.26.003,comp,2024.2.4,54.74120536774705,2025-03-07 10h53.31.432086 -0500,
52,52,0,critical,hdw,35.0,3.0,upper,200.0,125.0,127.0,127.0,125.0,200.0,3,5.106230020523071,None,,,,,0,0,0,0,0,52,52,111,320.42467617988586,,,,,,,,,,,,,,,,,,,,,,,,,,,,,,,,,,,,,,,,,,,,,,,,,,,,,,,,,,,,,,,,,,,,,,,,,,,,,,,,,200.0,125.0,127.0,127.0,125.0,200.0,3.0,3.1,-222,261,0,6,260,-274,320.40693712234497,320.40701508522034,320.41023325920105,320.42467617988586,320.5735602378845,320.5735602378845,320.5735602378845,320.5735602378845,320.5735602378845,320.5735602378845,320.5735602378845,325.545592546463,3,5.106230020523071,None,,,,,,,,,,,,,,,,,,213,4,2025-03-07_10h53.26.003,comp,2024.2.4,54.74120536774705,2025-03-07 10h53.31.432086 -0500,
53,53,0,critical,wdh,35.0,2.1,lower,57.0,133.0,70.0,70.0,133.0,57.0,1,6.308407783508301,None,,,,,0,0,0,0,0,53,53,32,325.5664074420929,,,,,,,,,,,,,,,,,,,,,,,,,,,,,,,,,,,,,,,,,,,,,,,,,,,,,,,,,,,,,,,,,,,,,,,,,,,,,,,,,57.0,133.0,70.0,70.0,133.0,57.0,2.1,2.12,-198,-287,0,-256,160,278,325.5472514629364,325.5473852157593,325.5507516860962,325.5664074420929,325.7041778564453,325.7041778564453,325.7041778564453,325.7041778564453,325.7041778564453,325.7041778564453,325.7041778564453,331.8925919532776,1,6.308407783508301,None,,,,,,,,,,,,,,,,,,213,4,2025-03-07_10h53.26.003,comp,2024.2.4,54.74120536774705,2025-03-07 10h53.31.432086 -0500,
54,54,0,critical,dwh,35.0,2.1,lower,70.0,70.0,57.0,133.0,133.0,57.0,2,2.421996831893921,None,,,,,0,0,0,0,0,54,54,28,331.9089081287384,,,,,,,,,,,,,,,,,,,,,,,,,,,,,,,,,,,,,,,,,,,,,,,,,,,,,,,,,,,,,,,,,,,,,,,,,,,,,,,,,70.0,70.0,57.0,133.0,133.0,57.0,2.1,2.12,-198,-270,0,-290,191,256,331.89420223236084,331.8942759037018,331.89765429496765,331.9089081287384,332.0490245819092,332.0490245819092,332.0490245819092,332.0490245819092,332.0490245819092,332.0490245819092,332.0490245819092,334.3350353240967,2,2.421996831893921,None,,,,,,,,,,,,,,,,,,213,4,2025-03-07_10h53.26.003,comp,2024.2.4,54.74120536774705,2025-03-07 10h53.31.432086 -0500,
55,55,0,filler_random,None,None,None,None,None,None,None,None,None,None,3,2.546144723892212,None,,,,,0,0,0,0,0,55,55,136,334.3528323173523,,,,,,,,,,,,,,,,,,,,,,,,,,,,,,,,,,,,,,,,,,,,,,,,,,,,,,,,,,,,,,,,,,,,,,,,,,,,,,,,,130.87871016295873,111.81384907792399,172.2217718565857,156.12223838804184,119.74469318642682,197.20005827508416,4.0,4.1,-230,-260,0,14,273,-276,334.3367054462433,334.3367850780487,334.3397672176361,334.3528323173523,334.4953520298004,334.4953520298004,334.4953520298004,334.4953520298004,334.4953520298004,334.4953520298004,334.4953520298004,336.9125292301178,3,2.546144723892212,None,,,,,,,,,,,,,,,,,,213,4,2025-03-07_10h53.26.003,comp,2024.2.4,54.74120536774705,2025-03-07 10h53.31.432086 -0500,
56,56,0,critical,wdh,20.0,2.1,lower,57.0,133.0,78.0,78.0,133.0,57.0,2,4.812761068344116,None,,,,,0,0,0,0,0,56,56,34,336.9340491294861,,,,,,,,,,,,,,,,,,,,,,,,,,,,,,,,,,,,,,,,,,,,,,,,,,,,,,,,,,,,,,,,,,,,,,,,,,,,,,,,,57.0,133.0,78.0,78.0,133.0,57.0,2.1,2.12,-202,-260,0,-252,164,253,336.9141261577606,336.9142048358917,336.91801476478577,336.9340491294861,337.0704114437103,337.0704114437103,337.0704114437103,337.0704114437103,337.0704114437103,337.0704114437103,337.0704114437103,341.7626578807831,2,4.812761068344116,None,,,,,,,,,,,,,,,,,,213,4,2025-03-07_10h53.26.003,comp,2024.2.4,54.74120536774705,2025-03-07 10h53.31.432086 -0500,
57,57,0,critical,dhw,35.0,1.0,lower,70.0,70.0,133.0,57.0,57.0,133.0,3,5.609392166137695,None,,,,,0,0,0,0,0,57,57,48,341.77819752693176,,,,,,,,,,,,,,,,,,,,,,,,,,,,,,,,,,,,,,,,,,,,,,,,,,,,,,,,,,,,,,,,,,,,,,,,,,,,,,,,,70.0,70.0,133.0,57.0,57.0,133.0,1.0,1.2,-160,-1,0,-1,191,-4,341.7641613483429,341.76423811912537,341.7672281265259,341.77819752693176,341.9338834285736,341.9338834285736,341.9338834285736,341.9338834285736,341.9338834285736,341.9338834285736,341.9338834285736,347.39474153518677,3,5.609392166137695,None,,,,,,,,,,,,,,,,,,213,4,2025-03-07_10h53.26.003,comp,2024.2.4,54.74120536774705,2025-03-07 10h53.31.432086 -0500,
58,58,0,critical,hwd,20.0,2.1,lower,133.0,57.0,57.0,133.0,78.0,78.0,2,26.653972625732422,None,,,,,0,0,0,0,0,58,58,42,347.4134819507599,,,,,,,,,,,,,,,,,,,,,,,,,,,,,,,,,,,,,,,,,,,,,,,,,,,,,,,,,,,,,,,,,,,,,,,,,,,,,,,,,133.0,57.0,57.0,133.0,78.0,78.0,2.1,2.12,-191,-287,0,-256,202,251,347.3962459564209,347.396360874176,347.3992998600006,347.4134819507599,347.55240845680237,347.55240845680237,347.55240845680237,347.55240845680237,347.55240845680237,347.55240845680237,347.55240845680237,374.0732569694519,2,26.653972625732422,None,,,,,,,,,,,,,,,,,,213,4,2025-03-07_10h53.26.003,comp,2024.2.4,54.74120536774705,2025-03-07 10h53.31.432086 -0500,
59,59,0,critical,dwh,35.0,4.0,upper,127.0,127.0,125.0,200.0,200.0,125.0,2,2.409868001937866,None,,,,,0,0,0,0,0,59,59,65,374.08944606781006,,,,,,,,,,,,,,,,,,,,,,,,,,,,,,,,,,,,,,,,,,,,,,,,,,,,,,,,,,,,,,,,,,,,,,,,,,,,,,,,,127.0,127.0,125.0,200.0,200.0,125.0,4.0,4.2,-260,-17,0,-253,258,-14,374.07491087913513,374.07498836517334,374.078426361084,374.08944606781006,374.2393436431885,374.2393436431885,374.2393436431885,374.2393436431885,374.2393436431885,374.2393436431885,374.2393436431885,376.5096297264099,2,2.409868001937866,None,,,,,,,,,,,,,,,,,,213,4,2025-03-07_10h53.26.003,comp,2024.2.4,54.74120536774705,2025-03-07 10h53.31.432086 -0500,
60,60,0,critical,wdh,20.0,3.0,lower,57.0,133.0,78.0,78.0,133.0,57.0,1,2.195125102996826,None,,,,,0,0,0,0,0,60,60,80,376.52825903892517,,,,,,,,,,,,,,,,,,,,,,,,,,,,,,,,,,,,,,,,,,,,,,,,,,,,,,,,,,,,,,,,,,,,,,,,,,,,,,,,,57.0,133.0,78.0,78.0,133.0,57.0,3.0,3.2,-202,-276,0,-14,164,252,376.51150345802307,376.5116376876831,376.51484394073486,376.52825903892517,376.6732428073883,376.6732428073883,376.6732428073883,376.6732428073883,376.6732428073883,376.6732428073883,376.6732428073883,378.7317998409271,1,2.195125102996826,None,,,,,,,,,,,,,,,,,,213,4,2025-03-07_10h53.26.003,comp,2024.2.4,54.74120536774705,2025-03-07 10h53.31.432086 -0500,
61,61,0,critical,hdw,20.0,2.1,lower,133.0,57.0,78.0,78.0,57.0,133.0,3,3.8553707599639893,None,,,,,0,0,0,0,0,61,61,46,378.74794125556946,,,,,,,,,,,,,,,,,,,,,,,,,,,,,,,,,,,,,,,,,,,,,,,,,,,,,,,,,,,,,,,,,,,,,,,,,,,,,,,,,133.0,57.0,78.0,78.0,57.0,133.0,2.1,2.12,-164,-277,0,-276,202,259,378.7333827018738,378.7334613800049,378.736811876297,378.74794125556946,378.8915011882782,378.8915011882782,378.8915011882782,378.8915011882782,378.8915011882782,378.8915011882782,378.8915011882782,382.61002135276794,3,3.8553707599639893,None,,,,,,,,,,,,,,,,,,213,4,2025-03-07_10h53.26.003,comp,2024.2.4,54.74120536774705,2025-03-07 10h53.31.432086 -0500,
62,62,0,filler_random,None,None,None,None,None,None,None,None,None,None,1,2.345884323120117,None,,,,,0,0,0,0,0,62,62,162,382.62580156326294,,,,,,,,,,,,,,,,,,,,,,,,,,,,,,,,,,,,,,,,,,,,,,,,,,,,,,,,,,,,,,,,,,,,,,,,,,,,,,,,,80.63642836466816,147.60265806856466,183.061985640457,64.65398577859003,63.537674497510864,134.1029826613758,4.0,4.2,-202,19,0,-266,195,-17,382.61175513267517,382.6118338108063,382.6151235103607,382.62580156326294,382.77590131759644,382.77590131759644,382.77590131759644,382.77590131759644,382.77590131759644,382.77590131759644,382.77590131759644,384.9769926071167,1,2.345884323120117,None,,,,,,,,,,,,,,,,,,213,4,2025-03-07_10h53.26.003,comp,2024.2.4,54.74120536774705,2025-03-07 10h53.31.432086 -0500,
63,63,0,filler_random,None,None,None,None,None,None,None,None,None,None,1,3.9781010150909424,None,,,,,0,0,0,0,0,63,63,149,384.9935529232025,,,,,,,,,,,,,,,,,,,,,,,,,,,,,,,,,,,,,,,,,,,,,,,,,,,,,,,,,,,,,,,,,,,,,,,,,,,,,,,,,121.33874650796133,192.44567819595315,74.16293332791693,129.30727296652856,169.17736932918365,132.42481071534678,2.2,2.21,-257,-257,0,258,227,271,384.97869753837585,384.97877264022827,384.98283767700195,384.9935529232025,385.14128017425537,385.14128017425537,385.14128017425537,385.14128017425537,385.14128017425537,385.14128017425537,385.14128017425537,388.9749755859375,1,3.9781010150909424,None,,,,,,,,,,,,,,,,,,213,4,2025-03-07_10h53.26.003,comp,2024.2.4,54.74120536774705,2025-03-07 10h53.31.432086 -0500,
64,64,0,critical,hwd,35.0,2.1,upper,200.0,125.0,125.0,200.0,127.0,127.0,2,5.451284408569336,None,,,,,0,0,0,0,0,64,64,17,388.9920244216919,,,,,,,,,,,,,,,,,,,,,,,,,,,,,,,,,,,,,,,,,,,,,,,,,,,,,,,,,,,,,,,,,,,,,,,,,,,,,,,,,200.0,125.0,125.0,200.0,127.0,127.0,2.1,2.11,-258,279,0,287,260,-275,388.9757025241852,388.9757385253906,388.97705125808716,388.9920244216919,389.12861585617065,389.12861585617065,389.12861585617065,389.12861585617065,389.12861585617065,389.12861585617065,389.12861585617065,394.445431470871,2,5.451284408569336,None,,,,,,,,,,,,,,,,,,213,4,2025-03-07_10h53.26.003,comp,2024.2.4,54.74120536774705,2025-03-07 10h53.31.432086 -0500,
65,65,0,critical,dhw,35.0,2.1,lower,70.0,70.0,133.0,57.0,57.0,133.0,3,4.328845024108887,None,,,,,0,0,0,0,0,65,65,0,394.4657196998596,,,,,,,,,,,,,,,,,,,,,,,,,,,,,,,,,,,,,,,,,,,,,,,,,,,,,,,,,,,,,,,,,,,,,,,,,,,,,,,,,70.0,70.0,133.0,57.0,57.0,133.0,2.1,2.12,-160,-252,0,-264,191,289,394.4470148086548,394.4471106529236,394.45052790641785,394.4657196998596,394.6124572753906,394.6124572753906,394.6124572753906,394.6124572753906,394.6124572753906,394.6124572753906,394.6124572753906,398.80495166778564,3,4.328845024108887,None,,,,,,,,,,,,,,,,,,213,4,2025-03-07_10h53.26.003,comp,2024.2.4,54.74120536774705,2025-03-07 10h53.31.432086 -0500,
66,66,0,filler_square,None,None,None,None,None,None,None,None,None,None,1,1.5744962692260742,None,,,,,0,0,0,0,0,66,66,183,398.8284206390381,,,,,,,,,,,,,,,,,,,,,,,,,,,,,,,,,,,,,,,,,,,,,,,,,,,,,,,,,,,,,,,,,,,,,,,,,,,,,,,,,161.8703525041125,161.8703525041125,145.99734320940388,93.37906076021562,64.44731355468731,111.74316561009263,2.1,2.12,-224,-255,0,-251,199,269,398.8069143295288,398.8070237636566,398.8102650642395,398.8284206390381,398.96724152565,398.96724152565,398.96724152565,398.96724152565,398.96724152565,398.96724152565,398.96724152565,400.41615319252014,1,1.5744962692260742,None,,,,,,,,,,,,,,,,,,213,4,2025-03-07_10h53.26.003,comp,2024.2.4,54.74120536774705,2025-03-07 10h53.31.432086 -0500,
67,67,0,critical,whd,35.0,3.0,upper,125.0,200.0,200.0,125.0,127.0,127.0,1,1.88313627243042,None,,,,,0,0,0,0,0,67,67,87,400.4319713115692,,,,,,,,,,,,,,,,,,,,,,,,,,,,,,,,,,,,,,,,,,,,,,,,,,,,,,,,,,,,,,,,,,,,,,,,,,,,,,,,,125.0,200.0,200.0,125.0,127.0,127.0,3.0,3.2,-258,-257,0,-1,222,251,400.41765546798706,400.4177317619324,400.42066621780396,400.4319713115692,400.57728362083435,400.57728362083435,400.57728362083435,400.57728362083435,400.57728362083435,400.57728362083435,400.57728362083435,402.33299016952515,1,1.88313627243042,None,,,,,,,,,,,,,,,,,,213,4,2025-03-07_10h53.26.003,comp,2024.2.4,54.74120536774705,2025-03-07 10h53.31.432086 -0500,
68,68,0,filler_random,None,None,None,None,None,None,None,None,None,None,1,1.8625164031982422,None,,,,,0,0,0,0,0,68,68,168,402.348673582077,,,,,,,,,,,,,,,,,,,,,,,,,,,,,,,,,,,,,,,,,,,,,,,,,,,,,,,,,,,,,,,,,,,,,,,,,,,,,,,,,179.25628234916667,170.81158800712095,64.46919830508064,71.2466788306014,100.88960677208075,92.67970898252804,2.1,2.11,-217,280,0,270,178,-253,402.33473110198975,402.3348608016968,402.3382532596588,402.348673582077,402.499871969223,402.499871969223,402.499871969223,402.499871969223,402.499871969223,402.499871969223,402.499871969223,404.21603751182556,1,1.8625164031982422,None,,,,,,,,,,,,,,,,,,213,4,2025-03-07_10h53.26.003,comp,2024.2.4,54.74120536774705,2025-03-07 10h53.31.432086 -0500,
69,69,0,critical,wdh,20.0,2.1,upper,125.0,200.0,141.0,141.0,200.0,125.0,1,5.834982633590698,None,,,,,0,0,0,0,0,69,69,11,404.23189783096313,,,,,,,,,,,,,,,,,,,,,,,,,,,,,,,,,,,,,,,,,,,,,,,,,,,,,,,,,,,,,,,,,,,,,,,,,,,,,,,,,125.0,200.0,141.0,141.0,200.0,125.0,2.1,2.12,-266,-288,0,-278,229,254,404.2175977230072,404.2176773548126,404.2211573123932,404.23189783096313,404.3850417137146,404.3850417137146,404.3850417137146,404.3850417137146,404.3850417137146,404.3850417137146,404.3850417137146,410.08470845222473,1,5.834982633590698,None,,,,,,,,,,,,,,,,,,213,4,2025-03-07_10h53.26.003,comp,2024.2.4,54.74120536774705,2025-03-07 10h53.31.432086 -0500,
70,70,0,catch,None,None,None,None,None,None,None,None,None,None,1,2.9626638889312744,None,,,,,0,0,0,0,0,70,70,121,410.10481119155884,,,,,,,,,,,,,,,,,,,,,,,,,,,,,,,,,,,,,,,,,,,,,,,,,,,,,,,,,,,,,,,,,,,,,,,,,,,,,,,,,159,166,80,110,68,122,1.0,1.3,246,-268,480,-285,692,-289,410.0868489742279,410.08692741394043,410.0902318954468,410.10481119155884,410.250940322876,410.250940322876,410.250940322876,410.250940322876,410.250940322876,410.250940322876,410.250940322876,413.0830805301666,1,2.9626638889312744,None,,,,,,,,,,,,,,,,,,213,4,2025-03-07_10h53.26.003,comp,2024.2.4,54.74120536774705,2025-03-07 10h53.31.432086 -0500,
71,71,0,critical,hwd,20.0,2.1,upper,200.0,125.0,125.0,200.0,141.0,141.0,2,12.033690929412842,None,,,,,0,0,0,0,0,71,71,19,413.0994646549225,,,,,,,,,,,,,,,,,,,,,,,,,,,,,,,,,,,,,,,,,,,,,,,,,,,,,,,,,,,,,,,,,,,,,,,,,,,,,,,,,200.0,125.0,125.0,200.0,141.0,141.0,2.1,2.11,-258,288,0,280,266,-253,413.0846004486084,413.08467626571655,413.08801460266113,413.0994646549225,413.2543435096741,413.2543435096741,413.2543435096741,413.2543435096741,413.2543435096741,413.2543435096741,413.2543435096741,425.1401262283325,2,12.033690929412842,None,,,,,,,,,,,,,,,,,,213,4,2025-03-07_10h53.26.003,comp,2024.2.4,54.74120536774705,2025-03-07 10h53.31.432086 -0500,
72,72,0,catch,None,None,None,None,None,None,None,None,None,None,3,3.197838544845581,None,,,,,0,0,0,0,0,72,72,122,425.1578333377838,,,,,,,,,,,,,,,,,,,,,,,,,,,,,,,,,,,,,,,,,,,,,,,,,,,,,,,,,,,,,,,,,,,,,,,,,,,,,,,,,73,117,61,129,153,172,4.0,4.1,-219,-269,0,-15,246,-258,425.1422402858734,425.14234733581543,425.1457440853119,425.1578333377838,425.30928349494934,425.30928349494934,425.30928349494934,425.30928349494934,425.30928349494934,425.30928349494934,425.30928349494934,428.37078404426575,3,3.197838544845581,None,,,,,,,,,,,,,,,,,,213,4,2025-03-07_10h53.26.003,comp,2024.2.4,54.74120536774705,2025-03-07 10h53.31.432086 -0500,
73,73,0,catch,None,None,None,None,None,None,None,None,None,None,1,2.744489908218384,None,,,,,0,0,0,0,0,73,73,129,428.38746190071106,,,,,,,,,,,,,,,,,,,,,,,,,,,,,,,,,,,,,,,,,,,,,,,,,,,,,,,,,,,,,,,,,,,,,,,,,,,,,,,,,145,180,115,75,122,68,1.0,1.2,-224,-18,0,19,168,20,428.37271523475647,428.3727946281433,428.37570881843567,428.38746190071106,428.5428509712219,428.5428509712219,428.5428509712219,428.5428509712219,428.5428509712219,428.5428509712219,428.5428509712219,431.14149498939514,1,2.744489908218384,None,,,,,,,,,,,,,,,,,,213,4,2025-03-07_10h53.26.003,comp,2024.2.4,54.74120536774705,2025-03-07 10h53.31.432086 -0500,
74,74,0,critical,dhw,35.0,4.0,upper,127.0,127.0,200.0,125.0,125.0,200.0,3,1.9650981426239014,None,,,,,0,0,0,0,0,74,74,53,431.15795278549194,,,,,,,,,,,,,,,,,,,,,,,,,,,,,,,,,,,,,,,,,,,,,,,,,,,,,,,,,,,,,,,,,,,,,,,,,,,,,,,,,127.0,127.0,200.0,125.0,125.0,200.0,4.0,4.2,-222,16,0,-269,258,5,431.1430058479309,431.1430854797363,431.1471905708313,431.15795278549194,431.3079569339752,431.3079569339752,431.3079569339752,431.3079569339752,431.3079569339752,431.3079569339752,431.3079569339752,433.1410758495331,3,1.9650981426239014,None,,,,,,,,,,,,,,,,,,213,4,2025-03-07_10h53.26.003,comp,2024.2.4,54.74120536774705,2025-03-07 10h53.31.432086 -0500,
75,75,0,filler_square,None,None,None,None,None,None,None,None,None,None,2,1.091092824935913,None,,,,,0,0,0,0,0,75,75,205,433.15982604026794,,,,,,,,,,,,,,,,,,,,,,,,,,,,,,,,,,,,,,,,,,,,,,,,,,,,,,,,,,,,,,,,,,,,,,,,,,,,,,,,,157.584131497528,143.66085247334092,179.86194291555387,179.86194291555387,86.12331313297551,154.3916867130701,3.0,3.2,-258,-260,0,11,263,268,433.14293932914734,433.14301800727844,433.14656043052673,433.15982604026794,433.30908727645874,433.30908727645874,433.30908727645874,433.30908727645874,433.30908727645874,433.30908727645874,433.30908727645874,434.2689747810364,2,1.091092824935913,None,,,,,,,,,,,,,,,,,,213,4,2025-03-07_10h53.26.003,comp,2024.2.4,54.74120536774705,2025-03-07 10h53.31.432086 -0500,
76,76,0,filler_random,None,None,None,None,None,None,None,None,None,None,2,1.369377851486206,None,,,,,0,0,0,0,0,76,76,146,434.28955030441284,,,,,,,,,,,,,,,,,,,,,,,,,,,,,,,,,,,,,,,,,,,,,,,,,,,,,,,,,,,,,,,,,,,,,,,,,,,,,,,,,174.47855073929455,137.0750642644379,194.303862646032,189.9781970450009,150.5669218357021,97.97871109226692,4.0,4.1,-260,-287,0,18,240,-259,434.2707450389862,434.27087593078613,434.27417612075806,434.28955030441284,434.4254012107849,434.4254012107849,434.4254012107849,434.4254012107849,434.4254012107849,434.4254012107849,434.4254012107849,435.6757261753082,2,1.369377851486206,None,,,,,,,,,,,,,,,,,,213,4,2025-03-07_10h53.26.003,comp,2024.2.4,54.74120536774705,2025-03-07 10h53.31.432086 -0500,
77,77,0,critical,hwd,35.0,2.1,lower,133.0,57.0,57.0,133.0,70.0,70.0,1,2.015723943710327,None,,,,,0,0,0,0,0,77,77,40,435.6915533542633,,,,,,,,,,,,,,,,,,,,,,,,,,,,,,,,,,,,,,,,,,,,,,,,,,,,,,,,,,,,,,,,,,,,,,,,,,,,,,,,,133.0,57.0,57.0,133.0,70.0,70.0,2.1,2.12,-191,-261,0,-261,198,263,435.67744421958923,435.677521944046,435.68101811408997,435.6915533542633,435.84178161621094,435.84178161621094,435.84178161621094,435.84178161621094,435.84178161621094,435.84178161621094,435.84178161621094,437.7293322086334,1,2.015723943710327,None,,,,,,,,,,,,,,,,,,213,4,2025-03-07_10h53.26.003,comp,2024.2.4,54.74120536774705,2025-03-07 10h53.31.432086 -0500,
78,78,0,filler_square,None,None,None,None,None,None,None,None,None,None,3,2.814791202545166,None,,,,,0,0,0,0,0,78,78,174,437.7481634616852,,,,,,,,,,,,,,,,,,,,,,,,,,,,,,,,,,,,,,,,,,,,,,,,,,,,,,,,,,,,,,,,,,,,,,,,,,,,,,,,,87.66641653731222,57.52931659088543,62.32676446962609,64.57483197720939,104.07448174632779,104.07448174632779,4.0,4.1,-157,-265,0,-8,180,-275,437.7314467430115,437.73152804374695,437.7348442077637,437.7481634616852,437.8934645652771,437.8934645652771,437.8934645652771,437.8934645652771,437.8934645652771,437.8934645652771,437.8934645652771,440.57762002944946,3,2.814791202545166,None,,,,,,,,,,,,,,,,,,213,4,2025-03-07_10h53.26.003,comp,2024.2.4,54.74120536774705,2025-03-07 10h53.31.432086 -0500,
79,79,0,filler_random,None,None,None,None,None,None,None,None,None,None,2,1.6572558879852295,None,,,,,0,0,0,0,0,79,79,161,440.59397172927856,,,,,,,,,,,,,,,,,,,,,,,,,,,,,,,,,,,,,,,,,,,,,,,,,,,,,,,,,,,,,,,,,,,,,,,,,,,,,,,,,112.99855102982207,180.01903566527193,144.31117151628607,193.39328024656373,154.00420502517062,78.61685924889447,4.0,4.1,-283,-281,0,-1,232,-260,440.57943868637085,440.57951760292053,440.58370208740234,440.59397172927856,440.7455174922943,440.7455174922943,440.7455174922943,440.7455174922943,440.7455174922943,440.7455174922943,440.7455174922943,442.26163363456726,2,1.6572558879852295,None,,,,,,,,,,,,,,,,,,213,4,2025-03-07_10h53.26.003,comp,2024.2.4,54.74120536774705,2025-03-07 10h53.31.432086 -0500,
80,80,0,catch,None,None,None,None,None,None,None,None,None,None,2,1.6690127849578857,None,,,,,0,0,0,0,0,80,80,124,442.2782485485077,,,,,,,,,,,,,,,,,,,,,,,,,,,,,,,,,,,,,,,,,,,,,,,,,,,,,,,,,,,,,,,,,,,,,,,,,,,,,,,,,92,98,188,137,129,61,2.2,2.21,-214,-268,0,258,195,273,442.26369857788086,442.26377534866333,442.26703906059265,442.2782485485077,442.4269449710846,442.4269449710846,442.4269449710846,442.4269449710846,442.4269449710846,442.4269449710846,442.4269449710846,443.9495687484741,2,1.6690127849578857,None,,,,,,,,,,,,,,,,,,213,4,2025-03-07_10h53.26.003,comp,2024.2.4,54.74120536774705,2025-03-07 10h53.31.432086 -0500,
81,81,0,critical,dwh,35.0,2.1,upper,127.0,127.0,125.0,200.0,200.0,125.0,2,2.3328566551208496,None,,,,,0,0,0,0,0,81,81,29,443.9661314487457,,,,,,,,,,,,,,,,,,,,,,,,,,,,,,,,,,,,,,,,,,,,,,,,,,,,,,,,,,,,,,,,,,,,,,,,,,,,,,,,,127.0,127.0,125.0,200.0,200.0,125.0,2.1,2.11,-260,284,0,275,258,-265,443.9515714645386,443.9516520500183,443.95460200309753,443.9661314487457,444.11445808410645,444.11445808410645,444.11445808410645,444.11445808410645,444.11445808410645,444.11445808410645,444.11445808410645,446.3118226528168,2,2.3328566551208496,None,,,,,,,,,,,,,,,,,,213,4,2025-03-07_10h53.26.003,comp,2024.2.4,54.74120536774705,2025-03-07 10h53.31.432086 -0500,
82,82,0,critical,hdw,35.0,1.0,lower,133.0,57.0,70.0,70.0,57.0,133.0,3,3.0170812606811523,None,,,,,0,0,0,0,0,82,82,108,446.32986545562744,,,,,,,,,,,,,,,,,,,,,,,,,,,,,,,,,,,,,,,,,,,,,,,,,,,,,,,,,,,,,,,,,,,,,,,,,,,,,,,,,133.0,57.0,70.0,70.0,57.0,133.0,1.0,1.3,320,-274,480,-274,678,-274,446.3132846355438,446.31339025497437,446.3165626525879,446.32986545562744,446.47852182388306,446.47852182388306,446.47852182388306,446.47852182388306,446.47852182388306,446.47852182388306,446.47852182388306,449.3631982803345,3,3.0170812606811523,None,,,,,,,,,,,,,,,,,,213,4,2025-03-07_10h53.26.003,comp,2024.2.4,54.74120536774705,2025-03-07 10h53.31.432086 -0500,
83,83,0,critical,wdh,20.0,2.1,upper,125.0,200.0,141.0,141.0,200.0,125.0,1,2.087865114212036,None,,,,,0,0,0,0,0,83,83,35,449.3792200088501,,,,,,,,,,,,,,,,,,,,,,,,,,,,,,,,,,,,,,,,,,,,,,,,,,,,,,,,,,,,,,,,,,,,,,,,,,,,,,,,,125.0,200.0,141.0,141.0,200.0,125.0,2.1,2.11,-266,265,0,289,229,-265,449.3647334575653,449.3648133277893,449.3683943748474,449.3792200088501,449.5320827960968,449.5320827960968,449.5320827960968,449.5320827960968,449.5320827960968,449.5320827960968,449.5320827960968,451.4808564186096,1,2.087865114212036,None,,,,,,,,,,,,,,,,,,213,4,2025-03-07_10h53.26.003,comp,2024.2.4,54.74120536774705,2025-03-07 10h53.31.432086 -0500,
84,84,0,critical,hwd,35.0,2.1,upper,200.0,125.0,125.0,200.0,127.0,127.0,2,5.690594911575317,None,,,,,0,0,0,0,0,84,84,41,451.49639201164246,,,,,,,,,,,,,,,,,,,,,,,,,,,,,,,,,,,,,,,,,,,,,,,,,,,,,,,,,,,,,,,,,,,,,,,,,,,,,,,,,200.0,125.0,125.0,200.0,127.0,127.0,2.1,2.12,-258,-280,0,-263,260,254,451.4823684692383,451.4824504852295,451.48589420318604,451.49639201164246,451.6334719657898,451.6334719657898,451.6334719657898,451.6334719657898,451.6334719657898,451.6334719657898,451.6334719657898,457.20116662979126,2,5.690594911575317,None,,,,,,,,,,,,,,,,,,213,4,2025-03-07_10h53.26.003,comp,2024.2.4,54.74120536774705,2025-03-07 10h53.31.432086 -0500,
85,85,0,critical,wdh,20.0,4.0,upper,125.0,200.0,141.0,141.0,200.0,125.0,1,9.08999252319336,None,,,,,0,0,0,0,0,85,85,83,457.2172272205353,,,,,,,,,,,,,,,,,,,,,,,,,,,,,,,,,,,,,,,,,,,,,,,,,,,,,,,,,,,,,,,,,,,,,,,,,,,,,,,,,125.0,200.0,141.0,141.0,200.0,125.0,4.0,4.1,-266,-267,0,-3,229,-269,457.2027733325958,457.2028479576111,457.2062749862671,457.2172272205353,457.3666522502899,457.3666522502899,457.3666522502899,457.3666522502899,457.3666522502899,457.3666522502899,457.3666522502899,466.31220746040344,1,9.08999252319336,None,,,,,,,,,,,,,,,,,,213,4,2025-03-07_10h53.26.003,comp,2024.2.4,54.74120536774705,2025-03-07 10h53.31.432086 -0500,
86,86,0,critical,whd,35.0,2.1,lower,57.0,133.0,133.0,57.0,70.0,70.0,1,4.944481372833252,None,,,,,0,0,0,0,0,86,86,12,466.3304235935211,,,,,,,,,,,,,,,,,,,,,,,,,,,,,,,,,,,,,,,,,,,,,,,,,,,,,,,,,,,,,,,,,,,,,,,,,,,,,,,,,57.0,133.0,133.0,57.0,70.0,70.0,2.1,2.12,-191,-251,0,-251,160,273,466.3137958049774,466.3138732910156,466.3172070980072,466.3304235935211,466.4720153808594,466.4720153808594,466.4720153808594,466.4720153808594,466.4720153808594,466.4720153808594,466.4720153808594,471.2863841056824,1,4.944481372833252,None,,,,,,,,,,,,,,,,,,213,4,2025-03-07_10h53.26.003,comp,2024.2.4,54.74120536774705,2025-03-07 10h53.31.432086 -0500,
87,87,0,filler_square,None,None,None,None,None,None,None,None,None,None,1,2.1718404293060303,None,,,,,0,0,0,0,0,87,87,195,471.30306243896484,,,,,,,,,,,,,,,,,,,,,,,,,,,,,,,,,,,,,,,,,,,,,,,,,,,,,,,,,,,,,,,,,,,,,,,,,,,,,,,,,136.91074906271587,136.91074906271587,127.8989803430997,103.28660842682652,97.31949373344406,93.81164005544605,4.0,4.2,-216,-17,0,-253,195,13,471.2881441116333,471.28822326660156,471.29134345054626,471.30306243896484,471.4569363594055,471.4569363594055,471.4569363594055,471.4569363594055,471.4569363594055,471.4569363594055,471.4569363594055,473.485778093338,1,2.1718404293060303,None,,,,,,,,,,,,,,,,,,213,4,2025-03-07_10h53.26.003,comp,2024.2.4,54.74120536774705,2025-03-07 10h53.31.432086 -0500,
88,88,0,catch,None,None,None,None,None,None,None,None,None,None,1,1.4836013317108154,None,,,,,0,0,0,0,0,88,88,126,473.5038170814514,,,,,,,,,,,,,,,,,,,,,,,,,,,,,,,,,,,,,,,,,,,,,,,,,,,,,,,,,,,,,,,,,,,,,,,,,,,,,,,,,141,184,77,113,92,98,3.0,3.2,-244,-255,0,-7,202,282,473.48789143562317,473.48797273635864,473.4917595386505,473.5038170814514,473.65483021736145,473.65483021736145,473.65483021736145,473.65483021736145,473.65483021736145,473.65483021736145,473.65483021736145,475.00485372543335,1,1.4836013317108154,None,,,,,,,,,,,,,,,,,,213,4,2025-03-07_10h53.26.003,comp,2024.2.4,54.74120536774705,2025-03-07 10h53.31.432086 -0500,
89,89,0,catch,None,None,None,None,None,None,None,None,None,None,1,1.774496078491211,None,,,,,0,0,0,0,0,89,89,123,475.0206892490387,,,,,,,,,,,,,,,,,,,,,,,,,,,,,,,,,,,,,,,,,,,,,,,,,,,,,,,,,,,,,,,,,,,,,,,,,,,,,,,,,198,127,80,110,121,69,2.2,2.21,-214,-270,0,270,186,265,475.00688314437866,475.0069603919983,475.0103647708893,475.0206892490387,475.17207884788513,475.17207884788513,475.17207884788513,475.17207884788513,475.17207884788513,475.17207884788513,475.17207884788513,476.80482244491577,1,1.774496078491211,None,,,,,,,,,,,,,,,,,,213,4,2025-03-07_10h53.26.003,comp,2024.2.4,54.74120536774705,2025-03-07 10h53.31.432086 -0500,
90,90,0,critical,dwh,20.0,2.1,lower,78.0,78.0,57.0,133.0,133.0,57.0,3,6.092649698257446,None,,,,,0,0,0,0,0,90,90,30,476.82229137420654,,,,,,,,,,,,,,,,,,,,,,,,,,,,,,,,,,,,,,,,,,,,,,,,,,,,,,,,,,,,,,,,,,,,,,,,,,,,,,,,,78.0,78.0,57.0,133.0,133.0,57.0,2.1,2.11,-202,254,0,286,191,-273,476.8062994480133,476.8064012527466,476.8093237876892,476.82229137420654,476.9730484485626,476.9730484485626,476.9730484485626,476.9730484485626,476.9730484485626,476.9730484485626,476.9730484485626,482.9324440956116,3,6.092649698257446,None,,,,,,,,,,,,,,,,,,213,4,2025-03-07_10h53.26.003,comp,2024.2.4,54.74120536774705,2025-03-07 10h53.31.432086 -0500,
91,91,0,critical,hdw,20.0,2.1,lower,133.0,57.0,78.0,78.0,57.0,133.0,1,1.6506128311157227,None,,,,,0,0,0,0,0,91,91,22,482.9522399902344,,,,,,,,,,,,,,,,,,,,,,,,,,,,,,,,,,,,,,,,,,,,,,,,,,,,,,,,,,,,,,,,,,,,,,,,,,,,,,,,,133.0,57.0,78.0,78.0,57.0,133.0,2.1,2.12,-164,-270,0,-268,202,266,482.93396043777466,482.9340407848358,482.9369945526123,482.9522399902344,483.0912985801697,483.0912985801697,483.0912985801697,483.0912985801697,483.0912985801697,483.0912985801697,483.0912985801697,484.61677503585815,1,1.6506128311157227,None,,,,,,,,,,,,,,,,,,213,4,2025-03-07_10h53.26.003,comp,2024.2.4,54.74120536774705,2025-03-07 10h53.31.432086 -0500,
92,92,0,filler_square,None,None,None,None,None,None,None,None,None,None,2,1.736013650894165,None,,,,,0,0,0,0,0,92,92,197,484.63527846336365,,,,,,,,,,,,,,,,,,,,,,,,,,,,,,,,,,,,,,,,,,,,,,,,,,,,,,,,,,,,,,,,,,,,,,,,,,,,,,,,,65.55960650026537,59.02624438281506,109.4735520917298,109.4735520917298,68.16365869803931,83.3217990646506,2.1,2.11,-180,276,0,251,192,-253,484.6186912059784,484.6188280582428,484.622079372406,484.63527846336365,484.7749807834625,484.7749807834625,484.7749807834625,484.7749807834625,484.7749807834625,484.7749807834625,484.7749807834625,486.3909270763397,2,1.736013650894165,None,,,,,,,,,,,,,,,,,,213,4,2025-03-07_10h53.26.003,comp,2024.2.4,54.74120536774705,2025-03-07 10h53.31.432086 -0500,
93,93,0,critical,whd,20.0,3.0,lower,57.0,133.0,133.0,57.0,78.0,78.0,1,6.316362142562866,None,,,,,0,0,0,0,0,93,93,92,486.4076626300812,,,,,,,,,,,,,,,,,,,,,,,,,,,,,,,,,,,,,,,,,,,,,,,,,,,,,,,,,,,,,,,,,,,,,,,,,,,,,,,,,57.0,133.0,133.0,57.0,78.0,78.0,3.0,3.2,-191,-269,0,12,164,253,486.3924946784973,486.39256954193115,486.3957631587982,486.4076626300812,486.5609517097473,486.5609517097473,486.5609517097473,486.5609517097473,486.5609517097473,486.5609517097473,486.5609517097473,492.72959995269775,1,6.316362142562866,None,,,,,,,,,,,,,,,,,,213,4,2025-03-07_10h53.26.003,comp,2024.2.4,54.74120536774705,2025-03-07 10h53.31.432086 -0500,
94,94,0,critical,hdw,20.0,2.1,upper,200.0,125.0,141.0,141.0,125.0,200.0,3,9.033812999725342,None,,,,,0,0,0,0,0,94,94,47,492.7458839416504,,,,,,,,,,,,,,,,,,,,,,,,,,,,,,,,,,,,,,,,,,,,,,,,,,,,,,,,,,,,,,,,,,,,,,,,,,,,,,,,,200.0,125.0,141.0,141.0,125.0,200.0,2.1,2.12,-229,-271,0,-251,266,280,492.7312743663788,492.73139476776123,492.7343821525574,492.7458839416504,492.89320158958435,492.89320158958435,492.89320158958435,492.89320158958435,492.89320158958435,492.89320158958435,492.89320158958435,501.78671860694885,3,9.033812999725342,None,,,,,,,,,,,,,,,,,,213,4,2025-03-07_10h53.26.003,comp,2024.2.4,54.74120536774705,2025-03-07 10h53.31.432086 -0500,
95,95,0,critical,dwh,20.0,4.0,upper,141.0,141.0,125.0,200.0,200.0,125.0,2,3.1997056007385254,None,,,,,0,0,0,0,0,95,95,71,501.8032920360565,,,,,,,,,,,,,,,,,,,,,,,,,,,,,,,,,,,,,,,,,,,,,,,,,,,,,,,,,,,,,,,,,,,,,,,,,,,,,,,,,141.0,141.0,125.0,200.0,200.0,125.0,4.0,4.2,-266,-18,0,-280,258,0,501.7882151603699,501.7882924079895,501.79163098335266,501.8032920360565,501.9474256038666,501.9474256038666,501.9474256038666,501.9474256038666,501.9474256038666,501.9474256038666,501.9474256038666,505.0132179260254,2,3.1997056007385254,None,,,,,,,,,,,,,,,,,,213,4,2025-03-07_10h53.26.003,comp,2024.2.4,54.74120536774705,2025-03-07 10h53.31.432086 -0500,
96,96,0,filler_random,None,None,None,None,None,None,None,None,None,None,1,3.508793592453003,None,,,,,0,0,0,0,0,96,96,133,505.03036165237427,,,,,,,,,,,,,,,,,,,,,,,,,,,,,,,,,,,,,,,,,,,,,,,,,,,,,,,,,,,,,,,,,,,,,,,,,,,,,,,,,72.03714716124279,152.82866042964545,60.56864672149504,114.97429776455004,107.60896223512069,90.74460252921978,2.2,2.21,-230,-288,0,280,199,257,505.01511096954346,505.015248298645,505.0186698436737,505.03036165237427,505.1802701950073,505.1802701950073,505.1802701950073,505.1802701950073,505.1802701950073,505.1802701950073,505.1802701950073,508.5499289035797,1,3.508793592453003,None,,,,,,,,,,,,,,,,,,213,4,2025-03-07_10h53.26.003,comp,2024.2.4,54.74120536774705,2025-03-07 10h53.31.432086 -0500,
97,97,0,catch,None,None,None,None,None,None,None,None,None,None,2,1.3572404384613037,None,,,,,0,0,0,0,0,97,97,120,508.5665500164032,,,,,,,,,,,,,,,,,,,,,,,,,,,,,,,,,,,,,,,,,,,,,,,,,,,,,,,,,,,,,,,,,,,,,,,,,,,,,,,,,108,82,157,168,92,98,3.0,3.2,-221,-259,0,-7,229,279,508.5520689487457,508.55220460891724,508.555783033371,508.5665500164032,508.71548104286194,508.71548104286194,508.71548104286194,508.71548104286194,508.71548104286194,508.71548104286194,508.71548104286194,509.93297839164734,2,1.3572404384613037,None,,,,,,,,,,,,,,,,,,213,4,2025-03-07_10h53.26.003,comp,2024.2.4,54.74120536774705,2025-03-07 10h53.31.432086 -0500,
98,98,0,critical,wdh,20.0,3.0,upper,125.0,200.0,141.0,141.0,200.0,125.0,1,2.6944756507873535,None,,,,,0,0,0,0,0,98,98,81,509.9493730068207,,,,,,,,,,,,,,,,,,,,,,,,,,,,,,,,,,,,,,,,,,,,,,,,,,,,,,,,,,,,,,,,,,,,,,,,,,,,,,,,,125.0,200.0,141.0,141.0,200.0,125.0,3.0,3.2,-266,-260,0,17,229,264,509.9345383644104,509.9346179962158,509.93865966796875,509.9493730068207,510.0981366634369,510.0981366634369,510.0981366634369,510.0981366634369,510.0981366634369,510.0981366634369,510.0981366634369,512.6482903957367,1,2.6944756507873535,None,,,,,,,,,,,,,,,,,,213,4,2025-03-07_10h53.26.003,comp,2024.2.4,54.74120536774705,2025-03-07 10h53.31.432086 -0500,
99,99,0,critical,wdh,35.0,1.0,upper,125.0,200.0,127.0,127.0,200.0,125.0,1,4.483280658721924,None,,,,,0,0,0,0,0,99,99,73,512.6639549732208,,,,,,,,,,,,,,,,,,,,,,,,,,,,,,,,,,,,,,,,,,,,,,,,,,,,,,,,,,,,,,,,,,,,,,,,,,,,,,,,,125.0,200.0,127.0,127.0,200.0,125.0,1.0,1.1,-740,267,-480,257,-258,286,512.6497893333435,512.649866104126,512.6527516841888,512.6639549732208,512.8154051303864,512.8154051303864,512.8154051303864,512.8154051303864,512.8154051303864,512.8154051303864,512.8154051303864,517.1522784233093,1,4.483280658721924,None,,,,,,,,,,,,,,,,,,213,4,2025-03-07_10h53.26.003,comp,2024.2.4,54.74120536774705,2025-03-07 10h53.31.432086 -0500,
100,100,0,critical,wdh,35.0,2.1,lower,57.0,133.0,70.0,70.0,133.0,57.0,1,6.274328947067261,None,,,,,0,0,0,0,0,100,100,8,517.1686384677887,,,,,,,,,,,,,,,,,,,,,,,,,,,,,,,,,,,,,,,,,,,,,,,,,,,,,,,,,,,,,,,,,,,,,,,,,,,,,,,,,57.0,133.0,70.0,70.0,133.0,57.0,2.1,2.11,-198,252,0,250,160,-284,517.1537933349609,517.1538727283478,517.1578621864319,517.1686384677887,517.3181715011597,517.3181715011597,517.3181715011597,517.3181715011597,517.3181715011597,517.3181715011597,517.3181715011597,523.4547986984253,1,6.274328947067261,None,,,,,,,,,,,,,,,,,,213,4,2025-03-07_10h53.26.003,comp,2024.2.4,54.74120536774705,2025-03-07 10h53.31.432086 -0500,
101,101,0,critical,dhw,20.0,1.0,lower,78.0,78.0,133.0,57.0,57.0,133.0,3,3.06136417388916,None,,,,,0,0,0,0,0,101,101,54,523.4702625274658,,,,,,,,,,,,,,,,,,,,,,,,,,,,,,,,,,,,,,,,,,,,,,,,,,,,,,,,,,,,,,,,,,,,,,,,,,,,,,,,,78.0,78.0,133.0,57.0,57.0,133.0,1.0,1.2,-164,9,0,-16,191,15,523.4563317298889,523.456419467926,523.459892988205,523.4702625274658,523.6260290145874,523.6260290145874,523.6260290145874,523.6260290145874,523.6260290145874,523.6260290145874,523.6260290145874,526.5375866889954,3,3.06136417388916,None,,,,,,,,,,,,,,,,,,213,4,2025-03-07_10h53.26.003,comp,2024.2.4,54.74120536774705,2025-03-07 10h53.31.432086 -0500,
102,102,0,critical,dwh,20.0,1.0,lower,78.0,78.0,57.0,133.0,133.0,57.0,2,7.849401950836182,None,,,,,0,0,0,0,0,102,102,66,526.5536057949066,,,,,,,,,,,,,,,,,,,,,,,,,,,,,,,,,,,,,,,,,,,,,,,,,,,,,,,,,,,,,,,,,,,,,,,,,,,,,,,,,78.0,78.0,57.0,133.0,133.0,57.0,1.0,1.1,-682,275,-480,282,-289,261,526.5392649173737,526.5393736362457,526.5428833961487,526.5536057949066,526.7019171714783,526.7019171714783,526.7019171714783,526.7019171714783,526.7019171714783,526.7019171714783,526.7019171714783,534.4066774845123,2,7.849401950836182,None,,,,,,,,,,,,,,,,,,213,4,2025-03-07_10h53.26.003,comp,2024.2.4,54.74120536774705,2025-03-07 10h53.31.432086 -0500,
103,103,0,filler_square,None,None,None,None,None,None,None,None,None,None,2,2.5242156982421875,None,,,,,0,0,0,0,0,103,103,193,534.4228410720825,,,,,,,,,,,,,,,,,,,,,,,,,,,,,,,,,,,,,,,,,,,,,,,,,,,,,,,,,,,,,,,,,,,,,,,,,,,,,,,,,57.65665052815803,58.98250517985812,63.72624077618789,63.72624077618789,62.46393567888049,60.60016456366782,2.1,2.11,-157,260,0,288,158,-282,534.408528804779,534.4086112976074,534.4120094776154,534.4228410720825,534.573549747467,534.573549747467,534.573549747467,534.573549747467,534.573549747467,534.573549747467,534.573549747467,536.9604954719543,2,2.5242156982421875,None,,,,,,,,,,,,,,,,,,213,4,2025-03-07_10h53.26.003,comp,2024.2.4,54.74120536774705,2025-03-07 10h53.31.432086 -0500,
104,104,0,critical,hwd,20.0,4.0,upper,200.0,125.0,125.0,200.0,141.0,141.0,2,6.627202987670898,None,,,,,0,0,0,0,0,104,104,107,536.9765615463257,,,,,,,,,,,,,,,,,,,,,,,,,,,,,,,,,,,,,,,,,,,,,,,,,,,,,,,,,,,,,,,,,,,,,,,,,,,,,,,,,200.0,125.0,125.0,200.0,141.0,141.0,4.0,4.2,-258,-12,0,-283,266,2,536.9622457027435,536.9624342918396,536.9657990932465,536.9765615463257,537.1237411499023,537.1237411499023,537.1237411499023,537.1237411499023,537.1237411499023,537.1237411499023,537.1237411499023,543.6100494861603,2,6.627202987670898,None,,,,,,,,,,,,,,,,,,213,4,2025-03-07_10h53.26.003,comp,2024.2.4,54.74120536774705,2025-03-07 10h53.31.432086 -0500,
105,105,0,critical,hdw,35.0,2.1,lower,133.0,57.0,70.0,70.0,57.0,133.0,3,17.88173747062683,None,,,,,0,0,0,0,0,105,105,20,543.6260223388672,,,,,,,,,,,,,,,,,,,,,,,,,,,,,,,,,,,,,,,,,,,,,,,,,,,,,,,,,,,,,,,,,,,,,,,,,,,,,,,,,133.0,57.0,70.0,70.0,57.0,133.0,2.1,2.11,-160,279,0,281,198,-251,543.6115765571594,543.611652135849,543.6152060031891,543.6260223388672,543.7786419391632,543.7786419391632,543.7786419391632,543.7786419391632,543.7786419391632,543.7786419391632,543.7786419391632,561.5152213573456,3,17.88173747062683,None,,,,,,,,,,,,,,,,,,213,4,2025-03-07_10h53.26.003,comp,2024.2.4,54.74120536774705,2025-03-07 10h53.31.432086 -0500,
106,106,0,critical,dhw,35.0,4.0,lower,70.0,70.0,133.0,57.0,57.0,133.0,3,2.6482183933258057,None,,,,,0,0,0,0,0,106,106,52,561.5309522151947,,,,,,,,,,,,,,,,,,,,,,,,,,,,,,,,,,,,,,,,,,,,,,,,,,,,,,,,,,,,,,,,,,,,,,,,,,,,,,,,,70.0,70.0,133.0,57.0,57.0,133.0,4.0,4.2,-160,-7,0,-283,191,3,561.5167009830475,561.51677942276,561.5201590061188,561.5309522151947,561.6878745555878,561.6878745555878,561.6878745555878,561.6878745555878,561.6878745555878,561.6878745555878,561.6878745555878,564.1851317882538,3,2.6482183933258057,None,,,,,,,,,,,,,,,,,,213,4,2025-03-07_10h53.26.003,comp,2024.2.4,54.74120536774705,2025-03-07 10h53.31.432086 -0500,
107,107,0,critical,hwd,35.0,1.0,upper,200.0,125.0,125.0,200.0,127.0,127.0,2,6.029855489730835,None,,,,,0,0,0,0,0,107,107,97,564.205174446106,,,,,,,,,,,,,,,,,,,,,,,,,,,,,,,,,,,,,,,,,,,,,,,,,,,,,,,,,,,,,,,,,,,,,,,,,,,,,,,,,200.0,125.0,125.0,200.0,127.0,127.0,1.0,1.2,-258,10,0,-14,260,14,564.18679022789,564.1869087219238,564.1904220581055,564.205174446106,564.3534688949585,564.3534688949585,564.3534688949585,564.3534688949585,564.3534688949585,564.3534688949585,564.3534688949585,570.2532629966736,2,6.029855489730835,None,,,,,,,,,,,,,,,,,,213,4,2025-03-07_10h53.26.003,comp,2024.2.4,54.74120536774705,2025-03-07 10h53.31.432086 -0500,
108,108,0,filler_square,None,None,None,None,None,None,None,None,None,None,2,3.0294878482818604,None,,,,,0,0,0,0,0,108,108,206,570.2702128887177,,,,,,,,,,,,,,,,,,,,,,,,,,,,,,,,,,,,,,,,,,,,,,,,,,,,,,,,,,,,,,,,,,,,,,,,,,,,,,,,,92.02545233049968,66.4972972048497,111.47966242824796,111.47966242824796,78.05009537876825,85.08154099415503,4.0,4.1,-185,-264,0,-14,194,-272,570.2551081180573,570.2552435398102,570.258556842804,570.2702128887177,570.41090965271,570.41090965271,570.41090965271,570.41090965271,570.41090965271,570.41090965271,570.41090965271,573.3045694828033,2,3.0294878482818604,None,,,,,,,,,,,,,,,,,,213,4,2025-03-07_10h53.26.003,comp,2024.2.4,54.74120536774705,2025-03-07 10h53.31.432086 -0500,
109,109,0,critical,dwh,20.0,2.1,upper,141.0,141.0,125.0,200.0,200.0,125.0,3,5.3790123462677,None,,,,,0,0,0,0,0,109,109,31,573.320380449295,,,,,,,,,,,,,,,,,,,,,,,,,,,,,,,,,,,,,,,,,,,,,,,,,,,,,,,,,,,,,,,,,,,,,,,,,,,,,,,,,141.0,141.0,125.0,200.0,200.0,125.0,2.1,2.12,-266,-259,0,-273,258,261,573.3062393665314,573.30637550354,573.309520483017,573.320380449295,573.4692459106445,573.4692459106445,573.4692459106445,573.4692459106445,573.4692459106445,573.4692459106445,573.4692459106445,578.7046246528625,3,5.3790123462677,None,,,,,,,,,,,,,,,,,,213,4,2025-03-07_10h53.26.003,comp,2024.2.4,54.74120536774705,2025-03-07 10h53.31.432086 -0500,
110,110,0,critical,dhw,20.0,2.1,upper,141.0,141.0,200.0,125.0,125.0,200.0,3,1.633955955505371,None,,,,,0,0,0,0,0,110,110,27,578.7210729122162,,,,,,,,,,,,,,,,,,,,,,,,,,,,,,,,,,,,,,,,,,,,,,,,,,,,,,,,,,,,,,,,,,,,,,,,,,,,,,,,,141.0,141.0,200.0,125.0,125.0,200.0,2.1,2.12,-229,-276,0,-278,258,251,578.7061741352081,578.7062501907349,578.709757566452,578.7210729122162,578.8692862987518,578.8692862987518,578.8692862987518,578.8692862987518,578.8692862987518,578.8692862987518,578.8692862987518,580.3721415996552,3,1.633955955505371,None,,,,,,,,,,,,,,,,,,213,4,2025-03-07_10h53.26.003,comp,2024.2.4,54.74120536774705,2025-03-07 10h53.31.432086 -0500,
111,111,0,filler_random,None,None,None,None,None,None,None,None,None,None,2,1.5594627857208252,None,,,,,0,0,0,0,0,111,111,142,580.3882739543915,,,,,,,,,,,,,,,,,,,,,,,,,,,,,,,,,,,,,,,,,,,,,,,,,,,,,,,,,,,,,,,,,,,,,,,,,,,,,,,,,76.49671925231601,112.76023833765299,151.3651822180595,197.38748841342004,145.97226544621714,125.39888375766917,2.1,2.12,-251,-255,0,-256,257,256,580.3741021156311,580.3741841316223,580.3776831626892,580.3882739543915,580.5374324321747,580.5374324321747,580.5374324321747,580.5374324321747,580.5374324321747,580.5374324321747,580.5374324321747,581.9561858177185,2,1.5594627857208252,None,,,,,,,,,,,,,,,,,,213,4,2025-03-07_10h53.26.003,comp,2024.2.4,54.74120536774705,2025-03-07 10h53.31.432086 -0500,
112,112,0,critical,whd,35.0,2.1,upper,125.0,200.0,200.0,125.0,127.0,127.0,2,2.380852699279785,None,,,,,0,0,0,0,0,112,112,37,581.9742200374603,,,,,,,,,,,,,,,,,,,,,,,,,,,,,,,,,,,,,,,,,,,,,,,,,,,,,,,,,,,,,,,,,,,,,,,,,,,,,,,,,125.0,200.0,200.0,125.0,127.0,127.0,2.1,2.12,-258,-277,0,-258,222,279,581.9577527046204,581.9578318595886,581.9612407684326,581.9742200374603,582.1219415664673,582.1219415664673,582.1219415664673,582.1219415664673,582.1219415664673,582.1219415664673,582.1219415664673,584.371336221695,2,2.380852699279785,None,,,,,,,,,,,,,,,,,,213,4,2025-03-07_10h53.26.003,comp,2024.2.4,54.74120536774705,2025-03-07 10h53.31.432086 -0500,
113,113,0,critical,hdw,20.0,3.0,lower,133.0,57.0,78.0,78.0,57.0,133.0,3,3.4881882667541504,None,,,,,0,0,0,0,0,113,113,116,584.3873629570007,,,,,,,,,,,,,,,,,,,,,,,,,,,,,,,,,,,,,,,,,,,,,,,,,,,,,,,,,,,,,,,,,,,,,,,,,,,,,,,,,133.0,57.0,78.0,78.0,57.0,133.0,3.0,3.2,-164,-267,0,9,202,271,584.3728260993958,584.3729033470154,584.3760221004486,584.3873629570007,584.5421080589294,584.5421080589294,584.5421080589294,584.5421080589294,584.5421080589294,584.5421080589294,584.5421080589294,587.8809015750885,3,3.4881882667541504,None,,,,,,,,,,,,,,,,,,213,4,2025-03-07_10h53.26.003,comp,2024.2.4,54.74120536774705,2025-03-07 10h53.31.432086 -0500,
114,114,0,critical,whd,20.0,2.1,upper,125.0,200.0,200.0,125.0,141.0,141.0,1,3.8990533351898193,None,,,,,0,0,0,0,0,114,114,39,587.8960297107697,,,,,,,,,,,,,,,,,,,,,,,,,,,,,,,,,,,,,,,,,,,,,,,,,,,,,,,,,,,,,,,,,,,,,,,,,,,,,,,,,125.0,200.0,200.0,125.0,141.0,141.0,2.1,2.11,-258,289,0,262,229,-272,587.8823816776276,587.8824582099915,587.8852872848511,587.8960297107697,588.0410733222961,588.0410733222961,588.0410733222961,588.0410733222961,588.0410733222961,588.0410733222961,588.0410733222961,591.8079462051392,1,3.8990533351898193,None,,,,,,,,,,,,,,,,,,213,4,2025-03-07_10h53.26.003,comp,2024.2.4,54.74120536774705,2025-03-07 10h53.31.432086 -0500,
115,115,0,critical,whd,20.0,3.0,upper,125.0,200.0,200.0,125.0,141.0,141.0,1,2.1291656494140625,None,,,,,0,0,0,0,0,115,115,93,591.8258063793182,,,,,,,,,,,,,,,,,,,,,,,,,,,,,,,,,,,,,,,,,,,,,,,,,,,,,,,,,,,,,,,,,,,,,,,,,,,,,,,,,125.0,200.0,200.0,125.0,141.0,141.0,3.0,3.2,-258,-286,0,16,229,251,591.8095192909241,591.8095960617065,591.8127601146698,591.8258063793182,591.9791269302368,591.9791269302368,591.9791269302368,591.9791269302368,591.9791269302368,591.9791269302368,591.9791269302368,593.9667057991028,1,2.1291656494140625,None,,,,,,,,,,,,,,,,,,213,4,2025-03-07_10h53.26.003,comp,2024.2.4,54.74120536774705,2025-03-07 10h53.31.432086 -0500,
116,116,0,filler_square,None,None,None,None,None,None,None,None,None,None,3,3.048675298690796,None,,,,,0,0,0,0,0,116,116,201,593.986499786377,,,,,,,,,,,,,,,,,,,,,,,,,,,,,,,,,,,,,,,,,,,,,,,,,,,,,,,,,,,,,,,,,,,,,,,,,,,,,,,,,73.70100632101088,101.44393331455333,106.44950220034231,92.05344833817614,114.43475758575073,114.43475758575073,1.0,1.3,287,-266,480,-283,679,-257,593.9685437679291,593.9686245918274,593.971529006958,593.986499786377,594.127560377121,594.127560377121,594.127560377121,594.127560377121,594.127560377121,594.127560377121,594.127560377121,597.037278175354,3,3.048675298690796,None,,,,,,,,,,,,,,,,,,213,4,2025-03-07_10h53.26.003,comp,2024.2.4,54.74120536774705,2025-03-07 10h53.31.432086 -0500,
117,117,0,critical,dwh,35.0,3.0,upper,127.0,127.0,125.0,200.0,200.0,125.0,2,3.596571445465088,None,,,,,0,0,0,0,0,117,117,63,597.055050611496,,,,,,,,,,,,,,,,,,,,,,,,,,,,,,,,,,,,,,,,,,,,,,,,,,,,,,,,,,,,,,,,,,,,,,,,,,,,,,,,,127.0,127.0,125.0,200.0,200.0,125.0,3.0,3.2,-260,-252,0,5,258,279,597.0388035774231,597.0388822555542,597.0418176651001,597.055050611496,597.1925151348114,597.1925151348114,597.1925151348114,597.1925151348114,597.1925151348114,597.1925151348114,597.1925151348114,600.6619560718536,2,3.596571445465088,None,,,,,,,,,,,,,,,,,,213,4,2025-03-07_10h53.26.003,comp,2024.2.4,54.74120536774705,2025-03-07 10h53.31.432086 -0500,
118,118,0,catch,None,None,None,None,None,None,None,None,None,None,2,2.8824679851531982,None,,,,,0,0,0,0,0,118,118,128,600.6806826591492,,,,,,,,,,,,,,,,,,,,,,,,,,,,,,,,,,,,,,,,,,,,,,,,,,,,,,,,,,,,,,,,,,,,,,,,,,,,,,,,,111,79,126,199,85,105,2.2,2.21,-235,-269,0,267,248,252,600.6638391017914,600.6639626026154,600.6676602363586,600.6806826591492,600.8273501396179,600.8273501396179,600.8273501396179,600.8273501396179,600.8273501396179,600.8273501396179,600.8273501396179,603.5787482261658,2,2.8824679851531982,None,,,,,,,,,,,,,,,,,,213,4,2025-03-07_10h53.26.003,comp,2024.2.4,54.74120536774705,2025-03-07 10h53.31.432086 -0500,
119,119,0,filler_square,None,None,None,None,None,None,None,None,None,None,3,3.0400874614715576,None,,,,,0,0,0,0,0,119,119,173,603.594934463501,,,,,,,,,,,,,,,,,,,,,,,,,,,,,,,,,,,,,,,,,,,,,,,,,,,,,,,,,,,,,,,,,,,,,,,,,,,,,,,,,70.77568223750042,80.3495496948243,83.88739079846529,59.99598586169434,86.76325406884257,86.76325406884257,2.2,2.21,-166,-260,0,263,169,289,603.580498456955,603.580575466156,603.584635257721,603.594934463501,603.7438459396362,603.7438459396362,603.7438459396362,603.7438459396362,603.7438459396362,603.7438459396362,603.7438459396362,606.6464669704437,3,3.0400874614715576,None,,,,,,,,,,,,,,,,,,213,4,2025-03-07_10h53.26.003,comp,2024.2.4,54.74120536774705,2025-03-07 10h53.31.432086 -0500,
120,120,0,filler_square,None,None,None,None,None,None,None,None,None,None,3,1.5374033451080322,None,,,,,0,0,0,0,0,120,120,202,606.6664519309998,,,,,,,,,,,,,,,,,,,,,,,,,,,,,,,,,,,,,,,,,,,,,,,,,,,,,,,,,,,,,,,,,,,,,,,,,,,,,,,,,67.72601114632127,58.99001217625934,66.22305791108256,65.52914305535795,78.09089208306733,78.09089208306733,3.0,3.1,-158,273,0,2,168,-263,606.6483290195465,606.6484711170197,606.6517627239227,606.6664519309998,606.8138093948364,606.8138093948364,606.8138093948364,606.8138093948364,606.8138093948364,606.8138093948364,606.8138093948364,608.213353395462,3,1.5374033451080322,None,,,,,,,,,,,,,,,,,,213,4,2025-03-07_10h53.26.003,comp,2024.2.4,54.74120536774705,2025-03-07 10h53.31.432086 -0500,
121,121,0,filler_square,None,None,None,None,None,None,None,None,None,None,2,1.829716444015503,None,,,,,0,0,0,0,0,121,121,175,608.2294435501099,,,,,,,,,,,,,,,,,,,,,,,,,,,,,,,,,,,,,,,,,,,,,,,,,,,,,,,,,,,,,,,,,,,,,,,,,,,,,,,,,114.40690734319053,131.7537464079989,138.0104564465525,138.0104564465525,64.81538084679313,62.623000321485826,4.0,4.1,-231,-279,0,-9,196,-284,608.2153475284576,608.2154266834259,608.2188899517059,608.2294435501099,608.3816647529602,608.3816647529602,608.3816647529602,608.3816647529602,608.3816647529602,608.3816647529602,608.3816647529602,610.0777418613434,2,1.829716444015503,None,,,,,,,,,,,,,,,,,,213,4,2025-03-07_10h53.26.003,comp,2024.2.4,54.74120536774705,2025-03-07 10h53.31.432086 -0500,
122,122,0,critical,dhw,35.0,2.1,upper,127.0,127.0,200.0,125.0,125.0,200.0,3,1.4365143775939941,None,,,,,0,0,0,0,0,122,122,1,610.0946066379547,,,,,,,,,,,,,,,,,,,,,,,,,,,,,,,,,,,,,,,,,,,,,,,,,,,,,,,,,,,,,,,,,,,,,,,,,,,,,,,,,127.0,127.0,200.0,125.0,125.0,200.0,2.1,2.12,-222,-252,0,-287,258,275,610.0791864395142,610.0792608261108,610.0821506977081,610.0946066379547,610.2458226680756,610.2458226680756,610.2458226680756,610.2458226680756,610.2458226680756,610.2458226680756,610.2458226680756,611.5466332435608,3,1.4365143775939941,None,,,,,,,,,,,,,,,,,,213,4,2025-03-07_10h53.26.003,comp,2024.2.4,54.74120536774705,2025-03-07 10h53.31.432086 -0500,
123,123,0,filler_random,None,None,None,None,None,None,None,None,None,None,1,1.3850383758544922,None,,,,,0,0,0,0,0,123,123,134,611.5630576610565,,,,,,,,,,,,,,,,,,,,,,,,,,,,,,,,,,,,,,,,,,,,,,,,,,,,,,,,,,,,,,,,,,,,,,,,,,,,,,,,,124.38014806703616,184.5714926786726,121.88275929393276,92.09100534219604,68.68893848952776,105.76607288124865,2.1,2.12,-234,-262,0,-277,195,283,611.5484297275543,611.5485503673553,611.5517299175262,611.5630576610565,611.716607093811,611.716607093811,611.716607093811,611.716607093811,611.716607093811,611.716607093811,611.716607093811,612.9521942138672,1,1.3850383758544922,None,,,,,,,,,,,,,,,,,,213,4,2025-03-07_10h53.26.003,comp,2024.2.4,54.74120536774705,2025-03-07 10h53.31.432086 -0500,
124,124,0,critical,hwd,35.0,3.0,upper,200.0,125.0,125.0,200.0,127.0,127.0,2,1.4600744247436523,None,,,,,0,0,0,0,0,124,124,99,612.9680633544922,,,,,,,,,,,,,,,,,,,,,,,,,,,,,,,,,,,,,,,,,,,,,,,,,,,,,,,,,,,,,,,,,,,,,,,,,,,,,,,,,200.0,125.0,125.0,200.0,127.0,127.0,3.0,3.2,-258,-269,0,7,260,261,612.9537680149078,612.9538443088531,612.9572443962097,612.9680633544922,613.1184618473053,613.1184618473053,613.1184618473053,613.1184618473053,613.1184618473053,613.1184618473053,613.1184618473053,614.4343996047974,2,1.4600744247436523,None,,,,,,,,,,,,,,,,,,213,4,2025-03-07_10h53.26.003,comp,2024.2.4,54.74120536774705,2025-03-07 10h53.31.432086 -0500,
125,125,0,filler_square,None,None,None,None,None,None,None,None,None,None,2,2.6411547660827637,None,,,,,0,0,0,0,0,125,125,187,614.4505951404572,,,,,,,,,,,,,,,,,,,,,,,,,,,,,,,,,,,,,,,,,,,,,,,,,,,,,,,,,,,,,,,,,,,,,,,,,,,,,,,,,95.31492443048248,88.04085151909555,115.04847335128224,115.04847335128224,112.4754269134653,67.42541978723463,4.0,4.1,-198,-278,0,20,187,-272,614.4364085197449,614.4364876747131,614.4399139881134,614.4505951404572,614.5968110561371,614.5968110561371,614.5968110561371,614.5968110561371,614.5968110561371,614.5968110561371,614.5968110561371,617.0957899093628,2,2.6411547660827637,None,,,,,,,,,,,,,,,,,,213,4,2025-03-07_10h53.26.003,comp,2024.2.4,54.74120536774705,2025-03-07 10h53.31.432086 -0500,
126,126,0,filler_square,None,None,None,None,None,None,None,None,None,None,2,1.210796594619751,None,,,,,0,0,0,0,0,126,126,178,617.1135034561157,,,,,,,,,,,,,,,,,,,,,,,,,,,,,,,,,,,,,,,,,,,,,,,,,,,,,,,,,,,,,,,,,,,,,,,,,,,,,,,,,113.68059357290036,66.37617230987452,178.77187303868524,178.77187303868524,130.73263094686735,139.6571937006031,3.0,3.2,-219,-259,0,2,255,289,617.0978162288666,617.0978956222534,617.1011142730713,617.1135034561157,617.2620146274567,617.2620146274567,617.2620146274567,617.2620146274567,617.2620146274567,617.2620146274567,617.2620146274567,618.3324160575867,2,1.210796594619751,None,,,,,,,,,,,,,,,,,,213,4,2025-03-07_10h53.26.003,comp,2024.2.4,54.74120536774705,2025-03-07 10h53.31.432086 -0500,
127,127,0,critical,wdh,35.0,2.1,upper,125.0,200.0,127.0,127.0,200.0,125.0,1,4.6463539600372314,None,,,,,0,0,0,0,0,127,127,33,618.3492116928101,,,,,,,,,,,,,,,,,,,,,,,,,,,,,,,,,,,,,,,,,,,,,,,,,,,,,,,,,,,,,,,,,,,,,,,,,,,,,,,,,125.0,200.0,127.0,127.0,200.0,125.0,2.1,2.11,-260,256,0,287,222,-280,618.3340301513672,618.3341088294983,618.3374583721161,618.3492116928101,618.4998714923859,618.4998714923859,618.4998714923859,618.4998714923859,618.4998714923859,618.4998714923859,618.4998714923859,623.0037603378296,1,4.6463539600372314,None,,,,,,,,,,,,,,,,,,213,4,2025-03-07_10h53.26.003,comp,2024.2.4,54.74120536774705,2025-03-07 10h53.31.432086 -0500,
128,128,0,filler_random,None,None,None,None,None,None,None,None,None,None,1,1.510143518447876,None,,,,,0,0,0,0,0,128,128,135,623.0209031105042,,,,,,,,,,,,,,,,,,,,,,,,,,,,,,,,,,,,,,,,,,,,,,,,,,,,,,,,,,,,,,,,,,,,,,,,,,,,,,,,,70.30830904747275,195.96908383333488,186.24524180677145,107.70168967395655,167.13504020075462,148.38160022718856,2.1,2.12,-248,-270,0,-262,224,288,623.0058059692383,623.005889415741,623.0091853141785,623.0209031105042,623.167585849762,623.167585849762,623.167585849762,623.167585849762,623.167585849762,623.167585849762,623.167585849762,624.5350029468536,1,1.510143518447876,None,,,,,,,,,,,,,,,,,,213,4,2025-03-07_10h53.26.003,comp,2024.2.4,54.74120536774705,2025-03-07 10h53.31.432086 -0500,
129,129,0,critical,whd,20.0,2.1,upper,125.0,200.0,200.0,125.0,141.0,141.0,1,5.052155494689941,None,,,,,0,0,0,0,0,129,129,15,624.55095911026,,,,,,,,,,,,,,,,,,,,,,,,,,,,,,,,,,,,,,,,,,,,,,,,,,,,,,,,,,,,,,,,,,,,,,,,,,,,,,,,,125.0,200.0,200.0,125.0,141.0,141.0,2.1,2.12,-258,-290,0,-255,229,280,624.5365221500397,624.5366003513336,624.5400183200836,624.55095911026,624.7003545761108,624.7003545761108,624.7003545761108,624.7003545761108,624.7003545761108,624.7003545761108,624.7003545761108,629.6205492019653,1,5.052155494689941,None,,,,,,,,,,,,,,,,,,213,4,2025-03-07_10h53.26.003,comp,2024.2.4,54.74120536774705,2025-03-07 10h53.31.432086 -0500,
130,130,0,filler_random,None,None,None,None,None,None,None,None,None,None,3,4.103269100189209,None,,,,,0,0,0,0,0,130,130,152,629.6358828544617,,,,,,,,,,,,,,,,,,,,,,,,,,,,,,,,,,,,,,,,,,,,,,,,,,,,,,,,,,,,,,,,,,,,,,,,,,,,,,,,,144.43247932598808,101.97832907683289,103.41012970156262,183.22928394387242,165.12013885138418,133.49646221521357,1.0,1.1,-719,250,-480,267,-226,275,629.6224400997162,629.6225218772888,629.6256334781647,629.6358828544617,629.7851715087891,629.7851715087891,629.7851715087891,629.7851715087891,629.7851715087891,629.7851715087891,629.7851715087891,633.7567737102509,3,4.103269100189209,None,,,,,,,,,,,,,,,,,,213,4,2025-03-07_10h53.26.003,comp,2024.2.4,54.74120536774705,2025-03-07 10h53.31.432086 -0500,
131,131,0,filler_random,None,None,None,None,None,None,None,None,None,None,3,1.838181495666504,None,,,,,0,0,0,0,0,131,131,147,633.7731022834778,,,,,,,,,,,,,,,,,,,,,,,,,,,,,,,,,,,,,,,,,,,,,,,,,,,,,,,,,,,,,,,,,,,,,,,,,,,,,,,,,131.56367272001802,158.3265505293406,167.8899383662602,135.87943761585063,177.50689761658438,187.56794376044564,1.0,1.3,237,-281,480,-266,738,-263,633.7587220668793,633.7588639259338,633.7621099948883,633.7731022834778,633.922456741333,633.922456741333,633.922456741333,633.922456741333,633.922456741333,633.922456741333,633.922456741333,635.6132473945618,3,1.838181495666504,None,,,,,,,,,,,,,,,,,,213,4,2025-03-07_10h53.26.003,comp,2024.2.4,54.74120536774705,2025-03-07 10h53.31.432086 -0500,
132,132,0,critical,whd,20.0,4.0,upper,125.0,200.0,200.0,125.0,141.0,141.0,1,4.422485113143921,None,,,,,0,0,0,0,0,132,132,95,635.62921667099,,,,,,,,,,,,,,,,,,,,,,,,,,,,,,,,,,,,,,,,,,,,,,,,,,,,,,,,,,,,,,,,,,,,,,,,,,,,,,,,,125.0,200.0,200.0,125.0,141.0,141.0,4.0,4.2,-258,11,0,-255,229,-3,635.6148533821106,635.6149570941925,635.6182949542999,635.62921667099,635.7755558490753,635.7755558490753,635.7755558490753,635.7755558490753,635.7755558490753,635.7755558490753,635.7755558490753,640.0576002597809,1,4.422485113143921,None,,,,,,,,,,,,,,,,,,213,4,2025-03-07_10h53.26.003,comp,2024.2.4,54.74120536774705,2025-03-07 10h53.31.432086 -0500,
133,133,0,filler_random,None,None,None,None,None,None,None,None,None,None,3,3.3534679412841797,None,,,,,0,0,0,0,0,133,133,154,640.0740587711334,,,,,,,,,,,,,,,,,,,,,,,,,,,,,,,,,,,,,,,,,,,,,,,,,,,,,,,,,,,,,,,,,,,,,,,,,,,,,,,,,170.26367913408552,161.02828483187233,95.44729303377123,120.60724880629714,183.99879353636666,165.62034847765267,3.0,3.2,-237,-274,0,-2,239,276,640.0595953464508,640.0596780776978,640.0631880760193,640.0740587711334,640.2291796207428,640.2291796207428,640.2291796207428,640.2291796207428,640.2291796207428,640.2291796207428,640.2291796207428,643.4337072372437,3,3.3534679412841797,None,,,,,,,,,,,,,,,,,,213,4,2025-03-07_10h53.26.003,comp,2024.2.4,54.74120536774705,2025-03-07 10h53.31.432086 -0500,
134,134,0,filler_random,None,None,None,None,None,None,None,None,None,None,3,1.279707908630371,None,,,,,0,0,0,0,0,134,134,159,643.4513714313507,,,,,,,,,,,,,,,,,,,,,,,,,,,,,,,,,,,,,,,,,,,,,,,,,,,,,,,,,,,,,,,,,,,,,,,,,,,,,,,,,120.0320827217475,117.22878763486969,170.82473742073682,62.830892543614866,175.18264235662966,186.38011467002383,3.0,3.2,-186,-282,0,-1,221,252,643.4353437423706,643.4354224205017,643.4383289813995,643.4513714313507,643.59099817276,643.59099817276,643.59099817276,643.59099817276,643.59099817276,643.59099817276,643.59099817276,644.7436940670013,3,1.279707908630371,None,,,,,,,,,,,,,,,,,,213,4,2025-03-07_10h53.26.003,comp,2024.2.4,54.74120536774705,2025-03-07 10h53.31.432086 -0500,
135,135,0,critical,whd,35.0,4.0,lower,57.0,133.0,133.0,57.0,70.0,70.0,2,9.70734167098999,None,,,,,0,0,0,0,0,135,135,88,644.7600793838501,,,,,,,,,,,,,,,,,,,,,,,,,,,,,,,,,,,,,,,,,,,,,,,,,,,,,,,,,,,,,,,,,,,,,,,,,,,,,,,,,57.0,133.0,133.0,57.0,70.0,70.0,4.0,4.2,-191,1,0,-255,160,-13,644.7452816963196,644.7454376220703,644.7488915920258,644.7600793838501,644.9064946174622,644.9064946174622,644.9064946174622,644.9064946174622,644.9064946174622,644.9064946174622,644.9064946174622,654.4797832965851,2,9.70734167098999,None,,,,,,,,,,,,,,,,,,213,4,2025-03-07_10h53.26.003,comp,2024.2.4,54.74120536774705,2025-03-07 10h53.31.432086 -0500,
136,136,0,filler_random,None,None,None,None,None,None,None,None,None,None,1,2.7786922454833984,None,,,,,0,0,0,0,0,136,136,131,654.4963910579681,,,,,,,,,,,,,,,,,,,,,,,,,,,,,,,,,,,,,,,,,,,,,,,,,,,,,,,,,,,,,,,,,,,,,,,,,,,,,,,,,68.83736130947364,160.27374065373454,140.5673657648129,60.28412864996263,65.403134539302,117.0541442422832,2.2,2.21,-206,-276,0,257,185,284,654.4818823337555,654.4819648265839,654.485613822937,654.4963910579681,654.6444115638733,654.6444115638733,654.6444115638733,654.6444115638733,654.6444115638733,654.6444115638733,654.6444115638733,657.2786893844604,1,2.7786922454833984,None,,,,,,,,,,,,,,,,,,213,4,2025-03-07_10h53.26.003,comp,2024.2.4,54.74120536774705,2025-03-07 10h53.31.432086 -0500,
137,137,0,critical,wdh,35.0,3.0,lower,57.0,133.0,70.0,70.0,133.0,57.0,1,3.87703275680542,None,,,,,0,0,0,0,0,137,137,74,657.2944855690002,,,,,,,,,,,,,,,,,,,,,,,,,,,,,,,,,,,,,,,,,,,,,,,,,,,,,,,,,,,,,,,,,,,,,,,,,,,,,,,,,57.0,133.0,70.0,70.0,133.0,57.0,3.0,3.2,-198,-272,0,-8,160,262,657.2802476882935,657.2803590297699,657.2838084697723,657.2944855690002,657.4435908794403,657.4435908794403,657.4435908794403,657.4435908794403,657.4435908794403,657.4435908794403,657.4435908794403,661.1796867847443,1,3.87703275680542,None,,,,,,,,,,,,,,,,,,213,4,2025-03-07_10h53.26.003,comp,2024.2.4,54.74120536774705,2025-03-07 10h53.31.432086 -0500,
138,138,0,filler_random,None,None,None,None,None,None,None,None,None,None,1,6.929930210113525,None,,,,,0,0,0,0,0,138,138,132,661.1958055496216,,,,,,,,,,,,,,,,,,,,,,,,,,,,,,,,,,,,,,,,,,,,,,,,,,,,,,,,,,,,,,,,,,,,,,,,,,,,,,,,,122.14286428879615,194.23011393612234,147.82789864875613,139.44506153430385,63.722029097629175,170.22944882859454,4.0,4.2,-263,20,0,-260,251,1,661.18128657341,661.1813855171204,661.1848998069763,661.1958055496216,661.3453714847565,661.3453714847565,661.3453714847565,661.3453714847565,661.3453714847565,661.3453714847565,661.3453714847565,668.1310970783234,1,6.929930210113525,None,,,,,,,,,,,,,,,,,,213,4,2025-03-07_10h53.26.003,comp,2024.2.4,54.74120536774705,2025-03-07 10h53.31.432086 -0500,
139,139,0,critical,dhw,20.0,3.0,upper,141.0,141.0,200.0,125.0,125.0,200.0,2,2.511690378189087,None,,,,,0,0,0,0,0,139,139,57,668.1474967002869,,,,,,,,,,,,,,,,,,,,,,,,,,,,,,,,,,,,,,,,,,,,,,,,,,,,,,,,,,,,,,,,,,,,,,,,,,,,,,,,,141.0,141.0,200.0,125.0,125.0,200.0,3.0,3.1,-229,277,0,1,258,-277,668.1326024532318,668.1326816082001,668.1357741355896,668.1474967002869,668.2984349727631,668.2984349727631,668.2984349727631,668.2984349727631,668.2984349727631,668.2984349727631,668.2984349727631,670.6688582897186,2,2.511690378189087,None,,,,,,,,,,,,,,,,,,213,4,2025-03-07_10h53.26.003,comp,2024.2.4,54.74120536774705,2025-03-07 10h53.31.432086 -0500,
140,140,0,critical,whd,20.0,4.0,lower,57.0,133.0,133.0,57.0,78.0,78.0,1,3.3821208477020264,None,,,,,0,0,0,0,0,140,140,94,670.6850070953369,,,,,,,,,,,,,,,,,,,,,,,,,,,,,,,,,,,,,,,,,,,,,,,,,,,,,,,,,,,,,,,,,,,,,,,,,,,,,,,,,57.0,133.0,133.0,57.0,78.0,78.0,4.0,4.1,-191,-289,0,-19,164,-251,670.6706054210663,670.670726776123,670.6743621826172,670.6850070953369,670.8363635540009,670.8363635540009,670.8363635540009,670.8363635540009,670.8363635540009,670.8363635540009,670.8363635540009,674.0862364768982,1,3.3821208477020264,None,,,,,,,,,,,,,,,,,,213,4,2025-03-07_10h53.26.003,comp,2024.2.4,54.74120536774705,2025-03-07 10h53.31.432086 -0500,
