thisN,thisTrialN,thisRepN,effect,order,distance,config,diag,h_1,w_1,h_2,w_2,h_3,w_3,rect_choice.keys,rect_choice.rt,rect_choice.duration,instructions_loop.thisRepN,instructions_loop.thisTrialN,instructions_loop.thisN,instructions_loop.thisIndex,blocks.thisRepN,blocks.thisTrialN,blocks.thisN,blocks.thisIndex,trials.thisRepN,trials.thisTrialN,trials.thisN,trials.thisIndex,thisRow.t,notes,consent.started,agree_button.started,decline_button.started,consent_img.started,mouse.started,consent.stopped,agree_button.numClicks,agree_button.timesOn,agree_button.timesOff,decline_button.numClicks,decline_button.timesOn,decline_button.timesOff,mouse.x,mouse.y,mouse.leftButton,mouse.midButton,mouse.rightButton,mouse.time,mouse.clicked_name,exp_params.started,exp_params.stopped,welcome.started,welcome_text.started,welcome.stopped,instructions_1.started,instructions_1_text_1.started,instructions_1_text_2.started,key_resp.started,instructions_1.stopped,instructions_loop.key_resp.keys,instructions_loop.key_resp.rt,instructions_loop.key_resp.duration,instructions_2.started,instructions_2_text_1.started,instructions_2_text_2.started,key_resp_2.started,instructions_2.stopped,instructions_loop.key_resp_2.keys,instructions_loop.key_resp_2.rt,instructions_loop.key_resp_2.duration,instructions_3.started,instructions_3_text_1.started,r1_instr3.started,r2_instr3.started,r3_instr3.started,r1_instr3_label.started,r2_instr3_label.started,r3_instr3_label.started,instructions_3_text_3.started,instructions_3_text_4.started,key_resp_3.started,instructions_3.stopped,instructions_loop.key_resp_3.keys,instructions_loop.key_resp_3.rt,instructions_loop.key_resp_3.duration,instructions_4.started,instructions_4_text_1.started,instructions_4_text_3.started,instructions_4_text_2.started,key_resp_4.started,instructions_4.stopped,instructions_loop.key_resp_4.keys,instructions_loop.key_resp_4.rt,instructions_loop.key_resp_4.duration,instructions_5.started,instructions_5_text_1.started,instructions_5_text_2.started,key_resp_5.started,instructions_5.stopped,instructions_loop.key_resp_5.keys,instructions_loop.key_resp_5.rt,instructions_loop.key_resp_5.duration,start_exp.started,start_exp_text.started,key_resp_6.started,start_exp.stopped,key_resp_6.keys,key_resp_6.rt,key_resp_6.duration,h_1_tmp,w_1_tmp,h_2_tmp,w_2_tmp,h_3_tmp,w_3_tmp,config_tmp,config_tmp_1,r_1_x,r_1_y,r_2_x,r_2_y,r_3_x,r_3_y,pre_trial.started,pre_trial.stopped,choice_trial.started,rect_choice.started,r_1.started,r_2.started,r_3.started,r_1_label.started,r_2_label.started,r_3_label.started,prompt.started,choice_trial.stopped,trials.rect_choice.keys,trials.rect_choice.rt,trials.rect_choice.duration,end_block.started,end_block_text.started,end_block.stopped,end.started,end_text.started,key_resp_7.started,end.stopped,key_resp_7.keys,key_resp_7.rt,key_resp_7.duration,debriefing.started,debrief_form.started,end_debrief.started,debriefing.stopped,end_debrief.keys,end_debrief.rt,end_debrief.duration,participant,computer,date,expName,psychopyVersion,frameRate,expStart,
,,,,,,,,,,,,,,,,,,,,,,,,,,,,,,,0.015700578689575195,0.04340648651123047,0.04340648651123047,0.04340648651123047,0.015133142471313477,36.73651909828186,1,[36.69174122810364],[36.69175171852112],0,,,[-96.0],[-508.0],[1],[0],[0],[36.71923041343689],['agree_button'],,,,,,,,,,,,,,,,,,,,,,,,,,,,,,,,,,,,,,,,,,,,,,,,,,,,,,,,,,,,,,,,,,,,,,,,,,,,,,,,,,,,,,,,,,,,,,,,,,,,,,,,,,,214,5,2025-03-07_10h53.51.615,comp,2024.2.4,60.05048227321991,2025-03-07 10h53.59.634753 -0500,
,,,,,,,,,,,,,,,,,,,,,,,,,,,,,,,,,,,,,,,,,,,,,,,,,,36.73680400848389,36.73684048652649,,,,,,,,,,,,,,,,,,,,,,,,,,,,,,,,,,,,,,,,,,,,,,,,,,,,,,,,,,,,,,,,,,,,,,,,,,,,,,,,,,,,,,,,,,,,,,,,,,,,,,,,,214,5,2025-03-07_10h53.51.615,comp,2024.2.4,60.05048227321991,2025-03-07 10h53.59.634753 -0500,
,,,,,,,,,,,,,,,,,,,,,,,,,,,,,,,,,,,,,,,,,,,,,,,,,,,,36.73686456680298,36.75017285346985,38.746315240859985,,,,,,,,,,,,,,,,,,,,,,,,,,,,,,,,,,,,,,,,,,,,,,,,,,,,,,,,,,,,,,,,,,,,,,,,,,,,,,,,,,,,,,,,,,,,,,,,,,,,,,214,5,2025-03-07_10h53.51.615,comp,2024.2.4,60.05048227321991,2025-03-07 10h53.59.634753 -0500,
0,0,0,,,,,,,,,,,,,,,0,0,0,0,,,,,,,,,38.76315259933472,,,,,,,,,,,,,,,,,,,,,,,,,,38.74688005447388,38.76315259933472,38.76315259933472,40.246442794799805,43.71451187133789,space,3.454197883605957,None,43.714595317840576,43.72972536087036,43.72972536087036,45.229714155197144,57.33175086975098,space,12.095035314559937,None,57.33183288574219,57.35517907142639,57.35517907142639,57.35517907142639,57.35517907142639,57.35517907142639,57.35517907142639,57.35517907142639,57.35517907142639,57.35517907142639,58.84662485122681,64.63109016418457,space,5.773266315460205,None,64.63117384910583,64.64677953720093,64.64677953720093,64.64677953720093,66.14625716209412,78.56412672996521,space,12.40984296798706,None,78.56421327590942,78.57977199554443,78.57977199554443,80.07931280136108,82.99722456932068,space,2.9090542793273926,None,82.99733877182007,83.0129165649414,83.0129165649414,84.34708762168884,space,1.3272664546966553,None,,,,,,,,,,,,,,,,,,,,,,,,,,,,,,,,,,,,,,,,,,,,,,,214,5,2025-03-07_10h53.51.615,comp,2024.2.4,60.05048227321991,2025-03-07 10h53.59.634753 -0500,
0,0,0,filler_random,None,None,None,None,None,None,None,None,None,None,3,3.3641796112060547,None,,,,,0,0,0,0,0,0,0,157,84.40796303749084,,,,,,,,,,,,,,,,,,,,,,,,,,,,,,,,,,,,,,,,,,,,,,,,,,,,,,,,,,,,,,,,,,,,,,,,,,,,,,,,,150.18427223721034,94.70209916587939,199.7326846886779,89.53466176280867,188.92211750357035,166.67974262973559,4.0,4.2,-188,4,0,-266,224,14,84.39418148994446,84.39422821998596,84.39628195762634,84.40796303749084,84.55282282829285,84.55282282829285,84.55282282829285,84.55282282829285,84.55282282829285,84.55282282829285,84.55282282829285,87.78174018859863,3,3.3641796112060547,None,,,,,,,,,,,,,,,,,,214,5,2025-03-07_10h53.51.615,comp,2024.2.4,60.05048227321991,2025-03-07 10h53.59.634753 -0500,
1,1,0,filler_square,None,None,None,None,None,None,None,None,None,None,1,10.983403205871582,None,,,,,0,0,0,0,0,1,1,179,87.79674243927002,,,,,,,,,,,,,,,,,,,,,,,,,,,,,,,,,,,,,,,,,,,,,,,,,,,,,,,,,,,,,,,,,,,,,,,,,,,,,,,,,101.33939585395441,74.76273125626896,92.17309150259922,77.21745599888169,103.17853483877877,103.17853483877877,2.1,2.12,-172,-272,0,-279,186,269,87.78276014328003,87.78280305862427,87.78475332260132,87.79674243927002,87.94690918922424,87.94690918922424,87.94690918922424,87.94690918922424,87.94690918922424,87.94690918922424,87.94690918922424,98.7972400188446,1,10.983403205871582,None,,,,,,,,,,,,,,,,,,214,5,2025-03-07_10h53.51.615,comp,2024.2.4,60.05048227321991,2025-03-07 10h53.59.634753 -0500,
2,2,0,filler_square,None,None,None,None,None,None,None,None,None,None,3,9.159273862838745,None,,,,,0,0,0,0,0,2,2,178,98.8126699924469,,,,,,,,,,,,,,,,,,,,,,,,,,,,,,,,,,,,,,,,,,,,,,,,,,,,,,,,,,,,,,,,,,,,,,,,,,,,,,,,,72.07425993554402,68.01674578808944,60.419366219994224,73.45411107269064,78.36137553060897,78.36137553060897,3.0,3.2,-167,-269,0,3,172,251,98.79821395874023,98.79825568199158,98.8004138469696,98.8126699924469,98.96274828910828,98.96274828910828,98.96274828910828,98.96274828910828,98.96274828910828,98.96274828910828,98.96274828910828,107.98047709465027,3,9.159273862838745,None,,,,,,,,,,,,,,,,,,214,5,2025-03-07_10h53.51.615,comp,2024.2.4,60.05048227321991,2025-03-07 10h53.59.634753 -0500,
3,3,0,filler_random,None,None,None,None,None,None,None,None,None,None,3,28.433249473571777,None,,,,,0,0,0,0,0,3,3,137,107.99618172645569,,,,,,,,,,,,,,,,,,,,,,,,,,,,,,,,,,,,,,,,,,,,,,,,,,,,,,,,,,,,,,,,,,,,,,,,,,,,,,,,,168.16912677790327,120.77664954454832,91.48301692153736,99.26485696462018,128.479988950497,166.15513801890927,1.0,1.3,274,-253,480,-254,709,-274,107.98144435882568,107.98148560523987,107.98386430740356,107.99618172645569,108.14630675315857,108.14630675315857,108.14630675315857,108.14630675315857,108.14630675315857,108.14630675315857,108.14630675315857,136.43068289756775,3,28.433249473571777,None,,,,,,,,,,,,,,,,,,214,5,2025-03-07_10h53.51.615,comp,2024.2.4,60.05048227321991,2025-03-07 10h53.59.634753 -0500,
4,4,0,critical,wdh,35.0,3.0,upper,125.0,200.0,127.0,127.0,200.0,125.0,1,7.269810438156128,None,,,,,0,0,0,0,0,4,4,75,136.44596242904663,,,,,,,,,,,,,,,,,,,,,,,,,,,,,,,,,,,,,,,,,,,,,,,,,,,,,,,,,,,,,,,,,,,,,,,,,,,,,,,,,125.0,200.0,127.0,127.0,200.0,125.0,3.0,3.1,-260,289,0,-12,222,-251,136.43147349357605,136.43151569366455,136.4336338043213,136.44596242904663,136.5960509777069,136.5960509777069,136.5960509777069,136.5960509777069,136.5960509777069,136.5960509777069,136.5960509777069,143.73051643371582,1,7.269810438156128,None,,,,,,,,,,,,,,,,,,214,5,2025-03-07_10h53.51.615,comp,2024.2.4,60.05048227321991,2025-03-07 10h53.59.634753 -0500,
5,5,0,critical,whd,35.0,4.0,upper,125.0,200.0,200.0,125.0,127.0,127.0,2,6.899531602859497,None,,,,,0,0,0,0,0,5,5,89,143.74566221237183,,,,,,,,,,,,,,,,,,,,,,,,,,,,,,,,,,,,,,,,,,,,,,,,,,,,,,,,,,,,,,,,,,,,,,,,,,,,,,,,,125.0,200.0,200.0,125.0,127.0,127.0,4.0,4.1,-258,-270,0,2,222,-261,143.73237776756287,143.7324299812317,143.73447465896606,143.74566221237183,143.89609146118164,143.89609146118164,143.89609146118164,143.89609146118164,143.89609146118164,143.89609146118164,143.89609146118164,150.64712500572205,2,6.899531602859497,None,,,,,,,,,,,,,,,,,,214,5,2025-03-07_10h53.51.615,comp,2024.2.4,60.05048227321991,2025-03-07 10h53.59.634753 -0500,
6,6,0,filler_square,None,None,None,None,None,None,None,None,None,None,3,12.900843620300293,None,,,,,0,0,0,0,0,6,6,208,150.66257739067078,,,,,,,,,,,,,,,,,,,,,,,,,,,,,,,,,,,,,,,,,,,,,,,,,,,,,,,,,,,,,,,,,,,,,,,,,,,,,,,,,59.74529191289634,59.57354085153518,62.92680868892286,57.856924177044526,63.036239188873644,63.036239188873644,4.0,4.2,-155,-1,0,-253,156,2,150.64810228347778,150.6481454372406,150.65031599998474,150.66257739067078,150.81238913536072,150.81238913536072,150.81238913536072,150.81238913536072,150.81238913536072,150.81238913536072,150.81238913536072,163.58002138137817,3,12.900843620300293,None,,,,,,,,,,,,,,,,,,214,5,2025-03-07_10h53.51.615,comp,2024.2.4,60.05048227321991,2025-03-07 10h53.59.634753 -0500,
7,7,0,filler_random,None,None,None,None,None,None,None,None,None,None,3,5.2170188426971436,None,,,,,0,0,0,0,0,7,7,139,163.5954828262329,,,,,,,,,,,,,,,,,,,,,,,,,,,,,,,,,,,,,,,,,,,,,,,,,,,,,,,,,,,,,,,,,,,,,,,,,,,,,,,,,177.39057293820156,67.5384738186032,114.58692354400907,141.32472477426845,85.71938823845687,176.3338860735343,3.0,3.2,-200,-255,0,2,255,275,163.58091020584106,163.58095049858093,163.58349657058716,163.5954828262329,163.74576783180237,163.74576783180237,163.74576783180237,163.74576783180237,163.74576783180237,163.74576783180237,163.74576783180237,168.81367897987366,3,5.2170188426971436,None,,,,,,,,,,,,,,,,,,214,5,2025-03-07_10h53.51.615,comp,2024.2.4,60.05048227321991,2025-03-07 10h53.59.634753 -0500,
8,8,0,critical,hdw,20.0,3.0,upper,200.0,125.0,141.0,141.0,125.0,200.0,3,8.053558111190796,None,,,,,0,0,0,0,0,8,8,117,168.8289921283722,,,,,,,,,,,,,,,,,,,,,,,,,,,,,,,,,,,,,,,,,,,,,,,,,,,,,,,,,,,,,,,,,,,,,,,,,,,,,,,,,200.0,125.0,141.0,141.0,125.0,200.0,3.0,3.2,-229,-273,0,-3,266,278,168.81448698043823,168.8145294189453,168.8166151046753,168.8289921283722,168.97916865348816,168.97916865348816,168.97916865348816,168.97916865348816,168.97916865348816,168.97916865348816,168.97916865348816,176.8970227241516,3,8.053558111190796,None,,,,,,,,,,,,,,,,,,214,5,2025-03-07_10h53.51.615,comp,2024.2.4,60.05048227321991,2025-03-07 10h53.59.634753 -0500,
9,9,0,critical,wdh,20.0,3.0,upper,125.0,200.0,141.0,141.0,200.0,125.0,1,35.49150204658508,None,,,,,0,0,0,0,0,9,9,81,176.9121663570404,,,,,,,,,,,,,,,,,,,,,,,,,,,,,,,,,,,,,,,,,,,,,,,,,,,,,,,,,,,,,,,,,,,,,,,,,,,,,,,,,125.0,200.0,141.0,141.0,200.0,125.0,3.0,3.2,-266,-259,0,15,229,280,176.89788556098938,176.89793157577515,176.89993929862976,176.9121663570404,177.06239938735962,177.06239938735962,177.06239938735962,177.06239938735962,177.06239938735962,177.06239938735962,177.06239938735962,212.4133722782135,1,35.49150204658508,None,,,,,,,,,,,,,,,,,,214,5,2025-03-07_10h53.51.615,comp,2024.2.4,60.05048227321991,2025-03-07 10h53.59.634753 -0500,
10,10,0,catch,None,None,None,None,None,None,None,None,None,None,2,3.1339547634124756,None,,,,,0,0,0,0,0,10,10,127,212.42873573303223,,,,,,,,,,,,,,,,,,,,,,,,,,,,,,,,,,,,,,,,,,,,,,,,,,,,,,,,,,,,,,,,,,,,,,,,,,,,,,,,,92,98,175,150,95,95,1.0,1.3,260,-270,480,-269,698,-264,212.4143931865692,212.4144356250763,212.41679286956787,212.42873573303223,212.5789828300476,212.5789828300476,212.5789828300476,212.5789828300476,212.5789828300476,212.5789828300476,212.5789828300476,215.57971262931824,2,3.1339547634124756,None,,,,,,,,,,,,,,,,,,214,5,2025-03-07_10h53.51.615,comp,2024.2.4,60.05048227321991,2025-03-07 10h53.59.634753 -0500,
11,11,0,filler_square,None,None,None,None,None,None,None,None,None,None,2,15.465872049331665,None,,,,,0,0,0,0,0,11,11,207,215.5951428413391,,,,,,,,,,,,,,,,,,,,,,,,,,,,,,,,,,,,,,,,,,,,,,,,,,,,,,,,,,,,,,,,,,,,,,,,,,,,,,,,,57.40818895472284,57.34841448926071,57.54360076204583,57.41923984947644,57.55496057629025,57.55496057629025,2.1,2.11,-153,266,0,278,153,-253,215.58068656921387,215.58072924613953,215.58313035964966,215.5951428413391,215.74541473388672,215.74541473388672,215.74541473388672,215.74541473388672,215.74541473388672,215.74541473388672,215.74541473388672,231.07960200309753,2,15.465872049331665,None,,,,,,,,,,,,,,,,,,214,5,2025-03-07_10h53.51.615,comp,2024.2.4,60.05048227321991,2025-03-07 10h53.59.634753 -0500,
12,12,0,critical,dhw,20.0,3.0,lower,78.0,78.0,133.0,57.0,57.0,133.0,1,7.996170997619629,None,,,,,0,0,0,0,0,12,12,56,231.09500217437744,,,,,,,,,,,,,,,,,,,,,,,,,,,,,,,,,,,,,,,,,,,,,,,,,,,,,,,,,,,,,,,,,,,,,,,,,,,,,,,,,78.0,78.0,133.0,57.0,57.0,133.0,3.0,3.1,-164,274,0,-16,191,-252,231.08039331436157,231.08043456077576,231.08291840553284,231.09500217437744,231.2451286315918,231.2451286315918,231.2451286315918,231.2451286315918,231.2451286315918,231.2451286315918,231.2451286315918,239.09623169898987,1,7.996170997619629,None,,,,,,,,,,,,,,,,,,214,5,2025-03-07_10h53.51.615,comp,2024.2.4,60.05048227321991,2025-03-07 10h53.59.634753 -0500,
13,13,0,catch,None,None,None,None,None,None,None,None,None,None,2,2.6590914726257324,None,,,,,0,0,0,0,0,13,13,124,239.11188101768494,,,,,,,,,,,,,,,,,,,,,,,,,,,,,,,,,,,,,,,,,,,,,,,,,,,,,,,,,,,,,,,,,,,,,,,,,,,,,,,,,77,113,200,125,107,83,3.0,3.2,-215,-283,0,20,200,272,239.0972924232483,239.09733510017395,239.09972548484802,239.11188101768494,239.2617175579071,239.2617175579071,239.2617175579071,239.2617175579071,239.2617175579071,239.2617175579071,239.2617175579071,241.77955222129822,2,2.6590914726257324,None,,,,,,,,,,,,,,,,,,214,5,2025-03-07_10h53.51.615,comp,2024.2.4,60.05048227321991,2025-03-07 10h53.59.634753 -0500,
14,14,0,critical,whd,20.0,4.0,upper,125.0,200.0,200.0,125.0,141.0,141.0,1,7.095900058746338,None,,,,,0,0,0,0,0,14,14,95,241.7951602935791,,,,,,,,,,,,,,,,,,,,,,,,,,,,,,,,,,,,,,,,,,,,,,,,,,,,,,,,,,,,,,,,,,,,,,,,,,,,,,,,,125.0,200.0,200.0,125.0,141.0,141.0,4.0,4.2,-258,-6,0,-283,229,-14,241.7803225517273,241.78037881851196,241.7827606201172,241.7951602935791,241.94529151916504,241.94529151916504,241.94529151916504,241.94529151916504,241.94529151916504,241.94529151916504,241.94529151916504,248.8964602947235,1,7.095900058746338,None,,,,,,,,,,,,,,,,,,214,5,2025-03-07_10h53.51.615,comp,2024.2.4,60.05048227321991,2025-03-07 10h53.59.634753 -0500,
15,15,0,critical,dwh,20.0,2.1,upper,141.0,141.0,125.0,200.0,200.0,125.0,3,7.226848125457764,None,,,,,0,0,0,0,0,15,15,7,248.9121754169464,,,,,,,,,,,,,,,,,,,,,,,,,,,,,,,,,,,,,,,,,,,,,,,,,,,,,,,,,,,,,,,,,,,,,,,,,,,,,,,,,141.0,141.0,125.0,200.0,200.0,125.0,2.1,2.11,-266,271,0,269,258,-289,248.89745116233826,248.8974950313568,248.90088510513306,248.9121754169464,249.06183695793152,249.06183695793152,249.06183695793152,249.06183695793152,249.06183695793152,249.06183695793152,249.06183695793152,256.1463689804077,3,7.226848125457764,None,,,,,,,,,,,,,,,,,,214,5,2025-03-07_10h53.51.615,comp,2024.2.4,60.05048227321991,2025-03-07 10h53.59.634753 -0500,
16,16,0,critical,hwd,20.0,4.0,lower,133.0,57.0,57.0,133.0,78.0,78.0,3,11.544897079467773,None,,,,,0,0,0,0,0,16,16,106,256.1618709564209,,,,,,,,,,,,,,,,,,,,,,,,,,,,,,,,,,,,,,,,,,,,,,,,,,,,,,,,,,,,,,,,,,,,,,,,,,,,,,,,,133.0,57.0,57.0,133.0,78.0,78.0,4.0,4.1,-191,-252,0,-10,202,-274,256.147136926651,256.1471791267395,256.1493299007416,256.1618709564209,256.31175541877747,256.31175541877747,256.31175541877747,256.31175541877747,256.31175541877747,256.31175541877747,256.31175541877747,267.71292519569397,3,11.544897079467773,None,,,,,,,,,,,,,,,,,,214,5,2025-03-07_10h53.51.615,comp,2024.2.4,60.05048227321991,2025-03-07 10h53.59.634753 -0500,
17,17,0,filler_random,None,None,None,None,None,None,None,None,None,None,1,1.8584010601043701,None,,,,,0,0,0,0,0,17,17,158,267.7284286022186,,,,,,,,,,,,,,,,,,,,,,,,,,,,,,,,,,,,,,,,,,,,,,,,,,,,,,,,,,,,,,,,,,,,,,,,,,,,,,,,,195.86566436545218,129.84151475219903,94.15862387773643,58.305289700234184,113.35788247553906,89.59308755570555,1.0,1.3,290,-287,480,-269,650,-262,267.71385312080383,267.7138957977295,267.71645188331604,267.7284286022186,267.8784410953522,267.8784410953522,267.8784410953522,267.8784410953522,267.8784410953522,267.8784410953522,267.8784410953522,269.596075296402,1,1.8584010601043701,None,,,,,,,,,,,,,,,,,,214,5,2025-03-07_10h53.51.615,comp,2024.2.4,60.05048227321991,2025-03-07 10h53.59.634753 -0500,
18,18,0,critical,hdw,20.0,4.0,lower,133.0,57.0,78.0,78.0,57.0,133.0,2,4.8002028465271,None,,,,,0,0,0,0,0,18,18,118,269.61175870895386,,,,,,,,,,,,,,,,,,,,,,,,,,,,,,,,,,,,,,,,,,,,,,,,,,,,,,,,,,,,,,,,,,,,,,,,,,,,,,,,,133.0,57.0,78.0,78.0,57.0,133.0,4.0,4.1,-164,-286,0,4,202,-273,269.59698271751404,269.5970244407654,269.5996901988983,269.61175870895386,269.76155948638916,269.76155948638916,269.76155948638916,269.76155948638916,269.76155948638916,269.76155948638916,269.76155948638916,274.42921328544617,2,4.8002028465271,None,,,,,,,,,,,,,,,,,,214,5,2025-03-07_10h53.51.615,comp,2024.2.4,60.05048227321991,2025-03-07 10h53.59.634753 -0500,
19,19,0,filler_square,None,None,None,None,None,None,None,None,None,None,1,1.9101548194885254,None,,,,,0,0,0,0,0,19,19,186,274.444730758667,,,,,,,,,,,,,,,,,,,,,,,,,,,,,,,,,,,,,,,,,,,,,,,,,,,,,,,,,,,,,,,,,,,,,,,,,,,,,,,,,112.4879036175019,112.4879036175019,67.9421695605445,108.24808869097458,67.16494579163385,73.48523234596222,4.0,4.2,-206,19,0,-254,187,-7,274.4301278591156,274.4301676750183,274.4321434497833,274.444730758667,274.5950856208801,274.5950856208801,274.5950856208801,274.5950856208801,274.5950856208801,274.5950856208801,274.5950856208801,276.36263513565063,1,1.9101548194885254,None,,,,,,,,,,,,,,,,,,214,5,2025-03-07_10h53.51.615,comp,2024.2.4,60.05048227321991,2025-03-07 10h53.59.634753 -0500,
20,20,0,critical,hwd,20.0,2.1,upper,200.0,125.0,125.0,200.0,141.0,141.0,3,15.840666055679321,None,,,,,0,0,0,0,0,20,20,19,276.37820076942444,,,,,,,,,,,,,,,,,,,,,,,,,,,,,,,,,,,,,,,,,,,,,,,,,,,,,,,,,,,,,,,,,,,,,,,,,,,,,,,,,200.0,125.0,125.0,200.0,141.0,141.0,2.1,2.12,-258,-263,0,-275,266,287,276.3634421825409,276.36348247528076,276.36586356163025,276.37820076942444,276.528293132782,276.528293132782,276.528293132782,276.528293132782,276.528293132782,276.528293132782,276.528293132782,292.229380607605,3,15.840666055679321,None,,,,,,,,,,,,,,,,,,214,5,2025-03-07_10h53.51.615,comp,2024.2.4,60.05048227321991,2025-03-07 10h53.59.634753 -0500,
21,21,0,critical,hwd,20.0,2.1,lower,133.0,57.0,57.0,133.0,78.0,78.0,2,54.4376335144043,None,,,,,0,0,0,0,0,21,21,18,292.244824886322,,,,,,,,,,,,,,,,,,,,,,,,,,,,,,,,,,,,,,,,,,,,,,,,,,,,,,,,,,,,,,,,,,,,,,,,,,,,,,,,,133.0,57.0,57.0,133.0,78.0,78.0,2.1,2.11,-191,274,0,284,202,-261,292.23015570640564,292.23019647598267,292.2324376106262,292.244824886322,292.394642829895,292.394642829895,292.394642829895,292.394642829895,292.394642829895,292.394642829895,292.394642829895,346.6954884529114,2,54.4376335144043,None,,,,,,,,,,,,,,,,,,214,5,2025-03-07_10h53.51.615,comp,2024.2.4,60.05048227321991,2025-03-07 10h53.59.634753 -0500,
22,22,0,filler_square,None,None,None,None,None,None,None,None,None,None,3,2.218773603439331,None,,,,,0,0,0,0,0,22,22,181,346.710844039917,,,,,,,,,,,,,,,,,,,,,,,,,,,,,,,,,,,,,,,,,,,,,,,,,,,,,,,,,,,,,,,,,,,,,,,,,,,,,,,,,88.42602892207223,70.52801195320353,76.4988378366794,116.11438776645713,132.34697677684227,132.34697677684227,3.0,3.1,-189,275,0,5,220,-262,346.6964409351349,346.6964828968048,346.6988618373871,346.710844039917,346.86122488975525,346.86122488975525,346.86122488975525,346.86122488975525,346.86122488975525,346.86122488975525,346.86122488975525,348.9454174041748,3,2.218773603439331,None,,,,,,,,,,,,,,,,,,214,5,2025-03-07_10h53.51.615,comp,2024.2.4,60.05048227321991,2025-03-07 10h53.59.634753 -0500,
23,23,0,critical,dwh,35.0,2.1,lower,70.0,70.0,57.0,133.0,133.0,57.0,3,14.38457202911377,None,,,,,0,0,0,0,0,23,23,28,348.96083545684814,,,,,,,,,,,,,,,,,,,,,,,,,,,,,,,,,,,,,,,,,,,,,,,,,,,,,,,,,,,,,,,,,,,,,,,,,,,,,,,,,70.0,70.0,57.0,133.0,133.0,57.0,2.1,2.12,-198,-272,0,-251,191,285,348.94620752334595,348.9462490081787,348.94861674308777,348.96083545684814,349.11112427711487,349.11112427711487,349.11112427711487,349.11112427711487,349.11112427711487,349.11112427711487,349.11112427711487,363.3620150089264,3,14.38457202911377,None,,,,,,,,,,,,,,,,,,214,5,2025-03-07_10h53.51.615,comp,2024.2.4,60.05048227321991,2025-03-07 10h53.59.634753 -0500,
24,24,0,filler_square,None,None,None,None,None,None,None,None,None,None,3,13.712876558303833,None,,,,,0,0,0,0,0,24,24,200,363.3774118423462,,,,,,,,,,,,,,,,,,,,,,,,,,,,,,,,,,,,,,,,,,,,,,,,,,,,,,,,,,,,,,,,,,,,,,,,,,,,,,,,,73.36914325959944,66.60821424599791,67.48194576347885,71.80636624188733,74.47564466162885,74.47564466162885,2.1,2.12,-165,-274,0,-252,169,277,363.3629903793335,363.3630316257477,363.3655505180359,363.3774118423462,363.5278959274292,363.5278959274292,363.5278959274292,363.5278959274292,363.5278959274292,363.5278959274292,363.5278959274292,377.0952339172363,3,13.712876558303833,None,,,,,,,,,,,,,,,,,,214,5,2025-03-07_10h53.51.615,comp,2024.2.4,60.05048227321991,2025-03-07 10h53.59.634753 -0500,
25,25,0,filler_square,None,None,None,None,None,None,None,None,None,None,1,3.667027473449707,None,,,,,0,0,0,0,0,25,25,202,377.11085414886475,,,,,,,,,,,,,,,,,,,,,,,,,,,,,,,,,,,,,,,,,,,,,,,,,,,,,,,,,,,,,,,,,,,,,,,,,,,,,,,,,160.04290486971877,160.04290486971877,94.8514560076458,140.78390937868605,82.99801880078192,134.0388452869522,2.2,2.21,-246,-273,0,275,233,270,377.0961821079254,377.0962245464325,377.098548412323,377.11085414886475,377.2610204219818,377.2610204219818,377.2610204219818,377.2610204219818,377.2610204219818,377.2610204219818,377.2610204219818,380.79541635513306,1,3.667027473449707,None,,,,,,,,,,,,,,,,,,214,5,2025-03-07_10h53.51.615,comp,2024.2.4,60.05048227321991,2025-03-07 10h53.59.634753 -0500,
26,26,0,critical,wdh,20.0,4.0,upper,125.0,200.0,141.0,141.0,200.0,125.0,1,7.232889890670776,None,,,,,0,0,0,0,0,26,26,83,380.81069016456604,,,,,,,,,,,,,,,,,,,,,,,,,,,,,,,,,,,,,,,,,,,,,,,,,,,,,,,,,,,,,,,,,,,,,,,,,,,,,,,,,125.0,200.0,141.0,141.0,200.0,125.0,4.0,4.2,-266,19,0,-258,229,-6,380.79620337486267,380.79624462127686,380.79861855506897,380.81069016456604,380.96106934547424,380.96106934547424,380.96106934547424,380.96106934547424,380.96106934547424,380.96106934547424,380.96106934547424,388.0454704761505,1,7.232889890670776,None,,,,,,,,,,,,,,,,,,214,5,2025-03-07_10h53.51.615,comp,2024.2.4,60.05048227321991,2025-03-07 10h53.59.634753 -0500,
27,27,0,filler_square,None,None,None,None,None,None,None,None,None,None,3,1.9249958992004395,None,,,,,0,0,0,0,0,27,27,180,388.06090903282166,,,,,,,,,,,,,,,,,,,,,,,,,,,,,,,,,,,,,,,,,,,,,,,,,,,,,,,,,,,,,,,,,,,,,,,,,,,,,,,,,128.36969990727601,121.91192461909036,110.04314200880357,101.98981720232197,173.4584313927533,173.4584313927533,2.2,2.22,-208,280,0,-266,234,-267,388.04639196395874,388.0464334487915,388.0487871170044,388.06090903282166,388.2109479904175,388.2109479904175,388.2109479904175,388.2109479904175,388.2109479904175,388.2109479904175,388.2109479904175,389.99542689323425,3,1.9249958992004395,None,,,,,,,,,,,,,,,,,,214,5,2025-03-07_10h53.51.615,comp,2024.2.4,60.05048227321991,2025-03-07 10h53.59.634753 -0500,
28,28,0,critical,dwh,20.0,4.0,upper,141.0,141.0,125.0,200.0,200.0,125.0,2,11.616647720336914,None,,,,,0,0,0,0,0,28,28,71,390.0110957622528,,,,,,,,,,,,,,,,,,,,,,,,,,,,,,,,,,,,,,,,,,,,,,,,,,,,,,,,,,,,,,,,,,,,,,,,,,,,,,,,,141.0,141.0,125.0,200.0,200.0,125.0,4.0,4.2,-266,18,0,-272,258,-2,389.9963176250458,389.99637937545776,389.9987688064575,390.0110957622528,390.16096019744873,390.16096019744873,390.16096019744873,390.16096019744873,390.16096019744873,390.16096019744873,390.16096019744873,401.6454076766968,2,11.616647720336914,None,,,,,,,,,,,,,,,,,,214,5,2025-03-07_10h53.51.615,comp,2024.2.4,60.05048227321991,2025-03-07 10h53.59.634753 -0500,
29,29,0,critical,dhw,35.0,3.0,lower,70.0,70.0,133.0,57.0,57.0,133.0,3,16.64513373374939,None,,,,,0,0,0,0,0,29,29,50,401.66060495376587,,,,,,,,,,,,,,,,,,,,,,,,,,,,,,,,,,,,,,,,,,,,,,,,,,,,,,,,,,,,,,,,,,,,,,,,,,,,,,,,,70.0,70.0,133.0,57.0,57.0,133.0,3.0,3.1,-160,258,0,-9,191,-258,401.64619398117065,401.64623522758484,401.64844584465027,401.66060495376587,401.81055784225464,401.81055784225464,401.81055784225464,401.81055784225464,401.81055784225464,401.81055784225464,401.81055784225464,418.31163144111633,3,16.64513373374939,None,,,,,,,,,,,,,,,,,,214,5,2025-03-07_10h53.51.615,comp,2024.2.4,60.05048227321991,2025-03-07 10h53.59.634753 -0500,
30,30,0,critical,hwd,20.0,4.0,upper,200.0,125.0,125.0,200.0,141.0,141.0,2,13.810378789901733,None,,,,,0,0,0,0,0,30,30,107,418.3273289203644,,,,,,,,,,,,,,,,,,,,,,,,,,,,,,,,,,,,,,,,,,,,,,,,,,,,,,,,,,,,,,,,,,,,,,,,,,,,,,,,,200.0,125.0,125.0,200.0,141.0,141.0,4.0,4.2,-258,-11,0,-263,266,3,418.31242632865906,418.31246852874756,418.31460547447205,418.3273289203644,418.4778015613556,418.4778015613556,418.4778015613556,418.4778015613556,418.4778015613556,418.4778015613556,418.4778015613556,432.1452941894531,2,13.810378789901733,None,,,,,,,,,,,,,,,,,,214,5,2025-03-07_10h53.51.615,comp,2024.2.4,60.05048227321991,2025-03-07 10h53.59.634753 -0500,
31,31,0,filler_random,None,None,None,None,None,None,None,None,None,None,2,3.63350772857666,None,,,,,0,0,0,0,0,31,31,152,432.1606090068817,,,,,,,,,,,,,,,,,,,,,,,,,,,,,,,,,,,,,,,,,,,,,,,,,,,,,,,,,,,,,,,,,,,,,,,,,,,,,,,,,89.56431094194792,110.66702797256855,153.2793432278667,157.866255707833,165.70636656335955,116.1578795123321,4.0,4.2,-230,17,0,-271,233,1,432.1462097167969,432.14625310897827,432.14885807037354,432.1606090068817,432.3105194568634,432.3105194568634,432.3105194568634,432.3105194568634,432.3105194568634,432.3105194568634,432.3105194568634,435.79541778564453,2,3.63350772857666,None,,,,,,,,,,,,,,,,,,214,5,2025-03-07_10h53.51.615,comp,2024.2.4,60.05048227321991,2025-03-07 10h53.59.634753 -0500,
32,32,0,critical,dhw,35.0,2.1,lower,70.0,70.0,133.0,57.0,57.0,133.0,2,7.622087717056274,None,,,,,0,0,0,0,0,32,32,24,435.81062388420105,,,,,,,,,,,,,,,,,,,,,,,,,,,,,,,,,,,,,,,,,,,,,,,,,,,,,,,,,,,,,,,,,,,,,,,,,,,,,,,,,70.0,70.0,133.0,57.0,57.0,133.0,2.1,2.11,-160,264,0,277,191,-278,435.7962145805359,435.79625511169434,435.79882860183716,435.81062388420105,435.9604103565216,435.9604103565216,435.9604103565216,435.9604103565216,435.9604103565216,435.9604103565216,435.9604103565216,443.4450376033783,2,7.622087717056274,None,,,,,,,,,,,,,,,,,,214,5,2025-03-07_10h53.51.615,comp,2024.2.4,60.05048227321991,2025-03-07 10h53.59.634753 -0500,
33,33,0,catch,None,None,None,None,None,None,None,None,None,None,1,2.0844740867614746,None,,,,,0,0,0,0,0,33,33,122,443.4602689743042,,,,,,,,,,,,,,,,,,,,,,,,,,,,,,,,,,,,,,,,,,,,,,,,,,,,,,,,,,,,,,,,,,,,,,,,,,,,,,,,,191,134,113,77,110,80,3.0,3.1,-202,254,0,-20,174,-260,443.44610238075256,443.4461462497711,443.4487144947052,443.4602689743042,443.6104350090027,443.6104350090027,443.6104350090027,443.6104350090027,443.6104350090027,443.6104350090027,443.6104350090027,445.5616919994354,1,2.0844740867614746,None,,,,,,,,,,,,,,,,,,214,5,2025-03-07_10h53.51.615,comp,2024.2.4,60.05048227321991,2025-03-07 10h53.59.634753 -0500,
34,34,0,critical,whd,20.0,2.1,upper,125.0,200.0,200.0,125.0,141.0,141.0,1,5.488044023513794,None,,,,,0,0,0,0,0,34,34,15,445.5769510269165,,,,,,,,,,,,,,,,,,,,,,,,,,,,,,,,,,,,,,,,,,,,,,,,,,,,,,,,,,,,,,,,,,,,,,,,,,,,,,,,,125.0,200.0,200.0,125.0,141.0,141.0,2.1,2.12,-258,-282,0,-259,229,265,445.5625014305115,445.56254386901855,445.56496810913086,445.5769510269165,445.7272696495056,445.7272696495056,445.7272696495056,445.7272696495056,445.7272696495056,445.7272696495056,445.7272696495056,451.0783021450043,1,5.488044023513794,None,,,,,,,,,,,,,,,,,,214,5,2025-03-07_10h53.51.615,comp,2024.2.4,60.05048227321991,2025-03-07 10h53.59.634753 -0500,
35,35,0,critical,hdw,35.0,4.0,upper,200.0,125.0,127.0,127.0,125.0,200.0,3,4.467386245727539,None,,,,,0,0,0,0,0,35,35,113,451.0934648513794,,,,,,,,,,,,,,,,,,,,,,,,,,,,,,,,,,,,,,,,,,,,,,,,,,,,,,,,,,,,,,,,,,,,,,,,,,,,,,,,,200.0,125.0,127.0,127.0,125.0,200.0,4.0,4.2,-222,-13,0,-266,260,11,451.07907128334045,451.07911133766174,451.08114290237427,451.0934648513794,451.24381589889526,451.24381589889526,451.24381589889526,451.24381589889526,451.24381589889526,451.24381589889526,451.24381589889526,455.5620367527008,3,4.467386245727539,None,,,,,,,,,,,,,,,,,,214,5,2025-03-07_10h53.51.615,comp,2024.2.4,60.05048227321991,2025-03-07 10h53.59.634753 -0500,
36,36,0,critical,dwh,35.0,1.0,upper,127.0,127.0,125.0,200.0,200.0,125.0,3,8.128244876861572,None,,,,,0,0,0,0,0,36,36,61,455.5771288871765,,,,,,,,,,,,,,,,,,,,,,,,,,,,,,,,,,,,,,,,,,,,,,,,,,,,,,,,,,,,,,,,,,,,,,,,,,,,,,,,,127.0,127.0,125.0,200.0,200.0,125.0,1.0,1.3,220,-281,480,-261,738,-277,455.5628752708435,455.56291913986206,455.56509232521057,455.5771288871765,455.72748851776123,455.72748851776123,455.72748851776123,455.72748851776123,455.72748851776123,455.72748851776123,455.72748851776123,463.71166038513184,3,8.128244876861572,None,,,,,,,,,,,,,,,,,,214,5,2025-03-07_10h53.51.615,comp,2024.2.4,60.05048227321991,2025-03-07 10h53.59.634753 -0500,
37,37,0,filler_random,None,None,None,None,None,None,None,None,None,None,2,2.531853675842285,None,,,,,0,0,0,0,0,37,37,143,463.7271234989166,,,,,,,,,,,,,,,,,,,,,,,,,,,,,,,,,,,,,,,,,,,,,,,,,,,,,,,,,,,,,,,,,,,,,,,,,,,,,,,,,163.828684186815,104.82307085563295,154.9532007197863,178.15444671204835,71.93726803002633,156.63849725965673,2.1,2.11,-237,252,0,283,263,-253,463.7125918865204,463.71263432502747,463.71479177474976,463.7271234989166,463.87712812423706,463.87712812423706,463.87712812423706,463.87712812423706,463.87712812423706,463.87712812423706,463.87712812423706,466.26156091690063,2,2.531853675842285,None,,,,,,,,,,,,,,,,,,214,5,2025-03-07_10h53.51.615,comp,2024.2.4,60.05048227321991,2025-03-07 10h53.59.634753 -0500,
38,38,0,critical,wdh,35.0,2.1,upper,125.0,200.0,127.0,127.0,200.0,125.0,1,7.251786708831787,None,,,,,0,0,0,0,0,38,38,9,466.2769947052002,,,,,,,,,,,,,,,,,,,,,,,,,,,,,,,,,,,,,,,,,,,,,,,,,,,,,,,,,,,,,,,,,,,,,,,,,,,,,,,,,125.0,200.0,127.0,127.0,200.0,125.0,2.1,2.12,-260,-256,0,-287,222,267,466.2623517513275,466.2623960971832,466.2644851207733,466.2769947052002,466.42709016799927,466.42709016799927,466.42709016799927,466.42709016799927,466.42709016799927,466.42709016799927,466.42709016799927,473.54476380348206,1,7.251786708831787,None,,,,,,,,,,,,,,,,,,214,5,2025-03-07_10h53.51.615,comp,2024.2.4,60.05048227321991,2025-03-07 10h53.59.634753 -0500,
39,39,0,critical,dhw,35.0,1.0,upper,127.0,127.0,200.0,125.0,125.0,200.0,2,7.0991082191467285,None,,,,,0,0,0,0,0,39,39,49,473.55992364883423,,,,,,,,,,,,,,,,,,,,,,,,,,,,,,,,,,,,,,,,,,,,,,,,,,,,,,,,,,,,,,,,,,,,,,,,,,,,,,,,,127.0,127.0,200.0,125.0,125.0,200.0,1.0,1.1,-702,281,-480,283,-222,267,473.54556131362915,473.54560375213623,473.54800963401794,473.55992364883423,473.71038341522217,473.71038341522217,473.71038341522217,473.71038341522217,473.71038341522217,473.71038341522217,473.71038341522217,480.661630153656,2,7.0991082191467285,None,,,,,,,,,,,,,,,,,,214,5,2025-03-07_10h53.51.615,comp,2024.2.4,60.05048227321991,2025-03-07 10h53.59.634753 -0500,
40,40,0,critical,wdh,20.0,2.1,lower,57.0,133.0,78.0,78.0,133.0,57.0,3,8.366365909576416,None,,,,,0,0,0,0,0,40,40,10,480.6768755912781,,,,,,,,,,,,,,,,,,,,,,,,,,,,,,,,,,,,,,,,,,,,,,,,,,,,,,,,,,,,,,,,,,,,,,,,,,,,,,,,,57.0,133.0,78.0,78.0,133.0,57.0,2.1,2.12,-202,-257,0,-285,164,265,480.66243147850037,480.66247487068176,480.66490840911865,480.6768755912781,480.8288424015045,480.8288424015045,480.8288424015045,480.8288424015045,480.8288424015045,480.8288424015045,480.8288424015045,489.0446970462799,3,8.366365909576416,None,,,,,,,,,,,,,,,,,,214,5,2025-03-07_10h53.51.615,comp,2024.2.4,60.05048227321991,2025-03-07 10h53.59.634753 -0500,
41,41,0,filler_square,None,None,None,None,None,None,None,None,None,None,2,1.4522061347961426,None,,,,,0,0,0,0,0,41,41,199,489.0602111816406,,,,,,,,,,,,,,,,,,,,,,,,,,,,,,,,,,,,,,,,,,,,,,,,,,,,,,,,,,,,,,,,,,,,,,,,,,,,,,,,,137.43609789998675,169.8993689091917,183.55549613906743,183.55549613906743,111.03164106025162,73.76635990265521,4.0,4.1,-273,-275,0,-1,225,-265,489.04568457603455,489.0457282066345,489.0481524467468,489.0602111816406,489.21033906936646,489.21033906936646,489.21033906936646,489.21033906936646,489.21033906936646,489.21033906936646,489.21033906936646,490.52793741226196,2,1.4522061347961426,None,,,,,,,,,,,,,,,,,,214,5,2025-03-07_10h53.51.615,comp,2024.2.4,60.05048227321991,2025-03-07 10h53.59.634753 -0500,
42,42,0,filler_random,None,None,None,None,None,None,None,None,None,None,1,1.8580613136291504,None,,,,,0,0,0,0,0,42,42,153,490.5433728694916,,,,,,,,,,,,,,,,,,,,,,,,,,,,,,,,,,,,,,,,,,,,,,,,,,,,,,,,,,,,,,,,,,,,,,,,,,,,,,,,,196.79500651316198,112.45884804411574,127.08654160315007,59.31126997771489,93.20605817723163,198.49390106504836,4.0,4.2,-182,0,0,-264,225,-19,490.5289008617401,490.5289430618286,490.53118991851807,490.5433728694916,490.69356966018677,490.69356966018677,490.69356966018677,490.69356966018677,490.69356966018677,490.69356966018677,490.69356966018677,492.4112696647644,1,1.8580613136291504,None,,,,,,,,,,,,,,,,,,214,5,2025-03-07_10h53.51.615,comp,2024.2.4,60.05048227321991,2025-03-07 10h53.59.634753 -0500,
43,43,0,critical,dwh,20.0,3.0,lower,78.0,78.0,57.0,133.0,133.0,57.0,2,4.110389232635498,None,,,,,0,0,0,0,0,43,43,68,492.42685198783875,,,,,,,,,,,,,,,,,,,,,,,,,,,,,,,,,,,,,,,,,,,,,,,,,,,,,,,,,,,,,,,,,,,,,,,,,,,,,,,,,78.0,78.0,57.0,133.0,133.0,57.0,3.0,3.1,-202,288,0,11,191,-258,492.4120740890503,492.4121165275574,492.4143810272217,492.42685198783875,492.57666659355164,492.57666659355164,492.57666659355164,492.57666659355164,492.57666659355164,492.57666659355164,492.57666659355164,496.5444610118866,2,4.110389232635498,None,,,,,,,,,,,,,,,,,,214,5,2025-03-07_10h53.51.615,comp,2024.2.4,60.05048227321991,2025-03-07 10h53.59.634753 -0500,
44,44,0,critical,hdw,20.0,4.0,upper,200.0,125.0,141.0,141.0,125.0,200.0,3,4.209098815917969,None,,,,,0,0,0,0,0,44,44,119,496.56007862091064,,,,,,,,,,,,,,,,,,,,,,,,,,,,,,,,,,,,,,,,,,,,,,,,,,,,,,,,,,,,,,,,,,,,,,,,,,,,,,,,,200.0,125.0,141.0,141.0,125.0,200.0,4.0,4.2,-229,2,0,-263,266,-16,496.5452148914337,496.5452570915222,496.54758644104004,496.56007862091064,496.71029686927795,496.71029686927795,496.71029686927795,496.71029686927795,496.71029686927795,496.71029686927795,496.71029686927795,500.77792596817017,3,4.209098815917969,None,,,,,,,,,,,,,,,,,,214,5,2025-03-07_10h53.51.615,comp,2024.2.4,60.05048227321991,2025-03-07 10h53.59.634753 -0500,
45,45,0,critical,hdw,35.0,2.1,upper,200.0,125.0,127.0,127.0,125.0,200.0,3,6.183703184127808,None,,,,,0,0,0,0,0,45,45,21,500.7934103012085,,,,,,,,,,,,,,,,,,,,,,,,,,,,,,,,,,,,,,,,,,,,,,,,,,,,,,,,,,,,,,,,,,,,,,,,,,,,,,,,,200.0,125.0,127.0,127.0,125.0,200.0,2.1,2.11,-222,289,0,279,260,-254,500.77873516082764,500.7787756919861,500.78116846084595,500.7934103012085,500.943564414978,500.943564414978,500.943564414978,500.943564414978,500.943564414978,500.943564414978,500.943564414978,506.9945557117462,3,6.183703184127808,None,,,,,,,,,,,,,,,,,,214,5,2025-03-07_10h53.51.615,comp,2024.2.4,60.05048227321991,2025-03-07 10h53.59.634753 -0500,
46,46,0,critical,hdw,35.0,4.0,lower,133.0,57.0,70.0,70.0,57.0,133.0,1,4.654373407363892,None,,,,,0,0,0,0,0,46,46,112,507.0098731517792,,,,,,,,,,,,,,,,,,,,,,,,,,,,,,,,,,,,,,,,,,,,,,,,,,,,,,,,,,,,,,,,,,,,,,,,,,,,,,,,,133.0,57.0,70.0,70.0,57.0,133.0,4.0,4.2,-160,-16,0,-288,198,2,506.9953715801239,506.995414018631,506.9987316131592,507.0098731517792,507.17672967910767,507.17672967910767,507.17672967910767,507.17672967910767,507.17672967910767,507.17672967910767,507.17672967910767,511.6778748035431,1,4.654373407363892,None,,,,,,,,,,,,,,,,,,214,5,2025-03-07_10h53.51.615,comp,2024.2.4,60.05048227321991,2025-03-07 10h53.59.634753 -0500,
47,47,0,filler_square,None,None,None,None,None,None,None,None,None,None,3,4.987870931625366,None,,,,,0,0,0,0,0,47,47,185,511.69336700439453,,,,,,,,,,,,,,,,,,,,,,,,,,,,,,,,,,,,,,,,,,,,,,,,,,,,,,,,,,,,,,,,,,,,,,,,,,,,,,,,,65.22814959489091,79.89837411702575,72.99474473087444,85.66366130348713,100.13987549984026,100.13987549984026,4.0,4.1,-179,-267,0,10,189,-258,511.678866147995,511.6789085865021,511.6814908981323,511.69336700439453,511.8433084487915,511.8433084487915,511.8433084487915,511.8433084487915,511.8433084487915,511.8433084487915,511.8433084487915,516.6943774223328,3,4.987870931625366,None,,,,,,,,,,,,,,,,,,214,5,2025-03-07_10h53.51.615,comp,2024.2.4,60.05048227321991,2025-03-07 10h53.59.634753 -0500,
48,48,0,filler_square,None,None,None,None,None,None,None,None,None,None,2,1.667283296585083,None,,,,,0,0,0,0,0,48,48,170,516.709796667099,,,,,,,,,,,,,,,,,,,,,,,,,,,,,,,,,,,,,,,,,,,,,,,,,,,,,,,,,,,,,,,,,,,,,,,,,,,,,,,,,112.15647629813171,70.31521823910269,187.03217212387926,187.03217212387926,184.53287963633616,116.60568882432906,2.2,2.22,-225,263,0,-280,248,-252,516.6953091621399,516.6953625679016,516.6977272033691,516.709796667099,516.8600988388062,516.8600988388062,516.8600988388062,516.8600988388062,516.8600988388062,516.8600988388062,516.8600988388062,518.3944623470306,2,1.667283296585083,None,,,,,,,,,,,,,,,,,,214,5,2025-03-07_10h53.51.615,comp,2024.2.4,60.05048227321991,2025-03-07 10h53.59.634753 -0500,
49,49,0,filler_random,None,None,None,None,None,None,None,None,None,None,2,2.7837233543395996,None,,,,,0,0,0,0,0,49,49,156,518.4097940921783,,,,,,,,,,,,,,,,,,,,,,,,,,,,,,,,,,,,,,,,,,,,,,,,,,,,,,,,,,,,,,,,,,,,,,,,,,,,,,,,,57.25614895628133,131.9855379613477,112.93201733252033,187.91105797495845,78.01608358861462,179.06592845986546,4.0,4.2,-256,11,0,-254,279,-20,518.3953816890717,518.3954236507416,518.3986649513245,518.4097940921783,518.5599868297577,518.5599868297577,518.5599868297577,518.5599868297577,518.5599868297577,518.5599868297577,518.5599868297577,521.2111370563507,2,2.7837233543395996,None,,,,,,,,,,,,,,,,,,214,5,2025-03-07_10h53.51.615,comp,2024.2.4,60.05048227321991,2025-03-07 10h53.59.634753 -0500,
50,50,0,critical,dwh,35.0,3.0,upper,127.0,127.0,125.0,200.0,200.0,125.0,2,4.605812072753906,None,,,,,0,0,0,0,0,50,50,63,521.2264125347137,,,,,,,,,,,,,,,,,,,,,,,,,,,,,,,,,,,,,,,,,,,,,,,,,,,,,,,,,,,,,,,,,,,,,,,,,,,,,,,,,127.0,127.0,125.0,200.0,200.0,125.0,3.0,3.1,-260,275,0,-7,258,-267,521.2119553089142,521.2119979858398,521.2146008014679,521.2264125347137,521.3767764568329,521.3767764568329,521.3767764568329,521.3767764568329,521.3767764568329,521.3767764568329,521.3767764568329,525.8445575237274,2,4.605812072753906,None,,,,,,,,,,,,,,,,,,214,5,2025-03-07_10h53.51.615,comp,2024.2.4,60.05048227321991,2025-03-07 10h53.59.634753 -0500,
51,51,0,filler_square,None,None,None,None,None,None,None,None,None,None,3,5.652361869812012,None,,,,,0,0,0,0,0,51,51,188,525.8598229885101,,,,,,,,,,,,,,,,,,,,,,,,,,,,,,,,,,,,,,,,,,,,,,,,,,,,,,,,,,,,,,,,,,,,,,,,,,,,,,,,,76.83736651026733,95.39313379574456,108.89694177076001,107.67152228331871,112.64413069939131,112.64413069939131,1.0,1.2,-198,3,0,6,206,-7,525.8455014228821,525.8455438613892,525.8476574420929,525.8598229885101,526.0098598003387,526.0098598003387,526.0098598003387,526.0098598003387,526.0098598003387,526.0098598003387,526.0098598003387,531.5277464389801,3,5.652361869812012,None,,,,,,,,,,,,,,,,,,214,5,2025-03-07_10h53.51.615,comp,2024.2.4,60.05048227321991,2025-03-07 10h53.59.634753 -0500,
52,52,0,critical,wdh,35.0,3.0,lower,57.0,133.0,70.0,70.0,133.0,57.0,3,2.4836761951446533,None,,,,,0,0,0,0,0,52,52,74,531.5430099964142,,,,,,,,,,,,,,,,,,,,,,,,,,,,,,,,,,,,,,,,,,,,,,,,,,,,,,,,,,,,,,,,,,,,,,,,,,,,,,,,,57.0,133.0,70.0,70.0,133.0,57.0,3.0,3.2,-198,-264,0,-3,160,268,531.5285155773163,531.5285556316376,531.5308933258057,531.5430099964142,531.6930346488953,531.6930346488953,531.6930346488953,531.6930346488953,531.6930346488953,531.6930346488953,531.6930346488953,534.0441653728485,3,2.4836761951446533,None,,,,,,,,,,,,,,,,,,214,5,2025-03-07_10h53.51.615,comp,2024.2.4,60.05048227321991,2025-03-07 10h53.59.634753 -0500,
53,53,0,critical,whd,35.0,3.0,upper,125.0,200.0,200.0,125.0,127.0,127.0,2,10.183359384536743,None,,,,,0,0,0,0,0,53,53,87,534.0595815181732,,,,,,,,,,,,,,,,,,,,,,,,,,,,,,,,,,,,,,,,,,,,,,,,,,,,,,,,,,,,,,,,,,,,,,,,,,,,,,,,,125.0,200.0,200.0,125.0,127.0,127.0,3.0,3.2,-258,-275,0,17,222,273,534.0449621677399,534.0450031757355,534.0476202964783,534.0595815181732,534.2099297046661,534.2099297046661,534.2099297046661,534.2099297046661,534.2099297046661,534.2099297046661,534.2099297046661,544.2445101737976,2,10.183359384536743,None,,,,,,,,,,,,,,,,,,214,5,2025-03-07_10h53.51.615,comp,2024.2.4,60.05048227321991,2025-03-07 10h53.59.634753 -0500,
54,54,0,critical,hdw,35.0,3.0,upper,200.0,125.0,127.0,127.0,125.0,200.0,3,8.93386721611023,None,,,,,0,0,0,0,0,54,54,111,544.259818315506,,,,,,,,,,,,,,,,,,,,,,,,,,,,,,,,,,,,,,,,,,,,,,,,,,,,,,,,,,,,,,,,,,,,,,,,,,,,,,,,,200.0,125.0,127.0,127.0,125.0,200.0,3.0,3.1,-222,256,0,-4,260,-261,544.2452790737152,544.2453203201294,544.2473042011261,544.259818315506,544.4098374843597,544.4098374843597,544.4098374843597,544.4098374843597,544.4098374843597,544.4098374843597,544.4098374843597,553.2113046646118,3,8.93386721611023,None,,,,,,,,,,,,,,,,,,214,5,2025-03-07_10h53.51.615,comp,2024.2.4,60.05048227321991,2025-03-07 10h53.59.634753 -0500,
55,55,0,critical,hdw,20.0,2.1,lower,133.0,57.0,78.0,78.0,57.0,133.0,1,18.517706394195557,None,,,,,0,0,0,0,0,55,55,22,553.2262892723083,,,,,,,,,,,,,,,,,,,,,,,,,,,,,,,,,,,,,,,,,,,,,,,,,,,,,,,,,,,,,,,,,,,,,,,,,,,,,,,,,133.0,57.0,78.0,78.0,57.0,133.0,2.1,2.11,-164,254,0,256,202,-281,553.2121233940125,553.2121648788452,553.2146873474121,553.2262892723083,553.3763830661774,553.3763830661774,553.3763830661774,553.3763830661774,553.3763830661774,553.3763830661774,553.3763830661774,571.7606792449951,1,18.517706394195557,None,,,,,,,,,,,,,,,,,,214,5,2025-03-07_10h53.51.615,comp,2024.2.4,60.05048227321991,2025-03-07 10h53.59.634753 -0500,
56,56,0,critical,dwh,20.0,1.0,lower,78.0,78.0,57.0,133.0,133.0,57.0,2,6.097827672958374,None,,,,,0,0,0,0,0,56,56,66,571.7760667800903,,,,,,,,,,,,,,,,,,,,,,,,,,,,,,,,,,,,,,,,,,,,,,,,,,,,,,,,,,,,,,,,,,,,,,,,,,,,,,,,,78.0,78.0,57.0,133.0,133.0,57.0,1.0,1.1,-682,255,-480,251,-289,256,571.7614798545837,571.7615211009979,571.7639484405518,571.7760667800903,571.9262623786926,571.9262623786926,571.9262623786926,571.9262623786926,571.9262623786926,571.9262623786926,571.9262623786926,577.8773148059845,2,6.097827672958374,None,,,,,,,,,,,,,,,,,,214,5,2025-03-07_10h53.51.615,comp,2024.2.4,60.05048227321991,2025-03-07 10h53.59.634753 -0500,
57,57,0,filler_square,None,None,None,None,None,None,None,None,None,None,1,1.8349506855010986,None,,,,,0,0,0,0,0,57,57,183,577.8928942680359,,,,,,,,,,,,,,,,,,,,,,,,,,,,,,,,,,,,,,,,,,,,,,,,,,,,,,,,,,,,,,,,,,,,,,,,,,,,,,,,,164.47727146892584,164.47727146892584,78.33073875543754,120.29867634779833,154.0059544020528,124.05033894336732,2.2,2.22,-238,283,0,-252,218,-255,577.8782706260681,577.8783130645752,577.8806896209717,577.8928942680359,578.042888879776,578.042888879776,578.042888879776,578.042888879776,578.042888879776,578.042888879776,578.042888879776,579.7440903186798,1,1.8349506855010986,None,,,,,,,,,,,,,,,,,,214,5,2025-03-07_10h53.51.615,comp,2024.2.4,60.05048227321991,2025-03-07 10h53.59.634753 -0500,
58,58,0,filler_random,None,None,None,None,None,None,None,None,None,None,3,2.200451374053955,None,,,,,0,0,0,0,0,58,58,163,579.7594301700592,,,,,,,,,,,,,,,,,,,,,,,,,,,,,,,,,,,,,,,,,,,,,,,,,,,,,,,,,,,,,,,,,,,,,,,,,,,,,,,,,82.74965438900033,69.87281997977914,144.34969128447239,69.94257469750107,146.1742536439877,113.15940931041678,2.2,2.22,-166,265,0,-254,188,-251,579.7450287342072,579.7450726032257,579.7472252845764,579.7594301700592,579.9095573425293,579.9095573425293,579.9095573425293,579.9095573425293,579.9095573425293,579.9095573425293,579.9095573425293,581.97722864151,3,2.200451374053955,None,,,,,,,,,,,,,,,,,,214,5,2025-03-07_10h53.51.615,comp,2024.2.4,60.05048227321991,2025-03-07 10h53.59.634753 -0500,
59,59,0,critical,hdw,20.0,2.1,upper,200.0,125.0,141.0,141.0,125.0,200.0,1,3.767416000366211,None,,,,,0,0,0,0,0,59,59,47,581.9926135540009,,,,,,,,,,,,,,,,,,,,,,,,,,,,,,,,,,,,,,,,,,,,,,,,,,,,,,,,,,,,,,,,,,,,,,,,,,,,,,,,,200.0,125.0,141.0,141.0,125.0,200.0,2.1,2.11,-229,279,0,279,266,-277,581.978063583374,581.9781062602997,581.9801959991455,581.9926135540009,582.1431264877319,582.1431264877319,582.1431264877319,582.1431264877319,582.1431264877319,582.1431264877319,582.1431264877319,585.7773153781891,1,3.767416000366211,None,,,,,,,,,,,,,,,,,,214,5,2025-03-07_10h53.51.615,comp,2024.2.4,60.05048227321991,2025-03-07 10h53.59.634753 -0500,
60,60,0,filler_random,None,None,None,None,None,None,None,None,None,None,2,1.496232509613037,None,,,,,0,0,0,0,0,60,60,167,585.7925224304199,,,,,,,,,,,,,,,,,,,,,,,,,,,,,,,,,,,,,,,,,,,,,,,,,,,,,,,,,,,,,,,,,,,,,,,,,,,,,,,,,152.9060023250799,62.12508519961984,156.16694412984504,166.4182628834942,79.04770560195942,136.75277269141918,2.2,2.22,-210,257,0,-284,248,-257,585.7782022953033,585.7782452106476,585.7805738449097,585.7925224304199,585.9429244995117,585.9429244995117,585.9429244995117,585.9429244995117,585.9429244995117,585.9429244995117,585.9429244995117,587.2940185070038,2,1.496232509613037,None,,,,,,,,,,,,,,,,,,214,5,2025-03-07_10h53.51.615,comp,2024.2.4,60.05048227321991,2025-03-07 10h53.59.634753 -0500,
61,61,0,critical,wdh,35.0,1.0,lower,57.0,133.0,70.0,70.0,133.0,57.0,1,5.364211082458496,None,,,,,0,0,0,0,0,61,61,72,587.3094663619995,,,,,,,,,,,,,,,,,,,,,,,,,,,,,,,,,,,,,,,,,,,,,,,,,,,,,,,,,,,,,,,,,,,,,,,,,,,,,,,,,57.0,133.0,70.0,70.0,133.0,57.0,1.0,1.2,-198,16,0,14,160,5,587.2947914600372,587.2948331832886,587.2973227500916,587.3094663619995,587.4598591327667,587.4598591327667,587.4598591327667,587.4598591327667,587.4598591327667,587.4598591327667,587.4598591327667,592.6772537231445,1,5.364211082458496,None,,,,,,,,,,,,,,,,,,214,5,2025-03-07_10h53.51.615,comp,2024.2.4,60.05048227321991,2025-03-07 10h53.59.634753 -0500,
62,62,0,critical,whd,20.0,3.0,lower,57.0,133.0,133.0,57.0,78.0,78.0,1,5.981258392333984,None,,,,,0,0,0,0,0,62,62,92,592.6928362846375,,,,,,,,,,,,,,,,,,,,,,,,,,,,,,,,,,,,,,,,,,,,,,,,,,,,,,,,,,,,,,,,,,,,,,,,,,,,,,,,,57.0,133.0,133.0,57.0,78.0,78.0,3.0,3.2,-191,-272,0,-8,164,267,592.6780381202698,592.678081035614,592.6801218986511,592.6928362846375,592.8427577018738,592.8427577018738,592.8427577018738,592.8427577018738,592.8427577018738,592.8427577018738,592.8427577018738,598.677175283432,1,5.981258392333984,None,,,,,,,,,,,,,,,,,,214,5,2025-03-07_10h53.51.615,comp,2024.2.4,60.05048227321991,2025-03-07 10h53.59.634753 -0500,
63,63,0,filler_random,None,None,None,None,None,None,None,None,None,None,1,3.596140146255493,None,,,,,0,0,0,0,0,63,63,161,598.6927678585052,,,,,,,,,,,,,,,,,,,,,,,,,,,,,,,,,,,,,,,,,,,,,,,,,,,,,,,,,,,,,,,,,,,,,,,,,,,,,,,,,129.6016909157769,61.80166113241118,84.9242168336475,86.11349971779401,95.24391707722694,96.21681131459059,2.1,2.11,-170,264,0,253,187,-263,598.6780860424042,598.6781287193298,598.6802809238434,598.6927678585052,598.8427212238312,598.8427212238312,598.8427212238312,598.8427212238312,598.8427212238312,598.8427212238312,598.8427212238312,602.2938148975372,1,3.596140146255493,None,,,,,,,,,,,,,,,,,,214,5,2025-03-07_10h53.51.615,comp,2024.2.4,60.05048227321991,2025-03-07 10h53.59.634753 -0500,
64,64,0,critical,dhw,35.0,2.1,upper,127.0,127.0,200.0,125.0,125.0,200.0,2,16.03419852256775,None,,,,,0,0,0,0,0,64,64,25,602.3094561100006,,,,,,,,,,,,,,,,,,,,,,,,,,,,,,,,,,,,,,,,,,,,,,,,,,,,,,,,,,,,,,,,,,,,,,,,,,,,,,,,,127.0,127.0,200.0,125.0,125.0,200.0,2.1,2.11,-222,266,0,277,258,-265,602.2946329116821,602.2946751117706,602.2971904277802,602.3094561100006,602.4594526290894,602.4594526290894,602.4594526290894,602.4594526290894,602.4594526290894,602.4594526290894,602.4594526290894,618.3603975772858,2,16.03419852256775,None,,,,,,,,,,,,,,,,,,214,5,2025-03-07_10h53.51.615,comp,2024.2.4,60.05048227321991,2025-03-07 10h53.59.634753 -0500,
65,65,0,critical,dhw,35.0,4.0,lower,70.0,70.0,133.0,57.0,57.0,133.0,3,13.800471305847168,None,,,,,0,0,0,0,0,65,65,52,618.3757164478302,,,,,,,,,,,,,,,,,,,,,,,,,,,,,,,,,,,,,,,,,,,,,,,,,,,,,,,,,,,,,,,,,,,,,,,,,,,,,,,,,70.0,70.0,133.0,57.0,57.0,133.0,4.0,4.1,-160,-289,0,-6,191,-279,618.3611676692963,618.3612086772919,618.3632936477661,618.3757164478302,618.5259115695953,618.5259115695953,618.5259115695953,618.5259115695953,618.5259115695953,618.5259115695953,618.5259115695953,632.1936337947845,3,13.800471305847168,None,,,,,,,,,,,,,,,,,,214,5,2025-03-07_10h53.51.615,comp,2024.2.4,60.05048227321991,2025-03-07 10h53.59.634753 -0500,
66,66,0,filler_square,None,None,None,None,None,None,None,None,None,None,1,5.0078771114349365,None,,,,,0,0,0,0,0,66,66,182,632.2090039253235,,,,,,,,,,,,,,,,,,,,,,,,,,,,,,,,,,,,,,,,,,,,,,,,,,,,,,,,,,,,,,,,,,,,,,,,,,,,,,,,,88.65363797391863,88.65363797391863,87.35458748670412,86.67766544760055,74.57162086474315,84.47682626928315,3.0,3.1,-184,263,0,-13,182,-272,632.1945893764496,632.1946325302124,632.1971077919006,632.2090039253235,632.3590412139893,632.3590412139893,632.3590412139893,632.3590412139893,632.3590412139893,632.3590412139893,632.3590412139893,637.2269177436829,1,5.0078771114349365,None,,,,,,,,,,,,,,,,,,214,5,2025-03-07_10h53.51.615,comp,2024.2.4,60.05048227321991,2025-03-07 10h53.59.634753 -0500,
67,67,0,filler_square,None,None,None,None,None,None,None,None,None,None,3,4.350461483001709,None,,,,,0,0,0,0,0,67,67,184,637.2426013946533,,,,,,,,,,,,,,,,,,,,,,,,,,,,,,,,,,,,,,,,,,,,,,,,,,,,,,,,,,,,,,,,,,,,,,,,,,,,,,,,,192.88561559656776,165.6805389191203,160.68488733558127,195.71522093858505,197.32877960736525,197.32877960736525,2.2,2.21,-277,-272,0,259,293,252,637.2279047966003,637.2279477119446,637.2305419445038,637.2426013946533,637.3928117752075,637.3928117752075,637.3928117752075,637.3928117752075,637.3928117752075,637.3928117752075,637.3928117752075,641.6105666160583,3,4.350461483001709,None,,,,,,,,,,,,,,,,,,214,5,2025-03-07_10h53.51.615,comp,2024.2.4,60.05048227321991,2025-03-07 10h53.59.634753 -0500,
68,68,0,critical,hdw,20.0,1.0,upper,200.0,125.0,141.0,141.0,125.0,200.0,1,8.294536113739014,None,,,,,0,0,0,0,0,68,68,115,641.6256628036499,,,,,,,,,,,,,,,,,,,,,,,,,,,,,,,,,,,,,,,,,,,,,,,,,,,,,,,,,,,,,,,,,,,,,,,,,,,,,,,,,200.0,125.0,141.0,141.0,125.0,200.0,1.0,1.3,251,-280,480,-283,746,-288,641.6113753318787,641.6114180088043,641.6136016845703,641.6256628036499,641.7763261795044,641.7763261795044,641.7763261795044,641.7763261795044,641.7763261795044,641.7763261795044,641.7763261795044,649.9269542694092,1,8.294536113739014,None,,,,,,,,,,,,,,,,,,214,5,2025-03-07_10h53.51.615,comp,2024.2.4,60.05048227321991,2025-03-07 10h53.59.634753 -0500,
69,69,0,critical,whd,35.0,3.0,lower,57.0,133.0,133.0,57.0,70.0,70.0,2,6.133855104446411,None,,,,,0,0,0,0,0,69,69,86,649.9424827098846,,,,,,,,,,,,,,,,,,,,,,,,,,,,,,,,,,,,,,,,,,,,,,,,,,,,,,,,,,,,,,,,,,,,,,,,,,,,,,,,,57.0,133.0,133.0,57.0,70.0,70.0,3.0,3.1,-191,259,0,-14,160,-252,649.9277572631836,649.9278001785278,649.9302659034729,649.9424827098846,650.092262506485,650.092262506485,650.092262506485,650.092262506485,650.092262506485,650.092262506485,650.092262506485,656.0942203998566,2,6.133855104446411,None,,,,,,,,,,,,,,,,,,214,5,2025-03-07_10h53.51.615,comp,2024.2.4,60.05048227321991,2025-03-07 10h53.59.634753 -0500,
70,70,0,filler_square,None,None,None,None,None,None,None,None,None,None,1,1.770418643951416,None,,,,,0,0,0,0,0,70,70,197,656.1094822883606,,,,,,,,,,,,,,,,,,,,,,,,,,,,,,,,,,,,,,,,,,,,,,,,,,,,,,,,,,,,,,,,,,,,,,,,,,,,,,,,,166.7620426256097,166.7620426256097,137.05137883208047,68.77464709920595,66.55546884269809,109.34553608094456,3.0,3.1,-214,264,0,-9,185,-286,656.0952203273773,656.0952618122101,656.0972561836243,656.1094822883606,656.2593607902527,656.2593607902527,656.2593607902527,656.2593607902527,656.2593607902527,656.2593607902527,656.2593607902527,657.8935697078705,1,1.770418643951416,None,,,,,,,,,,,,,,,,,,214,5,2025-03-07_10h53.51.615,comp,2024.2.4,60.05048227321991,2025-03-07 10h53.59.634753 -0500,
71,71,0,filler_random,None,None,None,None,None,None,None,None,None,None,2,3.043330430984497,None,,,,,0,0,0,0,0,71,71,149,657.9088575839996,,,,,,,,,,,,,,,,,,,,,,,,,,,,,,,,,,,,,,,,,,,,,,,,,,,,,,,,,,,,,,,,,,,,,,,,,,,,,,,,,111.12409768463237,68.23741868178958,144.10338625949578,144.27404146745155,85.5404537211706,130.4334235571811,2.1,2.12,-202,-286,0,-274,233,267,657.8945310115814,657.8945732116699,657.8970065116882,657.9088575839996,658.0590579509735,658.0590579509735,658.0590579509735,658.0590579509735,658.0590579509735,658.0590579509735,658.0590579509735,660.9600872993469,2,3.043330430984497,None,,,,,,,,,,,,,,,,,,214,5,2025-03-07_10h53.51.615,comp,2024.2.4,60.05048227321991,2025-03-07 10h53.59.634753 -0500,
72,72,0,critical,dhw,35.0,4.0,upper,127.0,127.0,200.0,125.0,125.0,200.0,3,32.52003502845764,None,,,,,0,0,0,0,0,72,72,53,660.9757466316223,,,,,,,,,,,,,,,,,,,,,,,,,,,,,,,,,,,,,,,,,,,,,,,,,,,,,,,,,,,,,,,,,,,,,,,,,,,,,,,,,127.0,127.0,200.0,125.0,125.0,200.0,4.0,4.2,-222,4,0,-265,258,-2,660.9608883857727,660.9609308242798,660.9634146690369,660.9757466316223,661.1258270740509,661.1258270740509,661.1258270740509,661.1258270740509,661.1258270740509,661.1258270740509,661.1258270740509,693.510110616684,3,32.52003502845764,None,,,,,,,,,,,,,,,,,,214,5,2025-03-07_10h53.51.615,comp,2024.2.4,60.05048227321991,2025-03-07 10h53.59.634753 -0500,
73,73,0,filler_random,None,None,None,None,None,None,None,None,None,None,1,3.0264878273010254,None,,,,,0,0,0,0,0,73,73,141,693.5253744125366,,,,,,,,,,,,,,,,,,,,,,,,,,,,,,,,,,,,,,,,,,,,,,,,,,,,,,,,,,,,,,,,,,,,,,,,,,,,,,,,,195.63461147174235,84.80211415672407,60.656360910916156,189.62180260303583,68.03727098019135,195.74499796766264,2.2,2.22,-233,277,0,-287,289,-270,693.5110483169556,693.5110905170441,693.5137732028961,693.5253744125366,693.6754076480865,693.6754076480865,693.6754076480865,693.6754076480865,693.6754076480865,693.6754076480865,693.6754076480865,696.5598526000977,1,3.0264878273010254,None,,,,,,,,,,,,,,,,,,214,5,2025-03-07_10h53.51.615,comp,2024.2.4,60.05048227321991,2025-03-07 10h53.59.634753 -0500,
74,74,0,critical,hwd,35.0,3.0,lower,133.0,57.0,57.0,133.0,70.0,70.0,2,4.055567741394043,None,,,,,0,0,0,0,0,74,74,98,696.5755436420441,,,,,,,,,,,,,,,,,,,,,,,,,,,,,,,,,,,,,,,,,,,,,,,,,,,,,,,,,,,,,,,,,,,,,,,,,,,,,,,,,133.0,57.0,57.0,133.0,70.0,70.0,3.0,3.2,-191,-289,0,-1,198,263,696.5606579780579,696.5607006549835,696.5628452301025,696.5755436420441,696.7253386974335,696.7253386974335,696.7253386974335,696.7253386974335,696.7253386974335,696.7253386974335,696.7253386974335,700.6433217525482,2,4.055567741394043,None,,,,,,,,,,,,,,,,,,214,5,2025-03-07_10h53.51.615,comp,2024.2.4,60.05048227321991,2025-03-07 10h53.59.634753 -0500,
75,75,0,critical,hdw,35.0,2.1,upper,200.0,125.0,127.0,127.0,125.0,200.0,3,7.57205057144165,None,,,,,0,0,0,0,0,75,75,45,700.6588587760925,,,,,,,,,,,,,,,,,,,,,,,,,,,,,,,,,,,,,,,,,,,,,,,,,,,,,,,,,,,,,,,,,,,,,,,,,,,,,,,,,200.0,125.0,127.0,127.0,125.0,200.0,2.1,2.11,-222,269,0,275,260,-270,700.6442620754242,700.6443026065826,700.6462051868439,700.6588587760925,700.8089115619659,700.8089115619659,700.8089115619659,700.8089115619659,700.8089115619659,700.8089115619659,700.8089115619659,708.2434196472168,3,7.57205057144165,None,,,,,,,,,,,,,,,,,,214,5,2025-03-07_10h53.51.615,comp,2024.2.4,60.05048227321991,2025-03-07 10h53.59.634753 -0500,
76,76,0,filler_random,None,None,None,None,None,None,None,None,None,None,1,6.7005836963653564,None,,,,,0,0,0,0,0,76,76,144,708.2587411403656,,,,,,,,,,,,,,,,,,,,,,,,,,,,,,,,,,,,,,,,,,,,,,,,,,,,,,,,,,,,,,,,,,,,,,,,,,,,,,,,,166.0768053658125,111.45750974404271,99.71617574605625,173.78364003923056,109.4807275174538,113.56741574675418,2.1,2.12,-239,-261,0,-279,240,272,708.2443299293518,708.2443923950195,708.2477207183838,708.2587411403656,708.4086592197418,708.4086592197418,708.4086592197418,708.4086592197418,708.4086592197418,708.4086592197418,708.4086592197418,714.9763696193695,1,6.7005836963653564,None,,,,,,,,,,,,,,,,,,214,5,2025-03-07_10h53.51.615,comp,2024.2.4,60.05048227321991,2025-03-07 10h53.59.634753 -0500,
77,77,0,critical,dwh,20.0,2.1,lower,78.0,78.0,57.0,133.0,133.0,57.0,3,4.449551343917847,None,,,,,0,0,0,0,0,77,77,6,714.99178814888,,,,,,,,,,,,,,,,,,,,,,,,,,,,,,,,,,,,,,,,,,,,,,,,,,,,,,,,,,,,,,,,,,,,,,,,,,,,,,,,,78.0,78.0,57.0,133.0,133.0,57.0,2.1,2.12,-202,-270,0,-286,191,274,714.9771382808685,714.9771809577942,714.9791839122772,714.99178814888,715.1418380737305,715.1418380737305,715.1418380737305,715.1418380737305,715.1418380737305,715.1418380737305,715.1418380737305,719.4596765041351,3,4.449551343917847,None,,,,,,,,,,,,,,,,,,214,5,2025-03-07_10h53.51.615,comp,2024.2.4,60.05048227321991,2025-03-07 10h53.59.634753 -0500,
78,78,0,critical,dhw,20.0,2.1,upper,141.0,141.0,200.0,125.0,125.0,200.0,2,2.7415757179260254,None,,,,,0,0,0,0,0,78,78,27,719.4750590324402,,,,,,,,,,,,,,,,,,,,,,,,,,,,,,,,,,,,,,,,,,,,,,,,,,,,,,,,,,,,,,,,,,,,,,,,,,,,,,,,,141.0,141.0,200.0,125.0,125.0,200.0,2.1,2.11,-229,255,0,288,258,-262,719.4604840278625,719.4605247974396,719.4629545211792,719.4750590324402,719.6252975463867,719.6252975463867,719.6252975463867,719.6252975463867,719.6252975463867,719.6252975463867,719.6252975463867,722.2265663146973,2,2.7415757179260254,None,,,,,,,,,,,,,,,,,,214,5,2025-03-07_10h53.51.615,comp,2024.2.4,60.05048227321991,2025-03-07 10h53.59.634753 -0500,
79,79,0,filler_random,None,None,None,None,None,None,None,None,None,None,2,7.415767431259155,None,,,,,0,0,0,0,0,79,79,155,722.242036819458,,,,,,,,,,,,,,,,,,,,,,,,,,,,,,,,,,,,,,,,,,,,,,,,,,,,,,,,,,,,,,,,,,,,,,,,,,,,,,,,,186.71918553891666,118.19658407811716,186.3334968901723,151.7059289961041,156.44648750757636,145.58898744441814,1.0,1.3,249,-286,480,-253,725,-275,722.2274765968323,722.2275185585022,722.2295727729797,722.242036819458,722.3921432495117,722.3921432495117,722.3921432495117,722.3921432495117,722.3921432495117,722.3921432495117,722.3921432495117,729.66002368927,2,7.415767431259155,None,,,,,,,,,,,,,,,,,,214,5,2025-03-07_10h53.51.615,comp,2024.2.4,60.05048227321991,2025-03-07 10h53.59.634753 -0500,
80,80,0,filler_square,None,None,None,None,None,None,None,None,None,None,1,4.204511880874634,None,,,,,0,0,0,0,0,80,80,203,729.6753373146057,,,,,,,,,,,,,,,,,,,,,,,,,,,,,,,,,,,,,,,,,,,,,,,,,,,,,,,,,,,,,,,,,,,,,,,,,,,,,,,,,139.26998979740534,136.91386907389455,129.19336830647057,111.80326900383456,140.5832117628837,140.5832117628837,3.0,3.1,-220,268,0,-18,222,-264,729.6609709262848,729.6610152721405,729.6631865501404,729.6753373146057,729.8252758979797,729.8252758979797,729.8252758979797,729.8252758979797,729.8252758979797,729.8252758979797,729.8252758979797,733.8931448459625,1,4.204511880874634,None,,,,,,,,,,,,,,,,,,214,5,2025-03-07_10h53.51.615,comp,2024.2.4,60.05048227321991,2025-03-07 10h53.59.634753 -0500,
81,81,0,critical,hwd,20.0,1.0,upper,200.0,125.0,125.0,200.0,141.0,141.0,2,6.218554496765137,None,,,,,0,0,0,0,0,81,81,103,733.9083921909332,,,,,,,,,,,,,,,,,,,,,,,,,,,,,,,,,,,,,,,,,,,,,,,,,,,,,,,,,,,,,,,,,,,,,,,,,,,,,,,,,200.0,125.0,125.0,200.0,141.0,141.0,1.0,1.3,222,-289,480,-270,746,-285,733.8939151763916,733.893956899643,733.8964660167694,733.9083921909332,734.0590288639069,734.0590288639069,734.0590288639069,734.0590288639069,734.0590288639069,734.0590288639069,734.0590288639069,740.1430695056915,2,6.218554496765137,None,,,,,,,,,,,,,,,,,,214,5,2025-03-07_10h53.51.615,comp,2024.2.4,60.05048227321991,2025-03-07 10h53.59.634753 -0500,
82,82,0,critical,whd,35.0,2.1,lower,57.0,133.0,133.0,57.0,70.0,70.0,2,37.86652183532715,None,,,,,0,0,0,0,0,82,82,36,740.158282995224,,,,,,,,,,,,,,,,,,,,,,,,,,,,,,,,,,,,,,,,,,,,,,,,,,,,,,,,,,,,,,,,,,,,,,,,,,,,,,,,,57.0,133.0,133.0,57.0,70.0,70.0,2.1,2.12,-191,-280,0,-278,160,290,740.1439497470856,740.1439921855927,740.1462087631226,740.158282995224,740.3084988594055,740.3084988594055,740.3084988594055,740.3084988594055,740.3084988594055,740.3084988594055,740.3084988594055,778.0260710716248,2,37.86652183532715,None,,,,,,,,,,,,,,,,,,214,5,2025-03-07_10h53.51.615,comp,2024.2.4,60.05048227321991,2025-03-07 10h53.59.634753 -0500,
83,83,0,critical,dhw,20.0,3.0,upper,141.0,141.0,200.0,125.0,125.0,200.0,3,4.8848557472229,None,,,,,0,0,0,0,0,83,83,57,778.041610956192,,,,,,,,,,,,,,,,,,,,,,,,,,,,,,,,,,,,,,,,,,,,,,,,,,,,,,,,,,,,,,,,,,,,,,,,,,,,,,,,,141.0,141.0,200.0,125.0,125.0,200.0,3.0,3.1,-229,268,0,-6,258,-254,778.0268340110779,778.0268757343292,778.0293266773224,778.041610956192,778.1916065216064,778.1916065216064,778.1916065216064,778.1916065216064,778.1916065216064,778.1916065216064,778.1916065216064,782.942666053772,3,4.8848557472229,None,,,,,,,,,,,,,,,,,,214,5,2025-03-07_10h53.51.615,comp,2024.2.4,60.05048227321991,2025-03-07 10h53.59.634753 -0500,
84,84,0,critical,hwd,35.0,2.1,lower,133.0,57.0,57.0,133.0,70.0,70.0,1,13.75239109992981,None,,,,,0,0,0,0,0,84,84,40,782.9579739570618,,,,,,,,,,,,,,,,,,,,,,,,,,,,,,,,,,,,,,,,,,,,,,,,,,,,,,,,,,,,,,,,,,,,,,,,,,,,,,,,,133.0,57.0,57.0,133.0,70.0,70.0,2.1,2.12,-191,-260,0,-255,198,261,782.9434666633606,782.943510055542,782.9468648433685,782.9579739570618,783.1080935001373,783.1080935001373,783.1080935001373,783.1080935001373,783.1080935001373,783.1080935001373,783.1080935001373,796.7258212566376,1,13.75239109992981,None,,,,,,,,,,,,,,,,,,214,5,2025-03-07_10h53.51.615,comp,2024.2.4,60.05048227321991,2025-03-07 10h53.59.634753 -0500,
85,85,0,filler_square,None,None,None,None,None,None,None,None,None,None,2,2.65022873878479,None,,,,,0,0,0,0,0,85,85,189,796.7413203716278,,,,,,,,,,,,,,,,,,,,,,,,,,,,,,,,,,,,,,,,,,,,,,,,,,,,,,,,,,,,,,,,,,,,,,,,,,,,,,,,,74.23872873709645,69.8292701810324,78.18831108948581,78.18831108948581,77.94361844778595,59.58330933892324,4.0,4.2,-170,-8,0,-250,165,-20,796.7268040180206,796.7268476486206,796.729336977005,796.7413203716278,796.8913795948029,796.8913795948029,796.8913795948029,796.8913795948029,796.8913795948029,796.8913795948029,796.8913795948029,799.4092054367065,2,2.65022873878479,None,,,,,,,,,,,,,,,,,,214,5,2025-03-07_10h53.51.615,comp,2024.2.4,60.05048227321991,2025-03-07 10h53.59.634753 -0500,
86,86,0,critical,whd,20.0,2.1,lower,57.0,133.0,133.0,57.0,78.0,78.0,2,14.832393646240234,None,,,,,0,0,0,0,0,86,86,14,799.4245944023132,,,,,,,,,,,,,,,,,,,,,,,,,,,,,,,,,,,,,,,,,,,,,,,,,,,,,,,,,,,,,,,,,,,,,,,,,,,,,,,,,57.0,133.0,133.0,57.0,78.0,78.0,2.1,2.11,-191,271,0,277,164,-289,799.4100089073181,799.4100522994995,799.412624835968,799.4245944023132,799.5747249126434,799.5747249126434,799.5747249126434,799.5747249126434,799.5747249126434,799.5747249126434,799.5747249126434,814.2591209411621,2,14.832393646240234,None,,,,,,,,,,,,,,,,,,214,5,2025-03-07_10h53.51.615,comp,2024.2.4,60.05048227321991,2025-03-07 10h53.59.634753 -0500,
87,87,0,critical,whd,35.0,2.1,upper,125.0,200.0,200.0,125.0,127.0,127.0,2,1.9973783493041992,None,,,,,0,0,0,0,0,87,87,13,814.2745950222015,,,,,,,,,,,,,,,,,,,,,,,,,,,,,,,,,,,,,,,,,,,,,,,,,,,,,,,,,,,,,,,,,,,,,,,,,,,,,,,,,125.0,200.0,200.0,125.0,127.0,127.0,2.1,2.11,-258,267,0,276,222,-278,814.2598941326141,814.2599363327026,814.2620761394501,814.2745950222015,814.4248197078705,814.4248197078705,814.4248197078705,814.4248197078705,814.4248197078705,814.4248197078705,814.4248197078705,816.2759380340576,2,1.9973783493041992,None,,,,,,,,,,,,,,,,,,214,5,2025-03-07_10h53.51.615,comp,2024.2.4,60.05048227321991,2025-03-07 10h53.59.634753 -0500,
88,88,0,filler_square,None,None,None,None,None,None,None,None,None,None,3,5.6115758419036865,None,,,,,0,0,0,0,0,88,88,196,816.2914969921112,,,,,,,,,,,,,,,,,,,,,,,,,,,,,,,,,,,,,,,,,,,,,,,,,,,,,,,,,,,,,,,,,,,,,,,,,,,,,,,,,57.29296059583696,58.20540494552439,61.052636517597186,61.94326670917835,62.95302523692896,62.95302523692896,2.2,2.21,-156,-289,0,285,158,282,816.276948928833,816.2769908905029,816.279529094696,816.2914969921112,816.4413223266602,816.4413223266602,816.4413223266602,816.4413223266602,816.4413223266602,816.4413223266602,816.4413223266602,821.9088506698608,3,5.6115758419036865,None,,,,,,,,,,,,,,,,,,214,5,2025-03-07_10h53.51.615,comp,2024.2.4,60.05048227321991,2025-03-07 10h53.59.634753 -0500,
89,89,0,critical,wdh,20.0,4.0,lower,57.0,133.0,78.0,78.0,133.0,57.0,2,5.9159836769104,None,,,,,0,0,0,0,0,89,89,82,821.9246060848236,,,,,,,,,,,,,,,,,,,,,,,,,,,,,,,,,,,,,,,,,,,,,,,,,,,,,,,,,,,,,,,,,,,,,,,,,,,,,,,,,57.0,133.0,78.0,78.0,133.0,57.0,4.0,4.1,-202,-263,0,11,164,-271,821.9097392559052,821.9097831249237,821.912134885788,821.9246060848236,822.0744910240173,822.0744910240173,822.0744910240173,822.0744910240173,822.0744910240173,822.0744910240173,822.0744910240173,827.8588879108429,2,5.9159836769104,None,,,,,,,,,,,,,,,,,,214,5,2025-03-07_10h53.51.615,comp,2024.2.4,60.05048227321991,2025-03-07 10h53.59.634753 -0500,
90,90,0,critical,dwh,35.0,2.1,lower,70.0,70.0,57.0,133.0,133.0,57.0,3,34.51682186126709,None,,,,,0,0,0,0,0,90,90,4,827.8742642402649,,,,,,,,,,,,,,,,,,,,,,,,,,,,,,,,,,,,,,,,,,,,,,,,,,,,,,,,,,,,,,,,,,,,,,,,,,,,,,,,,70.0,70.0,57.0,133.0,133.0,57.0,2.1,2.11,-198,278,0,260,191,-261,827.8596923351288,827.8597342967987,827.8622713088989,827.8742642402649,828.0245096683502,828.0245096683502,828.0245096683502,828.0245096683502,828.0245096683502,828.0245096683502,828.0245096683502,862.4087104797363,3,34.51682186126709,None,,,,,,,,,,,,,,,,,,214,5,2025-03-07_10h53.51.615,comp,2024.2.4,60.05048227321991,2025-03-07 10h53.59.634753 -0500,
91,91,0,critical,dhw,20.0,2.1,lower,78.0,78.0,133.0,57.0,57.0,133.0,2,3.1669375896453857,None,,,,,0,0,0,0,0,91,91,2,862.424113035202,,,,,,,,,,,,,,,,,,,,,,,,,,,,,,,,,,,,,,,,,,,,,,,,,,,,,,,,,,,,,,,,,,,,,,,,,,,,,,,,,78.0,78.0,133.0,57.0,57.0,133.0,2.1,2.12,-164,-272,0,-254,191,280,862.4095196723938,862.4095616340637,862.4120182991028,862.424113035202,862.5743305683136,862.5743305683136,862.5743305683136,862.5743305683136,862.5743305683136,862.5743305683136,862.5743305683136,865.5922613143921,2,3.1669375896453857,None,,,,,,,,,,,,,,,,,,214,5,2025-03-07_10h53.51.615,comp,2024.2.4,60.05048227321991,2025-03-07 10h53.59.634753 -0500,
92,92,0,critical,wdh,35.0,1.0,upper,125.0,200.0,127.0,127.0,200.0,125.0,3,2.5591869354248047,None,,,,,0,0,0,0,0,92,92,73,865.6076529026031,,,,,,,,,,,,,,,,,,,,,,,,,,,,,,,,,,,,,,,,,,,,,,,,,,,,,,,,,,,,,,,,,,,,,,,,,,,,,,,,,125.0,200.0,127.0,127.0,200.0,125.0,1.0,1.2,-260,-6,0,6,222,-4,865.5930671691895,865.5931105613708,865.5957200527191,865.6076529026031,865.7576975822449,865.7576975822449,865.7576975822449,865.7576975822449,865.7576975822449,865.7576975822449,865.7576975822449,868.1753845214844,3,2.5591869354248047,None,,,,,,,,,,,,,,,,,,214,5,2025-03-07_10h53.51.615,comp,2024.2.4,60.05048227321991,2025-03-07 10h53.59.634753 -0500,
93,93,0,critical,whd,35.0,1.0,upper,125.0,200.0,200.0,125.0,127.0,127.0,2,4.433119297027588,None,,,,,0,0,0,0,0,93,93,85,868.1909682750702,,,,,,,,,,,,,,,,,,,,,,,,,,,,,,,,,,,,,,,,,,,,,,,,,,,,,,,,,,,,,,,,,,,,,,,,,,,,,,,,,125.0,200.0,200.0,125.0,127.0,127.0,1.0,1.3,222,-265,480,-258,702,-262,868.1761660575867,868.176207780838,868.1782803535461,868.1909682750702,868.3409979343414,868.3409979343414,868.3409979343414,868.3409979343414,868.3409979343414,868.3409979343414,868.3409979343414,872.6421484947205,2,4.433119297027588,None,,,,,,,,,,,,,,,,,,214,5,2025-03-07_10h53.51.615,comp,2024.2.4,60.05048227321991,2025-03-07 10h53.59.634753 -0500,
94,94,0,filler_random,None,None,None,None,None,None,None,None,None,None,1,2.350303888320923,None,,,,,0,0,0,0,0,94,94,168,872.657463312149,,,,,,,,,,,,,,,,,,,,,,,,,,,,,,,,,,,,,,,,,,,,,,,,,,,,,,,,,,,,,,,,,,,,,,,,,,,,,,,,,182.41513674122393,133.3397796941296,60.15064900930484,159.4139118350881,124.04704463308335,141.54093505979793,4.0,4.2,-242,12,0,-289,246,-2,872.6430902481079,872.643132686615,872.6456804275513,872.657463312149,872.8076257705688,872.8076257705688,872.8076257705688,872.8076257705688,872.8076257705688,872.8076257705688,872.8076257705688,875.0254123210907,1,2.350303888320923,None,,,,,,,,,,,,,,,,,,214,5,2025-03-07_10h53.51.615,comp,2024.2.4,60.05048227321991,2025-03-07 10h53.59.634753 -0500,
95,95,0,critical,hdw,35.0,2.1,lower,133.0,57.0,70.0,70.0,57.0,133.0,1,3.2050528526306152,None,,,,,0,0,0,0,0,95,95,44,875.040708065033,,,,,,,,,,,,,,,,,,,,,,,,,,,,,,,,,,,,,,,,,,,,,,,,,,,,,,,,,,,,,,,,,,,,,,,,,,,,,,,,,133.0,57.0,70.0,70.0,57.0,133.0,2.1,2.11,-160,265,0,262,198,-272,875.0262053012848,875.0262477397919,875.0295648574829,875.040708065033,875.1908359527588,875.1908359527588,875.1908359527588,875.1908359527588,875.1908359527588,875.1908359527588,875.1908359527588,878.2585663795471,1,3.2050528526306152,None,,,,,,,,,,,,,,,,,,214,5,2025-03-07_10h53.51.615,comp,2024.2.4,60.05048227321991,2025-03-07 10h53.59.634753 -0500,
96,96,0,critical,hwd,35.0,2.1,lower,133.0,57.0,57.0,133.0,70.0,70.0,2,2.733565330505371,None,,,,,0,0,0,0,0,96,96,16,878.273957490921,,,,,,,,,,,,,,,,,,,,,,,,,,,,,,,,,,,,,,,,,,,,,,,,,,,,,,,,,,,,,,,,,,,,,,,,,,,,,,,,,133.0,57.0,57.0,133.0,70.0,70.0,2.1,2.11,-191,257,0,270,198,-289,878.2593247890472,878.2593801021576,878.2617256641388,878.273957490921,878.4240357875824,878.4240357875824,878.4240357875824,878.4240357875824,878.4240357875824,878.4240357875824,878.4240357875824,881.0252521038055,2,2.733565330505371,None,,,,,,,,,,,,,,,,,,214,5,2025-03-07_10h53.51.615,comp,2024.2.4,60.05048227321991,2025-03-07 10h53.59.634753 -0500,
97,97,0,filler_random,None,None,None,None,None,None,None,None,None,None,2,2.3012523651123047,None,,,,,0,0,0,0,0,97,97,140,881.040709733963,,,,,,,,,,,,,,,,,,,,,,,,,,,,,,,,,,,,,,,,,,,,,,,,,,,,,,,,,,,,,,,,,,,,,,,,,,,,,,,,,95.00702861008003,74.85881297470962,132.48742968556292,181.42553808939311,86.77924377608042,154.59599362513734,3.0,3.2,-224,-257,0,-3,264,265,881.0261723995209,881.0262162685394,881.02885389328,881.040709733963,881.1910481452942,881.1910481452942,881.1910481452942,881.1910481452942,881.1910481452942,881.1910481452942,881.1910481452942,883.3585979938507,2,2.3012523651123047,None,,,,,,,,,,,,,,,,,,214,5,2025-03-07_10h53.51.615,comp,2024.2.4,60.05048227321991,2025-03-07 10h53.59.634753 -0500,
98,98,0,critical,hdw,20.0,1.0,lower,133.0,57.0,78.0,78.0,57.0,133.0,2,5.488245964050293,None,,,,,0,0,0,0,0,98,98,114,883.3738901615143,,,,,,,,,,,,,,,,,,,,,,,,,,,,,,,,,,,,,,,,,,,,,,,,,,,,,,,,,,,,,,,,,,,,,,,,,,,,,,,,,133.0,57.0,78.0,78.0,57.0,133.0,1.0,1.2,-164,17,0,-2,202,-3,883.3593695163727,883.3594105243683,883.3618111610413,883.3738901615143,883.5242674350739,883.5242674350739,883.5242674350739,883.5242674350739,883.5242674350739,883.5242674350739,883.5242674350739,888.8752310276031,2,5.488245964050293,None,,,,,,,,,,,,,,,,,,214,5,2025-03-07_10h53.51.615,comp,2024.2.4,60.05048227321991,2025-03-07 10h53.59.634753 -0500,
99,99,0,filler_random,None,None,None,None,None,None,None,None,None,None,1,4.116985082626343,None,,,,,0,0,0,0,0,99,99,130,888.8905832767487,,,,,,,,,,,,,,,,,,,,,,,,,,,,,,,,,,,,,,,,,,,,,,,,,,,,,,,,,,,,,,,,,,,,,,,,,,,,,,,,,189.80457803372812,64.98881967046223,100.7018456990494,125.89822141468798,73.34993717971814,176.28320204653983,2.2,2.22,-191,267,0,-276,247,-270,888.8761372566223,888.8761801719666,888.8787727355957,888.8905832767487,889.0411133766174,889.0411133766174,889.0411133766174,889.0411133766174,889.0411133766174,889.0411133766174,889.0411133766174,893.0252075195312,1,4.116985082626343,None,,,,,,,,,,,,,,,,,,214,5,2025-03-07_10h53.51.615,comp,2024.2.4,60.05048227321991,2025-03-07 10h53.59.634753 -0500,
100,100,0,critical,wdh,20.0,1.0,upper,125.0,200.0,141.0,141.0,200.0,125.0,3,2.8941092491149902,None,,,,,0,0,0,0,0,100,100,79,893.0405421257019,,,,,,,,,,,,,,,,,,,,,,,,,,,,,,,,,,,,,,,,,,,,,,,,,,,,,,,,,,,,,,,,,,,,,,,,,,,,,,,,,125.0,200.0,141.0,141.0,200.0,125.0,1.0,1.2,-266,2,0,-13,229,14,893.0259952545166,893.0260372161865,893.0286886692047,893.0405421257019,893.1909422874451,893.1909422874451,893.1909422874451,893.1909422874451,893.1909422874451,893.1909422874451,893.1909422874451,895.9420614242554,3,2.8941092491149902,None,,,,,,,,,,,,,,,,,,214,5,2025-03-07_10h53.51.615,comp,2024.2.4,60.05048227321991,2025-03-07 10h53.59.634753 -0500,
101,101,0,critical,whd,20.0,2.1,lower,57.0,133.0,133.0,57.0,78.0,78.0,2,6.314076662063599,None,,,,,0,0,0,0,0,101,101,38,895.9574840068817,,,,,,,,,,,,,,,,,,,,,,,,,,,,,,,,,,,,,,,,,,,,,,,,,,,,,,,,,,,,,,,,,,,,,,,,,,,,,,,,,57.0,133.0,133.0,57.0,78.0,78.0,2.1,2.12,-191,-284,0,-272,164,281,895.9428722858429,895.9429154396057,895.9454636573792,895.9574840068817,896.1073317527771,896.1073317527771,896.1073317527771,896.1073317527771,896.1073317527771,896.1073317527771,896.1073317527771,902.2751939296722,2,6.314076662063599,None,,,,,,,,,,,,,,,,,,214,5,2025-03-07_10h53.51.615,comp,2024.2.4,60.05048227321991,2025-03-07 10h53.59.634753 -0500,
102,102,0,filler_random,None,None,None,None,None,None,None,None,None,None,3,1.700331211090088,None,,,,,0,0,0,0,0,102,102,164,902.2907283306122,,,,,,,,,,,,,,,,,,,,,,,,,,,,,,,,,,,,,,,,,,,,,,,,,,,,,,,,,,,,,,,,,,,,,,,,,,,,,,,,,117.72815203485389,108.63011019427483,153.54628347660224,166.29809196685432,196.24277709961783,150.89499689101774,1.0,1.2,-233,4,0,13,255,2,902.276070356369,902.2761123180389,902.2781901359558,902.2907283306122,902.441018819809,902.441018819809,902.441018819809,902.441018819809,902.441018819809,902.441018819809,902.441018819809,904.0086343288422,3,1.700331211090088,None,,,,,,,,,,,,,,,,,,214,5,2025-03-07_10h53.51.615,comp,2024.2.4,60.05048227321991,2025-03-07 10h53.59.634753 -0500,
103,103,0,critical,hwd,35.0,4.0,lower,133.0,57.0,57.0,133.0,70.0,70.0,2,4.501904487609863,None,,,,,0,0,0,0,0,103,103,100,904.0238845348358,,,,,,,,,,,,,,,,,,,,,,,,,,,,,,,,,,,,,,,,,,,,,,,,,,,,,,,,,,,,,,,,,,,,,,,,,,,,,,,,,133.0,57.0,57.0,133.0,70.0,70.0,4.0,4.2,-191,-9,0,-274,198,-14,904.0094313621521,904.0094735622406,904.0118794441223,904.0238845348358,904.174001455307,904.174001455307,904.174001455307,904.174001455307,904.174001455307,904.174001455307,904.174001455307,908.5416631698608,2,4.501904487609863,None,,,,,,,,,,,,,,,,,,214,5,2025-03-07_10h53.51.615,comp,2024.2.4,60.05048227321991,2025-03-07 10h53.59.634753 -0500,
104,104,0,critical,dwh,20.0,2.1,lower,78.0,78.0,57.0,133.0,133.0,57.0,2,4.600884199142456,None,,,,,0,0,0,0,0,104,104,30,908.5570888519287,,,,,,,,,,,,,,,,,,,,,,,,,,,,,,,,,,,,,,,,,,,,,,,,,,,,,,,,,,,,,,,,,,,,,,,,,,,,,,,,,78.0,78.0,57.0,133.0,133.0,57.0,2.1,2.11,-202,252,0,253,191,-251,908.5424768924713,908.5425198078156,908.5450315475464,908.5570888519287,908.7073063850403,908.7073063850403,908.7073063850403,908.7073063850403,908.7073063850403,908.7073063850403,908.7073063850403,913.1751289367676,2,4.600884199142456,None,,,,,,,,,,,,,,,,,,214,5,2025-03-07_10h53.51.615,comp,2024.2.4,60.05048227321991,2025-03-07 10h53.59.634753 -0500,
105,105,0,filler_square,None,None,None,None,None,None,None,None,None,None,1,2.4956884384155273,None,,,,,0,0,0,0,0,105,105,174,913.1910424232483,,,,,,,,,,,,,,,,,,,,,,,,,,,,,,,,,,,,,,,,,,,,,,,,,,,,,,,,,,,,,,,,,,,,,,,,,,,,,,,,,112.84176756061794,112.84176756061794,98.25349396914396,87.80026386705744,76.4224248150006,59.42535480763559,3.0,3.1,-196,274,0,-14,170,-266,913.176102399826,913.1761445999146,913.1800146102905,913.1910424232483,913.3406958580017,913.3406958580017,913.3406958580017,913.3406958580017,913.3406958580017,913.3406958580017,913.3406958580017,915.6916258335114,1,2.4956884384155273,None,,,,,,,,,,,,,,,,,,214,5,2025-03-07_10h53.51.615,comp,2024.2.4,60.05048227321991,2025-03-07 10h53.59.634753 -0500,
106,106,0,critical,whd,20.0,4.0,lower,57.0,133.0,133.0,57.0,78.0,78.0,2,3.9000840187072754,None,,,,,0,0,0,0,0,106,106,94,915.7073299884796,,,,,,,,,,,,,,,,,,,,,,,,,,,,,,,,,,,,,,,,,,,,,,,,,,,,,,,,,,,,,,,,,,,,,,,,,,,,,,,,,57.0,133.0,133.0,57.0,78.0,78.0,4.0,4.2,-191,10,0,-257,164,-14,915.6923935413361,915.6924328804016,915.694787979126,915.7073299884796,915.8572065830231,915.8572065830231,915.8572065830231,915.8572065830231,915.8572065830231,915.8572065830231,915.8572065830231,919.6250519752502,2,3.9000840187072754,None,,,,,,,,,,,,,,,,,,214,5,2025-03-07_10h53.51.615,comp,2024.2.4,60.05048227321991,2025-03-07 10h53.59.634753 -0500,
107,107,0,critical,whd,35.0,2.1,upper,125.0,200.0,200.0,125.0,127.0,127.0,1,3.1582977771759033,None,,,,,0,0,0,0,0,107,107,37,919.6404082775116,,,,,,,,,,,,,,,,,,,,,,,,,,,,,,,,,,,,,,,,,,,,,,,,,,,,,,,,,,,,,,,,,,,,,,,,,,,,,,,,,125.0,200.0,200.0,125.0,127.0,127.0,2.1,2.12,-258,-283,0,-251,222,276,919.6258590221405,919.6259019374847,919.6280105113983,919.6404082775116,919.7906458377838,919.7906458377838,919.7906458377838,919.7906458377838,919.7906458377838,919.7906458377838,919.7906458377838,922.8085134029388,1,3.1582977771759033,None,,,,,,,,,,,,,,,,,,214,5,2025-03-07_10h53.51.615,comp,2024.2.4,60.05048227321991,2025-03-07 10h53.59.634753 -0500,
108,108,0,critical,hwd,35.0,2.1,upper,200.0,125.0,125.0,200.0,127.0,127.0,2,5.399703741073608,None,,,,,0,0,0,0,0,108,108,17,922.8243012428284,,,,,,,,,,,,,,,,,,,,,,,,,,,,,,,,,,,,,,,,,,,,,,,,,,,,,,,,,,,,,,,,,,,,,,,,,,,,,,,,,200.0,125.0,125.0,200.0,127.0,127.0,2.1,2.11,-258,263,0,260,260,-280,922.8093118667603,922.8093671798706,922.8114769458771,922.8243012428284,922.9740948677063,922.9740948677063,922.9740948677063,922.9740948677063,922.9740948677063,922.9740948677063,922.9740948677063,928.2253198623657,2,5.399703741073608,None,,,,,,,,,,,,,,,,,,214,5,2025-03-07_10h53.51.615,comp,2024.2.4,60.05048227321991,2025-03-07 10h53.59.634753 -0500,
109,109,0,critical,wdh,35.0,2.1,upper,125.0,200.0,127.0,127.0,200.0,125.0,3,5.5416460037231445,None,,,,,0,0,0,0,0,109,109,33,928.2406320571899,,,,,,,,,,,,,,,,,,,,,,,,,,,,,,,,,,,,,,,,,,,,,,,,,,,,,,,,,,,,,,,,,,,,,,,,,,,,,,,,,125.0,200.0,127.0,127.0,200.0,125.0,2.1,2.12,-260,-267,0,-286,222,282,928.2261021137238,928.2261428833008,928.2286567687988,928.2406320571899,928.3906643390656,928.3906643390656,928.3906643390656,928.3906643390656,928.3906643390656,928.3906643390656,928.3906643390656,933.7916474342346,3,5.5416460037231445,None,,,,,,,,,,,,,,,,,,214,5,2025-03-07_10h53.51.615,comp,2024.2.4,60.05048227321991,2025-03-07 10h53.59.634753 -0500,
110,110,0,critical,hdw,20.0,2.1,upper,200.0,125.0,141.0,141.0,125.0,200.0,1,2.2486324310302734,None,,,,,0,0,0,0,0,110,110,23,933.8072106838226,,,,,,,,,,,,,,,,,,,,,,,,,,,,,,,,,,,,,,,,,,,,,,,,,,,,,,,,,,,,,,,,,,,,,,,,,,,,,,,,,200.0,125.0,141.0,141.0,125.0,200.0,2.1,2.11,-229,255,0,268,266,-273,933.7924432754517,933.7924864292145,933.7949273586273,933.8072106838226,933.9573318958282,933.9573318958282,933.9573318958282,933.9573318958282,933.9573318958282,933.9573318958282,933.9573318958282,936.0585596561432,1,2.2486324310302734,None,,,,,,,,,,,,,,,,,,214,5,2025-03-07_10h53.51.615,comp,2024.2.4,60.05048227321991,2025-03-07 10h53.59.634753 -0500,
111,111,0,filler_random,None,None,None,None,None,None,None,None,None,None,2,3.1553521156311035,None,,,,,0,0,0,0,0,111,111,138,936.0740139484406,,,,,,,,,,,,,,,,,,,,,,,,,,,,,,,,,,,,,,,,,,,,,,,,,,,,,,,,,,,,,,,,,,,,,,,,,,,,,,,,,96.44344137513741,90.58967579451817,144.622929937068,181.99330708272876,195.69701962380827,65.23598860951574,2.2,2.21,-232,-285,0,251,220,277,936.0594644546509,936.0595066547394,936.0619103908539,936.0740139484406,936.2239801883698,936.2239801883698,936.2239801883698,936.2239801883698,936.2239801883698,936.2239801883698,936.2239801883698,939.2418644428253,2,3.1553521156311035,None,,,,,,,,,,,,,,,,,,214,5,2025-03-07_10h53.51.615,comp,2024.2.4,60.05048227321991,2025-03-07 10h53.59.634753 -0500,
112,112,0,critical,dhw,20.0,1.0,upper,141.0,141.0,200.0,125.0,125.0,200.0,3,19.55089521408081,None,,,,,0,0,0,0,0,112,112,55,939.2569668292999,,,,,,,,,,,,,,,,,,,,,,,,,,,,,,,,,,,,,,,,,,,,,,,,,,,,,,,,,,,,,,,,,,,,,,,,,,,,,,,,,141.0,141.0,200.0,125.0,125.0,200.0,1.0,1.2,-229,-11,0,18,258,15,939.2426509857178,939.2426927089691,939.2451648712158,939.2569668292999,939.407292842865,939.407292842865,939.407292842865,939.407292842865,939.407292842865,939.407292842865,939.407292842865,958.8248703479767,3,19.55089521408081,None,,,,,,,,,,,,,,,,,,214,5,2025-03-07_10h53.51.615,comp,2024.2.4,60.05048227321991,2025-03-07 10h53.59.634753 -0500,
113,113,0,filler_square,None,None,None,None,None,None,None,None,None,None,2,1.0051276683807373,None,,,,,0,0,0,0,0,113,113,194,958.8400976657867,,,,,,,,,,,,,,,,,,,,,,,,,,,,,,,,,,,,,,,,,,,,,,,,,,,,,,,,,,,,,,,,,,,,,,,,,,,,,,,,,108.08076619725904,178.30447567355253,192.78311798584454,192.78311798584454,91.00902107489006,134.9007395971244,2.1,2.11,-282,266,0,257,260,-286,958.8258633613586,958.8259060382843,958.8283905982971,958.8400976657867,958.9907059669495,958.9907059669495,958.9907059669495,958.9907059669495,958.9907059669495,958.9907059669495,958.9907059669495,959.8581719398499,2,1.0051276683807373,None,,,,,,,,,,,,,,,,,,214,5,2025-03-07_10h53.51.615,comp,2024.2.4,60.05048227321991,2025-03-07 10h53.59.634753 -0500,
114,114,0,critical,dwh,20.0,1.0,upper,141.0,141.0,125.0,200.0,200.0,125.0,3,14.917224884033203,None,,,,,0,0,0,0,0,114,114,67,959.8733937740326,,,,,,,,,,,,,,,,,,,,,,,,,,,,,,,,,,,,,,,,,,,,,,,,,,,,,,,,,,,,,,,,,,,,,,,,,,,,,,,,,141.0,141.0,125.0,200.0,200.0,125.0,1.0,1.1,-746,269,-480,250,-222,272,959.8589468002319,959.8589873313904,959.861573934555,959.8733937740326,960.0240504741669,960.0240504741669,960.0240504741669,960.0240504741669,960.0240504741669,960.0240504741669,960.0240504741669,974.8082327842712,3,14.917224884033203,None,,,,,,,,,,,,,,,,,,214,5,2025-03-07_10h53.51.615,comp,2024.2.4,60.05048227321991,2025-03-07 10h53.59.634753 -0500,
115,115,0,critical,dwh,20.0,3.0,upper,141.0,141.0,125.0,200.0,200.0,125.0,2,1.7838108539581299,None,,,,,0,0,0,0,0,115,115,69,974.8234221935272,,,,,,,,,,,,,,,,,,,,,,,,,,,,,,,,,,,,,,,,,,,,,,,,,,,,,,,,,,,,,,,,,,,,,,,,,,,,,,,,,141.0,141.0,125.0,200.0,200.0,125.0,3.0,3.1,-266,267,0,-7,258,-273,974.8090324401855,974.8090739250183,974.8112568855286,974.8234221935272,974.9738130569458,974.9738130569458,974.9738130569458,974.9738130569458,974.9738130569458,974.9738130569458,974.9738130569458,976.6249883174896,2,1.7838108539581299,None,,,,,,,,,,,,,,,,,,214,5,2025-03-07_10h53.51.615,comp,2024.2.4,60.05048227321991,2025-03-07 10h53.59.634753 -0500,
116,116,0,filler_square,None,None,None,None,None,None,None,None,None,None,3,2.3173654079437256,None,,,,,0,0,0,0,0,116,116,195,976.640052318573,,,,,,,,,,,,,,,,,,,,,,,,,,,,,,,,,,,,,,,,,,,,,,,,,,,,,,,,,,,,,,,,,,,,,,,,,,,,,,,,,64.18138949918782,69.6219035097866,77.83640879236609,62.17785450615394,86.78268829776096,86.78268829776096,2.1,2.12,-162,-286,0,-277,170,268,976.6259942054749,976.6260371208191,976.6285519599915,976.640052318573,976.790031671524,976.790031671524,976.790031671524,976.790031671524,976.790031671524,976.790031671524,976.790031671524,978.9745428562164,3,2.3173654079437256,None,,,,,,,,,,,,,,,,,,214,5,2025-03-07_10h53.51.615,comp,2024.2.4,60.05048227321991,2025-03-07 10h53.59.634753 -0500,
117,117,0,critical,hwd,35.0,3.0,upper,200.0,125.0,125.0,200.0,127.0,127.0,1,15.159975051879883,None,,,,,0,0,0,0,0,117,117,99,978.9898951053619,,,,,,,,,,,,,,,,,,,,,,,,,,,,,,,,,,,,,,,,,,,,,,,,,,,,,,,,,,,,,,,,,,,,,,,,,,,,,,,,,200.0,125.0,125.0,200.0,127.0,127.0,3.0,3.2,-258,-289,0,-15,260,251,978.9753265380859,978.9753811359406,978.977756023407,978.9898951053619,979.1402122974396,979.1402122974396,979.1402122974396,979.1402122974396,979.1402122974396,979.1402122974396,979.1402122974396,994.1579666137695,1,15.159975051879883,None,,,,,,,,,,,,,,,,,,214,5,2025-03-07_10h53.51.615,comp,2024.2.4,60.05048227321991,2025-03-07 10h53.59.634753 -0500,
118,118,0,critical,wdh,20.0,2.1,upper,125.0,200.0,141.0,141.0,200.0,125.0,3,3.4243996143341064,None,,,,,0,0,0,0,0,118,118,35,994.1738424301147,,,,,,,,,,,,,,,,,,,,,,,,,,,,,,,,,,,,,,,,,,,,,,,,,,,,,,,,,,,,,,,,,,,,,,,,,,,,,,,,,125.0,200.0,141.0,141.0,200.0,125.0,2.1,2.12,-266,-259,0,-277,229,283,994.158777475357,994.1588199138641,994.160890340805,994.1738424301147,994.3235766887665,994.3235766887665,994.3235766887665,994.3235766887665,994.3235766887665,994.3235766887665,994.3235766887665,997.6080214977264,3,3.4243996143341064,None,,,,,,,,,,,,,,,,,,214,5,2025-03-07_10h53.51.615,comp,2024.2.4,60.05048227321991,2025-03-07 10h53.59.634753 -0500,
119,119,0,critical,hwd,35.0,1.0,upper,200.0,125.0,125.0,200.0,127.0,127.0,1,2.1582775115966797,None,,,,,0,0,0,0,0,119,119,97,997.6235542297363,,,,,,,,,,,,,,,,,,,,,,,,,,,,,,,,,,,,,,,,,,,,,,,,,,,,,,,,,,,,,,,,,,,,,,,,,,,,,,,,,200.0,125.0,125.0,200.0,127.0,127.0,1.0,1.2,-258,0,0,5,260,-19,997.608803987503,997.608845949173,997.611359834671,997.6235542297363,997.7735607624054,997.7735607624054,997.7735607624054,997.7735607624054,997.7735607624054,997.7735607624054,997.7735607624054,999.791268825531,1,2.1582775115966797,None,,,,,,,,,,,,,,,,,,214,5,2025-03-07_10h53.51.615,comp,2024.2.4,60.05048227321991,2025-03-07 10h53.59.634753 -0500,
120,120,0,critical,wdh,20.0,2.1,lower,57.0,133.0,78.0,78.0,133.0,57.0,2,14.471016645431519,None,,,,,0,0,0,0,0,120,120,34,999.8068792819977,,,,,,,,,,,,,,,,,,,,,,,,,,,,,,,,,,,,,,,,,,,,,,,,,,,,,,,,,,,,,,,,,,,,,,,,,,,,,,,,,57.0,133.0,78.0,78.0,133.0,57.0,2.1,2.11,-202,282,0,260,164,-281,999.7920615673065,999.7921042442322,999.7941808700562,999.8068792819977,999.9566683769226,999.9566683769226,999.9566683769226,999.9566683769226,999.9566683769226,999.9566683769226,999.9566683769226,1014.2910318374634,2,14.471016645431519,None,,,,,,,,,,,,,,,,,,214,5,2025-03-07_10h53.51.615,comp,2024.2.4,60.05048227321991,2025-03-07 10h53.59.634753 -0500,
121,121,0,filler_random,None,None,None,None,None,None,None,None,None,None,1,1.9865777492523193,None,,,,,0,0,0,0,0,121,121,136,1014.3064234256744,,,,,,,,,,,,,,,,,,,,,,,,,,,,,,,,,,,,,,,,,,,,,,,,,,,,,,,,,,,,,,,,,,,,,,,,,,,,,,,,,138.09390592314887,182.17334042583155,105.77258981443327,58.51701066111803,68.84358295697092,111.89594644651444,3.0,3.1,-216,265,0,-17,181,-264,1014.2919464111328,1014.2919883728027,1014.2945063114166,1014.3064234256744,1014.4565420150757,1014.4565420150757,1014.4565420150757,1014.4565420150757,1014.4565420150757,1014.4565420150757,1014.4565420150757,1016.3077657222748,1,1.9865777492523193,None,,,,,,,,,,,,,,,,,,214,5,2025-03-07_10h53.51.615,comp,2024.2.4,60.05048227321991,2025-03-07 10h53.59.634753 -0500,
122,122,0,filler_square,None,None,None,None,None,None,None,None,None,None,1,4.283624887466431,None,,,,,0,0,0,0,0,122,122,173,1016.323150396347,,,,,,,,,,,,,,,,,,,,,,,,,,,,,,,,,,,,,,,,,,,,,,,,,,,,,,,,,,,,,,,,,,,,,,,,,,,,,,,,,107.16418342553646,107.16418342553646,85.28553638578984,63.77667061379053,105.79749708616433,78.3664744110736,4.0,4.1,-181,-277,0,9,167,-252,1016.3087289333344,1016.30876994133,1016.3112409114838,1016.323150396347,1016.4732210636139,1016.4732210636139,1016.4732210636139,1016.4732210636139,1016.4732210636139,1016.4732210636139,1016.4732210636139,1020.6243290901184,1,4.283624887466431,None,,,,,,,,,,,,,,,,,,214,5,2025-03-07_10h53.51.615,comp,2024.2.4,60.05048227321991,2025-03-07 10h53.59.634753 -0500,
123,123,0,critical,dhw,20.0,2.1,upper,141.0,141.0,200.0,125.0,125.0,200.0,2,10.774818181991577,None,,,,,0,0,0,0,0,123,123,3,1020.639790058136,,,,,,,,,,,,,,,,,,,,,,,,,,,,,,,,,,,,,,,,,,,,,,,,,,,,,,,,,,,,,,,,,,,,,,,,,,,,,,,,,141.0,141.0,200.0,125.0,125.0,200.0,2.1,2.11,-229,274,0,272,258,-279,1020.6251339912415,1020.6251766681671,1020.6284856796265,1020.639790058136,1020.7900669574738,1020.7900669574738,1020.7900669574738,1020.7900669574738,1020.7900669574738,1020.7900669574738,1020.7900669574738,1031.424548149109,2,10.774818181991577,None,,,,,,,,,,,,,,,,,,214,5,2025-03-07_10h53.51.615,comp,2024.2.4,60.05048227321991,2025-03-07 10h53.59.634753 -0500,
124,124,0,filler_square,None,None,None,None,None,None,None,None,None,None,2,1.6775901317596436,None,,,,,0,0,0,0,0,124,124,193,1031.4400074481964,,,,,,,,,,,,,,,,,,,,,,,,,,,,,,,,,,,,,,,,,,,,,,,,,,,,,,,,,,,,,,,,,,,,,,,,,,,,,,,,,64.30064541303761,127.24082738844727,156.65821914166048,156.65821914166048,82.40542271720656,64.14509374273142,1.0,1.3,242,-268,480,-271,686,-268,1031.4255187511444,1031.4255630970001,1031.4276912212372,1031.4400074481964,1031.5897779464722,1031.5897779464722,1031.5897779464722,1031.5897779464722,1031.5897779464722,1031.5897779464722,1031.5897779464722,1033.1243572235107,2,1.6775901317596436,None,,,,,,,,,,,,,,,,,,214,5,2025-03-07_10h53.51.615,comp,2024.2.4,60.05048227321991,2025-03-07 10h53.59.634753 -0500,
125,125,0,critical,wdh,35.0,2.1,lower,57.0,133.0,70.0,70.0,133.0,57.0,3,14.699898481369019,None,,,,,0,0,0,0,0,125,125,32,1033.1399488449097,,,,,,,,,,,,,,,,,,,,,,,,,,,,,,,,,,,,,,,,,,,,,,,,,,,,,,,,,,,,,,,,,,,,,,,,,,,,,,,,,57.0,133.0,70.0,70.0,133.0,57.0,2.1,2.12,-198,-287,0,-269,160,282,1033.1251509189606,1033.1251933574677,1033.1275527477264,1033.1399488449097,1033.289809703827,1033.289809703827,1033.289809703827,1033.289809703827,1033.289809703827,1033.289809703827,1033.289809703827,1047.8410935401917,3,14.699898481369019,None,,,,,,,,,,,,,,,,,,214,5,2025-03-07_10h53.51.615,comp,2024.2.4,60.05048227321991,2025-03-07 10h53.59.634753 -0500,
126,126,0,catch,None,None,None,None,None,None,None,None,None,None,2,2.084110975265503,None,,,,,0,0,0,0,0,126,126,129,1047.8566224575043,,,,,,,,,,,,,,,,,,,,,,,,,,,,,,,,,,,,,,,,,,,,,,,,,,,,,,,,,,,,,,,,,,,,,,,,,,,,,,,,,121,69,156,169,91,99,3.0,3.2,-215,-276,0,4,230,257,1047.8421494960785,1047.8421938419342,1047.8447499275208,1047.8566224575043,1048.006583929062,1048.006583929062,1048.006583929062,1048.006583929062,1048.006583929062,1048.006583929062,1048.006583929062,1049.9574739933014,2,2.084110975265503,None,,,,,,,,,,,,,,,,,,214,5,2025-03-07_10h53.51.615,comp,2024.2.4,60.05048227321991,2025-03-07 10h53.59.634753 -0500,
127,127,0,filler_random,None,None,None,None,None,None,None,None,None,None,1,2.5606982707977295,None,,,,,0,0,0,0,0,127,127,166,1049.9728362560272,,,,,,,,,,,,,,,,,,,,,,,,,,,,,,,,,,,,,,,,,,,,,,,,,,,,,,,,,,,,,,,,,,,,,,,,,,,,,,,,,147.6969863328525,144.7834060842767,88.89459935925603,178.99971336689245,104.40258636000598,83.96308184261147,4.0,4.2,-258,-3,0,-275,227,18,1049.9583871364594,1049.9584300518036,1049.960774898529,1049.9728362560272,1050.1229708194733,1050.1229708194733,1050.1229708194733,1050.1229708194733,1050.1229708194733,1050.1229708194733,1050.1229708194733,1052.540751695633,1,2.5606982707977295,None,,,,,,,,,,,,,,,,,,214,5,2025-03-07_10h53.51.615,comp,2024.2.4,60.05048227321991,2025-03-07 10h53.59.634753 -0500,
128,128,0,critical,hwd,35.0,2.1,upper,200.0,125.0,125.0,200.0,127.0,127.0,2,3.433629035949707,None,,,,,0,0,0,0,0,128,128,41,1052.5564079284668,,,,,,,,,,,,,,,,,,,,,,,,,,,,,,,,,,,,,,,,,,,,,,,,,,,,,,,,,,,,,,,,,,,,,,,,,,,,,,,,,200.0,125.0,125.0,200.0,127.0,127.0,2.1,2.11,-258,257,0,287,260,-268,1052.541527748108,1052.5415692329407,1052.5440094470978,1052.5564079284668,1052.7068927288055,1052.7068927288055,1052.7068927288055,1052.7068927288055,1052.7068927288055,1052.7068927288055,1052.7068927288055,1056.007548570633,2,3.433629035949707,None,,,,,,,,,,,,,,,,,,214,5,2025-03-07_10h53.51.615,comp,2024.2.4,60.05048227321991,2025-03-07 10h53.59.634753 -0500,
129,129,0,critical,hwd,35.0,4.0,upper,200.0,125.0,125.0,200.0,127.0,127.0,2,3.438084840774536,None,,,,,0,0,0,0,0,129,129,101,1056.0228288173676,,,,,,,,,,,,,,,,,,,,,,,,,,,,,,,,,,,,,,,,,,,,,,,,,,,,,,,,,,,,,,,,,,,,,,,,,,,,,,,,,200.0,125.0,125.0,200.0,127.0,127.0,4.0,4.2,-258,14,0,-262,260,-15,1056.0082919597626,1056.008333683014,1056.0116279125214,1056.0228288173676,1056.1730947494507,1056.1730947494507,1056.1730947494507,1056.1730947494507,1056.1730947494507,1056.1730947494507,1056.1730947494507,1059.4741954803467,2,3.438084840774536,None,,,,,,,,,,,,,,,,,,214,5,2025-03-07_10h53.51.615,comp,2024.2.4,60.05048227321991,2025-03-07 10h53.59.634753 -0500,
130,130,0,catch,None,None,None,None,None,None,None,None,None,None,3,2.2762629985809326,None,,,,,0,0,0,0,0,130,130,128,1059.4894053936005,,,,,,,,,,,,,,,,,,,,,,,,,,,,,,,,,,,,,,,,,,,,,,,,,,,,,,,,,,,,,,,,,,,,,,,,,,,,,,,,,63,127,63,127,170,155,2.2,2.21,-223,-266,0,264,237,251,1059.4752662181854,1059.475308895111,1059.4778997898102,1059.4894053936005,1059.639690876007,1059.639690876007,1059.639690876007,1059.639690876007,1059.639690876007,1059.639690876007,1059.639690876007,1061.7741899490356,3,2.2762629985809326,None,,,,,,,,,,,,,,,,,,214,5,2025-03-07_10h53.51.615,comp,2024.2.4,60.05048227321991,2025-03-07 10h53.59.634753 -0500,
131,131,0,critical,hdw,20.0,2.1,lower,133.0,57.0,78.0,78.0,57.0,133.0,1,3.527634620666504,None,,,,,0,0,0,0,0,131,131,46,1061.7897503376007,,,,,,,,,,,,,,,,,,,,,,,,,,,,,,,,,,,,,,,,,,,,,,,,,,,,,,,,,,,,,,,,,,,,,,,,,,,,,,,,,133.0,57.0,78.0,78.0,57.0,133.0,2.1,2.11,-164,287,0,256,202,-253,1061.7749648094177,1061.775004863739,1061.777553319931,1061.7897503376007,1061.939490556717,1061.939490556717,1061.939490556717,1061.939490556717,1061.939490556717,1061.939490556717,1061.939490556717,1065.3241045475006,1,3.527634620666504,None,,,,,,,,,,,,,,,,,,214,5,2025-03-07_10h53.51.615,comp,2024.2.4,60.05048227321991,2025-03-07 10h53.59.634753 -0500,
132,132,0,filler_random,None,None,None,None,None,None,None,None,None,None,1,1.3940460681915283,None,,,,,0,0,0,0,0,132,132,134,1065.3397278785706,,,,,,,,,,,,,,,,,,,,,,,,,,,,,,,,,,,,,,,,,,,,,,,,,,,,,,,,,,,,,,,,,,,,,,,,,,,,,,,,,156.98607417240055,133.55420437933088,57.15110022963717,120.82649303354586,99.01731311003121,85.99170005552338,2.1,2.11,-223,253,0,280,199,-269,1065.3250360488892,1065.3250794410706,1065.3276236057281,1065.3397278785706,1065.4895660877228,1065.4895660877228,1065.4895660877228,1065.4895660877228,1065.4895660877228,1065.4895660877228,1065.4895660877228,1066.7407236099243,1,1.3940460681915283,None,,,,,,,,,,,,,,,,,,214,5,2025-03-07_10h53.51.615,comp,2024.2.4,60.05048227321991,2025-03-07 10h53.59.634753 -0500,
133,133,0,filler_random,None,None,None,None,None,None,None,None,None,None,1,2.0336573123931885,None,,,,,0,0,0,0,0,133,133,147,1066.7563378810883,,,,,,,,,,,,,,,,,,,,,,,,,,,,,,,,,,,,,,,,,,,,,,,,,,,,,,,,,,,,,,,,,,,,,,,,,,,,,,,,,194.20626085922152,154.20465074944582,146.5107999812338,103.554918750661,174.80049493128377,118.38702091468141,1.0,1.2,-225,-15,0,18,207,11,1066.7416019439697,1066.7416429519653,1066.7441120147705,1066.7563378810883,1066.9064033031464,1066.9064033031464,1066.9064033031464,1066.9064033031464,1066.9064033031464,1066.9064033031464,1066.9064033031464,1068.8075637817383,1,2.0336573123931885,None,,,,,,,,,,,,,,,,,,214,5,2025-03-07_10h53.51.615,comp,2024.2.4,60.05048227321991,2025-03-07 10h53.59.634753 -0500,
134,134,0,critical,dwh,35.0,4.0,lower,70.0,70.0,57.0,133.0,133.0,57.0,2,4.958665609359741,None,,,,,0,0,0,0,0,134,134,64,1068.822806596756,,,,,,,,,,,,,,,,,,,,,,,,,,,,,,,,,,,,,,,,,,,,,,,,,,,,,,,,,,,,,,,,,,,,,,,,,,,,,,,,,70.0,70.0,57.0,133.0,133.0,57.0,4.0,4.1,-198,-274,0,17,191,-253,1068.8083307743073,1068.8083851337433,1068.8104701042175,1068.822806596756,1068.9728808403015,1068.9728808403015,1068.9728808403015,1068.9728808403015,1068.9728808403015,1068.9728808403015,1068.9728808403015,1073.7904500961304,2,4.958665609359741,None,,,,,,,,,,,,,,,,,,214,5,2025-03-07_10h53.51.615,comp,2024.2.4,60.05048227321991,2025-03-07 10h53.59.634753 -0500,
135,135,0,critical,dwh,20.0,2.1,upper,141.0,141.0,125.0,200.0,200.0,125.0,2,4.51112699508667,None,,,,,0,0,0,0,0,135,135,31,1073.8062009811401,,,,,,,,,,,,,,,,,,,,,,,,,,,,,,,,,,,,,,,,,,,,,,,,,,,,,,,,,,,,,,,,,,,,,,,,,,,,,,,,,141.0,141.0,125.0,200.0,200.0,125.0,2.1,2.12,-266,-260,0,-250,258,255,1073.7912607192993,1073.7913036346436,1073.7936215400696,1073.8062009811401,1073.9563953876495,1073.9563953876495,1073.9563953876495,1073.9563953876495,1073.9563953876495,1073.9563953876495,1073.9563953876495,1078.3241295814514,2,4.51112699508667,None,,,,,,,,,,,,,,,,,,214,5,2025-03-07_10h53.51.615,comp,2024.2.4,60.05048227321991,2025-03-07 10h53.59.634753 -0500,
136,136,0,critical,dhw,20.0,2.1,lower,78.0,78.0,133.0,57.0,57.0,133.0,3,2.704855442047119,None,,,,,0,0,0,0,0,136,136,26,1078.3395500183105,,,,,,,,,,,,,,,,,,,,,,,,,,,,,,,,,,,,,,,,,,,,,,,,,,,,,,,,,,,,,,,,,,,,,,,,,,,,,,,,,78.0,78.0,133.0,57.0,57.0,133.0,2.1,2.12,-164,-289,0,-286,191,268,1078.3249127864838,1078.3249549865723,1078.3274421691895,1078.3395500183105,1078.4892883300781,1078.4892883300781,1078.4892883300781,1078.4892883300781,1078.4892883300781,1078.4892883300781,1078.4892883300781,1081.0572357177734,3,2.704855442047119,None,,,,,,,,,,,,,,,,,,214,5,2025-03-07_10h53.51.615,comp,2024.2.4,60.05048227321991,2025-03-07 10h53.59.634753 -0500,
137,137,0,filler_random,None,None,None,None,None,None,None,None,None,None,3,1.9664108753204346,None,,,,,0,0,0,0,0,137,137,160,1081.0727076530457,,,,,,,,,,,,,,,,,,,,,,,,,,,,,,,,,,,,,,,,,,,,,,,,,,,,,,,,,,,,,,,,,,,,,,,,,,,,,,,,,132.42939586862587,96.67633580060824,107.06542207332973,126.15149605107042,90.35959620583276,171.73268140511613,2.2,2.21,-207,-290,0,273,245,277,1081.0581438541412,1081.0581858158112,1081.060765504837,1081.0727076530457,1081.223084449768,1081.223084449768,1081.223084449768,1081.223084449768,1081.223084449768,1081.223084449768,1081.223084449768,1083.0574479103088,3,1.9664108753204346,None,,,,,,,,,,,,,,,,,,214,5,2025-03-07_10h53.51.615,comp,2024.2.4,60.05048227321991,2025-03-07 10h53.59.634753 -0500,
138,138,0,filler_random,None,None,None,None,None,None,None,None,None,None,3,3.8443093299865723,None,,,,,0,0,0,0,0,138,138,169,1083.0728647708893,,,,,,,,,,,,,,,,,,,,,,,,,,,,,,,,,,,,,,,,,,,,,,,,,,,,,,,,,,,,,,,,,,,,,,,,,,,,,,,,,63.08537803857922,60.69951896558349,122.37811978200261,110.3131144008797,131.01518225676867,153.1690402635793,3.0,3.1,-182,266,0,-19,228,-256,1083.0583326816559,1083.0583906173706,1083.0608048439026,1083.0728647708893,1083.2232449054718,1083.2232449054718,1083.2232449054718,1083.2232449054718,1083.2232449054718,1083.2232449054718,1083.2232449054718,1086.9238369464874,3,3.8443093299865723,None,,,,,,,,,,,,,,,,,,214,5,2025-03-07_10h53.51.615,comp,2024.2.4,60.05048227321991,2025-03-07 10h53.59.634753 -0500,
139,139,0,critical,dhw,20.0,4.0,upper,141.0,141.0,200.0,125.0,125.0,200.0,2,2.4671919345855713,None,,,,,0,0,0,0,0,139,139,59,1086.9395706653595,,,,,,,,,,,,,,,,,,,,,,,,,,,,,,,,,,,,,,,,,,,,,,,,,,,,,,,,,,,,,,,,,,,,,,,,,,,,,,,,,141.0,141.0,200.0,125.0,125.0,200.0,4.0,4.2,-229,-16,0,-271,258,9,1086.9246385097504,1086.9246816635132,1086.9270839691162,1086.9395706653595,1087.0896677970886,1087.0896677970886,1087.0896677970886,1087.0896677970886,1087.0896677970886,1087.0896677970886,1087.0896677970886,1089.4239602088928,2,2.4671919345855713,None,,,,,,,,,,,,,,,,,,214,5,2025-03-07_10h53.51.615,comp,2024.2.4,60.05048227321991,2025-03-07 10h53.59.634753 -0500,
140,140,0,catch,None,None,None,None,None,None,None,None,None,None,1,1.3099946975708008,None,,,,,0,0,0,0,0,140,140,125,1089.4392275810242,,,,,,,,,,,,,,,,,,,,,,,,,,,,,,,,,,,,,,,,,,,,,,,,,,,,,,,,,,,,,,,,,,,,,,,,,,,,,,,,,145,180,78,112,99,91,3.0,3.1,-242,270,0,10,198,-282,1089.42502784729,1089.4250707626343,1089.427788734436,1089.4392275810242,1089.5893998146057,1089.5893998146057,1089.5893998146057,1089.5893998146057,1089.5893998146057,1089.5893998146057,1089.5893998146057,1090.7579190731049,1,1.3099946975708008,None,,,,,,,,,,,,,,,,,,214,5,2025-03-07_10h53.51.615,comp,2024.2.4,60.05048227321991,2025-03-07 10h53.59.634753 -0500,
