thisN,thisTrialN,thisRepN,effect,order,distance,config,diag,h_1,w_1,h_2,w_2,h_3,w_3,rect_choice.keys,rect_choice.rt,rect_choice.duration,instructions_loop.thisRepN,instructions_loop.thisTrialN,instructions_loop.thisN,instructions_loop.thisIndex,blocks.thisRepN,blocks.thisTrialN,blocks.thisN,blocks.thisIndex,trials.thisRepN,trials.thisTrialN,trials.thisN,trials.thisIndex,thisRow.t,notes,consent.started,agree_button.started,decline_button.started,consent_img.started,mouse.started,consent.stopped,agree_button.numClicks,agree_button.timesOn,agree_button.timesOff,decline_button.numClicks,decline_button.timesOn,decline_button.timesOff,mouse.x,mouse.y,mouse.leftButton,mouse.midButton,mouse.rightButton,mouse.time,mouse.clicked_name,exp_params.started,exp_params.stopped,welcome.started,welcome_text.started,welcome.stopped,instructions_1.started,instructions_1_text_1.started,instructions_1_text_2.started,key_resp.started,instructions_1.stopped,instructions_loop.key_resp.keys,instructions_loop.key_resp.rt,instructions_loop.key_resp.duration,instructions_2.started,instructions_2_text_1.started,instructions_2_text_2.started,key_resp_2.started,instructions_2.stopped,instructions_loop.key_resp_2.keys,instructions_loop.key_resp_2.rt,instructions_loop.key_resp_2.duration,instructions_3.started,instructions_3_text_1.started,r1_instr3.started,r2_instr3.started,r3_instr3.started,r1_instr3_label.started,r2_instr3_label.started,r3_instr3_label.started,instructions_3_text_3.started,instructions_3_text_4.started,key_resp_3.started,instructions_3.stopped,instructions_loop.key_resp_3.keys,instructions_loop.key_resp_3.rt,instructions_loop.key_resp_3.duration,instructions_4.started,instructions_4_text_1.started,instructions_4_text_3.started,instructions_4_text_2.started,key_resp_4.started,instructions_4.stopped,instructions_loop.key_resp_4.keys,instructions_loop.key_resp_4.rt,instructions_loop.key_resp_4.duration,instructions_5.started,instructions_5_text_1.started,instructions_5_text_2.started,key_resp_5.started,instructions_5.stopped,instructions_loop.key_resp_5.keys,instructions_loop.key_resp_5.rt,instructions_loop.key_resp_5.duration,start_exp.started,start_exp_text.started,key_resp_6.started,start_exp.stopped,key_resp_6.keys,key_resp_6.rt,key_resp_6.duration,h_1_tmp,w_1_tmp,h_2_tmp,w_2_tmp,h_3_tmp,w_3_tmp,config_tmp,config_tmp_1,r_1_x,r_1_y,r_2_x,r_2_y,r_3_x,r_3_y,pre_trial.started,pre_trial.stopped,choice_trial.started,rect_choice.started,r_1.started,r_2.started,r_3.started,r_1_label.started,r_2_label.started,r_3_label.started,prompt.started,choice_trial.stopped,trials.rect_choice.keys,trials.rect_choice.rt,trials.rect_choice.duration,end_block.started,end_block_text.started,end_block.stopped,end.started,end_text.started,key_resp_7.started,end.stopped,key_resp_7.keys,key_resp_7.rt,key_resp_7.duration,debriefing.started,debrief_form.started,end_debrief.started,debriefing.stopped,end_debrief.keys,end_debrief.rt,end_debrief.duration,participant,computer,date,expName,psychopyVersion,frameRate,expStart,
,,,,,,,,,,,,,,,,,,,,,,,,,,,,,,,0.014713525772094727,0.08849215507507324,0.08849215507507324,0.08849215507507324,0.014522075653076172,31.833132028579712,1,[31.742018938064575],[31.7420437335968],0,,,[-74.0],[-498.0],[1],[0],[0],[31.801218271255493],['agree_button'],,,,,,,,,,,,,,,,,,,,,,,,,,,,,,,,,,,,,,,,,,,,,,,,,,,,,,,,,,,,,,,,,,,,,,,,,,,,,,,,,,,,,,,,,,,,,,,,,,,,,,,,,,,215,6,2025-03-06_14h46.17.583,comp,2024.2.4,45.67197398824419,2025-03-07 10h55.48.826991 -0500,
,,,,,,,,,,,,,,,,,,,,,,,,,,,,,,,,,,,,,,,,,,,,,,,,,,31.833704710006714,31.833795309066772,,,,,,,,,,,,,,,,,,,,,,,,,,,,,,,,,,,,,,,,,,,,,,,,,,,,,,,,,,,,,,,,,,,,,,,,,,,,,,,,,,,,,,,,,,,,,,,,,,,,,,,,,215,6,2025-03-06_14h46.17.583,comp,2024.2.4,45.67197398824419,2025-03-07 10h55.48.826991 -0500,
,,,,,,,,,,,,,,,,,,,,,,,,,,,,,,,,,,,,,,,,,,,,,,,,,,,,31.833842039108276,31.851863384246826,33.844846963882446,,,,,,,,,,,,,,,,,,,,,,,,,,,,,,,,,,,,,,,,,,,,,,,,,,,,,,,,,,,,,,,,,,,,,,,,,,,,,,,,,,,,,,,,,,,,,,,,,,,,,,215,6,2025-03-06_14h46.17.583,comp,2024.2.4,45.67197398824419,2025-03-07 10h55.48.826991 -0500,
0,0,0,,,,,,,,,,,,,,,0,0,0,0,,,,,,,,,33.86185669898987,,,,,,,,,,,,,,,,,,,,,,,,,,33.84595775604248,33.86185669898987,33.86185669898987,35.33252239227295,37.68257236480713,space,2.3393795490264893,None,37.682716846466064,37.69953012466431,37.69953012466431,39.18096709251404,45.63288402557373,space,6.448484659194946,None,45.633037090301514,45.68059587478638,45.68059587478638,45.68059587478638,45.68059587478638,45.68059587478638,45.68059587478638,45.68059587478638,45.68059587478638,45.68059587478638,47.137898206710815,51.23169302940369,space,4.0754008293151855,None,51.2318971157074,51.25186467170715,51.25186467170715,51.25186467170715,52.737669706344604,58.18824005126953,space,5.435606956481934,None,58.1884069442749,58.20327305793762,58.20327305793762,59.70612859725952,62.40639686584473,space,2.691709518432617,None,62.40659737586975,62.421308279037476,62.421308279037476,63.73034930229187,space,1.2962281703948975,None,,,,,,,,,,,,,,,,,,,,,,,,,,,,,,,,,,,,,,,,,,,,,,,215,6,2025-03-06_14h46.17.583,comp,2024.2.4,45.67197398824419,2025-03-07 10h55.48.826991 -0500,
0,0,0,critical,dhw,20.0,1.0,upper,141.0,141.0,200.0,125.0,125.0,200.0,2,6.40574836730957,None,,,,,0,0,0,0,0,0,0,55,63.92919683456421,,,,,,,,,,,,,,,,,,,,,,,,,,,,,,,,,,,,,,,,,,,,,,,,,,,,,,,,,,,,,,,,,,,,,,,,,,,,,,,,,141.0,141.0,200.0,125.0,125.0,200.0,1.0,1.1,-709,281,-480,271,-222,260,63.90981936454773,63.9099018573761,63.91330122947693,63.92919683456421,64.08145809173584,64.08145809173584,64.08145809173584,64.08145809173584,64.08145809173584,64.08145809173584,64.08145809173584,70.34070324897766,2,6.40574836730957,None,,,,,,,,,,,,,,,,,,215,6,2025-03-06_14h46.17.583,comp,2024.2.4,45.67197398824419,2025-03-07 10h55.48.826991 -0500,
1,1,0,filler_square,None,None,None,None,None,None,None,None,None,None,2,9.359960794448853,None,,,,,0,0,0,0,0,1,1,171,70.35736989974976,,,,,,,,,,,,,,,,,,,,,,,,,,,,,,,,,,,,,,,,,,,,,,,,,,,,,,,,,,,,,,,,,,,,,,,,,,,,,,,,,114.9774356255254,107.26290281021713,118.84384720648102,118.84384720648102,116.3901689514768,59.04415168147955,4.0,4.1,-209,-252,0,-7,185,-270,70.34253001213074,70.34261012077332,70.34584522247314,70.35736989974976,70.51097083091736,70.51097083091736,70.51097083091736,70.51097083091736,70.51097083091736,70.51097083091736,70.51097083091736,79.72084903717041,2,9.359960794448853,None,,,,,,,,,,,,,,,,,,215,6,2025-03-06_14h46.17.583,comp,2024.2.4,45.67197398824419,2025-03-07 10h55.48.826991 -0500,
2,2,0,filler_random,None,None,None,None,None,None,None,None,None,None,3,11.169063091278076,None,,,,,0,0,0,0,0,2,2,163,79.74051022529602,,,,,,,,,,,,,,,,,,,,,,,,,,,,,,,,,,,,,,,,,,,,,,,,,,,,,,,,,,,,,,,,,,,,,,,,,,,,,,,,,85.86112461007045,121.39538280475634,160.40356631368036,83.24346690674061,95.78523639173375,125.128550220273,2.1,2.12,-198,-265,0,-285,200,285,79.72261357307434,79.72269177436829,79.72586560249329,79.74051022529602,79.8798348903656,79.8798348903656,79.8798348903656,79.8798348903656,79.8798348903656,79.8798348903656,79.8798348903656,90.91363167762756,3,11.169063091278076,None,,,,,,,,,,,,,,,,,,215,6,2025-03-06_14h46.17.583,comp,2024.2.4,45.67197398824419,2025-03-07 10h55.48.826991 -0500,
3,3,0,catch,None,None,None,None,None,None,None,None,None,None,1,2.690232992172241,None,,,,,0,0,0,0,0,3,3,121,90.93104410171509,,,,,,,,,,,,,,,,,,,,,,,,,,,,,,,,,,,,,,,,,,,,,,,,,,,,,,,,,,,,,,,,,,,,,,,,,,,,,,,,,181,144,83,107,127,63,2.1,2.12,-222,-252,0,-277,181,288,90.91591596603394,90.91599225997925,90.91943264007568,90.93104410171509,91.08456873893738,91.08456873893738,91.08456873893738,91.08456873893738,91.08456873893738,91.08456873893738,91.08456873893738,93.63608431816101,1,2.690232992172241,None,,,,,,,,,,,,,,,,,,215,6,2025-03-06_14h46.17.583,comp,2024.2.4,45.67197398824419,2025-03-07 10h55.48.826991 -0500,
4,4,0,critical,dwh,35.0,4.0,upper,127.0,127.0,125.0,200.0,200.0,125.0,2,4.200709581375122,None,,,,,0,0,0,0,0,4,4,65,93.65243768692017,,,,,,,,,,,,,,,,,,,,,,,,,,,,,,,,,,,,,,,,,,,,,,,,,,,,,,,,,,,,,,,,,,,,,,,,,,,,,,,,,127.0,127.0,125.0,200.0,200.0,125.0,4.0,4.2,-260,-4,0,-276,258,9,93.63811254501343,93.63818836212158,93.64131331443787,93.65243768692017,93.79939222335815,93.79939222335815,93.79939222335815,93.79939222335815,93.79939222335815,93.79939222335815,93.79939222335815,97.86939597129822,2,4.200709581375122,None,,,,,,,,,,,,,,,,,,215,6,2025-03-06_14h46.17.583,comp,2024.2.4,45.67197398824419,2025-03-07 10h55.48.826991 -0500,
5,5,0,critical,dhw,35.0,2.1,lower,70.0,70.0,133.0,57.0,57.0,133.0,3,7.031674861907959,None,,,,,0,0,0,0,0,5,5,24,97.88576602935791,,,,,,,,,,,,,,,,,,,,,,,,,,,,,,,,,,,,,,,,,,,,,,,,,,,,,,,,,,,,,,,,,,,,,,,,,,,,,,,,,70.0,70.0,133.0,57.0,57.0,133.0,2.1,2.11,-160,263,0,280,191,-283,97.87111043930054,97.87119507789612,97.87484931945801,97.88576602935791,98.0324056148529,98.0324056148529,98.0324056148529,98.0324056148529,98.0324056148529,98.0324056148529,98.0324056148529,104.93554019927979,3,7.031674861907959,None,,,,,,,,,,,,,,,,,,215,6,2025-03-06_14h46.17.583,comp,2024.2.4,45.67197398824419,2025-03-07 10h55.48.826991 -0500,
6,6,0,critical,hdw,20.0,4.0,lower,133.0,57.0,78.0,78.0,57.0,133.0,3,6.537699937820435,None,,,,,0,0,0,0,0,6,6,118,104.95501351356506,,,,,,,,,,,,,,,,,,,,,,,,,,,,,,,,,,,,,,,,,,,,,,,,,,,,,,,,,,,,,,,,,,,,,,,,,,,,,,,,,133.0,57.0,78.0,78.0,57.0,133.0,4.0,4.1,-164,-268,0,4,202,-276,104.93719816207886,104.93728685379028,104.94088220596313,104.95501351356506,105.10223484039307,105.10223484039307,105.10223484039307,105.10223484039307,105.10223484039307,105.10223484039307,105.10223484039307,111.50248694419861,3,6.537699937820435,None,,,,,,,,,,,,,,,,,,215,6,2025-03-06_14h46.17.583,comp,2024.2.4,45.67197398824419,2025-03-07 10h55.48.826991 -0500,
7,7,0,critical,whd,35.0,3.0,upper,125.0,200.0,200.0,125.0,127.0,127.0,2,8.383272886276245,None,,,,,0,0,0,0,0,7,7,87,111.51864242553711,,,,,,,,,,,,,,,,,,,,,,,,,,,,,,,,,,,,,,,,,,,,,,,,,,,,,,,,,,,,,,,,,,,,,,,,,,,,,,,,,125.0,200.0,200.0,125.0,127.0,127.0,3.0,3.1,-258,253,0,-17,222,-272,111.5040647983551,111.50413608551025,111.50691413879395,111.51864242553711,111.65814900398254,111.65814900398254,111.65814900398254,111.65814900398254,111.65814900398254,111.65814900398254,111.65814900398254,119.91064071655273,2,8.383272886276245,None,,,,,,,,,,,,,,,,,,215,6,2025-03-06_14h46.17.583,comp,2024.2.4,45.67197398824419,2025-03-07 10h55.48.826991 -0500,
8,8,0,critical,hwd,35.0,3.0,upper,200.0,125.0,125.0,200.0,127.0,127.0,1,3.2327001094818115,None,,,,,0,0,0,0,0,8,8,99,119.93243956565857,,,,,,,,,,,,,,,,,,,,,,,,,,,,,,,,,,,,,,,,,,,,,,,,,,,,,,,,,,,,,,,,,,,,,,,,,,,,,,,,,200.0,125.0,125.0,200.0,127.0,127.0,3.0,3.1,-258,286,0,-8,260,-263,119.91257095336914,119.91265225410461,119.91673588752747,119.93243956565857,120.08029794692993,120.08029794692993,120.08029794692993,120.08029794692993,120.08029794692993,120.08029794692993,120.08029794692993,123.17507076263428,1,3.2327001094818115,None,,,,,,,,,,,,,,,,,,215,6,2025-03-06_14h46.17.583,comp,2024.2.4,45.67197398824419,2025-03-07 10h55.48.826991 -0500,
9,9,0,filler_square,None,None,None,None,None,None,None,None,None,None,2,5.222114086151123,None,,,,,0,0,0,0,0,9,9,188,123.1912350654602,,,,,,,,,,,,,,,,,,,,,,,,,,,,,,,,,,,,,,,,,,,,,,,,,,,,,,,,,,,,,,,,,,,,,,,,,,,,,,,,,70.2774497102595,77.54751193178558,87.31227697806972,87.31227697806972,67.50323105337796,74.09713290821712,3.0,3.2,-178,-281,0,2,177,264,123.17688536643982,123.17696404457092,123.1803617477417,123.1912350654602,123.34098482131958,123.34098482131958,123.34098482131958,123.34098482131958,123.34098482131958,123.34098482131958,123.34098482131958,128.42805576324463,2,5.222114086151123,None,,,,,,,,,,,,,,,,,,215,6,2025-03-06_14h46.17.583,comp,2024.2.4,45.67197398824419,2025-03-07 10h55.48.826991 -0500,
10,10,0,filler_square,None,None,None,None,None,None,None,None,None,None,1,2.601388931274414,None,,,,,0,0,0,0,0,10,10,175,128.4438121318817,,,,,,,,,,,,,,,,,,,,,,,,,,,,,,,,,,,,,,,,,,,,,,,,,,,,,,,,,,,,,,,,,,,,,,,,,,,,,,,,,105.26019293626165,105.26019293626165,97.34935113653832,82.51829905143376,78.10740379755315,83.11362932461111,2.2,2.22,-190,258,0,-268,179,-272,128.4299247264862,128.43000268936157,128.43346309661865,128.4438121318817,128.59752249717712,128.59752249717712,128.59752249717712,128.59752249717712,128.59752249717712,128.59752249717712,128.59752249717712,131.0614151954651,1,2.601388931274414,None,,,,,,,,,,,,,,,,,,215,6,2025-03-06_14h46.17.583,comp,2024.2.4,45.67197398824419,2025-03-07 10h55.48.826991 -0500,
11,11,0,critical,hwd,35.0,2.1,upper,200.0,125.0,125.0,200.0,127.0,127.0,2,8.576623439788818,None,,,,,0,0,0,0,0,11,11,17,131.07713770866394,,,,,,,,,,,,,,,,,,,,,,,,,,,,,,,,,,,,,,,,,,,,,,,,,,,,,,,,,,,,,,,,,,,,,,,,,,,,,,,,,200.0,125.0,125.0,200.0,127.0,127.0,2.1,2.12,-258,-287,0,-261,260,262,131.06298828125,131.06306219100952,131.0668444633484,131.07713770866394,131.2262840270996,131.2262840270996,131.2262840270996,131.2262840270996,131.2262840270996,131.2262840270996,131.2262840270996,139.66186213493347,2,8.576623439788818,None,,,,,,,,,,,,,,,,,,215,6,2025-03-06_14h46.17.583,comp,2024.2.4,45.67197398824419,2025-03-07 10h55.48.826991 -0500,
12,12,0,critical,wdh,20.0,3.0,upper,125.0,200.0,141.0,141.0,200.0,125.0,3,4.8781819343566895,None,,,,,0,0,0,0,0,12,12,81,139.67898869514465,,,,,,,,,,,,,,,,,,,,,,,,,,,,,,,,,,,,,,,,,,,,,,,,,,,,,,,,,,,,,,,,,,,,,,,,,,,,,,,,,125.0,200.0,141.0,141.0,200.0,125.0,3.0,3.2,-266,-272,0,-5,229,254,139.6634783744812,139.66355919837952,139.66725611686707,139.67898869514465,139.83056044578552,139.83056044578552,139.83056044578552,139.83056044578552,139.83056044578552,139.83056044578552,139.83056044578552,144.56847071647644,3,4.8781819343566895,None,,,,,,,,,,,,,,,,,,215,6,2025-03-06_14h46.17.583,comp,2024.2.4,45.67197398824419,2025-03-07 10h55.48.826991 -0500,
13,13,0,filler_square,None,None,None,None,None,None,None,None,None,None,3,2.5569701194763184,None,,,,,0,0,0,0,0,13,13,170,144.58506751060486,,,,,,,,,,,,,,,,,,,,,,,,,,,,,,,,,,,,,,,,,,,,,,,,,,,,,,,,,,,,,,,,,,,,,,,,,,,,,,,,,86.18656508405034,68.3989124993491,126.33188174840028,108.89879574271495,144.28432520159006,144.28432520159006,3.0,3.1,-185,258,0,16,223,-254,144.57042503356934,144.57050681114197,144.5739722251892,144.58506751060486,144.7320327758789,144.7320327758789,144.7320327758789,144.7320327758789,144.7320327758789,144.7320327758789,144.7320327758789,147.15089988708496,3,2.5569701194763184,None,,,,,,,,,,,,,,,,,,215,6,2025-03-06_14h46.17.583,comp,2024.2.4,45.67197398824419,2025-03-07 10h55.48.826991 -0500,
14,14,0,critical,dwh,20.0,1.0,lower,78.0,78.0,57.0,133.0,133.0,57.0,3,8.870230674743652,None,,,,,0,0,0,0,0,14,14,66,147.16724824905396,,,,,,,,,,,,,,,,,,,,,,,,,,,,,,,,,,,,,,,,,,,,,,,,,,,,,,,,,,,,,,,,,,,,,,,,,,,,,,,,,78.0,78.0,57.0,133.0,133.0,57.0,1.0,1.3,278,-252,480,-258,671,-284,147.1526234149933,147.15269875526428,147.1563823223114,147.16724824905396,147.31900429725647,147.31900429725647,147.31900429725647,147.31900429725647,147.31900429725647,147.31900429725647,147.31900429725647,156.04206228256226,3,8.870230674743652,None,,,,,,,,,,,,,,,,,,215,6,2025-03-06_14h46.17.583,comp,2024.2.4,45.67197398824419,2025-03-07 10h55.48.826991 -0500,
15,15,0,filler_random,None,None,None,None,None,None,None,None,None,None,3,7.657823801040649,None,,,,,0,0,0,0,0,15,15,141,156.05944514274597,,,,,,,,,,,,,,,,,,,,,,,,,,,,,,,,,,,,,,,,,,,,,,,,,,,,,,,,,,,,,,,,,,,,,,,,,,,,,,,,,94.72436262566622,154.02445343823584,168.9442472464171,92.57105229445347,88.7165985011906,170.11255075436912,2.1,2.11,-219,254,0,279,227,-251,156.04398465156555,156.0440638065338,156.047691822052,156.05944514274597,156.20086145401,156.20086145401,156.20086145401,156.20086145401,156.20086145401,156.20086145401,156.20086145401,163.7210133075714,3,7.657823801040649,None,,,,,,,,,,,,,,,,,,215,6,2025-03-06_14h46.17.583,comp,2024.2.4,45.67197398824419,2025-03-07 10h55.48.826991 -0500,
16,16,0,filler_square,None,None,None,None,None,None,None,None,None,None,3,4.859821081161499,None,,,,,0,0,0,0,0,16,16,185,163.73727083206177,,,,,,,,,,,,,,,,,,,,,,,,,,,,,,,,,,,,,,,,,,,,,,,,,,,,,,,,,,,,,,,,,,,,,,,,,,,,,,,,,58.165463703797656,58.7628151434528,57.66751225924015,57.04148170409812,60.87449686542531,60.87449686542531,1.0,1.3,326,-259,480,-253,635,-261,163.72295594215393,163.7230372428894,163.72652411460876,163.73727083206177,163.8864300251007,163.8864300251007,163.8864300251007,163.8864300251007,163.8864300251007,163.8864300251007,163.8864300251007,168.61017203330994,3,4.859821081161499,None,,,,,,,,,,,,,,,,,,215,6,2025-03-06_14h46.17.583,comp,2024.2.4,45.67197398824419,2025-03-07 10h55.48.826991 -0500,
17,17,0,critical,dhw,35.0,1.0,upper,127.0,127.0,200.0,125.0,125.0,200.0,3,5.312590837478638,None,,,,,0,0,0,0,0,17,17,49,168.62876892089844,,,,,,,,,,,,,,,,,,,,,,,,,,,,,,,,,,,,,,,,,,,,,,,,,,,,,,,,,,,,,,,,,,,,,,,,,,,,,,,,,127.0,127.0,200.0,125.0,125.0,200.0,1.0,1.2,-222,-6,0,-5,258,0,168.61179208755493,168.61187624931335,168.61550641059875,168.62876892089844,168.7734658718109,168.7734658718109,168.7734658718109,168.7734658718109,168.7734658718109,168.7734658718109,168.7734658718109,173.95717096328735,3,5.312590837478638,None,,,,,,,,,,,,,,,,,,215,6,2025-03-06_14h46.17.583,comp,2024.2.4,45.67197398824419,2025-03-07 10h55.48.826991 -0500,
18,18,0,critical,wdh,35.0,2.1,lower,57.0,133.0,70.0,70.0,133.0,57.0,1,2.655653476715088,None,,,,,0,0,0,0,0,18,18,32,173.97348427772522,,,,,,,,,,,,,,,,,,,,,,,,,,,,,,,,,,,,,,,,,,,,,,,,,,,,,,,,,,,,,,,,,,,,,,,,,,,,,,,,,57.0,133.0,70.0,70.0,133.0,57.0,2.1,2.12,-198,-270,0,-284,160,253,173.95887327194214,173.9589719772339,173.96259808540344,173.97348427772522,174.1288502216339,174.1288502216339,174.1288502216339,174.1288502216339,174.1288502216339,174.1288502216339,174.1288502216339,176.64470529556274,1,2.655653476715088,None,,,,,,,,,,,,,,,,,,215,6,2025-03-06_14h46.17.583,comp,2024.2.4,45.67197398824419,2025-03-07 10h55.48.826991 -0500,
19,19,0,filler_square,None,None,None,None,None,None,None,None,None,None,3,2.544119119644165,None,,,,,0,0,0,0,0,19,19,204,176.66110134124756,,,,,,,,,,,,,,,,,,,,,,,,,,,,,,,,,,,,,,,,,,,,,,,,,,,,,,,,,,,,,,,,,,,,,,,,,,,,,,,,,136.260529919435,131.83743942061346,94.45472202488403,141.8940700445566,187.72613492076147,187.72613492076147,2.2,2.22,-233,260,0,-280,261,-262,176.6466977596283,176.64681434631348,176.65085315704346,176.66110134124756,176.8089668750763,176.8089668750763,176.8089668750763,176.8089668750763,176.8089668750763,176.8089668750763,176.8089668750763,179.21002531051636,3,2.544119119644165,None,,,,,,,,,,,,,,,,,,215,6,2025-03-06_14h46.17.583,comp,2024.2.4,45.67197398824419,2025-03-07 10h55.48.826991 -0500,
20,20,0,critical,wdh,20.0,2.1,upper,125.0,200.0,141.0,141.0,200.0,125.0,1,4.922988653182983,None,,,,,0,0,0,0,0,20,20,35,179.226215839386,,,,,,,,,,,,,,,,,,,,,,,,,,,,,,,,,,,,,,,,,,,,,,,,,,,,,,,,,,,,,,,,,,,,,,,,,,,,,,,,,125.0,200.0,141.0,141.0,200.0,125.0,2.1,2.12,-266,-251,0,-262,229,272,179.2116072177887,179.211683511734,179.21500444412231,179.226215839386,179.3756139278412,179.3756139278412,179.3756139278412,179.3756139278412,179.3756139278412,179.3756139278412,179.3756139278412,184.16460871696472,1,4.922988653182983,None,,,,,,,,,,,,,,,,,,215,6,2025-03-06_14h46.17.583,comp,2024.2.4,45.67197398824419,2025-03-07 10h55.48.826991 -0500,
21,21,0,catch,None,None,None,None,None,None,None,None,None,None,3,2.160374879837036,None,,,,,0,0,0,0,0,21,21,125,184.18089771270752,,,,,,,,,,,,,,,,,,,,,,,,,,,,,,,,,,,,,,,,,,,,,,,,,,,,,,,,,,,,,,,,,,,,,,,,,,,,,,,,,78,112,128,62,184,141,4.0,4.2,-183,17,0,-253,198,8,184.1667981147766,184.16687655448914,184.17062282562256,184.18089771270752,184.3327934741974,184.3327934741974,184.3327934741974,184.3327934741974,184.3327934741974,184.3327934741974,184.3327934741974,186.34521412849426,3,2.160374879837036,None,,,,,,,,,,,,,,,,,,215,6,2025-03-06_14h46.17.583,comp,2024.2.4,45.67197398824419,2025-03-07 10h55.48.826991 -0500,
22,22,0,filler_square,None,None,None,None,None,None,None,None,None,None,2,6.5711681842803955,None,,,,,0,0,0,0,0,22,22,182,186.36207938194275,,,,,,,,,,,,,,,,,,,,,,,,,,,,,,,,,,,,,,,,,,,,,,,,,,,,,,,,,,,,,,,,,,,,,,,,,,,,,,,,,111.46031773300786,123.81641259880267,154.7931845336782,154.7931845336782,151.74048617681842,140.79780958401966,1.0,1.2,-235,17,0,-17,244,-3,186.34704208374023,186.34712171554565,186.3513514995575,186.36207938194275,186.50791239738464,186.50791239738464,186.50791239738464,186.50791239738464,186.50791239738464,186.50791239738464,186.50791239738464,192.94591617584229,2,6.5711681842803955,None,,,,,,,,,,,,,,,,,,215,6,2025-03-06_14h46.17.583,comp,2024.2.4,45.67197398824419,2025-03-07 10h55.48.826991 -0500,
23,23,0,critical,dhw,35.0,2.1,upper,127.0,127.0,200.0,125.0,125.0,200.0,3,2.8984389305114746,None,,,,,0,0,0,0,0,23,23,1,192.96348762512207,,,,,,,,,,,,,,,,,,,,,,,,,,,,,,,,,,,,,,,,,,,,,,,,,,,,,,,,,,,,,,,,,,,,,,,,,,,,,,,,,127.0,127.0,200.0,125.0,125.0,200.0,2.1,2.11,-222,255,0,261,258,-252,192.94744682312012,192.94752168655396,192.95098066329956,192.96348762512207,193.09921956062317,193.09921956062317,193.09921956062317,193.09921956062317,193.09921956062317,193.09921956062317,193.09921956062317,195.86468267440796,3,2.8984389305114746,None,,,,,,,,,,,,,,,,,,215,6,2025-03-06_14h46.17.583,comp,2024.2.4,45.67197398824419,2025-03-07 10h55.48.826991 -0500,
24,24,0,filler_random,None,None,None,None,None,None,None,None,None,None,1,1.602618932723999,None,,,,,0,0,0,0,0,24,24,165,195.88277649879456,,,,,,,,,,,,,,,,,,,,,,,,,,,,,,,,,,,,,,,,,,,,,,,,,,,,,,,,,,,,,,,,,,,,,,,,,,,,,,,,,177.93145680704345,149.19589644163602,72.19795866608811,144.71589714163372,73.97189968331267,69.69701793192459,4.0,4.2,-243,19,0,-251,203,-6,195.8666708469391,195.8667984008789,195.87119388580322,195.88277649879456,196.03009867668152,196.03009867668152,196.03009867668152,196.03009867668152,196.03009867668152,196.03009867668152,196.03009867668152,197.5034191608429,1,1.602618932723999,None,,,,,,,,,,,,,,,,,,215,6,2025-03-06_14h46.17.583,comp,2024.2.4,45.67197398824419,2025-03-07 10h55.48.826991 -0500,
25,25,0,critical,dhw,20.0,2.1,upper,141.0,141.0,200.0,125.0,125.0,200.0,3,3.073723793029785,None,,,,,0,0,0,0,0,25,25,3,197.52349591255188,,,,,,,,,,,,,,,,,,,,,,,,,,,,,,,,,,,,,,,,,,,,,,,,,,,,,,,,,,,,,,,,,,,,,,,,,,,,,,,,,141.0,141.0,200.0,125.0,125.0,200.0,2.1,2.12,-229,-285,0,-277,258,273,197.50497317314148,197.50505590438843,197.50828957557678,197.52349591255188,197.66639733314514,197.66639733314514,197.66639733314514,197.66639733314514,197.66639733314514,197.66639733314514,197.66639733314514,200.60022640228271,3,3.073723793029785,None,,,,,,,,,,,,,,,,,,215,6,2025-03-06_14h46.17.583,comp,2024.2.4,45.67197398824419,2025-03-07 10h55.48.826991 -0500,
26,26,0,filler_random,None,None,None,None,None,None,None,None,None,None,1,2.484401226043701,None,,,,,0,0,0,0,0,26,26,132,200.61686730384827,,,,,,,,,,,,,,,,,,,,,,,,,,,,,,,,,,,,,,,,,,,,,,,,,,,,,,,,,,,,,,,,,,,,,,,,,,,,,,,,,97.84091788600506,147.381004693509,138.11003655619783,62.20975084359681,95.7094153029093,61.70405492895895,1.0,1.2,-201,1,0,-19,158,-20,200.60212969779968,200.6022126674652,200.60604572296143,200.61686730384827,200.76669669151306,200.76669669151306,200.76669669151306,200.76669669151306,200.76669669151306,200.76669669151306,200.76669669151306,203.1039252281189,1,2.484401226043701,None,,,,,,,,,,,,,,,,,,215,6,2025-03-06_14h46.17.583,comp,2024.2.4,45.67197398824419,2025-03-07 10h55.48.826991 -0500,
27,27,0,critical,wdh,20.0,2.1,lower,57.0,133.0,78.0,78.0,133.0,57.0,3,5.964919805526733,None,,,,,0,0,0,0,0,27,27,10,203.1204056739807,,,,,,,,,,,,,,,,,,,,,,,,,,,,,,,,,,,,,,,,,,,,,,,,,,,,,,,,,,,,,,,,,,,,,,,,,,,,,,,,,57.0,133.0,78.0,78.0,133.0,57.0,2.1,2.11,-202,283,0,288,164,-289,203.10551929473877,203.10559606552124,203.1096634864807,203.1204056739807,203.26776552200317,203.26776552200317,203.26776552200317,203.26776552200317,203.26776552200317,203.26776552200317,203.26776552200317,209.10305428504944,3,5.964919805526733,None,,,,,,,,,,,,,,,,,,215,6,2025-03-06_14h46.17.583,comp,2024.2.4,45.67197398824419,2025-03-07 10h55.48.826991 -0500,
28,28,0,filler_square,None,None,None,None,None,None,None,None,None,None,3,1.5185246467590332,None,,,,,0,0,0,0,0,28,28,187,209.11870050430298,,,,,,,,,,,,,,,,,,,,,,,,,,,,,,,,,,,,,,,,,,,,,,,,,,,,,,,,,,,,,,,,,,,,,,,,,,,,,,,,,121.576416416355,64.78625090344661,132.8343666485452,81.88669658888283,168.13906530233137,168.13906530233137,4.0,4.2,-169,-16,0,-258,221,8,209.1048800945282,209.10495495796204,209.1084475517273,209.11870050430298,209.26902222633362,209.26902222633362,209.26902222633362,209.26902222633362,209.26902222633362,209.26902222633362,209.26902222633362,210.65235447883606,3,1.5185246467590332,None,,,,,,,,,,,,,,,,,,215,6,2025-03-06_14h46.17.583,comp,2024.2.4,45.67197398824419,2025-03-07 10h55.48.826991 -0500,
29,29,0,critical,wdh,20.0,2.1,upper,125.0,200.0,141.0,141.0,200.0,125.0,1,4.572643756866455,None,,,,,0,0,0,0,0,29,29,11,210.67260360717773,,,,,,,,,,,,,,,,,,,,,,,,,,,,,,,,,,,,,,,,,,,,,,,,,,,,,,,,,,,,,,,,,,,,,,,,,,,,,,,,,125.0,200.0,141.0,141.0,200.0,125.0,2.1,2.11,-266,263,0,257,229,-260,210.65388202667236,210.65395760536194,210.6574206352234,210.67260360717773,210.80758333206177,210.80758333206177,210.80758333206177,210.80758333206177,210.80758333206177,210.80758333206177,210.80758333206177,215.2570400238037,1,4.572643756866455,None,,,,,,,,,,,,,,,,,,215,6,2025-03-06_14h46.17.583,comp,2024.2.4,45.67197398824419,2025-03-07 10h55.48.826991 -0500,
30,30,0,critical,dwh,20.0,4.0,upper,141.0,141.0,125.0,200.0,200.0,125.0,2,2.7397146224975586,None,,,,,0,0,0,0,0,30,30,71,215.27567672729492,,,,,,,,,,,,,,,,,,,,,,,,,,,,,,,,,,,,,,,,,,,,,,,,,,,,,,,,,,,,,,,,,,,,,,,,,,,,,,,,,141.0,141.0,125.0,200.0,200.0,125.0,4.0,4.2,-266,20,0,-265,258,8,215.25901746749878,215.25910782814026,215.26273918151855,215.27567672729492,215.42123579978943,215.42123579978943,215.42123579978943,215.42123579978943,215.42123579978943,215.42123579978943,215.42123579978943,218.02089071273804,2,2.7397146224975586,None,,,,,,,,,,,,,,,,,,215,6,2025-03-06_14h46.17.583,comp,2024.2.4,45.67197398824419,2025-03-07 10h55.48.826991 -0500,
31,31,0,critical,whd,35.0,2.1,lower,57.0,133.0,133.0,57.0,70.0,70.0,1,5.7681756019592285,None,,,,,0,0,0,0,0,31,31,36,218.03714537620544,,,,,,,,,,,,,,,,,,,,,,,,,,,,,,,,,,,,,,,,,,,,,,,,,,,,,,,,,,,,,,,,,,,,,,,,,,,,,,,,,57.0,133.0,133.0,57.0,70.0,70.0,2.1,2.12,-191,-282,0,-269,160,283,218.02249431610107,218.02257370948792,218.02599000930786,218.03714537620544,218.1911108493805,218.1911108493805,218.1911108493805,218.1911108493805,218.1911108493805,218.1911108493805,218.1911108493805,223.81715178489685,1,5.7681756019592285,None,,,,,,,,,,,,,,,,,,215,6,2025-03-06_14h46.17.583,comp,2024.2.4,45.67197398824419,2025-03-07 10h55.48.826991 -0500,
32,32,0,filler_random,None,None,None,None,None,None,None,None,None,None,3,5.2440595626831055,None,,,,,0,0,0,0,0,32,32,157,223.83322834968567,,,,,,,,,,,,,,,,,,,,,,,,,,,,,,,,,,,,,,,,,,,,,,,,,,,,,,,,,,,,,,,,,,,,,,,,,,,,,,,,,85.88871985086729,199.16568216348682,145.335610262724,158.03704581601403,115.37368026496011,193.25725523455304,4.0,4.2,-275,-5,0,-257,272,8,223.81881546974182,223.81889128684998,223.82197451591492,223.83322834968567,223.9722089767456,223.9722089767456,223.9722089767456,223.9722089767456,223.9722089767456,223.9722089767456,223.9722089767456,229.09680438041687,3,5.2440595626831055,None,,,,,,,,,,,,,,,,,,215,6,2025-03-06_14h46.17.583,comp,2024.2.4,45.67197398824419,2025-03-07 10h55.48.826991 -0500,
33,33,0,critical,wdh,35.0,4.0,upper,125.0,200.0,127.0,127.0,200.0,125.0,1,2.6751444339752197,None,,,,,0,0,0,0,0,33,33,77,229.11419987678528,,,,,,,,,,,,,,,,,,,,,,,,,,,,,,,,,,,,,,,,,,,,,,,,,,,,,,,,,,,,,,,,,,,,,,,,,,,,,,,,,125.0,200.0,127.0,127.0,200.0,125.0,4.0,4.1,-260,-272,0,-7,222,-274,229.0983247756958,229.09840059280396,229.1015305519104,229.11419987678528,229.2623736858368,229.2623736858368,229.2623736858368,229.2623736858368,229.2623736858368,229.2623736858368,229.2623736858368,231.80220651626587,1,2.6751444339752197,None,,,,,,,,,,,,,,,,,,215,6,2025-03-06_14h46.17.583,comp,2024.2.4,45.67197398824419,2025-03-07 10h55.48.826991 -0500,
34,34,0,critical,hwd,35.0,1.0,lower,133.0,57.0,57.0,133.0,70.0,70.0,2,5.762248277664185,None,,,,,0,0,0,0,0,34,34,96,231.81907391548157,,,,,,,,,,,,,,,,,,,,,,,,,,,,,,,,,,,,,,,,,,,,,,,,,,,,,,,,,,,,,,,,,,,,,,,,,,,,,,,,,133.0,57.0,57.0,133.0,70.0,70.0,1.0,1.1,-671,273,-480,272,-282,262,231.80373907089233,231.80385208129883,231.80697965621948,231.81907391548157,231.9589171409607,231.9589171409607,231.9589171409607,231.9589171409607,231.9589171409607,231.9589171409607,231.9589171409607,237.59286999702454,2,5.762248277664185,None,,,,,,,,,,,,,,,,,,215,6,2025-03-06_14h46.17.583,comp,2024.2.4,45.67197398824419,2025-03-07 10h55.48.826991 -0500,
35,35,0,filler_square,None,None,None,None,None,None,None,None,None,None,2,2.9014885425567627,None,,,,,0,0,0,0,0,35,35,186,237.60804677009583,,,,,,,,,,,,,,,,,,,,,,,,,,,,,,,,,,,,,,,,,,,,,,,,,,,,,,,,,,,,,,,,,,,,,,,,,,,,,,,,,86.71324941479435,96.42923731311257,104.91786173719085,104.91786173719085,64.19047197452691,95.53455805802903,2.1,2.11,-197,285,0,253,196,-262,237.59501218795776,237.59508872032166,237.59897017478943,237.60804677009583,237.76585268974304,237.76585268974304,237.76585268974304,237.76585268974304,237.76585268974304,237.76585268974304,237.76585268974304,240.5317142009735,2,2.9014885425567627,None,,,,,,,,,,,,,,,,,,215,6,2025-03-06_14h46.17.583,comp,2024.2.4,45.67197398824419,2025-03-07 10h55.48.826991 -0500,
36,36,0,critical,hdw,20.0,2.1,lower,133.0,57.0,78.0,78.0,57.0,133.0,3,3.7442359924316406,None,,,,,0,0,0,0,0,36,36,22,240.5495970249176,,,,,,,,,,,,,,,,,,,,,,,,,,,,,,,,,,,,,,,,,,,,,,,,,,,,,,,,,,,,,,,,,,,,,,,,,,,,,,,,,133.0,57.0,78.0,78.0,57.0,133.0,2.1,2.11,-164,263,0,289,202,-284,240.53329157829285,240.53337001800537,240.53665566444397,240.5495970249176,240.6948058605194,240.6948058605194,240.6948058605194,240.6948058605194,240.6948058605194,240.6948058605194,240.6948058605194,244.31219577789307,3,3.7442359924316406,None,,,,,,,,,,,,,,,,,,215,6,2025-03-06_14h46.17.583,comp,2024.2.4,45.67197398824419,2025-03-07 10h55.48.826991 -0500,
37,37,0,filler_random,None,None,None,None,None,None,None,None,None,None,2,1.404428482055664,None,,,,,0,0,0,0,0,37,37,144,244.32899641990662,,,,,,,,,,,,,,,,,,,,,,,,,,,,,,,,,,,,,,,,,,,,,,,,,,,,,,,,,,,,,,,,,,,,,,,,,,,,,,,,,131.23260971116514,112.54607669984135,179.27877013152658,191.21866758200514,62.15920083565245,98.71590543394377,3.0,3.2,-248,-279,0,-16,241,283,244.3139991760254,244.31412553787231,244.3175449371338,244.32899641990662,244.46883821487427,244.46883821487427,244.46883821487427,244.46883821487427,244.46883821487427,244.46883821487427,244.46883821487427,245.7471206188202,2,1.404428482055664,None,,,,,,,,,,,,,,,,,,215,6,2025-03-06_14h46.17.583,comp,2024.2.4,45.67197398824419,2025-03-07 10h55.48.826991 -0500,
38,38,0,catch,None,None,None,None,None,None,None,None,None,None,3,1.089918613433838,None,,,,,0,0,0,0,0,38,38,127,245.76371908187866,,,,,,,,,,,,,,,,,,,,,,,,,,,,,,,,,,,,,,,,,,,,,,,,,,,,,,,,,,,,,,,,,,,,,,,,,,,,,,,,,131,59,108,82,182,143,4.0,4.1,-166,-257,0,-14,208,-270,245.74915289878845,245.74922966957092,245.75341987609863,245.76371908187866,245.91335010528564,245.91335010528564,245.91335010528564,245.91335010528564,245.91335010528564,245.91335010528564,245.91335010528564,246.86304545402527,3,1.089918613433838,None,,,,,,,,,,,,,,,,,,215,6,2025-03-06_14h46.17.583,comp,2024.2.4,45.67197398824419,2025-03-07 10h55.48.826991 -0500,
39,39,0,filler_random,None,None,None,None,None,None,None,None,None,None,2,7.5490031242370605,None,,,,,0,0,0,0,0,39,39,134,246.88052892684937,,,,,,,,,,,,,,,,,,,,,,,,,,,,,,,,,,,,,,,,,,,,,,,,,,,,,,,,,,,,,,,,,,,,,,,,,,,,,,,,,84.43377141453607,193.80258518513838,157.44991105840498,124.36318839161348,103.71847932948819,166.92756871620816,3.0,3.2,-255,-282,0,11,242,280,246.8647265434265,246.86483335494995,246.8681607246399,246.88052892684937,247.0322186946869,247.0322186946869,247.0322186946869,247.0322186946869,247.0322186946869,247.0322186946869,247.0322186946869,254.44844675064087,2,7.5490031242370605,None,,,,,,,,,,,,,,,,,,215,6,2025-03-06_14h46.17.583,comp,2024.2.4,45.67197398824419,2025-03-07 10h55.48.826991 -0500,
40,40,0,critical,hwd,20.0,1.0,upper,200.0,125.0,125.0,200.0,141.0,141.0,1,1.7404224872589111,None,,,,,0,0,0,0,0,40,40,103,254.46477913856506,,,,,,,,,,,,,,,,,,,,,,,,,,,,,,,,,,,,,,,,,,,,,,,,,,,,,,,,,,,,,,,,,,,,,,,,,,,,,,,,,200.0,125.0,125.0,200.0,141.0,141.0,1.0,1.1,-738,278,-480,256,-214,256,254.44999814033508,254.4500720500946,254.45349264144897,254.46477913856506,254.61676383018494,254.61676383018494,254.61676383018494,254.61676383018494,254.61676383018494,254.61676383018494,254.61676383018494,256.2168869972229,1,1.7404224872589111,None,,,,,,,,,,,,,,,,,,215,6,2025-03-06_14h46.17.583,comp,2024.2.4,45.67197398824419,2025-03-07 10h55.48.826991 -0500,
41,41,0,filler_random,None,None,None,None,None,None,None,None,None,None,2,2.132145881652832,None,,,,,0,0,0,0,0,41,41,151,256.23319458961487,,,,,,,,,,,,,,,,,,,,,,,,,,,,,,,,,,,,,,,,,,,,,,,,,,,,,,,,,,,,,,,,,,,,,,,,,,,,,,,,,102.51411401024782,87.75359106274115,168.1667710897816,159.19555440981412,70.55747313657993,162.2684459357477,2.1,2.12,-219,-258,0,-269,257,256,256.21860337257385,256.2186818122864,256.222473859787,256.23319458961487,256.38861107826233,256.38861107826233,256.38861107826233,256.38861107826233,256.38861107826233,256.38861107826233,256.38861107826233,258.3838050365448,2,2.132145881652832,None,,,,,,,,,,,,,,,,,,215,6,2025-03-06_14h46.17.583,comp,2024.2.4,45.67197398824419,2025-03-07 10h55.48.826991 -0500,
42,42,0,filler_square,None,None,None,None,None,None,None,None,None,None,1,1.7253727912902832,None,,,,,0,0,0,0,0,42,42,179,258.40002608299255,,,,,,,,,,,,,,,,,,,,,,,,,,,,,,,,,,,,,,,,,,,,,,,,,,,,,,,,,,,,,,,,,,,,,,,,,,,,,,,,,133.4033141943372,133.4033141943372,119.8671594366416,105.40362596316884,114.7184653245111,79.99163703666363,2.1,2.12,-215,-263,0,-253,189,289,258.3856132030487,258.3856899738312,258.38884472846985,258.40002608299255,258.55458188056946,258.55458188056946,258.55458188056946,258.55458188056946,258.55458188056946,258.55458188056946,258.55458188056946,260.13471603393555,1,1.7253727912902832,None,,,,,,,,,,,,,,,,,,215,6,2025-03-06_14h46.17.583,comp,2024.2.4,45.67197398824419,2025-03-07 10h55.48.826991 -0500,
43,43,0,filler_random,None,None,None,None,None,None,None,None,None,None,3,4.070359706878662,None,,,,,0,0,0,0,0,43,43,159,260.1509749889374,,,,,,,,,,,,,,,,,,,,,,,,,,,,,,,,,,,,,,,,,,,,,,,,,,,,,,,,,,,,,,,,,,,,,,,,,,,,,,,,,63.89440607780087,166.14263614462016,77.23239304961199,68.31875039265526,81.50229894930564,198.7670084403814,2.2,2.21,-213,-259,0,251,230,259,260.13653016090393,260.13661098480225,260.1402816772461,260.1509749889374,260.3016903400421,260.3016903400421,260.3016903400421,260.3016903400421,260.3016903400421,260.3016903400421,260.3016903400421,264.2340741157532,3,4.070359706878662,None,,,,,,,,,,,,,,,,,,215,6,2025-03-06_14h46.17.583,comp,2024.2.4,45.67197398824419,2025-03-07 10h55.48.826991 -0500,
44,44,0,critical,hwd,35.0,4.0,upper,200.0,125.0,125.0,200.0,127.0,127.0,2,3.2011029720306396,None,,,,,0,0,0,0,0,44,44,101,264.25233244895935,,,,,,,,,,,,,,,,,,,,,,,,,,,,,,,,,,,,,,,,,,,,,,,,,,,,,,,,,,,,,,,,,,,,,,,,,,,,,,,,,200.0,125.0,125.0,200.0,127.0,127.0,4.0,4.2,-258,2,0,-282,260,8,264.2356081008911,264.2356827259064,264.23883509635925,264.25233244895935,264.3876791000366,264.3876791000366,264.3876791000366,264.3876791000366,264.3876791000366,264.3876791000366,264.3876791000366,267.45838928222656,2,3.2011029720306396,None,,,,,,,,,,,,,,,,,,215,6,2025-03-06_14h46.17.583,comp,2024.2.4,45.67197398824419,2025-03-07 10h55.48.826991 -0500,
45,45,0,critical,hdw,20.0,3.0,upper,200.0,125.0,141.0,141.0,125.0,200.0,3,5.142479181289673,None,,,,,0,0,0,0,0,45,45,117,267.47957587242126,,,,,,,,,,,,,,,,,,,,,,,,,,,,,,,,,,,,,,,,,,,,,,,,,,,,,,,,,,,,,,,,,,,,,,,,,,,,,,,,,200.0,125.0,141.0,141.0,125.0,200.0,3.0,3.1,-229,255,0,-5,266,-255,267.4600234031677,267.46010637283325,267.4636912345886,267.47957587242126,267.61714124679565,267.61714124679565,267.61714124679565,267.61714124679565,267.61714124679565,267.61714124679565,267.61714124679565,272.629869222641,3,5.142479181289673,None,,,,,,,,,,,,,,,,,,215,6,2025-03-06_14h46.17.583,comp,2024.2.4,45.67197398824419,2025-03-07 10h55.48.826991 -0500,
46,46,0,filler_square,None,None,None,None,None,None,None,None,None,None,3,3.557521343231201,None,,,,,0,0,0,0,0,46,46,184,272.64797258377075,,,,,,,,,,,,,,,,,,,,,,,,,,,,,,,,,,,,,,,,,,,,,,,,,,,,,,,,,,,,,,,,,,,,,,,,,,,,,,,,,57.36612514784247,58.26806726575685,57.206456419256995,67.00794644854403,67.20484581316926,67.20484581316926,3.0,3.1,-159,288,0,-15,163,-250,272.6316077709198,272.63169527053833,272.63496255874634,272.64797258377075,272.79000639915466,272.79000639915466,272.79000639915466,272.79000639915466,272.79000639915466,272.79000639915466,272.79000639915466,276.22458720207214,3,3.557521343231201,None,,,,,,,,,,,,,,,,,,215,6,2025-03-06_14h46.17.583,comp,2024.2.4,45.67197398824419,2025-03-07 10h55.48.826991 -0500,
47,47,0,filler_square,None,None,None,None,None,None,None,None,None,None,3,2.0604124069213867,None,,,,,0,0,0,0,0,47,47,180,276.2410056591034,,,,,,,,,,,,,,,,,,,,,,,,,,,,,,,,,,,,,,,,,,,,,,,,,,,,,,,,,,,,,,,,,,,,,,,,,,,,,,,,,99.10341912817633,70.03200334068701,91.41580397185962,104.51429491546983,108.67693244574505,108.67693244574505,1.0,1.2,-183,-8,0,-3,203,13,276.2265703678131,276.2266480922699,276.22987151145935,276.2410056591034,276.3893337249756,276.3893337249756,276.3893337249756,276.3893337249756,276.3893337249756,276.3893337249756,276.3893337249756,278.3179488182068,3,2.0604124069213867,None,,,,,,,,,,,,,,,,,,215,6,2025-03-06_14h46.17.583,comp,2024.2.4,45.67197398824419,2025-03-07 10h55.48.826991 -0500,
48,48,0,filler_square,None,None,None,None,None,None,None,None,None,None,1,3.7763936519622803,None,,,,,0,0,0,0,0,48,48,201,278.3335659503937,,,,,,,,,,,,,,,,,,,,,,,,,,,,,,,,,,,,,,,,,,,,,,,,,,,,,,,,,,,,,,,,,,,,,,,,,,,,,,,,,89.00077120312055,89.00077120312055,73.616550361043,74.6483340132749,59.634618968743325,65.20990194829616,3.0,3.2,-178,-270,0,-17,166,274,278.31972789764404,278.31983375549316,278.32300186157227,278.3335659503937,278.47709250450134,278.47709250450134,278.47709250450134,278.47709250450134,278.47709250450134,278.47709250450134,278.47709250450134,282.11892676353455,1,3.7763936519622803,None,,,,,,,,,,,,,,,,,,215,6,2025-03-06_14h46.17.583,comp,2024.2.4,45.67197398824419,2025-03-07 10h55.48.826991 -0500,
49,49,0,critical,dwh,35.0,4.0,lower,70.0,70.0,57.0,133.0,133.0,57.0,2,3.469435453414917,None,,,,,0,0,0,0,0,49,49,64,282.1366617679596,,,,,,,,,,,,,,,,,,,,,,,,,,,,,,,,,,,,,,,,,,,,,,,,,,,,,,,,,,,,,,,,,,,,,,,,,,,,,,,,,70.0,70.0,57.0,133.0,133.0,57.0,4.0,4.1,-198,-278,0,-17,191,-259,282.1203660964966,282.1204376220703,282.12353587150574,282.1366617679596,282.27653098106384,282.27653098106384,282.27653098106384,282.27653098106384,282.27653098106384,282.27653098106384,282.27653098106384,285.61194610595703,2,3.469435453414917,None,,,,,,,,,,,,,,,,,,215,6,2025-03-06_14h46.17.583,comp,2024.2.4,45.67197398824419,2025-03-07 10h55.48.826991 -0500,
50,50,0,critical,wdh,35.0,3.0,upper,125.0,200.0,127.0,127.0,200.0,125.0,1,15.633484840393066,None,,,,,0,0,0,0,0,50,50,75,285.6289498806,,,,,,,,,,,,,,,,,,,,,,,,,,,,,,,,,,,,,,,,,,,,,,,,,,,,,,,,,,,,,,,,,,,,,,,,,,,,,,,,,125.0,200.0,127.0,127.0,200.0,125.0,3.0,3.1,-260,286,0,-4,222,-271,285.61405420303345,285.6141402721405,285.61741304397583,285.6289498806,285.7767970561981,285.7767970561981,285.7767970561981,285.7767970561981,285.7767970561981,285.7767970561981,285.7767970561981,301.2695276737213,1,15.633484840393066,None,,,,,,,,,,,,,,,,,,215,6,2025-03-06_14h46.17.583,comp,2024.2.4,45.67197398824419,2025-03-07 10h55.48.826991 -0500,
51,51,0,filler_random,None,None,None,None,None,None,None,None,None,None,2,1.413132905960083,None,,,,,0,0,0,0,0,51,51,138,301.2883560657501,,,,,,,,,,,,,,,,,,,,,,,,,,,,,,,,,,,,,,,,,,,,,,,,,,,,,,,,,,,,,,,,,,,,,,,,,,,,,,,,,159.92098103346822,99.20293234583843,191.25343876737324,159.4623591672993,163.08654627192286,70.48141577375472,2.2,2.21,-225,-262,0,263,211,271,301.2715458869934,301.27162766456604,301.27527260780334,301.2883560657501,301.43256855010986,301.43256855010986,301.43256855010986,301.43256855010986,301.43256855010986,301.43256855010986,301.43256855010986,302.7160129547119,2,1.413132905960083,None,,,,,,,,,,,,,,,,,,215,6,2025-03-06_14h46.17.583,comp,2024.2.4,45.67197398824419,2025-03-07 10h55.48.826991 -0500,
52,52,0,catch,None,None,None,None,None,None,None,None,None,None,3,1.3380076885223389,None,,,,,0,0,0,0,0,52,52,124,302.7319712638855,,,,,,,,,,,,,,,,,,,,,,,,,,,,,,,,,,,,,,,,,,,,,,,,,,,,,,,,,,,,,,,,,,,,,,,,,,,,,,,,,97,93,68,122,166,159,4.0,4.2,-204,17,0,-270,236,-6,302.7180562019348,302.71813893318176,302.72152376174927,302.7319712638855,302.88769936561584,302.88769936561584,302.88769936561584,302.88769936561584,302.88769936561584,302.88769936561584,302.88769936561584,304.0869550704956,3,1.3380076885223389,None,,,,,,,,,,,,,,,,,,215,6,2025-03-06_14h46.17.583,comp,2024.2.4,45.67197398824419,2025-03-07 10h55.48.826991 -0500,
53,53,0,critical,dwh,35.0,3.0,lower,70.0,70.0,57.0,133.0,133.0,57.0,2,3.925480842590332,None,,,,,0,0,0,0,0,53,53,62,304.1043236255646,,,,,,,,,,,,,,,,,,,,,,,,,,,,,,,,,,,,,,,,,,,,,,,,,,,,,,,,,,,,,,,,,,,,,,,,,,,,,,,,,70.0,70.0,57.0,133.0,133.0,57.0,3.0,3.1,-198,261,0,-19,191,-277,304.08849120140076,304.0885672569275,304.09170746803284,304.1043236255646,304.2474453449249,304.2474453449249,304.2474453449249,304.2474453449249,304.2474453449249,304.2474453449249,304.2474453449249,308.04898166656494,2,3.925480842590332,None,,,,,,,,,,,,,,,,,,215,6,2025-03-06_14h46.17.583,comp,2024.2.4,45.67197398824419,2025-03-07 10h55.48.826991 -0500,
54,54,0,critical,hdw,35.0,2.1,lower,133.0,57.0,70.0,70.0,57.0,133.0,1,4.2512366771698,None,,,,,0,0,0,0,0,54,54,20,308.06678915023804,,,,,,,,,,,,,,,,,,,,,,,,,,,,,,,,,,,,,,,,,,,,,,,,,,,,,,,,,,,,,,,,,,,,,,,,,,,,,,,,,133.0,57.0,70.0,70.0,57.0,133.0,2.1,2.12,-160,-278,0,-261,198,283,308.05052614212036,308.0506031513214,308.0539855957031,308.06678915023804,308.21716809272766,308.21716809272766,308.21716809272766,308.21716809272766,308.21716809272766,308.21716809272766,308.21716809272766,312.3241455554962,1,4.2512366771698,None,,,,,,,,,,,,,,,,,,215,6,2025-03-06_14h46.17.583,comp,2024.2.4,45.67197398824419,2025-03-07 10h55.48.826991 -0500,
55,55,0,filler_random,None,None,None,None,None,None,None,None,None,None,2,4.58495831489563,None,,,,,0,0,0,0,0,55,55,155,312.3405544757843,,,,,,,,,,,,,,,,,,,,,,,,,,,,,,,,,,,,,,,,,,,,,,,,,,,,,,,,,,,,,,,,,,,,,,,,,,,,,,,,,128.2773666266313,94.61793075952738,188.27083964072185,86.28244982746938,113.06954429014858,105.5350468345613,3.0,3.1,-186,290,0,-3,192,-259,312.3258571624756,312.3259365558624,312.3290994167328,312.3405544757843,312.4855890274048,312.4855890274048,312.4855890274048,312.4855890274048,312.4855890274048,312.4855890274048,312.4855890274048,316.9307806491852,2,4.58495831489563,None,,,,,,,,,,,,,,,,,,215,6,2025-03-06_14h46.17.583,comp,2024.2.4,45.67197398824419,2025-03-07 10h55.48.826991 -0500,
56,56,0,critical,hwd,35.0,2.1,upper,200.0,125.0,125.0,200.0,127.0,127.0,2,4.192747354507446,None,,,,,0,0,0,0,0,56,56,41,316.94863510131836,,,,,,,,,,,,,,,,,,,,,,,,,,,,,,,,,,,,,,,,,,,,,,,,,,,,,,,,,,,,,,,,,,,,,,,,,,,,,,,,,200.0,125.0,125.0,200.0,127.0,127.0,2.1,2.11,-258,275,0,283,260,-258,316.9323523044586,316.9324300289154,316.93555212020874,316.94863510131836,317.0860860347748,317.0860860347748,317.0860860347748,317.0860860347748,317.0860860347748,317.0860860347748,317.0860860347748,321.1530611515045,2,4.192747354507446,None,,,,,,,,,,,,,,,,,,215,6,2025-03-06_14h46.17.583,comp,2024.2.4,45.67197398824419,2025-03-07 10h55.48.826991 -0500,
57,57,0,critical,wdh,20.0,4.0,lower,57.0,133.0,78.0,78.0,133.0,57.0,1,4.978399991989136,None,,,,,0,0,0,0,0,57,57,82,321.17162561416626,,,,,,,,,,,,,,,,,,,,,,,,,,,,,,,,,,,,,,,,,,,,,,,,,,,,,,,,,,,,,,,,,,,,,,,,,,,,,,,,,57.0,133.0,78.0,78.0,133.0,57.0,4.0,4.1,-202,-277,0,15,164,-274,321.15452432632446,321.1545979976654,321.1578974723816,321.17162561416626,321.32164454460144,321.32164454460144,321.32164454460144,321.32164454460144,321.32164454460144,321.32164454460144,321.32164454460144,326.15639066696167,1,4.978399991989136,None,,,,,,,,,,,,,,,,,,215,6,2025-03-06_14h46.17.583,comp,2024.2.4,45.67197398824419,2025-03-07 10h55.48.826991 -0500,
58,58,0,filler_square,None,None,None,None,None,None,None,None,None,None,3,1.7293577194213867,None,,,,,0,0,0,0,0,58,58,196,326.1727292537689,,,,,,,,,,,,,,,,,,,,,,,,,,,,,,,,,,,,,,,,,,,,,,,,,,,,,,,,,,,,,,,,,,,,,,,,,,,,,,,,,137.9101995489965,65.1446122814417,111.2287142416134,113.66227171331329,163.8717982044738,163.8717982044738,4.0,4.1,-185,-261,0,16,235,-256,326.15831232070923,326.15844082832336,326.1620578765869,326.1727292537689,326.32429361343384,326.32429361343384,326.32429361343384,326.32429361343384,326.32429361343384,326.32429361343384,326.32429361343384,327.91095328330994,3,1.7293577194213867,None,,,,,,,,,,,,,,,,,,215,6,2025-03-06_14h46.17.583,comp,2024.2.4,45.67197398824419,2025-03-07 10h55.48.826991 -0500,
59,59,0,filler_random,None,None,None,None,None,None,None,None,None,None,1,1.366565227508545,None,,,,,0,0,0,0,0,59,59,158,327.9268448352814,,,,,,,,,,,,,,,,,,,,,,,,,,,,,,,,,,,,,,,,,,,,,,,,,,,,,,,,,,,,,,,,,,,,,,,,,,,,,,,,,120.9231048529058,153.16592112911587,77.8785848947747,81.17818899166839,129.9846567584002,73.02089365111132,4.0,4.2,-213,4,0,-278,173,18,327.912944316864,327.9130256175995,327.91618371009827,327.9268448352814,328.0826961994171,328.0826961994171,328.0826961994171,328.0826961994171,328.0826961994171,328.0826961994171,328.0826961994171,329.30667328834534,1,1.366565227508545,None,,,,,,,,,,,,,,,,,,215,6,2025-03-06_14h46.17.583,comp,2024.2.4,45.67197398824419,2025-03-07 10h55.48.826991 -0500,
60,60,0,critical,hwd,35.0,2.1,lower,133.0,57.0,57.0,133.0,70.0,70.0,2,2.892411947250366,None,,,,,0,0,0,0,0,60,60,40,329.3210084438324,,,,,,,,,,,,,,,,,,,,,,,,,,,,,,,,,,,,,,,,,,,,,,,,,,,,,,,,,,,,,,,,,,,,,,,,,,,,,,,,,133.0,57.0,57.0,133.0,70.0,70.0,2.1,2.11,-191,273,0,275,198,-262,329.30825877189636,329.3083350658417,329.3119955062866,329.3210084438324,329.4715163707733,329.4715163707733,329.4715163707733,329.4715163707733,329.4715163707733,329.4715163707733,329.4715163707733,332.2262120246887,2,2.892411947250366,None,,,,,,,,,,,,,,,,,,215,6,2025-03-06_14h46.17.583,comp,2024.2.4,45.67197398824419,2025-03-07 10h55.48.826991 -0500,
61,61,0,critical,whd,20.0,2.1,upper,125.0,200.0,200.0,125.0,141.0,141.0,1,14.177535057067871,None,,,,,0,0,0,0,0,61,61,39,332.24470043182373,,,,,,,,,,,,,,,,,,,,,,,,,,,,,,,,,,,,,,,,,,,,,,,,,,,,,,,,,,,,,,,,,,,,,,,,,,,,,,,,,125.0,200.0,200.0,125.0,141.0,141.0,2.1,2.12,-258,-263,0,-264,229,272,332.22786688804626,332.22799134254456,332.2315204143524,332.24470043182373,332.3953640460968,332.3953640460968,332.3953640460968,332.3953640460968,332.3953640460968,332.3953640460968,332.3953640460968,346.42904901504517,1,14.177535057067871,None,,,,,,,,,,,,,,,,,,215,6,2025-03-06_14h46.17.583,comp,2024.2.4,45.67197398824419,2025-03-07 10h55.48.826991 -0500,
62,62,0,critical,wdh,20.0,1.0,upper,125.0,200.0,141.0,141.0,200.0,125.0,1,14.80154538154602,None,,,,,0,0,0,0,0,62,62,79,346.4448482990265,,,,,,,,,,,,,,,,,,,,,,,,,,,,,,,,,,,,,,,,,,,,,,,,,,,,,,,,,,,,,,,,,,,,,,,,,,,,,,,,,125.0,200.0,141.0,141.0,200.0,125.0,1.0,1.2,-266,14,0,11,229,-19,346.43055963516235,346.43063616752625,346.43394327163696,346.4448482990265,346.59430170059204,346.59430170059204,346.59430170059204,346.59430170059204,346.59430170059204,346.59430170059204,346.59430170059204,361.25024938583374,1,14.80154538154602,None,,,,,,,,,,,,,,,,,,215,6,2025-03-06_14h46.17.583,comp,2024.2.4,45.67197398824419,2025-03-07 10h55.48.826991 -0500,
63,63,0,critical,hwd,35.0,3.0,lower,133.0,57.0,57.0,133.0,70.0,70.0,2,3.0113420486450195,None,,,,,0,0,0,0,0,63,63,98,361.26657271385193,,,,,,,,,,,,,,,,,,,,,,,,,,,,,,,,,,,,,,,,,,,,,,,,,,,,,,,,,,,,,,,,,,,,,,,,,,,,,,,,,133.0,57.0,57.0,133.0,70.0,70.0,3.0,3.1,-191,287,0,-3,198,-278,361.2518422603607,361.25194239616394,361.25564432144165,361.26657271385193,361.4158535003662,361.4158535003662,361.4158535003662,361.4158535003662,361.4158535003662,361.4158535003662,361.4158535003662,364.2867338657379,2,3.0113420486450195,None,,,,,,,,,,,,,,,,,,215,6,2025-03-06_14h46.17.583,comp,2024.2.4,45.67197398824419,2025-03-07 10h55.48.826991 -0500,
64,64,0,filler_square,None,None,None,None,None,None,None,None,None,None,3,2.5878593921661377,None,,,,,0,0,0,0,0,64,64,174,364.3063099384308,,,,,,,,,,,,,,,,,,,,,,,,,,,,,,,,,,,,,,,,,,,,,,,,,,,,,,,,,,,,,,,,,,,,,,,,,,,,,,,,,89.74076821873851,114.5062329990231,147.03753328270523,111.8375548759449,168.66036687435263,168.66036687435263,3.0,3.2,-209,-263,0,9,236,259,364.28879833221436,364.288916349411,364.2923674583435,364.3063099384308,364.4517321586609,364.4517321586609,364.4517321586609,364.4517321586609,364.4517321586609,364.4517321586609,364.4517321586609,366.899778842926,3,2.5878593921661377,None,,,,,,,,,,,,,,,,,,215,6,2025-03-06_14h46.17.583,comp,2024.2.4,45.67197398824419,2025-03-07 10h55.48.826991 -0500,
65,65,0,critical,hwd,20.0,3.0,lower,133.0,57.0,57.0,133.0,78.0,78.0,2,2.633007764816284,None,,,,,0,0,0,0,0,65,65,104,366.9165072441101,,,,,,,,,,,,,,,,,,,,,,,,,,,,,,,,,,,,,,,,,,,,,,,,,,,,,,,,,,,,,,,,,,,,,,,,,,,,,,,,,133.0,57.0,57.0,133.0,78.0,78.0,3.0,3.1,-191,284,0,-4,202,-260,366.9013161659241,366.90139412879944,366.9045641422272,366.9165072441101,367.07030844688416,367.07030844688416,367.07030844688416,367.07030844688416,367.07030844688416,367.07030844688416,367.07030844688416,369.5554111003876,2,2.633007764816284,None,,,,,,,,,,,,,,,,,,215,6,2025-03-06_14h46.17.583,comp,2024.2.4,45.67197398824419,2025-03-07 10h55.48.826991 -0500,
66,66,0,filler_square,None,None,None,None,None,None,None,None,None,None,3,1.4295732975006104,None,,,,,0,0,0,0,0,66,66,195,369.575909614563,,,,,,,,,,,,,,,,,,,,,,,,,,,,,,,,,,,,,,,,,,,,,,,,,,,,,,,,,,,,,,,,,,,,,,,,,,,,,,,,,170.50281637348382,170.50281637348382,84.57209177740143,169.11300326644323,118.51585284767623,103.88044132889661,3.0,3.2,-266,-253,0,11,232,252,369.5573606491089,369.55744791030884,369.5611834526062,369.575909614563,369.721467256546,369.721467256546,369.721467256546,369.721467256546,369.721467256546,369.721467256546,369.721467256546,371.00955605506897,3,1.4295732975006104,None,,,,,,,,,,,,,,,,,,215,6,2025-03-06_14h46.17.583,comp,2024.2.4,45.67197398824419,2025-03-07 10h55.48.826991 -0500,
67,67,0,filler_random,None,None,None,None,None,None,None,None,None,None,1,6.4020655155181885,None,,,,,0,0,0,0,0,67,67,142,371.0273263454437,,,,,,,,,,,,,,,,,,,,,,,,,,,,,,,,,,,,,,,,,,,,,,,,,,,,,,,,,,,,,,,,,,,,,,,,,,,,,,,,,78.60240289649894,170.8070868443353,98.53353625475242,92.27659543136517,121.07531552019404,74.17689946914376,4.0,4.2,-228,-8,0,-259,179,-7,371.0112507343292,371.01132702827454,371.01440715789795,371.0273263454437,371.1663143634796,371.1663143634796,371.1663143634796,371.1663143634796,371.1663143634796,371.1663143634796,371.1663143634796,377.4428949356079,1,6.4020655155181885,None,,,,,,,,,,,,,,,,,,215,6,2025-03-06_14h46.17.583,comp,2024.2.4,45.67197398824419,2025-03-07 10h55.48.826991 -0500,
68,68,0,filler_random,None,None,None,None,None,None,None,None,None,None,1,5.631702184677124,None,,,,,0,0,0,0,0,68,68,147,377.46170473098755,,,,,,,,,,,,,,,,,,,,,,,,,,,,,,,,,,,,,,,,,,,,,,,,,,,,,,,,,,,,,,,,,,,,,,,,,,,,,,,,,178.02283757721278,118.99798780166691,138.2547225837909,98.10330721706717,185.77395610150418,98.62886602716424,2.1,2.12,-205,-259,0,-275,194,269,377.4447395801544,377.44495582580566,377.44841504096985,377.46170473098755,377.6058373451233,377.6058373451233,377.6058373451233,377.6058373451233,377.6058373451233,377.6058373451233,377.6058373451233,383.10614228248596,1,5.631702184677124,None,,,,,,,,,,,,,,,,,,215,6,2025-03-06_14h46.17.583,comp,2024.2.4,45.67197398824419,2025-03-07 10h55.48.826991 -0500,
69,69,0,filler_random,None,None,None,None,None,None,None,None,None,None,2,2.810558557510376,None,,,,,0,0,0,0,0,69,69,162,383.12287855148315,,,,,,,,,,,,,,,,,,,,,,,,,,,,,,,,,,,,,,,,,,,,,,,,,,,,,,,,,,,,,,,,,,,,,,,,,,,,,,,,,83.2073387431175,70.69712869355608,147.7254395777033,112.66413100625222,86.5441481151859,141.90970533723385,1.0,1.1,-668,287,-480,285,-257,283,383.10790157318115,383.10797595977783,383.11120438575745,383.12287855148315,383.27356362342834,383.27356362342834,383.27356362342834,383.27356362342834,383.27356362342834,383.27356362342834,383.27356362342834,385.9493510723114,2,2.810558557510376,None,,,,,,,,,,,,,,,,,,215,6,2025-03-06_14h46.17.583,comp,2024.2.4,45.67197398824419,2025-03-07 10h55.48.826991 -0500,
70,70,0,critical,dwh,20.0,2.1,lower,78.0,78.0,57.0,133.0,133.0,57.0,2,4.4548797607421875,None,,,,,0,0,0,0,0,70,70,30,385.96733498573303,,,,,,,,,,,,,,,,,,,,,,,,,,,,,,,,,,,,,,,,,,,,,,,,,,,,,,,,,,,,,,,,,,,,,,,,,,,,,,,,,78.0,78.0,57.0,133.0,133.0,57.0,2.1,2.12,-202,-282,0,-272,191,270,385.95093512535095,385.9510324001312,385.95455050468445,385.96733498573303,386.1070806980133,386.1070806980133,386.1070806980133,386.1070806980133,386.1070806980133,386.1070806980133,386.1070806980133,390.4265778064728,2,4.4548797607421875,None,,,,,,,,,,,,,,,,,,215,6,2025-03-06_14h46.17.583,comp,2024.2.4,45.67197398824419,2025-03-07 10h55.48.826991 -0500,
71,71,0,filler_random,None,None,None,None,None,None,None,None,None,None,1,17.411656141281128,None,,,,,0,0,0,0,0,71,71,150,390.44272112846375,,,,,,,,,,,,,,,,,,,,,,,,,,,,,,,,,,,,,,,,,,,,,,,,,,,,,,,,,,,,,,,,,,,,,,,,,,,,,,,,,127.02594045158169,168.2802787185658,190.43217322142522,97.93803885304682,163.69660430662623,90.49838284761952,1.0,1.1,-709,289,-480,281,-290,284,390.428341627121,390.42841935157776,390.4319791793823,390.44272112846375,390.5919587612152,390.5919587612152,390.5919587612152,390.5919587612152,390.5919587612152,390.5919587612152,390.5919587612152,407.8654098510742,1,17.411656141281128,None,,,,,,,,,,,,,,,,,,215,6,2025-03-06_14h46.17.583,comp,2024.2.4,45.67197398824419,2025-03-07 10h55.48.826991 -0500,
72,72,0,filler_square,None,None,None,None,None,None,None,None,None,None,3,3.019582986831665,None,,,,,0,0,0,0,0,72,72,197,407.88187551498413,,,,,,,,,,,,,,,,,,,,,,,,,,,,,,,,,,,,,,,,,,,,,,,,,,,,,,,,,,,,,,,,,,,,,,,,,,,,,,,,,87.24847397806317,87.24847397806317,59.29064971535743,76.63472605894779,77.49872395962718,86.15599783443491,4.0,4.1,-178,-254,0,12,177,-272,407.86726784706116,407.8673987388611,407.8710539340973,407.88187551498413,408.0338499546051,408.0338499546051,408.0338499546051,408.0338499546051,408.0338499546051,408.0338499546051,408.0338499546051,410.9149069786072,3,3.019582986831665,None,,,,,,,,,,,,,,,,,,215,6,2025-03-06_14h46.17.583,comp,2024.2.4,45.67197398824419,2025-03-07 10h55.48.826991 -0500,
73,73,0,filler_random,None,None,None,None,None,None,None,None,None,None,3,2.4662911891937256,None,,,,,0,0,0,0,0,73,73,139,410.93127489089966,,,,,,,,,,,,,,,,,,,,,,,,,,,,,,,,,,,,,,,,,,,,,,,,,,,,,,,,,,,,,,,,,,,,,,,,,,,,,,,,,112.43205255898074,112.59480219325457,78.35038366039208,110.92858971196941,121.42788749776496,188.97404869965115,2.2,2.22,-208,258,0,-273,246,-270,410.91663694381714,410.91671419143677,410.92019057273865,410.93127489089966,411.0816125869751,411.0816125869751,411.0816125869751,411.0816125869751,411.0816125869751,411.0816125869751,411.0816125869751,413.4161186218262,3,2.4662911891937256,None,,,,,,,,,,,,,,,,,,215,6,2025-03-06_14h46.17.583,comp,2024.2.4,45.67197398824419,2025-03-07 10h55.48.826991 -0500,
74,74,0,critical,dwh,20.0,3.0,lower,78.0,78.0,57.0,133.0,133.0,57.0,2,7.692263841629028,None,,,,,0,0,0,0,0,74,74,68,413.4340832233429,,,,,,,,,,,,,,,,,,,,,,,,,,,,,,,,,,,,,,,,,,,,,,,,,,,,,,,,,,,,,,,,,,,,,,,,,,,,,,,,,78.0,78.0,57.0,133.0,133.0,57.0,3.0,3.1,-202,278,0,5,191,-273,413.4177997112274,413.4178762435913,413.4214096069336,413.4340832233429,413.58302664756775,413.58302664756775,413.58302664756775,413.58302664756775,413.58302664756775,413.58302664756775,413.58302664756775,421.1362612247467,2,7.692263841629028,None,,,,,,,,,,,,,,,,,,215,6,2025-03-06_14h46.17.583,comp,2024.2.4,45.67197398824419,2025-03-07 10h55.48.826991 -0500,
75,75,0,filler_random,None,None,None,None,None,None,None,None,None,None,2,1.741175889968872,None,,,,,0,0,0,0,0,75,75,135,421.1523470878601,,,,,,,,,,,,,,,,,,,,,,,,,,,,,,,,,,,,,,,,,,,,,,,,,,,,,,,,,,,,,,,,,,,,,,,,,,,,,,,,,117.73542112559235,83.36370507520337,157.94473028309946,109.8365074805919,74.56910211180873,144.99903749421117,2.1,2.11,-193,251,0,274,223,-252,421.13791131973267,421.1379873752594,421.1415288448334,421.1523470878601,421.30272006988525,421.30272006988525,421.30272006988525,421.30272006988525,421.30272006988525,421.30272006988525,421.30272006988525,422.9088234901428,2,1.741175889968872,None,,,,,,,,,,,,,,,,,,215,6,2025-03-06_14h46.17.583,comp,2024.2.4,45.67197398824419,2025-03-07 10h55.48.826991 -0500,
76,76,0,critical,dwh,20.0,4.0,lower,78.0,78.0,57.0,133.0,133.0,57.0,2,10.777814149856567,None,,,,,0,0,0,0,0,76,76,70,422.92429208755493,,,,,,,,,,,,,,,,,,,,,,,,,,,,,,,,,,,,,,,,,,,,,,,,,,,,,,,,,,,,,,,,,,,,,,,,,,,,,,,,,78.0,78.0,57.0,133.0,133.0,57.0,4.0,4.2,-202,7,0,-284,191,12,422.91029024124146,422.9103653430939,422.9134829044342,422.92429208755493,423.0700361728668,423.0700361728668,423.0700361728668,423.0700361728668,423.0700361728668,423.0700361728668,423.0700361728668,433.70432806015015,2,10.777814149856567,None,,,,,,,,,,,,,,,,,,215,6,2025-03-06_14h46.17.583,comp,2024.2.4,45.67197398824419,2025-03-07 10h55.48.826991 -0500,
77,77,0,filler_random,None,None,None,None,None,None,None,None,None,None,3,1.9567618370056152,None,,,,,0,0,0,0,0,77,77,160,433.72155594825745,,,,,,,,,,,,,,,,,,,,,,,,,,,,,,,,,,,,,,,,,,,,,,,,,,,,,,,,,,,,,,,,,,,,,,,,,,,,,,,,,92.41503971651133,135.67162926695838,98.15224412297135,144.91801974666626,184.92315092641357,150.19851630697912,4.0,4.1,-236,-289,0,-14,244,-273,433.70605087280273,433.7061266899109,433.7095878124237,433.72155594825745,433.85899782180786,433.85899782180786,433.85899782180786,433.85899782180786,433.85899782180786,433.85899782180786,433.85899782180786,435.6899666786194,3,1.9567618370056152,None,,,,,,,,,,,,,,,,,,215,6,2025-03-06_14h46.17.583,comp,2024.2.4,45.67197398824419,2025-03-07 10h55.48.826991 -0500,
78,78,0,filler_random,None,None,None,None,None,None,None,None,None,None,1,2.092607021331787,None,,,,,0,0,0,0,0,78,78,130,435.70485663414,,,,,,,,,,,,,,,,,,,,,,,,,,,,,,,,,,,,,,,,,,,,,,,,,,,,,,,,,,,,,,,,,,,,,,,,,,,,,,,,,128.28820564451783,185.75472249418985,86.53196134796357,160.79483079361202,64.8517443530831,143.46067881167664,2.2,2.21,-269,-264,0,261,248,264,435.69158029556274,435.69165539741516,435.695029258728,435.70485663414,435.85701990127563,435.85701990127563,435.85701990127563,435.85701990127563,435.85701990127563,435.85701990127563,435.85701990127563,437.8110189437866,1,2.092607021331787,None,,,,,,,,,,,,,,,,,,215,6,2025-03-06_14h46.17.583,comp,2024.2.4,45.67197398824419,2025-03-07 10h55.48.826991 -0500,
79,79,0,filler_square,None,None,None,None,None,None,None,None,None,None,3,1.5429513454437256,None,,,,,0,0,0,0,0,79,79,173,437.8305263519287,,,,,,,,,,,,,,,,,,,,,,,,,,,,,,,,,,,,,,,,,,,,,,,,,,,,,,,,,,,,,,,,,,,,,,,,,,,,,,,,,57.34348248505827,148.2840327023195,132.6389421569931,119.49895109159117,156.19818351371092,156.19818351371092,2.2,2.21,-230,-260,0,281,234,270,437.81301498413086,437.8130946159363,437.81622982025146,437.8305263519287,437.97061944007874,437.97061944007874,437.97061944007874,437.97061944007874,437.97061944007874,437.97061944007874,437.97061944007874,439.3925356864929,3,1.5429513454437256,None,,,,,,,,,,,,,,,,,,215,6,2025-03-06_14h46.17.583,comp,2024.2.4,45.67197398824419,2025-03-07 10h55.48.826991 -0500,
80,80,0,critical,wdh,20.0,4.0,upper,125.0,200.0,141.0,141.0,200.0,125.0,3,5.361215591430664,None,,,,,0,0,0,0,0,80,80,83,439.4127230644226,,,,,,,,,,,,,,,,,,,,,,,,,,,,,,,,,,,,,,,,,,,,,,,,,,,,,,,,,,,,,,,,,,,,,,,,,,,,,,,,,125.0,200.0,141.0,141.0,200.0,125.0,4.0,4.1,-266,-281,0,3,229,-278,439.3941287994385,439.3942596912384,439.39755272865295,439.4127230644226,439.5576457977295,439.5576457977295,439.5576457977295,439.5576457977295,439.5576457977295,439.5576457977295,439.5576457977295,444.7852327823639,3,5.361215591430664,None,,,,,,,,,,,,,,,,,,215,6,2025-03-06_14h46.17.583,comp,2024.2.4,45.67197398824419,2025-03-07 10h55.48.826991 -0500,
81,81,0,critical,hdw,20.0,4.0,upper,200.0,125.0,141.0,141.0,125.0,200.0,3,2.6074001789093018,None,,,,,0,0,0,0,0,81,81,119,444.8062264919281,,,,,,,,,,,,,,,,,,,,,,,,,,,,,,,,,,,,,,,,,,,,,,,,,,,,,,,,,,,,,,,,,,,,,,,,,,,,,,,,,200.0,125.0,141.0,141.0,125.0,200.0,4.0,4.2,-229,-14,0,-285,266,20,444.786780834198,444.78686141967773,444.7904284000397,444.8062264919281,444.9434905052185,444.9434905052185,444.9434905052185,444.9434905052185,444.9434905052185,444.9434905052185,444.9434905052185,447.4281988143921,3,2.6074001789093018,None,,,,,,,,,,,,,,,,,,215,6,2025-03-06_14h46.17.583,comp,2024.2.4,45.67197398824419,2025-03-07 10h55.48.826991 -0500,
82,82,0,critical,hdw,35.0,3.0,lower,133.0,57.0,70.0,70.0,57.0,133.0,3,10.241868257522583,None,,,,,0,0,0,0,0,82,82,110,447.4438576698303,,,,,,,,,,,,,,,,,,,,,,,,,,,,,,,,,,,,,,,,,,,,,,,,,,,,,,,,,,,,,,,,,,,,,,,,,,,,,,,,,133.0,57.0,70.0,70.0,57.0,133.0,3.0,3.2,-160,-254,0,19,198,271,447.42977118492126,447.429899930954,447.4335210323334,447.4438576698303,447.5813226699829,447.5813226699829,447.5813226699829,447.5813226699829,447.5813226699829,447.5813226699829,447.5813226699829,457.70042181015015,3,10.241868257522583,None,,,,,,,,,,,,,,,,,,215,6,2025-03-06_14h46.17.583,comp,2024.2.4,45.67197398824419,2025-03-07 10h55.48.826991 -0500,
83,83,0,filler_random,None,None,None,None,None,None,None,None,None,None,3,1.7832703590393066,None,,,,,0,0,0,0,0,83,83,148,457.71822476387024,,,,,,,,,,,,,,,,,,,,,,,,,,,,,,,,,,,,,,,,,,,,,,,,,,,,,,,,,,,,,,,,,,,,,,,,,,,,,,,,,165.58035456548316,147.524250988919,80.00506718127771,160.9979491954516,182.41637800979726,162.32558800002647,4.0,4.1,-250,-253,0,-2,258,-288,457.7022297382355,457.70235896110535,457.7056243419647,457.71822476387024,457.8661949634552,457.8661949634552,457.8661949634552,457.8661949634552,457.8661949634552,457.8661949634552,457.8661949634552,459.51317715644836,3,1.7832703590393066,None,,,,,,,,,,,,,,,,,,215,6,2025-03-06_14h46.17.583,comp,2024.2.4,45.67197398824419,2025-03-07 10h55.48.826991 -0500,
84,84,0,critical,hwd,20.0,2.1,lower,133.0,57.0,57.0,133.0,78.0,78.0,1,10.244784355163574,None,,,,,0,0,0,0,0,84,84,42,459.52904748916626,,,,,,,,,,,,,,,,,,,,,,,,,,,,,,,,,,,,,,,,,,,,,,,,,,,,,,,,,,,,,,,,,,,,,,,,,,,,,,,,,133.0,57.0,57.0,133.0,78.0,78.0,2.1,2.11,-191,252,0,276,202,-289,459.51469254493713,459.51479172706604,459.5181806087494,459.52904748916626,459.67942810058594,459.67942810058594,459.67942810058594,459.67942810058594,459.67942810058594,459.67942810058594,459.67942810058594,469.7940990924835,1,10.244784355163574,None,,,,,,,,,,,,,,,,,,215,6,2025-03-06_14h46.17.583,comp,2024.2.4,45.67197398824419,2025-03-07 10h55.48.826991 -0500,
85,85,0,critical,whd,35.0,1.0,lower,57.0,133.0,133.0,57.0,70.0,70.0,2,5.60756778717041,None,,,,,0,0,0,0,0,85,85,84,469.8140540122986,,,,,,,,,,,,,,,,,,,,,,,,,,,,,,,,,,,,,,,,,,,,,,,,,,,,,,,,,,,,,,,,,,,,,,,,,,,,,,,,,57.0,133.0,133.0,57.0,70.0,70.0,1.0,1.3,289,-281,480,-265,640,-257,469.7955732345581,469.7956511974335,469.798800945282,469.8140540122986,469.951557636261,469.951557636261,469.951557636261,469.951557636261,469.951557636261,469.951557636261,469.951557636261,475.43594217300415,2,5.60756778717041,None,,,,,,,,,,,,,,,,,,215,6,2025-03-06_14h46.17.583,comp,2024.2.4,45.67197398824419,2025-03-07 10h55.48.826991 -0500,
86,86,0,critical,hwd,20.0,1.0,lower,133.0,57.0,57.0,133.0,78.0,78.0,2,6.321919679641724,None,,,,,0,0,0,0,0,86,86,102,475.45166015625,,,,,,,,,,,,,,,,,,,,,,,,,,,,,,,,,,,,,,,,,,,,,,,,,,,,,,,,,,,,,,,,,,,,,,,,,,,,,,,,,133.0,57.0,57.0,133.0,78.0,78.0,1.0,1.3,289,-269,480,-281,682,-264,475.4374449253082,475.4375216960907,475.4413969516754,475.45166015625,475.6013734340668,475.6013734340668,475.6013734340668,475.6013734340668,475.6013734340668,475.6013734340668,475.6013734340668,481.78751587867737,2,6.321919679641724,None,,,,,,,,,,,,,,,,,,215,6,2025-03-06_14h46.17.583,comp,2024.2.4,45.67197398824419,2025-03-07 10h55.48.826991 -0500,
87,87,0,critical,dwh,20.0,2.1,upper,141.0,141.0,125.0,200.0,200.0,125.0,2,9.818650484085083,None,,,,,0,0,0,0,0,87,87,7,481.8031189441681,,,,,,,,,,,,,,,,,,,,,,,,,,,,,,,,,,,,,,,,,,,,,,,,,,,,,,,,,,,,,,,,,,,,,,,,,,,,,,,,,141.0,141.0,125.0,200.0,200.0,125.0,2.1,2.12,-266,-275,0,-280,258,278,481.78909516334534,481.78917050361633,481.7928977012634,481.8031189441681,481.9549813270569,481.9549813270569,481.9549813270569,481.9549813270569,481.9549813270569,481.9549813270569,481.9549813270569,491.6244158744812,2,9.818650484085083,None,,,,,,,,,,,,,,,,,,215,6,2025-03-06_14h46.17.583,comp,2024.2.4,45.67197398824419,2025-03-07 10h55.48.826991 -0500,
88,88,0,critical,dhw,20.0,4.0,lower,78.0,78.0,133.0,57.0,57.0,133.0,3,2.7514517307281494,None,,,,,0,0,0,0,0,88,88,58,491.646436214447,,,,,,,,,,,,,,,,,,,,,,,,,,,,,,,,,,,,,,,,,,,,,,,,,,,,,,,,,,,,,,,,,,,,,,,,,,,,,,,,,78.0,78.0,133.0,57.0,57.0,133.0,4.0,4.1,-164,-280,0,-12,191,-288,491.6260724067688,491.6261842250824,491.6301145553589,491.646436214447,491.7914264202118,491.7914264202118,491.7914264202118,491.7914264202118,491.7914264202118,491.7914264202118,491.7914264202118,494.4001040458679,3,2.7514517307281494,None,,,,,,,,,,,,,,,,,,215,6,2025-03-06_14h46.17.583,comp,2024.2.4,45.67197398824419,2025-03-07 10h55.48.826991 -0500,
89,89,0,critical,wdh,35.0,4.0,lower,57.0,133.0,70.0,70.0,133.0,57.0,1,9.587324857711792,None,,,,,0,0,0,0,0,89,89,76,494.4189097881317,,,,,,,,,,,,,,,,,,,,,,,,,,,,,,,,,,,,,,,,,,,,,,,,,,,,,,,,,,,,,,,,,,,,,,,,,,,,,,,,,57.0,133.0,70.0,70.0,133.0,57.0,4.0,4.2,-198,12,0,-270,160,-7,494.40162420272827,494.40170073509216,494.40488052368164,494.4189097881317,494.55950903892517,494.55950903892517,494.55950903892517,494.55950903892517,494.55950903892517,494.55950903892517,494.55950903892517,504.01210927963257,1,9.587324857711792,None,,,,,,,,,,,,,,,,,,215,6,2025-03-06_14h46.17.583,comp,2024.2.4,45.67197398824419,2025-03-07 10h55.48.826991 -0500,
90,90,0,catch,None,None,None,None,None,None,None,None,None,None,3,1.7362949848175049,None,,,,,0,0,0,0,0,90,90,128,504.02911949157715,,,,,,,,,,,,,,,,,,,,,,,,,,,,,,,,,,,,,,,,,,,,,,,,,,,,,,,,,,,,,,,,,,,,,,,,,,,,,,,,,70,120,133,57,181,144,2.2,2.22,-184,258,0,-280,196,-260,504.0143868923187,504.0144667625427,504.0182967185974,504.02911949157715,504.1770236492157,504.1770236492157,504.1770236492157,504.1770236492157,504.1770236492157,504.1770236492157,504.1770236492157,505.7786018848419,3,1.7362949848175049,None,,,,,,,,,,,,,,,,,,215,6,2025-03-06_14h46.17.583,comp,2024.2.4,45.67197398824419,2025-03-07 10h55.48.826991 -0500,
91,91,0,critical,dhw,35.0,4.0,upper,127.0,127.0,200.0,125.0,125.0,200.0,2,4.48884654045105,None,,,,,0,0,0,0,0,91,91,53,505.79870319366455,,,,,,,,,,,,,,,,,,,,,,,,,,,,,,,,,,,,,,,,,,,,,,,,,,,,,,,,,,,,,,,,,,,,,,,,,,,,,,,,,127.0,127.0,200.0,125.0,125.0,200.0,4.0,4.2,-222,9,0,-284,258,-18,505.7802619934082,505.7803409099579,505.78390312194824,505.79870319366455,505.9446120262146,505.9446120262146,505.9446120262146,505.9446120262146,505.9446120262146,505.9446120262146,505.9446120262146,510.2982168197632,2,4.48884654045105,None,,,,,,,,,,,,,,,,,,215,6,2025-03-06_14h46.17.583,comp,2024.2.4,45.67197398824419,2025-03-07 10h55.48.826991 -0500,
92,92,0,filler_random,None,None,None,None,None,None,None,None,None,None,3,1.8189098834991455,None,,,,,0,0,0,0,0,92,92,149,510.31525588035583,,,,,,,,,,,,,,,,,,,,,,,,,,,,,,,,,,,,,,,,,,,,,,,,,,,,,,,,,,,,,,,,,,,,,,,,,,,,,,,,,70.64987181648615,196.03144909462048,149.19077511196656,156.0831484047185,166.1086756512252,162.02701159621847,3.0,3.1,-272,282,0,-15,255,-256,510.30007219314575,510.3001501560211,510.30420541763306,510.31525588035583,510.4640781879425,510.4640781879425,510.4640781879425,510.4640781879425,510.4640781879425,510.4640781879425,510.4640781879425,512.1372003555298,3,1.8189098834991455,None,,,,,,,,,,,,,,,,,,215,6,2025-03-06_14h46.17.583,comp,2024.2.4,45.67197398824419,2025-03-07 10h55.48.826991 -0500,
93,93,0,catch,None,None,None,None,None,None,None,None,None,None,3,1.4550585746765137,None,,,,,0,0,0,0,0,93,93,126,512.1585803031921,,,,,,,,,,,,,,,,,,,,,,,,,,,,,,,,,,,,,,,,,,,,,,,,,,,,,,,,,,,,,,,,,,,,,,,,,,,,,,,,,104,86,70,120,146,179,1.0,1.1,-679,269,-480,288,-234,256,512.1392698287964,512.1393749713898,512.1428055763245,512.1585803031921,512.2970144748688,512.2970144748688,512.2970144748688,512.2970144748688,512.2970144748688,512.2970144748688,512.2970144748688,513.6287314891815,3,1.4550585746765137,None,,,,,,,,,,,,,,,,,,215,6,2025-03-06_14h46.17.583,comp,2024.2.4,45.67197398824419,2025-03-07 10h55.48.826991 -0500,
94,94,0,critical,whd,20.0,4.0,lower,57.0,133.0,133.0,57.0,78.0,78.0,2,5.089917421340942,None,,,,,0,0,0,0,0,94,94,94,513.6438381671906,,,,,,,,,,,,,,,,,,,,,,,,,,,,,,,,,,,,,,,,,,,,,,,,,,,,,,,,,,,,,,,,,,,,,,,,,,,,,,,,,57.0,133.0,133.0,57.0,78.0,78.0,4.0,4.2,-191,-12,0,-264,164,-9,513.6303265094757,513.6304008960724,513.6338894367218,513.6438381671906,513.7975664138794,513.7975664138794,513.7975664138794,513.7975664138794,513.7975664138794,513.7975664138794,513.7975664138794,518.7489790916443,2,5.089917421340942,None,,,,,,,,,,,,,,,,,,215,6,2025-03-06_14h46.17.583,comp,2024.2.4,45.67197398824419,2025-03-07 10h55.48.826991 -0500,
95,95,0,critical,whd,35.0,2.1,lower,57.0,133.0,133.0,57.0,70.0,70.0,1,3.9760122299194336,None,,,,,0,0,0,0,0,95,95,12,518.7655243873596,,,,,,,,,,,,,,,,,,,,,,,,,,,,,,,,,,,,,,,,,,,,,,,,,,,,,,,,,,,,,,,,,,,,,,,,,,,,,,,,,57.0,133.0,133.0,57.0,70.0,70.0,2.1,2.12,-191,-268,0,-262,160,265,518.7506721019745,518.7508351802826,518.7545762062073,518.7655243873596,518.9156641960144,518.9156641960144,518.9156641960144,518.9156641960144,518.9156641960144,518.9156641960144,518.9156641960144,522.7512106895447,1,3.9760122299194336,None,,,,,,,,,,,,,,,,,,215,6,2025-03-06_14h46.17.583,comp,2024.2.4,45.67197398824419,2025-03-07 10h55.48.826991 -0500,
96,96,0,filler_square,None,None,None,None,None,None,None,None,None,None,2,2.110524892807007,None,,,,,0,0,0,0,0,96,96,209,522.767736196518,,,,,,,,,,,,,,,,,,,,,,,,,,,,,,,,,,,,,,,,,,,,,,,,,,,,,,,,,,,,,,,,,,,,,,,,,,,,,,,,,92.6479829089534,113.50188322790999,122.9062415882727,122.9062415882727,86.22902939231516,78.03250289381177,4.0,4.2,-214,-2,0,-259,196,-3,522.7531435489655,522.7532346248627,522.7569122314453,522.767736196518,522.9171762466431,522.9171762466431,522.9171762466431,522.9171762466431,522.9171762466431,522.9171762466431,522.9171762466431,524.8872640132904,2,2.110524892807007,None,,,,,,,,,,,,,,,,,,215,6,2025-03-06_14h46.17.583,comp,2024.2.4,45.67197398824419,2025-03-07 10h55.48.826991 -0500,
97,97,0,catch,None,None,None,None,None,None,None,None,None,None,2,1.0174574851989746,None,,,,,0,0,0,0,0,97,97,123,524.9083769321442,,,,,,,,,,,,,,,,,,,,,,,,,,,,,,,,,,,,,,,,,,,,,,,,,,,,,,,,,,,,,,,,,,,,,,,,,,,,,,,,,100,90,169,156,85,105,4.0,4.1,-219,-279,0,-15,226,-250,524.8894307613373,524.8895132541656,524.8926870822906,524.9083769321442,525.055712223053,525.055712223053,525.055712223053,525.055712223053,525.055712223053,525.055712223053,525.055712223053,525.9429984092712,2,1.0174574851989746,None,,,,,,,,,,,,,,,,,,215,6,2025-03-06_14h46.17.583,comp,2024.2.4,45.67197398824419,2025-03-07 10h55.48.826991 -0500,
98,98,0,filler_random,None,None,None,None,None,None,None,None,None,None,3,3.3237388134002686,None,,,,,0,0,0,0,0,98,98,146,525.9625473022461,,,,,,,,,,,,,,,,,,,,,,,,,,,,,,,,,,,,,,,,,,,,,,,,,,,,,,,,,,,,,,,,,,,,,,,,,,,,,,,,,61.76922637013142,93.43851426423137,181.65660903005408,92.20331716681115,131.1011848301082,192.3264627368983,1.0,1.3,291,-289,480,-284,718,-265,525.944709777832,525.9448115825653,525.9479732513428,525.9625473022461,526.1018869876862,526.1018869876862,526.1018869876862,526.1018869876862,526.1018869876862,526.1018869876862,526.1018869876862,529.3033459186554,3,3.3237388134002686,None,,,,,,,,,,,,,,,,,,215,6,2025-03-06_14h46.17.583,comp,2024.2.4,45.67197398824419,2025-03-07 10h55.48.826991 -0500,
99,99,0,catch,None,None,None,None,None,None,None,None,None,None,1,1.2540593147277832,None,,,,,0,0,0,0,0,99,99,122,529.3193278312683,,,,,,,,,,,,,,,,,,,,,,,,,,,,,,,,,,,,,,,,,,,,,,,,,,,,,,,,,,,,,,,,,,,,,,,,,,,,,,,,,134,191,94,96,95,95,1.0,1.3,240,-278,480,-270,672,-279,529.3053300380707,529.30544257164,529.3090119361877,529.3193278312683,529.4698016643524,529.4698016643524,529.4698016643524,529.4698016643524,529.4698016643524,529.4698016643524,529.4698016643524,530.584892988205,1,1.2540593147277832,None,,,,,,,,,,,,,,,,,,215,6,2025-03-06_14h46.17.583,comp,2024.2.4,45.67197398824419,2025-03-07 10h55.48.826991 -0500,
100,100,0,critical,wdh,35.0,1.0,lower,57.0,133.0,70.0,70.0,133.0,57.0,1,6.04418420791626,None,,,,,0,0,0,0,0,100,100,72,530.6018722057343,,,,,,,,,,,,,,,,,,,,,,,,,,,,,,,,,,,,,,,,,,,,,,,,,,,,,,,,,,,,,,,,,,,,,,,,,,,,,,,,,57.0,133.0,70.0,70.0,133.0,57.0,1.0,1.2,-198,12,0,-17,160,-1,530.585919380188,530.5859572887421,530.5872013568878,530.6018722057343,530.7362654209137,530.7362654209137,530.7362654209137,530.7362654209137,530.7362654209137,530.7362654209137,530.7362654209137,536.6549553871155,1,6.04418420791626,None,,,,,,,,,,,,,,,,,,215,6,2025-03-06_14h46.17.583,comp,2024.2.4,45.67197398824419,2025-03-07 10h55.48.826991 -0500,
101,101,0,critical,dwh,20.0,2.1,lower,78.0,78.0,57.0,133.0,133.0,57.0,2,3.007655143737793,None,,,,,0,0,0,0,0,101,101,6,536.6708476543427,,,,,,,,,,,,,,,,,,,,,,,,,,,,,,,,,,,,,,,,,,,,,,,,,,,,,,,,,,,,,,,,,,,,,,,,,,,,,,,,,78.0,78.0,57.0,133.0,133.0,57.0,2.1,2.11,-202,260,0,273,191,-280,536.6565454006195,536.6566243171692,536.6599307060242,536.6708476543427,536.820431470871,536.820431470871,536.820431470871,536.820431470871,536.820431470871,536.820431470871,536.820431470871,539.6879985332489,2,3.007655143737793,None,,,,,,,,,,,,,,,,,,215,6,2025-03-06_14h46.17.583,comp,2024.2.4,45.67197398824419,2025-03-07 10h55.48.826991 -0500,
102,102,0,critical,whd,20.0,2.1,lower,57.0,133.0,133.0,57.0,78.0,78.0,2,3.723214626312256,None,,,,,0,0,0,0,0,102,102,38,539.7063777446747,,,,,,,,,,,,,,,,,,,,,,,,,,,,,,,,,,,,,,,,,,,,,,,,,,,,,,,,,,,,,,,,,,,,,,,,,,,,,,,,,57.0,133.0,133.0,57.0,78.0,78.0,2.1,2.11,-191,266,0,287,164,-284,539.6895368099213,539.6896176338196,539.6928424835205,539.7063777446747,539.8433427810669,539.8433427810669,539.8433427810669,539.8433427810669,539.8433427810669,539.8433427810669,539.8433427810669,543.4483180046082,2,3.723214626312256,None,,,,,,,,,,,,,,,,,,215,6,2025-03-06_14h46.17.583,comp,2024.2.4,45.67197398824419,2025-03-07 10h55.48.826991 -0500,
103,103,0,critical,whd,20.0,4.0,upper,125.0,200.0,200.0,125.0,141.0,141.0,1,3.945702075958252,None,,,,,0,0,0,0,0,103,103,95,543.4676339626312,,,,,,,,,,,,,,,,,,,,,,,,,,,,,,,,,,,,,,,,,,,,,,,,,,,,,,,,,,,,,,,,,,,,,,,,,,,,,,,,,125.0,200.0,200.0,125.0,141.0,141.0,4.0,4.1,-258,-267,0,-10,229,-264,543.4498643875122,543.449939250946,543.4530844688416,543.4676339626312,543.6071221828461,543.6071221828461,543.6071221828461,543.6071221828461,543.6071221828461,543.6071221828461,543.6071221828461,547.4266214370728,1,3.945702075958252,None,,,,,,,,,,,,,,,,,,215,6,2025-03-06_14h46.17.583,comp,2024.2.4,45.67197398824419,2025-03-07 10h55.48.826991 -0500,
104,104,0,catch,None,None,None,None,None,None,None,None,None,None,1,1.4051129817962646,None,,,,,0,0,0,0,0,104,104,129,547.4412162303925,,,,,,,,,,,,,,,,,,,,,,,,,,,,,,,,,,,,,,,,,,,,,,,,,,,,,,,,,,,,,,,,,,,,,,,,,,,,,,,,,167,158,76,114,113,77,2.1,2.12,-232,-250,0,-263,192,259,547.4281711578369,547.4282379150391,547.4309310913086,547.4412162303925,547.5931046009064,547.5931046009064,547.5931046009064,547.5931046009064,547.5931046009064,547.5931046009064,547.5931046009064,548.8565328121185,1,1.4051129817962646,None,,,,,,,,,,,,,,,,,,215,6,2025-03-06_14h46.17.583,comp,2024.2.4,45.67197398824419,2025-03-07 10h55.48.826991 -0500,
105,105,0,filler_random,None,None,None,None,None,None,None,None,None,None,2,4.099160671234131,None,,,,,0,0,0,0,0,105,105,137,548.8749890327454,,,,,,,,,,,,,,,,,,,,,,,,,,,,,,,,,,,,,,,,,,,,,,,,,,,,,,,,,,,,,,,,,,,,,,,,,,,,,,,,,92.54957761786332,101.90238509216846,68.40475898536732,196.07462574959823,60.00419541334797,69.44331899284013,2.1,2.11,-245,276,0,288,229,-257,548.8583166599274,548.8584494590759,548.8620381355286,548.8749890327454,549.0093438625336,549.0093438625336,549.0093438625336,549.0093438625336,549.0093438625336,549.0093438625336,549.0093438625336,552.9783630371094,2,4.099160671234131,None,,,,,,,,,,,,,,,,,,215,6,2025-03-06_14h46.17.583,comp,2024.2.4,45.67197398824419,2025-03-07 10h55.48.826991 -0500,
106,106,0,filler_square,None,None,None,None,None,None,None,None,None,None,3,1.9317750930786133,None,,,,,0,0,0,0,0,106,106,198,552.9945693016052,,,,,,,,,,,,,,,,,,,,,,,,,,,,,,,,,,,,,,,,,,,,,,,,,,,,,,,,,,,,,,,,,,,,,,,,,,,,,,,,,71.0137156007293,107.57378646960564,64.01175160027863,105.87537791262594,111.09251040511224,111.09251040511224,2.2,2.21,-203,-286,0,252,204,289,552.9803338050842,552.9804201126099,552.9839053153992,552.9945693016052,553.1418318748474,553.1418318748474,553.1418318748474,553.1418318748474,553.1418318748474,553.1418318748474,553.1418318748474,554.9345848560333,3,1.9317750930786133,None,,,,,,,,,,,,,,,,,,215,6,2025-03-06_14h46.17.583,comp,2024.2.4,45.67197398824419,2025-03-07 10h55.48.826991 -0500,
107,107,0,critical,whd,35.0,1.0,upper,125.0,200.0,200.0,125.0,127.0,127.0,2,9.95232367515564,None,,,,,0,0,0,0,0,107,107,85,554.9508385658264,,,,,,,,,,,,,,,,,,,,,,,,,,,,,,,,,,,,,,,,,,,,,,,,,,,,,,,,,,,,,,,,,,,,,,,,,,,,,,,,,125.0,200.0,200.0,125.0,127.0,127.0,1.0,1.1,-738,274,-480,273,-258,288,554.9362163543701,554.9363169670105,554.9399080276489,554.9508385658264,555.0948264598846,555.0948264598846,555.0948264598846,555.0948264598846,555.0948264598846,555.0948264598846,555.0948264598846,564.9142894744873,2,9.95232367515564,None,,,,,,,,,,,,,,,,,,215,6,2025-03-06_14h46.17.583,comp,2024.2.4,45.67197398824419,2025-03-07 10h55.48.826991 -0500,
108,108,0,critical,dhw,20.0,2.1,upper,141.0,141.0,200.0,125.0,125.0,200.0,3,3.7715258598327637,None,,,,,0,0,0,0,0,108,108,27,564.930261850357,,,,,,,,,,,,,,,,,,,,,,,,,,,,,,,,,,,,,,,,,,,,,,,,,,,,,,,,,,,,,,,,,,,,,,,,,,,,,,,,,141.0,141.0,200.0,125.0,125.0,200.0,2.1,2.11,-229,253,0,286,258,-278,564.9158306121826,564.915910243988,564.9194848537445,564.930261850357,565.079699754715,565.079699754715,565.079699754715,565.079699754715,565.079699754715,565.079699754715,565.079699754715,568.7184040546417,3,3.7715258598327637,None,,,,,,,,,,,,,,,,,,215,6,2025-03-06_14h46.17.583,comp,2024.2.4,45.67197398824419,2025-03-07 10h55.48.826991 -0500,
109,109,0,critical,hdw,20.0,2.1,lower,133.0,57.0,78.0,78.0,57.0,133.0,3,4.388974905014038,None,,,,,0,0,0,0,0,109,109,46,568.7367975711823,,,,,,,,,,,,,,,,,,,,,,,,,,,,,,,,,,,,,,,,,,,,,,,,,,,,,,,,,,,,,,,,,,,,,,,,,,,,,,,,,133.0,57.0,78.0,78.0,57.0,133.0,2.1,2.11,-164,289,0,285,202,-257,568.720165014267,568.7202951908112,568.7236578464508,568.7367975711823,568.8817048072815,568.8817048072815,568.8817048072815,568.8817048072815,568.8817048072815,568.8817048072815,568.8817048072815,573.1423268318176,3,4.388974905014038,None,,,,,,,,,,,,,,,,,,215,6,2025-03-06_14h46.17.583,comp,2024.2.4,45.67197398824419,2025-03-07 10h55.48.826991 -0500,
110,110,0,critical,whd,20.0,1.0,upper,125.0,200.0,200.0,125.0,141.0,141.0,1,4.989759683609009,None,,,,,0,0,0,0,0,110,110,91,573.1602630615234,,,,,,,,,,,,,,,,,,,,,,,,,,,,,,,,,,,,,,,,,,,,,,,,,,,,,,,,,,,,,,,,,,,,,,,,,,,,,,,,,125.0,200.0,200.0,125.0,141.0,141.0,1.0,1.2,-258,1,0,-17,229,19,573.1439652442932,573.1440415382385,573.1475503444672,573.1602630615234,573.3065893650055,573.3065893650055,573.3065893650055,573.3065893650055,573.3065893650055,573.3065893650055,573.3065893650055,578.1566760540009,1,4.989759683609009,None,,,,,,,,,,,,,,,,,,215,6,2025-03-06_14h46.17.583,comp,2024.2.4,45.67197398824419,2025-03-07 10h55.48.826991 -0500,
111,111,0,critical,dhw,35.0,3.0,upper,127.0,127.0,200.0,125.0,125.0,200.0,3,1.977179765701294,None,,,,,0,0,0,0,0,111,111,51,578.1728408336639,,,,,,,,,,,,,,,,,,,,,,,,,,,,,,,,,,,,,,,,,,,,,,,,,,,,,,,,,,,,,,,,,,,,,,,,,,,,,,,,,127.0,127.0,200.0,125.0,125.0,200.0,3.0,3.1,-222,254,0,-8,258,-262,578.1586050987244,578.1587884426117,578.1621448993683,578.1728408336639,578.3170058727264,578.3170058727264,578.3170058727264,578.3170058727264,578.3170058727264,578.3170058727264,578.3170058727264,580.1677293777466,3,1.977179765701294,None,,,,,,,,,,,,,,,,,,215,6,2025-03-06_14h46.17.583,comp,2024.2.4,45.67197398824419,2025-03-07 10h55.48.826991 -0500,
112,112,0,critical,whd,20.0,2.1,lower,57.0,133.0,133.0,57.0,78.0,78.0,1,4.602282762527466,None,,,,,0,0,0,0,0,112,112,14,580.1873593330383,,,,,,,,,,,,,,,,,,,,,,,,,,,,,,,,,,,,,,,,,,,,,,,,,,,,,,,,,,,,,,,,,,,,,,,,,,,,,,,,,57.0,133.0,133.0,57.0,78.0,78.0,2.1,2.12,-191,-285,0,-272,164,282,580.1693308353424,580.169408082962,580.1727204322815,580.1873593330383,580.3409867286682,580.3409867286682,580.3409867286682,580.3409867286682,580.3409867286682,580.3409867286682,580.3409867286682,584.7919981479645,1,4.602282762527466,None,,,,,,,,,,,,,,,,,,215,6,2025-03-06_14h46.17.583,comp,2024.2.4,45.67197398824419,2025-03-07 10h55.48.826991 -0500,
113,113,0,critical,dwh,35.0,2.1,lower,70.0,70.0,57.0,133.0,133.0,57.0,2,2.3264083862304688,None,,,,,0,0,0,0,0,113,113,28,584.8080611228943,,,,,,,,,,,,,,,,,,,,,,,,,,,,,,,,,,,,,,,,,,,,,,,,,,,,,,,,,,,,,,,,,,,,,,,,,,,,,,,,,70.0,70.0,57.0,133.0,133.0,57.0,2.1,2.12,-198,-288,0,-273,191,251,584.7935810089111,584.7936587333679,584.7972102165222,584.8080611228943,584.9533307552338,584.9533307552338,584.9533307552338,584.9533307552338,584.9533307552338,584.9533307552338,584.9533307552338,587.1411151885986,2,2.3264083862304688,None,,,,,,,,,,,,,,,,,,215,6,2025-03-06_14h46.17.583,comp,2024.2.4,45.67197398824419,2025-03-07 10h55.48.826991 -0500,
114,114,0,filler_random,None,None,None,None,None,None,None,None,None,None,2,7.688370704650879,None,,,,,0,0,0,0,0,114,114,156,587.1574733257294,,,,,,,,,,,,,,,,,,,,,,,,,,,,,,,,,,,,,,,,,,,,,,,,,,,,,,,,,,,,,,,,,,,,,,,,,,,,,,,,,145.95850381966807,149.2593488613922,143.027161181422,172.73639253798711,85.12142857915136,106.21650561662923,1.0,1.2,-257,-1,0,4,235,16,587.142899274826,587.143031835556,587.1468107700348,587.1574733257294,587.3083353042603,587.3083353042603,587.3083353042603,587.3083353042603,587.3083353042603,587.3083353042603,587.3083353042603,594.8582074642181,2,7.688370704650879,None,,,,,,,,,,,,,,,,,,215,6,2025-03-06_14h46.17.583,comp,2024.2.4,45.67197398824419,2025-03-07 10h55.48.826991 -0500,
115,115,0,critical,hdw,35.0,2.1,upper,200.0,125.0,127.0,127.0,125.0,200.0,3,3.600841522216797,None,,,,,0,0,0,0,0,115,115,45,594.8769874572754,,,,,,,,,,,,,,,,,,,,,,,,,,,,,,,,,,,,,,,,,,,,,,,,,,,,,,,,,,,,,,,,,,,,,,,,,,,,,,,,,200.0,125.0,127.0,127.0,125.0,200.0,2.1,2.11,-222,268,0,262,260,-257,594.8599071502686,594.8599834442139,594.8641266822815,594.8769874572754,595.0231580734253,595.0231580734253,595.0231580734253,595.0231580734253,595.0231580734253,595.0231580734253,595.0231580734253,598.4943373203278,3,3.600841522216797,None,,,,,,,,,,,,,,,,,,215,6,2025-03-06_14h46.17.583,comp,2024.2.4,45.67197398824419,2025-03-07 10h55.48.826991 -0500,
116,116,0,filler_random,None,None,None,None,None,None,None,None,None,None,2,3.6635661125183105,None,,,,,0,0,0,0,0,116,116,133,598.5107269287109,,,,,,,,,,,,,,,,,,,,,,,,,,,,,,,,,,,,,,,,,,,,,,,,,,,,,,,,,,,,,,,,,,,,,,,,,,,,,,,,,92.45905595273423,177.24148392218876,148.81000174910267,135.4426039368302,80.58782040532091,185.98420489559413,4.0,4.2,-252,17,0,-261,257,-3,598.4961688518524,598.4962463378906,598.5002536773682,598.5107269287109,598.6606361865997,598.6606361865997,598.6606361865997,598.6606361865997,598.6606361865997,598.6606361865997,598.6606361865997,602.1811566352844,2,3.6635661125183105,None,,,,,,,,,,,,,,,,,,215,6,2025-03-06_14h46.17.583,comp,2024.2.4,45.67197398824419,2025-03-07 10h55.48.826991 -0500,
117,117,0,critical,hdw,35.0,1.0,lower,133.0,57.0,70.0,70.0,57.0,133.0,3,3.462897539138794,None,,,,,0,0,0,0,0,117,117,108,602.1987085342407,,,,,,,,,,,,,,,,,,,,,,,,,,,,,,,,,,,,,,,,,,,,,,,,,,,,,,,,,,,,,,,,,,,,,,,,,,,,,,,,,133.0,57.0,70.0,70.0,57.0,133.0,1.0,1.3,320,-270,480,-290,678,-277,602.1825828552246,602.1826572418213,602.1857063770294,602.1987085342407,602.3414225578308,602.3414225578308,602.3414225578308,602.3414225578308,602.3414225578308,602.3414225578308,602.3414225578308,605.6791937351227,3,3.462897539138794,None,,,,,,,,,,,,,,,,,,215,6,2025-03-06_14h46.17.583,comp,2024.2.4,45.67197398824419,2025-03-07 10h55.48.826991 -0500,
118,118,0,filler_random,None,None,None,None,None,None,None,None,None,None,1,2.594022035598755,None,,,,,0,0,0,0,0,118,118,169,605.6997013092041,,,,,,,,,,,,,,,,,,,,,,,,,,,,,,,,,,,,,,,,,,,,,,,,,,,,,,,,,,,,,,,,,,,,,,,,,,,,,,,,,198.93455709274082,119.65078263517854,135.75003171514726,60.748444488152316,122.35775781841171,102.86371373055144,2.1,2.11,-186,285,0,251,178,-266,605.6810529232025,605.6811347007751,605.6844894886017,605.6997013092041,605.8461177349091,605.8461177349091,605.8461177349091,605.8461177349091,605.8461177349091,605.8461177349091,605.8461177349091,608.3124575614929,1,2.594022035598755,None,,,,,,,,,,,,,,,,,,215,6,2025-03-06_14h46.17.583,comp,2024.2.4,45.67197398824419,2025-03-07 10h55.48.826991 -0500,
119,119,0,critical,wdh,20.0,1.0,lower,57.0,133.0,78.0,78.0,133.0,57.0,3,3.721221446990967,None,,,,,0,0,0,0,0,119,119,78,608.3332087993622,,,,,,,,,,,,,,,,,,,,,,,,,,,,,,,,,,,,,,,,,,,,,,,,,,,,,,,,,,,,,,,,,,,,,,,,,,,,,,,,,57.0,133.0,78.0,78.0,133.0,57.0,1.0,1.3,278,-281,480,-266,644,-264,608.3141446113586,608.3142197132111,608.3178472518921,608.3332087993622,608.4764866828918,608.4764866828918,608.4764866828918,608.4764866828918,608.4764866828918,608.4764866828918,608.4764866828918,612.0618221759796,3,3.721221446990967,None,,,,,,,,,,,,,,,,,,215,6,2025-03-06_14h46.17.583,comp,2024.2.4,45.67197398824419,2025-03-07 10h55.48.826991 -0500,
120,120,0,filler_random,None,None,None,None,None,None,None,None,None,None,1,5.568152189254761,None,,,,,0,0,0,0,0,120,120,152,612.0779592990875,,,,,,,,,,,,,,,,,,,,,,,,,,,,,,,,,,,,,,,,,,,,,,,,,,,,,,,,,,,,,,,,,,,,,,,,,,,,,,,,,182.0288864256175,161.37222266951872,140.40302124231096,127.08620298741508,185.9796944631129,125.39777418745942,3.0,3.1,-240,278,0,1,222,-279,612.0636003017426,612.0636780261993,612.067266702652,612.0779592990875,612.2290074825287,612.2290074825287,612.2290074825287,612.2290074825287,612.2290074825287,612.2290074825287,612.2290074825287,617.6490159034729,1,5.568152189254761,None,,,,,,,,,,,,,,,,,,215,6,2025-03-06_14h46.17.583,comp,2024.2.4,45.67197398824419,2025-03-07 10h55.48.826991 -0500,
121,121,0,critical,wdh,20.0,3.0,lower,57.0,133.0,78.0,78.0,133.0,57.0,1,2.2755939960479736,None,,,,,0,0,0,0,0,121,121,80,617.6660716533661,,,,,,,,,,,,,,,,,,,,,,,,,,,,,,,,,,,,,,,,,,,,,,,,,,,,,,,,,,,,,,,,,,,,,,,,,,,,,,,,,57.0,133.0,78.0,78.0,133.0,57.0,3.0,3.2,-202,-266,0,-12,164,255,617.6507084369659,617.6508455276489,617.65442943573,617.6660716533661,617.8135766983032,617.8135766983032,617.8135766983032,617.8135766983032,617.8135766983032,617.8135766983032,617.8135766983032,619.9544496536255,1,2.2755939960479736,None,,,,,,,,,,,,,,,,,,215,6,2025-03-06_14h46.17.583,comp,2024.2.4,45.67197398824419,2025-03-07 10h55.48.826991 -0500,
122,122,0,critical,dhw,35.0,1.0,lower,70.0,70.0,133.0,57.0,57.0,133.0,2,7.606253147125244,None,,,,,0,0,0,0,0,122,122,48,619.9754109382629,,,,,,,,,,,,,,,,,,,,,,,,,,,,,,,,,,,,,,,,,,,,,,,,,,,,,,,,,,,,,,,,,,,,,,,,,,,,,,,,,70.0,70.0,133.0,57.0,57.0,133.0,1.0,1.1,-640,283,-480,265,-289,257,619.9560976028442,619.9561758041382,619.9598066806793,619.9754109382629,620.1141078472137,620.1141078472137,620.1141078472137,620.1141078472137,620.1141078472137,620.1141078472137,620.1141078472137,627.5840153694153,2,7.606253147125244,None,,,,,,,,,,,,,,,,,,215,6,2025-03-06_14h46.17.583,comp,2024.2.4,45.67197398824419,2025-03-07 10h55.48.826991 -0500,
123,123,0,critical,dhw,20.0,3.0,lower,78.0,78.0,133.0,57.0,57.0,133.0,3,2.701568841934204,None,,,,,0,0,0,0,0,123,123,56,627.6001019477844,,,,,,,,,,,,,,,,,,,,,,,,,,,,,,,,,,,,,,,,,,,,,,,,,,,,,,,,,,,,,,,,,,,,,,,,,,,,,,,,,78.0,78.0,133.0,57.0,57.0,133.0,3.0,3.1,-164,257,0,-10,191,-284,627.5855710506439,627.5856513977051,627.5893783569336,627.6001019477844,627.7478466033936,627.7478466033936,627.7478466033936,627.7478466033936,627.7478466033936,627.7478466033936,627.7478466033936,630.317676782608,3,2.701568841934204,None,,,,,,,,,,,,,,,,,,215,6,2025-03-06_14h46.17.583,comp,2024.2.4,45.67197398824419,2025-03-07 10h55.48.826991 -0500,
124,124,0,filler_random,None,None,None,None,None,None,None,None,None,None,1,3.359931707382202,None,,,,,0,0,0,0,0,124,124,168,630.3340611457825,,,,,,,,,,,,,,,,,,,,,,,,,,,,,,,,,,,,,,,,,,,,,,,,,,,,,,,,,,,,,,,,,,,,,,,,,,,,,,,,,143.55431516350285,185.79892189912871,78.13605632231219,181.6711515036381,129.90191023009277,169.23945445585798,2.1,2.11,-280,278,0,261,271,-265,630.3194489479065,630.3195304870605,630.3237826824188,630.3340611457825,630.4882998466492,630.4882998466492,630.4882998466492,630.4882998466492,630.4882998466492,630.4882998466492,630.4882998466492,633.7108900547028,1,3.359931707382202,None,,,,,,,,,,,,,,,,,,215,6,2025-03-06_14h46.17.583,comp,2024.2.4,45.67197398824419,2025-03-07 10h55.48.826991 -0500,
125,125,0,critical,whd,20.0,1.0,lower,57.0,133.0,133.0,57.0,78.0,78.0,2,4.927193641662598,None,,,,,0,0,0,0,0,125,125,90,633.7265703678131,,,,,,,,,,,,,,,,,,,,,,,,,,,,,,,,,,,,,,,,,,,,,,,,,,,,,,,,,,,,,,,,,,,,,,,,,,,,,,,,,57.0,133.0,133.0,57.0,78.0,78.0,1.0,1.2,-191,10,0,20,164,18,633.7124254703522,633.7125024795532,633.716103553772,633.7265703678131,633.868273973465,633.868273973465,633.868273973465,633.868273973465,633.868273973465,633.868273973465,633.868273973465,638.6699111461639,2,4.927193641662598,None,,,,,,,,,,,,,,,,,,215,6,2025-03-06_14h46.17.583,comp,2024.2.4,45.67197398824419,2025-03-07 10h55.48.826991 -0500,
126,126,0,critical,wdh,20.0,2.1,lower,57.0,133.0,78.0,78.0,133.0,57.0,3,4.096537113189697,None,,,,,0,0,0,0,0,126,126,34,638.6858787536621,,,,,,,,,,,,,,,,,,,,,,,,,,,,,,,,,,,,,,,,,,,,,,,,,,,,,,,,,,,,,,,,,,,,,,,,,,,,,,,,,57.0,133.0,78.0,78.0,133.0,57.0,2.1,2.12,-202,-288,0,-287,164,286,638.6715879440308,638.6717209815979,638.675511598587,638.6858787536621,638.8343493938446,638.8343493938446,638.8343493938446,638.8343493938446,638.8343493938446,638.8343493938446,638.8343493938446,642.7902488708496,3,4.096537113189697,None,,,,,,,,,,,,,,,,,,215,6,2025-03-06_14h46.17.583,comp,2024.2.4,45.67197398824419,2025-03-07 10h55.48.826991 -0500,
127,127,0,critical,dwh,20.0,1.0,upper,141.0,141.0,125.0,200.0,200.0,125.0,2,5.702949285507202,None,,,,,0,0,0,0,0,127,127,67,642.8070046901703,,,,,,,,,,,,,,,,,,,,,,,,,,,,,,,,,,,,,,,,,,,,,,,,,,,,,,,,,,,,,,,,,,,,,,,,,,,,,,,,,141.0,141.0,125.0,200.0,200.0,125.0,1.0,1.2,-266,7,0,-6,258,9,642.7920205593109,642.7921521663666,642.79563164711,642.8070046901703,642.9535093307495,642.9535093307495,642.9535093307495,642.9535093307495,642.9535093307495,642.9535093307495,642.9535093307495,648.5245130062103,2,5.702949285507202,None,,,,,,,,,,,,,,,,,,215,6,2025-03-06_14h46.17.583,comp,2024.2.4,45.67197398824419,2025-03-07 10h55.48.826991 -0500,
128,128,0,critical,hwd,35.0,4.0,lower,133.0,57.0,57.0,133.0,70.0,70.0,1,2.8240206241607666,None,,,,,0,0,0,0,0,128,128,100,648.5424070358276,,,,,,,,,,,,,,,,,,,,,,,,,,,,,,,,,,,,,,,,,,,,,,,,,,,,,,,,,,,,,,,,,,,,,,,,,,,,,,,,,133.0,57.0,57.0,133.0,70.0,70.0,4.0,4.2,-191,-12,0,-277,198,-6,648.5262274742126,648.5263488292694,648.5296444892883,648.5424070358276,648.6921813488007,648.6921813488007,648.6921813488007,648.6921813488007,648.6921813488007,648.6921813488007,648.6921813488007,651.3742368221283,1,2.8240206241607666,None,,,,,,,,,,,,,,,,,,215,6,2025-03-06_14h46.17.583,comp,2024.2.4,45.67197398824419,2025-03-07 10h55.48.826991 -0500,
129,129,0,critical,whd,35.0,4.0,lower,57.0,133.0,133.0,57.0,70.0,70.0,1,2.4571049213409424,None,,,,,0,0,0,0,0,129,129,88,651.3903679847717,,,,,,,,,,,,,,,,,,,,,,,,,,,,,,,,,,,,,,,,,,,,,,,,,,,,,,,,,,,,,,,,,,,,,,,,,,,,,,,,,57.0,133.0,133.0,57.0,70.0,70.0,4.0,4.1,-191,-267,0,3,160,-265,651.3757939338684,651.3759381771088,651.3796010017395,651.3903679847717,651.5474293231964,651.5474293231964,651.5474293231964,651.5474293231964,651.5474293231964,651.5474293231964,651.5474293231964,653.8595852851868,1,2.4571049213409424,None,,,,,,,,,,,,,,,,,,215,6,2025-03-06_14h46.17.583,comp,2024.2.4,45.67197398824419,2025-03-07 10h55.48.826991 -0500,
130,130,0,filler_random,None,None,None,None,None,None,None,None,None,None,1,1.266127109527588,None,,,,,0,0,0,0,0,130,130,161,653.8756968975067,,,,,,,,,,,,,,,,,,,,,,,,,,,,,,,,,,,,,,,,,,,,,,,,,,,,,,,,,,,,,,,,,,,,,,,,,,,,,,,,,144.47792036002664,106.66108819965137,131.78497888587717,60.84564476660806,61.885684205152984,78.59539403547005,4.0,4.1,-180,-260,0,18,166,-286,653.8614597320557,653.8615880012512,653.865051984787,653.8756968975067,654.0243141651154,654.0243141651154,654.0243141651154,654.0243141651154,654.0243141651154,654.0243141651154,654.0243141651154,655.1608142852783,1,1.266127109527588,None,,,,,,,,,,,,,,,,,,215,6,2025-03-06_14h46.17.583,comp,2024.2.4,45.67197398824419,2025-03-07 10h55.48.826991 -0500,
131,131,0,critical,dhw,20.0,1.0,lower,78.0,78.0,133.0,57.0,57.0,133.0,3,5.621647357940674,None,,,,,0,0,0,0,0,131,131,54,655.1772131919861,,,,,,,,,,,,,,,,,,,,,,,,,,,,,,,,,,,,,,,,,,,,,,,,,,,,,,,,,,,,,,,,,,,,,,,,,,,,,,,,,78.0,78.0,133.0,57.0,57.0,133.0,1.0,1.1,-644,254,-480,290,-289,272,655.1623868942261,655.1624603271484,655.1660079956055,655.1772131919861,655.325172662735,655.325172662735,655.325172662735,655.325172662735,655.325172662735,655.325172662735,655.325172662735,660.8101959228516,3,5.621647357940674,None,,,,,,,,,,,,,,,,,,215,6,2025-03-06_14h46.17.583,comp,2024.2.4,45.67197398824419,2025-03-07 10h55.48.826991 -0500,
132,132,0,filler_random,None,None,None,None,None,None,None,None,None,None,1,3.075233221054077,None,,,,,0,0,0,0,0,132,132,136,660.8275518417358,,,,,,,,,,,,,,,,,,,,,,,,,,,,,,,,,,,,,,,,,,,,,,,,,,,,,,,,,,,,,,,,,,,,,,,,,,,,,,,,,159.22574485421666,183.34609562115992,75.91607961706669,75.61699507846535,131.6769442594349,192.01032976818345,2.1,2.12,-225,-254,0,-265,230,268,660.8120076656342,660.8121438026428,660.8159279823303,660.8275518417358,660.977082490921,660.977082490921,660.977082490921,660.977082490921,660.977082490921,660.977082490921,660.977082490921,663.9124648571014,1,3.075233221054077,None,,,,,,,,,,,,,,,,,,215,6,2025-03-06_14h46.17.583,comp,2024.2.4,45.67197398824419,2025-03-07 10h55.48.826991 -0500,
133,133,0,critical,wdh,35.0,2.1,upper,125.0,200.0,127.0,127.0,200.0,125.0,3,8.07700228691101,None,,,,,0,0,0,0,0,133,133,33,663.9288771152496,,,,,,,,,,,,,,,,,,,,,,,,,,,,,,,,,,,,,,,,,,,,,,,,,,,,,,,,,,,,,,,,,,,,,,,,,,,,,,,,,125.0,200.0,127.0,127.0,200.0,125.0,2.1,2.11,-260,273,0,289,222,-254,663.914169549942,663.9142673015594,663.9179887771606,663.9288771152496,664.0786118507385,664.0786118507385,664.0786118507385,664.0786118507385,664.0786118507385,664.0786118507385,664.0786118507385,672.0152373313904,3,8.07700228691101,None,,,,,,,,,,,,,,,,,,215,6,2025-03-06_14h46.17.583,comp,2024.2.4,45.67197398824419,2025-03-07 10h55.48.826991 -0500,
134,134,0,filler_random,None,None,None,None,None,None,None,None,None,None,3,1.99741792678833,None,,,,,0,0,0,0,0,134,134,164,672.0323281288147,,,,,,,,,,,,,,,,,,,,,,,,,,,,,,,,,,,,,,,,,,,,,,,,,,,,,,,,,,,,,,,,,,,,,,,,,,,,,,,,,181.3570137341609,131.10669031135325,157.24999266854576,177.63675122758036,195.41500074294632,176.69581804517688,3.0,3.2,-250,-286,0,12,273,265,672.01704454422,672.0171780586243,672.021303653717,672.0323281288147,672.182427406311,672.182427406311,672.182427406311,672.182427406311,672.182427406311,672.182427406311,672.182427406311,674.0316848754883,3,1.99741792678833,None,,,,,,,,,,,,,,,,,,215,6,2025-03-06_14h46.17.583,comp,2024.2.4,45.67197398824419,2025-03-07 10h55.48.826991 -0500,
135,135,0,filler_square,None,None,None,None,None,None,None,None,None,None,2,2.4142327308654785,None,,,,,0,0,0,0,0,135,135,207,674.0479674339294,,,,,,,,,,,,,,,,,,,,,,,,,,,,,,,,,,,,,,,,,,,,,,,,,,,,,,,,,,,,,,,,,,,,,,,,,,,,,,,,,107.6281635007226,102.33721357961147,125.62492059756428,125.62492059756428,114.13109193938251,91.9438867828897,2.2,2.21,-210,-266,0,279,205,277,674.033486366272,674.033566236496,674.0372817516327,674.0479674339294,674.2030246257782,674.2030246257782,674.2030246257782,674.2030246257782,674.2030246257782,674.2030246257782,674.2030246257782,676.4642083644867,2,2.4142327308654785,None,,,,,,,,,,,,,,,,,,215,6,2025-03-06_14h46.17.583,comp,2024.2.4,45.67197398824419,2025-03-07 10h55.48.826991 -0500,
136,136,0,filler_square,None,None,None,None,None,None,None,None,None,None,1,1.9809749126434326,None,,,,,0,0,0,0,0,136,136,194,676.4812257289886,,,,,,,,,,,,,,,,,,,,,,,,,,,,,,,,,,,,,,,,,,,,,,,,,,,,,,,,,,,,,,,,,,,,,,,,,,,,,,,,,116.36279339390407,116.36279339390407,85.79570202944639,80.44369776104531,103.55154142661254,87.02781003629892,3.0,3.2,-194,-287,0,-12,180,251,676.4659538269043,676.466028213501,676.4694578647614,676.4812257289886,676.6192872524261,676.6192872524261,676.6192872524261,676.6192872524261,676.6192872524261,676.6192872524261,676.6192872524261,678.4648385047913,1,1.9809749126434326,None,,,,,,,,,,,,,,,,,,215,6,2025-03-06_14h46.17.583,comp,2024.2.4,45.67197398824419,2025-03-07 10h55.48.826991 -0500,
137,137,0,critical,dwh,35.0,2.1,upper,127.0,127.0,125.0,200.0,200.0,125.0,2,3.3803887367248535,None,,,,,0,0,0,0,0,137,137,29,678.4818429946899,,,,,,,,,,,,,,,,,,,,,,,,,,,,,,,,,,,,,,,,,,,,,,,,,,,,,,,,,,,,,,,,,,,,,,,,,,,,,,,,,127.0,127.0,125.0,200.0,200.0,125.0,2.1,2.11,-260,266,0,269,258,-253,678.4664835929871,678.4665577411652,678.4702169895172,678.4818429946899,678.6338224411011,678.6338224411011,678.6338224411011,678.6338224411011,678.6338224411011,678.6338224411011,678.6338224411011,681.8696529865265,2,3.3803887367248535,None,,,,,,,,,,,,,,,,,,215,6,2025-03-06_14h46.17.583,comp,2024.2.4,45.67197398824419,2025-03-07 10h55.48.826991 -0500,
138,138,0,critical,dhw,35.0,2.1,lower,70.0,70.0,133.0,57.0,57.0,133.0,2,5.773972272872925,None,,,,,0,0,0,0,0,138,138,0,681.8884465694427,,,,,,,,,,,,,,,,,,,,,,,,,,,,,,,,,,,,,,,,,,,,,,,,,,,,,,,,,,,,,,,,,,,,,,,,,,,,,,,,,70.0,70.0,133.0,57.0,57.0,133.0,2.1,2.11,-160,290,0,259,191,-259,681.8715896606445,681.8717164993286,681.8752071857452,681.8884465694427,682.0411443710327,682.0411443710327,682.0411443710327,682.0411443710327,682.0411443710327,682.0411443710327,682.0411443710327,687.6691262722015,2,5.773972272872925,None,,,,,,,,,,,,,,,,,,215,6,2025-03-06_14h46.17.583,comp,2024.2.4,45.67197398824419,2025-03-07 10h55.48.826991 -0500,
139,139,0,critical,whd,20.0,2.1,upper,125.0,200.0,200.0,125.0,141.0,141.0,1,7.009623765945435,None,,,,,0,0,0,0,0,139,139,15,687.6858284473419,,,,,,,,,,,,,,,,,,,,,,,,,,,,,,,,,,,,,,,,,,,,,,,,,,,,,,,,,,,,,,,,,,,,,,,,,,,,,,,,,125.0,200.0,200.0,125.0,141.0,141.0,2.1,2.11,-258,280,0,290,229,-282,687.6707146167755,687.6708161830902,687.6750791072845,687.6858284473419,687.8325774669647,687.8325774669647,687.8325774669647,687.8325774669647,687.8325774669647,687.8325774669647,687.8325774669647,694.7064080238342,1,7.009623765945435,None,,,,,,,,,,,,,,,,,,215,6,2025-03-06_14h46.17.583,comp,2024.2.4,45.67197398824419,2025-03-07 10h55.48.826991 -0500,
140,140,0,filler_square,None,None,None,None,None,None,None,None,None,None,2,1.730987787246704,None,,,,,0,0,0,0,0,140,140,203,694.723274230957,,,,,,,,,,,,,,,,,,,,,,,,,,,,,,,,,,,,,,,,,,,,,,,,,,,,,,,,,,,,,,,,,,,,,,,,,,,,,,,,,100.75060578230358,59.55650076281977,103.48212582821813,103.48212582821813,70.41232553648204,97.00122061898293,1.0,1.1,-658,270,-480,272,-284,256,694.7084059715271,694.7084882259369,694.7125251293182,694.723274230957,694.8795762062073,694.8795762062073,694.8795762062073,694.8795762062073,694.8795762062073,694.8795762062073,694.8795762062073,696.4714584350586,2,1.730987787246704,None,,,,,,,,,,,,,,,,,,215,6,2025-03-06_14h46.17.583,comp,2024.2.4,45.67197398824419,2025-03-07 10h55.48.826991 -0500,
