thisN,thisTrialN,thisRepN,effect,order,distance,config,diag,h_1,w_1,h_2,w_2,h_3,w_3,rect_choice.keys,rect_choice.rt,rect_choice.duration,instructions_loop.thisRepN,instructions_loop.thisTrialN,instructions_loop.thisN,instructions_loop.thisIndex,blocks.thisRepN,blocks.thisTrialN,blocks.thisN,blocks.thisIndex,trials.thisRepN,trials.thisTrialN,trials.thisN,trials.thisIndex,thisRow.t,notes,consent.started,agree_button.started,decline_button.started,consent_img.started,mouse.started,consent.stopped,agree_button.numClicks,agree_button.timesOn,agree_button.timesOff,decline_button.numClicks,decline_button.timesOn,decline_button.timesOff,mouse.x,mouse.y,mouse.leftButton,mouse.midButton,mouse.rightButton,mouse.time,mouse.clicked_name,exp_params.started,exp_params.stopped,welcome.started,welcome_text.started,welcome.stopped,instructions_1.started,instructions_1_text_1.started,instructions_1_text_2.started,key_resp.started,instructions_1.stopped,instructions_loop.key_resp.keys,instructions_loop.key_resp.rt,instructions_loop.key_resp.duration,instructions_2.started,instructions_2_text_1.started,instructions_2_text_2.started,key_resp_2.started,instructions_2.stopped,instructions_loop.key_resp_2.keys,instructions_loop.key_resp_2.rt,instructions_loop.key_resp_2.duration,instructions_3.started,instructions_3_text_1.started,r1_instr3.started,r2_instr3.started,r3_instr3.started,r1_instr3_label.started,r2_instr3_label.started,r3_instr3_label.started,instructions_3_text_3.started,instructions_3_text_4.started,key_resp_3.started,instructions_3.stopped,instructions_loop.key_resp_3.keys,instructions_loop.key_resp_3.rt,instructions_loop.key_resp_3.duration,instructions_4.started,instructions_4_text_1.started,instructions_4_text_3.started,instructions_4_text_2.started,key_resp_4.started,instructions_4.stopped,instructions_loop.key_resp_4.keys,instructions_loop.key_resp_4.rt,instructions_loop.key_resp_4.duration,instructions_5.started,instructions_5_text_1.started,instructions_5_text_2.started,key_resp_5.started,instructions_5.stopped,instructions_loop.key_resp_5.keys,instructions_loop.key_resp_5.rt,instructions_loop.key_resp_5.duration,start_exp.started,start_exp_text.started,key_resp_6.started,start_exp.stopped,key_resp_6.keys,key_resp_6.rt,key_resp_6.duration,h_1_tmp,w_1_tmp,h_2_tmp,w_2_tmp,h_3_tmp,w_3_tmp,config_tmp,config_tmp_1,r_1_x,r_1_y,r_2_x,r_2_y,r_3_x,r_3_y,pre_trial.started,pre_trial.stopped,choice_trial.started,rect_choice.started,r_1.started,r_2.started,r_3.started,r_1_label.started,r_2_label.started,r_3_label.started,prompt.started,choice_trial.stopped,trials.rect_choice.keys,trials.rect_choice.rt,trials.rect_choice.duration,end_block.started,end_block_text.started,end_block.stopped,end.started,end_text.started,key_resp_7.started,end.stopped,key_resp_7.keys,key_resp_7.rt,key_resp_7.duration,debriefing.started,debrief_form.started,end_debrief.started,debriefing.stopped,end_debrief.keys,end_debrief.rt,end_debrief.duration,participant,computer,date,expName,psychopyVersion,frameRate,expStart,
,,,,,,,,,,,,,,,,,,,,,,,,,,,,,,,0.014715909957885742,0.03498959541320801,0.03498959541320801,0.03498959541320801,0.014521598815917969,81.85543775558472,1,[81.81796836853027],[81.8180193901062],0,,,"[-176.0, -251.0, -229.0, -248.0, -248.0, -248.0, -250.0, -251.0, -120.0, -166.0, 935.0, -70.0]","[201.0, 203.0, 207.0, 202.0, 202.0, 202.0, 201.0, 201.0, 204.0, 195.0, 211.0, -502.0]","[1, 1, 1, 1, 1, 1, 1, 1, 1, 1, 1, 1]","[0, 0, 0, 0, 0, 0, 0, 0, 0, 0, 0, 0]","[0, 0, 0, 0, 0, 0, 0, 0, 0, 0, 0, 0]","[18.713560342788696, 19.95953679084778, 20.52801752090454, 20.945164442062378, 21.2101149559021, 21.33313250541687, 21.591687440872192, 21.78123426437378, 23.169740915298462, 24.972126245498657, 25.545568227767944, 81.84012603759766]","[None, None, None, None, None, None, None, None, None, None, None, 'agree_button']",,,,,,,,,,,,,,,,,,,,,,,,,,,,,,,,,,,,,,,,,,,,,,,,,,,,,,,,,,,,,,,,,,,,,,,,,,,,,,,,,,,,,,,,,,,,,,,,,,,,,,,,,,,216,1,2025-03-07_13h25.56.350,comp,2024.2.4,56.89830402708781,2025-03-07 13h28.25.255337 -0500,
,,,,,,,,,,,,,,,,,,,,,,,,,,,,,,,,,,,,,,,,,,,,,,,,,,81.85650134086609,81.8565685749054,,,,,,,,,,,,,,,,,,,,,,,,,,,,,,,,,,,,,,,,,,,,,,,,,,,,,,,,,,,,,,,,,,,,,,,,,,,,,,,,,,,,,,,,,,,,,,,,,,,,,,,,,216,1,2025-03-07_13h25.56.350,comp,2024.2.4,56.89830402708781,2025-03-07 13h28.25.255337 -0500,
,,,,,,,,,,,,,,,,,,,,,,,,,,,,,,,,,,,,,,,,,,,,,,,,,,,,81.85661196708679,81.86960077285767,83.85799741744995,,,,,,,,,,,,,,,,,,,,,,,,,,,,,,,,,,,,,,,,,,,,,,,,,,,,,,,,,,,,,,,,,,,,,,,,,,,,,,,,,,,,,,,,,,,,,,,,,,,,,,216,1,2025-03-07_13h25.56.350,comp,2024.2.4,56.89830402708781,2025-03-07 13h28.25.255337 -0500,
0,0,0,,,,,,,,,,,,,,,0,0,0,0,,,,,,,,,83.87588667869568,,,,,,,,,,,,,,,,,,,,,,,,,,83.85893225669861,83.87588667869568,83.87588667869568,85.36436605453491,90.64270210266113,space,5.259561777114868,None,90.64285492897034,90.65869069099426,90.65869069099426,92.1421103477478,93.81220722198486,space,1.6656386852264404,None,93.81235408782959,93.84733057022095,93.84733057022095,93.84733057022095,93.84733057022095,93.84733057022095,93.84733057022095,93.84733057022095,93.84733057022095,93.84733057022095,95.32929110527039,98.70483112335205,space,3.3584353923797607,None,98.704998254776,98.72357535362244,98.72357535362244,98.72357535362244,100.21360659599304,103.5982711315155,space,3.369478464126587,None,103.59842133522034,103.61340093612671,103.61340093612671,105.0981194972992,105.62858629226685,space,0.5257105827331543,None,105.62881207466125,105.64677023887634,105.64677023887634,106.66592764854431,space,1.0090062618255615,None,,,,,,,,,,,,,,,,,,,,,,,,,,,,,,,,,,,,,,,,,,,,,,,216,1,2025-03-07_13h25.56.350,comp,2024.2.4,56.89830402708781,2025-03-07 13h28.25.255337 -0500,
0,0,0,filler_random,None,None,None,None,None,None,None,None,None,None,3,2.072676181793213,None,,,,,0,0,0,0,0,0,0,166,106.71044993400574,,,,,,,,,,,,,,,,,,,,,,,,,,,,,,,,,,,,,,,,,,,,,,,,,,,,,,,,,,,,,,,,,,,,,,,,,,,,,,,,,78.07649898046824,170.29032477637685,61.924031357084175,191.57119997301183,108.37490326575943,154.3709917124085,2.1,2.12,-277,-265,0,-255,269,261,106.69749712944031,106.6975507736206,106.69937229156494,106.71044993400574,106.85676288604736,106.85676288604736,106.85676288604736,106.85676288604736,106.85676288604736,106.85676288604736,106.85676288604736,108.7983021736145,3,2.072676181793213,None,,,,,,,,,,,,,,,,,,216,1,2025-03-07_13h25.56.350,comp,2024.2.4,56.89830402708781,2025-03-07 13h28.25.255337 -0500,
1,1,0,critical,whd,20.0,1.0,upper,125.0,200.0,200.0,125.0,141.0,141.0,1,2.2057201862335205,None,,,,,0,0,0,0,0,1,1,91,108.81734132766724,,,,,,,,,,,,,,,,,,,,,,,,,,,,,,,,,,,,,,,,,,,,,,,,,,,,,,,,,,,,,,,,,,,,,,,,,,,,,,,,,125.0,200.0,200.0,125.0,141.0,141.0,1.0,1.2,-258,14,0,-7,229,-7,108.79987096786499,108.7999746799469,108.80343961715698,108.81734132766724,108.9681077003479,108.9681077003479,108.9681077003479,108.9681077003479,108.9681077003479,108.9681077003479,108.9681077003479,111.03908228874207,1,2.2057201862335205,None,,,,,,,,,,,,,,,,,,216,1,2025-03-07_13h25.56.350,comp,2024.2.4,56.89830402708781,2025-03-07 13h28.25.255337 -0500,
2,2,0,critical,dwh,20.0,2.1,lower,78.0,78.0,57.0,133.0,133.0,57.0,1,5.247780799865723,None,,,,,0,0,0,0,0,2,2,30,111.05530333518982,,,,,,,,,,,,,,,,,,,,,,,,,,,,,,,,,,,,,,,,,,,,,,,,,,,,,,,,,,,,,,,,,,,,,,,,,,,,,,,,,78.0,78.0,57.0,133.0,133.0,57.0,2.1,2.12,-202,-270,0,-272,191,282,111.04099202156067,111.04110860824585,111.0441586971283,111.05530333518982,111.2011411190033,111.2011411190033,111.2011411190033,111.2011411190033,111.2011411190033,111.2011411190033,111.2011411190033,116.31874179840088,1,5.247780799865723,None,,,,,,,,,,,,,,,,,,216,1,2025-03-07_13h25.56.350,comp,2024.2.4,56.89830402708781,2025-03-07 13h28.25.255337 -0500,
3,3,0,critical,dhw,35.0,1.0,upper,127.0,127.0,200.0,125.0,125.0,200.0,3,1.0320556163787842,None,,,,,0,0,0,0,0,3,3,49,116.33511543273926,,,,,,,,,,,,,,,,,,,,,,,,,,,,,,,,,,,,,,,,,,,,,,,,,,,,,,,,,,,,,,,,,,,,,,,,,,,,,,,,,127.0,127.0,200.0,125.0,125.0,200.0,1.0,1.2,-222,18,0,3,258,-11,116.3203125,116.32039332389832,116.32454538345337,116.33511543273926,116.48921823501587,116.48921823501587,116.48921823501587,116.48921823501587,116.48921823501587,116.48921823501587,116.48921823501587,117.36991882324219,3,1.0320556163787842,None,,,,,,,,,,,,,,,,,,216,1,2025-03-07_13h25.56.350,comp,2024.2.4,56.89830402708781,2025-03-07 13h28.25.255337 -0500,
4,4,0,critical,wdh,20.0,2.1,upper,125.0,200.0,141.0,141.0,200.0,125.0,1,1.0131046772003174,None,,,,,0,0,0,0,0,4,4,35,117.38598561286926,,,,,,,,,,,,,,,,,,,,,,,,,,,,,,,,,,,,,,,,,,,,,,,,,,,,,,,,,,,,,,,,,,,,,,,,,,,,,,,,,125.0,200.0,141.0,141.0,200.0,125.0,2.1,2.12,-266,-256,0,-287,229,290,117.37153148651123,117.3716082572937,117.37514615058899,117.38598561286926,117.53597807884216,117.53597807884216,117.53597807884216,117.53597807884216,117.53597807884216,117.53597807884216,117.53597807884216,118.40286207199097,1,1.0131046772003174,None,,,,,,,,,,,,,,,,,,216,1,2025-03-07_13h25.56.350,comp,2024.2.4,56.89830402708781,2025-03-07 13h28.25.255337 -0500,
5,5,0,critical,dhw,35.0,2.1,lower,70.0,70.0,133.0,57.0,57.0,133.0,3,1.4612805843353271,None,,,,,0,0,0,0,0,5,5,0,118.41935586929321,,,,,,,,,,,,,,,,,,,,,,,,,,,,,,,,,,,,,,,,,,,,,,,,,,,,,,,,,,,,,,,,,,,,,,,,,,,,,,,,,70.0,70.0,133.0,57.0,57.0,133.0,2.1,2.11,-160,266,0,289,191,-257,118.40441107749939,118.40448927879333,118.40858817100525,118.41935586929321,118.57123255729675,118.57123255729675,118.57123255729675,118.57123255729675,118.57123255729675,118.57123255729675,118.57123255729675,119.88577795028687,3,1.4612805843353271,None,,,,,,,,,,,,,,,,,,216,1,2025-03-07_13h25.56.350,comp,2024.2.4,56.89830402708781,2025-03-07 13h28.25.255337 -0500,
6,6,0,critical,whd,35.0,3.0,upper,125.0,200.0,200.0,125.0,127.0,127.0,1,1.488889455795288,None,,,,,0,0,0,0,0,6,6,87,119.90220379829407,,,,,,,,,,,,,,,,,,,,,,,,,,,,,,,,,,,,,,,,,,,,,,,,,,,,,,,,,,,,,,,,,,,,,,,,,,,,,,,,,125.0,200.0,200.0,125.0,127.0,127.0,3.0,3.2,-258,-255,0,5,222,259,119.88738369941711,119.88746213912964,119.89078855514526,119.90220379829407,120.05448532104492,120.05448532104492,120.05448532104492,120.05448532104492,120.05448532104492,120.05448532104492,120.05448532104492,121.40290641784668,1,1.488889455795288,None,,,,,,,,,,,,,,,,,,216,1,2025-03-07_13h25.56.350,comp,2024.2.4,56.89830402708781,2025-03-07 13h28.25.255337 -0500,
7,7,0,critical,dwh,20.0,2.1,upper,141.0,141.0,125.0,200.0,200.0,125.0,2,0.8917820453643799,None,,,,,0,0,0,0,0,7,7,7,121.42028260231018,,,,,,,,,,,,,,,,,,,,,,,,,,,,,,,,,,,,,,,,,,,,,,,,,,,,,,,,,,,,,,,,,,,,,,,,,,,,,,,,,141.0,141.0,125.0,200.0,200.0,125.0,2.1,2.11,-266,269,0,274,258,-282,121.40451002120972,121.40459394454956,121.40832996368408,121.42028260231018,121.5774793624878,121.5774793624878,121.5774793624878,121.5774793624878,121.5774793624878,121.5774793624878,121.5774793624878,122.31763577461243,2,0.8917820453643799,None,,,,,,,,,,,,,,,,,,216,1,2025-03-07_13h25.56.350,comp,2024.2.4,56.89830402708781,2025-03-07 13h28.25.255337 -0500,
8,8,0,critical,hwd,35.0,1.0,lower,133.0,57.0,57.0,133.0,70.0,70.0,2,1.985196590423584,None,,,,,0,0,0,0,0,8,8,96,122.33419466018677,,,,,,,,,,,,,,,,,,,,,,,,,,,,,,,,,,,,,,,,,,,,,,,,,,,,,,,,,,,,,,,,,,,,,,,,,,,,,,,,,133.0,57.0,57.0,133.0,70.0,70.0,1.0,1.1,-671,264,-480,255,-282,253,122.31910514831543,122.31918406486511,122.32211184501648,122.33419466018677,122.47630405426025,122.47630405426025,122.47630405426025,122.47630405426025,122.47630405426025,122.47630405426025,122.47630405426025,124.32213854789734,2,1.985196590423584,None,,,,,,,,,,,,,,,,,,216,1,2025-03-07_13h25.56.350,comp,2024.2.4,56.89830402708781,2025-03-07 13h28.25.255337 -0500,
9,9,0,critical,wdh,35.0,4.0,upper,125.0,200.0,127.0,127.0,200.0,125.0,1,0.877504825592041,None,,,,,0,0,0,0,0,9,9,77,124.33836030960083,,,,,,,,,,,,,,,,,,,,,,,,,,,,,,,,,,,,,,,,,,,,,,,,,,,,,,,,,,,,,,,,,,,,,,,,,,,,,,,,,125.0,200.0,127.0,127.0,200.0,125.0,4.0,4.2,-260,17,0,-255,222,-1,124.32362246513367,124.32369995117188,124.32682657241821,124.33836030960083,124.48759508132935,124.48759508132935,124.48759508132935,124.48759508132935,124.48759508132935,124.48759508132935,124.48759508132935,125.22073435783386,1,0.877504825592041,None,,,,,,,,,,,,,,,,,,216,1,2025-03-07_13h25.56.350,comp,2024.2.4,56.89830402708781,2025-03-07 13h28.25.255337 -0500,
10,10,0,critical,dhw,35.0,3.0,upper,127.0,127.0,200.0,125.0,125.0,200.0,3,1.0340614318847656,None,,,,,0,0,0,0,0,10,10,51,125.24507594108582,,,,,,,,,,,,,,,,,,,,,,,,,,,,,,,,,,,,,,,,,,,,,,,,,,,,,,,,,,,,,,,,,,,,,,,,,,,,,,,,,127.0,127.0,200.0,125.0,125.0,200.0,3.0,3.1,-222,261,0,-1,258,-264,125.22242522239685,125.22250247001648,125.2257866859436,125.24507594108582,125.38829731941223,125.38829731941223,125.38829731941223,125.38829731941223,125.38829731941223,125.38829731941223,125.38829731941223,126.2933919429779,3,1.0340614318847656,None,,,,,,,,,,,,,,,,,,216,1,2025-03-07_13h25.56.350,comp,2024.2.4,56.89830402708781,2025-03-07 13h28.25.255337 -0500,
11,11,0,critical,dhw,35.0,2.1,lower,70.0,70.0,133.0,57.0,57.0,133.0,3,1.0004804134368896,None,,,,,0,0,0,0,0,11,11,24,126.3107213973999,,,,,,,,,,,,,,,,,,,,,,,,,,,,,,,,,,,,,,,,,,,,,,,,,,,,,,,,,,,,,,,,,,,,,,,,,,,,,,,,,70.0,70.0,133.0,57.0,57.0,133.0,2.1,2.11,-160,271,0,284,191,-260,126.29487490653992,126.29495358467102,126.29796051979065,126.3107213973999,126.45393228530884,126.45393228530884,126.45393228530884,126.45393228530884,126.45393228530884,126.45393228530884,126.45393228530884,127.32764673233032,3,1.0004804134368896,None,,,,,,,,,,,,,,,,,,216,1,2025-03-07_13h25.56.350,comp,2024.2.4,56.89830402708781,2025-03-07 13h28.25.255337 -0500,
12,12,0,critical,dwh,20.0,1.0,lower,78.0,78.0,57.0,133.0,133.0,57.0,2,1.6733818054199219,None,,,,,0,0,0,0,0,12,12,66,127.34261345863342,,,,,,,,,,,,,,,,,,,,,,,,,,,,,,,,,,,,,,,,,,,,,,,,,,,,,,,,,,,,,,,,,,,,,,,,,,,,,,,,,78.0,78.0,57.0,133.0,133.0,57.0,1.0,1.2,-202,-10,0,20,191,-11,127.32919073104858,127.32926988601685,127.33233904838562,127.34261345863342,127.48722958564758,127.48722958564758,127.48722958564758,127.48722958564758,127.48722958564758,127.48722958564758,127.48722958564758,129.0241448879242,2,1.6733818054199219,None,,,,,,,,,,,,,,,,,,216,1,2025-03-07_13h25.56.350,comp,2024.2.4,56.89830402708781,2025-03-07 13h28.25.255337 -0500,
13,13,0,filler_square,None,None,None,None,None,None,None,None,None,None,2,0.9106817245483398,None,,,,,0,0,0,0,0,13,13,191,129.04110527038574,,,,,,,,,,,,,,,,,,,,,,,,,,,,,,,,,,,,,,,,,,,,,,,,,,,,,,,,,,,,,,,,,,,,,,,,,,,,,,,,,73.25013401366454,66.25093820915477,90.32661216415453,90.32661216415453,90.25781495239268,73.49288149211394,4.0,4.2,-174,14,0,-251,178,18,129.02637434005737,129.0265176296234,129.03018617630005,129.04110527038574,129.19215536117554,129.19215536117554,129.19215536117554,129.19215536117554,129.19215536117554,129.19215536117554,129.19215536117554,129.95481538772583,2,0.9106817245483398,None,,,,,,,,,,,,,,,,,,216,1,2025-03-07_13h25.56.350,comp,2024.2.4,56.89830402708781,2025-03-07 13h28.25.255337 -0500,
14,14,0,filler_random,None,None,None,None,None,None,None,None,None,None,3,1.0834543704986572,None,,,,,0,0,0,0,0,14,14,133,129.97187113761902,,,,,,,,,,,,,,,,,,,,,,,,,,,,,,,,,,,,,,,,,,,,,,,,,,,,,,,,,,,,,,,,,,,,,,,,,,,,,,,,,133.67427015367753,133.1489882782501,134.65596315592052,81.56438185184996,152.97288847467246,155.3720631587836,2.2,2.22,-203,273,0,-251,214,-275,129.9566056728363,129.95668721199036,129.9599950313568,129.97187113761902,130.1265950202942,130.1265950202942,130.1265950202942,130.1265950202942,130.1265950202942,130.1265950202942,130.1265950202942,131.07305812835693,3,1.0834543704986572,None,,,,,,,,,,,,,,,,,,216,1,2025-03-07_13h25.56.350,comp,2024.2.4,56.89830402708781,2025-03-07 13h28.25.255337 -0500,
15,15,0,filler_random,None,None,None,None,None,None,None,None,None,None,1,1.1405537128448486,None,,,,,0,0,0,0,0,15,15,142,131.09062123298645,,,,,,,,,,,,,,,,,,,,,,,,,,,,,,,,,,,,,,,,,,,,,,,,,,,,,,,,,,,,,,,,,,,,,,,,,,,,,,,,,150.81765628516928,111.82990218294358,116.97997186160828,60.65454658727718,181.73278550696597,86.19566527493612,4.0,4.1,-182,-262,0,-7,169,-277,131.0747194290161,131.07479906082153,131.07809257507324,131.09062123298645,131.24471259117126,131.24471259117126,131.24471259117126,131.24471259117126,131.24471259117126,131.24471259117126,131.24471259117126,132.24445271492004,1,1.1405537128448486,None,,,,,,,,,,,,,,,,,,216,1,2025-03-07_13h25.56.350,comp,2024.2.4,56.89830402708781,2025-03-07 13h28.25.255337 -0500,
16,16,0,critical,hwd,35.0,3.0,upper,200.0,125.0,125.0,200.0,127.0,127.0,2,0.7946574687957764,None,,,,,0,0,0,0,0,16,16,99,132.2608027458191,,,,,,,,,,,,,,,,,,,,,,,,,,,,,,,,,,,,,,,,,,,,,,,,,,,,,,,,,,,,,,,,,,,,,,,,,,,,,,,,,200.0,125.0,125.0,200.0,127.0,127.0,3.0,3.1,-258,285,0,-13,260,-263,132.2464520931244,132.24653506278992,132.24966502189636,132.2608027458191,132.41290426254272,132.41290426254272,132.41290426254272,132.41290426254272,132.41290426254272,132.41290426254272,132.41290426254272,133.0584352016449,2,0.7946574687957764,None,,,,,,,,,,,,,,,,,,216,1,2025-03-07_13h25.56.350,comp,2024.2.4,56.89830402708781,2025-03-07 13h28.25.255337 -0500,
17,17,0,critical,hwd,35.0,1.0,upper,200.0,125.0,125.0,200.0,127.0,127.0,1,0.835789680480957,None,,,,,0,0,0,0,0,17,17,97,133.07532715797424,,,,,,,,,,,,,,,,,,,,,,,,,,,,,,,,,,,,,,,,,,,,,,,,,,,,,,,,,,,,,,,,,,,,,,,,,,,,,,,,,200.0,125.0,125.0,200.0,127.0,127.0,1.0,1.2,-258,-1,0,-20,260,7,133.05999326705933,133.06014156341553,133.06368398666382,133.07532715797424,133.22337651252747,133.22337651252747,133.22337651252747,133.22337651252747,133.22337651252747,133.22337651252747,133.22337651252747,133.92414116859436,1,0.835789680480957,None,,,,,,,,,,,,,,,,,,216,1,2025-03-07_13h25.56.350,comp,2024.2.4,56.89830402708781,2025-03-07 13h28.25.255337 -0500,
18,18,0,critical,dwh,20.0,3.0,lower,78.0,78.0,57.0,133.0,133.0,57.0,1,0.8259932994842529,None,,,,,0,0,0,0,0,18,18,68,133.9428904056549,,,,,,,,,,,,,,,,,,,,,,,,,,,,,,,,,,,,,,,,,,,,,,,,,,,,,,,,,,,,,,,,,,,,,,,,,,,,,,,,,78.0,78.0,57.0,133.0,133.0,57.0,3.0,3.2,-202,-256,0,-8,191,256,133.9256455898285,133.92572283744812,133.92905068397522,133.9428904056549,134.09107756614685,134.09107756614685,134.09107756614685,134.09107756614685,134.09107756614685,134.09107756614685,134.09107756614685,134.77366876602173,1,0.8259932994842529,None,,,,,,,,,,,,,,,,,,216,1,2025-03-07_13h25.56.350,comp,2024.2.4,56.89830402708781,2025-03-07 13h28.25.255337 -0500,
19,19,0,critical,hwd,20.0,4.0,lower,133.0,57.0,57.0,133.0,78.0,78.0,2,1.2100484371185303,None,,,,,0,0,0,0,0,19,19,106,134.78934264183044,,,,,,,,,,,,,,,,,,,,,,,,,,,,,,,,,,,,,,,,,,,,,,,,,,,,,,,,,,,,,,,,,,,,,,,,,,,,,,,,,133.0,57.0,57.0,133.0,78.0,78.0,4.0,4.2,-191,15,0,-276,202,-11,134.775217294693,134.77530121803284,134.778573513031,134.78934264183044,134.93972516059875,134.93972516059875,134.93972516059875,134.93972516059875,134.93972516059875,134.93972516059875,134.93972516059875,136.00360822677612,2,1.2100484371185303,None,,,,,,,,,,,,,,,,,,216,1,2025-03-07_13h25.56.350,comp,2024.2.4,56.89830402708781,2025-03-07 13h28.25.255337 -0500,
20,20,0,filler_random,None,None,None,None,None,None,None,None,None,None,2,0.7883572578430176,None,,,,,0,0,0,0,0,20,20,165,136.0192675590515,,,,,,,,,,,,,,,,,,,,,,,,,,,,,,,,,,,,,,,,,,,,,,,,,,,,,,,,,,,,,,,,,,,,,,,,,,,,,,,,,124.52669404611606,164.9140077236536,157.72859369156203,178.47043330841473,134.3810504865082,129.20980059982506,4.0,4.2,-268,-13,0,-254,250,-1,136.0052478313446,136.0053277015686,136.00833201408386,136.0192675590515,136.1593255996704,136.1593255996704,136.1593255996704,136.1593255996704,136.1593255996704,136.1593255996704,136.1593255996704,136.81163811683655,2,0.7883572578430176,None,,,,,,,,,,,,,,,,,,216,1,2025-03-07_13h25.56.350,comp,2024.2.4,56.89830402708781,2025-03-07 13h28.25.255337 -0500,
21,21,0,filler_square,None,None,None,None,None,None,None,None,None,None,2,0.8335170745849609,None,,,,,0,0,0,0,0,21,21,173,136.83081722259521,,,,,,,,,,,,,,,,,,,,,,,,,,,,,,,,,,,,,,,,,,,,,,,,,,,,,,,,,,,,,,,,,,,,,,,,,,,,,,,,,167.1121304275834,188.39501175868756,194.13638431056955,194.13638431056955,189.87783645610725,107.1657822854058,2.2,2.22,-287,266,0,-275,247,-286,136.81375360488892,136.81383848190308,136.81740880012512,136.83081722259521,136.976979970932,136.976979970932,136.976979970932,136.976979970932,136.976979970932,136.976979970932,136.976979970932,137.68547558784485,2,0.8335170745849609,None,,,,,,,,,,,,,,,,,,216,1,2025-03-07_13h25.56.350,comp,2024.2.4,56.89830402708781,2025-03-07 13h28.25.255337 -0500,
22,22,0,critical,hdw,35.0,1.0,lower,133.0,57.0,70.0,70.0,57.0,133.0,3,1.4538376331329346,None,,,,,0,0,0,0,0,22,22,108,137.70539736747742,,,,,,,,,,,,,,,,,,,,,,,,,,,,,,,,,,,,,,,,,,,,,,,,,,,,,,,,,,,,,,,,,,,,,,,,,,,,,,,,,133.0,57.0,70.0,70.0,57.0,133.0,1.0,1.1,-640,250,-480,278,-282,287,137.68705773353577,137.68713903427124,137.69012594223022,137.70539736747742,137.84290027618408,137.84290027618408,137.84290027618408,137.84290027618408,137.84290027618408,137.84290027618408,137.84290027618408,139.17715573310852,3,1.4538376331329346,None,,,,,,,,,,,,,,,,,,216,1,2025-03-07_13h25.56.350,comp,2024.2.4,56.89830402708781,2025-03-07 13h28.25.255337 -0500,
23,23,0,filler_random,None,None,None,None,None,None,None,None,None,None,2,0.7323298454284668,None,,,,,0,0,0,0,0,23,23,155,139.19490432739258,,,,,,,,,,,,,,,,,,,,,,,,,,,,,,,,,,,,,,,,,,,,,,,,,,,,,,,,,,,,,,,,,,,,,,,,,,,,,,,,,155.4999996507226,90.26189816756094,149.27915584004674,138.24121492835727,140.37453890353333,107.40946592784333,2.1,2.12,-210,-281,0,-274,219,265,139.17894220352173,139.17906379699707,139.18214583396912,139.19490432739258,139.3435685634613,139.3435685634613,139.3435685634613,139.3435685634613,139.3435685634613,139.3435685634613,139.3435685634613,139.94266295433044,2,0.7323298454284668,None,,,,,,,,,,,,,,,,,,216,1,2025-03-07_13h25.56.350,comp,2024.2.4,56.89830402708781,2025-03-07 13h28.25.255337 -0500,
24,24,0,filler_square,None,None,None,None,None,None,None,None,None,None,3,0.7440915107727051,None,,,,,0,0,0,0,0,24,24,187,139.95905685424805,,,,,,,,,,,,,,,,,,,,,,,,,,,,,,,,,,,,,,,,,,,,,,,,,,,,,,,,,,,,,,,,,,,,,,,,,,,,,,,,,62.78592767408352,89.91456837484853,94.11737903715587,123.17044459706281,132.41139543822464,132.41139543822464,2.2,2.22,-203,264,0,-287,224,-259,139.94450855255127,139.94459009170532,139.9477400779724,139.95905685424805,140.10561394691467,140.10561394691467,140.10561394691467,140.10561394691467,140.10561394691467,140.10561394691467,140.10561394691467,140.71654558181763,3,0.7440915107727051,None,,,,,,,,,,,,,,,,,,216,1,2025-03-07_13h25.56.350,comp,2024.2.4,56.89830402708781,2025-03-07 13h28.25.255337 -0500,
25,25,0,critical,dhw,20.0,2.1,upper,141.0,141.0,200.0,125.0,125.0,200.0,3,1.2166101932525635,None,,,,,0,0,0,0,0,25,25,3,140.7368106842041,,,,,,,,,,,,,,,,,,,,,,,,,,,,,,,,,,,,,,,,,,,,,,,,,,,,,,,,,,,,,,,,,,,,,,,,,,,,,,,,,141.0,141.0,200.0,125.0,125.0,200.0,2.1,2.11,-229,287,0,250,258,-272,140.71811628341675,140.71819877624512,140.7211947441101,140.7368106842041,140.87693166732788,140.87693166732788,140.87693166732788,140.87693166732788,140.87693166732788,140.87693166732788,140.87693166732788,141.95949244499207,3,1.2166101932525635,None,,,,,,,,,,,,,,,,,,216,1,2025-03-07_13h25.56.350,comp,2024.2.4,56.89830402708781,2025-03-07 13h28.25.255337 -0500,
26,26,0,critical,dwh,35.0,3.0,lower,70.0,70.0,57.0,133.0,133.0,57.0,2,1.2719275951385498,None,,,,,0,0,0,0,0,26,26,62,141.9758894443512,,,,,,,,,,,,,,,,,,,,,,,,,,,,,,,,,,,,,,,,,,,,,,,,,,,,,,,,,,,,,,,,,,,,,,,,,,,,,,,,,70.0,70.0,57.0,133.0,133.0,57.0,3.0,3.2,-198,-281,0,1,191,277,141.96108222007751,141.96116638183594,141.9642677307129,141.9758894443512,142.13350248336792,142.13350248336792,142.13350248336792,142.13350248336792,142.13350248336792,142.13350248336792,142.13350248336792,143.2545006275177,2,1.2719275951385498,None,,,,,,,,,,,,,,,,,,216,1,2025-03-07_13h25.56.350,comp,2024.2.4,56.89830402708781,2025-03-07 13h28.25.255337 -0500,
27,27,0,critical,dwh,35.0,2.1,lower,70.0,70.0,57.0,133.0,133.0,57.0,2,0.7184543609619141,None,,,,,0,0,0,0,0,27,27,4,143.27292037010193,,,,,,,,,,,,,,,,,,,,,,,,,,,,,,,,,,,,,,,,,,,,,,,,,,,,,,,,,,,,,,,,,,,,,,,,,,,,,,,,,70.0,70.0,57.0,133.0,133.0,57.0,2.1,2.12,-198,-272,0,-259,191,267,143.25618982315063,143.25632786750793,143.25969076156616,143.27292037010193,143.41043663024902,143.41043663024902,143.41043663024902,143.41043663024902,143.41043663024902,143.41043663024902,143.41043663024902,143.99346566200256,2,0.7184543609619141,None,,,,,,,,,,,,,,,,,,216,1,2025-03-07_13h25.56.350,comp,2024.2.4,56.89830402708781,2025-03-07 13h28.25.255337 -0500,
28,28,0,filler_random,None,None,None,None,None,None,None,None,None,None,1,0.7967836856842041,None,,,,,0,0,0,0,0,28,28,169,144.01032280921936,,,,,,,,,,,,,,,,,,,,,,,,,,,,,,,,,,,,,,,,,,,,,,,,,,,,,,,,,,,,,,,,,,,,,,,,,,,,,,,,,184.64679399201196,96.51870230321902,132.42590246281566,87.63868545077989,65.79652604272698,111.76857293387218,2.1,2.12,-188,-258,0,-284,196,256,143.99516367912292,143.99524235725403,143.9984691143036,144.01032280921936,144.16097497940063,144.16097497940063,144.16097497940063,144.16097497940063,144.16097497940063,144.16097497940063,144.16097497940063,144.82140827178955,1,0.7967836856842041,None,,,,,,,,,,,,,,,,,,216,1,2025-03-07_13h25.56.350,comp,2024.2.4,56.89830402708781,2025-03-07 13h28.25.255337 -0500,
29,29,0,critical,whd,35.0,1.0,upper,125.0,200.0,200.0,125.0,127.0,127.0,2,0.9489209651947021,None,,,,,0,0,0,0,0,29,29,85,144.84227085113525,,,,,,,,,,,,,,,,,,,,,,,,,,,,,,,,,,,,,,,,,,,,,,,,,,,,,,,,,,,,,,,,,,,,,,,,,,,,,,,,,125.0,200.0,200.0,125.0,127.0,127.0,1.0,1.1,-738,271,-480,279,-258,285,144.82298827171326,144.8230938911438,144.82654809951782,144.84227085113525,144.9789731502533,144.9789731502533,144.9789731502533,144.9789731502533,144.9789731502533,144.9789731502533,144.9789731502533,145.8062243461609,2,0.9489209651947021,None,,,,,,,,,,,,,,,,,,216,1,2025-03-07_13h25.56.350,comp,2024.2.4,56.89830402708781,2025-03-07 13h28.25.255337 -0500,
30,30,0,critical,dhw,20.0,1.0,upper,141.0,141.0,200.0,125.0,125.0,200.0,2,0.7571516036987305,None,,,,,0,0,0,0,0,30,30,55,145.82603788375854,,,,,,,,,,,,,,,,,,,,,,,,,,,,,,,,,,,,,,,,,,,,,,,,,,,,,,,,,,,,,,,,,,,,,,,,,,,,,,,,,141.0,141.0,200.0,125.0,125.0,200.0,1.0,1.3,251,-254,480,-269,738,-282,145.80782985687256,145.80791759490967,145.81131505966187,145.82603788375854,145.961585521698,145.961585521698,145.961585521698,145.961585521698,145.961585521698,145.961585521698,145.961585521698,146.59820127487183,2,0.7571516036987305,None,,,,,,,,,,,,,,,,,,216,1,2025-03-07_13h25.56.350,comp,2024.2.4,56.89830402708781,2025-03-07 13h28.25.255337 -0500,
31,31,0,filler_random,None,None,None,None,None,None,None,None,None,None,3,0.8439280986785889,None,,,,,0,0,0,0,0,31,31,152,146.6192762851715,,,,,,,,,,,,,,,,,,,,,,,,,,,,,,,,,,,,,,,,,,,,,,,,,,,,,,,,,,,,,,,,,,,,,,,,,,,,,,,,,173.55664338991522,108.2226813104846,111.19188496253179,162.14558577582596,194.91883476108302,172.56438002341253,3.0,3.1,-231,252,0,13,263,-283,146.59996891021729,146.60011839866638,146.6035397052765,146.6192762851715,146.7617802619934,146.7617802619934,146.7617802619934,146.7617802619934,146.7617802619934,146.7617802619934,146.7617802619934,147.4780788421631,3,0.8439280986785889,None,,,,,,,,,,,,,,,,,,216,1,2025-03-07_13h25.56.350,comp,2024.2.4,56.89830402708781,2025-03-07 13h28.25.255337 -0500,
32,32,0,critical,dhw,35.0,4.0,lower,70.0,70.0,133.0,57.0,57.0,133.0,1,1.1912648677825928,None,,,,,0,0,0,0,0,32,32,52,147.49625396728516,,,,,,,,,,,,,,,,,,,,,,,,,,,,,,,,,,,,,,,,,,,,,,,,,,,,,,,,,,,,,,,,,,,,,,,,,,,,,,,,,70.0,70.0,133.0,57.0,57.0,133.0,4.0,4.1,-160,-264,0,-4,191,-251,147.4795777797699,147.47965359687805,147.48280334472656,147.49625396728516,147.6504349708557,147.6504349708557,147.6504349708557,147.6504349708557,147.6504349708557,147.6504349708557,147.6504349708557,148.696063041687,1,1.1912648677825928,None,,,,,,,,,,,,,,,,,,216,1,2025-03-07_13h25.56.350,comp,2024.2.4,56.89830402708781,2025-03-07 13h28.25.255337 -0500,
33,33,0,filler_square,None,None,None,None,None,None,None,None,None,None,2,0.7838823795318604,None,,,,,0,0,0,0,0,33,33,208,148.71126008033752,,,,,,,,,,,,,,,,,,,,,,,,,,,,,,,,,,,,,,,,,,,,,,,,,,,,,,,,,,,,,,,,,,,,,,,,,,,,,,,,,67.95388127844933,58.767146046805465,64.63449015360698,58.348540749607366,68.26488981257799,68.26488981257799,3.0,3.1,-155,276,0,14,159,-282,148.69793176651,148.69803833961487,148.70147562026978,148.71126008033752,148.86145067214966,148.86145067214966,148.86145067214966,148.86145067214966,148.86145067214966,148.86145067214966,148.86145067214966,149.51113986968994,2,0.7838823795318604,None,,,,,,,,,,,,,,,,,,216,1,2025-03-07_13h25.56.350,comp,2024.2.4,56.89830402708781,2025-03-07 13h28.25.255337 -0500,
34,34,0,filler_random,None,None,None,None,None,None,None,None,None,None,2,0.7436258792877197,None,,,,,0,0,0,0,0,34,34,135,149.5275523662567,,,,,,,,,,,,,,,,,,,,,,,,,,,,,,,,,,,,,,,,,,,,,,,,,,,,,,,,,,,,,,,,,,,,,,,,,,,,,,,,,138.82240309225583,87.5166982444101,175.78454573341628,108.13314156601328,82.79397812128173,186.91252081418094,4.0,4.2,-194,6,0,-257,244,-13,149.51287817955017,149.51295804977417,149.51614904403687,149.5275523662567,149.6796259880066,149.6796259880066,149.6796259880066,149.6796259880066,149.6796259880066,149.6796259880066,149.6796259880066,150.28546047210693,2,0.7436258792877197,None,,,,,,,,,,,,,,,,,,216,1,2025-03-07_13h25.56.350,comp,2024.2.4,56.89830402708781,2025-03-07 13h28.25.255337 -0500,
35,35,0,critical,dhw,20.0,4.0,upper,141.0,141.0,200.0,125.0,125.0,200.0,1,1.0418777465820312,None,,,,,0,0,0,0,0,35,35,59,150.3019664287567,,,,,,,,,,,,,,,,,,,,,,,,,,,,,,,,,,,,,,,,,,,,,,,,,,,,,,,,,,,,,,,,,,,,,,,,,,,,,,,,,141.0,141.0,200.0,125.0,125.0,200.0,4.0,4.1,-229,-280,0,6,258,-269,150.2871835231781,150.28726267814636,150.29065656661987,150.3019664287567,150.44688034057617,150.44688034057617,150.44688034057617,150.44688034057617,150.44688034057617,150.44688034057617,150.44688034057617,151.35205364227295,1,1.0418777465820312,None,,,,,,,,,,,,,,,,,,216,1,2025-03-07_13h25.56.350,comp,2024.2.4,56.89830402708781,2025-03-07 13h28.25.255337 -0500,
36,36,0,critical,wdh,35.0,2.1,upper,125.0,200.0,127.0,127.0,200.0,125.0,3,1.1012942790985107,None,,,,,0,0,0,0,0,36,36,33,151.36979365348816,,,,,,,,,,,,,,,,,,,,,,,,,,,,,,,,,,,,,,,,,,,,,,,,,,,,,,,,,,,,,,,,,,,,,,,,,,,,,,,,,125.0,200.0,127.0,127.0,200.0,125.0,2.1,2.11,-260,253,0,271,222,-282,151.35359072685242,151.3536720275879,151.3567247390747,151.36979365348816,151.5210735797882,151.5210735797882,151.5210735797882,151.5210735797882,151.5210735797882,151.5210735797882,151.5210735797882,152.48164582252502,3,1.1012942790985107,None,,,,,,,,,,,,,,,,,,216,1,2025-03-07_13h25.56.350,comp,2024.2.4,56.89830402708781,2025-03-07 13h28.25.255337 -0500,
37,37,0,critical,hwd,35.0,2.1,upper,200.0,125.0,125.0,200.0,127.0,127.0,2,1.0849323272705078,None,,,,,0,0,0,0,0,37,37,17,152.49830532073975,,,,,,,,,,,,,,,,,,,,,,,,,,,,,,,,,,,,,,,,,,,,,,,,,,,,,,,,,,,,,,,,,,,,,,,,,,,,,,,,,200.0,125.0,125.0,200.0,127.0,127.0,2.1,2.11,-258,267,0,289,260,-284,152.48337578773499,152.48351502418518,152.4872510433197,152.49830532073975,152.64055037498474,152.64055037498474,152.64055037498474,152.64055037498474,152.64055037498474,152.64055037498474,152.64055037498474,153.59588432312012,2,1.0849323272705078,None,,,,,,,,,,,,,,,,,,216,1,2025-03-07_13h25.56.350,comp,2024.2.4,56.89830402708781,2025-03-07 13h28.25.255337 -0500,
38,38,0,critical,dhw,35.0,2.1,upper,127.0,127.0,200.0,125.0,125.0,200.0,3,1.0913636684417725,None,,,,,0,0,0,0,0,38,38,1,153.61227083206177,,,,,,,,,,,,,,,,,,,,,,,,,,,,,,,,,,,,,,,,,,,,,,,,,,,,,,,,,,,,,,,,,,,,,,,,,,,,,,,,,127.0,127.0,200.0,125.0,125.0,200.0,2.1,2.11,-222,254,0,286,258,-262,153.59740447998047,153.597482919693,153.6007959842682,153.61227083206177,153.75128865242004,153.75128865242004,153.75128865242004,153.75128865242004,153.75128865242004,153.75128865242004,153.75128865242004,154.72036361694336,3,1.0913636684417725,None,,,,,,,,,,,,,,,,,,216,1,2025-03-07_13h25.56.350,comp,2024.2.4,56.89830402708781,2025-03-07 13h28.25.255337 -0500,
39,39,0,filler_random,None,None,None,None,None,None,None,None,None,None,3,2.069197654724121,None,,,,,0,0,0,0,0,39,39,143,154.7379162311554,,,,,,,,,,,,,,,,,,,,,,,,,,,,,,,,,,,,,,,,,,,,,,,,,,,,,,,,,,,,,,,,,,,,,,,,,,,,,,,,,199.22401946669177,165.45461857378132,77.83791844385829,154.77997146597852,196.91653461333365,173.9806042967776,4.0,4.1,-256,-262,0,-18,260,-261,154.72213125228882,154.7222113609314,154.7252094745636,154.7379162311554,154.8817138671875,154.8817138671875,154.8817138671875,154.8817138671875,154.8817138671875,154.8817138671875,154.8817138671875,156.82187700271606,3,2.069197654724121,None,,,,,,,,,,,,,,,,,,216,1,2025-03-07_13h25.56.350,comp,2024.2.4,56.89830402708781,2025-03-07 13h28.25.255337 -0500,
40,40,0,filler_random,None,None,None,None,None,None,None,None,None,None,3,1.3520503044128418,None,,,,,0,0,0,0,0,40,40,138,156.83958077430725,,,,,,,,,,,,,,,,,,,,,,,,,,,,,,,,,,,,,,,,,,,,,,,,,,,,,,,,,,,,,,,,,,,,,,,,,,,,,,,,,163.7422236598985,86.07799970134347,89.88575272862339,174.1614237544551,137.60145574907835,164.82210062862185,2.2,2.21,-226,-272,0,285,265,267,156.823632478714,156.82371497154236,156.826740026474,156.83958077430725,157.00452876091003,157.00452876091003,157.00452876091003,157.00452876091003,157.00452876091003,157.00452876091003,157.00452876091003,158.20035362243652,3,1.3520503044128418,None,,,,,,,,,,,,,,,,,,216,1,2025-03-07_13h25.56.350,comp,2024.2.4,56.89830402708781,2025-03-07 13h28.25.255337 -0500,
41,41,0,filler_random,None,None,None,None,None,None,None,None,None,None,3,1.2534539699554443,None,,,,,0,0,0,0,0,41,41,153,158.21765756607056,,,,,,,,,,,,,,,,,,,,,,,,,,,,,,,,,,,,,,,,,,,,,,,,,,,,,,,,,,,,,,,,,,,,,,,,,,,,,,,,,122.55710181858302,64.20740077308696,180.5691643339144,103.89462978615414,122.43939473006934,180.63227544392163,2.2,2.22,-180,271,0,-256,238,-275,158.2023208141327,158.2024052143097,158.2065510749817,158.21765756607056,158.36450576782227,158.36450576782227,158.36450576782227,158.36450576782227,158.36450576782227,158.36450576782227,158.36450576782227,159.48994374275208,3,1.2534539699554443,None,,,,,,,,,,,,,,,,,,216,1,2025-03-07_13h25.56.350,comp,2024.2.4,56.89830402708781,2025-03-07 13h28.25.255337 -0500,
42,42,0,filler_square,None,None,None,None,None,None,None,None,None,None,3,1.2343058586120605,None,,,,,0,0,0,0,0,42,42,196,159.50884819030762,,,,,,,,,,,,,,,,,,,,,,,,,,,,,,,,,,,,,,,,,,,,,,,,,,,,,,,,,,,,,,,,,,,,,,,,,,,,,,,,,59.68160408848068,61.35790057259563,62.11244213103786,69.59763014919501,74.97706114145912,74.97706114145912,2.1,2.12,-161,-263,0,-285,168,252,159.4917552471161,159.49183559417725,159.4948046207428,159.50884819030762,159.64981842041016,159.64981842041016,159.64981842041016,159.64981842041016,159.64981842041016,159.64981842041016,159.64981842041016,160.75451040267944,3,1.2343058586120605,None,,,,,,,,,,,,,,,,,,216,1,2025-03-07_13h25.56.350,comp,2024.2.4,56.89830402708781,2025-03-07 13h28.25.255337 -0500,
43,43,0,filler_random,None,None,None,None,None,None,None,None,None,None,3,0.8489537239074707,None,,,,,0,0,0,0,0,43,43,159,160.7752013206482,,,,,,,,,,,,,,,,,,,,,,,,,,,,,,,,,,,,,,,,,,,,,,,,,,,,,,,,,,,,,,,,,,,,,,,,,,,,,,,,,66.83406425538716,125.46088995578653,70.39802556008596,186.31566495147666,115.27552017145536,184.3156244415162,4.0,4.2,-252,-14,0,-288,281,-14,160.75624871253967,160.75633430480957,160.7594132423401,160.7752013206482,160.91652083396912,160.91652083396912,160.91652083396912,160.91652083396912,160.91652083396912,160.91652083396912,160.91652083396912,161.63350772857666,3,0.8489537239074707,None,,,,,,,,,,,,,,,,,,216,1,2025-03-07_13h25.56.350,comp,2024.2.4,56.89830402708781,2025-03-07 13h28.25.255337 -0500,
44,44,0,filler_square,None,None,None,None,None,None,None,None,None,None,1,0.6694748401641846,None,,,,,0,0,0,0,0,44,44,182,161.64970302581787,,,,,,,,,,,,,,,,,,,,,,,,,,,,,,,,,,,,,,,,,,,,,,,,,,,,,,,,,,,,,,,,,,,,,,,,,,,,,,,,,176.1589023432368,176.1589023432368,73.29667449188835,117.15329276455081,96.59825295007398,164.31807916305192,3.0,3.1,-243,284,0,-12,237,-269,161.635351896286,161.63543725013733,161.63895320892334,161.64970302581787,161.79825615882874,161.79825615882874,161.79825615882874,161.79825615882874,161.79825615882874,161.79825615882874,161.79825615882874,162.33509397506714,1,0.6694748401641846,None,,,,,,,,,,,,,,,,,,216,1,2025-03-07_13h25.56.350,comp,2024.2.4,56.89830402708781,2025-03-07 13h28.25.255337 -0500,
45,45,0,filler_random,None,None,None,None,None,None,None,None,None,None,1,0.6839296817779541,None,,,,,0,0,0,0,0,45,45,134,162.35634398460388,,,,,,,,,,,,,,,,,,,,,,,,,,,,,,,,,,,,,,,,,,,,,,,,,,,,,,,,,,,,,,,,,,,,,,,,,,,,,,,,,142.4063014018841,149.21195089658818,84.51865459199044,92.62630443937596,68.72487070840226,119.43032389535568,3.0,3.2,-217,-287,0,8,202,273,162.33700489997864,162.33713030815125,162.34090161323547,162.35634398460388,162.50332140922546,162.50332140922546,162.50332140922546,162.50332140922546,162.50332140922546,162.50332140922546,162.50332140922546,163.04748725891113,1,0.6839296817779541,None,,,,,,,,,,,,,,,,,,216,1,2025-03-07_13h25.56.350,comp,2024.2.4,56.89830402708781,2025-03-07 13h28.25.255337 -0500,
46,46,0,filler_square,None,None,None,None,None,None,None,None,None,None,2,1.0387959480285645,None,,,,,0,0,0,0,0,46,46,207,163.0644679069519,,,,,,,,,,,,,,,,,,,,,,,,,,,,,,,,,,,,,,,,,,,,,,,,,,,,,,,,,,,,,,,,,,,,,,,,,,,,,,,,,91.42503761071222,84.73729855696646,96.0871550353512,96.0871550353512,75.88940315210887,84.82162628532755,2.1,2.12,-186,-251,0,-287,186,279,163.0493359565735,163.0494179725647,163.0523841381073,163.0644679069519,163.2157039642334,163.2157039642334,163.2157039642334,163.2157039642334,163.2157039642334,163.2157039642334,163.2157039642334,164.11760258674622,2,1.0387959480285645,None,,,,,,,,,,,,,,,,,,216,1,2025-03-07_13h25.56.350,comp,2024.2.4,56.89830402708781,2025-03-07 13h28.25.255337 -0500,
47,47,0,filler_square,None,None,None,None,None,None,None,None,None,None,1,0.7687454223632812,None,,,,,0,0,0,0,0,47,47,186,164.1348478794098,,,,,,,,,,,,,,,,,,,,,,,,,,,,,,,,,,,,,,,,,,,,,,,,,,,,,,,,,,,,,,,,,,,,,,,,,,,,,,,,,167.90012576142016,167.90012576142016,131.40049095157045,121.13407520445102,81.87905666240974,62.12330294931425,4.0,4.2,-241,0,0,-251,188,0,164.11974358558655,164.11982655525208,164.12361574172974,164.1348478794098,164.28354358673096,164.28354358673096,164.28354358673096,164.28354358673096,164.28354358673096,164.28354358673096,164.28354358673096,164.91878247261047,1,0.7687454223632812,None,,,,,,,,,,,,,,,,,,216,1,2025-03-07_13h25.56.350,comp,2024.2.4,56.89830402708781,2025-03-07 13h28.25.255337 -0500,
48,48,0,filler_random,None,None,None,None,None,None,None,None,None,None,3,1.228384017944336,None,,,,,0,0,0,0,0,48,48,168,164.9388620853424,,,,,,,,,,,,,,,,,,,,,,,,,,,,,,,,,,,,,,,,,,,,,,,,,,,,,,,,,,,,,,,,,,,,,,,,,,,,,,,,,111.9306101931028,163.99964615057445,199.52860034056695,86.73835858231381,93.71744042486489,156.92950283972746,2.1,2.11,-221,264,0,278,218,-262,164.92079162597656,164.92087650299072,164.92452955245972,164.9388620853424,165.08374452590942,165.08374452590942,165.08374452590942,165.08374452590942,165.08374452590942,165.08374452590942,165.08374452590942,166.17098903656006,3,1.228384017944336,None,,,,,,,,,,,,,,,,,,216,1,2025-03-07_13h25.56.350,comp,2024.2.4,56.89830402708781,2025-03-07 13h28.25.255337 -0500,
49,49,0,critical,dwh,35.0,4.0,upper,127.0,127.0,125.0,200.0,200.0,125.0,2,0.9835131168365479,None,,,,,0,0,0,0,0,49,49,65,166.19164419174194,,,,,,,,,,,,,,,,,,,,,,,,,,,,,,,,,,,,,,,,,,,,,,,,,,,,,,,,,,,,,,,,,,,,,,,,,,,,,,,,,127.0,127.0,125.0,200.0,200.0,125.0,4.0,4.2,-260,-3,0,-267,258,-14,166.1725471019745,166.17263984680176,166.17596745491028,166.19164419174194,166.3351936340332,166.3351936340332,166.3351936340332,166.3351936340332,166.3351936340332,166.3351936340332,166.3351936340332,167.19109272956848,2,0.9835131168365479,None,,,,,,,,,,,,,,,,,,216,1,2025-03-07_13h25.56.350,comp,2024.2.4,56.89830402708781,2025-03-07 13h28.25.255337 -0500,
50,50,0,critical,dwh,35.0,2.1,upper,127.0,127.0,125.0,200.0,200.0,125.0,2,1.3021175861358643,None,,,,,0,0,0,0,0,50,50,29,167.2098777294159,,,,,,,,,,,,,,,,,,,,,,,,,,,,,,,,,,,,,,,,,,,,,,,,,,,,,,,,,,,,,,,,,,,,,,,,,,,,,,,,,127.0,127.0,125.0,200.0,200.0,125.0,2.1,2.12,-260,-267,0,-267,258,258,167.19271659851074,167.19284462928772,167.19622826576233,167.2098777294159,167.35113954544067,167.35113954544067,167.35113954544067,167.35113954544067,167.35113954544067,167.35113954544067,167.35113954544067,168.5176236629486,2,1.3021175861358643,None,,,,,,,,,,,,,,,,,,216,1,2025-03-07_13h25.56.350,comp,2024.2.4,56.89830402708781,2025-03-07 13h28.25.255337 -0500,
51,51,0,filler_square,None,None,None,None,None,None,None,None,None,None,2,0.9106466770172119,None,,,,,0,0,0,0,0,51,51,188,168.5445442199707,,,,,,,,,,,,,,,,,,,,,,,,,,,,,,,,,,,,,,,,,,,,,,,,,,,,,,,,,,,,,,,,,,,,,,,,,,,,,,,,,71.5830484362708,90.0993488206926,169.57272988214504,169.57272988214504,123.59618857070039,108.24545560758358,2.1,2.11,-226,257,0,269,235,-250,168.51949524879456,168.51962876319885,168.52295684814453,168.5445442199707,168.68536591529846,168.68536591529846,168.68536591529846,168.68536591529846,168.68536591529846,168.68536591529846,168.68536591529846,169.4700427055359,2,0.9106466770172119,None,,,,,,,,,,,,,,,,,,216,1,2025-03-07_13h25.56.350,comp,2024.2.4,56.89830402708781,2025-03-07 13h28.25.255337 -0500,
52,52,0,critical,hwd,35.0,2.1,upper,200.0,125.0,125.0,200.0,127.0,127.0,2,0.8487913608551025,None,,,,,0,0,0,0,0,52,52,41,169.48660612106323,,,,,,,,,,,,,,,,,,,,,,,,,,,,,,,,,,,,,,,,,,,,,,,,,,,,,,,,,,,,,,,,,,,,,,,,,,,,,,,,,200.0,125.0,125.0,200.0,127.0,127.0,2.1,2.12,-258,-256,0,-288,260,261,169.47166419029236,169.47179579734802,169.4753041267395,169.48660612106323,169.6279809474945,169.6279809474945,169.6279809474945,169.6279809474945,169.6279809474945,169.6279809474945,169.6279809474945,170.35246300697327,2,0.8487913608551025,None,,,,,,,,,,,,,,,,,,216,1,2025-03-07_13h25.56.350,comp,2024.2.4,56.89830402708781,2025-03-07 13h28.25.255337 -0500,
53,53,0,critical,hdw,20.0,2.1,lower,133.0,57.0,78.0,78.0,57.0,133.0,3,1.3991196155548096,None,,,,,0,0,0,0,0,53,53,22,170.3680543899536,,,,,,,,,,,,,,,,,,,,,,,,,,,,,,,,,,,,,,,,,,,,,,,,,,,,,,,,,,,,,,,,,,,,,,,,,,,,,,,,,133.0,57.0,78.0,78.0,57.0,133.0,2.1,2.11,-164,250,0,283,202,-276,170.35399723052979,170.35410022735596,170.35766077041626,170.3680543899536,170.51898884773254,170.51898884773254,170.51898884773254,170.51898884773254,170.51898884773254,170.51898884773254,170.51898884773254,171.7704951763153,3,1.3991196155548096,None,,,,,,,,,,,,,,,,,,216,1,2025-03-07_13h25.56.350,comp,2024.2.4,56.89830402708781,2025-03-07 13h28.25.255337 -0500,
54,54,0,filler_square,None,None,None,None,None,None,None,None,None,None,2,0.7245430946350098,None,,,,,0,0,0,0,0,54,54,183,171.78672695159912,,,,,,,,,,,,,,,,,,,,,,,,,,,,,,,,,,,,,,,,,,,,,,,,,,,,,,,,,,,,,,,,,,,,,,,,,,,,,,,,,130.7428064828013,110.99803698252859,176.19385988307044,176.19385988307044,61.52969087027979,146.38750549215058,3.0,3.2,-240,-259,0,1,257,277,171.77233815193176,171.77243375778198,171.77588605880737,171.78672695159912,171.9372799396515,171.9372799396515,171.9372799396515,171.9372799396515,171.9372799396515,171.9372799396515,171.9372799396515,172.5232129096985,2,0.7245430946350098,None,,,,,,,,,,,,,,,,,,216,1,2025-03-07_13h25.56.350,comp,2024.2.4,56.89830402708781,2025-03-07 13h28.25.255337 -0500,
55,55,0,filler_random,None,None,None,None,None,None,None,None,None,None,2,0.6279702186584473,None,,,,,0,0,0,0,0,55,55,150,172.53925776481628,,,,,,,,,,,,,,,,,,,,,,,,,,,,,,,,,,,,,,,,,,,,,,,,,,,,,,,,,,,,,,,,,,,,,,,,,,,,,,,,,58.730288505749016,77.49681232111912,158.4768871460236,144.21417535623988,149.3357570366428,72.19809658064553,2.1,2.12,-207,-271,0,-276,204,255,172.52527499198914,172.52535820007324,172.52891159057617,172.53925776481628,172.68708872795105,172.68708872795105,172.68708872795105,172.68708872795105,172.68708872795105,172.68708872795105,172.68708872795105,173.18055176734924,2,0.6279702186584473,None,,,,,,,,,,,,,,,,,,216,1,2025-03-07_13h25.56.350,comp,2024.2.4,56.89830402708781,2025-03-07 13h28.25.255337 -0500,
56,56,0,critical,hdw,35.0,2.1,upper,200.0,125.0,127.0,127.0,125.0,200.0,3,0.7711060047149658,None,,,,,0,0,0,0,0,56,56,45,173.19671750068665,,,,,,,,,,,,,,,,,,,,,,,,,,,,,,,,,,,,,,,,,,,,,,,,,,,,,,,,,,,,,,,,,,,,,,,,,,,,,,,,,200.0,125.0,127.0,127.0,125.0,200.0,2.1,2.11,-222,255,0,270,260,-283,173.18216848373413,173.18224453926086,173.1855890750885,173.19671750068665,173.33773159980774,173.33773159980774,173.33773159980774,173.33773159980774,173.33773159980774,173.33773159980774,173.33773159980774,173.970529794693,3,0.7711060047149658,None,,,,,,,,,,,,,,,,,,216,1,2025-03-07_13h25.56.350,comp,2024.2.4,56.89830402708781,2025-03-07 13h28.25.255337 -0500,
57,57,0,filler_square,None,None,None,None,None,None,None,None,None,None,1,0.6524088382720947,None,,,,,0,0,0,0,0,57,57,204,173.98685765266418,,,,,,,,,,,,,,,,,,,,,,,,,,,,,,,,,,,,,,,,,,,,,,,,,,,,,,,,,,,,,,,,,,,,,,,,,,,,,,,,,117.49895945933484,117.49895945933484,84.39337418415111,83.42118791460041,93.8097987450214,99.50270386960352,4.0,4.2,-196,13,0,-253,187,17,173.97244882583618,173.97253155708313,173.97597002983093,173.98685765266418,174.14150953292847,174.14150953292847,174.14150953292847,174.14150953292847,174.14150953292847,174.14150953292847,174.14150953292847,174.6536726951599,1,0.6524088382720947,None,,,,,,,,,,,,,,,,,,216,1,2025-03-07_13h25.56.350,comp,2024.2.4,56.89830402708781,2025-03-07 13h28.25.255337 -0500,
58,58,0,catch,None,None,None,None,None,None,None,None,None,None,3,0.6581714153289795,None,,,,,0,0,0,0,0,58,58,122,174.67010235786438,,,,,,,,,,,,,,,,,,,,,,,,,,,,,,,,,,,,,,,,,,,,,,,,,,,,,,,,,,,,,,,,,,,,,,,,,,,,,,,,,63,127,80,110,130,195,4.0,4.2,-214,1,0,-278,248,0,174.65556120872498,174.65563702583313,174.65887594223022,174.67010235786438,174.82075834274292,174.82075834274292,174.82075834274292,174.82075834274292,174.82075834274292,174.82075834274292,174.82075834274292,175.33592796325684,3,0.6581714153289795,None,,,,,,,,,,,,,,,,,,216,1,2025-03-07_13h25.56.350,comp,2024.2.4,56.89830402708781,2025-03-07 13h28.25.255337 -0500,
59,59,0,filler_random,None,None,None,None,None,None,None,None,None,None,2,0.6475849151611328,None,,,,,0,0,0,0,0,59,59,148,175.35252356529236,,,,,,,,,,,,,,,,,,,,,,,,,,,,,,,,,,,,,,,,,,,,,,,,,,,,,,,,,,,,,,,,,,,,,,,,,,,,,,,,,90.99848870809873,74.09204696460674,171.17637162016837,132.3945715998105,84.01809473509863,116.22213907951135,2.2,2.22,-199,265,0,-266,220,-261,175.33759832382202,175.33767652511597,175.34075808525085,175.35252356529236,175.48979234695435,175.48979234695435,175.48979234695435,175.48979234695435,175.48979234695435,175.48979234695435,175.48979234695435,176.0043032169342,2,0.6475849151611328,None,,,,,,,,,,,,,,,,,,216,1,2025-03-07_13h25.56.350,comp,2024.2.4,56.89830402708781,2025-03-07 13h28.25.255337 -0500,
60,60,0,critical,dhw,35.0,3.0,lower,70.0,70.0,133.0,57.0,57.0,133.0,2,0.7791604995727539,None,,,,,0,0,0,0,0,60,60,50,176.02014470100403,,,,,,,,,,,,,,,,,,,,,,,,,,,,,,,,,,,,,,,,,,,,,,,,,,,,,,,,,,,,,,,,,,,,,,,,,,,,,,,,,70.0,70.0,133.0,57.0,57.0,133.0,3.0,3.2,-160,-275,0,6,191,283,176.00586414337158,176.00594449043274,176.00947499275208,176.02014470100403,176.16770792007446,176.16770792007446,176.16770792007446,176.16770792007446,176.16770792007446,176.16770792007446,176.16770792007446,176.8167655467987,2,0.7791604995727539,None,,,,,,,,,,,,,,,,,,216,1,2025-03-07_13h25.56.350,comp,2024.2.4,56.89830402708781,2025-03-07 13h28.25.255337 -0500,
61,61,0,critical,hwd,20.0,2.1,lower,133.0,57.0,57.0,133.0,78.0,78.0,2,0.9492111206054688,None,,,,,0,0,0,0,0,61,61,42,176.83459448814392,,,,,,,,,,,,,,,,,,,,,,,,,,,,,,,,,,,,,,,,,,,,,,,,,,,,,,,,,,,,,,,,,,,,,,,,,,,,,,,,,133.0,57.0,57.0,133.0,78.0,78.0,2.1,2.11,-191,269,0,256,202,-274,176.81835913658142,176.81843495368958,176.82177734375,176.83459448814392,176.97011995315552,176.97011995315552,176.97011995315552,176.97011995315552,176.97011995315552,176.97011995315552,176.97011995315552,177.7864556312561,2,0.9492111206054688,None,,,,,,,,,,,,,,,,,,216,1,2025-03-07_13h25.56.350,comp,2024.2.4,56.89830402708781,2025-03-07 13h28.25.255337 -0500,
62,62,0,critical,whd,35.0,4.0,lower,57.0,133.0,133.0,57.0,70.0,70.0,2,0.7339382171630859,None,,,,,0,0,0,0,0,62,62,88,177.8022859096527,,,,,,,,,,,,,,,,,,,,,,,,,,,,,,,,,,,,,,,,,,,,,,,,,,,,,,,,,,,,,,,,,,,,,,,,,,,,,,,,,57.0,133.0,133.0,57.0,70.0,70.0,4.0,4.2,-191,-7,0,-271,160,1,177.7880048751831,177.78811120986938,177.79116415977478,177.8022859096527,177.94148182868958,177.94148182868958,177.94148182868958,177.94148182868958,177.94148182868958,177.94148182868958,177.94148182868958,178.53868460655212,2,0.7339382171630859,None,,,,,,,,,,,,,,,,,,216,1,2025-03-07_13h25.56.350,comp,2024.2.4,56.89830402708781,2025-03-07 13h28.25.255337 -0500,
63,63,0,filler_square,None,None,None,None,None,None,None,None,None,None,3,0.6857514381408691,None,,,,,0,0,0,0,0,63,63,194,178.55354523658752,,,,,,,,,,,,,,,,,,,,,,,,,,,,,,,,,,,,,,,,,,,,,,,,,,,,,,,,,,,,,,,,,,,,,,,,,,,,,,,,,123.5145372012779,96.84748906847622,94.30037786594511,136.8013795414128,153.9536485313838,153.9536485313838,3.0,3.2,-213,-257,0,-3,241,267,178.5405068397522,178.54059219360352,178.54379272460938,178.55354523658752,178.70868301391602,178.70868301391602,178.70868301391602,178.70868301391602,178.70868301391602,178.70868301391602,178.70868301391602,179.25733876228333,3,0.6857514381408691,None,,,,,,,,,,,,,,,,,,216,1,2025-03-07_13h25.56.350,comp,2024.2.4,56.89830402708781,2025-03-07 13h28.25.255337 -0500,
64,64,0,critical,hdw,35.0,3.0,lower,133.0,57.0,70.0,70.0,57.0,133.0,2,0.7419114112854004,None,,,,,0,0,0,0,0,64,64,110,179.27349543571472,,,,,,,,,,,,,,,,,,,,,,,,,,,,,,,,,,,,,,,,,,,,,,,,,,,,,,,,,,,,,,,,,,,,,,,,,,,,,,,,,133.0,57.0,70.0,70.0,57.0,133.0,3.0,3.2,-160,-268,0,18,198,276,179.2593014240265,179.2593834400177,179.26304459571838,179.27349543571472,179.42278122901917,179.42278122901917,179.42278122901917,179.42278122901917,179.42278122901917,179.42278122901917,179.42278122901917,180.02549815177917,2,0.7419114112854004,None,,,,,,,,,,,,,,,,,,216,1,2025-03-07_13h25.56.350,comp,2024.2.4,56.89830402708781,2025-03-07 13h28.25.255337 -0500,
65,65,0,filler_square,None,None,None,None,None,None,None,None,None,None,1,0.7323262691497803,None,,,,,0,0,0,0,0,65,65,193,180.04281282424927,,,,,,,,,,,,,,,,,,,,,,,,,,,,,,,,,,,,,,,,,,,,,,,,,,,,,,,,,,,,,,,,,,,,,,,,,,,,,,,,,74.60557814736183,74.60557814736183,72.95409196788586,71.98452694515834,57.24922369850629,69.13415556986304,4.0,4.1,-169,-272,0,18,167,-269,180.02753853797913,180.02762293815613,180.03107905387878,180.04281282424927,180.18863582611084,180.18863582611084,180.18863582611084,180.18863582611084,180.18863582611084,180.18863582611084,180.18863582611084,180.78853464126587,1,0.7323262691497803,None,,,,,,,,,,,,,,,,,,216,1,2025-03-07_13h25.56.350,comp,2024.2.4,56.89830402708781,2025-03-07 13h28.25.255337 -0500,
66,66,0,critical,dwh,35.0,2.1,lower,70.0,70.0,57.0,133.0,133.0,57.0,2,0.6745500564575195,None,,,,,0,0,0,0,0,66,66,28,180.80478310585022,,,,,,,,,,,,,,,,,,,,,,,,,,,,,,,,,,,,,,,,,,,,,,,,,,,,,,,,,,,,,,,,,,,,,,,,,,,,,,,,,70.0,70.0,57.0,133.0,133.0,57.0,2.1,2.11,-198,285,0,263,191,-279,180.79000210762024,180.79012060165405,180.79347491264343,180.80478310585022,180.95960998535156,180.95960998535156,180.95960998535156,180.95960998535156,180.95960998535156,180.95960998535156,180.95960998535156,181.4946768283844,2,0.6745500564575195,None,,,,,,,,,,,,,,,,,,216,1,2025-03-07_13h25.56.350,comp,2024.2.4,56.89830402708781,2025-03-07 13h28.25.255337 -0500,
67,67,0,critical,wdh,20.0,4.0,upper,125.0,200.0,141.0,141.0,200.0,125.0,1,0.955833911895752,None,,,,,0,0,0,0,0,67,67,83,181.5153613090515,,,,,,,,,,,,,,,,,,,,,,,,,,,,,,,,,,,,,,,,,,,,,,,,,,,,,,,,,,,,,,,,,,,,,,,,,,,,,,,,,125.0,200.0,141.0,141.0,200.0,125.0,4.0,4.1,-266,-270,0,6,229,-265,181.49626874923706,181.4963595867157,181.4998815059662,181.5153613090515,181.65571880340576,181.65571880340576,181.65571880340576,181.65571880340576,181.65571880340576,181.65571880340576,181.65571880340576,182.4875204563141,1,0.955833911895752,None,,,,,,,,,,,,,,,,,,216,1,2025-03-07_13h25.56.350,comp,2024.2.4,56.89830402708781,2025-03-07 13h28.25.255337 -0500,
68,68,0,critical,hdw,20.0,2.1,upper,200.0,125.0,141.0,141.0,125.0,200.0,3,0.7476546764373779,None,,,,,0,0,0,0,0,68,68,47,182.50813913345337,,,,,,,,,,,,,,,,,,,,,,,,,,,,,,,,,,,,,,,,,,,,,,,,,,,,,,,,,,,,,,,,,,,,,,,,,,,,,,,,,200.0,125.0,141.0,141.0,125.0,200.0,2.1,2.12,-229,-274,0,-251,266,258,182.4891278743744,182.4892110824585,182.4922170639038,182.50813913345337,182.63973259925842,182.63973259925842,182.63973259925842,182.63973259925842,182.63973259925842,182.63973259925842,182.63973259925842,183.26116275787354,3,0.7476546764373779,None,,,,,,,,,,,,,,,,,,216,1,2025-03-07_13h25.56.350,comp,2024.2.4,56.89830402708781,2025-03-07 13h28.25.255337 -0500,
69,69,0,filler_square,None,None,None,None,None,None,None,None,None,None,1,0.7344315052032471,None,,,,,0,0,0,0,0,69,69,172,183.28175616264343,,,,,,,,,,,,,,,,,,,,,,,,,,,,,,,,,,,,,,,,,,,,,,,,,,,,,,,,,,,,,,,,,,,,,,,,,,,,,,,,,113.20202318975002,113.20202318975002,87.46700159269196,85.40426907024845,112.88026680409101,91.8282003638326,4.0,4.2,-195,17,0,-258,185,-8,183.26306128501892,183.26314973831177,183.26613569259644,183.28175616264343,183.42752408981323,183.42752408981323,183.42752408981323,183.42752408981323,183.42752408981323,183.42752408981323,183.42752408981323,184.02528357505798,1,0.7344315052032471,None,,,,,,,,,,,,,,,,,,216,1,2025-03-07_13h25.56.350,comp,2024.2.4,56.89830402708781,2025-03-07 13h28.25.255337 -0500,
70,70,0,filler_square,None,None,None,None,None,None,None,None,None,None,1,0.6300256252288818,None,,,,,0,0,0,0,0,70,70,181,184.04189085960388,,,,,,,,,,,,,,,,,,,,,,,,,,,,,,,,,,,,,,,,,,,,,,,,,,,,,,,,,,,,,,,,,,,,,,,,,,,,,,,,,145.8931818235999,145.8931818235999,136.20063703010305,64.26164353221381,88.38534318042463,135.70038522443483,4.0,4.2,-201,-4,0,-275,196,0,184.02727150917053,184.02735543251038,184.0306520462036,184.04189085960388,184.18916273117065,184.18916273117065,184.18916273117065,184.18916273117065,184.18916273117065,184.18916273117065,184.18916273117065,184.69125699996948,1,0.6300256252288818,None,,,,,,,,,,,,,,,,,,216,1,2025-03-07_13h25.56.350,comp,2024.2.4,56.89830402708781,2025-03-07 13h28.25.255337 -0500,
71,71,0,critical,whd,20.0,3.0,lower,57.0,133.0,133.0,57.0,78.0,78.0,3,1.4366753101348877,None,,,,,0,0,0,0,0,71,71,92,184.70654010772705,,,,,,,,,,,,,,,,,,,,,,,,,,,,,,,,,,,,,,,,,,,,,,,,,,,,,,,,,,,,,,,,,,,,,,,,,,,,,,,,,57.0,133.0,133.0,57.0,78.0,78.0,3.0,3.2,-191,-288,0,1,164,262,184.69281816482544,184.6928997039795,184.69623160362244,184.70654010772705,184.85664629936218,184.85664629936218,184.85664629936218,184.85664629936218,184.85664629936218,184.85664629936218,184.85664629936218,186.15879917144775,3,1.4366753101348877,None,,,,,,,,,,,,,,,,,,216,1,2025-03-07_13h25.56.350,comp,2024.2.4,56.89830402708781,2025-03-07 13h28.25.255337 -0500,
72,72,0,critical,wdh,35.0,3.0,lower,57.0,133.0,70.0,70.0,133.0,57.0,3,1.6800925731658936,None,,,,,0,0,0,0,0,72,72,74,186.1750795841217,,,,,,,,,,,,,,,,,,,,,,,,,,,,,,,,,,,,,,,,,,,,,,,,,,,,,,,,,,,,,,,,,,,,,,,,,,,,,,,,,57.0,133.0,70.0,70.0,133.0,57.0,3.0,3.1,-198,286,0,-11,160,-262,186.16037726402283,186.16051578521729,186.16464591026306,186.1750795841217,186.3247628211975,186.3247628211975,186.3247628211975,186.3247628211975,186.3247628211975,186.3247628211975,186.3247628211975,187.8579957485199,3,1.6800925731658936,None,,,,,,,,,,,,,,,,,,216,1,2025-03-07_13h25.56.350,comp,2024.2.4,56.89830402708781,2025-03-07 13h28.25.255337 -0500,
73,73,0,filler_square,None,None,None,None,None,None,None,None,None,None,1,0.7340190410614014,None,,,,,0,0,0,0,0,73,73,176,187.87359714508057,,,,,,,,,,,,,,,,,,,,,,,,,,,,,,,,,,,,,,,,,,,,,,,,,,,,,,,,,,,,,,,,,,,,,,,,,,,,,,,,,186.6368964947129,186.6368964947129,175.77830731593883,150.3929015001083,111.47111267909301,105.9226370818874,4.0,4.2,-265,10,0,-263,224,8,187.86018824577332,187.86027097702026,187.8638780117035,187.87359714508057,188.02294945716858,188.02294945716858,188.02294945716858,188.02294945716858,188.02294945716858,188.02294945716858,188.02294945716858,188.6163592338562,1,0.7340190410614014,None,,,,,,,,,,,,,,,,,,216,1,2025-03-07_13h25.56.350,comp,2024.2.4,56.89830402708781,2025-03-07 13h28.25.255337 -0500,
74,74,0,filler_random,None,None,None,None,None,None,None,None,None,None,2,0.6641511917114258,None,,,,,0,0,0,0,0,74,74,149,188.63191199302673,,,,,,,,,,,,,,,,,,,,,,,,,,,,,,,,,,,,,,,,,,,,,,,,,,,,,,,,,,,,,,,,,,,,,,,,,,,,,,,,,139.19546096813548,73.39028999068269,180.63675606591283,144.0978660626314,81.244344957918,135.34776993540305,2.2,2.21,-205,-264,0,261,236,276,188.61791849136353,188.61799669265747,188.6209638118744,188.63191199302673,188.77781558036804,188.77781558036804,188.77781558036804,188.77781558036804,188.77781558036804,188.77781558036804,188.77781558036804,189.30388259887695,2,0.6641511917114258,None,,,,,,,,,,,,,,,,,,216,1,2025-03-07_13h25.56.350,comp,2024.2.4,56.89830402708781,2025-03-07 13h28.25.255337 -0500,
75,75,0,critical,hwd,20.0,2.1,lower,133.0,57.0,57.0,133.0,78.0,78.0,2,1.2071244716644287,None,,,,,0,0,0,0,0,75,75,18,189.3202269077301,,,,,,,,,,,,,,,,,,,,,,,,,,,,,,,,,,,,,,,,,,,,,,,,,,,,,,,,,,,,,,,,,,,,,,,,,,,,,,,,,133.0,57.0,57.0,133.0,78.0,78.0,2.1,2.11,-191,261,0,258,202,-287,189.3054621219635,189.3055396080017,189.30858540534973,189.3202269077301,189.4745216369629,189.4745216369629,189.4745216369629,189.4745216369629,189.4745216369629,189.4745216369629,189.4745216369629,190.54196548461914,2,1.2071244716644287,None,,,,,,,,,,,,,,,,,,216,1,2025-03-07_13h25.56.350,comp,2024.2.4,56.89830402708781,2025-03-07 13h28.25.255337 -0500,
76,76,0,filler_square,None,None,None,None,None,None,None,None,None,None,3,0.6910960674285889,None,,,,,0,0,0,0,0,76,76,184,190.55630612373352,,,,,,,,,,,,,,,,,,,,,,,,,,,,,,,,,,,,,,,,,,,,,,,,,,,,,,,,,,,,,,,,,,,,,,,,,,,,,,,,,128.14095706850162,69.86812135228834,74.41641541340707,107.26592967754999,132.16883249718487,132.16883249718487,3.0,3.1,-185,282,0,17,216,-251,190.54383850097656,190.5439214706421,190.54722952842712,190.55630612373352,190.70899415016174,190.70899415016174,190.70899415016174,190.70899415016174,190.70899415016174,190.70899415016174,190.70899415016174,191.2602734565735,3,0.6910960674285889,None,,,,,,,,,,,,,,,,,,216,1,2025-03-07_13h25.56.350,comp,2024.2.4,56.89830402708781,2025-03-07 13h28.25.255337 -0500,
77,77,0,critical,whd,20.0,4.0,lower,57.0,133.0,133.0,57.0,78.0,78.0,1,0.8114311695098877,None,,,,,0,0,0,0,0,77,77,94,191.2764503955841,,,,,,,,,,,,,,,,,,,,,,,,,,,,,,,,,,,,,,,,,,,,,,,,,,,,,,,,,,,,,,,,,,,,,,,,,,,,,,,,,57.0,133.0,133.0,57.0,78.0,78.0,4.0,4.1,-191,-268,0,13,164,-260,191.26186323165894,191.26198720932007,191.26563596725464,191.2764503955841,191.42621994018555,191.42621994018555,191.42621994018555,191.42621994018555,191.42621994018555,191.42621994018555,191.42621994018555,192.09087681770325,1,0.8114311695098877,None,,,,,,,,,,,,,,,,,,216,1,2025-03-07_13h25.56.350,comp,2024.2.4,56.89830402708781,2025-03-07 13h28.25.255337 -0500,
78,78,0,critical,hdw,20.0,2.1,upper,200.0,125.0,141.0,141.0,125.0,200.0,2,0.983283281326294,None,,,,,0,0,0,0,0,78,78,23,192.10490798950195,,,,,,,,,,,,,,,,,,,,,,,,,,,,,,,,,,,,,,,,,,,,,,,,,,,,,,,,,,,,,,,,,,,,,,,,,,,,,,,,,200.0,125.0,141.0,141.0,125.0,200.0,2.1,2.11,-229,265,0,263,266,-250,192.09131240844727,192.09133100509644,192.09209513664246,192.10490798950195,192.241060256958,192.241060256958,192.241060256958,192.241060256958,192.241060256958,192.241060256958,192.241060256958,193.09325742721558,2,0.983283281326294,None,,,,,,,,,,,,,,,,,,216,1,2025-03-07_13h25.56.350,comp,2024.2.4,56.89830402708781,2025-03-07 13h28.25.255337 -0500,
79,79,0,catch,None,None,None,None,None,None,None,None,None,None,1,0.7302026748657227,None,,,,,0,0,0,0,0,79,79,120,193.1094844341278,,,,,,,,,,,,,,,,,,,,,,,,,,,,,,,,,,,,,,,,,,,,,,,,,,,,,,,,,,,,,,,,,,,,,,,,,,,,,,,,,127,198,99,91,86,104,1.0,1.1,-720,285,-480,274,-286,278,193.0952742099762,193.09536123275757,193.09879755973816,193.1094844341278,193.2604682445526,193.2604682445526,193.2604682445526,193.2604682445526,193.2604682445526,193.2604682445526,193.2604682445526,193.84197568893433,1,0.7302026748657227,None,,,,,,,,,,,,,,,,,,216,1,2025-03-07_13h25.56.350,comp,2024.2.4,56.89830402708781,2025-03-07 13h28.25.255337 -0500,
80,80,0,critical,hwd,35.0,4.0,upper,200.0,125.0,125.0,200.0,127.0,127.0,2,0.8292062282562256,None,,,,,0,0,0,0,0,80,80,101,193.8584942817688,,,,,,,,,,,,,,,,,,,,,,,,,,,,,,,,,,,,,,,,,,,,,,,,,,,,,,,,,,,,,,,,,,,,,,,,,,,,,,,,,200.0,125.0,125.0,200.0,127.0,127.0,4.0,4.2,-258,-19,0,-254,260,9,193.84352016448975,193.843599319458,193.84677028656006,193.8584942817688,194.01311230659485,194.01311230659485,194.01311230659485,194.01311230659485,194.01311230659485,194.01311230659485,194.01311230659485,194.69256734848022,2,0.8292062282562256,None,,,,,,,,,,,,,,,,,,216,1,2025-03-07_13h25.56.350,comp,2024.2.4,56.89830402708781,2025-03-07 13h28.25.255337 -0500,
81,81,0,critical,whd,20.0,1.0,lower,57.0,133.0,133.0,57.0,78.0,78.0,2,1.6666836738586426,None,,,,,0,0,0,0,0,81,81,90,194.70904064178467,,,,,,,,,,,,,,,,,,,,,,,,,,,,,,,,,,,,,,,,,,,,,,,,,,,,,,,,,,,,,,,,,,,,,,,,,,,,,,,,,57.0,133.0,133.0,57.0,78.0,78.0,1.0,1.1,-671,252,-480,276,-316,290,194.6941831111908,194.6942653656006,194.6974847316742,194.70904064178467,194.859712600708,194.859712600708,194.859712600708,194.859712600708,194.859712600708,194.859712600708,194.859712600708,196.38262629508972,2,1.6666836738586426,None,,,,,,,,,,,,,,,,,,216,1,2025-03-07_13h25.56.350,comp,2024.2.4,56.89830402708781,2025-03-07 13h28.25.255337 -0500,
82,82,0,catch,None,None,None,None,None,None,None,None,None,None,2,1.0246968269348145,None,,,,,0,0,0,0,0,82,82,123,196.3994038105011,,,,,,,,,,,,,,,,,,,,,,,,,,,,,,,,,,,,,,,,,,,,,,,,,,,,,,,,,,,,,,,,,,,,,,,,,,,,,,,,,67,123,154,171,96,94,4.0,4.2,-243,-7,0,-260,228,-12,196.38462781906128,196.3847575187683,196.3885326385498,196.3994038105011,196.54798412322998,196.54798412322998,196.54798412322998,196.54798412322998,196.54798412322998,196.54798412322998,196.54798412322998,197.42944288253784,2,1.0246968269348145,None,,,,,,,,,,,,,,,,,,216,1,2025-03-07_13h25.56.350,comp,2024.2.4,56.89830402708781,2025-03-07 13h28.25.255337 -0500,
83,83,0,critical,whd,20.0,4.0,upper,125.0,200.0,200.0,125.0,141.0,141.0,2,0.5621285438537598,None,,,,,0,0,0,0,0,83,83,95,197.44588255882263,,,,,,,,,,,,,,,,,,,,,,,,,,,,,,,,,,,,,,,,,,,,,,,,,,,,,,,,,,,,,,,,,,,,,,,,,,,,,,,,,125.0,200.0,200.0,125.0,141.0,141.0,4.0,4.2,-258,-10,0,-270,229,9,197.43120884895325,197.43129205703735,197.4351966381073,197.44588255882263,197.59488439559937,197.59488439559937,197.59488439559937,197.59488439559937,197.59488439559937,197.59488439559937,197.59488439559937,198.01349353790283,2,0.5621285438537598,None,,,,,,,,,,,,,,,,,,216,1,2025-03-07_13h25.56.350,comp,2024.2.4,56.89830402708781,2025-03-07 13h28.25.255337 -0500,
84,84,0,critical,dhw,20.0,4.0,lower,78.0,78.0,133.0,57.0,57.0,133.0,3,1.7702009677886963,None,,,,,0,0,0,0,0,84,84,58,198.03020429611206,,,,,,,,,,,,,,,,,,,,,,,,,,,,,,,,,,,,,,,,,,,,,,,,,,,,,,,,,,,,,,,,,,,,,,,,,,,,,,,,,78.0,78.0,133.0,57.0,57.0,133.0,4.0,4.1,-164,-260,0,-17,191,-265,198.01558351516724,198.01571941375732,198.01881003379822,198.03020429611206,198.18215250968933,198.18215250968933,198.18215250968933,198.18215250968933,198.18215250968933,198.18215250968933,198.18215250968933,199.80553555488586,3,1.7702009677886963,None,,,,,,,,,,,,,,,,,,216,1,2025-03-07_13h25.56.350,comp,2024.2.4,56.89830402708781,2025-03-07 13h28.25.255337 -0500,
85,85,0,filler_square,None,None,None,None,None,None,None,None,None,None,3,1.1089885234832764,None,,,,,0,0,0,0,0,85,85,203,199.82712364196777,,,,,,,,,,,,,,,,,,,,,,,,,,,,,,,,,,,,,,,,,,,,,,,,,,,,,,,,,,,,,,,,,,,,,,,,,,,,,,,,,89.85951399237717,76.48127035835583,80.53220977507307,74.87145842233568,95.40302292538014,95.40302292538014,2.1,2.11,-172,273,0,284,181,-253,199.80762100219727,199.8077037334442,199.81118416786194,199.82712364196777,199.96266865730286,199.96266865730286,199.96266865730286,199.96266865730286,199.96266865730286,199.96266865730286,199.96266865730286,200.9422640800476,3,1.1089885234832764,None,,,,,,,,,,,,,,,,,,216,1,2025-03-07_13h25.56.350,comp,2024.2.4,56.89830402708781,2025-03-07 13h28.25.255337 -0500,
86,86,0,critical,whd,20.0,3.0,upper,125.0,200.0,200.0,125.0,141.0,141.0,1,1.0161488056182861,None,,,,,0,0,0,0,0,86,86,93,200.95898699760437,,,,,,,,,,,,,,,,,,,,,,,,,,,,,,,,,,,,,,,,,,,,,,,,,,,,,,,,,,,,,,,,,,,,,,,,,,,,,,,,,125.0,200.0,200.0,125.0,141.0,141.0,3.0,3.1,-258,271,0,0,229,-256,200.9438238143921,200.94390392303467,200.9469075202942,200.95898699760437,201.09988713264465,201.09988713264465,201.09988713264465,201.09988713264465,201.09988713264465,201.09988713264465,201.09988713264465,201.9865927696228,1,1.0161488056182861,None,,,,,,,,,,,,,,,,,,216,1,2025-03-07_13h25.56.350,comp,2024.2.4,56.89830402708781,2025-03-07 13h28.25.255337 -0500,
87,87,0,filler_square,None,None,None,None,None,None,None,None,None,None,2,1.005617380142212,None,,,,,0,0,0,0,0,87,87,209,202.00215888023376,,,,,,,,,,,,,,,,,,,,,,,,,,,,,,,,,,,,,,,,,,,,,,,,,,,,,,,,,,,,,,,,,,,,,,,,,,,,,,,,,90.01669084907795,59.30499640039376,94.17552566741237,94.17552566741237,82.02494026397154,86.30472168470592,1.0,1.2,-173,13,0,-20,186,-8,201.9883201122284,201.9884009361267,201.9914116859436,202.00215888023376,202.14656853675842,202.14656853675842,202.14656853675842,202.14656853675842,202.14656853675842,202.14656853675842,202.14656853675842,203.01178240776062,2,1.005617380142212,None,,,,,,,,,,,,,,,,,,216,1,2025-03-07_13h25.56.350,comp,2024.2.4,56.89830402708781,2025-03-07 13h28.25.255337 -0500,
88,88,0,critical,wdh,35.0,2.1,lower,57.0,133.0,70.0,70.0,133.0,57.0,3,1.4666717052459717,None,,,,,0,0,0,0,0,88,88,8,203.02866077423096,,,,,,,,,,,,,,,,,,,,,,,,,,,,,,,,,,,,,,,,,,,,,,,,,,,,,,,,,,,,,,,,,,,,,,,,,,,,,,,,,57.0,133.0,70.0,70.0,133.0,57.0,2.1,2.11,-198,283,0,286,160,-282,203.0133810043335,203.0134630203247,203.01671934127808,203.02866077423096,203.17939043045044,203.17939043045044,203.17939043045044,203.17939043045044,203.17939043045044,203.17939043045044,203.17939043045044,204.51399159431458,3,1.4666717052459717,None,,,,,,,,,,,,,,,,,,216,1,2025-03-07_13h25.56.350,comp,2024.2.4,56.89830402708781,2025-03-07 13h28.25.255337 -0500,
89,89,0,critical,whd,20.0,2.1,lower,57.0,133.0,133.0,57.0,78.0,78.0,1,2.051016330718994,None,,,,,0,0,0,0,0,89,89,38,204.5324583053589,,,,,,,,,,,,,,,,,,,,,,,,,,,,,,,,,,,,,,,,,,,,,,,,,,,,,,,,,,,,,,,,,,,,,,,,,,,,,,,,,57.0,133.0,133.0,57.0,78.0,78.0,2.1,2.12,-191,-252,0,-251,164,275,204.51550126075745,204.51558208465576,204.51874566078186,204.5324583053589,204.68651604652405,204.68651604652405,204.68651604652405,204.68651604652405,204.68651604652405,204.68651604652405,204.68651604652405,206.59584403038025,1,2.051016330718994,None,,,,,,,,,,,,,,,,,,216,1,2025-03-07_13h25.56.350,comp,2024.2.4,56.89830402708781,2025-03-07 13h28.25.255337 -0500,
90,90,0,critical,hdw,20.0,2.1,lower,133.0,57.0,78.0,78.0,57.0,133.0,3,1.3558006286621094,None,,,,,0,0,0,0,0,90,90,46,206.61162424087524,,,,,,,,,,,,,,,,,,,,,,,,,,,,,,,,,,,,,,,,,,,,,,,,,,,,,,,,,,,,,,,,,,,,,,,,,,,,,,,,,133.0,57.0,78.0,78.0,57.0,133.0,2.1,2.12,-164,-280,0,-287,202,282,206.5974760055542,206.5975890159607,206.60094738006592,206.61162424087524,206.7651653289795,206.7651653289795,206.7651653289795,206.7651653289795,206.7651653289795,206.7651653289795,206.7651653289795,207.98079776763916,3,1.3558006286621094,None,,,,,,,,,,,,,,,,,,216,1,2025-03-07_13h25.56.350,comp,2024.2.4,56.89830402708781,2025-03-07 13h28.25.255337 -0500,
91,91,0,filler_square,None,None,None,None,None,None,None,None,None,None,1,1.0024280548095703,None,,,,,0,0,0,0,0,91,91,198,207.99685072898865,,,,,,,,,,,,,,,,,,,,,,,,,,,,,,,,,,,,,,,,,,,,,,,,,,,,,,,,,,,,,,,,,,,,,,,,,,,,,,,,,137.2416092094332,137.2416092094332,58.47773162927401,86.94413161898683,59.63443382561316,124.39945396920771,4.0,4.2,-208,-19,0,-288,202,-20,207.98279738426208,207.98289275169373,207.98634386062622,207.99685072898865,208.1481647491455,208.1481647491455,208.1481647491455,208.1481647491455,208.1481647491455,208.1481647491455,208.1481647491455,209.00307536125183,1,1.0024280548095703,None,,,,,,,,,,,,,,,,,,216,1,2025-03-07_13h25.56.350,comp,2024.2.4,56.89830402708781,2025-03-07 13h28.25.255337 -0500,
92,92,0,filler_square,None,None,None,None,None,None,None,None,None,None,1,0.8122498989105225,None,,,,,0,0,0,0,0,92,92,195,209.01959013938904,,,,,,,,,,,,,,,,,,,,,,,,,,,,,,,,,,,,,,,,,,,,,,,,,,,,,,,,,,,,,,,,,,,,,,,,,,,,,,,,,162.7703708942332,162.7703708942332,121.04512029105513,114.07135033603292,96.59682668148423,85.88261113563249,4.0,4.1,-234,-272,0,-4,196,-261,209.0048599243164,209.00494289398193,209.00849032402039,209.01959013938904,209.16468238830566,209.16468238830566,209.16468238830566,209.16468238830566,209.16468238830566,209.16468238830566,209.16468238830566,209.84837651252747,1,0.8122498989105225,None,,,,,,,,,,,,,,,,,,216,1,2025-03-07_13h25.56.350,comp,2024.2.4,56.89830402708781,2025-03-07 13h28.25.255337 -0500,
93,93,0,critical,dhw,20.0,1.0,lower,78.0,78.0,133.0,57.0,57.0,133.0,3,0.9587695598602295,None,,,,,0,0,0,0,0,93,93,54,209.86480951309204,,,,,,,,,,,,,,,,,,,,,,,,,,,,,,,,,,,,,,,,,,,,,,,,,,,,,,,,,,,,,,,,,,,,,,,,,,,,,,,,,78.0,78.0,133.0,57.0,57.0,133.0,1.0,1.1,-644,275,-480,253,-289,253,209.8499186038971,209.84999871253967,209.85416293144226,209.86480951309204,210.001633644104,210.001633644104,210.001633644104,210.001633644104,210.001633644104,210.001633644104,210.001633644104,210.8352403640747,3,0.9587695598602295,None,,,,,,,,,,,,,,,,,,216,1,2025-03-07_13h25.56.350,comp,2024.2.4,56.89830402708781,2025-03-07 13h28.25.255337 -0500,
94,94,0,filler_square,None,None,None,None,None,None,None,None,None,None,3,1.3109350204467773,None,,,,,0,0,0,0,0,94,94,171,210.85636830329895,,,,,,,,,,,,,,,,,,,,,,,,,,,,,,,,,,,,,,,,,,,,,,,,,,,,,,,,,,,,,,,,,,,,,,,,,,,,,,,,,59.9239959088941,59.581351926322846,68.63234817859677,77.61206799469026,108.51527764484118,108.51527764484118,4.0,4.1,-165,-251,0,-19,189,-289,210.83721256256104,210.8372986316681,210.84055352210999,210.85636830329895,210.9984974861145,210.9984974861145,210.9984974861145,210.9984974861145,210.9984974861145,210.9984974861145,210.9984974861145,212.18425154685974,3,1.3109350204467773,None,,,,,,,,,,,,,,,,,,216,1,2025-03-07_13h25.56.350,comp,2024.2.4,56.89830402708781,2025-03-07 13h28.25.255337 -0500,
95,95,0,critical,hdw,20.0,1.0,lower,133.0,57.0,78.0,78.0,57.0,133.0,3,1.3509283065795898,None,,,,,0,0,0,0,0,95,95,114,212.20052337646484,,,,,,,,,,,,,,,,,,,,,,,,,,,,,,,,,,,,,,,,,,,,,,,,,,,,,,,,,,,,,,,,,,,,,,,,,,,,,,,,,133.0,57.0,78.0,78.0,57.0,133.0,1.0,1.2,-164,8,0,-8,202,10,212.18607139587402,212.18620896339417,212.19016981124878,212.20052337646484,212.34707164764404,212.34707164764404,212.34707164764404,212.34707164764404,212.34707164764404,212.34707164764404,212.34707164764404,213.55396914482117,3,1.3509283065795898,None,,,,,,,,,,,,,,,,,,216,1,2025-03-07_13h25.56.350,comp,2024.2.4,56.89830402708781,2025-03-07 13h28.25.255337 -0500,
96,96,0,critical,whd,35.0,2.1,upper,125.0,200.0,200.0,125.0,127.0,127.0,1,2.314663887023926,None,,,,,0,0,0,0,0,96,96,13,213.5724425315857,,,,,,,,,,,,,,,,,,,,,,,,,,,,,,,,,,,,,,,,,,,,,,,,,,,,,,,,,,,,,,,,,,,,,,,,,,,,,,,,,125.0,200.0,200.0,125.0,127.0,127.0,2.1,2.11,-258,285,0,266,222,-265,213.55559825897217,213.55567932128906,213.5591115951538,213.5724425315857,213.71638941764832,213.71638941764832,213.71638941764832,213.71638941764832,213.71638941764832,213.71638941764832,213.71638941764832,215.89837217330933,1,2.314663887023926,None,,,,,,,,,,,,,,,,,,216,1,2025-03-07_13h25.56.350,comp,2024.2.4,56.89830402708781,2025-03-07 13h28.25.255337 -0500,
97,97,0,catch,None,None,None,None,None,None,None,None,None,None,1,0.7256319522857666,None,,,,,0,0,0,0,0,97,97,125,215.9137101173401,,,,,,,,,,,,,,,,,,,,,,,,,,,,,,,,,,,,,,,,,,,,,,,,,,,,,,,,,,,,,,,,,,,,,,,,,,,,,,,,,132,193,110,80,77,113,2.1,2.11,-232,270,0,272,192,-288,215.90026378631592,215.90034317970276,215.9035882949829,215.9137101173401,216.0686056613922,216.0686056613922,216.0686056613922,216.0686056613922,216.0686056613922,216.0686056613922,216.0686056613922,216.65249705314636,1,0.7256319522857666,None,,,,,,,,,,,,,,,,,,216,1,2025-03-07_13h25.56.350,comp,2024.2.4,56.89830402708781,2025-03-07 13h28.25.255337 -0500,
98,98,0,filler_square,None,None,None,None,None,None,None,None,None,None,3,0.8344995975494385,None,,,,,0,0,0,0,0,98,98,185,216.6687023639679,,,,,,,,,,,,,,,,,,,,,,,,,,,,,,,,,,,,,,,,,,,,,,,,,,,,,,,,,,,,,,,,,,,,,,,,,,,,,,,,,73.81672831724123,81.74893248948166,170.77512413518778,114.88044673983174,191.2421622232932,191.2421622232932,4.0,4.1,-194,-281,0,-1,249,-257,216.6546115875244,216.6546928882599,216.6583216190338,216.6687023639679,216.82326745986938,216.82326745986938,216.82326745986938,216.82326745986938,216.82326745986938,216.82326745986938,216.82326745986938,217.51631903648376,3,0.8344995975494385,None,,,,,,,,,,,,,,,,,,216,1,2025-03-07_13h25.56.350,comp,2024.2.4,56.89830402708781,2025-03-07 13h28.25.255337 -0500,
99,99,0,critical,hdw,20.0,4.0,upper,200.0,125.0,141.0,141.0,125.0,200.0,3,0.7953572273254395,None,,,,,0,0,0,0,0,99,99,119,217.53184413909912,,,,,,,,,,,,,,,,,,,,,,,,,,,,,,,,,,,,,,,,,,,,,,,,,,,,,,,,,,,,,,,,,,,,,,,,,,,,,,,,,200.0,125.0,141.0,141.0,125.0,200.0,4.0,4.2,-229,4,0,-287,266,-3,217.51779580116272,217.51787209510803,217.5211853981018,217.53184413909912,217.68327069282532,217.68327069282532,217.68327069282532,217.68327069282532,217.68327069282532,217.68327069282532,217.68327069282532,218.34125232696533,3,0.7953572273254395,None,,,,,,,,,,,,,,,,,,216,1,2025-03-07_13h25.56.350,comp,2024.2.4,56.89830402708781,2025-03-07 13h28.25.255337 -0500,
100,100,0,filler_square,None,None,None,None,None,None,None,None,None,None,3,0.8222887516021729,None,,,,,0,0,0,0,0,100,100,202,218.36139965057373,,,,,,,,,,,,,,,,,,,,,,,,,,,,,,,,,,,,,,,,,,,,,,,,,,,,,,,,,,,,,,,,,,,,,,,,,,,,,,,,,90.29927280433442,113.29627055183838,137.6381710804214,111.06041818097245,138.52099605345506,138.52099605345506,2.2,2.22,-208,283,0,-254,221,-251,218.343035697937,218.34311819076538,218.34612345695496,218.36139965057373,218.49814367294312,218.49814367294312,218.49814367294312,218.49814367294312,218.49814367294312,218.49814367294312,218.49814367294312,219.18782138824463,3,0.8222887516021729,None,,,,,,,,,,,,,,,,,,216,1,2025-03-07_13h25.56.350,comp,2024.2.4,56.89830402708781,2025-03-07 13h28.25.255337 -0500,
101,101,0,filler_square,None,None,None,None,None,None,None,None,None,None,3,0.5941874980926514,None,,,,,0,0,0,0,0,101,101,190,219.2049503326416,,,,,,,,,,,,,,,,,,,,,,,,,,,,,,,,,,,,,,,,,,,,,,,,,,,,,,,,,,,,,,,,,,,,,,,,,,,,,,,,,60.32888676427876,61.05438169593979,81.30361939329352,69.35611328391096,143.3993616748391,143.3993616748391,2.1,2.11,-161,261,0,277,202,-264,219.19019865989685,219.19028162956238,219.1932978630066,219.2049503326416,219.3508358001709,219.3508358001709,219.3508358001709,219.3508358001709,219.3508358001709,219.3508358001709,219.3508358001709,219.80836296081543,3,0.5941874980926514,None,,,,,,,,,,,,,,,,,,216,1,2025-03-07_13h25.56.350,comp,2024.2.4,56.89830402708781,2025-03-07 13h28.25.255337 -0500,
102,102,0,critical,dhw,20.0,3.0,lower,78.0,78.0,133.0,57.0,57.0,133.0,3,1.5268099308013916,None,,,,,0,0,0,0,0,102,102,56,219.82450079917908,,,,,,,,,,,,,,,,,,,,,,,,,,,,,,,,,,,,,,,,,,,,,,,,,,,,,,,,,,,,,,,,,,,,,,,,,,,,,,,,,78.0,78.0,133.0,57.0,57.0,133.0,3.0,3.1,-164,285,0,2,191,-290,219.80994629859924,219.81006288528442,219.8130784034729,219.82450079917908,219.96645665168762,219.96645665168762,219.96645665168762,219.96645665168762,219.96645665168762,219.96645665168762,219.96645665168762,221.37200236320496,3,1.5268099308013916,None,,,,,,,,,,,,,,,,,,216,1,2025-03-07_13h25.56.350,comp,2024.2.4,56.89830402708781,2025-03-07 13h28.25.255337 -0500,
103,103,0,filler_square,None,None,None,None,None,None,None,None,None,None,2,1.3928954601287842,None,,,,,0,0,0,0,0,103,103,178,221.39082598686218,,,,,,,,,,,,,,,,,,,,,,,,,,,,,,,,,,,,,,,,,,,,,,,,,,,,,,,,,,,,,,,,,,,,,,,,,,,,,,,,,57.28960817896014,57.85627001692668,61.74195100980764,61.74195100980764,57.33850517149371,59.50396781699476,1.0,1.2,-156,9,0,5,157,8,221.37415599822998,221.37427401542664,221.3777585029602,221.39082598686218,221.5351333618164,221.5351333618164,221.5351333618164,221.5351333618164,221.5351333618164,221.5351333618164,221.5351333618164,222.7927553653717,2,1.3928954601287842,None,,,,,,,,,,,,,,,,,,216,1,2025-03-07_13h25.56.350,comp,2024.2.4,56.89830402708781,2025-03-07 13h28.25.255337 -0500,
104,104,0,filler_square,None,None,None,None,None,None,None,None,None,None,3,1.107375144958496,None,,,,,0,0,0,0,0,104,104,192,222.81193685531616,,,,,,,,,,,,,,,,,,,,,,,,,,,,,,,,,,,,,,,,,,,,,,,,,,,,,,,,,,,,,,,,,,,,,,,,,,,,,,,,,99.74301462383558,96.55891337787195,130.33861142733053,92.6370509198272,139.9161246620056,139.9161246620056,4.0,4.2,-191,-17,0,-262,212,-6,222.79452109336853,222.794602394104,222.79761004447937,222.81193685531616,222.9531445503235,222.9531445503235,222.9531445503235,222.9531445503235,222.9531445503235,222.9531445503235,222.9531445503235,223.93684554100037,3,1.107375144958496,None,,,,,,,,,,,,,,,,,,216,1,2025-03-07_13h25.56.350,comp,2024.2.4,56.89830402708781,2025-03-07 13h28.25.255337 -0500,
105,105,0,critical,wdh,35.0,1.0,lower,57.0,133.0,70.0,70.0,133.0,57.0,1,1.918349266052246,None,,,,,0,0,0,0,0,105,105,72,223.9529480934143,,,,,,,,,,,,,,,,,,,,,,,,,,,,,,,,,,,,,,,,,,,,,,,,,,,,,,,,,,,,,,,,,,,,,,,,,,,,,,,,,57.0,133.0,70.0,70.0,133.0,57.0,1.0,1.3,282,-266,480,-255,640,-274,223.93838095664978,223.93846082687378,223.942608833313,223.9529480934143,224.10526037216187,224.10526037216187,224.10526037216187,224.10526037216187,224.10526037216187,224.10526037216187,224.10526037216187,225.88835883140564,1,1.918349266052246,None,,,,,,,,,,,,,,,,,,216,1,2025-03-07_13h25.56.350,comp,2024.2.4,56.89830402708781,2025-03-07 13h28.25.255337 -0500,
106,106,0,critical,wdh,20.0,2.1,upper,125.0,200.0,141.0,141.0,200.0,125.0,1,0.023459196090698242,None,,,,,0,0,0,0,0,106,106,11,225.9047122001648,,,,,,,,,,,,,,,,,,,,,,,,,,,,,,,,,,,,,,,,,,,,,,,,,,,,,,,,,,,,,,,,,,,,,,,,,,,,,,,,,125.0,200.0,141.0,141.0,200.0,125.0,2.1,2.12,-266,-253,0,-281,229,256,225.88996744155884,225.89007472991943,225.89334964752197,225.9047122001648,,,,,,,,225.93535447120667,1,0.023459196090698242,None,,,,,,,,,,,,,,,,,,216,1,2025-03-07_13h25.56.350,comp,2024.2.4,56.89830402708781,2025-03-07 13h28.25.255337 -0500,
107,107,0,catch,None,None,None,None,None,None,None,None,None,None,3,0.8194549083709717,None,,,,,0,0,0,0,0,107,107,126,225.95586228370667,,,,,,,,,,,,,,,,,,,,,,,,,,,,,,,,,,,,,,,,,,,,,,,,,,,,,,,,,,,,,,,,,,,,,,,,,,,,,,,,,58,132,124,66,194,131,2.1,2.12,-195,-254,0,-261,194,259,225.9374499320984,225.9375283718109,225.94091081619263,225.95586228370667,226.10612797737122,226.10612797737122,226.10612797737122,226.10612797737122,226.10612797737122,226.10612797737122,226.10612797737122,226.78510093688965,3,0.8194549083709717,None,,,,,,,,,,,,,,,,,,216,1,2025-03-07_13h25.56.350,comp,2024.2.4,56.89830402708781,2025-03-07 13h28.25.255337 -0500,
108,108,0,critical,whd,35.0,2.1,upper,125.0,200.0,200.0,125.0,127.0,127.0,1,1.525649070739746,None,,,,,0,0,0,0,0,108,108,37,226.80169773101807,,,,,,,,,,,,,,,,,,,,,,,,,,,,,,,,,,,,,,,,,,,,,,,,,,,,,,,,,,,,,,,,,,,,,,,,,,,,,,,,,125.0,200.0,200.0,125.0,127.0,127.0,2.1,2.11,-258,282,0,278,222,-254,226.78660368919373,226.78668332099915,226.78974890708923,226.80169773101807,226.9380407333374,226.9380407333374,226.9380407333374,226.9380407333374,226.9380407333374,226.9380407333374,226.9380407333374,228.3398358821869,1,1.525649070739746,None,,,,,,,,,,,,,,,,,,216,1,2025-03-07_13h25.56.350,comp,2024.2.4,56.89830402708781,2025-03-07 13h28.25.255337 -0500,
109,109,0,critical,dhw,35.0,1.0,lower,70.0,70.0,133.0,57.0,57.0,133.0,3,2.515479326248169,None,,,,,0,0,0,0,0,109,109,48,228.35628962516785,,,,,,,,,,,,,,,,,,,,,,,,,,,,,,,,,,,,,,,,,,,,,,,,,,,,,,,,,,,,,,,,,,,,,,,,,,,,,,,,,70.0,70.0,133.0,57.0,57.0,133.0,1.0,1.3,320,-252,480,-260,671,-257,228.3416006565094,228.34174275398254,228.3452866077423,228.35628962516785,228.50650715827942,228.50650715827942,228.50650715827942,228.50650715827942,228.50650715827942,228.50650715827942,228.50650715827942,230.89032769203186,3,2.515479326248169,None,,,,,,,,,,,,,,,,,,216,1,2025-03-07_13h25.56.350,comp,2024.2.4,56.89830402708781,2025-03-07 13h28.25.255337 -0500,
110,110,0,critical,hwd,20.0,1.0,upper,200.0,125.0,125.0,200.0,141.0,141.0,2,2.092153787612915,None,,,,,0,0,0,0,0,110,110,103,230.9071547985077,,,,,,,,,,,,,,,,,,,,,,,,,,,,,,,,,,,,,,,,,,,,,,,,,,,,,,,,,,,,,,,,,,,,,,,,,,,,,,,,,200.0,125.0,125.0,200.0,141.0,141.0,1.0,1.3,222,-250,480,-255,746,-265,230.89199376106262,230.892103433609,230.8959183692932,230.9071547985077,231.05461883544922,231.05461883544922,231.05461883544922,231.05461883544922,231.05461883544922,231.05461883544922,231.05461883544922,233.0137107372284,2,2.092153787612915,None,,,,,,,,,,,,,,,,,,216,1,2025-03-07_13h25.56.350,comp,2024.2.4,56.89830402708781,2025-03-07 13h28.25.255337 -0500,
111,111,0,critical,hwd,35.0,2.1,lower,133.0,57.0,57.0,133.0,70.0,70.0,2,2.2356038093566895,None,,,,,0,0,0,0,0,111,111,40,233.03021717071533,,,,,,,,,,,,,,,,,,,,,,,,,,,,,,,,,,,,,,,,,,,,,,,,,,,,,,,,,,,,,,,,,,,,,,,,,,,,,,,,,133.0,57.0,57.0,133.0,70.0,70.0,2.1,2.12,-191,-273,0,-266,198,255,233.01535606384277,233.01543855667114,233.0188271999359,233.03021717071533,233.17242646217346,233.17242646217346,233.17242646217346,233.17242646217346,233.17242646217346,233.17242646217346,233.17242646217346,235.2739245891571,2,2.2356038093566895,None,,,,,,,,,,,,,,,,,,216,1,2025-03-07_13h25.56.350,comp,2024.2.4,56.89830402708781,2025-03-07 13h28.25.255337 -0500,
112,112,0,catch,None,None,None,None,None,None,None,None,None,None,3,0.8916637897491455,None,,,,,0,0,0,0,0,112,112,127,235.29216074943542,,,,,,,,,,,,,,,,,,,,,,,,,,,,,,,,,,,,,,,,,,,,,,,,,,,,,,,,,,,,,,,,,,,,,,,,,,,,,,,,,81,109,129,61,129,196,2.2,2.21,-181,-261,0,266,224,276,235.27591490745544,235.27606177330017,235.27905297279358,235.29216074943542,235.43826699256897,235.43826699256897,235.43826699256897,235.43826699256897,235.43826699256897,235.43826699256897,235.43826699256897,236.18894481658936,3,0.8916637897491455,None,,,,,,,,,,,,,,,,,,216,1,2025-03-07_13h25.56.350,comp,2024.2.4,56.89830402708781,2025-03-07 13h28.25.255337 -0500,
113,113,0,critical,hdw,35.0,4.0,lower,133.0,57.0,70.0,70.0,57.0,133.0,1,1.2739624977111816,None,,,,,0,0,0,0,0,113,113,112,236.20546102523804,,,,,,,,,,,,,,,,,,,,,,,,,,,,,,,,,,,,,,,,,,,,,,,,,,,,,,,,,,,,,,,,,,,,,,,,,,,,,,,,,133.0,57.0,70.0,70.0,57.0,133.0,4.0,4.2,-160,16,0,-260,198,-3,236.19042444229126,236.1905059814453,236.1936047077179,236.20546102523804,236.35661840438843,236.35661840438843,236.35661840438843,236.35661840438843,236.35661840438843,236.35661840438843,236.35661840438843,237.4916067123413,1,1.2739624977111816,None,,,,,,,,,,,,,,,,,,216,1,2025-03-07_13h25.56.350,comp,2024.2.4,56.89830402708781,2025-03-07 13h28.25.255337 -0500,
114,114,0,critical,hdw,35.0,2.1,upper,200.0,125.0,127.0,127.0,125.0,200.0,3,1.7430596351623535,None,,,,,0,0,0,0,0,114,114,21,237.50497245788574,,,,,,,,,,,,,,,,,,,,,,,,,,,,,,,,,,,,,,,,,,,,,,,,,,,,,,,,,,,,,,,,,,,,,,,,,,,,,,,,,200.0,125.0,127.0,127.0,125.0,200.0,2.1,2.11,-222,285,0,261,260,-289,237.49208521842957,237.49210667610168,237.49291133880615,237.50497245788574,237.664626121521,237.664626121521,237.664626121521,237.664626121521,237.664626121521,237.664626121521,237.664626121521,239.25666427612305,3,1.7430596351623535,None,,,,,,,,,,,,,,,,,,216,1,2025-03-07_13h25.56.350,comp,2024.2.4,56.89830402708781,2025-03-07 13h28.25.255337 -0500,
115,115,0,critical,dwh,35.0,1.0,upper,127.0,127.0,125.0,200.0,200.0,125.0,2,3.4464404582977295,None,,,,,0,0,0,0,0,115,115,61,239.27361631393433,,,,,,,,,,,,,,,,,,,,,,,,,,,,,,,,,,,,,,,,,,,,,,,,,,,,,,,,,,,,,,,,,,,,,,,,,,,,,,,,,127.0,127.0,125.0,200.0,200.0,125.0,1.0,1.1,-740,270,-480,262,-222,287,239.25834012031555,239.25848150253296,239.2618169784546,239.27361631393433,239.42419481277466,239.42419481277466,239.42419481277466,239.42419481277466,239.42419481277466,239.42419481277466,239.42419481277466,242.72656536102295,2,3.4464404582977295,None,,,,,,,,,,,,,,,,,,216,1,2025-03-07_13h25.56.350,comp,2024.2.4,56.89830402708781,2025-03-07 13h28.25.255337 -0500,
116,116,0,critical,dwh,20.0,3.0,upper,141.0,141.0,125.0,200.0,200.0,125.0,2,1.3585989475250244,None,,,,,0,0,0,0,0,116,116,69,242.74519062042236,,,,,,,,,,,,,,,,,,,,,,,,,,,,,,,,,,,,,,,,,,,,,,,,,,,,,,,,,,,,,,,,,,,,,,,,,,,,,,,,,141.0,141.0,125.0,200.0,200.0,125.0,3.0,3.2,-266,-278,0,11,258,267,242.72817945480347,242.72828578948975,242.73179864883423,242.74519062042236,242.8920018672943,242.8920018672943,242.8920018672943,242.8920018672943,242.8920018672943,242.8920018672943,242.8920018672943,244.1122510433197,2,1.3585989475250244,None,,,,,,,,,,,,,,,,,,216,1,2025-03-07_13h25.56.350,comp,2024.2.4,56.89830402708781,2025-03-07 13h28.25.255337 -0500,
117,117,0,filler_square,None,None,None,None,None,None,None,None,None,None,1,2.499607563018799,None,,,,,0,0,0,0,0,117,117,199,244.13166499137878,,,,,,,,,,,,,,,,,,,,,,,,,,,,,,,,,,,,,,,,,,,,,,,,,,,,,,,,,,,,,,,,,,,,,,,,,,,,,,,,,81.98108855796521,81.98108855796521,59.91037444526112,81.000603934525,60.15294398817669,63.67154648036593,1.0,1.2,-177,5,0,19,168,5,244.11425232887268,244.114337682724,244.11776089668274,244.13166499137878,244.28460550308228,244.28460550308228,244.28460550308228,244.28460550308228,244.28460550308228,244.28460550308228,244.28460550308228,246.64175987243652,1,2.499607563018799,None,,,,,,,,,,,,,,,,,,216,1,2025-03-07_13h25.56.350,comp,2024.2.4,56.89830402708781,2025-03-07 13h28.25.255337 -0500,
118,118,0,critical,whd,35.0,3.0,lower,57.0,133.0,133.0,57.0,70.0,70.0,1,1.5334160327911377,None,,,,,0,0,0,0,0,118,118,86,246.6584222316742,,,,,,,,,,,,,,,,,,,,,,,,,,,,,,,,,,,,,,,,,,,,,,,,,,,,,,,,,,,,,,,,,,,,,,,,,,,,,,,,,57.0,133.0,133.0,57.0,70.0,70.0,3.0,3.2,-191,-289,0,7,160,270,246.64332222938538,246.64340543746948,246.64662432670593,246.6584222316742,246.80979943275452,246.80979943275452,246.80979943275452,246.80979943275452,246.80979943275452,246.80979943275452,246.80979943275452,248.20117092132568,1,1.5334160327911377,None,,,,,,,,,,,,,,,,,,216,1,2025-03-07_13h25.56.350,comp,2024.2.4,56.89830402708781,2025-03-07 13h28.25.255337 -0500,
119,119,0,critical,hdw,35.0,1.0,upper,200.0,125.0,127.0,127.0,125.0,200.0,3,0.9147536754608154,None,,,,,0,0,0,0,0,119,119,109,248.22124361991882,,,,,,,,,,,,,,,,,,,,,,,,,,,,,,,,,,,,,,,,,,,,,,,,,,,,,,,,,,,,,,,,,,,,,,,,,,,,,,,,,200.0,125.0,127.0,127.0,125.0,200.0,1.0,1.1,-702,277,-480,267,-220,278,248.20270323753357,248.2027885913849,248.20575547218323,248.22124361991882,248.36004543304443,248.36004543304443,248.36004543304443,248.36004543304443,248.36004543304443,248.36004543304443,248.36004543304443,249.14347910881042,3,0.9147536754608154,None,,,,,,,,,,,,,,,,,,216,1,2025-03-07_13h25.56.350,comp,2024.2.4,56.89830402708781,2025-03-07 13h28.25.255337 -0500,
120,120,0,filler_random,None,None,None,None,None,None,None,None,None,None,2,0.7834410667419434,None,,,,,0,0,0,0,0,120,120,158,249.1599268913269,,,,,,,,,,,,,,,,,,,,,,,,,,,,,,,,,,,,,,,,,,,,,,,,,,,,,,,,,,,,,,,,,,,,,,,,,,,,,,,,,79.49807468718174,73.23986288797195,170.66515687734906,176.75311257308454,198.8265713814498,66.57538101172455,3.0,3.1,-221,277,0,12,218,-254,249.14477705955505,249.1448471546173,249.14708709716797,249.1599268913269,249.31119322776794,249.31119322776794,249.31119322776794,249.31119322776794,249.31119322776794,249.31119322776794,249.31119322776794,249.94845914840698,2,0.7834410667419434,None,,,,,,,,,,,,,,,,,,216,1,2025-03-07_13h25.56.350,comp,2024.2.4,56.89830402708781,2025-03-07 13h28.25.255337 -0500,
121,121,0,filler_random,None,None,None,None,None,None,None,None,None,None,1,1.1682155132293701,None,,,,,0,0,0,0,0,121,121,137,249.9670708179474,,,,,,,,,,,,,,,,,,,,,,,,,,,,,,,,,,,,,,,,,,,,,,,,,,,,,,,,,,,,,,,,,,,,,,,,,,,,,,,,,125.63730533293923,123.45337941912462,94.70813507090415,141.4585227813892,170.41542644448947,78.50670720744858,4.0,4.2,-228,-4,0,-267,206,-13,249.95033597946167,249.95042324066162,249.95378255844116,249.9670708179474,250.11256575584412,250.11256575584412,250.11256575584412,250.11256575584412,250.11256575584412,250.11256575584412,250.11256575584412,251.15044140815735,1,1.1682155132293701,None,,,,,,,,,,,,,,,,,,216,1,2025-03-07_13h25.56.350,comp,2024.2.4,56.89830402708781,2025-03-07 13h28.25.255337 -0500,
122,122,0,critical,dwh,20.0,4.0,upper,141.0,141.0,125.0,200.0,200.0,125.0,2,0.814178466796875,None,,,,,0,0,0,0,0,122,122,71,251.1696970462799,,,,,,,,,,,,,,,,,,,,,,,,,,,,,,,,,,,,,,,,,,,,,,,,,,,,,,,,,,,,,,,,,,,,,,,,,,,,,,,,,141.0,141.0,125.0,200.0,200.0,125.0,4.0,4.2,-266,-16,0,-285,258,-2,251.1520643234253,251.15219974517822,251.1556248664856,251.1696970462799,251.31447768211365,251.31447768211365,251.31447768211365,251.31447768211365,251.31447768211365,251.31447768211365,251.31447768211365,251.9995355606079,2,0.814178466796875,None,,,,,,,,,,,,,,,,,,216,1,2025-03-07_13h25.56.350,comp,2024.2.4,56.89830402708781,2025-03-07 13h28.25.255337 -0500,
123,123,0,filler_random,None,None,None,None,None,None,None,None,None,None,2,0.8220157623291016,None,,,,,0,0,0,0,0,123,123,132,252.01771664619446,,,,,,,,,,,,,,,,,,,,,,,,,,,,,,,,,,,,,,,,,,,,,,,,,,,,,,,,,,,,,,,,,,,,,,,,,,,,,,,,,84.43833260782989,86.91873887015694,174.11744547427537,165.42507568700353,185.79717368628178,78.23936968945421,2.2,2.21,-222,-256,0,290,218,266,252.00141739845276,252.00149989128113,252.0048589706421,252.01771664619446,252.1617670059204,252.1617670059204,252.1617670059204,252.1617670059204,252.1617670059204,252.1617670059204,252.1617670059204,252.84640288352966,2,0.8220157623291016,None,,,,,,,,,,,,,,,,,,216,1,2025-03-07_13h25.56.350,comp,2024.2.4,56.89830402708781,2025-03-07 13h28.25.255337 -0500,
124,124,0,filler_random,None,None,None,None,None,None,None,None,None,None,1,0.8817284107208252,None,,,,,0,0,0,0,0,124,124,154,252.86254835128784,,,,,,,,,,,,,,,,,,,,,,,,,,,,,,,,,,,,,,,,,,,,,,,,,,,,,,,,,,,,,,,,,,,,,,,,,,,,,,,,,178.13596398370072,101.84210596678442,181.01844722502776,67.2945989639387,58.99031364065955,127.72583610470608,4.0,4.2,-181,8,0,-271,194,9,252.84815883636475,252.8482506275177,252.85170316696167,252.86254835128784,253.01059007644653,253.01059007644653,253.01059007644653,253.01059007644653,253.01059007644653,253.01059007644653,253.01059007644653,253.75162529945374,1,0.8817284107208252,None,,,,,,,,,,,,,,,,,,216,1,2025-03-07_13h25.56.350,comp,2024.2.4,56.89830402708781,2025-03-07 13h28.25.255337 -0500,
125,125,0,critical,hwd,35.0,3.0,lower,133.0,57.0,57.0,133.0,70.0,70.0,2,0.8558409214019775,None,,,,,0,0,0,0,0,125,125,98,253.76780724525452,,,,,,,,,,,,,,,,,,,,,,,,,,,,,,,,,,,,,,,,,,,,,,,,,,,,,,,,,,,,,,,,,,,,,,,,,,,,,,,,,133.0,57.0,57.0,133.0,70.0,70.0,3.0,3.1,-191,263,0,12,198,-251,253.75327038764954,253.753408908844,253.7568061351776,253.76780724525452,253.91282558441162,253.91282558441162,253.91282558441162,253.91282558441162,253.91282558441162,253.91282558441162,253.91282558441162,254.62850427627563,2,0.8558409214019775,None,,,,,,,,,,,,,,,,,,216,1,2025-03-07_13h25.56.350,comp,2024.2.4,56.89830402708781,2025-03-07 13h28.25.255337 -0500,
126,126,0,filler_random,None,None,None,None,None,None,None,None,None,None,2,1.1019728183746338,None,,,,,0,0,0,0,0,126,126,157,254.6492359638214,,,,,,,,,,,,,,,,,,,,,,,,,,,,,,,,,,,,,,,,,,,,,,,,,,,,,,,,,,,,,,,,,,,,,,,,,,,,,,,,,97.18185059935959,135.8743588034908,117.59906557249377,116.70475821488368,141.55988966210498,64.9565128920674,2.2,2.22,-222,254,0,-273,187,-280,254.63025617599487,254.63033652305603,254.63360047340393,254.6492359638214,254.7954580783844,254.7954580783844,254.7954580783844,254.7954580783844,254.7954580783844,254.7954580783844,254.7954580783844,255.76150274276733,2,1.1019728183746338,None,,,,,,,,,,,,,,,,,,216,1,2025-03-07_13h25.56.350,comp,2024.2.4,56.89830402708781,2025-03-07 13h28.25.255337 -0500,
127,127,0,filler_square,None,None,None,None,None,None,None,None,None,None,3,0.7979910373687744,None,,,,,0,0,0,0,0,127,127,170,255.77833008766174,,,,,,,,,,,,,,,,,,,,,,,,,,,,,,,,,,,,,,,,,,,,,,,,,,,,,,,,,,,,,,,,,,,,,,,,,,,,,,,,,114.27966482496163,88.08857284933106,136.6424836075722,137.2913474689114,166.95937311738913,166.95937311738913,1.0,1.2,-209,-2,0,2,248,5,255.76336336135864,255.7634437084198,255.76663517951965,255.77833008766174,255.9323525428772,255.9323525428772,255.9323525428772,255.9323525428772,255.9323525428772,255.9323525428772,255.9323525428772,256.58191537857056,3,0.7979910373687744,None,,,,,,,,,,,,,,,,,,216,1,2025-03-07_13h25.56.350,comp,2024.2.4,56.89830402708781,2025-03-07 13h28.25.255337 -0500,
128,128,0,critical,whd,20.0,2.1,upper,125.0,200.0,200.0,125.0,141.0,141.0,1,1.4091753959655762,None,,,,,0,0,0,0,0,128,128,39,256.5992636680603,,,,,,,,,,,,,,,,,,,,,,,,,,,,,,,,,,,,,,,,,,,,,,,,,,,,,,,,,,,,,,,,,,,,,,,,,,,,,,,,,125.0,200.0,200.0,125.0,141.0,141.0,2.1,2.12,-258,-262,0,-259,229,284,256.58375883102417,256.5838415622711,256.58781719207764,256.5992636680603,256.7469906806946,256.7469906806946,256.7469906806946,256.7469906806946,256.7469906806946,256.7469906806946,256.7469906806946,258.01388239860535,1,1.4091753959655762,None,,,,,,,,,,,,,,,,,,216,1,2025-03-07_13h25.56.350,comp,2024.2.4,56.89830402708781,2025-03-07 13h28.25.255337 -0500,
129,129,0,critical,dhw,20.0,2.1,lower,78.0,78.0,133.0,57.0,57.0,133.0,3,2.1535325050354004,None,,,,,0,0,0,0,0,129,129,2,258.0297555923462,,,,,,,,,,,,,,,,,,,,,,,,,,,,,,,,,,,,,,,,,,,,,,,,,,,,,,,,,,,,,,,,,,,,,,,,,,,,,,,,,78.0,78.0,133.0,57.0,57.0,133.0,2.1,2.11,-164,282,0,267,191,-286,258.0154039859772,258.01548767089844,258.0190329551697,258.0297555923462,258.1793270111084,258.1793270111084,258.1793270111084,258.1793270111084,258.1793270111084,258.1793270111084,258.1793270111084,260.1981129646301,3,2.1535325050354004,None,,,,,,,,,,,,,,,,,,216,1,2025-03-07_13h25.56.350,comp,2024.2.4,56.89830402708781,2025-03-07 13h28.25.255337 -0500,
130,130,0,critical,hdw,35.0,2.1,lower,133.0,57.0,70.0,70.0,57.0,133.0,3,1.2735021114349365,None,,,,,0,0,0,0,0,130,130,20,260.2139048576355,,,,,,,,,,,,,,,,,,,,,,,,,,,,,,,,,,,,,,,,,,,,,,,,,,,,,,,,,,,,,,,,,,,,,,,,,,,,,,,,,133.0,57.0,70.0,70.0,57.0,133.0,2.1,2.11,-160,287,0,260,198,-266,260.1997230052948,260.1998555660248,260.2034454345703,260.2139048576355,260.36699318885803,260.36699318885803,260.36699318885803,260.36699318885803,260.36699318885803,260.36699318885803,260.36699318885803,261.4978587627411,3,1.2735021114349365,None,,,,,,,,,,,,,,,,,,216,1,2025-03-07_13h25.56.350,comp,2024.2.4,56.89830402708781,2025-03-07 13h28.25.255337 -0500,
131,131,0,filler_random,None,None,None,None,None,None,None,None,None,None,1,1.0038025379180908,None,,,,,0,0,0,0,0,131,131,151,261.51556491851807,,,,,,,,,,,,,,,,,,,,,,,,,,,,,,,,,,,,,,,,,,,,,,,,,,,,,,,,,,,,,,,,,,,,,,,,,,,,,,,,,161.03381533253872,193.79490498716785,92.94192620376289,145.6930712700697,146.64964953025404,151.38944622822373,3.0,3.1,-266,280,0,4,245,-255,261.4996266365051,261.4997088909149,261.5038480758667,261.51556491851807,261.67066645622253,261.67066645622253,261.67066645622253,261.67066645622253,261.67066645622253,261.67066645622253,261.67066645622253,262.53357768058777,1,1.0038025379180908,None,,,,,,,,,,,,,,,,,,216,1,2025-03-07_13h25.56.350,comp,2024.2.4,56.89830402708781,2025-03-07 13h28.25.255337 -0500,
132,132,0,filler_random,None,None,None,None,None,None,None,None,None,None,2,0.7789835929870605,None,,,,,0,0,0,0,0,132,132,156,262.5491361618042,,,,,,,,,,,,,,,,,,,,,,,,,,,,,,,,,,,,,,,,,,,,,,,,,,,,,,,,,,,,,,,,,,,,,,,,,,,,,,,,,91.7082534157671,106.82003150529499,171.23466778047845,166.20943026967097,191.49733685978347,128.23394629647402,3.0,3.2,-233,-268,0,19,243,286,262.53542256355286,262.5355050563812,262.5387635231018,262.5491361618042,262.6992447376251,262.6992447376251,262.6992447376251,262.6992447376251,262.6992447376251,262.6992447376251,262.6992447376251,263.334091424942,2,0.7789835929870605,None,,,,,,,,,,,,,,,,,,216,1,2025-03-07_13h25.56.350,comp,2024.2.4,56.89830402708781,2025-03-07 13h28.25.255337 -0500,
133,133,0,critical,wdh,20.0,4.0,lower,57.0,133.0,78.0,78.0,133.0,57.0,3,1.6482527256011963,None,,,,,0,0,0,0,0,133,133,82,263.3510036468506,,,,,,,,,,,,,,,,,,,,,,,,,,,,,,,,,,,,,,,,,,,,,,,,,,,,,,,,,,,,,,,,,,,,,,,,,,,,,,,,,57.0,133.0,78.0,78.0,133.0,57.0,4.0,4.1,-202,-255,0,3,164,-276,263.3358488082886,263.33598470687866,263.3394796848297,263.3510036468506,263.50654888153076,263.50654888153076,263.50654888153076,263.50654888153076,263.50654888153076,263.50654888153076,263.50654888153076,265.0149977207184,3,1.6482527256011963,None,,,,,,,,,,,,,,,,,,216,1,2025-03-07_13h25.56.350,comp,2024.2.4,56.89830402708781,2025-03-07 13h28.25.255337 -0500,
134,134,0,critical,wdh,35.0,1.0,upper,125.0,200.0,127.0,127.0,200.0,125.0,1,1.3849143981933594,None,,,,,0,0,0,0,0,134,134,73,265.03062200546265,,,,,,,,,,,,,,,,,,,,,,,,,,,,,,,,,,,,,,,,,,,,,,,,,,,,,,,,,,,,,,,,,,,,,,,,,,,,,,,,,125.0,200.0,127.0,127.0,200.0,125.0,1.0,1.2,-260,6,0,17,222,1,265.0165479183197,265.0166263580322,265.0201461315155,265.03062200546265,265.18217039108276,265.18217039108276,265.18217039108276,265.18217039108276,265.18217039108276,265.18217039108276,265.18217039108276,266.43280267715454,1,1.3849143981933594,None,,,,,,,,,,,,,,,,,,216,1,2025-03-07_13h25.56.350,comp,2024.2.4,56.89830402708781,2025-03-07 13h28.25.255337 -0500,
135,135,0,filler_random,None,None,None,None,None,None,None,None,None,None,3,0.8467493057250977,None,,,,,0,0,0,0,0,135,135,162,266.44915223121643,,,,,,,,,,,,,,,,,,,,,,,,,,,,,,,,,,,,,,,,,,,,,,,,,,,,,,,,,,,,,,,,,,,,,,,,,,,,,,,,,192.88162155257785,108.45941679664841,105.70706893025414,65.89498050183204,162.6277586958152,167.2827825533155,1.0,1.2,-183,13,0,-13,213,14,266.43458580970764,266.4346673488617,266.43881487846375,266.44915223121643,266.5995616912842,266.5995616912842,266.5995616912842,266.5995616912842,266.5995616912842,266.5995616912842,266.5995616912842,267.30082178115845,3,0.8467493057250977,None,,,,,,,,,,,,,,,,,,216,1,2025-03-07_13h25.56.350,comp,2024.2.4,56.89830402708781,2025-03-07 13h28.25.255337 -0500,
136,136,0,filler_random,None,None,None,None,None,None,None,None,None,None,1,0.9381546974182129,None,,,,,0,0,0,0,0,136,136,136,267.3178493976593,,,,,,,,,,,,,,,,,,,,,,,,,,,,,,,,,,,,,,,,,,,,,,,,,,,,,,,,,,,,,,,,,,,,,,,,,,,,,,,,,162.60724795778373,198.47752328480436,124.66932184317355,176.30973190220118,135.90148913884028,181.88145706558387,1.0,1.3,197,-276,480,-281,755,-257,267.3029339313507,267.30304408073425,267.30696845054626,267.3178493976593,267.4666795730591,267.4666795730591,267.4666795730591,267.4666795730591,267.4666795730591,267.4666795730591,267.4666795730591,268.2669644355774,1,0.9381546974182129,None,,,,,,,,,,,,,,,,,,216,1,2025-03-07_13h25.56.350,comp,2024.2.4,56.89830402708781,2025-03-07 13h28.25.255337 -0500,
137,137,0,critical,hwd,20.0,3.0,upper,200.0,125.0,125.0,200.0,141.0,141.0,2,0.7963354587554932,None,,,,,0,0,0,0,0,137,137,105,268.28367590904236,,,,,,,,,,,,,,,,,,,,,,,,,,,,,,,,,,,,,,,,,,,,,,,,,,,,,,,,,,,,,,,,,,,,,,,,,,,,,,,,,200.0,125.0,125.0,200.0,141.0,141.0,3.0,3.1,-258,253,0,11,266,-254,268.26852583885193,268.268607378006,268.27281284332275,268.28367590904236,268.43108344078064,268.43108344078064,268.43108344078064,268.43108344078064,268.43108344078064,268.43108344078064,268.43108344078064,269.0858700275421,2,0.7963354587554932,None,,,,,,,,,,,,,,,,,,216,1,2025-03-07_13h25.56.350,comp,2024.2.4,56.89830402708781,2025-03-07 13h28.25.255337 -0500,
138,138,0,filler_square,None,None,None,None,None,None,None,None,None,None,2,0.8017013072967529,None,,,,,0,0,0,0,0,138,138,189,269.1016697883606,,,,,,,,,,,,,,,,,,,,,,,,,,,,,,,,,,,,,,,,,,,,,,,,,,,,,,,,,,,,,,,,,,,,,,,,,,,,,,,,,79.24105004887502,103.26345064024714,196.2789493894393,196.2789493894393,186.16972184599308,80.22911901402067,1.0,1.3,234,-260,480,-287,714,-282,269.08777022361755,269.0878486633301,269.09104657173157,269.1016697883606,269.25125670433044,269.25125670433044,269.25125670433044,269.25125670433044,269.25125670433044,269.25125670433044,269.25125670433044,269.9166810512543,2,0.8017013072967529,None,,,,,,,,,,,,,,,,,,216,1,2025-03-07_13h25.56.350,comp,2024.2.4,56.89830402708781,2025-03-07 13h28.25.255337 -0500,
