thisN,thisTrialN,thisRepN,effect,order,distance,config,diag,h_1,w_1,h_2,w_2,h_3,w_3,rect_choice.keys,rect_choice.rt,rect_choice.duration,instructions_loop.thisRepN,instructions_loop.thisTrialN,instructions_loop.thisN,instructions_loop.thisIndex,blocks.thisRepN,blocks.thisTrialN,blocks.thisN,blocks.thisIndex,trials.thisRepN,trials.thisTrialN,trials.thisN,trials.thisIndex,thisRow.t,notes,consent.started,agree_button.started,decline_button.started,consent_img.started,mouse.started,consent.stopped,agree_button.numClicks,agree_button.timesOn,agree_button.timesOff,decline_button.numClicks,decline_button.timesOn,decline_button.timesOff,mouse.x,mouse.y,mouse.leftButton,mouse.midButton,mouse.rightButton,mouse.time,mouse.clicked_name,exp_params.started,exp_params.stopped,welcome.started,welcome_text.started,welcome.stopped,instructions_1.started,instructions_1_text_1.started,instructions_1_text_2.started,key_resp.started,instructions_1.stopped,instructions_loop.key_resp.keys,instructions_loop.key_resp.rt,instructions_loop.key_resp.duration,instructions_2.started,instructions_2_text_1.started,instructions_2_text_2.started,key_resp_2.started,instructions_2.stopped,instructions_loop.key_resp_2.keys,instructions_loop.key_resp_2.rt,instructions_loop.key_resp_2.duration,instructions_3.started,instructions_3_text_1.started,r1_instr3.started,r2_instr3.started,r3_instr3.started,r1_instr3_label.started,r2_instr3_label.started,r3_instr3_label.started,instructions_3_text_3.started,instructions_3_text_4.started,key_resp_3.started,instructions_3.stopped,instructions_loop.key_resp_3.keys,instructions_loop.key_resp_3.rt,instructions_loop.key_resp_3.duration,instructions_4.started,instructions_4_text_1.started,instructions_4_text_3.started,instructions_4_text_2.started,key_resp_4.started,instructions_4.stopped,instructions_loop.key_resp_4.keys,instructions_loop.key_resp_4.rt,instructions_loop.key_resp_4.duration,instructions_5.started,instructions_5_text_1.started,instructions_5_text_2.started,key_resp_5.started,instructions_5.stopped,instructions_loop.key_resp_5.keys,instructions_loop.key_resp_5.rt,instructions_loop.key_resp_5.duration,start_exp.started,start_exp_text.started,key_resp_6.started,start_exp.stopped,key_resp_6.keys,key_resp_6.rt,key_resp_6.duration,h_1_tmp,w_1_tmp,h_2_tmp,w_2_tmp,h_3_tmp,w_3_tmp,config_tmp,config_tmp_1,r_1_x,r_1_y,r_2_x,r_2_y,r_3_x,r_3_y,pre_trial.started,pre_trial.stopped,choice_trial.started,rect_choice.started,r_1.started,r_2.started,r_3.started,r_1_label.started,r_2_label.started,r_3_label.started,prompt.started,choice_trial.stopped,trials.rect_choice.keys,trials.rect_choice.rt,trials.rect_choice.duration,end_block.started,end_block_text.started,end_block.stopped,end.started,end_text.started,key_resp_7.started,end.stopped,key_resp_7.keys,key_resp_7.rt,key_resp_7.duration,debriefing.started,debrief_form.started,end_debrief.started,debriefing.stopped,end_debrief.keys,end_debrief.rt,end_debrief.duration,participant,computer,date,expName,psychopyVersion,frameRate,expStart,
,,,,,,,,,,,,,,,,,,,,,,,,,,,,,,,0.014204978942871094,0.033750057220458984,0.033750057220458984,0.033750057220458984,0.014020442962646484,11.729848384857178,1,[11.693614482879639],[11.693638324737549],0,,,[-73.0],[-503.0],[1],[0],[0],[11.715137958526611],['agree_button'],,,,,,,,,,,,,,,,,,,,,,,,,,,,,,,,,,,,,,,,,,,,,,,,,,,,,,,,,,,,,,,,,,,,,,,,,,,,,,,,,,,,,,,,,,,,,,,,,,,,,,,,,,,217,2,2025-03-07_13h28.47.884,comp,2024.2.4,57.71467021497637,2025-03-07 13h29.01.018803 -0500,
,,,,,,,,,,,,,,,,,,,,,,,,,,,,,,,,,,,,,,,,,,,,,,,,,,11.730446100234985,11.730556011199951,,,,,,,,,,,,,,,,,,,,,,,,,,,,,,,,,,,,,,,,,,,,,,,,,,,,,,,,,,,,,,,,,,,,,,,,,,,,,,,,,,,,,,,,,,,,,,,,,,,,,,,,,217,2,2025-03-07_13h28.47.884,comp,2024.2.4,57.71467021497637,2025-03-07 13h29.01.018803 -0500,
,,,,,,,,,,,,,,,,,,,,,,,,,,,,,,,,,,,,,,,,,,,,,,,,,,,,11.73062801361084,11.748357772827148,13.74241590499878,,,,,,,,,,,,,,,,,,,,,,,,,,,,,,,,,,,,,,,,,,,,,,,,,,,,,,,,,,,,,,,,,,,,,,,,,,,,,,,,,,,,,,,,,,,,,,,,,,,,,,217,2,2025-03-07_13h28.47.884,comp,2024.2.4,57.71467021497637,2025-03-07 13h29.01.018803 -0500,
0,0,0,,,,,,,,,,,,,,,0,0,0,0,,,,,,,,,13.761746644973755,,,,,,,,,,,,,,,,,,,,,,,,,,13.743404626846313,13.761746644973755,13.761746644973755,15.246644020080566,16.912450790405273,space,1.6466012001037598,None,16.9125919342041,16.927446365356445,16.927446365356445,18.428237438201904,20.66441035270691,space,2.225501537322998,None,20.66455841064453,20.692495107650757,20.692495107650757,20.692495107650757,20.692495107650757,20.692495107650757,20.692495107650757,20.692495107650757,20.692495107650757,20.692495107650757,22.17268681526184,28.929535150527954,space,6.7526772022247314,None,28.929688930511475,28.949657440185547,28.949657440185547,28.949657440185547,30.43207359313965,33.149760246276855,space,2.7011711597442627,None,33.14990782737732,33.165191650390625,33.165191650390625,34.666927337646484,34.80147051811218,space,0.12223362922668457,None,34.80165886878967,34.815033197402954,34.815033197402954,35.737353801727295,space,0.9104385375976562,None,,,,,,,,,,,,,,,,,,,,,,,,,,,,,,,,,,,,,,,,,,,,,,,217,2,2025-03-07_13h28.47.884,comp,2024.2.4,57.71467021497637,2025-03-07 13h29.01.018803 -0500,
0,0,0,critical,whd,35.0,1.0,lower,57.0,133.0,133.0,57.0,70.0,70.0,1,5.9013144969940186,None,,,,,0,0,0,0,0,0,0,84,35.81673789024353,,,,,,,,,,,,,,,,,,,,,,,,,,,,,,,,,,,,,,,,,,,,,,,,,,,,,,,,,,,,,,,,,,,,,,,,,,,,,,,,,57.0,133.0,133.0,57.0,70.0,70.0,1.0,1.1,-671,268,-480,283,-320,269,35.80026865005493,35.800309896469116,35.80184841156006,35.81673789024353,35.97845005989075,35.97845005989075,35.97845005989075,35.97845005989075,35.97845005989075,35.97845005989075,35.97845005989075,41.72034215927124,1,5.9013144969940186,None,,,,,,,,,,,,,,,,,,217,2,2025-03-07_13h28.47.884,comp,2024.2.4,57.71467021497637,2025-03-07 13h29.01.018803 -0500,
1,1,0,filler_random,None,None,None,None,None,None,None,None,None,None,1,2.9838883876800537,None,,,,,0,0,0,0,0,1,1,138,41.73416066169739,,,,,,,,,,,,,,,,,,,,,,,,,,,,,,,,,,,,,,,,,,,,,,,,,,,,,,,,,,,,,,,,,,,,,,,,,,,,,,,,,136.73675446861182,176.81455921486224,152.0936836897303,154.92898032826412,64.39747832335351,175.60154470263876,4.0,4.2,-262,-16,0,-266,261,8,41.72195744514465,41.72203874588013,41.72473502159119,41.73416066169739,41.88964247703552,41.88964247703552,41.88964247703552,41.88964247703552,41.88964247703552,41.88964247703552,41.88964247703552,44.723434925079346,1,2.9838883876800537,None,,,,,,,,,,,,,,,,,,217,2,2025-03-07_13h28.47.884,comp,2024.2.4,57.71467021497637,2025-03-07 13h29.01.018803 -0500,
2,2,0,critical,wdh,35.0,3.0,upper,125.0,200.0,127.0,127.0,200.0,125.0,1,6.161718845367432,None,,,,,0,0,0,0,0,2,2,75,44.740177154541016,,,,,,,,,,,,,,,,,,,,,,,,,,,,,,,,,,,,,,,,,,,,,,,,,,,,,,,,,,,,,,,,,,,,,,,,,,,,,,,,,125.0,200.0,127.0,127.0,200.0,125.0,3.0,3.2,-260,-263,0,9,222,253,44.72508502006531,44.72517132759094,44.72852945327759,44.740177154541016,44.88548302650452,44.88548302650452,44.88548302650452,44.88548302650452,44.88548302650452,44.88548302650452,44.88548302650452,50.90706181526184,1,6.161718845367432,None,,,,,,,,,,,,,,,,,,217,2,2025-03-07_13h28.47.884,comp,2024.2.4,57.71467021497637,2025-03-07 13h29.01.018803 -0500,
3,3,0,critical,whd,35.0,3.0,upper,125.0,200.0,200.0,125.0,127.0,127.0,1,1.9856088161468506,None,,,,,0,0,0,0,0,3,3,87,50.923617362976074,,,,,,,,,,,,,,,,,,,,,,,,,,,,,,,,,,,,,,,,,,,,,,,,,,,,,,,,,,,,,,,,,,,,,,,,,,,,,,,,,125.0,200.0,200.0,125.0,127.0,127.0,3.0,3.1,-258,257,0,12,222,-259,50.908551931381226,50.90862560272217,50.91210126876831,50.923617362976074,51.07275176048279,51.07275176048279,51.07275176048279,51.07275176048279,51.07275176048279,51.07275176048279,51.07275176048279,52.924527406692505,1,1.9856088161468506,None,,,,,,,,,,,,,,,,,,217,2,2025-03-07_13h28.47.884,comp,2024.2.4,57.71467021497637,2025-03-07 13h29.01.018803 -0500,
4,4,0,critical,dhw,35.0,4.0,upper,127.0,127.0,200.0,125.0,125.0,200.0,3,1.8299777507781982,None,,,,,0,0,0,0,0,4,4,53,52.94379734992981,,,,,,,,,,,,,,,,,,,,,,,,,,,,,,,,,,,,,,,,,,,,,,,,,,,,,,,,,,,,,,,,,,,,,,,,,,,,,,,,,127.0,127.0,200.0,125.0,125.0,200.0,4.0,4.1,-222,-262,0,-5,258,-263,52.92607760429382,52.92615103721619,52.929561614990234,52.94379734992981,53.0914945602417,53.0914945602417,53.0914945602417,53.0914945602417,53.0914945602417,53.0914945602417,53.0914945602417,54.78172016143799,3,1.8299777507781982,None,,,,,,,,,,,,,,,,,,217,2,2025-03-07_13h28.47.884,comp,2024.2.4,57.71467021497637,2025-03-07 13h29.01.018803 -0500,
5,5,0,critical,wdh,20.0,3.0,lower,57.0,133.0,78.0,78.0,133.0,57.0,3,5.1660802364349365,None,,,,,0,0,0,0,0,5,5,80,54.79943585395813,,,,,,,,,,,,,,,,,,,,,,,,,,,,,,,,,,,,,,,,,,,,,,,,,,,,,,,,,,,,,,,,,,,,,,,,,,,,,,,,,57.0,133.0,78.0,78.0,133.0,57.0,3.0,3.1,-202,288,0,16,164,-271,54.783220291137695,54.783294677734375,54.78613066673279,54.79943585395813,54.93668341636658,54.93668341636658,54.93668341636658,54.93668341636658,54.93668341636658,54.93668341636658,54.93668341636658,59.97434997558594,3,5.1660802364349365,None,,,,,,,,,,,,,,,,,,217,2,2025-03-07_13h28.47.884,comp,2024.2.4,57.71467021497637,2025-03-07 13h29.01.018803 -0500,
6,6,0,filler_square,None,None,None,None,None,None,None,None,None,None,1,1.3584375381469727,None,,,,,0,0,0,0,0,6,6,181,59.99104022979736,,,,,,,,,,,,,,,,,,,,,,,,,,,,,,,,,,,,,,,,,,,,,,,,,,,,,,,,,,,,,,,,,,,,,,,,,,,,,,,,,120.50867008777097,120.50867008777097,114.15365480608564,97.21714883024104,85.18248233391378,91.41328242088659,3.0,3.1,-205,275,0,-5,190,-267,59.976131200790405,59.9762065410614,59.97928500175476,59.99104022979736,60.145137548446655,60.145137548446655,60.145137548446655,60.145137548446655,60.145137548446655,60.145137548446655,60.145137548446655,61.36143636703491,1,1.3584375381469727,None,,,,,,,,,,,,,,,,,,217,2,2025-03-07_13h28.47.884,comp,2024.2.4,57.71467021497637,2025-03-07 13h29.01.018803 -0500,
7,7,0,critical,wdh,20.0,2.1,upper,125.0,200.0,141.0,141.0,200.0,125.0,1,1.8578262329101562,None,,,,,0,0,0,0,0,7,7,11,61.379849433898926,,,,,,,,,,,,,,,,,,,,,,,,,,,,,,,,,,,,,,,,,,,,,,,,,,,,,,,,,,,,,,,,,,,,,,,,,,,,,,,,,125.0,200.0,141.0,141.0,200.0,125.0,2.1,2.11,-266,254,0,272,229,-266,61.363094329833984,61.36316967010498,61.36676335334778,61.379849433898926,61.5300087928772,61.5300087928772,61.5300087928772,61.5300087928772,61.5300087928772,61.5300087928772,61.5300087928772,63.24342179298401,1,1.8578262329101562,None,,,,,,,,,,,,,,,,,,217,2,2025-03-07_13h28.47.884,comp,2024.2.4,57.71467021497637,2025-03-07 13h29.01.018803 -0500,
8,8,0,critical,hdw,35.0,3.0,upper,200.0,125.0,127.0,127.0,125.0,200.0,3,2.122323989868164,None,,,,,0,0,0,0,0,8,8,111,63.259016036987305,,,,,,,,,,,,,,,,,,,,,,,,,,,,,,,,,,,,,,,,,,,,,,,,,,,,,,,,,,,,,,,,,,,,,,,,,,,,,,,,,200.0,125.0,127.0,127.0,125.0,200.0,3.0,3.2,-222,-252,0,6,260,271,63.24499177932739,63.24506735801697,63.24828052520752,63.259016036987305,63.39846682548523,63.39846682548523,63.39846682548523,63.39846682548523,63.39846682548523,63.39846682548523,63.39846682548523,65.39422512054443,3,2.122323989868164,None,,,,,,,,,,,,,,,,,,217,2,2025-03-07_13h28.47.884,comp,2024.2.4,57.71467021497637,2025-03-07 13h29.01.018803 -0500,
9,9,0,filler_random,None,None,None,None,None,None,None,None,None,None,1,1.3158490657806396,None,,,,,0,0,0,0,0,9,9,160,65.40969395637512,,,,,,,,,,,,,,,,,,,,,,,,,,,,,,,,,,,,,,,,,,,,,,,,,,,,,,,,,,,,,,,,,,,,,,,,,,,,,,,,,174.64365954755266,97.48410064990539,94.14284853833904,72.68025150108757,92.91765350518077,122.33305425704157,2.1,2.12,-181,-260,0,-272,194,269,65.3959128856659,65.39601039886475,65.39941692352295,65.40969395637512,65.55840611457825,65.55840611457825,65.55840611457825,65.55840611457825,65.55840611457825,65.55840611457825,65.55840611457825,66.74374675750732,1,1.3158490657806396,None,,,,,,,,,,,,,,,,,,217,2,2025-03-07_13h28.47.884,comp,2024.2.4,57.71467021497637,2025-03-07 13h29.01.018803 -0500,
10,10,0,critical,hwd,35.0,2.1,upper,200.0,125.0,125.0,200.0,127.0,127.0,2,2.4058072566986084,None,,,,,0,0,0,0,0,10,10,17,66.7594141960144,,,,,,,,,,,,,,,,,,,,,,,,,,,,,,,,,,,,,,,,,,,,,,,,,,,,,,,,,,,,,,,,,,,,,,,,,,,,,,,,,200.0,125.0,125.0,200.0,127.0,127.0,2.1,2.12,-258,-265,0,-264,260,284,66.74526357650757,66.74533820152283,66.74828934669495,66.7594141960144,66.91100597381592,66.91100597381592,66.91100597381592,66.91100597381592,66.91100597381592,66.91100597381592,66.91100597381592,69.17822766304016,2,2.4058072566986084,None,,,,,,,,,,,,,,,,,,217,2,2025-03-07_13h28.47.884,comp,2024.2.4,57.71467021497637,2025-03-07 13h29.01.018803 -0500,
11,11,0,filler_square,None,None,None,None,None,None,None,None,None,None,1,1.0472352504730225,None,,,,,0,0,0,0,0,11,11,170,69.22213053703308,,,,,,,,,,,,,,,,,,,,,,,,,,,,,,,,,,,,,,,,,,,,,,,,,,,,,,,,,,,,,,,,,,,,,,,,,,,,,,,,,142.43762615497985,142.43762615497985,120.35564573659563,73.9683050338155,130.55676625186763,58.8202791980815,2.1,2.11,-204,288,0,263,162,-260,69.18023180961609,69.1803092956543,69.183518409729,69.22213053703308,69.34728717803955,69.34728717803955,69.34728717803955,69.34728717803955,69.34728717803955,69.34728717803955,69.34728717803955,70.28390002250671,1,1.0472352504730225,None,,,,,,,,,,,,,,,,,,217,2,2025-03-07_13h28.47.884,comp,2024.2.4,57.71467021497637,2025-03-07 13h29.01.018803 -0500,
12,12,0,filler_square,None,None,None,None,None,None,None,None,None,None,2,2.193272352218628,None,,,,,0,0,0,0,0,12,12,201,70.29982328414917,,,,,,,,,,,,,,,,,,,,,,,,,,,,,,,,,,,,,,,,,,,,,,,,,,,,,,,,,,,,,,,,,,,,,,,,,,,,,,,,,80.50182698226973,82.55423563081673,90.41776057210461,90.41776057210461,86.2894313232572,68.83269862459787,2.1,2.11,-182,267,0,274,176,-287,70.28572726249695,70.28580117225647,70.28870058059692,70.29982328414917,70.44617295265198,70.44617295265198,70.44617295265198,70.44617295265198,70.44617295265198,70.44617295265198,70.44617295265198,72.49665451049805,2,2.193272352218628,None,,,,,,,,,,,,,,,,,,217,2,2025-03-07_13h28.47.884,comp,2024.2.4,57.71467021497637,2025-03-07 13h29.01.018803 -0500,
13,13,0,critical,dwh,35.0,2.1,lower,70.0,70.0,57.0,133.0,133.0,57.0,3,1.1661863327026367,None,,,,,0,0,0,0,0,13,13,28,72.51101422309875,,,,,,,,,,,,,,,,,,,,,,,,,,,,,,,,,,,,,,,,,,,,,,,,,,,,,,,,,,,,,,,,,,,,,,,,,,,,,,,,,70.0,70.0,57.0,133.0,133.0,57.0,2.1,2.12,-198,-276,0,-260,191,283,72.4982237815857,72.49830055236816,72.50150847434998,72.51101422309875,72.66433143615723,72.66433143615723,72.66433143615723,72.66433143615723,72.66433143615723,72.66433143615723,72.66433143615723,73.6805272102356,3,1.1661863327026367,None,,,,,,,,,,,,,,,,,,217,2,2025-03-07_13h28.47.884,comp,2024.2.4,57.71467021497637,2025-03-07 13h29.01.018803 -0500,
14,14,0,filler_square,None,None,None,None,None,None,None,None,None,None,3,2.276167392730713,None,,,,,0,0,0,0,0,14,14,184,73.69691610336304,,,,,,,,,,,,,,,,,,,,,,,,,,,,,,,,,,,,,,,,,,,,,,,,,,,,,,,,,,,,,,,,,,,,,,,,,,,,,,,,,104.52450079059898,122.92204744210697,70.1272877342261,57.88917793331936,143.8338428458058,143.8338428458058,2.1,2.11,-186,284,0,274,197,-282,73.68222332000732,73.68229866027832,73.68527913093567,73.69691610336304,73.8493173122406,73.8493173122406,73.8493173122406,73.8493173122406,73.8493173122406,73.8493173122406,73.8493173122406,75.9871301651001,3,2.276167392730713,None,,,,,,,,,,,,,,,,,,217,2,2025-03-07_13h28.47.884,comp,2024.2.4,57.71467021497637,2025-03-07 13h29.01.018803 -0500,
15,15,0,critical,dwh,35.0,2.1,upper,127.0,127.0,125.0,200.0,200.0,125.0,3,1.662409782409668,None,,,,,0,0,0,0,0,15,15,29,76.00669074058533,,,,,,,,,,,,,,,,,,,,,,,,,,,,,,,,,,,,,,,,,,,,,,,,,,,,,,,,,,,,,,,,,,,,,,,,,,,,,,,,,127.0,127.0,125.0,200.0,200.0,125.0,2.1,2.11,-260,281,0,264,258,-270,75.98859119415283,75.98866581916809,75.99143362045288,76.00669074058533,76.14759230613708,76.14759230613708,76.14759230613708,76.14759230613708,76.14759230613708,76.14759230613708,76.14759230613708,77.68860387802124,3,1.662409782409668,None,,,,,,,,,,,,,,,,,,217,2,2025-03-07_13h28.47.884,comp,2024.2.4,57.71467021497637,2025-03-07 13h29.01.018803 -0500,
16,16,0,critical,wdh,35.0,4.0,lower,57.0,133.0,70.0,70.0,133.0,57.0,3,4.329540967941284,None,,,,,0,0,0,0,0,16,16,76,77.70757031440735,,,,,,,,,,,,,,,,,,,,,,,,,,,,,,,,,,,,,,,,,,,,,,,,,,,,,,,,,,,,,,,,,,,,,,,,,,,,,,,,,57.0,133.0,70.0,70.0,133.0,57.0,4.0,4.1,-198,-284,0,14,160,-265,77.69012522697449,77.69019842147827,77.6930775642395,77.70757031440735,77.84381175041199,77.84381175041199,77.84381175041199,77.84381175041199,77.84381175041199,77.84381175041199,77.84381175041199,82.04824113845825,3,4.329540967941284,None,,,,,,,,,,,,,,,,,,217,2,2025-03-07_13h28.47.884,comp,2024.2.4,57.71467021497637,2025-03-07 13h29.01.018803 -0500,
17,17,0,filler_random,None,None,None,None,None,None,None,None,None,None,2,1.3804054260253906,None,,,,,0,0,0,0,0,17,17,163,82.06507682800293,,,,,,,,,,,,,,,,,,,,,,,,,,,,,,,,,,,,,,,,,,,,,,,,,,,,,,,,,,,,,,,,,,,,,,,,,,,,,,,,,131.30203771005,172.11212912049052,161.8807154468171,148.07459348564763,95.08107893264118,99.33180772108935,3.0,3.2,-256,-259,0,14,220,268,82.0500156879425,82.05012106895447,82.05338191986084,82.06507682800293,82.21601986885071,82.21601986885071,82.21601986885071,82.21601986885071,82.21601986885071,82.21601986885071,82.21601986885071,83.4502260684967,2,1.3804054260253906,None,,,,,,,,,,,,,,,,,,217,2,2025-03-07_13h28.47.884,comp,2024.2.4,57.71467021497637,2025-03-07 13h29.01.018803 -0500,
18,18,0,critical,dhw,35.0,2.1,lower,70.0,70.0,133.0,57.0,57.0,133.0,2,2.435603618621826,None,,,,,0,0,0,0,0,18,18,24,83.46573162078857,,,,,,,,,,,,,,,,,,,,,,,,,,,,,,,,,,,,,,,,,,,,,,,,,,,,,,,,,,,,,,,,,,,,,,,,,,,,,,,,,70.0,70.0,133.0,57.0,57.0,133.0,2.1,2.12,-160,-272,0,-273,191,286,83.45172309875488,83.45179486274719,83.45514988899231,83.46573162078857,83.6155219078064,83.6155219078064,83.6155219078064,83.6155219078064,83.6155219078064,83.6155219078064,83.6155219078064,85.91559505462646,2,2.435603618621826,None,,,,,,,,,,,,,,,,,,217,2,2025-03-07_13h28.47.884,comp,2024.2.4,57.71467021497637,2025-03-07 13h29.01.018803 -0500,
19,19,0,filler_square,None,None,None,None,None,None,None,None,None,None,1,0.8251781463623047,None,,,,,0,0,0,0,0,19,19,182,85.93199586868286,,,,,,,,,,,,,,,,,,,,,,,,,,,,,,,,,,,,,,,,,,,,,,,,,,,,,,,,,,,,,,,,,,,,,,,,,,,,,,,,,185.98262142447425,185.98262142447425,144.26633342501907,123.3073707003807,104.27216671450022,151.15157023767694,2.1,2.11,-251,281,0,259,233,-257,85.91748094558716,85.91757559776306,85.92078447341919,85.93199586868286,86.08500695228577,86.08500695228577,86.08500695228577,86.08500695228577,86.08500695228577,86.08500695228577,86.08500695228577,86.77310395240784,1,0.8251781463623047,None,,,,,,,,,,,,,,,,,,217,2,2025-03-07_13h28.47.884,comp,2024.2.4,57.71467021497637,2025-03-07 13h29.01.018803 -0500,
20,20,0,critical,dhw,35.0,4.0,lower,70.0,70.0,133.0,57.0,57.0,133.0,2,1.4464282989501953,None,,,,,0,0,0,0,0,20,20,52,86.79076218605042,,,,,,,,,,,,,,,,,,,,,,,,,,,,,,,,,,,,,,,,,,,,,,,,,,,,,,,,,,,,,,,,,,,,,,,,,,,,,,,,,70.0,70.0,133.0,57.0,57.0,133.0,4.0,4.1,-160,-284,0,10,191,-258,86.7745258808136,86.77459955215454,86.77741408348083,86.79076218605042,86.93479585647583,86.93479585647583,86.93479585647583,86.93479585647583,86.93479585647583,86.93479585647583,86.93479585647583,88.25226521492004,2,1.4464282989501953,None,,,,,,,,,,,,,,,,,,217,2,2025-03-07_13h28.47.884,comp,2024.2.4,57.71467021497637,2025-03-07 13h29.01.018803 -0500,
21,21,0,filler_random,None,None,None,None,None,None,None,None,None,None,3,0.8255953788757324,None,,,,,0,0,0,0,0,21,21,164,88.26822304725647,,,,,,,,,,,,,,,,,,,,,,,,,,,,,,,,,,,,,,,,,,,,,,,,,,,,,,,,,,,,,,,,,,,,,,,,,,,,,,,,,75.98083430580489,76.30376027843297,60.77175483602721,197.88520597983245,170.6045219100164,124.49988278513536,4.0,4.1,-233,-268,0,9,257,-280,88.25404620170593,88.25418138504028,88.25765180587769,88.26822304725647,88.42307686805725,88.42307686805725,88.42307686805725,88.42307686805725,88.42307686805725,88.42307686805725,88.42307686805725,89.10344004631042,3,0.8255953788757324,None,,,,,,,,,,,,,,,,,,217,2,2025-03-07_13h28.47.884,comp,2024.2.4,57.71467021497637,2025-03-07 13h29.01.018803 -0500,
22,22,0,filler_random,None,None,None,None,None,None,None,None,None,None,2,1.1654157638549805,None,,,,,0,0,0,0,0,22,22,153,89.11977052688599,,,,,,,,,,,,,,,,,,,,,,,,,,,,,,,,,,,,,,,,,,,,,,,,,,,,,,,,,,,,,,,,,,,,,,,,,,,,,,,,,58.02741385865016,112.33299421803628,185.93736208045013,90.80431806728451,81.47838755093575,190.59516285019834,2.1,2.11,-198,282,0,268,237,-290,89.10531735420227,89.10539555549622,89.10918521881104,89.11977052688599,89.27764964103699,89.27764964103699,89.27764964103699,89.27764964103699,89.27764964103699,89.27764964103699,89.27764964103699,90.301349401474,2,1.1654157638549805,None,,,,,,,,,,,,,,,,,,217,2,2025-03-07_13h28.47.884,comp,2024.2.4,57.71467021497637,2025-03-07 13h29.01.018803 -0500,
23,23,0,critical,dwh,20.0,3.0,upper,141.0,141.0,125.0,200.0,200.0,125.0,2,1.4572787284851074,None,,,,,0,0,0,0,0,23,23,69,90.31714987754822,,,,,,,,,,,,,,,,,,,,,,,,,,,,,,,,,,,,,,,,,,,,,,,,,,,,,,,,,,,,,,,,,,,,,,,,,,,,,,,,,141.0,141.0,125.0,200.0,200.0,125.0,3.0,3.2,-266,-280,0,8,258,251,90.3028244972229,90.30289840698242,90.30594825744629,90.31714987754822,90.45802235603333,90.45802235603333,90.45802235603333,90.45802235603333,90.45802235603333,90.45802235603333,90.45802235603333,91.78588795661926,2,1.4572787284851074,None,,,,,,,,,,,,,,,,,,217,2,2025-03-07_13h28.47.884,comp,2024.2.4,57.71467021497637,2025-03-07 13h29.01.018803 -0500,
24,24,0,filler_square,None,None,None,None,None,None,None,None,None,None,3,3.403541088104248,None,,,,,0,0,0,0,0,24,24,177,91.80187511444092,,,,,,,,,,,,,,,,,,,,,,,,,,,,,,,,,,,,,,,,,,,,,,,,,,,,,,,,,,,,,,,,,,,,,,,,,,,,,,,,,133.56394366284513,86.02407011106726,131.827030981456,133.68544440698767,142.8495803260795,142.8495803260795,2.2,2.21,-206,-253,0,262,234,288,91.78771471977234,91.78779172897339,91.79096007347107,91.80187511444092,91.95584869384766,91.95584869384766,91.95584869384766,91.95584869384766,91.95584869384766,91.95584869384766,91.95584869384766,95.22243142127991,3,3.403541088104248,None,,,,,,,,,,,,,,,,,,217,2,2025-03-07_13h28.47.884,comp,2024.2.4,57.71467021497637,2025-03-07 13h29.01.018803 -0500,
25,25,0,critical,whd,20.0,4.0,upper,125.0,200.0,200.0,125.0,141.0,141.0,1,2.703449010848999,None,,,,,0,0,0,0,0,25,25,95,95.23772025108337,,,,,,,,,,,,,,,,,,,,,,,,,,,,,,,,,,,,,,,,,,,,,,,,,,,,,,,,,,,,,,,,,,,,,,,,,,,,,,,,,125.0,200.0,200.0,125.0,141.0,141.0,4.0,4.2,-258,-13,0,-275,229,-6,95.22398924827576,95.22407698631287,95.22723841667175,95.23772025108337,95.38706874847412,95.38706874847412,95.38706874847412,95.38706874847412,95.38706874847412,95.38706874847412,95.38706874847412,97.95431923866272,1,2.703449010848999,None,,,,,,,,,,,,,,,,,,217,2,2025-03-07_13h28.47.884,comp,2024.2.4,57.71467021497637,2025-03-07 13h29.01.018803 -0500,
26,26,0,filler_square,None,None,None,None,None,None,None,None,None,None,1,2.059826374053955,None,,,,,0,0,0,0,0,26,26,171,97.96994042396545,,,,,,,,,,,,,,,,,,,,,,,,,,,,,,,,,,,,,,,,,,,,,,,,,,,,,,,,,,,,,,,,,,,,,,,,,,,,,,,,,89.02698183784719,89.02698183784719,59.93178168596087,75.47780814912718,79.29735174383282,70.28419717252845,3.0,3.2,-178,-274,0,-6,169,285,97.95601606369019,97.9560899734497,97.95905184745789,97.96994042396545,98.11958503723145,98.11958503723145,98.11958503723145,98.11958503723145,98.11958503723145,98.11958503723145,98.11958503723145,100.03741526603699,1,2.059826374053955,None,,,,,,,,,,,,,,,,,,217,2,2025-03-07_13h28.47.884,comp,2024.2.4,57.71467021497637,2025-03-07 13h29.01.018803 -0500,
27,27,0,filler_square,None,None,None,None,None,None,None,None,None,None,2,2.3579037189483643,None,,,,,0,0,0,0,0,27,27,173,100.05528545379639,,,,,,,,,,,,,,,,,,,,,,,,,,,,,,,,,,,,,,,,,,,,,,,,,,,,,,,,,,,,,,,,,,,,,,,,,,,,,,,,,63.307716202689406,68.86964450173058,71.9780169136981,71.9780169136981,66.55299544388322,57.389869787439764,2.1,2.11,-166,276,0,276,161,-283,100.03916478157043,100.03929948806763,100.0425066947937,100.05528545379639,100.20507574081421,100.20507574081421,100.20507574081421,100.20507574081421,100.20507574081421,100.20507574081421,100.20507574081421,102.43086409568787,2,2.3579037189483643,None,,,,,,,,,,,,,,,,,,217,2,2025-03-07_13h28.47.884,comp,2024.2.4,57.71467021497637,2025-03-07 13h29.01.018803 -0500,
28,28,0,catch,None,None,None,None,None,None,None,None,None,None,2,0.855067253112793,None,,,,,0,0,0,0,0,28,28,125,102.44670534133911,,,,,,,,,,,,,,,,,,,,,,,,,,,,,,,,,,,,,,,,,,,,,,,,,,,,,,,,,,,,,,,,,,,,,,,,,,,,,,,,,86,104,164,161,114,76,3.0,3.1,-228,288,0,14,214,-262,102.43301606178284,102.43309354782104,102.43628573417664,102.44670534133911,102.58795142173767,102.58795142173767,102.58795142173767,102.58795142173767,102.58795142173767,102.58795142173767,102.58795142173767,103.3107852935791,2,0.855067253112793,None,,,,,,,,,,,,,,,,,,217,2,2025-03-07_13h28.47.884,comp,2024.2.4,57.71467021497637,2025-03-07 13h29.01.018803 -0500,
29,29,0,filler_random,None,None,None,None,None,None,None,None,None,None,2,1.3891396522521973,None,,,,,0,0,0,0,0,29,29,157,103.32871961593628,,,,,,,,,,,,,,,,,,,,,,,,,,,,,,,,,,,,,,,,,,,,,,,,,,,,,,,,,,,,,,,,,,,,,,,,,,,,,,,,,86.08460285386957,199.4402114390284,166.63140870255282,162.24383405887306,61.61608116941509,158.39546306084753,4.0,4.2,-277,13,0,-269,256,13,103.31246423721313,103.31254124641418,103.31535148620605,103.32871961593628,103.4726140499115,103.4726140499115,103.4726140499115,103.4726140499115,103.4726140499115,103.4726140499115,103.4726140499115,104.72333693504333,2,1.3891396522521973,None,,,,,,,,,,,,,,,,,,217,2,2025-03-07_13h28.47.884,comp,2024.2.4,57.71467021497637,2025-03-07 13h29.01.018803 -0500,
30,30,0,critical,dhw,20.0,1.0,upper,141.0,141.0,200.0,125.0,125.0,200.0,3,1.6338958740234375,None,,,,,0,0,0,0,0,30,30,55,104.73948407173157,,,,,,,,,,,,,,,,,,,,,,,,,,,,,,,,,,,,,,,,,,,,,,,,,,,,,,,,,,,,,,,,,,,,,,,,,,,,,,,,,141.0,141.0,200.0,125.0,125.0,200.0,1.0,1.2,-229,4,0,-1,258,19,104.72485423088074,104.72493028640747,104.72883939743042,104.73948407173157,104.88845372200012,104.88845372200012,104.88845372200012,104.88845372200012,104.88845372200012,104.88845372200012,104.88845372200012,106.3913881778717,3,1.6338958740234375,None,,,,,,,,,,,,,,,,,,217,2,2025-03-07_13h28.47.884,comp,2024.2.4,57.71467021497637,2025-03-07 13h29.01.018803 -0500,
31,31,0,critical,hdw,20.0,2.1,upper,200.0,125.0,141.0,141.0,125.0,200.0,3,1.1508128643035889,None,,,,,0,0,0,0,0,31,31,47,106.40695834159851,,,,,,,,,,,,,,,,,,,,,,,,,,,,,,,,,,,,,,,,,,,,,,,,,,,,,,,,,,,,,,,,,,,,,,,,,,,,,,,,,200.0,125.0,141.0,141.0,125.0,200.0,2.1,2.12,-229,-266,0,-253,266,271,106.3928587436676,106.39293169975281,106.39675378799438,106.40695834159851,106.55650639533997,106.55650639533997,106.55650639533997,106.55650639533997,106.55650639533997,106.55650639533997,106.55650639533997,107.56207299232483,3,1.1508128643035889,None,,,,,,,,,,,,,,,,,,217,2,2025-03-07_13h28.47.884,comp,2024.2.4,57.71467021497637,2025-03-07 13h29.01.018803 -0500,
32,32,0,filler_random,None,None,None,None,None,None,None,None,None,None,3,1.3149092197418213,None,,,,,0,0,0,0,0,32,32,134,107.57825136184692,,,,,,,,,,,,,,,,,,,,,,,,,,,,,,,,,,,,,,,,,,,,,,,,,,,,,,,,,,,,,,,,,,,,,,,,,,,,,,,,,132.1925883238045,105.926021628956,117.69082337322882,145.6962630522624,160.26995190089693,179.10799834869374,1.0,1.3,258,-278,480,-269,738,-287,107.56372904777527,107.56380581855774,107.56668186187744,107.57825136184692,107.72094225883484,107.72094225883484,107.72094225883484,107.72094225883484,107.72094225883484,107.72094225883484,107.72094225883484,108.90792632102966,3,1.3149092197418213,None,,,,,,,,,,,,,,,,,,217,2,2025-03-07_13h28.47.884,comp,2024.2.4,57.71467021497637,2025-03-07 13h29.01.018803 -0500,
33,33,0,filler_square,None,None,None,None,None,None,None,None,None,None,2,0.9849567413330078,None,,,,,0,0,0,0,0,33,33,206,108.92443990707397,,,,,,,,,,,,,,,,,,,,,,,,,,,,,,,,,,,,,,,,,,,,,,,,,,,,,,,,,,,,,,,,,,,,,,,,,,,,,,,,,149.81047947845914,109.22204484761453,154.05115791762063,154.05115791762063,114.09490508427712,84.03726761735021,2.2,2.21,-228,-275,0,270,215,290,108.90989232063293,108.90999221801758,108.9133071899414,108.92443990707397,109.07127547264099,109.07127547264099,109.07127547264099,109.07127547264099,109.07127547264099,109.07127547264099,109.07127547264099,109.91170644760132,2,0.9849567413330078,None,,,,,,,,,,,,,,,,,,217,2,2025-03-07_13h28.47.884,comp,2024.2.4,57.71467021497637,2025-03-07 13h29.01.018803 -0500,
34,34,0,critical,dwh,35.0,2.1,lower,70.0,70.0,57.0,133.0,133.0,57.0,2,1.427746295928955,None,,,,,0,0,0,0,0,34,34,4,109.92942547798157,,,,,,,,,,,,,,,,,,,,,,,,,,,,,,,,,,,,,,,,,,,,,,,,,,,,,,,,,,,,,,,,,,,,,,,,,,,,,,,,,70.0,70.0,57.0,133.0,133.0,57.0,2.1,2.11,-198,264,0,272,191,-282,109.91328287124634,109.91336226463318,109.9163453578949,109.92942547798157,110.06567549705505,110.06567549705505,110.06567549705505,110.06567549705505,110.06567549705505,110.06567549705505,110.06567549705505,111.37793755531311,2,1.427746295928955,None,,,,,,,,,,,,,,,,,,217,2,2025-03-07_13h28.47.884,comp,2024.2.4,57.71467021497637,2025-03-07 13h29.01.018803 -0500,
35,35,0,critical,hdw,35.0,1.0,lower,133.0,57.0,70.0,70.0,57.0,133.0,1,1.2246317863464355,None,,,,,0,0,0,0,0,35,35,108,111.39735102653503,,,,,,,,,,,,,,,,,,,,,,,,,,,,,,,,,,,,,,,,,,,,,,,,,,,,,,,,,,,,,,,,,,,,,,,,,,,,,,,,,133.0,57.0,70.0,70.0,57.0,133.0,1.0,1.3,320,-251,480,-287,678,-257,111.3798770904541,111.38003039360046,111.38310694694519,111.39735102653503,111.54249906539917,111.54249906539917,111.54249906539917,111.54249906539917,111.54249906539917,111.54249906539917,111.54249906539917,112.62791466712952,1,1.2246317863464355,None,,,,,,,,,,,,,,,,,,217,2,2025-03-07_13h28.47.884,comp,2024.2.4,57.71467021497637,2025-03-07 13h29.01.018803 -0500,
36,36,0,catch,None,None,None,None,None,None,None,None,None,None,3,1.903010606765747,None,,,,,0,0,0,0,0,36,36,124,112.6462345123291,,,,,,,,,,,,,,,,,,,,,,,,,,,,,,,,,,,,,,,,,,,,,,,,,,,,,,,,,,,,,,,,,,,,,,,,,,,,,,,,,98,92,114,76,181,144,4.0,4.1,-180,-267,0,-18,206,-259,112.63009357452393,112.63017678260803,112.63337111473083,112.6462345123291,112.79107117652893,112.79107117652893,112.79107117652893,112.79107117652893,112.79107117652893,112.79107117652893,112.79107117652893,114.55929899215698,3,1.903010606765747,None,,,,,,,,,,,,,,,,,,217,2,2025-03-07_13h28.47.884,comp,2024.2.4,57.71467021497637,2025-03-07 13h29.01.018803 -0500,
37,37,0,filler_square,None,None,None,None,None,None,None,None,None,None,2,0.8779923915863037,None,,,,,0,0,0,0,0,37,37,178,114.57574486732483,,,,,,,,,,,,,,,,,,,,,,,,,,,,,,,,,,,,,,,,,,,,,,,,,,,,,,,,,,,,,,,,,,,,,,,,,,,,,,,,,85.28341359168738,105.26202259770719,191.21948480188954,191.21948480188954,89.83064251793309,135.9199615652393,1.0,1.3,236,-254,480,-285,740,-267,114.5611355304718,114.5612120628357,114.56450915336609,114.57574486732483,114.72607207298279,114.72607207298279,114.72607207298279,114.72607207298279,114.72607207298279,114.72607207298279,114.72607207298279,115.46008348464966,2,0.8779923915863037,None,,,,,,,,,,,,,,,,,,217,2,2025-03-07_13h28.47.884,comp,2024.2.4,57.71467021497637,2025-03-07 13h29.01.018803 -0500,
38,38,0,filler_square,None,None,None,None,None,None,None,None,None,None,1,1.0320701599121094,None,,,,,0,0,0,0,0,38,38,172,115.47701334953308,,,,,,,,,,,,,,,,,,,,,,,,,,,,,,,,,,,,,,,,,,,,,,,,,,,,,,,,,,,,,,,,,,,,,,,,,,,,,,,,,188.93353132059485,188.93353132059485,60.89755301936194,74.71913566699162,75.7682620829428,93.71515455483606,2.1,2.11,-228,252,0,263,180,-254,115.46212196350098,115.46220183372498,115.46544790267944,115.47701334953308,115.63184475898743,115.63184475898743,115.63184475898743,115.63184475898743,115.63184475898743,115.63184475898743,115.63184475898743,116.52626609802246,1,1.0320701599121094,None,,,,,,,,,,,,,,,,,,217,2,2025-03-07_13h28.47.884,comp,2024.2.4,57.71467021497637,2025-03-07 13h29.01.018803 -0500,
39,39,0,filler_random,None,None,None,None,None,None,None,None,None,None,2,2.0795576572418213,None,,,,,0,0,0,0,0,39,39,152,116.54228162765503,,,,,,,,,,,,,,,,,,,,,,,,,,,,,,,,,,,,,,,,,,,,,,,,,,,,,,,,,,,,,,,,,,,,,,,,,,,,,,,,,172.0060009428123,169.82082190616393,191.653763299741,190.2491278290496,74.92860729388784,145.01345269911337,4.0,4.1,-276,-266,0,16,264,-255,116.52792096138,116.52801489830017,116.53112554550171,116.54228162765503,116.69401788711548,116.69401788711548,116.69401788711548,116.69401788711548,116.69401788711548,116.69401788711548,116.69401788711548,118.62639880180359,2,2.0795576572418213,None,,,,,,,,,,,,,,,,,,217,2,2025-03-07_13h28.47.884,comp,2024.2.4,57.71467021497637,2025-03-07 13h29.01.018803 -0500,
40,40,0,filler_random,None,None,None,None,None,None,None,None,None,None,1,2.4262001514434814,None,,,,,0,0,0,0,0,40,40,131,118.6429193019867,,,,,,,,,,,,,,,,,,,,,,,,,,,,,,,,,,,,,,,,,,,,,,,,,,,,,,,,,,,,,,,,,,,,,,,,,,,,,,,,,69.67783815124997,197.53133237280719,150.2965917084466,105.00078358380676,119.54206178504569,119.86795104827772,4.0,4.2,-247,11,0,-259,208,8,118.62804865837097,118.6281247138977,118.63121676445007,118.6429193019867,118.79354286193848,118.79354286193848,118.79354286193848,118.79354286193848,118.79354286193848,118.79354286193848,118.79354286193848,121.08077073097229,1,2.4262001514434814,None,,,,,,,,,,,,,,,,,,217,2,2025-03-07_13h28.47.884,comp,2024.2.4,57.71467021497637,2025-03-07 13h29.01.018803 -0500,
41,41,0,critical,dwh,20.0,1.0,lower,78.0,78.0,57.0,133.0,133.0,57.0,2,1.9159631729125977,None,,,,,0,0,0,0,0,41,41,66,121.09725546836853,,,,,,,,,,,,,,,,,,,,,,,,,,,,,,,,,,,,,,,,,,,,,,,,,,,,,,,,,,,,,,,,,,,,,,,,,,,,,,,,,78.0,78.0,57.0,133.0,133.0,57.0,1.0,1.3,278,-270,480,-255,671,-287,121.08286571502686,121.08301854133606,121.08585548400879,121.09725546836853,121.2454936504364,121.2454936504364,121.2454936504364,121.2454936504364,121.2454936504364,121.2454936504364,121.2454936504364,123.02858519554138,2,1.9159631729125977,None,,,,,,,,,,,,,,,,,,217,2,2025-03-07_13h28.47.884,comp,2024.2.4,57.71467021497637,2025-03-07 13h29.01.018803 -0500,
42,42,0,filler_random,None,None,None,None,None,None,None,None,None,None,1,1.2332332134246826,None,,,,,0,0,0,0,0,42,42,149,123.04389309883118,,,,,,,,,,,,,,,,,,,,,,,,,,,,,,,,,,,,,,,,,,,,,,,,,,,,,,,,,,,,,,,,,,,,,,,,,,,,,,,,,119.08078499496236,184.80361769210472,192.46170599509838,134.6624515972576,176.9168886450198,169.69492083696565,2.2,2.22,-256,277,0,-285,248,-253,123.0302472114563,123.03032445907593,123.0336549282074,123.04389309883118,123.19928193092346,123.19928193092346,123.19928193092346,123.19928193092346,123.19928193092346,123.19928193092346,123.19928193092346,124.29447269439697,1,1.2332332134246826,None,,,,,,,,,,,,,,,,,,217,2,2025-03-07_13h28.47.884,comp,2024.2.4,57.71467021497637,2025-03-07 13h29.01.018803 -0500,
43,43,0,critical,dhw,20.0,2.1,lower,78.0,78.0,133.0,57.0,57.0,133.0,2,6.518792390823364,None,,,,,0,0,0,0,0,43,43,2,124.31029796600342,,,,,,,,,,,,,,,,,,,,,,,,,,,,,,,,,,,,,,,,,,,,,,,,,,,,,,,,,,,,,,,,,,,,,,,,,,,,,,,,,78.0,78.0,133.0,57.0,57.0,133.0,2.1,2.12,-164,-256,0,-262,191,261,124.29594302177429,124.29605078697205,124.2990231513977,124.31029796600342,124.4662230014801,124.4662230014801,124.4662230014801,124.4662230014801,124.4662230014801,124.4662230014801,124.4662230014801,130.83232140541077,2,6.518792390823364,None,,,,,,,,,,,,,,,,,,217,2,2025-03-07_13h28.47.884,comp,2024.2.4,57.71467021497637,2025-03-07 13h29.01.018803 -0500,
44,44,0,critical,hdw,20.0,3.0,lower,133.0,57.0,78.0,78.0,57.0,133.0,1,1.0593526363372803,None,,,,,0,0,0,0,0,44,44,116,130.85028266906738,,,,,,,,,,,,,,,,,,,,,,,,,,,,,,,,,,,,,,,,,,,,,,,,,,,,,,,,,,,,,,,,,,,,,,,,,,,,,,,,,133.0,57.0,78.0,78.0,57.0,133.0,3.0,3.1,-164,274,0,-6,202,-261,130.83389258384705,130.8340039253235,130.83738207817078,130.85028266906738,131.00564098358154,131.00564098358154,131.00564098358154,131.00564098358154,131.00564098358154,131.00564098358154,131.00564098358154,131.91537880897522,1,1.0593526363372803,None,,,,,,,,,,,,,,,,,,217,2,2025-03-07_13h28.47.884,comp,2024.2.4,57.71467021497637,2025-03-07 13h29.01.018803 -0500,
45,45,0,filler_square,None,None,None,None,None,None,None,None,None,None,1,1.0497808456420898,None,,,,,0,0,0,0,0,45,45,193,131.93147039413452,,,,,,,,,,,,,,,,,,,,,,,,,,,,,,,,,,,,,,,,,,,,,,,,,,,,,,,,,,,,,,,,,,,,,,,,,,,,,,,,,132.59074478791928,132.59074478791928,87.91960204308197,63.08635553583831,110.10697512529629,110.12225471684502,2.1,2.12,-194,-278,0,-277,183,279,131.91723012924194,131.91736435890198,131.92069840431213,131.93147039413452,132.08414769172668,132.08414769172668,132.08414769172668,132.08414769172668,132.08414769172668,132.08414769172668,132.08414769172668,132.99824857711792,1,1.0497808456420898,None,,,,,,,,,,,,,,,,,,217,2,2025-03-07_13h28.47.884,comp,2024.2.4,57.71467021497637,2025-03-07 13h29.01.018803 -0500,
46,46,0,critical,whd,20.0,4.0,lower,57.0,133.0,133.0,57.0,78.0,78.0,2,1.0947682857513428,None,,,,,0,0,0,0,0,46,46,94,133.01470708847046,,,,,,,,,,,,,,,,,,,,,,,,,,,,,,,,,,,,,,,,,,,,,,,,,,,,,,,,,,,,,,,,,,,,,,,,,,,,,,,,,57.0,133.0,133.0,57.0,78.0,78.0,4.0,4.1,-191,-280,0,-19,164,-267,132.99976348876953,132.9998390674591,133.0031077861786,133.01470708847046,133.16337490081787,133.16337490081787,133.16337490081787,133.16337490081787,133.16337490081787,133.16337490081787,133.16337490081787,134.1145887374878,2,1.0947682857513428,None,,,,,,,,,,,,,,,,,,217,2,2025-03-07_13h28.47.884,comp,2024.2.4,57.71467021497637,2025-03-07 13h29.01.018803 -0500,
47,47,0,critical,hwd,35.0,2.1,lower,133.0,57.0,57.0,133.0,70.0,70.0,1,1.1961462497711182,None,,,,,0,0,0,0,0,47,47,16,134.13028812408447,,,,,,,,,,,,,,,,,,,,,,,,,,,,,,,,,,,,,,,,,,,,,,,,,,,,,,,,,,,,,,,,,,,,,,,,,,,,,,,,,133.0,57.0,57.0,133.0,70.0,70.0,2.1,2.11,-191,255,0,254,198,-252,134.11605191230774,134.11612701416016,134.11918592453003,134.13028812408447,134.28284454345703,134.28284454345703,134.28284454345703,134.28284454345703,134.28284454345703,134.28284454345703,134.28284454345703,135.3331480026245,1,1.1961462497711182,None,,,,,,,,,,,,,,,,,,217,2,2025-03-07_13h28.47.884,comp,2024.2.4,57.71467021497637,2025-03-07 13h29.01.018803 -0500,
48,48,0,filler_random,None,None,None,None,None,None,None,None,None,None,2,1.2537920475006104,None,,,,,0,0,0,0,0,48,48,130,135.35127115249634,,,,,,,,,,,,,,,,,,,,,,,,,,,,,,,,,,,,,,,,,,,,,,,,,,,,,,,,,,,,,,,,,,,,,,,,,,,,,,,,,130.65484327721975,107.24916064141455,180.71882492167282,136.6459878446355,118.11846508478655,76.0447247127229,2.1,2.12,-218,-289,0,-282,202,273,135.33475542068481,135.33482933044434,135.3377616405487,135.35127115249634,135.50006794929504,135.50006794929504,135.50006794929504,135.50006794929504,135.50006794929504,135.50006794929504,135.50006794929504,136.61899304389954,2,1.2537920475006104,None,,,,,,,,,,,,,,,,,,217,2,2025-03-07_13h28.47.884,comp,2024.2.4,57.71467021497637,2025-03-07 13h29.01.018803 -0500,
49,49,0,critical,hwd,20.0,3.0,upper,200.0,125.0,125.0,200.0,141.0,141.0,2,1.1369349956512451,None,,,,,0,0,0,0,0,49,49,105,136.6361527442932,,,,,,,,,,,,,,,,,,,,,,,,,,,,,,,,,,,,,,,,,,,,,,,,,,,,,,,,,,,,,,,,,,,,,,,,,,,,,,,,,200.0,125.0,125.0,200.0,141.0,141.0,3.0,3.2,-258,-257,0,-12,266,266,136.62069296836853,136.6208209991455,136.6241102218628,136.6361527442932,136.78274178504944,136.78274178504944,136.78274178504944,136.78274178504944,136.78274178504944,136.78274178504944,136.78274178504944,137.783269405365,2,1.1369349956512451,None,,,,,,,,,,,,,,,,,,217,2,2025-03-07_13h28.47.884,comp,2024.2.4,57.71467021497637,2025-03-07 13h29.01.018803 -0500,
50,50,0,filler_random,None,None,None,None,None,None,None,None,None,None,1,1.0290555953979492,None,,,,,0,0,0,0,0,50,50,168,137.80001044273376,,,,,,,,,,,,,,,,,,,,,,,,,,,,,,,,,,,,,,,,,,,,,,,,,,,,,,,,,,,,,,,,,,,,,,,,,,,,,,,,,175.40916069518647,101.74244739063576,125.76303864544846,74.29561316686556,179.64683900153238,74.60098004799809,2.2,2.22,-184,275,0,-267,170,-268,137.78503894805908,137.7851583957672,137.7885558605194,137.80001044273376,137.9547939300537,137.9547939300537,137.9547939300537,137.9547939300537,137.9547939300537,137.9547939300537,137.9547939300537,138.8447961807251,1,1.0290555953979492,None,,,,,,,,,,,,,,,,,,217,2,2025-03-07_13h28.47.884,comp,2024.2.4,57.71467021497637,2025-03-07 13h29.01.018803 -0500,
51,51,0,critical,dhw,35.0,2.1,upper,127.0,127.0,200.0,125.0,125.0,200.0,3,0.9845089912414551,None,,,,,0,0,0,0,0,51,51,1,138.8608729839325,,,,,,,,,,,,,,,,,,,,,,,,,,,,,,,,,,,,,,,,,,,,,,,,,,,,,,,,,,,,,,,,,,,,,,,,,,,,,,,,,127.0,127.0,200.0,125.0,125.0,200.0,2.1,2.12,-222,-251,0,-276,258,267,138.846417427063,138.8464925289154,138.8496515750885,138.8608729839325,138.9983310699463,138.9983310699463,138.9983310699463,138.9983310699463,138.9983310699463,138.9983310699463,138.9983310699463,139.84913659095764,3,0.9845089912414551,None,,,,,,,,,,,,,,,,,,217,2,2025-03-07_13h28.47.884,comp,2024.2.4,57.71467021497637,2025-03-07 13h29.01.018803 -0500,
52,52,0,critical,hdw,35.0,3.0,lower,133.0,57.0,70.0,70.0,57.0,133.0,1,1.012380838394165,None,,,,,0,0,0,0,0,52,52,110,139.8652081489563,,,,,,,,,,,,,,,,,,,,,,,,,,,,,,,,,,,,,,,,,,,,,,,,,,,,,,,,,,,,,,,,,,,,,,,,,,,,,,,,,133.0,57.0,70.0,70.0,57.0,133.0,3.0,3.1,-160,261,0,-16,198,-265,139.8505733013153,139.85064816474915,139.8534550666809,139.8652081489563,140.01376962661743,140.01376962661743,140.01376962661743,140.01376962661743,140.01376962661743,140.01376962661743,140.01376962661743,140.88138890266418,1,1.012380838394165,None,,,,,,,,,,,,,,,,,,217,2,2025-03-07_13h28.47.884,comp,2024.2.4,57.71467021497637,2025-03-07 13h29.01.018803 -0500,
53,53,0,filler_square,None,None,None,None,None,None,None,None,None,None,1,1.0993905067443848,None,,,,,0,0,0,0,0,53,53,179,140.89800786972046,,,,,,,,,,,,,,,,,,,,,,,,,,,,,,,,,,,,,,,,,,,,,,,,,,,,,,,,,,,,,,,,,,,,,,,,,,,,,,,,,88.73875509646439,88.73875509646439,68.53485083838403,66.55955211459408,77.30951337332559,78.51687519720937,2.2,2.22,-174,252,0,-254,169,-282,140.88312602043152,140.8832015991211,140.88600826263428,140.89800786972046,141.03801131248474,141.03801131248474,141.03801131248474,141.03801131248474,141.03801131248474,141.03801131248474,141.03801131248474,142.0040943622589,1,1.0993905067443848,None,,,,,,,,,,,,,,,,,,217,2,2025-03-07_13h28.47.884,comp,2024.2.4,57.71467021497637,2025-03-07 13h29.01.018803 -0500,
54,54,0,filler_random,None,None,None,None,None,None,None,None,None,None,1,4.938052415847778,None,,,,,0,0,0,0,0,54,54,167,142.02007055282593,,,,,,,,,,,,,,,,,,,,,,,,,,,,,,,,,,,,,,,,,,,,,,,,,,,,,,,,,,,,,,,,,,,,,,,,,,,,,,,,,199.44262007288913,166.5370726355984,149.2847875385539,62.92165145919641,197.05690334695487,101.1936236355741,4.0,4.1,-211,-280,0,14,178,-269,142.0059187412262,142.0060634613037,142.009423494339,142.02007055282593,142.17559027671814,142.17559027671814,142.17559027671814,142.17559027671814,142.17559027671814,142.17559027671814,142.17559027671814,146.9695920944214,1,4.938052415847778,None,,,,,,,,,,,,,,,,,,217,2,2025-03-07_13h28.47.884,comp,2024.2.4,57.71467021497637,2025-03-07 13h29.01.018803 -0500,
55,55,0,filler_square,None,None,None,None,None,None,None,None,None,None,3,1.5389201641082764,None,,,,,0,0,0,0,0,55,55,202,146.98706459999084,,,,,,,,,,,,,,,,,,,,,,,,,,,,,,,,,,,,,,,,,,,,,,,,,,,,,,,,,,,,,,,,,,,,,,,,,,,,,,,,,69.54424101297296,67.38905002989526,64.23035762068176,93.97381516790308,97.21014753713928,97.21014753713928,2.1,2.11,-177,250,0,283,192,-268,146.9714436531067,146.97152090072632,146.9755461215973,146.98706459999084,147.13520288467407,147.13520288467407,147.13520288467407,147.13520288467407,147.13520288467407,147.13520288467407,147.13520288467407,148.52819776535034,3,1.5389201641082764,None,,,,,,,,,,,,,,,,,,217,2,2025-03-07_13h28.47.884,comp,2024.2.4,57.71467021497637,2025-03-07 13h29.01.018803 -0500,
56,56,0,filler_random,None,None,None,None,None,None,None,None,None,None,3,0.9077882766723633,None,,,,,0,0,0,0,0,56,56,169,148.54572939872742,,,,,,,,,,,,,,,,,,,,,,,,,,,,,,,,,,,,,,,,,,,,,,,,,,,,,,,,,,,,,,,,,,,,,,,,,,,,,,,,,99.3641607207359,189.1279840382932,90.90471081724952,61.41928794937711,195.93777456170665,69.21131294073007,2.1,2.12,-221,-278,0,-271,161,275,148.5298388004303,148.52991127967834,148.53272199630737,148.54572939872742,148.68816208839417,148.68816208839417,148.68816208839417,148.68816208839417,148.68816208839417,148.68816208839417,148.68816208839417,149.46090984344482,3,0.9077882766723633,None,,,,,,,,,,,,,,,,,,217,2,2025-03-07_13h28.47.884,comp,2024.2.4,57.71467021497637,2025-03-07 13h29.01.018803 -0500,
57,57,0,critical,whd,20.0,3.0,upper,125.0,200.0,200.0,125.0,141.0,141.0,1,1.8998734951019287,None,,,,,0,0,0,0,0,57,57,93,149.48146963119507,,,,,,,,,,,,,,,,,,,,,,,,,,,,,,,,,,,,,,,,,,,,,,,,,,,,,,,,,,,,,,,,,,,,,,,,,,,,,,,,,125.0,200.0,200.0,125.0,141.0,141.0,3.0,3.1,-258,271,0,16,229,-265,149.4624536037445,149.46254014968872,149.46577215194702,149.48146963119507,149.61818838119507,149.61818838119507,149.61818838119507,149.61818838119507,149.61818838119507,149.61818838119507,149.61818838119507,151.39113354682922,1,1.8998734951019287,None,,,,,,,,,,,,,,,,,,217,2,2025-03-07_13h28.47.884,comp,2024.2.4,57.71467021497637,2025-03-07 13h29.01.018803 -0500,
58,58,0,filler_square,None,None,None,None,None,None,None,None,None,None,2,1.1824591159820557,None,,,,,0,0,0,0,0,58,58,189,151.40665936470032,,,,,,,,,,,,,,,,,,,,,,,,,,,,,,,,,,,,,,,,,,,,,,,,,,,,,,,,,,,,,,,,,,,,,,,,,,,,,,,,,60.05981474455886,70.43936351012108,99.14117376916602,99.14117376916602,79.58706605656421,96.58829842114146,2.1,2.12,-181,-263,0,-282,194,276,151.3930685520172,151.39314532279968,151.3960018157959,151.40665936470032,151.54812216758728,151.54812216758728,151.54812216758728,151.54812216758728,151.54812216758728,151.54812216758728,151.54812216758728,152.60530042648315,2,1.1824591159820557,None,,,,,,,,,,,,,,,,,,217,2,2025-03-07_13h28.47.884,comp,2024.2.4,57.71467021497637,2025-03-07 13h29.01.018803 -0500,
59,59,0,critical,wdh,20.0,4.0,lower,57.0,133.0,78.0,78.0,133.0,57.0,3,1.0894100666046143,None,,,,,0,0,0,0,0,59,59,82,152.62079286575317,,,,,,,,,,,,,,,,,,,,,,,,,,,,,,,,,,,,,,,,,,,,,,,,,,,,,,,,,,,,,,,,,,,,,,,,,,,,,,,,,57.0,133.0,78.0,78.0,133.0,57.0,4.0,4.2,-202,-16,0,-277,164,5,152.60689544677734,152.60701036453247,152.61051034927368,152.62079286575317,152.77108430862427,152.77108430862427,152.77108430862427,152.77108430862427,152.77108430862427,152.77108430862427,152.77108430862427,153.71230936050415,3,1.0894100666046143,None,,,,,,,,,,,,,,,,,,217,2,2025-03-07_13h28.47.884,comp,2024.2.4,57.71467021497637,2025-03-07 13h29.01.018803 -0500,
60,60,0,critical,wdh,20.0,1.0,upper,125.0,200.0,141.0,141.0,200.0,125.0,1,0.9767446517944336,None,,,,,0,0,0,0,0,60,60,79,153.73304152488708,,,,,,,,,,,,,,,,,,,,,,,,,,,,,,,,,,,,,,,,,,,,,,,,,,,,,,,,,,,,,,,,,,,,,,,,,,,,,,,,,125.0,200.0,141.0,141.0,200.0,125.0,1.0,1.3,214,-262,480,-288,709,-271,153.71383213996887,153.7139072418213,153.71727585792542,153.73304152488708,153.87206935882568,153.87206935882568,153.87206935882568,153.87206935882568,153.87206935882568,153.87206935882568,153.87206935882568,154.71781277656555,1,0.9767446517944336,None,,,,,,,,,,,,,,,,,,217,2,2025-03-07_13h28.47.884,comp,2024.2.4,57.71467021497637,2025-03-07 13h29.01.018803 -0500,
61,61,0,critical,dwh,35.0,4.0,upper,127.0,127.0,125.0,200.0,200.0,125.0,3,1.6307806968688965,None,,,,,0,0,0,0,0,61,61,65,154.73436164855957,,,,,,,,,,,,,,,,,,,,,,,,,,,,,,,,,,,,,,,,,,,,,,,,,,,,,,,,,,,,,,,,,,,,,,,,,,,,,,,,,127.0,127.0,125.0,200.0,200.0,125.0,4.0,4.1,-260,-252,0,0,258,-260,154.71939992904663,154.7194755077362,154.72286009788513,154.73436164855957,154.8731677532196,154.8731677532196,154.8731677532196,154.8731677532196,154.8731677532196,154.8731677532196,154.8731677532196,156.37729215621948,3,1.6307806968688965,None,,,,,,,,,,,,,,,,,,217,2,2025-03-07_13h28.47.884,comp,2024.2.4,57.71467021497637,2025-03-07 13h29.01.018803 -0500,
62,62,0,critical,dwh,20.0,4.0,lower,78.0,78.0,57.0,133.0,133.0,57.0,2,1.1761033535003662,None,,,,,0,0,0,0,0,62,62,70,156.39701294898987,,,,,,,,,,,,,,,,,,,,,,,,,,,,,,,,,,,,,,,,,,,,,,,,,,,,,,,,,,,,,,,,,,,,,,,,,,,,,,,,,78.0,78.0,57.0,133.0,133.0,57.0,4.0,4.2,-202,-10,0,-271,191,-18,156.37881350517273,156.37888979911804,156.3817641735077,156.39701294898987,156.5388045310974,156.5388045310974,156.5388045310974,156.5388045310974,156.5388045310974,156.5388045310974,156.5388045310974,157.58928775787354,2,1.1761033535003662,None,,,,,,,,,,,,,,,,,,217,2,2025-03-07_13h28.47.884,comp,2024.2.4,57.71467021497637,2025-03-07 13h29.01.018803 -0500,
63,63,0,filler_square,None,None,None,None,None,None,None,None,None,None,3,1.0323269367218018,None,,,,,0,0,0,0,0,63,63,204,157.60514616966248,,,,,,,,,,,,,,,,,,,,,,,,,,,,,,,,,,,,,,,,,,,,,,,,,,,,,,,,,,,,,,,,,,,,,,,,,,,,,,,,,73.4458932354076,124.32409452049083,82.67994081830695,151.66732838603954,181.2443807344706,181.2443807344706,2.2,2.22,-234,268,0,-266,262,-283,157.59133744239807,157.59141302108765,157.59479427337646,157.60514616966248,157.75391578674316,157.75391578674316,157.75391578674316,157.75391578674316,157.75391578674316,157.75391578674316,157.75391578674316,158.63963770866394,3,1.0323269367218018,None,,,,,,,,,,,,,,,,,,217,2,2025-03-07_13h28.47.884,comp,2024.2.4,57.71467021497637,2025-03-07 13h29.01.018803 -0500,
64,64,0,critical,wdh,20.0,2.1,lower,57.0,133.0,78.0,78.0,133.0,57.0,2,1.126279354095459,None,,,,,0,0,0,0,0,64,64,10,158.65558385849,,,,,,,,,,,,,,,,,,,,,,,,,,,,,,,,,,,,,,,,,,,,,,,,,,,,,,,,,,,,,,,,,,,,,,,,,,,,,,,,,57.0,133.0,78.0,78.0,133.0,57.0,2.1,2.12,-202,-278,0,-276,164,266,158.64114928245544,158.6412239074707,158.64413404464722,158.65558385849,158.8092484474182,158.8092484474182,158.8092484474182,158.8092484474182,158.8092484474182,158.8092484474182,158.8092484474182,159.78952646255493,2,1.126279354095459,None,,,,,,,,,,,,,,,,,,217,2,2025-03-07_13h28.47.884,comp,2024.2.4,57.71467021497637,2025-03-07 13h29.01.018803 -0500,
65,65,0,critical,dwh,20.0,3.0,lower,78.0,78.0,57.0,133.0,133.0,57.0,3,0.10216140747070312,None,,,,,0,0,0,0,0,65,65,68,159.80689787864685,,,,,,,,,,,,,,,,,,,,,,,,,,,,,,,,,,,,,,,,,,,,,,,,,,,,,,,,,,,,,,,,,,,,,,,,,,,,,,,,,78.0,78.0,57.0,133.0,133.0,57.0,3.0,3.2,-202,-274,0,0,191,263,159.79101943969727,159.79109644889832,159.79386711120605,159.80689787864685,,,,,,,,159.92379426956177,3,0.10216140747070312,None,,,,,,,,,,,,,,,,,,217,2,2025-03-07_13h28.47.884,comp,2024.2.4,57.71467021497637,2025-03-07 13h29.01.018803 -0500,
66,66,0,filler_random,None,None,None,None,None,None,None,None,None,None,2,1.1674866676330566,None,,,,,0,0,0,0,0,66,66,151,159.94177913665771,,,,,,,,,,,,,,,,,,,,,,,,,,,,,,,,,,,,,,,,,,,,,,,,,,,,,,,,,,,,,,,,,,,,,,,,,,,,,,,,,96.03465567229941,79.52572433439639,86.8621335879911,146.81364240620832,57.49208800253555,70.16446420597752,2.2,2.21,-209,-281,0,268,204,259,159.92561149597168,159.92573809623718,159.92887997627258,159.94177913665771,160.09072637557983,160.09072637557983,160.09072637557983,160.09072637557983,160.09072637557983,160.09072637557983,160.09072637557983,161.1114480495453,2,1.1674866676330566,None,,,,,,,,,,,,,,,,,,217,2,2025-03-07_13h28.47.884,comp,2024.2.4,57.71467021497637,2025-03-07 13h29.01.018803 -0500,
67,67,0,filler_random,None,None,None,None,None,None,None,None,None,None,1,0.7793080806732178,None,,,,,0,0,0,0,0,67,67,148,161.12981724739075,,,,,,,,,,,,,,,,,,,,,,,,,,,,,,,,,,,,,,,,,,,,,,,,,,,,,,,,,,,,,,,,,,,,,,,,,,,,,,,,,157.6541431266307,155.4177943978804,135.9897891605426,144.35042442436972,99.65759312142029,103.84716406756127,1.0,1.1,-726,262,-480,268,-260,260,161.11344146728516,161.11354732513428,161.11670088768005,161.12981724739075,161.282616853714,161.282616853714,161.282616853714,161.282616853714,161.282616853714,161.282616853714,161.282616853714,161.92409372329712,1,0.7793080806732178,None,,,,,,,,,,,,,,,,,,217,2,2025-03-07_13h28.47.884,comp,2024.2.4,57.71467021497637,2025-03-07 13h29.01.018803 -0500,
68,68,0,critical,dhw,35.0,2.1,upper,127.0,127.0,200.0,125.0,125.0,200.0,2,1.0503263473510742,None,,,,,0,0,0,0,0,68,68,25,161.93949818611145,,,,,,,,,,,,,,,,,,,,,,,,,,,,,,,,,,,,,,,,,,,,,,,,,,,,,,,,,,,,,,,,,,,,,,,,,,,,,,,,,127.0,127.0,200.0,125.0,125.0,200.0,2.1,2.11,-222,255,0,264,258,-255,161.92565250396729,161.92572712898254,161.9292209148407,161.93949818611145,162.08860898017883,162.08860898017883,162.08860898017883,162.08860898017883,162.08860898017883,162.08860898017883,162.08860898017883,162.99611616134644,2,1.0503263473510742,None,,,,,,,,,,,,,,,,,,217,2,2025-03-07_13h28.47.884,comp,2024.2.4,57.71467021497637,2025-03-07 13h29.01.018803 -0500,
69,69,0,filler_random,None,None,None,None,None,None,None,None,None,None,3,1.0573537349700928,None,,,,,0,0,0,0,0,69,69,145,163.01213693618774,,,,,,,,,,,,,,,,,,,,,,,,,,,,,,,,,,,,,,,,,,,,,,,,,,,,,,,,,,,,,,,,,,,,,,,,,,,,,,,,,104.9916535717992,95.89839819070501,111.40055947287992,125.9538742767297,99.74957010498599,151.4471082564014,1.0,1.2,-207,17,0,12,235,6,162.99772691726685,162.99780344963074,163.0006673336029,163.01213693618774,163.15686988830566,163.15686988830566,163.15686988830566,163.15686988830566,163.15686988830566,163.15686988830566,163.15686988830566,164.07908368110657,3,1.0573537349700928,None,,,,,,,,,,,,,,,,,,217,2,2025-03-07_13h28.47.884,comp,2024.2.4,57.71467021497637,2025-03-07 13h29.01.018803 -0500,
70,70,0,filler_square,None,None,None,None,None,None,None,None,None,None,1,0.6824724674224854,None,,,,,0,0,0,0,0,70,70,195,164.09861588478088,,,,,,,,,,,,,,,,,,,,,,,,,,,,,,,,,,,,,,,,,,,,,,,,,,,,,,,,,,,,,,,,,,,,,,,,,,,,,,,,,146.48237719172423,146.48237719172423,70.58909023446776,100.40645410102971,66.34266659196258,121.85434117478204,2.2,2.22,-219,289,0,-279,207,-277,164.0810911655426,164.08116817474365,164.08440923690796,164.09861588478088,164.24207496643066,164.24207496643066,164.24207496643066,164.24207496643066,164.24207496643066,164.24207496643066,164.24207496643066,164.7942464351654,1,0.6824724674224854,None,,,,,,,,,,,,,,,,,,217,2,2025-03-07_13h28.47.884,comp,2024.2.4,57.71467021497637,2025-03-07 13h29.01.018803 -0500,
71,71,0,filler_random,None,None,None,None,None,None,None,None,None,None,2,0.962848424911499,None,,,,,0,0,0,0,0,71,71,150,164.81031775474548,,,,,,,,,,,,,,,,,,,,,,,,,,,,,,,,,,,,,,,,,,,,,,,,,,,,,,,,,,,,,,,,,,,,,,,,,,,,,,,,,64.65271414954256,105.02211628090583,147.75998325429805,186.64015170967318,187.52914959210648,75.03077779244681,2.2,2.22,-242,284,0,-269,227,-287,164.7962396144867,164.79631805419922,164.79924416542053,164.81031775474548,164.9567048549652,164.9567048549652,164.9567048549652,164.9567048549652,164.9567048549652,164.9567048549652,164.9567048549652,165.77831864356995,2,0.962848424911499,None,,,,,,,,,,,,,,,,,,217,2,2025-03-07_13h28.47.884,comp,2024.2.4,57.71467021497637,2025-03-07 13h29.01.018803 -0500,
72,72,0,filler_random,None,None,None,None,None,None,None,None,None,None,2,0.9612650871276855,None,,,,,0,0,0,0,0,72,72,162,165.79638123512268,,,,,,,,,,,,,,,,,,,,,,,,,,,,,,,,,,,,,,,,,,,,,,,,,,,,,,,,,,,,,,,,,,,,,,,,,,,,,,,,,94.29858280401209,163.07043873195238,157.37830573564673,156.20650842213115,77.2107845971697,185.1526452501095,2.2,2.22,-256,271,0,-279,267,-259,165.78007435798645,165.7801525592804,165.78321170806885,165.79638123512268,165.94228744506836,165.94228744506836,165.94228744506836,165.94228744506836,165.94228744506836,165.94228744506836,165.94228744506836,166.76603198051453,2,0.9612650871276855,None,,,,,,,,,,,,,,,,,,217,2,2025-03-07_13h28.47.884,comp,2024.2.4,57.71467021497637,2025-03-07 13h29.01.018803 -0500,
73,73,0,filler_square,None,None,None,None,None,None,None,None,None,None,2,1.0215508937835693,None,,,,,0,0,0,0,0,73,73,174,166.78352808952332,,,,,,,,,,,,,,,,,,,,,,,,,,,,,,,,,,,,,,,,,,,,,,,,,,,,,,,,,,,,,,,,,,,,,,,,,,,,,,,,,127.14890499084213,97.62096880528385,128.44422579525104,128.44422579525104,124.14967747501056,79.38355968250173,1.0,1.2,-209,6,0,-4,200,19,166.76774740219116,166.76782202720642,166.77060890197754,166.78352808952332,166.9275827407837,166.9275827407837,166.9275827407837,166.9275827407837,166.9275827407837,166.9275827407837,166.9275827407837,167.82404947280884,2,1.0215508937835693,None,,,,,,,,,,,,,,,,,,217,2,2025-03-07_13h28.47.884,comp,2024.2.4,57.71467021497637,2025-03-07 13h29.01.018803 -0500,
74,74,0,catch,None,None,None,None,None,None,None,None,None,None,2,0.9444386959075928,None,,,,,0,0,0,0,0,74,74,128,167.84474802017212,,,,,,,,,,,,,,,,,,,,,,,,,,,,,,,,,,,,,,,,,,,,,,,,,,,,,,,,,,,,,,,,,,,,,,,,,,,,,,,,,93,97,138,187,108,82,4.0,4.2,-238,-3,0,-280,230,-16,167.82609796524048,167.82617211341858,167.82940554618835,167.84474802017212,167.9929518699646,167.9929518699646,167.9929518699646,167.9929518699646,167.9929518699646,167.9929518699646,167.9929518699646,168.7949423789978,2,0.9444386959075928,None,,,,,,,,,,,,,,,,,,217,2,2025-03-07_13h28.47.884,comp,2024.2.4,57.71467021497637,2025-03-07 13h29.01.018803 -0500,
75,75,0,filler_square,None,None,None,None,None,None,None,None,None,None,2,1.0395917892456055,None,,,,,0,0,0,0,0,75,75,200,168.81345510482788,,,,,,,,,,,,,,,,,,,,,,,,,,,,,,,,,,,,,,,,,,,,,,,,,,,,,,,,,,,,,,,,,,,,,,,,,,,,,,,,,80.28158503783608,139.50786123746246,195.33230778041812,195.33230778041812,177.65694415626473,114.82371516448924,2.2,2.21,-263,-281,0,268,251,265,168.79705619812012,168.79717993736267,168.8004288673401,168.81345510482788,168.95970058441162,168.95970058441162,168.95970058441162,168.95970058441162,168.95970058441162,168.95970058441162,168.95970058441162,169.867192029953,2,1.0395917892456055,None,,,,,,,,,,,,,,,,,,217,2,2025-03-07_13h28.47.884,comp,2024.2.4,57.71467021497637,2025-03-07 13h29.01.018803 -0500,
76,76,0,critical,hdw,20.0,2.1,lower,133.0,57.0,78.0,78.0,57.0,133.0,1,1.6777923107147217,None,,,,,0,0,0,0,0,76,76,22,169.88760495185852,,,,,,,,,,,,,,,,,,,,,,,,,,,,,,,,,,,,,,,,,,,,,,,,,,,,,,,,,,,,,,,,,,,,,,,,,,,,,,,,,133.0,57.0,78.0,78.0,57.0,133.0,2.1,2.12,-164,-277,0,-285,202,252,169.8687345981598,169.86881017684937,169.8720998764038,169.88760495185852,170.02718663215637,170.02718663215637,170.02718663215637,170.02718663215637,170.02718663215637,170.02718663215637,170.02718663215637,171.57008719444275,1,1.6777923107147217,None,,,,,,,,,,,,,,,,,,217,2,2025-03-07_13h28.47.884,comp,2024.2.4,57.71467021497637,2025-03-07 13h29.01.018803 -0500,
77,77,0,critical,wdh,35.0,2.1,upper,125.0,200.0,127.0,127.0,200.0,125.0,1,1.686967134475708,None,,,,,0,0,0,0,0,77,77,9,171.5906035900116,,,,,,,,,,,,,,,,,,,,,,,,,,,,,,,,,,,,,,,,,,,,,,,,,,,,,,,,,,,,,,,,,,,,,,,,,,,,,,,,,125.0,200.0,127.0,127.0,200.0,125.0,2.1,2.11,-260,255,0,276,222,-253,171.57166743278503,171.57174229621887,171.57490730285645,171.5906035900116,171.73295760154724,171.73295760154724,171.73295760154724,171.73295760154724,171.73295760154724,171.73295760154724,171.73295760154724,173.29534816741943,1,1.686967134475708,None,,,,,,,,,,,,,,,,,,217,2,2025-03-07_13h28.47.884,comp,2024.2.4,57.71467021497637,2025-03-07 13h29.01.018803 -0500,
78,78,0,critical,whd,20.0,2.1,lower,57.0,133.0,133.0,57.0,78.0,78.0,2,1.4544322490692139,None,,,,,0,0,0,0,0,78,78,38,173.31084895133972,,,,,,,,,,,,,,,,,,,,,,,,,,,,,,,,,,,,,,,,,,,,,,,,,,,,,,,,,,,,,,,,,,,,,,,,,,,,,,,,,57.0,133.0,133.0,57.0,78.0,78.0,2.1,2.11,-191,254,0,253,164,-283,173.29687643051147,173.29695081710815,173.30048203468323,173.31084895133972,173.46685695648193,173.46685695648193,173.46685695648193,173.46685695648193,173.46685695648193,173.46685695648193,173.46685695648193,174.77895998954773,2,1.4544322490692139,None,,,,,,,,,,,,,,,,,,217,2,2025-03-07_13h28.47.884,comp,2024.2.4,57.71467021497637,2025-03-07 13h29.01.018803 -0500,
79,79,0,critical,whd,35.0,1.0,upper,125.0,200.0,200.0,125.0,127.0,127.0,1,1.4498755931854248,None,,,,,0,0,0,0,0,79,79,85,174.79521560668945,,,,,,,,,,,,,,,,,,,,,,,,,,,,,,,,,,,,,,,,,,,,,,,,,,,,,,,,,,,,,,,,,,,,,,,,,,,,,,,,,125.0,200.0,200.0,125.0,127.0,127.0,1.0,1.3,222,-262,480,-264,702,-270,174.78048610687256,174.78056120872498,174.7845332622528,174.79521560668945,174.94978737831116,174.94978737831116,174.94978737831116,174.94978737831116,174.94978737831116,174.94978737831116,174.94978737831116,176.26193571090698,1,1.4498755931854248,None,,,,,,,,,,,,,,,,,,217,2,2025-03-07_13h28.47.884,comp,2024.2.4,57.71467021497637,2025-03-07 13h29.01.018803 -0500,
80,80,0,critical,dwh,35.0,1.0,upper,127.0,127.0,125.0,200.0,200.0,125.0,2,0.7678472995758057,None,,,,,0,0,0,0,0,80,80,61,176.27722191810608,,,,,,,,,,,,,,,,,,,,,,,,,,,,,,,,,,,,,,,,,,,,,,,,,,,,,,,,,,,,,,,,,,,,,,,,,,,,,,,,,127.0,127.0,125.0,200.0,200.0,125.0,1.0,1.2,-260,-19,0,-6,258,12,176.26341104507446,176.26348495483398,176.26658821105957,176.27722191810608,176.42525696754456,176.42525696754456,176.42525696754456,176.42525696754456,176.42525696754456,176.42525696754456,176.42525696754456,177.06251740455627,2,0.7678472995758057,None,,,,,,,,,,,,,,,,,,217,2,2025-03-07_13h28.47.884,comp,2024.2.4,57.71467021497637,2025-03-07 13h29.01.018803 -0500,
81,81,0,catch,None,None,None,None,None,None,None,None,None,None,2,0.829984188079834,None,,,,,0,0,0,0,0,81,81,121,177.07954692840576,,,,,,,,,,,,,,,,,,,,,,,,,,,,,,,,,,,,,,,,,,,,,,,,,,,,,,,,,,,,,,,,,,,,,,,,,,,,,,,,,124,66,153,172,102,88,1.0,1.1,-695,288,-480,253,-254,262,177.06436944007874,177.06444549560547,177.06845545768738,177.07954692840576,177.22640681266785,177.22640681266785,177.22640681266785,177.22640681266785,177.22640681266785,177.22640681266785,177.22640681266785,177.91366624832153,2,0.829984188079834,None,,,,,,,,,,,,,,,,,,217,2,2025-03-07_13h28.47.884,comp,2024.2.4,57.71467021497637,2025-03-07 13h29.01.018803 -0500,
82,82,0,critical,dwh,35.0,2.1,upper,127.0,127.0,125.0,200.0,200.0,125.0,2,0.8839552402496338,None,,,,,0,0,0,0,0,82,82,5,177.9290943145752,,,,,,,,,,,,,,,,,,,,,,,,,,,,,,,,,,,,,,,,,,,,,,,,,,,,,,,,,,,,,,,,,,,,,,,,,,,,,,,,,127.0,127.0,125.0,200.0,200.0,125.0,2.1,2.11,-260,279,0,274,258,-255,177.91523456573486,177.9153094291687,177.91837859153748,177.9290943145752,178.08164644241333,178.08164644241333,178.08164644241333,178.08164644241333,178.08164644241333,178.08164644241333,178.08164644241333,178.822265625,2,0.8839552402496338,None,,,,,,,,,,,,,,,,,,217,2,2025-03-07_13h28.47.884,comp,2024.2.4,57.71467021497637,2025-03-07 13h29.01.018803 -0500,
83,83,0,filler_random,None,None,None,None,None,None,None,None,None,None,3,1.4316449165344238,None,,,,,0,0,0,0,0,83,83,137,178.83754658699036,,,,,,,,,,,,,,,,,,,,,,,,,,,,,,,,,,,,,,,,,,,,,,,,,,,,,,,,,,,,,,,,,,,,,,,,,,,,,,,,,188.91749947784274,173.95972685886022,114.43957222956479,111.7192223471591,181.26811450984417,197.70377493341297,1.0,1.2,-239,2,0,15,251,-10,178.8238549232483,178.82392930984497,178.8266978263855,178.83754658699036,178.97736048698425,178.97736048698425,178.97736048698425,178.97736048698425,178.97736048698425,178.97736048698425,178.97736048698425,180.28600335121155,3,1.4316449165344238,None,,,,,,,,,,,,,,,,,,217,2,2025-03-07_13h28.47.884,comp,2024.2.4,57.71467021497637,2025-03-07 13h29.01.018803 -0500,
84,84,0,critical,whd,20.0,1.0,upper,125.0,200.0,200.0,125.0,141.0,141.0,1,0.888209342956543,None,,,,,0,0,0,0,0,84,84,91,180.30151391029358,,,,,,,,,,,,,,,,,,,,,,,,,,,,,,,,,,,,,,,,,,,,,,,,,,,,,,,,,,,,,,,,,,,,,,,,,,,,,,,,,125.0,200.0,200.0,125.0,141.0,141.0,1.0,1.2,-258,20,0,13,229,16,180.28747701644897,180.28754997253418,180.29035902023315,180.30151391029358,180.445720911026,180.445720911026,180.445720911026,180.445720911026,180.445720911026,180.445720911026,180.445720911026,181.19821619987488,1,0.888209342956543,None,,,,,,,,,,,,,,,,,,217,2,2025-03-07_13h28.47.884,comp,2024.2.4,57.71467021497637,2025-03-07 13h29.01.018803 -0500,
85,85,0,filler_square,None,None,None,None,None,None,None,None,None,None,2,1.544529914855957,None,,,,,0,0,0,0,0,85,85,192,181.21405053138733,,,,,,,,,,,,,,,,,,,,,,,,,,,,,,,,,,,,,,,,,,,,,,,,,,,,,,,,,,,,,,,,,,,,,,,,,,,,,,,,,59.67836225585647,58.428245295987594,71.08499226361361,71.08499226361361,61.44857570524181,64.2262679528072,4.0,4.1,-161,-269,0,-1,164,-264,181.20005917549133,181.2001349925995,181.20335388183594,181.21405053138733,181.35611391067505,181.35611391067505,181.35611391067505,181.35611391067505,181.35611391067505,181.35611391067505,181.35611391067505,182.76604008674622,2,1.544529914855957,None,,,,,,,,,,,,,,,,,,217,2,2025-03-07_13h28.47.884,comp,2024.2.4,57.71467021497637,2025-03-07 13h29.01.018803 -0500,
86,86,0,critical,dhw,20.0,3.0,upper,141.0,141.0,200.0,125.0,125.0,200.0,3,1.9598064422607422,None,,,,,0,0,0,0,0,86,86,57,182.78183722496033,,,,,,,,,,,,,,,,,,,,,,,,,,,,,,,,,,,,,,,,,,,,,,,,,,,,,,,,,,,,,,,,,,,,,,,,,,,,,,,,,141.0,141.0,200.0,125.0,125.0,200.0,3.0,3.1,-229,275,0,-10,258,-286,182.76759219169617,182.76766657829285,182.77094221115112,182.78183722496033,182.93100357055664,182.93100357055664,182.93100357055664,182.93100357055664,182.93100357055664,182.93100357055664,182.93100357055664,184.74766206741333,3,1.9598064422607422,None,,,,,,,,,,,,,,,,,,217,2,2025-03-07_13h28.47.884,comp,2024.2.4,57.71467021497637,2025-03-07 13h29.01.018803 -0500,
87,87,0,filler_random,None,None,None,None,None,None,None,None,None,None,2,2.696023464202881,None,,,,,0,0,0,0,0,87,87,143,184.76561498641968,,,,,,,,,,,,,,,,,,,,,,,,,,,,,,,,,,,,,,,,,,,,,,,,,,,,,,,,,,,,,,,,,,,,,,,,,,,,,,,,,196.11881588920537,106.62014303394234,187.28947738543184,114.79420058618291,94.51029255000985,178.10054342328078,1.0,1.1,-687,251,-480,282,-238,262,184.74933457374573,184.7494089603424,184.75252294540405,184.76561498641968,184.9236752986908,184.9236752986908,184.9236752986908,184.9236752986908,184.9236752986908,184.9236752986908,184.9236752986908,187.46791911125183,2,2.696023464202881,None,,,,,,,,,,,,,,,,,,217,2,2025-03-07_13h28.47.884,comp,2024.2.4,57.71467021497637,2025-03-07 13h29.01.018803 -0500,
88,88,0,critical,dhw,20.0,2.1,upper,141.0,141.0,200.0,125.0,125.0,200.0,3,1.4810025691986084,None,,,,,0,0,0,0,0,88,88,27,187.484717130661,,,,,,,,,,,,,,,,,,,,,,,,,,,,,,,,,,,,,,,,,,,,,,,,,,,,,,,,,,,,,,,,,,,,,,,,,,,,,,,,,141.0,141.0,200.0,125.0,125.0,200.0,2.1,2.12,-229,-263,0,-269,258,281,187.46959972381592,187.4696798324585,187.47309374809265,187.484717130661,187.6332790851593,187.6332790851593,187.6332790851593,187.6332790851593,187.6332790851593,187.6332790851593,187.6332790851593,188.97251987457275,3,1.4810025691986084,None,,,,,,,,,,,,,,,,,,217,2,2025-03-07_13h28.47.884,comp,2024.2.4,57.71467021497637,2025-03-07 13h29.01.018803 -0500,
89,89,0,critical,dwh,35.0,4.0,lower,70.0,70.0,57.0,133.0,133.0,57.0,2,1.46537184715271,None,,,,,0,0,0,0,0,89,89,64,188.9878170490265,,,,,,,,,,,,,,,,,,,,,,,,,,,,,,,,,,,,,,,,,,,,,,,,,,,,,,,,,,,,,,,,,,,,,,,,,,,,,,,,,70.0,70.0,57.0,133.0,133.0,57.0,4.0,4.2,-198,-4,0,-257,191,-6,188.97400879859924,188.9740858078003,188.976895570755,188.9878170490265,189.13599038124084,189.13599038124084,189.13599038124084,189.13599038124084,189.13599038124084,189.13599038124084,189.13599038124084,190.47205233573914,2,1.46537184715271,None,,,,,,,,,,,,,,,,,,217,2,2025-03-07_13h28.47.884,comp,2024.2.4,57.71467021497637,2025-03-07 13h29.01.018803 -0500,
90,90,0,critical,dwh,35.0,3.0,lower,70.0,70.0,57.0,133.0,133.0,57.0,3,1.0846953392028809,None,,,,,0,0,0,0,0,90,90,62,190.48906254768372,,,,,,,,,,,,,,,,,,,,,,,,,,,,,,,,,,,,,,,,,,,,,,,,,,,,,,,,,,,,,,,,,,,,,,,,,,,,,,,,,70.0,70.0,57.0,133.0,133.0,57.0,3.0,3.1,-198,254,0,17,191,-256,190.47352242469788,190.4735939502716,190.47644352912903,190.48906254768372,190.63158988952637,190.63158988952637,190.63158988952637,190.63158988952637,190.63158988952637,190.63158988952637,190.63158988952637,191.58352780342102,3,1.0846953392028809,None,,,,,,,,,,,,,,,,,,217,2,2025-03-07_13h28.47.884,comp,2024.2.4,57.71467021497637,2025-03-07 13h29.01.018803 -0500,
91,91,0,critical,hwd,20.0,2.1,lower,133.0,57.0,57.0,133.0,78.0,78.0,1,0.9900906085968018,None,,,,,0,0,0,0,0,91,91,42,191.5989363193512,,,,,,,,,,,,,,,,,,,,,,,,,,,,,,,,,,,,,,,,,,,,,,,,,,,,,,,,,,,,,,,,,,,,,,,,,,,,,,,,,133.0,57.0,57.0,133.0,78.0,78.0,2.1,2.11,-191,269,0,271,202,-273,191.5849838256836,191.5850625038147,191.58836126327515,191.5989363193512,191.75058007240295,191.75058007240295,191.75058007240295,191.75058007240295,191.75058007240295,191.75058007240295,191.75058007240295,192.60272121429443,1,0.9900906085968018,None,,,,,,,,,,,,,,,,,,217,2,2025-03-07_13h28.47.884,comp,2024.2.4,57.71467021497637,2025-03-07 13h29.01.018803 -0500,
92,92,0,critical,wdh,20.0,2.1,upper,125.0,200.0,141.0,141.0,200.0,125.0,1,1.190953016281128,None,,,,,0,0,0,0,0,92,92,35,192.62241554260254,,,,,,,,,,,,,,,,,,,,,,,,,,,,,,,,,,,,,,,,,,,,,,,,,,,,,,,,,,,,,,,,,,,,,,,,,,,,,,,,,125.0,200.0,141.0,141.0,200.0,125.0,2.1,2.11,-266,271,0,278,229,-284,192.6043508052826,192.60442686080933,192.60764694213867,192.62241554260254,192.76972723007202,192.76972723007202,192.76972723007202,192.76972723007202,192.76972723007202,192.76972723007202,192.76972723007202,193.8167736530304,1,1.190953016281128,None,,,,,,,,,,,,,,,,,,217,2,2025-03-07_13h28.47.884,comp,2024.2.4,57.71467021497637,2025-03-07 13h29.01.018803 -0500,
93,93,0,filler_random,None,None,None,None,None,None,None,None,None,None,3,1.0042402744293213,None,,,,,0,0,0,0,0,93,93,161,193.83286094665527,,,,,,,,,,,,,,,,,,,,,,,,,,,,,,,,,,,,,,,,,,,,,,,,,,,,,,,,,,,,,,,,,,,,,,,,,,,,,,,,,111.45697413143537,104.85740837132838,60.315986737735656,162.5623813959071,106.58279552656114,173.73842215797347,1.0,1.2,-230,-5,0,7,264,-11,193.81840562820435,193.81848096847534,193.82127237319946,193.83286094665527,193.98308634757996,193.98308634757996,193.98308634757996,193.98308634757996,193.98308634757996,193.98308634757996,193.98308634757996,194.851083278656,3,1.0042402744293213,None,,,,,,,,,,,,,,,,,,217,2,2025-03-07_13h28.47.884,comp,2024.2.4,57.71467021497637,2025-03-07 13h29.01.018803 -0500,
94,94,0,filler_random,None,None,None,None,None,None,None,None,None,None,1,1.137986183166504,None,,,,,0,0,0,0,0,94,94,135,194.86706590652466,,,,,,,,,,,,,,,,,,,,,,,,,,,,,,,,,,,,,,,,,,,,,,,,,,,,,,,,,,,,,,,,,,,,,,,,,,,,,,,,,118.56052636584826,195.81864884884297,84.89125005691828,88.77531536914046,114.17849363026258,161.30788659988457,2.1,2.12,-238,-250,0,-261,221,288,194.85295701026917,194.85307955741882,194.85637974739075,194.86706590652466,195.01988196372986,195.01988196372986,195.01988196372986,195.01988196372986,195.01988196372986,195.01988196372986,195.01988196372986,196.0174024105072,1,1.137986183166504,None,,,,,,,,,,,,,,,,,,217,2,2025-03-07_13h28.47.884,comp,2024.2.4,57.71467021497637,2025-03-07 13h29.01.018803 -0500,
95,95,0,filler_random,None,None,None,None,None,None,None,None,None,None,1,1.0515120029449463,None,,,,,0,0,0,0,0,95,95,166,196.04152703285217,,,,,,,,,,,,,,,,,,,,,,,,,,,,,,,,,,,,,,,,,,,,,,,,,,,,,,,,,,,,,,,,,,,,,,,,,,,,,,,,,162.75224414135297,145.90768510287725,81.1631163893207,186.8748914370451,178.6403759442319,59.65087110074084,1.0,1.3,218,-279,480,-252,699,-265,196.01902508735657,196.01909637451172,196.02199792861938,196.04152703285217,196.185049533844,196.185049533844,196.185049533844,196.185049533844,196.185049533844,196.185049533844,196.185049533844,197.10372185707092,1,1.0515120029449463,None,,,,,,,,,,,,,,,,,,217,2,2025-03-07_13h28.47.884,comp,2024.2.4,57.71467021497637,2025-03-07 13h29.01.018803 -0500,
96,96,0,critical,dhw,35.0,1.0,lower,70.0,70.0,133.0,57.0,57.0,133.0,2,1.2535369396209717,None,,,,,0,0,0,0,0,96,96,48,197.120454788208,,,,,,,,,,,,,,,,,,,,,,,,,,,,,,,,,,,,,,,,,,,,,,,,,,,,,,,,,,,,,,,,,,,,,,,,,,,,,,,,,70.0,70.0,133.0,57.0,57.0,133.0,1.0,1.1,-640,253,-480,252,-289,277,197.10537910461426,197.10547828674316,197.10884404182434,197.120454788208,197.26847743988037,197.26847743988037,197.26847743988037,197.26847743988037,197.26847743988037,197.26847743988037,197.26847743988037,198.38866782188416,2,1.2535369396209717,None,,,,,,,,,,,,,,,,,,217,2,2025-03-07_13h28.47.884,comp,2024.2.4,57.71467021497637,2025-03-07 13h29.01.018803 -0500,
97,97,0,critical,hwd,20.0,4.0,upper,200.0,125.0,125.0,200.0,141.0,141.0,2,1.132246971130371,None,,,,,0,0,0,0,0,97,97,107,198.408784866333,,,,,,,,,,,,,,,,,,,,,,,,,,,,,,,,,,,,,,,,,,,,,,,,,,,,,,,,,,,,,,,,,,,,,,,,,,,,,,,,,200.0,125.0,125.0,200.0,141.0,141.0,4.0,4.2,-258,14,0,-284,266,1,198.39070343971252,198.39078068733215,198.39359545707703,198.408784866333,198.5519256591797,198.5519256591797,198.5519256591797,198.5519256591797,198.5519256591797,198.5519256591797,198.5519256591797,199.55086016654968,2,1.132246971130371,None,,,,,,,,,,,,,,,,,,217,2,2025-03-07_13h28.47.884,comp,2024.2.4,57.71467021497637,2025-03-07 13h29.01.018803 -0500,
98,98,0,critical,dhw,35.0,3.0,upper,127.0,127.0,200.0,125.0,125.0,200.0,2,1.2295236587524414,None,,,,,0,0,0,0,0,98,98,51,199.56752157211304,,,,,,,,,,,,,,,,,,,,,,,,,,,,,,,,,,,,,,,,,,,,,,,,,,,,,,,,,,,,,,,,,,,,,,,,,,,,,,,,,127.0,127.0,200.0,125.0,125.0,200.0,3.0,3.1,-222,286,0,6,258,-252,199.55241227149963,199.55248713493347,199.55569553375244,199.56752157211304,199.71928429603577,199.71928429603577,199.71928429603577,199.71928429603577,199.71928429603577,199.71928429603577,199.71928429603577,200.80851674079895,2,1.2295236587524414,None,,,,,,,,,,,,,,,,,,217,2,2025-03-07_13h28.47.884,comp,2024.2.4,57.71467021497637,2025-03-07 13h29.01.018803 -0500,
99,99,0,critical,whd,35.0,2.1,lower,57.0,133.0,133.0,57.0,70.0,70.0,2,2.0223989486694336,None,,,,,0,0,0,0,0,99,99,12,200.82256770133972,,,,,,,,,,,,,,,,,,,,,,,,,,,,,,,,,,,,,,,,,,,,,,,,,,,,,,,,,,,,,,,,,,,,,,,,,,,,,,,,,57.0,133.0,133.0,57.0,70.0,70.0,2.1,2.11,-191,253,0,276,160,-251,200.8099365234375,200.81003046035767,200.8127965927124,200.82256770133972,200.96988606452942,200.96988606452942,200.96988606452942,200.96988606452942,200.96988606452942,200.96988606452942,200.96988606452942,202.85488772392273,2,2.0223989486694336,None,,,,,,,,,,,,,,,,,,217,2,2025-03-07_13h28.47.884,comp,2024.2.4,57.71467021497637,2025-03-07 13h29.01.018803 -0500,
100,100,0,filler_random,None,None,None,None,None,None,None,None,None,None,3,0.8717508316040039,None,,,,,0,0,0,0,0,100,100,158,202.8692762851715,,,,,,,,,,,,,,,,,,,,,,,,,,,,,,,,,,,,,,,,,,,,,,,,,,,,,,,,,,,,,,,,,,,,,,,,,,,,,,,,,182.51091305239123,131.5916494309385,88.60137598860678,69.47827592294031,169.13437219076354,141.9853731512954,1.0,1.1,-677,256,-480,277,-278,285,202.8565764427185,202.85668444633484,202.859787940979,202.8692762851715,203.02904057502747,203.02904057502747,203.02904057502747,203.02904057502747,203.02904057502747,203.02904057502747,203.02904057502747,203.75417375564575,3,0.8717508316040039,None,,,,,,,,,,,,,,,,,,217,2,2025-03-07_13h28.47.884,comp,2024.2.4,57.71467021497637,2025-03-07 13h29.01.018803 -0500,
101,101,0,catch,None,None,None,None,None,None,None,None,None,None,3,0.8278181552886963,None,,,,,0,0,0,0,0,101,101,127,203.769757270813,,,,,,,,,,,,,,,,,,,,,,,,,,,,,,,,,,,,,,,,,,,,,,,,,,,,,,,,,,,,,,,,,,,,,,,,,,,,,,,,,128,62,125,65,144,181,2.2,2.21,-160,-262,0,290,219,274,203.7560477256775,203.75612378120422,203.759437084198,203.769757270813,203.9206690788269,203.9206690788269,203.9206690788269,203.9206690788269,203.9206690788269,203.9206690788269,203.9206690788269,204.60657501220703,3,0.8278181552886963,None,,,,,,,,,,,,,,,,,,217,2,2025-03-07_13h28.47.884,comp,2024.2.4,57.71467021497637,2025-03-07 13h29.01.018803 -0500,
102,102,0,catch,None,None,None,None,None,None,None,None,None,None,3,0.7395410537719727,None,,,,,0,0,0,0,0,102,102,120,204.62551712989807,,,,,,,,,,,,,,,,,,,,,,,,,,,,,,,,,,,,,,,,,,,,,,,,,,,,,,,,,,,,,,,,,,,,,,,,,,,,,,,,,132,58,70,120,145,180,3.0,3.2,-185,-274,0,16,246,257,204.6086733341217,204.60875153541565,204.61246585845947,204.62551712989807,204.77937150001526,204.77937150001526,204.77937150001526,204.77937150001526,204.77937150001526,204.77937150001526,204.77937150001526,205.37569189071655,3,0.7395410537719727,None,,,,,,,,,,,,,,,,,,217,2,2025-03-07_13h28.47.884,comp,2024.2.4,57.71467021497637,2025-03-07 13h29.01.018803 -0500,
103,103,0,filler_square,None,None,None,None,None,None,None,None,None,None,2,0.9491872787475586,None,,,,,0,0,0,0,0,103,103,199,205.39189767837524,,,,,,,,,,,,,,,,,,,,,,,,,,,,,,,,,,,,,,,,,,,,,,,,,,,,,,,,,,,,,,,,,,,,,,,,,,,,,,,,,84.5760321319708,86.49538409482744,107.82856824910174,107.82856824910174,104.24217845529817,60.188762024506886,2.2,2.22,-193,283,0,-290,180,-281,205.37744092941284,205.3775188922882,205.3803791999817,205.39189767837524,205.53799080848694,205.53799080848694,205.53799080848694,205.53799080848694,205.53799080848694,205.53799080848694,205.53799080848694,206.3545298576355,2,0.9491872787475586,None,,,,,,,,,,,,,,,,,,217,2,2025-03-07_13h28.47.884,comp,2024.2.4,57.71467021497637,2025-03-07 13h29.01.018803 -0500,
104,104,0,critical,hwd,35.0,1.0,lower,133.0,57.0,57.0,133.0,70.0,70.0,2,2.490067481994629,None,,,,,0,0,0,0,0,104,104,96,206.3710265159607,,,,,,,,,,,,,,,,,,,,,,,,,,,,,,,,,,,,,,,,,,,,,,,,,,,,,,,,,,,,,,,,,,,,,,,,,,,,,,,,,133.0,57.0,57.0,133.0,70.0,70.0,1.0,1.2,-191,-8,0,-5,198,-8,206.35601019859314,206.35608625411987,206.35933113098145,206.3710265159607,206.52088689804077,206.52088689804077,206.52088689804077,206.52088689804077,206.52088689804077,206.52088689804077,206.52088689804077,208.87500476837158,2,2.490067481994629,None,,,,,,,,,,,,,,,,,,217,2,2025-03-07_13h28.47.884,comp,2024.2.4,57.71467021497637,2025-03-07 13h29.01.018803 -0500,
105,105,0,filler_square,None,None,None,None,None,None,None,None,None,None,2,0.9310178756713867,None,,,,,0,0,0,0,0,105,105,187,208.89061164855957,,,,,,,,,,,,,,,,,,,,,,,,,,,,,,,,,,,,,,,,,,,,,,,,,,,,,,,,,,,,,,,,,,,,,,,,,,,,,,,,,84.6323231444203,166.88020834770165,186.18066116508876,186.18066116508876,88.7150256650948,119.11849075888132,2.2,2.21,-273,-250,0,264,249,259,208.87752175331116,208.87759923934937,208.88041067123413,208.89061164855957,209.03828740119934,209.03828740119934,209.03828740119934,209.03828740119934,209.03828740119934,209.03828740119934,209.03828740119934,209.82388281822205,2,0.9310178756713867,None,,,,,,,,,,,,,,,,,,217,2,2025-03-07_13h28.47.884,comp,2024.2.4,57.71467021497637,2025-03-07 13h29.01.018803 -0500,
106,106,0,critical,wdh,35.0,1.0,upper,125.0,200.0,127.0,127.0,200.0,125.0,1,1.1331171989440918,None,,,,,0,0,0,0,0,106,106,73,209.84054517745972,,,,,,,,,,,,,,,,,,,,,,,,,,,,,,,,,,,,,,,,,,,,,,,,,,,,,,,,,,,,,,,,,,,,,,,,,,,,,,,,,125.0,200.0,127.0,127.0,200.0,125.0,1.0,1.1,-740,256,-480,266,-258,257,209.82540249824524,209.82548213005066,209.82886910438538,209.84054517745972,209.98921990394592,209.98921990394592,209.98921990394592,209.98921990394592,209.98921990394592,209.98921990394592,209.98921990394592,210.97669887542725,1,1.1331171989440918,None,,,,,,,,,,,,,,,,,,217,2,2025-03-07_13h28.47.884,comp,2024.2.4,57.71467021497637,2025-03-07 13h29.01.018803 -0500,
107,107,0,filler_square,None,None,None,None,None,None,None,None,None,None,2,1.1693475246429443,None,,,,,0,0,0,0,0,107,107,203,210.99670267105103,,,,,,,,,,,,,,,,,,,,,,,,,,,,,,,,,,,,,,,,,,,,,,,,,,,,,,,,,,,,,,,,,,,,,,,,,,,,,,,,,168.0769143803455,80.04504241179262,179.66616426001235,179.66616426001235,144.71095956841623,150.12646384281624,4.0,4.1,-226,-289,0,-12,261,-286,210.97860527038574,210.97873902320862,210.9817566871643,210.99670267105103,211.14219284057617,211.14219284057617,211.14219284057617,211.14219284057617,211.14219284057617,211.14219284057617,211.14219284057617,212.17265009880066,2,1.1693475246429443,None,,,,,,,,,,,,,,,,,,217,2,2025-03-07_13h28.47.884,comp,2024.2.4,57.71467021497637,2025-03-07 13h29.01.018803 -0500,
108,108,0,filler_random,None,None,None,None,None,None,None,None,None,None,2,1.175175666809082,None,,,,,0,0,0,0,0,108,108,154,212.1904845237732,,,,,,,,,,,,,,,,,,,,,,,,,,,,,,,,,,,,,,,,,,,,,,,,,,,,,,,,,,,,,,,,,,,,,,,,,,,,,,,,,146.53670765179842,69.75296473264406,118.98249473968659,167.51368704564118,195.3496072671851,61.129530721660494,3.0,3.2,-215,-275,0,8,210,266,212.1743185520172,212.17439436912537,212.17746543884277,212.1904845237732,212.34045314788818,212.34045314788818,212.34045314788818,212.34045314788818,212.34045314788818,212.34045314788818,212.34045314788818,213.37437343597412,2,1.175175666809082,None,,,,,,,,,,,,,,,,,,217,2,2025-03-07_13h28.47.884,comp,2024.2.4,57.71467021497637,2025-03-07 13h29.01.018803 -0500,
109,109,0,catch,None,None,None,None,None,None,None,None,None,None,2,0.8069932460784912,None,,,,,0,0,0,0,0,109,109,126,213.39016675949097,,,,,,,,,,,,,,,,,,,,,,,,,,,,,,,,,,,,,,,,,,,,,,,,,,,,,,,,,,,,,,,,,,,,,,,,,,,,,,,,,116,74,183,142,90,100,1.0,1.3,276,-286,480,-290,697,-288,213.3762550354004,213.37633275985718,213.37965083122253,213.39016675949097,213.5391252040863,213.5391252040863,213.5391252040863,213.5391252040863,213.5391252040863,213.5391252040863,213.5391252040863,214.20950365066528,2,0.8069932460784912,None,,,,,,,,,,,,,,,,,,217,2,2025-03-07_13h28.47.884,comp,2024.2.4,57.71467021497637,2025-03-07 13h29.01.018803 -0500,
110,110,0,filler_square,None,None,None,None,None,None,None,None,None,None,2,0.6331624984741211,None,,,,,0,0,0,0,0,110,110,176,214.22802424430847,,,,,,,,,,,,,,,,,,,,,,,,,,,,,,,,,,,,,,,,,,,,,,,,,,,,,,,,,,,,,,,,,,,,,,,,,,,,,,,,,116.02025603359957,99.7374180388976,173.1180729276337,173.1180729276337,82.0415163436225,62.79727662618661,2.2,2.21,-232,-271,0,282,214,273,214.2114131450653,214.2114918231964,214.2150948047638,214.22802424430847,214.37831354141235,214.37831354141235,214.37831354141235,214.37831354141235,214.37831354141235,214.37831354141235,214.37831354141235,214.8743772506714,2,0.6331624984741211,None,,,,,,,,,,,,,,,,,,217,2,2025-03-07_13h28.47.884,comp,2024.2.4,57.71467021497637,2025-03-07 13h29.01.018803 -0500,
111,111,0,critical,wdh,20.0,1.0,lower,57.0,133.0,78.0,78.0,133.0,57.0,1,1.6915018558502197,None,,,,,0,0,0,0,0,111,111,78,214.89005947113037,,,,,,,,,,,,,,,,,,,,,,,,,,,,,,,,,,,,,,,,,,,,,,,,,,,,,,,,,,,,,,,,,,,,,,,,,,,,,,,,,57.0,133.0,78.0,78.0,133.0,57.0,1.0,1.3,278,-265,480,-266,644,-287,214.87585186958313,214.8759241104126,214.8798382282257,214.89005947113037,215.03949093818665,215.03949093818665,215.03949093818665,215.03949093818665,215.03949093818665,215.03949093818665,215.03949093818665,216.5935378074646,1,1.6915018558502197,None,,,,,,,,,,,,,,,,,,217,2,2025-03-07_13h28.47.884,comp,2024.2.4,57.71467021497637,2025-03-07 13h29.01.018803 -0500,
112,112,0,critical,hdw,20.0,2.1,upper,200.0,125.0,141.0,141.0,125.0,200.0,1,1.2407855987548828,None,,,,,0,0,0,0,0,112,112,23,216.61302947998047,,,,,,,,,,,,,,,,,,,,,,,,,,,,,,,,,,,,,,,,,,,,,,,,,,,,,,,,,,,,,,,,,,,,,,,,,,,,,,,,,200.0,125.0,141.0,141.0,125.0,200.0,2.1,2.11,-229,286,0,273,266,-273,216.5953357219696,216.59546422958374,216.59854459762573,216.61302947998047,216.7586543560028,216.7586543560028,216.7586543560028,216.7586543560028,216.7586543560028,216.7586543560028,216.7586543560028,217.85900974273682,1,1.2407855987548828,None,,,,,,,,,,,,,,,,,,217,2,2025-03-07_13h28.47.884,comp,2024.2.4,57.71467021497637,2025-03-07 13h29.01.018803 -0500,
113,113,0,filler_square,None,None,None,None,None,None,None,None,None,None,2,1.8182094097137451,None,,,,,0,0,0,0,0,113,113,194,217.8748278617859,,,,,,,,,,,,,,,,,,,,,,,,,,,,,,,,,,,,,,,,,,,,,,,,,,,,,,,,,,,,,,,,,,,,,,,,,,,,,,,,,193.8375431923211,193.8375431923211,187.62210617971502,167.96953585284146,137.82062300360457,172.76862612961224,4.0,4.2,-277,14,0,-278,266,-2,217.86078524589539,217.8608615398407,217.86412072181702,217.8748278617859,218.02363538742065,218.02363538742065,218.02363538742065,218.02363538742065,218.02363538742065,218.02363538742065,218.02363538742065,219.70944261550903,2,1.8182094097137451,None,,,,,,,,,,,,,,,,,,217,2,2025-03-07_13h28.47.884,comp,2024.2.4,57.71467021497637,2025-03-07 13h29.01.018803 -0500,
114,114,0,critical,hdw,20.0,1.0,upper,200.0,125.0,141.0,141.0,125.0,200.0,1,1.312168836593628,None,,,,,0,0,0,0,0,114,114,115,219.72517156600952,,,,,,,,,,,,,,,,,,,,,,,,,,,,,,,,,,,,,,,,,,,,,,,,,,,,,,,,,,,,,,,,,,,,,,,,,,,,,,,,,200.0,125.0,141.0,141.0,125.0,200.0,1.0,1.3,251,-269,480,-259,746,-255,219.71107244491577,219.71114897727966,219.71461153030396,219.72517156600952,219.87911128997803,219.87911128997803,219.87911128997803,219.87911128997803,219.87911128997803,219.87911128997803,219.87911128997803,221.04285621643066,1,1.312168836593628,None,,,,,,,,,,,,,,,,,,217,2,2025-03-07_13h28.47.884,comp,2024.2.4,57.71467021497637,2025-03-07 13h29.01.018803 -0500,
115,115,0,critical,wdh,35.0,3.0,lower,57.0,133.0,70.0,70.0,133.0,57.0,3,1.4167561531066895,None,,,,,0,0,0,0,0,115,115,74,221.06030535697937,,,,,,,,,,,,,,,,,,,,,,,,,,,,,,,,,,,,,,,,,,,,,,,,,,,,,,,,,,,,,,,,,,,,,,,,,,,,,,,,,57.0,133.0,70.0,70.0,133.0,57.0,3.0,3.2,-198,-287,0,5,160,273,221.04438281059265,221.04445910453796,221.0473816394806,221.06030535697937,221.21010208129883,221.21010208129883,221.21010208129883,221.21010208129883,221.21010208129883,221.21010208129883,221.21010208129883,222.48163533210754,3,1.4167561531066895,None,,,,,,,,,,,,,,,,,,217,2,2025-03-07_13h28.47.884,comp,2024.2.4,57.71467021497637,2025-03-07 13h29.01.018803 -0500,
116,116,0,critical,dhw,35.0,3.0,lower,70.0,70.0,133.0,57.0,57.0,133.0,2,1.0123822689056396,None,,,,,0,0,0,0,0,116,116,50,222.4966266155243,,,,,,,,,,,,,,,,,,,,,,,,,,,,,,,,,,,,,,,,,,,,,,,,,,,,,,,,,,,,,,,,,,,,,,,,,,,,,,,,,70.0,70.0,133.0,57.0,57.0,133.0,3.0,3.1,-160,251,0,11,191,-255,222.48312425613403,222.48320126533508,222.48602724075317,222.4966266155243,222.64264273643494,222.64264273643494,222.64264273643494,222.64264273643494,222.64264273643494,222.64264273643494,222.64264273643494,223.5124785900116,2,1.0123822689056396,None,,,,,,,,,,,,,,,,,,217,2,2025-03-07_13h28.47.884,comp,2024.2.4,57.71467021497637,2025-03-07 13h29.01.018803 -0500,
117,117,0,critical,wdh,20.0,2.1,lower,57.0,133.0,78.0,78.0,133.0,57.0,1,1.0619304180145264,None,,,,,0,0,0,0,0,117,117,34,223.52780485153198,,,,,,,,,,,,,,,,,,,,,,,,,,,,,,,,,,,,,,,,,,,,,,,,,,,,,,,,,,,,,,,,,,,,,,,,,,,,,,,,,57.0,133.0,78.0,78.0,133.0,57.0,2.1,2.11,-202,272,0,285,164,-261,223.51407480239868,223.51417207717896,223.51727104187012,223.52780485153198,223.67560648918152,223.67560648918152,223.67560648918152,223.67560648918152,223.67560648918152,223.67560648918152,223.67560648918152,224.59708905220032,1,1.0619304180145264,None,,,,,,,,,,,,,,,,,,217,2,2025-03-07_13h28.47.884,comp,2024.2.4,57.71467021497637,2025-03-07 13h29.01.018803 -0500,
118,118,0,filler_square,None,None,None,None,None,None,None,None,None,None,3,2.3558707237243652,None,,,,,0,0,0,0,0,118,118,180,224.61738395690918,,,,,,,,,,,,,,,,,,,,,,,,,,,,,,,,,,,,,,,,,,,,,,,,,,,,,,,,,,,,,,,,,,,,,,,,,,,,,,,,,87.790913421088,97.21607449654499,108.54409418349985,115.81023904841247,116.59488887870396,116.59488887870396,2.2,2.21,-203,-285,0,289,212,280,224.59887719154358,224.59895586967468,224.60178875923157,224.61738395690918,224.76174187660217,224.76174187660217,224.76174187660217,224.76174187660217,224.76174187660217,224.76174187660217,224.76174187660217,226.97790908813477,3,2.3558707237243652,None,,,,,,,,,,,,,,,,,,217,2,2025-03-07_13h28.47.884,comp,2024.2.4,57.71467021497637,2025-03-07 13h29.01.018803 -0500,
119,119,0,critical,hwd,35.0,4.0,upper,200.0,125.0,125.0,200.0,127.0,127.0,1,0.9319570064544678,None,,,,,0,0,0,0,0,119,119,101,226.99359130859375,,,,,,,,,,,,,,,,,,,,,,,,,,,,,,,,,,,,,,,,,,,,,,,,,,,,,,,,,,,,,,,,,,,,,,,,,,,,,,,,,200.0,125.0,125.0,200.0,127.0,127.0,4.0,4.1,-258,-258,0,-3,260,-252,226.97944450378418,226.97952032089233,226.9828441143036,226.99359130859375,227.14485144615173,227.14485144615173,227.14485144615173,227.14485144615173,227.14485144615173,227.14485144615173,227.14485144615173,227.93031096458435,1,0.9319570064544678,None,,,,,,,,,,,,,,,,,,217,2,2025-03-07_13h28.47.884,comp,2024.2.4,57.71467021497637,2025-03-07 13h29.01.018803 -0500,
120,120,0,critical,hdw,35.0,4.0,lower,133.0,57.0,70.0,70.0,57.0,133.0,3,1.4599149227142334,None,,,,,0,0,0,0,0,120,120,112,227.94552779197693,,,,,,,,,,,,,,,,,,,,,,,,,,,,,,,,,,,,,,,,,,,,,,,,,,,,,,,,,,,,,,,,,,,,,,,,,,,,,,,,,133.0,57.0,70.0,70.0,57.0,133.0,4.0,4.2,-160,-1,0,-272,198,12,227.93180513381958,227.93188381195068,227.93479871749878,227.94552779197693,228.09248185157776,228.09248185157776,228.09248185157776,228.09248185157776,228.09248185157776,228.09248185157776,228.09248185157776,229.41571950912476,3,1.4599149227142334,None,,,,,,,,,,,,,,,,,,217,2,2025-03-07_13h28.47.884,comp,2024.2.4,57.71467021497637,2025-03-07 13h29.01.018803 -0500,
121,121,0,filler_random,None,None,None,None,None,None,None,None,None,None,3,1.0737667083740234,None,,,,,0,0,0,0,0,121,121,159,229.4352331161499,,,,,,,,,,,,,,,,,,,,,,,,,,,,,,,,,,,,,,,,,,,,,,,,,,,,,,,,,,,,,,,,,,,,,,,,,,,,,,,,,87.59422942025162,133.9514411609003,175.4419747053098,146.7976595196001,185.00163233019748,195.63723712528184,2.1,2.12,-236,-263,0,-269,267,260,229.41742587089539,229.41750407218933,229.42036962509155,229.4352331161499,229.57849955558777,229.57849955558777,229.57849955558777,229.57849955558777,229.57849955558777,229.57849955558777,229.57849955558777,230.51228046417236,3,1.0737667083740234,None,,,,,,,,,,,,,,,,,,217,2,2025-03-07_13h28.47.884,comp,2024.2.4,57.71467021497637,2025-03-07 13h29.01.018803 -0500,
122,122,0,critical,hwd,20.0,3.0,lower,133.0,57.0,57.0,133.0,78.0,78.0,2,1.3171231746673584,None,,,,,0,0,0,0,0,122,122,104,230.52790212631226,,,,,,,,,,,,,,,,,,,,,,,,,,,,,,,,,,,,,,,,,,,,,,,,,,,,,,,,,,,,,,,,,,,,,,,,,,,,,,,,,133.0,57.0,57.0,133.0,78.0,78.0,3.0,3.2,-191,-282,0,14,202,257,230.51383996009827,230.51391673088074,230.5172336101532,230.52790212631226,230.68064427375793,230.68064427375793,230.68064427375793,230.68064427375793,230.68064427375793,230.68064427375793,230.68064427375793,231.86182737350464,2,1.3171231746673584,None,,,,,,,,,,,,,,,,,,217,2,2025-03-07_13h28.47.884,comp,2024.2.4,57.71467021497637,2025-03-07 13h29.01.018803 -0500,
123,123,0,critical,dwh,20.0,2.1,lower,78.0,78.0,57.0,133.0,133.0,57.0,2,1.0828948020935059,None,,,,,0,0,0,0,0,123,123,6,231.88215160369873,,,,,,,,,,,,,,,,,,,,,,,,,,,,,,,,,,,,,,,,,,,,,,,,,,,,,,,,,,,,,,,,,,,,,,,,,,,,,,,,,78.0,78.0,57.0,133.0,133.0,57.0,2.1,2.11,-202,265,0,269,191,-270,231.8634376525879,231.8635127544403,231.86676836013794,231.88215160369873,232.029527425766,232.029527425766,232.029527425766,232.029527425766,232.029527425766,232.029527425766,232.029527425766,232.97903394699097,2,1.0828948020935059,None,,,,,,,,,,,,,,,,,,217,2,2025-03-07_13h28.47.884,comp,2024.2.4,57.71467021497637,2025-03-07 13h29.01.018803 -0500,
124,124,0,critical,dwh,20.0,1.0,upper,141.0,141.0,125.0,200.0,200.0,125.0,2,1.2884883880615234,None,,,,,0,0,0,0,0,124,124,67,232.99650049209595,,,,,,,,,,,,,,,,,,,,,,,,,,,,,,,,,,,,,,,,,,,,,,,,,,,,,,,,,,,,,,,,,,,,,,,,,,,,,,,,,141.0,141.0,125.0,200.0,200.0,125.0,1.0,1.3,214,-278,480,-277,738,-255,232.9805943965912,232.98066639900208,232.98385190963745,232.99650049209595,233.1487443447113,233.1487443447113,233.1487443447113,233.1487443447113,233.1487443447113,233.1487443447113,233.1487443447113,234.2948911190033,2,1.2884883880615234,None,,,,,,,,,,,,,,,,,,217,2,2025-03-07_13h28.47.884,comp,2024.2.4,57.71467021497637,2025-03-07 13h29.01.018803 -0500,
125,125,0,critical,whd,35.0,4.0,lower,57.0,133.0,133.0,57.0,70.0,70.0,2,0.9981162548065186,None,,,,,0,0,0,0,0,125,125,88,234.3112416267395,,,,,,,,,,,,,,,,,,,,,,,,,,,,,,,,,,,,,,,,,,,,,,,,,,,,,,,,,,,,,,,,,,,,,,,,,,,,,,,,,57.0,133.0,133.0,57.0,70.0,70.0,4.0,4.2,-191,-3,0,-288,160,-2,234.29646468162537,234.29654121398926,234.29973077774048,234.3112416267395,234.44686365127563,234.44686365127563,234.44686365127563,234.44686365127563,234.44686365127563,234.44686365127563,234.44686365127563,235.31274700164795,2,0.9981162548065186,None,,,,,,,,,,,,,,,,,,217,2,2025-03-07_13h28.47.884,comp,2024.2.4,57.71467021497637,2025-03-07 13h29.01.018803 -0500,
126,126,0,critical,dwh,20.0,2.1,upper,141.0,141.0,125.0,200.0,200.0,125.0,2,1.4442577362060547,None,,,,,0,0,0,0,0,126,126,7,235.32879328727722,,,,,,,,,,,,,,,,,,,,,,,,,,,,,,,,,,,,,,,,,,,,,,,,,,,,,,,,,,,,,,,,,,,,,,,,,,,,,,,,,141.0,141.0,125.0,200.0,200.0,125.0,2.1,2.12,-266,-268,0,-259,258,284,235.31424045562744,235.31431460380554,235.3172960281372,235.32879328727722,235.4811294078827,235.4811294078827,235.4811294078827,235.4811294078827,235.4811294078827,235.4811294078827,235.4811294078827,236.77902626991272,2,1.4442577362060547,None,,,,,,,,,,,,,,,,,,217,2,2025-03-07_13h28.47.884,comp,2024.2.4,57.71467021497637,2025-03-07 13h29.01.018803 -0500,
127,127,0,critical,hdw,35.0,2.1,upper,200.0,125.0,127.0,127.0,125.0,200.0,1,1.237489938735962,None,,,,,0,0,0,0,0,127,127,21,236.7996485233307,,,,,,,,,,,,,,,,,,,,,,,,,,,,,,,,,,,,,,,,,,,,,,,,,,,,,,,,,,,,,,,,,,,,,,,,,,,,,,,,,200.0,125.0,127.0,127.0,125.0,200.0,2.1,2.11,-222,266,0,285,260,-252,236.7805814743042,236.78065705299377,236.7838773727417,236.7996485233307,236.94831228256226,236.94831228256226,236.94831228256226,236.94831228256226,236.94831228256226,236.94831228256226,236.94831228256226,238.0563449859619,1,1.237489938735962,None,,,,,,,,,,,,,,,,,,217,2,2025-03-07_13h28.47.884,comp,2024.2.4,57.71467021497637,2025-03-07 13h29.01.018803 -0500,
128,128,0,filler_random,None,None,None,None,None,None,None,None,None,None,1,1.0835065841674805,None,,,,,0,0,0,0,0,128,128,141,238.0741322040558,,,,,,,,,,,,,,,,,,,,,,,,,,,,,,,,,,,,,,,,,,,,,,,,,,,,,,,,,,,,,,,,,,,,,,,,,,,,,,,,,147.2423221895,180.4418406151754,107.54952153457177,176.66463798705468,119.52116173351997,58.497626161911754,3.0,3.2,-275,-288,0,3,214,290,238.05806922912598,238.05814361572266,238.06140875816345,238.0741322040558,238.21428227424622,238.21428227424622,238.21428227424622,238.21428227424622,238.21428227424622,238.21428227424622,238.21428227424622,239.16534686088562,1,1.0835065841674805,None,,,,,,,,,,,,,,,,,,217,2,2025-03-07_13h28.47.884,comp,2024.2.4,57.71467021497637,2025-03-07 13h29.01.018803 -0500,
129,129,0,critical,hdw,20.0,3.0,upper,200.0,125.0,141.0,141.0,125.0,200.0,3,1.240401029586792,None,,,,,0,0,0,0,0,129,129,117,239.1808226108551,,,,,,,,,,,,,,,,,,,,,,,,,,,,,,,,,,,,,,,,,,,,,,,,,,,,,,,,,,,,,,,,,,,,,,,,,,,,,,,,,200.0,125.0,141.0,141.0,125.0,200.0,3.0,3.1,-229,288,0,7,266,-265,239.1667983531952,239.1668722629547,239.1701729297638,239.1808226108551,239.3315794467926,239.3315794467926,239.3315794467926,239.3315794467926,239.3315794467926,239.3315794467926,239.3315794467926,240.43135929107666,3,1.240401029586792,None,,,,,,,,,,,,,,,,,,217,2,2025-03-07_13h28.47.884,comp,2024.2.4,57.71467021497637,2025-03-07 13h29.01.018803 -0500,
130,130,0,critical,dhw,20.0,4.0,lower,78.0,78.0,133.0,57.0,57.0,133.0,2,0.8337795734405518,None,,,,,0,0,0,0,0,130,130,58,240.45134329795837,,,,,,,,,,,,,,,,,,,,,,,,,,,,,,,,,,,,,,,,,,,,,,,,,,,,,,,,,,,,,,,,,,,,,,,,,,,,,,,,,78.0,78.0,133.0,57.0,57.0,133.0,4.0,4.2,-164,3,0,-288,191,6,240.43278193473816,240.43285584449768,240.43584823608398,240.45134329795837,240.59920620918274,240.59920620918274,240.59920620918274,240.59920620918274,240.59920620918274,240.59920620918274,240.59920620918274,241.29886436462402,2,0.8337795734405518,None,,,,,,,,,,,,,,,,,,217,2,2025-03-07_13h28.47.884,comp,2024.2.4,57.71467021497637,2025-03-07 13h29.01.018803 -0500,
131,131,0,critical,dhw,20.0,3.0,lower,78.0,78.0,133.0,57.0,57.0,133.0,2,0.8664681911468506,None,,,,,0,0,0,0,0,131,131,56,241.3152391910553,,,,,,,,,,,,,,,,,,,,,,,,,,,,,,,,,,,,,,,,,,,,,,,,,,,,,,,,,,,,,,,,,,,,,,,,,,,,,,,,,78.0,78.0,133.0,57.0,57.0,133.0,3.0,3.1,-164,261,0,-16,191,-250,241.30049228668213,241.30056643486023,241.30405163764954,241.3152391910553,241.46382188796997,241.46382188796997,241.46382188796997,241.46382188796997,241.46382188796997,241.46382188796997,241.46382188796997,242.1861960887909,2,0.8664681911468506,None,,,,,,,,,,,,,,,,,,217,2,2025-03-07_13h28.47.884,comp,2024.2.4,57.71467021497637,2025-03-07 13h29.01.018803 -0500,
132,132,0,critical,dwh,35.0,3.0,upper,127.0,127.0,125.0,200.0,200.0,125.0,1,0.3630044460296631,None,,,,,0,0,0,0,0,132,132,63,242.20203351974487,,,,,,,,,,,,,,,,,,,,,,,,,,,,,,,,,,,,,,,,,,,,,,,,,,,,,,,,,,,,,,,,,,,,,,,,,,,,,,,,,127.0,127.0,125.0,200.0,200.0,125.0,3.0,3.2,-260,-264,0,-5,258,271,242.18794417381287,242.18806791305542,242.1913514137268,242.20203351974487,242.3530876636505,242.3530876636505,242.3530876636505,242.3530876636505,242.3530876636505,242.3530876636505,242.3530876636505,242.56714916229248,1,0.3630044460296631,None,,,,,,,,,,,,,,,,,,217,2,2025-03-07_13h28.47.884,comp,2024.2.4,57.71467021497637,2025-03-07 13h29.01.018803 -0500,
133,133,0,filler_random,None,None,None,None,None,None,None,None,None,None,1,1.1337864398956299,None,,,,,0,0,0,0,0,133,133,133,242.58319354057312,,,,,,,,,,,,,,,,,,,,,,,,,,,,,,,,,,,,,,,,,,,,,,,,,,,,,,,,,,,,,,,,,,,,,,,,,,,,,,,,,190.6411982904182,67.51485772776374,136.14157053254257,168.66760463504176,125.96391609647479,114.46133465611362,1.0,1.1,-694,254,-480,264,-242,278,242.5689034461975,242.56904768943787,242.57251048088074,242.58319354057312,242.73566031455994,242.73566031455994,242.73566031455994,242.73566031455994,242.73566031455994,242.73566031455994,242.73566031455994,243.73298621177673,1,1.1337864398956299,None,,,,,,,,,,,,,,,,,,217,2,2025-03-07_13h28.47.884,comp,2024.2.4,57.71467021497637,2025-03-07 13h29.01.018803 -0500,
134,134,0,filler_square,None,None,None,None,None,None,None,None,None,None,2,1.0743927955627441,None,,,,,0,0,0,0,0,134,134,186,243.7484471797943,,,,,,,,,,,,,,,,,,,,,,,,,,,,,,,,,,,,,,,,,,,,,,,,,,,,,,,,,,,,,,,,,,,,,,,,,,,,,,,,,59.82907833337448,57.06815890249817,141.80670056404398,141.80670056404398,62.82715309318747,104.15527242839296,2.1,2.12,-195,-259,0,-284,219,254,243.73478436470032,243.7348597049713,243.73798155784607,243.7484471797943,243.89866662025452,243.89866662025452,243.89866662025452,243.89866662025452,243.89866662025452,243.89866662025452,243.89866662025452,244.82966828346252,2,1.0743927955627441,None,,,,,,,,,,,,,,,,,,217,2,2025-03-07_13h28.47.884,comp,2024.2.4,57.71467021497637,2025-03-07 13h29.01.018803 -0500,
135,135,0,filler_random,None,None,None,None,None,None,None,None,None,None,2,1.2311537265777588,None,,,,,0,0,0,0,0,135,135,139,244.84578347206116,,,,,,,,,,,,,,,,,,,,,,,,,,,,,,,,,,,,,,,,,,,,,,,,,,,,,,,,,,,,,,,,,,,,,,,,,,,,,,,,,109.37278715385966,150.56179579612132,182.7146810809224,162.7511793874822,153.97342613035593,162.69214953143114,2.2,2.21,-253,-282,0,257,259,260,244.8314757347107,244.8315510749817,244.83435821533203,244.84578347206116,244.98404502868652,244.98404502868652,244.98404502868652,244.98404502868652,244.98404502868652,244.98404502868652,244.98404502868652,246.08614039421082,2,1.2311537265777588,None,,,,,,,,,,,,,,,,,,217,2,2025-03-07_13h28.47.884,comp,2024.2.4,57.71467021497637,2025-03-07 13h29.01.018803 -0500,
136,136,0,filler_random,None,None,None,None,None,None,None,None,None,None,1,0.8389205932617188,None,,,,,0,0,0,0,0,136,136,144,246.10234999656677,,,,,,,,,,,,,,,,,,,,,,,,,,,,,,,,,,,,,,,,,,,,,,,,,,,,,,,,,,,,,,,,,,,,,,,,,,,,,,,,,184.95710440126,195.6885125688756,190.15314516208815,68.94954862405712,176.82679748061673,191.96654505017432,2.1,2.11,-228,277,0,265,226,-253,246.0878963470459,246.08801198005676,246.0917410850525,246.10234999656677,246.25706672668457,246.25706672668457,246.25706672668457,246.25706672668457,246.25706672668457,246.25706672668457,246.25706672668457,246.9542956352234,1,0.8389205932617188,None,,,,,,,,,,,,,,,,,,217,2,2025-03-07_13h28.47.884,comp,2024.2.4,57.71467021497637,2025-03-07 13h29.01.018803 -0500,
137,137,0,critical,hwd,35.0,2.1,upper,200.0,125.0,125.0,200.0,127.0,127.0,1,1.154484510421753,None,,,,,0,0,0,0,0,137,137,41,246.97046995162964,,,,,,,,,,,,,,,,,,,,,,,,,,,,,,,,,,,,,,,,,,,,,,,,,,,,,,,,,,,,,,,,,,,,,,,,,,,,,,,,,200.0,125.0,125.0,200.0,127.0,127.0,2.1,2.11,-258,288,0,278,260,-288,246.95589065551758,246.9559977054596,246.95928597450256,246.97046995162964,247.11752343177795,247.11752343177795,247.11752343177795,247.11752343177795,247.11752343177795,247.11752343177795,247.11752343177795,248.1369869709015,1,1.154484510421753,None,,,,,,,,,,,,,,,,,,217,2,2025-03-07_13h28.47.884,comp,2024.2.4,57.71467021497637,2025-03-07 13h29.01.018803 -0500,
138,138,0,critical,hdw,35.0,2.1,lower,133.0,57.0,70.0,70.0,57.0,133.0,3,1.2322638034820557,None,,,,,0,0,0,0,0,138,138,44,248.15667819976807,,,,,,,,,,,,,,,,,,,,,,,,,,,,,,,,,,,,,,,,,,,,,,,,,,,,,,,,,,,,,,,,,,,,,,,,,,,,,,,,,133.0,57.0,70.0,70.0,57.0,133.0,2.1,2.11,-160,280,0,274,198,-277,248.13858652114868,248.138662815094,248.14153456687927,248.15667819976807,248.3014576435089,248.3014576435089,248.3014576435089,248.3014576435089,248.3014576435089,248.3014576435089,248.3014576435089,249.40482783317566,3,1.2322638034820557,None,,,,,,,,,,,,,,,,,,217,2,2025-03-07_13h28.47.884,comp,2024.2.4,57.71467021497637,2025-03-07 13h29.01.018803 -0500,
