thisN,thisTrialN,thisRepN,effect,order,distance,config,diag,h_1,w_1,h_2,w_2,h_3,w_3,rect_choice.keys,rect_choice.rt,rect_choice.duration,instructions_loop.thisRepN,instructions_loop.thisTrialN,instructions_loop.thisN,instructions_loop.thisIndex,blocks.thisRepN,blocks.thisTrialN,blocks.thisN,blocks.thisIndex,trials.thisRepN,trials.thisTrialN,trials.thisN,trials.thisIndex,thisRow.t,notes,consent.started,agree_button.started,decline_button.started,consent_img.started,mouse.started,consent.stopped,agree_button.numClicks,agree_button.timesOn,agree_button.timesOff,decline_button.numClicks,decline_button.timesOn,decline_button.timesOff,mouse.x,mouse.y,mouse.leftButton,mouse.midButton,mouse.rightButton,mouse.time,mouse.clicked_name,exp_params.started,exp_params.stopped,welcome.started,welcome_text.started,welcome.stopped,instructions_1.started,instructions_1_text_1.started,instructions_1_text_2.started,key_resp.started,instructions_1.stopped,instructions_loop.key_resp.keys,instructions_loop.key_resp.rt,instructions_loop.key_resp.duration,instructions_2.started,instructions_2_text_1.started,instructions_2_text_2.started,key_resp_2.started,instructions_2.stopped,instructions_loop.key_resp_2.keys,instructions_loop.key_resp_2.rt,instructions_loop.key_resp_2.duration,instructions_3.started,instructions_3_text_1.started,r1_instr3.started,r2_instr3.started,r3_instr3.started,r1_instr3_label.started,r2_instr3_label.started,r3_instr3_label.started,instructions_3_text_3.started,instructions_3_text_4.started,key_resp_3.started,instructions_3.stopped,instructions_loop.key_resp_3.keys,instructions_loop.key_resp_3.rt,instructions_loop.key_resp_3.duration,instructions_4.started,instructions_4_text_1.started,instructions_4_text_3.started,instructions_4_text_2.started,key_resp_4.started,instructions_4.stopped,instructions_loop.key_resp_4.keys,instructions_loop.key_resp_4.rt,instructions_loop.key_resp_4.duration,instructions_5.started,instructions_5_text_1.started,instructions_5_text_2.started,key_resp_5.started,instructions_5.stopped,instructions_loop.key_resp_5.keys,instructions_loop.key_resp_5.rt,instructions_loop.key_resp_5.duration,start_exp.started,start_exp_text.started,key_resp_6.started,start_exp.stopped,key_resp_6.keys,key_resp_6.rt,key_resp_6.duration,h_1_tmp,w_1_tmp,h_2_tmp,w_2_tmp,h_3_tmp,w_3_tmp,config_tmp,config_tmp_1,r_1_x,r_1_y,r_2_x,r_2_y,r_3_x,r_3_y,pre_trial.started,pre_trial.stopped,choice_trial.started,rect_choice.started,r_1.started,r_2.started,r_3.started,r_1_label.started,r_2_label.started,r_3_label.started,prompt.started,choice_trial.stopped,trials.rect_choice.keys,trials.rect_choice.rt,trials.rect_choice.duration,end_block.started,end_block_text.started,end_block.stopped,end.started,end_text.started,key_resp_7.started,end.stopped,key_resp_7.keys,key_resp_7.rt,key_resp_7.duration,debriefing.started,debrief_form.started,end_debrief.started,debriefing.stopped,end_debrief.keys,end_debrief.rt,end_debrief.duration,participant,computer,date,expName,psychopyVersion,frameRate,expStart,
,,,,,,,,,,,,,,,,,,,,,,,,,,,,,,,0.014781951904296875,0.038504838943481445,0.038504838943481445,0.038504838943481445,0.01459193229675293,46.649717807769775,1,[46.6085045337677],[46.608526945114136],0,,,[-93.0],[-515.0],[1],[0],[0],[46.63434648513794],['agree_button'],,,,,,,,,,,,,,,,,,,,,,,,,,,,,,,,,,,,,,,,,,,,,,,,,,,,,,,,,,,,,,,,,,,,,,,,,,,,,,,,,,,,,,,,,,,,,,,,,,,,,,,,,,,218,1,2025-03-07_14h54.43.351,comp,2024.2.4,56.86760056185564,2025-03-07 14h55.07.298581 -0500,
,,,,,,,,,,,,,,,,,,,,,,,,,,,,,,,,,,,,,,,,,,,,,,,,,,46.65035390853882,46.650420904159546,,,,,,,,,,,,,,,,,,,,,,,,,,,,,,,,,,,,,,,,,,,,,,,,,,,,,,,,,,,,,,,,,,,,,,,,,,,,,,,,,,,,,,,,,,,,,,,,,,,,,,,,,218,1,2025-03-07_14h54.43.351,comp,2024.2.4,56.86760056185564,2025-03-07 14h55.07.298581 -0500,
,,,,,,,,,,,,,,,,,,,,,,,,,,,,,,,,,,,,,,,,,,,,,,,,,,,,46.65046501159668,46.66874408721924,48.66615080833435,,,,,,,,,,,,,,,,,,,,,,,,,,,,,,,,,,,,,,,,,,,,,,,,,,,,,,,,,,,,,,,,,,,,,,,,,,,,,,,,,,,,,,,,,,,,,,,,,,,,,,218,1,2025-03-07_14h54.43.351,comp,2024.2.4,56.86760056185564,2025-03-07 14h55.07.298581 -0500,
0,0,0,,,,,,,,,,,,,,,0,0,0,0,,,,,,,,,48.68667674064636,,,,,,,,,,,,,,,,,,,,,,,,,,48.667060136795044,48.68667674064636,48.68667674064636,50.15121006965637,54.0883207321167,space,3.9223618507385254,None,54.088464975357056,54.10372042655945,54.10372042655945,55.60160541534424,67.12466335296631,space,11.512388229370117,None,67.12481212615967,67.15500950813293,67.15500950813293,67.15500950813293,67.15500950813293,67.15500950813293,67.15500950813293,67.15500950813293,67.15500950813293,67.15500950813293,68.63851881027222,73.21851229667664,space,4.563021421432495,None,73.21866631507874,73.23772835731506,73.23772835731506,73.23772835731506,74.72666597366333,81.91131281852722,space,7.179513692855835,None,81.911465883255,81.93139576911926,81.93139576911926,83.41459465026855,85.44599080085754,space,2.019087314605713,None,85.44618582725525,85.46484613418579,85.46484613418579,87.91311955451965,space,2.44143009185791,None,,,,,,,,,,,,,,,,,,,,,,,,,,,,,,,,,,,,,,,,,,,,,,,218,1,2025-03-07_14h54.43.351,comp,2024.2.4,56.86760056185564,2025-03-07 14h55.07.298581 -0500,
0,0,0,filler_square,None,None,None,None,None,None,None,None,None,None,2,4.730315446853638,None,,,,,0,0,0,0,0,0,0,172,87.9913558959961,,,,,,,,,,,,,,,,,,,,,,,,,,,,,,,,,,,,,,,,,,,,,,,,,,,,,,,,,,,,,,,,,,,,,,,,,,,,,,,,,65.45050325259216,74.3026212779353,75.61887288934132,75.61887288934132,59.050704621399284,64.00997639071673,1.0,1.1,-651,288,-480,282,-314,270,87.9745180606842,87.97457146644592,87.97636842727661,87.9913558959961,88.14026618003845,88.14026618003845,88.14026618003845,88.14026618003845,88.14026618003845,88.14026618003845,88.14026618003845,92.73162317276001,2,4.730315446853638,None,,,,,,,,,,,,,,,,,,218,1,2025-03-07_14h54.43.351,comp,2024.2.4,56.86760056185564,2025-03-07 14h55.07.298581 -0500,
1,1,0,filler_square,None,None,None,None,None,None,None,None,None,None,3,4.7104878425598145,None,,,,,0,0,0,0,0,1,1,206,92.74805021286011,,,,,,,,,,,,,,,,,,,,,,,,,,,,,,,,,,,,,,,,,,,,,,,,,,,,,,,,,,,,,,,,,,,,,,,,,,,,,,,,,83.66521219028337,96.19210047977214,94.98228272139708,75.4154326165183,106.1511032632414,106.1511032632414,2.1,2.11,-182,275,0,258,187,-287,92.73340177536011,92.73347997665405,92.73650240898132,92.74805021286011,92.90441870689392,92.90441870689392,92.90441870689392,92.90441870689392,92.90441870689392,92.90441870689392,92.90441870689392,97.46597123146057,3,4.7104878425598145,None,,,,,,,,,,,,,,,,,,218,1,2025-03-07_14h54.43.351,comp,2024.2.4,56.86760056185564,2025-03-07 14h55.07.298581 -0500,
2,2,0,critical,hdw,20.0,2.1,upper,200.0,125.0,141.0,141.0,125.0,200.0,1,4.0475075244903564,None,,,,,0,0,0,0,0,2,2,23,97.48295331001282,,,,,,,,,,,,,,,,,,,,,,,,,,,,,,,,,,,,,,,,,,,,,,,,,,,,,,,,,,,,,,,,,,,,,,,,,,,,,,,,,200.0,125.0,141.0,141.0,125.0,200.0,2.1,2.12,-229,-289,0,-280,266,264,97.46751689910889,97.46759057044983,97.47083950042725,97.48295331001282,97.61814880371094,97.61814880371094,97.61814880371094,97.61814880371094,97.61814880371094,97.61814880371094,97.61814880371094,101.5366621017456,1,4.0475075244903564,None,,,,,,,,,,,,,,,,,,218,1,2025-03-07_14h54.43.351,comp,2024.2.4,56.86760056185564,2025-03-07 14h55.07.298581 -0500,
3,3,0,critical,hdw,35.0,2.1,upper,200.0,125.0,127.0,127.0,125.0,200.0,1,3.272458791732788,None,,,,,0,0,0,0,0,3,3,21,101.55308556556702,,,,,,,,,,,,,,,,,,,,,,,,,,,,,,,,,,,,,,,,,,,,,,,,,,,,,,,,,,,,,,,,,,,,,,,,,,,,,,,,,200.0,125.0,127.0,127.0,125.0,200.0,2.1,2.12,-222,-265,0,-271,260,263,101.53841161727905,101.5385491847992,101.54196786880493,101.55308556556702,101.69212126731873,101.69212126731873,101.69212126731873,101.69212126731873,101.69212126731873,101.69212126731873,101.69212126731873,104.836669921875,1,3.272458791732788,None,,,,,,,,,,,,,,,,,,218,1,2025-03-07_14h54.43.351,comp,2024.2.4,56.86760056185564,2025-03-07 14h55.07.298581 -0500,
4,4,0,filler_random,None,None,None,None,None,None,None,None,None,None,3,5.612237215042114,None,,,,,0,0,0,0,0,4,4,153,104.85404229164124,,,,,,,,,,,,,,,,,,,,,,,,,,,,,,,,,,,,,,,,,,,,,,,,,,,,,,,,,,,,,,,,,,,,,,,,,,,,,,,,,146.15184198771158,63.08465984617845,117.94951575486333,61.70789533978755,73.7403195874671,113.05601998673549,1.0,1.2,-158,8,0,-17,183,8,104.83834791183472,104.83841919898987,104.8416337966919,104.85404229164124,105.00726985931396,105.00726985931396,105.00726985931396,105.00726985931396,105.00726985931396,105.00726985931396,105.00726985931396,110.46984004974365,3,5.612237215042114,None,,,,,,,,,,,,,,,,,,218,1,2025-03-07_14h54.43.351,comp,2024.2.4,56.86760056185564,2025-03-07 14h55.07.298581 -0500,
5,5,0,critical,dwh,35.0,4.0,lower,70.0,70.0,57.0,133.0,133.0,57.0,2,6.099554538726807,None,,,,,0,0,0,0,0,5,5,64,110.48614382743835,,,,,,,,,,,,,,,,,,,,,,,,,,,,,,,,,,,,,,,,,,,,,,,,,,,,,,,,,,,,,,,,,,,,,,,,,,,,,,,,,70.0,70.0,57.0,133.0,133.0,57.0,4.0,4.2,-198,10,0,-267,191,-5,110.47132515907288,110.47139978408813,110.4742534160614,110.48614382743835,110.62349033355713,110.62349033355713,110.62349033355713,110.62349033355713,110.62349033355713,110.62349033355713,110.62349033355713,116.59005737304688,2,6.099554538726807,None,,,,,,,,,,,,,,,,,,218,1,2025-03-07_14h54.43.351,comp,2024.2.4,56.86760056185564,2025-03-07 14h55.07.298581 -0500,
6,6,0,filler_square,None,None,None,None,None,None,None,None,None,None,3,3.883237600326538,None,,,,,0,0,0,0,0,6,6,200,116.60659170150757,,,,,,,,,,,,,,,,,,,,,,,,,,,,,,,,,,,,,,,,,,,,,,,,,,,,,,,,,,,,,,,,,,,,,,,,,,,,,,,,,119.93305359501709,158.00289552644915,132.82199517553948,139.45465517054882,160.02724115270837,160.02724115270837,3.0,3.2,-245,-265,0,-7,246,252,116.5920262336731,116.5921323299408,116.59548330307007,116.60659170150757,116.75768613815308,116.75768613815308,116.75768613815308,116.75768613815308,116.75768613815308,116.75768613815308,116.75768613815308,120.49207520484924,3,3.883237600326538,None,,,,,,,,,,,,,,,,,,218,1,2025-03-07_14h54.43.351,comp,2024.2.4,56.86760056185564,2025-03-07 14h55.07.298581 -0500,
7,7,0,critical,dwh,20.0,2.1,lower,78.0,78.0,57.0,133.0,133.0,57.0,2,5.4280009269714355,None,,,,,0,0,0,0,0,7,7,6,120.5100040435791,,,,,,,,,,,,,,,,,,,,,,,,,,,,,,,,,,,,,,,,,,,,,,,,,,,,,,,,,,,,,,,,,,,,,,,,,,,,,,,,,78.0,78.0,57.0,133.0,133.0,57.0,2.1,2.11,-202,270,0,281,191,-257,120.49358081817627,120.49365878105164,120.49669289588928,120.5100040435791,120.66463494300842,120.66463494300842,120.66463494300842,120.66463494300842,120.66463494300842,120.66463494300842,120.66463494300842,125.94202733039856,2,5.4280009269714355,None,,,,,,,,,,,,,,,,,,218,1,2025-03-07_14h54.43.351,comp,2024.2.4,56.86760056185564,2025-03-07 14h55.07.298581 -0500,
8,8,0,filler_square,None,None,None,None,None,None,None,None,None,None,3,3.3836581707000732,None,,,,,0,0,0,0,0,8,8,182,125.96200132369995,,,,,,,,,,,,,,,,,,,,,,,,,,,,,,,,,,,,,,,,,,,,,,,,,,,,,,,,,,,,,,,,,,,,,,,,,,,,,,,,,142.4078706758654,121.8017121660143,101.24704962961053,125.40681197965003,147.2954718988109,147.2954718988109,3.0,3.1,-220,285,0,-12,232,-286,125.9438328742981,125.94393491744995,125.94695687294006,125.96200132369995,126.10884475708008,126.10884475708008,126.10884475708008,126.10884475708008,126.10884475708008,126.10884475708008,126.10884475708008,129.3606481552124,3,3.3836581707000732,None,,,,,,,,,,,,,,,,,,218,1,2025-03-07_14h54.43.351,comp,2024.2.4,56.86760056185564,2025-03-07 14h55.07.298581 -0500,
9,9,0,critical,dwh,20.0,3.0,upper,141.0,141.0,125.0,200.0,200.0,125.0,2,2.769139051437378,None,,,,,0,0,0,0,0,9,9,69,129.37659811973572,,,,,,,,,,,,,,,,,,,,,,,,,,,,,,,,,,,,,,,,,,,,,,,,,,,,,,,,,,,,,,,,,,,,,,,,,,,,,,,,,141.0,141.0,125.0,200.0,200.0,125.0,3.0,3.2,-266,-268,0,-14,258,252,129.36217737197876,129.36225032806396,129.36516785621643,129.37659811973572,129.53064370155334,129.53064370155334,129.53064370155334,129.53064370155334,129.53064370155334,129.53064370155334,129.53064370155334,132.1649067401886,2,2.769139051437378,None,,,,,,,,,,,,,,,,,,218,1,2025-03-07_14h54.43.351,comp,2024.2.4,56.86760056185564,2025-03-07 14h55.07.298581 -0500,
10,10,0,critical,dhw,20.0,1.0,upper,141.0,141.0,200.0,125.0,125.0,200.0,2,6.97067666053772,None,,,,,0,0,0,0,0,10,10,55,132.18300366401672,,,,,,,,,,,,,,,,,,,,,,,,,,,,,,,,,,,,,,,,,,,,,,,,,,,,,,,,,,,,,,,,,,,,,,,,,,,,,,,,,141.0,141.0,200.0,125.0,125.0,200.0,1.0,1.1,-709,271,-480,252,-222,263,132.1667239665985,132.16685128211975,132.1699321269989,132.18300366401672,132.32800197601318,132.32800197601318,132.32800197601318,132.32800197601318,132.32800197601318,132.32800197601318,132.32800197601318,139.16681504249573,2,6.97067666053772,None,,,,,,,,,,,,,,,,,,218,1,2025-03-07_14h54.43.351,comp,2024.2.4,56.86760056185564,2025-03-07 14h55.07.298581 -0500,
11,11,0,filler_random,None,None,None,None,None,None,None,None,None,None,2,1.8556416034698486,None,,,,,0,0,0,0,0,11,11,141,139.18601512908936,,,,,,,,,,,,,,,,,,,,,,,,,,,,,,,,,,,,,,,,,,,,,,,,,,,,,,,,,,,,,,,,,,,,,,,,,,,,,,,,,70.70516667528885,115.85062165576805,171.29724689402946,87.0899467971864,104.28831000231166,65.49607640544218,1.0,1.3,283,-275,480,-264,652,-283,139.16883826255798,139.16894841194153,139.17228841781616,139.18601512908936,139.32958221435547,139.32958221435547,139.32958221435547,139.32958221435547,139.32958221435547,139.32958221435547,139.32958221435547,141.05509114265442,2,1.8556416034698486,None,,,,,,,,,,,,,,,,,,218,1,2025-03-07_14h54.43.351,comp,2024.2.4,56.86760056185564,2025-03-07 14h55.07.298581 -0500,
12,12,0,critical,hwd,20.0,4.0,upper,200.0,125.0,125.0,200.0,141.0,141.0,2,4.352986574172974,None,,,,,0,0,0,0,0,12,12,107,141.07276034355164,,,,,,,,,,,,,,,,,,,,,,,,,,,,,,,,,,,,,,,,,,,,,,,,,,,,,,,,,,,,,,,,,,,,,,,,,,,,,,,,,200.0,125.0,125.0,200.0,141.0,141.0,4.0,4.2,-258,8,0,-275,266,17,141.05658078193665,141.0566601753235,141.05950927734375,141.07276034355164,141.21632957458496,141.21632957458496,141.21632957458496,141.21632957458496,141.21632957458496,141.21632957458496,141.21632957458496,145.44195246696472,2,4.352986574172974,None,,,,,,,,,,,,,,,,,,218,1,2025-03-07_14h54.43.351,comp,2024.2.4,56.86760056185564,2025-03-07 14h55.07.298581 -0500,
13,13,0,filler_random,None,None,None,None,None,None,None,None,None,None,1,3.6849963665008545,None,,,,,0,0,0,0,0,13,13,148,145.46105408668518,,,,,,,,,,,,,,,,,,,,,,,,,,,,,,,,,,,,,,,,,,,,,,,,,,,,,,,,,,,,,,,,,,,,,,,,,,,,,,,,,148.6910563798852,122.39225638137607,179.1409855658949,88.7423554167724,106.69825744682876,103.84834190328031,1.0,1.2,-202,9,0,12,192,-1,145.4436092376709,145.44369196891785,145.44651865959167,145.46105408668518,145.60389280319214,145.60389280319214,145.60389280319214,145.60389280319214,145.60389280319214,145.60389280319214,145.60389280319214,149.14881920814514,1,3.6849963665008545,None,,,,,,,,,,,,,,,,,,218,1,2025-03-07_14h54.43.351,comp,2024.2.4,56.86760056185564,2025-03-07 14h55.07.298581 -0500,
14,14,0,critical,wdh,20.0,4.0,upper,125.0,200.0,141.0,141.0,200.0,125.0,1,6.900802373886108,None,,,,,0,0,0,0,0,14,14,83,149.165274143219,,,,,,,,,,,,,,,,,,,,,,,,,,,,,,,,,,,,,,,,,,,,,,,,,,,,,,,,,,,,,,,,,,,,,,,,,,,,,,,,,125.0,200.0,141.0,141.0,200.0,125.0,4.0,4.2,-266,15,0,-272,229,18,149.15030431747437,149.1503779888153,149.1532437801361,149.165274143219,149.31970620155334,149.31970620155334,149.31970620155334,149.31970620155334,149.31970620155334,149.31970620155334,149.31970620155334,156.0681505203247,1,6.900802373886108,None,,,,,,,,,,,,,,,,,,218,1,2025-03-07_14h54.43.351,comp,2024.2.4,56.86760056185564,2025-03-07 14h55.07.298581 -0500,
15,15,0,critical,whd,20.0,3.0,upper,125.0,200.0,200.0,125.0,141.0,141.0,1,2.9130637645721436,None,,,,,0,0,0,0,0,15,15,93,156.08860325813293,,,,,,,,,,,,,,,,,,,,,,,,,,,,,,,,,,,,,,,,,,,,,,,,,,,,,,,,,,,,,,,,,,,,,,,,,,,,,,,,,125.0,200.0,200.0,125.0,141.0,141.0,3.0,3.2,-258,-264,0,-6,229,288,156.06980395317078,156.0699646472931,156.07352137565613,156.08860325813293,156.2215814590454,156.2215814590454,156.2215814590454,156.2215814590454,156.2215814590454,156.2215814590454,156.2215814590454,159.0037453174591,1,2.9130637645721436,None,,,,,,,,,,,,,,,,,,218,1,2025-03-07_14h54.43.351,comp,2024.2.4,56.86760056185564,2025-03-07 14h55.07.298581 -0500,
16,16,0,critical,dhw,35.0,1.0,upper,127.0,127.0,200.0,125.0,125.0,200.0,2,5.286180019378662,None,,,,,0,0,0,0,0,16,16,49,159.01953411102295,,,,,,,,,,,,,,,,,,,,,,,,,,,,,,,,,,,,,,,,,,,,,,,,,,,,,,,,,,,,,,,,,,,,,,,,,,,,,,,,,127.0,127.0,200.0,125.0,125.0,200.0,1.0,1.1,-702,288,-480,287,-222,251,159.00530195236206,159.00537729263306,159.0087113380432,159.01953411102295,159.17651343345642,159.17651343345642,159.17651343345642,159.17651343345642,159.17651343345642,159.17651343345642,159.17651343345642,164.3093614578247,2,5.286180019378662,None,,,,,,,,,,,,,,,,,,218,1,2025-03-07_14h54.43.351,comp,2024.2.4,56.86760056185564,2025-03-07 14h55.07.298581 -0500,
17,17,0,critical,wdh,35.0,4.0,lower,57.0,133.0,70.0,70.0,133.0,57.0,1,5.027170896530151,None,,,,,0,0,0,0,0,17,17,76,164.32747840881348,,,,,,,,,,,,,,,,,,,,,,,,,,,,,,,,,,,,,,,,,,,,,,,,,,,,,,,,,,,,,,,,,,,,,,,,,,,,,,,,,57.0,133.0,70.0,70.0,133.0,57.0,4.0,4.2,-198,18,0,-277,160,14,164.31095480918884,164.31103205680847,164.31424856185913,164.32747840881348,164.47179627418518,164.47179627418518,164.47179627418518,164.47179627418518,164.47179627418518,164.47179627418518,164.47179627418518,169.36078786849976,1,5.027170896530151,None,,,,,,,,,,,,,,,,,,218,1,2025-03-07_14h54.43.351,comp,2024.2.4,56.86760056185564,2025-03-07 14h55.07.298581 -0500,
18,18,0,critical,hwd,35.0,1.0,lower,133.0,57.0,57.0,133.0,70.0,70.0,2,11.878445863723755,None,,,,,0,0,0,0,0,18,18,96,169.3791778087616,,,,,,,,,,,,,,,,,,,,,,,,,,,,,,,,,,,,,,,,,,,,,,,,,,,,,,,,,,,,,,,,,,,,,,,,,,,,,,,,,133.0,57.0,57.0,133.0,70.0,70.0,1.0,1.2,-191,-18,0,-12,198,1,169.36226749420166,169.36234211921692,169.36526226997375,169.3791778087616,169.52322793006897,169.52322793006897,169.52322793006897,169.52322793006897,169.52322793006897,169.52322793006897,169.52322793006897,181.26042580604553,2,11.878445863723755,None,,,,,,,,,,,,,,,,,,218,1,2025-03-07_14h54.43.351,comp,2024.2.4,56.86760056185564,2025-03-07 14h55.07.298581 -0500,
19,19,0,critical,dwh,35.0,2.1,lower,70.0,70.0,57.0,133.0,133.0,57.0,2,6.5893824100494385,None,,,,,0,0,0,0,0,19,19,28,181.27635407447815,,,,,,,,,,,,,,,,,,,,,,,,,,,,,,,,,,,,,,,,,,,,,,,,,,,,,,,,,,,,,,,,,,,,,,,,,,,,,,,,,70.0,70.0,57.0,133.0,133.0,57.0,2.1,2.12,-198,-282,0,-265,191,251,181.26189637184143,181.26204872131348,181.26550245285034,181.27635407447815,181.42603707313538,181.42603707313538,181.42603707313538,181.42603707313538,181.42603707313538,181.42603707313538,181.42603707313538,187.88296580314636,2,6.5893824100494385,None,,,,,,,,,,,,,,,,,,218,1,2025-03-07_14h54.43.351,comp,2024.2.4,56.86760056185564,2025-03-07 14h55.07.298581 -0500,
20,20,0,critical,hwd,35.0,2.1,upper,200.0,125.0,125.0,200.0,127.0,127.0,2,3.293029308319092,None,,,,,0,0,0,0,0,20,20,41,187.90059781074524,,,,,,,,,,,,,,,,,,,,,,,,,,,,,,,,,,,,,,,,,,,,,,,,,,,,,,,,,,,,,,,,,,,,,,,,,,,,,,,,,200.0,125.0,125.0,200.0,127.0,127.0,2.1,2.12,-258,-259,0,-260,260,273,187.8847532272339,187.88489055633545,187.88796830177307,187.90059781074524,188.04658436775208,188.04658436775208,188.04658436775208,188.04658436775208,188.04658436775208,188.04658436775208,188.04658436775208,191.19694709777832,2,3.293029308319092,None,,,,,,,,,,,,,,,,,,218,1,2025-03-07_14h54.43.351,comp,2024.2.4,56.86760056185564,2025-03-07 14h55.07.298581 -0500,
21,21,0,filler_random,None,None,None,None,None,None,None,None,None,None,1,4.204672813415527,None,,,,,0,0,0,0,0,21,21,165,191.21305084228516,,,,,,,,,,,,,,,,,,,,,,,,,,,,,,,,,,,,,,,,,,,,,,,,,,,,,,,,,,,,,,,,,,,,,,,,,,,,,,,,,136.3594970757919,151.3774473741841,171.43975647410304,60.246979195618785,156.30210619789796,90.2847791811292,2.2,2.22,-202,260,0,-266,171,-254,191.19870114326477,191.1987805366516,191.2020697593689,191.21305084228516,191.36379504203796,191.36379504203796,191.36379504203796,191.36379504203796,191.36379504203796,191.36379504203796,191.36379504203796,195.43184781074524,1,4.204672813415527,None,,,,,,,,,,,,,,,,,,218,1,2025-03-07_14h54.43.351,comp,2024.2.4,56.86760056185564,2025-03-07 14h55.07.298581 -0500,
22,22,0,filler_random,None,None,None,None,None,None,None,None,None,None,1,1.8909425735473633,None,,,,,0,0,0,0,0,22,22,130,195.4547746181488,,,,,,,,,,,,,,,,,,,,,,,,,,,,,,,,,,,,,,,,,,,,,,,,,,,,,,,,,,,,,,,,,,,,,,,,,,,,,,,,,141.64190047929395,164.31713419380748,95.77140969510239,60.54694212308125,115.13478667493398,188.07018458695498,1.0,1.1,-688,280,-480,255,-260,255,195.4337079524994,195.4338412284851,195.4372365474701,195.4547746181488,195.5973310470581,195.5973310470581,195.5973310470581,195.5973310470581,195.5973310470581,195.5973310470581,195.5973310470581,197.3484742641449,1,1.8909425735473633,None,,,,,,,,,,,,,,,,,,218,1,2025-03-07_14h54.43.351,comp,2024.2.4,56.86760056185564,2025-03-07 14h55.07.298581 -0500,
23,23,0,critical,dhw,35.0,4.0,lower,70.0,70.0,133.0,57.0,57.0,133.0,2,2.44538950920105,None,,,,,0,0,0,0,0,23,23,52,197.36435627937317,,,,,,,,,,,,,,,,,,,,,,,,,,,,,,,,,,,,,,,,,,,,,,,,,,,,,,,,,,,,,,,,,,,,,,,,,,,,,,,,,70.0,70.0,133.0,57.0,57.0,133.0,4.0,4.1,-160,-281,0,8,191,-268,197.35003304481506,197.3501636981964,197.35355424880981,197.36435627937317,197.51454305648804,197.51454305648804,197.51454305648804,197.51454305648804,197.51454305648804,197.51454305648804,197.51454305648804,199.82123708724976,2,2.44538950920105,None,,,,,,,,,,,,,,,,,,218,1,2025-03-07_14h54.43.351,comp,2024.2.4,56.86760056185564,2025-03-07 14h55.07.298581 -0500,
24,24,0,catch,None,None,None,None,None,None,None,None,None,None,1,1.5545940399169922,None,,,,,0,0,0,0,0,24,24,125,199.83982586860657,,,,,,,,,,,,,,,,,,,,,,,,,,,,,,,,,,,,,,,,,,,,,,,,,,,,,,,,,,,,,,,,,,,,,,,,,,,,,,,,,172,153,121,69,115,75,4.0,4.2,-207,4,0,-258,168,-14,199.8232798576355,199.82335782051086,199.82656407356262,199.83982586860657,199.984792470932,199.984792470932,199.984792470932,199.984792470932,199.984792470932,199.984792470932,199.984792470932,201.39963054656982,1,1.5545940399169922,None,,,,,,,,,,,,,,,,,,218,1,2025-03-07_14h54.43.351,comp,2024.2.4,56.86760056185564,2025-03-07 14h55.07.298581 -0500,
25,25,0,filler_square,None,None,None,None,None,None,None,None,None,None,1,1.1359038352966309,None,,,,,0,0,0,0,0,25,25,195,201.4180393218994,,,,,,,,,,,,,,,,,,,,,,,,,,,,,,,,,,,,,,,,,,,,,,,,,,,,,,,,,,,,,,,,,,,,,,,,,,,,,,,,,183.11421322203398,183.11421322203398,130.92080718303328,63.54230424260247,140.85471915656376,68.2784292217536,3.0,3.1,-219,271,0,13,162,-250,201.40145587921143,201.40158605575562,201.40473341941833,201.4180393218994,201.5680513381958,201.5680513381958,201.5680513381958,201.5680513381958,201.5680513381958,201.5680513381958,201.5680513381958,202.56714463233948,1,1.1359038352966309,None,,,,,,,,,,,,,,,,,,218,1,2025-03-07_14h54.43.351,comp,2024.2.4,56.86760056185564,2025-03-07 14h55.07.298581 -0500,
26,26,0,critical,hwd,35.0,3.0,upper,200.0,125.0,125.0,200.0,127.0,127.0,2,4.483587980270386,None,,,,,0,0,0,0,0,26,26,99,202.58285236358643,,,,,,,,,,,,,,,,,,,,,,,,,,,,,,,,,,,,,,,,,,,,,,,,,,,,,,,,,,,,,,,,,,,,,,,,,,,,,,,,,200.0,125.0,125.0,200.0,127.0,127.0,3.0,3.1,-258,287,0,1,260,-281,202.56876707077026,202.56884217262268,202.57238698005676,202.58285236358643,202.73368906974792,202.73368906974792,202.73368906974792,202.73368906974792,202.73368906974792,202.73368906974792,202.73368906974792,207.07084679603577,2,4.483587980270386,None,,,,,,,,,,,,,,,,,,218,1,2025-03-07_14h54.43.351,comp,2024.2.4,56.86760056185564,2025-03-07 14h55.07.298581 -0500,
27,27,0,filler_random,None,None,None,None,None,None,None,None,None,None,1,4.202512502670288,None,,,,,0,0,0,0,0,27,27,131,207.08743381500244,,,,,,,,,,,,,,,,,,,,,,,,,,,,,,,,,,,,,,,,,,,,,,,,,,,,,,,,,,,,,,,,,,,,,,,,,,,,,,,,,152.03718954097937,183.03756375802192,152.6771582590834,151.36286219004688,82.57025018372914,142.62428016204387,1.0,1.3,217,-260,480,-252,723,-288,207.07284092903137,207.07294845581055,207.07620859146118,207.08743381500244,207.2359459400177,207.2359459400177,207.2359459400177,207.2359459400177,207.2359459400177,207.2359459400177,207.2359459400177,211.30338788032532,1,4.202512502670288,None,,,,,,,,,,,,,,,,,,218,1,2025-03-07_14h54.43.351,comp,2024.2.4,56.86760056185564,2025-03-07 14h55.07.298581 -0500,
28,28,0,critical,dwh,20.0,4.0,upper,141.0,141.0,125.0,200.0,200.0,125.0,2,2.906524419784546,None,,,,,0,0,0,0,0,28,28,71,211.31942534446716,,,,,,,,,,,,,,,,,,,,,,,,,,,,,,,,,,,,,,,,,,,,,,,,,,,,,,,,,,,,,,,,,,,,,,,,,,,,,,,,,141.0,141.0,125.0,200.0,200.0,125.0,4.0,4.2,-266,11,0,-272,258,-20,211.30486845970154,211.30498552322388,211.30900835990906,211.31942534446716,211.46964621543884,211.46964621543884,211.46964621543884,211.46964621543884,211.46964621543884,211.46964621543884,211.46964621543884,214.237548828125,2,2.906524419784546,None,,,,,,,,,,,,,,,,,,218,1,2025-03-07_14h54.43.351,comp,2024.2.4,56.86760056185564,2025-03-07 14h55.07.298581 -0500,
29,29,0,filler_square,None,None,None,None,None,None,None,None,None,None,1,1.3865668773651123,None,,,,,0,0,0,0,0,29,29,175,214.25514030456543,,,,,,,,,,,,,,,,,,,,,,,,,,,,,,,,,,,,,,,,,,,,,,,,,,,,,,,,,,,,,,,,,,,,,,,,,,,,,,,,,196.5937442963962,196.5937442963962,179.85733114748916,90.73622722123952,114.34724085991705,143.61850241951134,1.0,1.3,240,-282,480,-254,693,-256,214.23943066596985,214.23951244354248,214.24347066879272,214.25514030456543,214.40569162368774,214.40569162368774,214.40569162368774,214.40569162368774,214.40569162368774,214.40569162368774,214.40569162368774,215.65495133399963,1,1.3865668773651123,None,,,,,,,,,,,,,,,,,,218,1,2025-03-07_14h54.43.351,comp,2024.2.4,56.86760056185564,2025-03-07 14h55.07.298581 -0500,
30,30,0,filler_random,None,None,None,None,None,None,None,None,None,None,3,2.101379871368408,None,,,,,0,0,0,0,0,30,30,147,215.66898155212402,,,,,,,,,,,,,,,,,,,,,,,,,,,,,,,,,,,,,,,,,,,,,,,,,,,,,,,,,,,,,,,,,,,,,,,,,,,,,,,,,148.47185955522502,179.8253525098242,98.30850916004732,136.096438482263,165.46951142846757,197.3009642690751,4.0,4.2,-254,-5,0,-260,263,11,215.65668606758118,215.65676522254944,215.6597192287445,215.66898155212402,215.82930612564087,215.82930612564087,215.82930612564087,215.82930612564087,215.82930612564087,215.82930612564087,215.82930612564087,217.79035305976868,3,2.101379871368408,None,,,,,,,,,,,,,,,,,,218,1,2025-03-07_14h54.43.351,comp,2024.2.4,56.86760056185564,2025-03-07 14h55.07.298581 -0500,
31,31,0,critical,hdw,20.0,2.1,lower,133.0,57.0,78.0,78.0,57.0,133.0,3,3.362992763519287,None,,,,,0,0,0,0,0,31,31,22,217.80751872062683,,,,,,,,,,,,,,,,,,,,,,,,,,,,,,,,,,,,,,,,,,,,,,,,,,,,,,,,,,,,,,,,,,,,,,,,,,,,,,,,,133.0,57.0,78.0,78.0,57.0,133.0,2.1,2.12,-164,-280,0,-256,202,273,217.79185724258423,217.79195952415466,217.79487323760986,217.80751872062683,217.95440697669983,217.95440697669983,217.95440697669983,217.95440697669983,217.95440697669983,217.95440697669983,217.95440697669983,221.17294239997864,3,3.362992763519287,None,,,,,,,,,,,,,,,,,,218,1,2025-03-07_14h54.43.351,comp,2024.2.4,56.86760056185564,2025-03-07 14h55.07.298581 -0500,
32,32,0,filler_random,None,None,None,None,None,None,None,None,None,None,1,1.4784278869628906,None,,,,,0,0,0,0,0,32,32,138,221.18806791305542,,,,,,,,,,,,,,,,,,,,,,,,,,,,,,,,,,,,,,,,,,,,,,,,,,,,,,,,,,,,,,,,,,,,,,,,,,,,,,,,,129.88231295155333,170.89662603678087,184.65951077749554,63.17322504161513,116.80593723057402,186.35554454674136,4.0,4.2,-213,10,0,-259,221,-8,221.17475819587708,221.17483973503113,221.17800617218018,221.18806791305542,221.34288716316223,221.34288716316223,221.34288716316223,221.34288716316223,221.34288716316223,221.34288716316223,221.34288716316223,222.67456603050232,1,1.4784278869628906,None,,,,,,,,,,,,,,,,,,218,1,2025-03-07_14h54.43.351,comp,2024.2.4,56.86760056185564,2025-03-07 14h55.07.298581 -0500,
33,33,0,filler_square,None,None,None,None,None,None,None,None,None,None,2,2.0792036056518555,None,,,,,0,0,0,0,0,33,33,184,222.69125771522522,,,,,,,,,,,,,,,,,,,,,,,,,,,,,,,,,,,,,,,,,,,,,,,,,,,,,,,,,,,,,,,,,,,,,,,,,,,,,,,,,124.95773523821447,119.44072969755324,134.0747746075358,134.0747746075358,63.31734622060884,106.60069686590433,2.2,2.22,-223,275,0,-277,216,-258,222.67665314674377,222.67673516273499,222.68020510673523,222.69125771522522,222.84020590782166,222.84020590782166,222.84020590782166,222.84020590782166,222.84020590782166,222.84020590782166,222.84020590782166,224.77457976341248,2,2.0792036056518555,None,,,,,,,,,,,,,,,,,,218,1,2025-03-07_14h54.43.351,comp,2024.2.4,56.86760056185564,2025-03-07 14h55.07.298581 -0500,
34,34,0,critical,hdw,35.0,1.0,upper,200.0,125.0,127.0,127.0,125.0,200.0,3,3.914614200592041,None,,,,,0,0,0,0,0,34,34,109,224.7912142276764,,,,,,,,,,,,,,,,,,,,,,,,,,,,,,,,,,,,,,,,,,,,,,,,,,,,,,,,,,,,,,,,,,,,,,,,,,,,,,,,,200.0,125.0,127.0,127.0,125.0,200.0,1.0,1.1,-702,280,-480,270,-220,278,224.77604579925537,224.77614545822144,224.77943873405457,224.7912142276764,224.94026803970337,224.94026803970337,224.94026803970337,224.94026803970337,224.94026803970337,224.94026803970337,224.94026803970337,228.70970153808594,3,3.914614200592041,None,,,,,,,,,,,,,,,,,,218,1,2025-03-07_14h54.43.351,comp,2024.2.4,56.86760056185564,2025-03-07 14h55.07.298581 -0500,
35,35,0,critical,dwh,20.0,1.0,lower,78.0,78.0,57.0,133.0,133.0,57.0,3,5.698610067367554,None,,,,,0,0,0,0,0,35,35,66,228.7279601097107,,,,,,,,,,,,,,,,,,,,,,,,,,,,,,,,,,,,,,,,,,,,,,,,,,,,,,,,,,,,,,,,,,,,,,,,,,,,,,,,,78.0,78.0,57.0,133.0,133.0,57.0,1.0,1.2,-202,-15,0,-8,191,12,228.71147632598877,228.71161127090454,228.71451568603516,228.7279601097107,228.87381887435913,228.87381887435913,228.87381887435913,228.87381887435913,228.87381887435913,228.87381887435913,228.87381887435913,234.43232822418213,3,5.698610067367554,None,,,,,,,,,,,,,,,,,,218,1,2025-03-07_14h54.43.351,comp,2024.2.4,56.86760056185564,2025-03-07 14h55.07.298581 -0500,
36,36,0,critical,whd,35.0,2.1,lower,57.0,133.0,133.0,57.0,70.0,70.0,1,3.8021512031555176,None,,,,,0,0,0,0,0,36,36,36,234.44748711585999,,,,,,,,,,,,,,,,,,,,,,,,,,,,,,,,,,,,,,,,,,,,,,,,,,,,,,,,,,,,,,,,,,,,,,,,,,,,,,,,,57.0,133.0,133.0,57.0,70.0,70.0,2.1,2.12,-191,-277,0,-269,160,262,234.43380403518677,234.43388080596924,234.43665432929993,234.44748711585999,234.59356379508972,234.59356379508972,234.59356379508972,234.59356379508972,234.59356379508972,234.59356379508972,234.59356379508972,238.26030087471008,1,3.8021512031555176,None,,,,,,,,,,,,,,,,,,218,1,2025-03-07_14h54.43.351,comp,2024.2.4,56.86760056185564,2025-03-07 14h55.07.298581 -0500,
37,37,0,critical,whd,35.0,3.0,upper,125.0,200.0,200.0,125.0,127.0,127.0,1,6.837583780288696,None,,,,,0,0,0,0,0,37,37,87,238.27621054649353,,,,,,,,,,,,,,,,,,,,,,,,,,,,,,,,,,,,,,,,,,,,,,,,,,,,,,,,,,,,,,,,,,,,,,,,,,,,,,,,,125.0,200.0,200.0,125.0,127.0,127.0,3.0,3.1,-258,266,0,9,222,-254,238.26175713539124,238.2618317604065,238.26498746871948,238.27621054649353,238.42721247673035,238.42721247673035,238.42721247673035,238.42721247673035,238.42721247673035,238.42721247673035,238.42721247673035,245.11933422088623,1,6.837583780288696,None,,,,,,,,,,,,,,,,,,218,1,2025-03-07_14h54.43.351,comp,2024.2.4,56.86760056185564,2025-03-07 14h55.07.298581 -0500,
38,38,0,critical,hdw,35.0,1.0,lower,133.0,57.0,70.0,70.0,57.0,133.0,3,4.216448545455933,None,,,,,0,0,0,0,0,38,38,108,245.1395812034607,,,,,,,,,,,,,,,,,,,,,,,,,,,,,,,,,,,,,,,,,,,,,,,,,,,,,,,,,,,,,,,,,,,,,,,,,,,,,,,,,133.0,57.0,70.0,70.0,57.0,133.0,1.0,1.3,320,-252,480,-256,678,-287,245.12082076072693,245.12093663215637,245.12376022338867,245.1395812034607,245.28110074996948,245.28110074996948,245.28110074996948,245.28110074996948,245.28110074996948,245.28110074996948,245.28110074996948,249.36619234085083,3,4.216448545455933,None,,,,,,,,,,,,,,,,,,218,1,2025-03-07_14h54.43.351,comp,2024.2.4,56.86760056185564,2025-03-07 14h55.07.298581 -0500,
39,39,0,critical,whd,35.0,1.0,upper,125.0,200.0,200.0,125.0,127.0,127.0,2,2.9961283206939697,None,,,,,0,0,0,0,0,39,39,85,249.38201808929443,,,,,,,,,,,,,,,,,,,,,,,,,,,,,,,,,,,,,,,,,,,,,,,,,,,,,,,,,,,,,,,,,,,,,,,,,,,,,,,,,125.0,200.0,200.0,125.0,127.0,127.0,1.0,1.3,222,-250,480,-252,702,-280,249.36770176887512,249.36780738830566,249.37116956710815,249.38201808929443,249.53990578651428,249.53990578651428,249.53990578651428,249.53990578651428,249.53990578651428,249.53990578651428,249.53990578651428,252.38336634635925,2,2.9961283206939697,None,,,,,,,,,,,,,,,,,,218,1,2025-03-07_14h54.43.351,comp,2024.2.4,56.86760056185564,2025-03-07 14h55.07.298581 -0500,
40,40,0,filler_square,None,None,None,None,None,None,None,None,None,None,2,2.442500591278076,None,,,,,0,0,0,0,0,40,40,197,252.39942169189453,,,,,,,,,,,,,,,,,,,,,,,,,,,,,,,,,,,,,,,,,,,,,,,,,,,,,,,,,,,,,,,,,,,,,,,,,,,,,,,,,104.54828321112615,124.61961039267055,125.68256167820302,125.68256167820302,71.92854912939305,66.75742600192808,4.0,4.1,-221,-275,0,8,192,-277,252.38519287109375,252.38526821136475,252.38846039772034,252.39942169189453,252.5480773448944,252.5480773448944,252.5480773448944,252.5480773448944,252.5480773448944,252.5480773448944,252.5480773448944,254.85482358932495,2,2.442500591278076,None,,,,,,,,,,,,,,,,,,218,1,2025-03-07_14h54.43.351,comp,2024.2.4,56.86760056185564,2025-03-07 14h55.07.298581 -0500,
41,41,0,critical,dwh,35.0,3.0,lower,70.0,70.0,57.0,133.0,133.0,57.0,2,2.731156587600708,None,,,,,0,0,0,0,0,41,41,62,254.87063264846802,,,,,,,,,,,,,,,,,,,,,,,,,,,,,,,,,,,,,,,,,,,,,,,,,,,,,,,,,,,,,,,,,,,,,,,,,,,,,,,,,70.0,70.0,57.0,133.0,133.0,57.0,3.0,3.1,-198,278,0,12,191,-279,254.85636067390442,254.85643982887268,254.85933995246887,254.87063264846802,255.01171135902405,255.01171135902405,255.01171135902405,255.01171135902405,255.01171135902405,255.01171135902405,255.01171135902405,257.6179983615875,2,2.731156587600708,None,,,,,,,,,,,,,,,,,,218,1,2025-03-07_14h54.43.351,comp,2024.2.4,56.86760056185564,2025-03-07 14h55.07.298581 -0500,
42,42,0,critical,wdh,20.0,3.0,lower,57.0,133.0,78.0,78.0,133.0,57.0,1,5.032649040222168,None,,,,,0,0,0,0,0,42,42,80,257.6336193084717,,,,,,,,,,,,,,,,,,,,,,,,,,,,,,,,,,,,,,,,,,,,,,,,,,,,,,,,,,,,,,,,,,,,,,,,,,,,,,,,,57.0,133.0,78.0,78.0,133.0,57.0,3.0,3.1,-202,256,0,11,164,-256,257.6195755004883,257.61965250968933,257.6231620311737,257.6336193084717,257.7837550640106,257.7837550640106,257.7837550640106,257.7837550640106,257.7837550640106,257.7837550640106,257.7837550640106,262.67214488983154,1,5.032649040222168,None,,,,,,,,,,,,,,,,,,218,1,2025-03-07_14h54.43.351,comp,2024.2.4,56.86760056185564,2025-03-07 14h55.07.298581 -0500,
43,43,0,filler_random,None,None,None,None,None,None,None,None,None,None,3,1.3212873935699463,None,,,,,0,0,0,0,0,43,43,158,262.6913740634918,,,,,,,,,,,,,,,,,,,,,,,,,,,,,,,,,,,,,,,,,,,,,,,,,,,,,,,,,,,,,,,,,,,,,,,,,,,,,,,,,57.79547294910005,82.21103664062528,87.90600541565314,62.143580371969406,177.81532053825146,130.72339481113727,3.0,3.1,-168,260,0,-19,192,-251,262.6738438606262,262.67395544052124,262.6768100261688,262.6913740634918,262.8346128463745,262.8346128463745,262.8346128463745,262.8346128463745,262.8346128463745,262.8346128463745,262.8346128463745,264.0186302661896,3,1.3212873935699463,None,,,,,,,,,,,,,,,,,,218,1,2025-03-07_14h54.43.351,comp,2024.2.4,56.86760056185564,2025-03-07 14h55.07.298581 -0500,
44,44,0,filler_random,None,None,None,None,None,None,None,None,None,None,3,2.30202317237854,None,,,,,0,0,0,0,0,44,44,150,264.03663420677185,,,,,,,,,,,,,,,,,,,,,,,,,,,,,,,,,,,,,,,,,,,,,,,,,,,,,,,,,,,,,,,,,,,,,,,,,,,,,,,,,81.44932004957728,81.09424075280383,98.36409913087755,192.91636601993432,158.29629904251556,143.8473304258827,1.0,1.3,247,-256,480,-283,744,-266,264.02029371261597,264.0203688144684,264.02348256111145,264.03663420677185,264.18727803230286,264.18727803230286,264.18727803230286,264.18727803230286,264.18727803230286,264.18727803230286,264.18727803230286,266.3462862968445,3,2.30202317237854,None,,,,,,,,,,,,,,,,,,218,1,2025-03-07_14h54.43.351,comp,2024.2.4,56.86760056185564,2025-03-07 14h55.07.298581 -0500,
45,45,0,critical,wdh,20.0,1.0,lower,57.0,133.0,78.0,78.0,133.0,57.0,1,7.430266618728638,None,,,,,0,0,0,0,0,45,45,78,266.363751411438,,,,,,,,,,,,,,,,,,,,,,,,,,,,,,,,,,,,,,,,,,,,,,,,,,,,,,,,,,,,,,,,,,,,,,,,,,,,,,,,,57.0,133.0,78.0,78.0,133.0,57.0,1.0,1.2,-202,11,0,14,164,8,266.3476781845093,266.34775042533875,266.3505234718323,266.363751411438,266.50279664993286,266.50279664993286,266.50279664993286,266.50279664993286,266.50279664993286,266.50279664993286,266.50279664993286,273.80437707901,1,7.430266618728638,None,,,,,,,,,,,,,,,,,,218,1,2025-03-07_14h54.43.351,comp,2024.2.4,56.86760056185564,2025-03-07 14h55.07.298581 -0500,
46,46,0,critical,hdw,20.0,4.0,lower,133.0,57.0,78.0,78.0,57.0,133.0,3,2.4136135578155518,None,,,,,0,0,0,0,0,46,46,118,273.8208632469177,,,,,,,,,,,,,,,,,,,,,,,,,,,,,,,,,,,,,,,,,,,,,,,,,,,,,,,,,,,,,,,,,,,,,,,,,,,,,,,,,133.0,57.0,78.0,78.0,57.0,133.0,4.0,4.1,-164,-256,0,-14,202,-255,273.80590176582336,273.8060109615326,273.80913257598877,273.8208632469177,273.973486661911,273.973486661911,273.973486661911,273.973486661911,273.973486661911,273.973486661911,273.973486661911,276.2447292804718,3,2.4136135578155518,None,,,,,,,,,,,,,,,,,,218,1,2025-03-07_14h54.43.351,comp,2024.2.4,56.86760056185564,2025-03-07 14h55.07.298581 -0500,
47,47,0,filler_square,None,None,None,None,None,None,None,None,None,None,3,1.147186279296875,None,,,,,0,0,0,0,0,47,47,186,276.2626874446869,,,,,,,,,,,,,,,,,,,,,,,,,,,,,,,,,,,,,,,,,,,,,,,,,,,,,,,,,,,,,,,,,,,,,,,,,,,,,,,,,96.63447859037855,66.34508687093188,138.2408315601392,128.5086007397983,197.42886507887616,197.42886507887616,3.0,3.2,-193,-284,0,-6,259,275,276.24660658836365,276.24668550491333,276.24956607818604,276.2626874446869,276.4073004722595,276.4073004722595,276.4073004722595,276.4073004722595,276.4073004722595,276.4073004722595,276.4073004722595,277.42619490623474,3,1.147186279296875,None,,,,,,,,,,,,,,,,,,218,1,2025-03-07_14h54.43.351,comp,2024.2.4,56.86760056185564,2025-03-07 14h55.07.298581 -0500,
48,48,0,filler_square,None,None,None,None,None,None,None,None,None,None,2,4.2471559047698975,None,,,,,0,0,0,0,0,48,48,194,277.44258856773376,,,,,,,,,,,,,,,,,,,,,,,,,,,,,,,,,,,,,,,,,,,,,,,,,,,,,,,,,,,,,,,,,,,,,,,,,,,,,,,,,108.11869016221793,106.00629036991256,122.07718466204088,122.07718466204088,102.99597900068845,86.19381500092764,2.2,2.21,-210,-255,0,268,200,281,277.4283022880554,277.42838406562805,277.4321553707123,277.44258856773376,277.59154081344604,277.59154081344604,277.59154081344604,277.59154081344604,277.59154081344604,277.59154081344604,277.59154081344604,281.70524978637695,2,4.2471559047698975,None,,,,,,,,,,,,,,,,,,218,1,2025-03-07_14h54.43.351,comp,2024.2.4,56.86760056185564,2025-03-07 14h55.07.298581 -0500,
49,49,0,catch,None,None,None,None,None,None,None,None,None,None,3,1.4062552452087402,None,,,,,0,0,0,0,0,49,49,126,281.7235219478607,,,,,,,,,,,,,,,,,,,,,,,,,,,,,,,,,,,,,,,,,,,,,,,,,,,,,,,,,,,,,,,,,,,,,,,,,,,,,,,,,99,91,59,131,165,160,3.0,3.1,-207,267,0,-19,242,-262,281.7073554992676,281.7074341773987,281.71070528030396,281.7235219478607,281.85822463035583,281.85822463035583,281.85822463035583,281.85822463035583,281.85822463035583,281.85822463035583,281.85822463035583,283.1405551433563,3,1.4062552452087402,None,,,,,,,,,,,,,,,,,,218,1,2025-03-07_14h54.43.351,comp,2024.2.4,56.86760056185564,2025-03-07 14h55.07.298581 -0500,
50,50,0,catch,None,None,None,None,None,None,None,None,None,None,2,1.0841426849365234,None,,,,,0,0,0,0,0,50,50,122,283.15780758857727,,,,,,,,,,,,,,,,,,,,,,,,,,,,,,,,,,,,,,,,,,,,,,,,,,,,,,,,,,,,,,,,,,,,,,,,,,,,,,,,,69,121,167,158,64,126,2.1,2.12,-236,-258,0,-280,238,265,283.14269256591797,283.1427683830261,283.14599204063416,283.15780758857727,283.30920362472534,283.30920362472534,283.30920362472534,283.30920362472534,283.30920362472534,283.30920362472534,283.30920362472534,284.2590425014496,2,1.0841426849365234,None,,,,,,,,,,,,,,,,,,218,1,2025-03-07_14h54.43.351,comp,2024.2.4,56.86760056185564,2025-03-07 14h55.07.298581 -0500,
51,51,0,filler_square,None,None,None,None,None,None,None,None,None,None,3,1.7749085426330566,None,,,,,0,0,0,0,0,51,51,188,284.27508664131165,,,,,,,,,,,,,,,,,,,,,,,,,,,,,,,,,,,,,,,,,,,,,,,,,,,,,,,,,,,,,,,,,,,,,,,,,,,,,,,,,84.22193117547168,136.33813532731494,142.78168666075402,89.54702135796694,147.94155575139212,147.94155575139212,1.0,1.2,-209,14,0,4,215,12,284.26081442832947,284.26089429855347,284.2640824317932,284.27508664131165,284.4259943962097,284.4259943962097,284.4259943962097,284.4259943962097,284.4259943962097,284.4259943962097,284.4259943962097,286.05957317352295,3,1.7749085426330566,None,,,,,,,,,,,,,,,,,,218,1,2025-03-07_14h54.43.351,comp,2024.2.4,56.86760056185564,2025-03-07 14h55.07.298581 -0500,
52,52,0,filler_random,None,None,None,None,None,None,None,None,None,None,2,1.2694292068481445,None,,,,,0,0,0,0,0,52,52,136,286.0765714645386,,,,,,,,,,,,,,,,,,,,,,,,,,,,,,,,,,,,,,,,,,,,,,,,,,,,,,,,,,,,,,,,,,,,,,,,,,,,,,,,,161.42341596762978,98.14763097711233,163.91181485448666,159.3773041341351,79.92975951629978,190.28390427626536,2.2,2.21,-225,-254,0,260,271,259,286.06140899658203,286.0615191459656,286.06479692459106,286.0765714645386,286.22319507598877,286.22319507598877,286.22319507598877,286.22319507598877,286.22319507598877,286.22319507598877,286.22319507598877,287.350873708725,2,1.2694292068481445,None,,,,,,,,,,,,,,,,,,218,1,2025-03-07_14h54.43.351,comp,2024.2.4,56.86760056185564,2025-03-07 14h55.07.298581 -0500,
53,53,0,filler_random,None,None,None,None,None,None,None,None,None,None,3,1.6680707931518555,None,,,,,0,0,0,0,0,53,53,156,287.36643719673157,,,,,,,,,,,,,,,,,,,,,,,,,,,,,,,,,,,,,,,,,,,,,,,,,,,,,,,,,,,,,,,,,,,,,,,,,,,,,,,,,134.9001845383919,118.500391365391,76.74819508411704,108.9548944395287,182.46995333426173,147.5195772739139,2.2,2.22,-210,271,0,-283,224,-265,287.3525986671448,287.3526771068573,287.3555381298065,287.36643719673157,287.50708532333374,287.50708532333374,287.50708532333374,287.50708532333374,287.50708532333374,287.50708532333374,287.50708532333374,289.0434150695801,3,1.6680707931518555,None,,,,,,,,,,,,,,,,,,218,1,2025-03-07_14h54.43.351,comp,2024.2.4,56.86760056185564,2025-03-07 14h55.07.298581 -0500,
54,54,0,critical,dhw,20.0,2.1,lower,78.0,78.0,133.0,57.0,57.0,133.0,2,3.3902065753936768,None,,,,,0,0,0,0,0,54,54,26,289.05956411361694,,,,,,,,,,,,,,,,,,,,,,,,,,,,,,,,,,,,,,,,,,,,,,,,,,,,,,,,,,,,,,,,,,,,,,,,,,,,,,,,,78.0,78.0,133.0,57.0,57.0,133.0,2.1,2.12,-164,-279,0,-273,191,259,289.0449948310852,289.04507303237915,289.04793405532837,289.05956411361694,289.21565318107605,289.21565318107605,289.21565318107605,289.21565318107605,289.21565318107605,289.21565318107605,289.21565318107605,292.46034693717957,2,3.3902065753936768,None,,,,,,,,,,,,,,,,,,218,1,2025-03-07_14h54.43.351,comp,2024.2.4,56.86760056185564,2025-03-07 14h55.07.298581 -0500,
55,55,0,critical,hdw,20.0,1.0,upper,200.0,125.0,141.0,141.0,125.0,200.0,1,2.8928675651550293,None,,,,,0,0,0,0,0,55,55,115,292.4773414134979,,,,,,,,,,,,,,,,,,,,,,,,,,,,,,,,,,,,,,,,,,,,,,,,,,,,,,,,,,,,,,,,,,,,,,,,,,,,,,,,,200.0,125.0,141.0,141.0,125.0,200.0,1.0,1.1,-709,253,-480,263,-214,267,292.4618933200836,292.46199464797974,292.4652225971222,292.4773414134979,292.6304109096527,292.6304109096527,292.6304109096527,292.6304109096527,292.6304109096527,292.6304109096527,292.6304109096527,295.3758280277252,1,2.8928675651550293,None,,,,,,,,,,,,,,,,,,218,1,2025-03-07_14h54.43.351,comp,2024.2.4,56.86760056185564,2025-03-07 14h55.07.298581 -0500,
56,56,0,critical,hwd,20.0,3.0,lower,133.0,57.0,57.0,133.0,78.0,78.0,2,5.346142768859863,None,,,,,0,0,0,0,0,56,56,104,295.39251255989075,,,,,,,,,,,,,,,,,,,,,,,,,,,,,,,,,,,,,,,,,,,,,,,,,,,,,,,,,,,,,,,,,,,,,,,,,,,,,,,,,133.0,57.0,57.0,133.0,78.0,78.0,3.0,3.2,-191,-283,0,-9,202,272,295.3774428367615,295.37752962112427,295.3807604312897,295.39251255989075,295.54402923583984,295.54402923583984,295.54402923583984,295.54402923583984,295.54402923583984,295.54402923583984,295.54402923583984,300.74863052368164,2,5.346142768859863,None,,,,,,,,,,,,,,,,,,218,1,2025-03-07_14h54.43.351,comp,2024.2.4,56.86760056185564,2025-03-07 14h55.07.298581 -0500,
57,57,0,catch,None,None,None,None,None,None,None,None,None,None,2,0.9171960353851318,None,,,,,0,0,0,0,0,57,57,120,300.7646059989929,,,,,,,,,,,,,,,,,,,,,,,,,,,,,,,,,,,,,,,,,,,,,,,,,,,,,,,,,,,,,,,,,,,,,,,,,,,,,,,,,64,126,150,175,81,109,2.2,2.21,-246,-252,0,276,238,285,300.75051641464233,300.75061202049255,300.7537717819214,300.7646059989929,300.9163248538971,300.9163248538971,300.9163248538971,300.9163248538971,300.9163248538971,300.9163248538971,300.9163248538971,301.6940884590149,2,0.9171960353851318,None,,,,,,,,,,,,,,,,,,218,1,2025-03-07_14h54.43.351,comp,2024.2.4,56.86760056185564,2025-03-07 14h55.07.298581 -0500,
58,58,0,critical,wdh,35.0,1.0,lower,57.0,133.0,70.0,70.0,133.0,57.0,1,3.1720900535583496,None,,,,,0,0,0,0,0,58,58,72,301.7098309993744,,,,,,,,,,,,,,,,,,,,,,,,,,,,,,,,,,,,,,,,,,,,,,,,,,,,,,,,,,,,,,,,,,,,,,,,,,,,,,,,,57.0,133.0,70.0,70.0,133.0,57.0,1.0,1.2,-198,3,0,14,160,11,301.69560194015503,301.6956810951233,301.6985309123993,301.7098309993744,301.86469745635986,301.86469745635986,301.86469745635986,301.86469745635986,301.86469745635986,301.86469745635986,301.86469745635986,304.8986988067627,1,3.1720900535583496,None,,,,,,,,,,,,,,,,,,218,1,2025-03-07_14h54.43.351,comp,2024.2.4,56.86760056185564,2025-03-07 14h55.07.298581 -0500,
59,59,0,filler_random,None,None,None,None,None,None,None,None,None,None,3,2.112198829650879,None,,,,,0,0,0,0,0,59,59,162,304.9143023490906,,,,,,,,,,,,,,,,,,,,,,,,,,,,,,,,,,,,,,,,,,,,,,,,,,,,,,,,,,,,,,,,,,,,,,,,,,,,,,,,,175.12244478501805,85.38467783290872,194.8704237097088,145.53243121835584,144.13230779778584,181.2401927893772,4.0,4.1,-211,-262,0,-7,259,-267,304.90039896965027,304.9004771709442,304.9039657115936,304.9143023490906,305.0696430206299,305.0696430206299,305.0696430206299,305.0696430206299,305.0696430206299,305.0696430206299,305.0696430206299,307.0335364341736,3,2.112198829650879,None,,,,,,,,,,,,,,,,,,218,1,2025-03-07_14h54.43.351,comp,2024.2.4,56.86760056185564,2025-03-07 14h55.07.298581 -0500,
60,60,0,critical,hwd,35.0,2.1,lower,133.0,57.0,57.0,133.0,70.0,70.0,2,4.246192455291748,None,,,,,0,0,0,0,0,60,60,40,307.0520210266113,,,,,,,,,,,,,,,,,,,,,,,,,,,,,,,,,,,,,,,,,,,,,,,,,,,,,,,,,,,,,,,,,,,,,,,,,,,,,,,,,133.0,57.0,57.0,133.0,70.0,70.0,2.1,2.12,-191,-266,0,-282,198,270,307.0351314544678,307.0352268218994,307.0387227535248,307.0520210266113,307.207679271698,307.207679271698,307.207679271698,307.207679271698,307.207679271698,307.207679271698,307.207679271698,311.3003227710724,2,4.246192455291748,None,,,,,,,,,,,,,,,,,,218,1,2025-03-07_14h54.43.351,comp,2024.2.4,56.86760056185564,2025-03-07 14h55.07.298581 -0500,
61,61,0,catch,None,None,None,None,None,None,None,None,None,None,1,0.9382152557373047,None,,,,,0,0,0,0,0,61,61,124,311.3195436000824,,,,,,,,,,,,,,,,,,,,,,,,,,,,,,,,,,,,,,,,,,,,,,,,,,,,,,,,,,,,,,,,,,,,,,,,,,,,,,,,,198,127,114,76,67,123,1.0,1.2,-198,-18,0,4,196,16,311.3021938800812,311.30226850509644,311.3053209781647,311.3195436000824,311.4673912525177,311.4673912525177,311.4673912525177,311.4673912525177,311.4673912525177,311.4673912525177,311.4673912525177,312.2695927619934,1,0.9382152557373047,None,,,,,,,,,,,,,,,,,,218,1,2025-03-07_14h54.43.351,comp,2024.2.4,56.86760056185564,2025-03-07 14h55.07.298581 -0500,
62,62,0,critical,dhw,20.0,2.1,upper,141.0,141.0,200.0,125.0,125.0,200.0,3,5.084312438964844,None,,,,,0,0,0,0,0,62,62,27,312.28574681282043,,,,,,,,,,,,,,,,,,,,,,,,,,,,,,,,,,,,,,,,,,,,,,,,,,,,,,,,,,,,,,,,,,,,,,,,,,,,,,,,,141.0,141.0,200.0,125.0,125.0,200.0,2.1,2.11,-229,268,0,258,258,-272,312.2711124420166,312.2711913585663,312.27407813072205,312.28574681282043,312.4338331222534,312.4338331222534,312.4338331222534,312.4338331222534,312.4338331222534,312.4338331222534,312.4338331222534,317.37480568885803,3,5.084312438964844,None,,,,,,,,,,,,,,,,,,218,1,2025-03-07_14h54.43.351,comp,2024.2.4,56.86760056185564,2025-03-07 14h55.07.298581 -0500,
63,63,0,critical,hwd,20.0,2.1,upper,200.0,125.0,125.0,200.0,141.0,141.0,2,8.326204776763916,None,,,,,0,0,0,0,0,63,63,19,317.3955419063568,,,,,,,,,,,,,,,,,,,,,,,,,,,,,,,,,,,,,,,,,,,,,,,,,,,,,,,,,,,,,,,,,,,,,,,,,,,,,,,,,200.0,125.0,125.0,200.0,141.0,141.0,2.1,2.12,-258,-272,0,-284,266,275,317.3764476776123,317.3765482902527,317.3797459602356,317.3955419063568,317.5372314453125,317.5372314453125,317.5372314453125,317.5372314453125,317.5372314453125,317.5372314453125,317.5372314453125,325.7322654724121,2,8.326204776763916,None,,,,,,,,,,,,,,,,,,218,1,2025-03-07_14h54.43.351,comp,2024.2.4,56.86760056185564,2025-03-07 14h55.07.298581 -0500,
64,64,0,critical,dhw,20.0,3.0,lower,78.0,78.0,133.0,57.0,57.0,133.0,3,2.8595550060272217,None,,,,,0,0,0,0,0,64,64,56,325.75045585632324,,,,,,,,,,,,,,,,,,,,,,,,,,,,,,,,,,,,,,,,,,,,,,,,,,,,,,,,,,,,,,,,,,,,,,,,,,,,,,,,,78.0,78.0,133.0,57.0,57.0,133.0,3.0,3.2,-164,-254,0,-7,191,273,325.73379158973694,325.73386573791504,325.73710775375366,325.75045585632324,325.8879511356354,325.8879511356354,325.8879511356354,325.8879511356354,325.8879511356354,325.8879511356354,325.8879511356354,328.6233479976654,3,2.8595550060272217,None,,,,,,,,,,,,,,,,,,218,1,2025-03-07_14h54.43.351,comp,2024.2.4,56.86760056185564,2025-03-07 14h55.07.298581 -0500,
65,65,0,critical,wdh,35.0,3.0,upper,125.0,200.0,127.0,127.0,200.0,125.0,1,4.03622841835022,None,,,,,0,0,0,0,0,65,65,75,328.6375288963318,,,,,,,,,,,,,,,,,,,,,,,,,,,,,,,,,,,,,,,,,,,,,,,,,,,,,,,,,,,,,,,,,,,,,,,,,,,,,,,,,125.0,200.0,127.0,127.0,200.0,125.0,3.0,3.1,-260,254,0,-5,222,-253,328.62502884864807,328.62510681152344,328.6282992362976,328.6375288963318,328.78996896743774,328.78996896743774,328.78996896743774,328.78996896743774,328.78996896743774,328.78996896743774,328.78996896743774,332.69032096862793,1,4.03622841835022,None,,,,,,,,,,,,,,,,,,218,1,2025-03-07_14h54.43.351,comp,2024.2.4,56.86760056185564,2025-03-07 14h55.07.298581 -0500,
66,66,0,filler_square,None,None,None,None,None,None,None,None,None,None,3,1.446305751800537,None,,,,,0,0,0,0,0,66,66,183,332.7079493999481,,,,,,,,,,,,,,,,,,,,,,,,,,,,,,,,,,,,,,,,,,,,,,,,,,,,,,,,,,,,,,,,,,,,,,,,,,,,,,,,,61.7122296834046,132.1628714982819,93.6466270874478,119.77083899465165,159.4704722347857,159.4704722347857,2.1,2.12,-222,-254,0,-272,236,288,332.6920635700226,332.6921401023865,332.695157289505,332.7079493999481,332.8460021018982,332.8460021018982,332.8460021018982,332.8460021018982,332.8460021018982,332.8460021018982,332.8460021018982,334.1584162712097,3,1.446305751800537,None,,,,,,,,,,,,,,,,,,218,1,2025-03-07_14h54.43.351,comp,2024.2.4,56.86760056185564,2025-03-07 14h55.07.298581 -0500,
67,67,0,filler_square,None,None,None,None,None,None,None,None,None,None,3,1.292980670928955,None,,,,,0,0,0,0,0,67,67,208,334.174587726593,,,,,,,,,,,,,,,,,,,,,,,,,,,,,,,,,,,,,,,,,,,,,,,,,,,,,,,,,,,,,,,,,,,,,,,,,,,,,,,,,122.08559157499393,84.8490149732807,87.77294340090697,133.70512390781897,150.5072314608788,150.5072314608788,2.2,2.21,-205,-282,0,277,238,267,334.16014552116394,334.1602234840393,334.16332173347473,334.174587726593,334.3114011287689,334.3114011287689,334.3114011287689,334.3114011287689,334.3114011287689,334.3114011287689,334.3114011287689,335.4780864715576,3,1.292980670928955,None,,,,,,,,,,,,,,,,,,218,1,2025-03-07_14h54.43.351,comp,2024.2.4,56.86760056185564,2025-03-07 14h55.07.298581 -0500,
68,68,0,filler_random,None,None,None,None,None,None,None,None,None,None,1,4.06481146812439,None,,,,,0,0,0,0,0,68,68,146,335.49698853492737,,,,,,,,,,,,,,,,,,,,,,,,,,,,,,,,,,,,,,,,,,,,,,,,,,,,,,,,,,,,,,,,,,,,,,,,,,,,,,,,,135.6330187457425,180.5433159273738,170.72112094407964,122.3573580527807,122.66606917703983,120.58856312639324,2.2,2.22,-247,287,0,-288,217,-253,335.47998118400574,335.48010516166687,335.483460187912,335.49698853492737,335.64222264289856,335.64222264289856,335.64222264289856,335.64222264289856,335.64222264289856,335.64222264289856,335.64222264289856,339.5762286186218,1,4.06481146812439,None,,,,,,,,,,,,,,,,,,218,1,2025-03-07_14h54.43.351,comp,2024.2.4,56.86760056185564,2025-03-07 14h55.07.298581 -0500,
69,69,0,filler_random,None,None,None,None,None,None,None,None,None,None,2,1.0559699535369873,None,,,,,0,0,0,0,0,69,69,132,339.5940806865692,,,,,,,,,,,,,,,,,,,,,,,,,,,,,,,,,,,,,,,,,,,,,,,,,,,,,,,,,,,,,,,,,,,,,,,,,,,,,,,,,91.17723190077098,90.8360920906975,178.5081292210748,129.58825834166777,111.87059121465796,173.30321717629693,4.0,4.1,-206,-251,0,-5,247,-257,339.57782340049744,339.5779056549072,339.5812005996704,339.5940806865692,339.75202560424805,339.75202560424805,339.75202560424805,339.75202560424805,339.75202560424805,339.75202560424805,339.75202560424805,340.6673674583435,2,1.0559699535369873,None,,,,,,,,,,,,,,,,,,218,1,2025-03-07_14h54.43.351,comp,2024.2.4,56.86760056185564,2025-03-07 14h55.07.298581 -0500,
70,70,0,filler_random,None,None,None,None,None,None,None,None,None,None,2,2.534208297729492,None,,,,,0,0,0,0,0,70,70,142,340.68477606773376,,,,,,,,,,,,,,,,,,,,,,,,,,,,,,,,,,,,,,,,,,,,,,,,,,,,,,,,,,,,,,,,,,,,,,,,,,,,,,,,,153.4313009108272,132.93940029041136,151.7280268361421,196.49722722940894,160.06473864181265,112.2261409371135,1.0,1.1,-741,289,-480,275,-230,286,340.6690819263458,340.66916131973267,340.67204236984253,340.68477606773376,340.8270831108093,340.8270831108093,340.8270831108093,340.8270831108093,340.8270831108093,340.8270831108093,340.8270831108093,343.2253363132477,2,2.534208297729492,None,,,,,,,,,,,,,,,,,,218,1,2025-03-07_14h54.43.351,comp,2024.2.4,56.86760056185564,2025-03-07 14h55.07.298581 -0500,
71,71,0,critical,dhw,35.0,2.1,upper,127.0,127.0,200.0,125.0,125.0,200.0,3,1.719947338104248,None,,,,,0,0,0,0,0,71,71,1,343.24208188056946,,,,,,,,,,,,,,,,,,,,,,,,,,,,,,,,,,,,,,,,,,,,,,,,,,,,,,,,,,,,,,,,,,,,,,,,,,,,,,,,,127.0,127.0,200.0,125.0,125.0,200.0,2.1,2.12,-222,-282,0,-265,258,286,343.2269854545593,343.22709488868713,343.23033833503723,343.24208188056946,343.39398884773254,343.39398884773254,343.39398884773254,343.39398884773254,343.39398884773254,343.39398884773254,343.39398884773254,344.9788556098938,3,1.719947338104248,None,,,,,,,,,,,,,,,,,,218,1,2025-03-07_14h54.43.351,comp,2024.2.4,56.86760056185564,2025-03-07 14h55.07.298581 -0500,
72,72,0,critical,hwd,20.0,2.1,lower,133.0,57.0,57.0,133.0,78.0,78.0,2,3.422590732574463,None,,,,,0,0,0,0,0,72,72,42,344.9953227043152,,,,,,,,,,,,,,,,,,,,,,,,,,,,,,,,,,,,,,,,,,,,,,,,,,,,,,,,,,,,,,,,,,,,,,,,,,,,,,,,,133.0,57.0,57.0,133.0,78.0,78.0,2.1,2.12,-191,-281,0,-275,202,252,344.9804151058197,344.9804935455322,344.98335313796997,344.9953227043152,345.1453866958618,345.1453866958618,345.1453866958618,345.1453866958618,345.1453866958618,345.1453866958618,345.1453866958618,348.42833709716797,2,3.422590732574463,None,,,,,,,,,,,,,,,,,,218,1,2025-03-07_14h54.43.351,comp,2024.2.4,56.86760056185564,2025-03-07 14h55.07.298581 -0500,
73,73,0,filler_random,None,None,None,None,None,None,None,None,None,None,1,1.5339953899383545,None,,,,,0,0,0,0,0,73,73,152,348.44462513923645,,,,,,,,,,,,,,,,,,,,,,,,,,,,,,,,,,,,,,,,,,,,,,,,,,,,,,,,,,,,,,,,,,,,,,,,,,,,,,,,,180.85791241275842,116.70742239665526,83.33210105307393,75.95378019775194,129.1262219503219,145.85116029470197,2.1,2.12,-192,-259,0,-262,207,251,348.4300072193146,348.43008255958557,348.433233499527,348.44462513923645,348.60141015052795,348.60141015052795,348.60141015052795,348.60141015052795,348.60141015052795,348.60141015052795,348.60141015052795,349.981662273407,1,1.5339953899383545,None,,,,,,,,,,,,,,,,,,218,1,2025-03-07_14h54.43.351,comp,2024.2.4,56.86760056185564,2025-03-07 14h55.07.298581 -0500,
74,74,0,critical,whd,20.0,4.0,upper,125.0,200.0,200.0,125.0,141.0,141.0,1,7.571364641189575,None,,,,,0,0,0,0,0,74,74,95,349.99847054481506,,,,,,,,,,,,,,,,,,,,,,,,,,,,,,,,,,,,,,,,,,,,,,,,,,,,,,,,,,,,,,,,,,,,,,,,,,,,,,,,,125.0,200.0,200.0,125.0,141.0,141.0,4.0,4.2,-258,-14,0,-260,229,4,349.9831850528717,349.98326086997986,349.98665952682495,349.99847054481506,350.1464612483978,350.1464612483978,350.1464612483978,350.1464612483978,350.1464612483978,350.1464612483978,350.1464612483978,357.5813879966736,1,7.571364641189575,None,,,,,,,,,,,,,,,,,,218,1,2025-03-07_14h54.43.351,comp,2024.2.4,56.86760056185564,2025-03-07 14h55.07.298581 -0500,
75,75,0,critical,dhw,35.0,2.1,lower,70.0,70.0,133.0,57.0,57.0,133.0,3,4.081273317337036,None,,,,,0,0,0,0,0,75,75,0,357.6006453037262,,,,,,,,,,,,,,,,,,,,,,,,,,,,,,,,,,,,,,,,,,,,,,,,,,,,,,,,,,,,,,,,,,,,,,,,,,,,,,,,,70.0,70.0,133.0,57.0,57.0,133.0,2.1,2.12,-160,-251,0,-269,191,269,357.5830862522125,357.58320331573486,357.58658170700073,357.6006453037262,357.7501027584076,357.7501027584076,357.7501027584076,357.7501027584076,357.7501027584076,357.7501027584076,357.7501027584076,361.6844322681427,3,4.081273317337036,None,,,,,,,,,,,,,,,,,,218,1,2025-03-07_14h54.43.351,comp,2024.2.4,56.86760056185564,2025-03-07 14h55.07.298581 -0500,
76,76,0,critical,dwh,20.0,2.1,upper,141.0,141.0,125.0,200.0,200.0,125.0,3,1.709550380706787,None,,,,,0,0,0,0,0,76,76,7,361.7002680301666,,,,,,,,,,,,,,,,,,,,,,,,,,,,,,,,,,,,,,,,,,,,,,,,,,,,,,,,,,,,,,,,,,,,,,,,,,,,,,,,,141.0,141.0,125.0,200.0,200.0,125.0,2.1,2.12,-266,-289,0,-259,258,263,361.68590235710144,361.6860001087189,361.6893949508667,361.7002680301666,361.8542318344116,361.8542318344116,361.8542318344116,361.8542318344116,361.8542318344116,361.8542318344116,361.8542318344116,363.4270169734955,3,1.709550380706787,None,,,,,,,,,,,,,,,,,,218,1,2025-03-07_14h54.43.351,comp,2024.2.4,56.86760056185564,2025-03-07 14h55.07.298581 -0500,
77,77,0,critical,whd,35.0,2.1,upper,125.0,200.0,200.0,125.0,127.0,127.0,2,5.223875045776367,None,,,,,0,0,0,0,0,77,77,37,363.4427719116211,,,,,,,,,,,,,,,,,,,,,,,,,,,,,,,,,,,,,,,,,,,,,,,,,,,,,,,,,,,,,,,,,,,,,,,,,,,,,,,,,125.0,200.0,200.0,125.0,127.0,127.0,2.1,2.11,-258,286,0,290,222,-269,363.42857599258423,363.42864894866943,363.4318435192108,363.4427719116211,363.5833570957184,363.5833570957184,363.5833570957184,363.5833570957184,363.5833570957184,363.5833570957184,363.5833570957184,368.67011976242065,2,5.223875045776367,None,,,,,,,,,,,,,,,,,,218,1,2025-03-07_14h54.43.351,comp,2024.2.4,56.86760056185564,2025-03-07 14h55.07.298581 -0500,
78,78,0,critical,hdw,20.0,4.0,upper,200.0,125.0,141.0,141.0,125.0,200.0,1,3.101168632507324,None,,,,,0,0,0,0,0,78,78,119,368.6857645511627,,,,,,,,,,,,,,,,,,,,,,,,,,,,,,,,,,,,,,,,,,,,,,,,,,,,,,,,,,,,,,,,,,,,,,,,,,,,,,,,,200.0,125.0,141.0,141.0,125.0,200.0,4.0,4.2,-229,2,0,-271,266,-2,368.67156410217285,368.6716389656067,368.6749758720398,368.6857645511627,368.82530093193054,368.82530093193054,368.82530093193054,368.82530093193054,368.82530093193054,368.82530093193054,368.82530093193054,371.7921772003174,1,3.101168632507324,None,,,,,,,,,,,,,,,,,,218,1,2025-03-07_14h54.43.351,comp,2024.2.4,56.86760056185564,2025-03-07 14h55.07.298581 -0500,
79,79,0,critical,wdh,20.0,2.1,lower,57.0,133.0,78.0,78.0,133.0,57.0,3,3.0976316928863525,None,,,,,0,0,0,0,0,79,79,10,371.8082571029663,,,,,,,,,,,,,,,,,,,,,,,,,,,,,,,,,,,,,,,,,,,,,,,,,,,,,,,,,,,,,,,,,,,,,,,,,,,,,,,,,57.0,133.0,78.0,78.0,133.0,57.0,2.1,2.11,-202,263,0,289,164,-264,371.793643951416,371.793719291687,371.79653120040894,371.8082571029663,371.9537136554718,371.9537136554718,371.9537136554718,371.9537136554718,371.9537136554718,371.9537136554718,371.9537136554718,374.9233441352844,3,3.0976316928863525,None,,,,,,,,,,,,,,,,,,218,1,2025-03-07_14h54.43.351,comp,2024.2.4,56.86760056185564,2025-03-07 14h55.07.298581 -0500,
80,80,0,filler_square,None,None,None,None,None,None,None,None,None,None,3,1.1017870903015137,None,,,,,0,0,0,0,0,80,80,207,374.93996596336365,,,,,,,,,,,,,,,,,,,,,,,,,,,,,,,,,,,,,,,,,,,,,,,,,,,,,,,,,,,,,,,,,,,,,,,,,,,,,,,,,101.64185682209956,81.50061806349727,198.06399976230642,99.63482990626126,199.45971510886227,199.45971510886227,4.0,4.2,-187,-1,0,-271,246,12,374.9253520965576,374.9254319667816,374.929235458374,374.93996596336365,375.08631443977356,375.08631443977356,375.08631443977356,375.08631443977356,375.08631443977356,375.08631443977356,375.08631443977356,376.0568447113037,3,1.1017870903015137,None,,,,,,,,,,,,,,,,,,218,1,2025-03-07_14h54.43.351,comp,2024.2.4,56.86760056185564,2025-03-07 14h55.07.298581 -0500,
81,81,0,critical,whd,35.0,1.0,lower,57.0,133.0,133.0,57.0,70.0,70.0,2,3.521118640899658,None,,,,,0,0,0,0,0,81,81,84,376.07284021377563,,,,,,,,,,,,,,,,,,,,,,,,,,,,,,,,,,,,,,,,,,,,,,,,,,,,,,,,,,,,,,,,,,,,,,,,,,,,,,,,,57.0,133.0,133.0,57.0,70.0,70.0,1.0,1.3,289,-264,480,-260,640,-251,376.0585732460022,376.05865263938904,376.0624589920044,376.07284021377563,376.22057247161865,376.22057247161865,376.22057247161865,376.22057247161865,376.22057247161865,376.22057247161865,376.22057247161865,379.6071135997772,2,3.521118640899658,None,,,,,,,,,,,,,,,,,,218,1,2025-03-07_14h54.43.351,comp,2024.2.4,56.86760056185564,2025-03-07 14h55.07.298581 -0500,
82,82,0,catch,None,None,None,None,None,None,None,None,None,None,1,2.5317399501800537,None,,,,,0,0,0,0,0,82,82,123,379.62299394607544,,,,,,,,,,,,,,,,,,,,,,,,,,,,,,,,,,,,,,,,,,,,,,,,,,,,,,,,,,,,,,,,,,,,,,,,,,,,,,,,,153,172,99,91,101,89,2.2,2.21,-228,-254,0,259,186,253,379.60919189453125,379.60927271842957,379.6125109195709,379.62299394607544,379.77425360679626,379.77425360679626,379.77425360679626,379.77425360679626,379.77425360679626,379.77425360679626,379.77425360679626,382.15686774253845,1,2.5317399501800537,None,,,,,,,,,,,,,,,,,,218,1,2025-03-07_14h54.43.351,comp,2024.2.4,56.86760056185564,2025-03-07 14h55.07.298581 -0500,
83,83,0,critical,dhw,20.0,1.0,lower,78.0,78.0,133.0,57.0,57.0,133.0,2,2.0838701725006104,None,,,,,0,0,0,0,0,83,83,54,382.17407727241516,,,,,,,,,,,,,,,,,,,,,,,,,,,,,,,,,,,,,,,,,,,,,,,,,,,,,,,,,,,,,,,,,,,,,,,,,,,,,,,,,78.0,78.0,133.0,57.0,57.0,133.0,1.0,1.3,316,-269,480,-276,671,-255,382.1585223674774,382.1586344242096,382.16219902038574,382.17407727241516,382.3217566013336,382.3217566013336,382.3217566013336,382.3217566013336,382.3217566013336,382.3217566013336,382.3217566013336,384.2737789154053,2,2.0838701725006104,None,,,,,,,,,,,,,,,,,,218,1,2025-03-07_14h54.43.351,comp,2024.2.4,56.86760056185564,2025-03-07 14h55.07.298581 -0500,
84,84,0,filler_square,None,None,None,None,None,None,None,None,None,None,2,2.4235808849334717,None,,,,,0,0,0,0,0,84,84,192,384.2902534008026,,,,,,,,,,,,,,,,,,,,,,,,,,,,,,,,,,,,,,,,,,,,,,,,,,,,,,,,,,,,,,,,,,,,,,,,,,,,,,,,,82.12369898680177,77.33325845349198,94.97421263031902,94.97421263031902,93.50297107378331,64.20079300825961,1.0,1.2,-182,8,0,-14,176,17,384.27577781677246,384.2758619785309,384.2792456150055,384.2902534008026,384.44089937210083,384.44089937210083,384.44089937210083,384.44089937210083,384.44089937210083,384.44089937210083,384.44089937210083,386.7315413951874,2,2.4235808849334717,None,,,,,,,,,,,,,,,,,,218,1,2025-03-07_14h54.43.351,comp,2024.2.4,56.86760056185564,2025-03-07 14h55.07.298581 -0500,
85,85,0,filler_square,None,None,None,None,None,None,None,None,None,None,1,1.7089693546295166,None,,,,,0,0,0,0,0,85,85,201,386.7489085197449,,,,,,,,,,,,,,,,,,,,,,,,,,,,,,,,,,,,,,,,,,,,,,,,,,,,,,,,,,,,,,,,,,,,,,,,,,,,,,,,,91.17094031269139,91.17094031269139,83.51602405571187,65.2055557085645,60.2199059415649,72.35641906865817,2.1,2.11,-174,260,0,264,165,-283,386.7333173751831,386.7333915233612,386.7362267971039,386.7489085197449,386.88896203041077,386.88896203041077,386.88896203041077,386.88896203041077,386.88896203041077,386.88896203041077,386.88896203041077,388.4747619628906,1,1.7089693546295166,None,,,,,,,,,,,,,,,,,,218,1,2025-03-07_14h54.43.351,comp,2024.2.4,56.86760056185564,2025-03-07 14h55.07.298581 -0500,
86,86,0,filler_random,None,None,None,None,None,None,None,None,None,None,3,1.0544955730438232,None,,,,,0,0,0,0,0,86,86,134,388.49165964126587,,,,,,,,,,,,,,,,,,,,,,,,,,,,,,,,,,,,,,,,,,,,,,,,,,,,,,,,,,,,,,,,,,,,,,,,,,,,,,,,,62.490465992225396,75.4748169069614,113.58109026788236,128.7969114576582,147.29634222465813,169.61547502806056,2.2,2.21,-198,-284,0,267,245,253,388.4766159057617,388.47675681114197,388.47996377944946,388.49165964126587,388.6429805755615,388.6429805755615,388.6429805755615,388.6429805755615,388.6429805755615,388.6429805755615,388.6429805755615,389.5496883392334,3,1.0544955730438232,None,,,,,,,,,,,,,,,,,,218,1,2025-03-07_14h54.43.351,comp,2024.2.4,56.86760056185564,2025-03-07 14h55.07.298581 -0500,
87,87,0,catch,None,None,None,None,None,None,None,None,None,None,2,0.9561645984649658,None,,,,,0,0,0,0,0,87,87,128,389.5661814212799,,,,,,,,,,,,,,,,,,,,,,,,,,,,,,,,,,,,,,,,,,,,,,,,,,,,,,,,,,,,,,,,,,,,,,,,,,,,,,,,,83,107,141,184,58,132,2.2,2.22,-242,270,0,-256,254,-279,389.55182456970215,389.55190348625183,389.5551257133484,389.5661814212799,389.7087576389313,389.7087576389313,389.7087576389313,389.7087576389313,389.7087576389313,389.7087576389313,389.7087576389313,390.5272238254547,2,0.9561645984649658,None,,,,,,,,,,,,,,,,,,218,1,2025-03-07_14h54.43.351,comp,2024.2.4,56.86760056185564,2025-03-07 14h55.07.298581 -0500,
88,88,0,filler_random,None,None,None,None,None,None,None,None,None,None,1,1.058964729309082,None,,,,,0,0,0,0,0,88,88,140,390.5435688495636,,,,,,,,,,,,,,,,,,,,,,,,,,,,,,,,,,,,,,,,,,,,,,,,,,,,,,,,,,,,,,,,,,,,,,,,,,,,,,,,,168.01437383471125,199.70552841559416,61.51612317174901,194.35777180897588,72.11045865092265,178.89969493873582,1.0,1.1,-773,263,-480,285,-197,273,390.5291974544525,390.5292794704437,390.53267216682434,390.5435688495636,390.69562554359436,390.69562554359436,390.69562554359436,390.69562554359436,390.69562554359436,390.69562554359436,390.69562554359436,391.6101942062378,1,1.058964729309082,None,,,,,,,,,,,,,,,,,,218,1,2025-03-07_14h54.43.351,comp,2024.2.4,56.86760056185564,2025-03-07 14h55.07.298581 -0500,
89,89,0,critical,hdw,20.0,2.1,upper,200.0,125.0,141.0,141.0,125.0,200.0,3,2.2314629554748535,None,,,,,0,0,0,0,0,89,89,47,391.62670063972473,,,,,,,,,,,,,,,,,,,,,,,,,,,,,,,,,,,,,,,,,,,,,,,,,,,,,,,,,,,,,,,,,,,,,,,,,,,,,,,,,200.0,125.0,141.0,141.0,125.0,200.0,2.1,2.12,-229,-277,0,-267,266,255,391.61175894737244,391.61183857917786,391.6157875061035,391.62670063972473,391.78378891944885,391.78378891944885,391.78378891944885,391.78378891944885,391.78378891944885,391.78378891944885,391.78378891944885,393.86054277420044,3,2.2314629554748535,None,,,,,,,,,,,,,,,,,,218,1,2025-03-07_14h54.43.351,comp,2024.2.4,56.86760056185564,2025-03-07 14h55.07.298581 -0500,
90,90,0,critical,wdh,35.0,2.1,lower,57.0,133.0,70.0,70.0,133.0,57.0,1,3.9716997146606445,None,,,,,0,0,0,0,0,90,90,8,393.8781747817993,,,,,,,,,,,,,,,,,,,,,,,,,,,,,,,,,,,,,,,,,,,,,,,,,,,,,,,,,,,,,,,,,,,,,,,,,,,,,,,,,57.0,133.0,70.0,70.0,133.0,57.0,2.1,2.12,-198,-257,0,-271,160,274,393.8621051311493,393.86217999458313,393.8650596141815,393.8781747817993,394.02583146095276,394.02583146095276,394.02583146095276,394.02583146095276,394.02583146095276,394.02583146095276,394.02583146095276,397.86046409606934,1,3.9716997146606445,None,,,,,,,,,,,,,,,,,,218,1,2025-03-07_14h54.43.351,comp,2024.2.4,56.86760056185564,2025-03-07 14h55.07.298581 -0500,
91,91,0,filler_random,None,None,None,None,None,None,None,None,None,None,3,1.6578679084777832,None,,,,,0,0,0,0,0,91,91,133,397.88065242767334,,,,,,,,,,,,,,,,,,,,,,,,,,,,,,,,,,,,,,,,,,,,,,,,,,,,,,,,,,,,,,,,,,,,,,,,,,,,,,,,,67.68696923486485,165.58900180566786,128.0992634451025,158.13198105158656,153.42820090580534,141.1980884609921,1.0,1.2,-258,15,0,16,246,1,397.8623344898224,397.8624713420868,397.86567544937134,397.88065242767334,398.0281367301941,398.0281367301941,398.0281367301941,398.0281367301941,398.0281367301941,398.0281367301941,398.0281367301941,399.5422856807709,3,1.6578679084777832,None,,,,,,,,,,,,,,,,,,218,1,2025-03-07_14h54.43.351,comp,2024.2.4,56.86760056185564,2025-03-07 14h55.07.298581 -0500,
92,92,0,filler_square,None,None,None,None,None,None,None,None,None,None,1,4.650209665298462,None,,,,,0,0,0,0,0,92,92,177,399.55979681015015,,,,,,,,,,,,,,,,,,,,,,,,,,,,,,,,,,,,,,,,,,,,,,,,,,,,,,,,,,,,,,,,,,,,,,,,,,,,,,,,,79.92283096894462,79.92283096894462,69.27685322973294,61.16260527002421,76.65745835613066,70.51268652118506,4.0,4.1,-167,-284,0,-4,162,-253,399.5443458557129,399.5444233417511,399.5475935935974,399.55979681015015,399.6962080001831,399.6962080001831,399.6962080001831,399.6962080001831,399.6962080001831,399.6962080001831,399.6962080001831,404.21337270736694,1,4.650209665298462,None,,,,,,,,,,,,,,,,,,218,1,2025-03-07_14h54.43.351,comp,2024.2.4,56.86760056185564,2025-03-07 14h55.07.298581 -0500,
93,93,0,filler_square,None,None,None,None,None,None,None,None,None,None,2,1.5883066654205322,None,,,,,0,0,0,0,0,93,93,189,404.2296516895294,,,,,,,,,,,,,,,,,,,,,,,,,,,,,,,,,,,,,,,,,,,,,,,,,,,,,,,,,,,,,,,,,,,,,,,,,,,,,,,,,107.54601581162737,57.52453244034474,137.7240163218728,137.7240163218728,128.01130542225616,121.95941852485284,3.0,3.2,-194,-278,0,6,226,265,404.2152347564697,404.2153151035309,404.2187581062317,404.2296516895294,404.38145661354065,404.38145661354065,404.38145661354065,404.38145661354065,404.38145661354065,404.38145661354065,404.38145661354065,405.82958006858826,2,1.5883066654205322,None,,,,,,,,,,,,,,,,,,218,1,2025-03-07_14h54.43.351,comp,2024.2.4,56.86760056185564,2025-03-07 14h55.07.298581 -0500,
94,94,0,critical,dwh,20.0,1.0,upper,141.0,141.0,125.0,200.0,200.0,125.0,1,4.835439443588257,None,,,,,0,0,0,0,0,94,94,67,405.84652972221375,,,,,,,,,,,,,,,,,,,,,,,,,,,,,,,,,,,,,,,,,,,,,,,,,,,,,,,,,,,,,,,,,,,,,,,,,,,,,,,,,141.0,141.0,125.0,200.0,200.0,125.0,1.0,1.3,214,-282,480,-258,738,-262,405.83114743232727,405.831223487854,405.83445143699646,405.84652972221375,405.9997806549072,405.9997806549072,405.9997806549072,405.9997806549072,405.9997806549072,405.9997806549072,405.9997806549072,410.69873785972595,1,4.835439443588257,None,,,,,,,,,,,,,,,,,,218,1,2025-03-07_14h54.43.351,comp,2024.2.4,56.86760056185564,2025-03-07 14h55.07.298581 -0500,
95,95,0,critical,whd,20.0,1.0,upper,125.0,200.0,200.0,125.0,141.0,141.0,3,1.7606382369995117,None,,,,,0,0,0,0,0,95,95,91,410.7141761779785,,,,,,,,,,,,,,,,,,,,,,,,,,,,,,,,,,,,,,,,,,,,,,,,,,,,,,,,,,,,,,,,,,,,,,,,,,,,,,,,,125.0,200.0,200.0,125.0,141.0,141.0,1.0,1.1,-738,267,-480,259,-251,265,410.7002766132355,410.70035433769226,410.70379614830017,410.7141761779785,410.86524176597595,410.86524176597595,410.86524176597595,410.86524176597595,410.86524176597595,410.86524176597595,410.86524176597595,412.4831762313843,3,1.7606382369995117,None,,,,,,,,,,,,,,,,,,218,1,2025-03-07_14h54.43.351,comp,2024.2.4,56.86760056185564,2025-03-07 14h55.07.298581 -0500,
96,96,0,filler_random,None,None,None,None,None,None,None,None,None,None,1,2.0633187294006348,None,,,,,0,0,0,0,0,96,96,167,412.4992513656616,,,,,,,,,,,,,,,,,,,,,,,,,,,,,,,,,,,,,,,,,,,,,,,,,,,,,,,,,,,,,,,,,,,,,,,,,,,,,,,,,168.43394843523458,120.28047769981393,142.70044682022933,64.23856209815243,77.09750586788142,59.62651151799771,2.1,2.11,-188,280,0,288,158,-268,412.4848325252533,412.4849352836609,412.4883680343628,412.4992513656616,412.6493320465088,412.6493320465088,412.6493320465088,412.6493320465088,412.6493320465088,412.6493320465088,412.6493320465088,414.56959104537964,1,2.0633187294006348,None,,,,,,,,,,,,,,,,,,218,1,2025-03-07_14h54.43.351,comp,2024.2.4,56.86760056185564,2025-03-07 14h55.07.298581 -0500,
97,97,0,critical,whd,20.0,2.1,lower,57.0,133.0,133.0,57.0,78.0,78.0,1,5.080195188522339,None,,,,,0,0,0,0,0,97,97,38,414.5860364437103,,,,,,,,,,,,,,,,,,,,,,,,,,,,,,,,,,,,,,,,,,,,,,,,,,,,,,,,,,,,,,,,,,,,,,,,,,,,,,,,,57.0,133.0,133.0,57.0,78.0,78.0,2.1,2.11,-191,251,0,284,164,-265,414.57141733169556,414.5715148448944,414.57497096061707,414.5860364437103,414.73345494270325,414.73345494270325,414.73345494270325,414.73345494270325,414.73345494270325,414.73345494270325,414.73345494270325,419.671026468277,1,5.080195188522339,None,,,,,,,,,,,,,,,,,,218,1,2025-03-07_14h54.43.351,comp,2024.2.4,56.86760056185564,2025-03-07 14h55.07.298581 -0500,
98,98,0,critical,wdh,35.0,1.0,upper,125.0,200.0,127.0,127.0,200.0,125.0,1,2.6703529357910156,None,,,,,0,0,0,0,0,98,98,73,419.69159841537476,,,,,,,,,,,,,,,,,,,,,,,,,,,,,,,,,,,,,,,,,,,,,,,,,,,,,,,,,,,,,,,,,,,,,,,,,,,,,,,,,125.0,200.0,127.0,127.0,200.0,125.0,1.0,1.1,-740,282,-480,268,-258,280,419.67281556129456,419.672958612442,419.67658257484436,419.69159841537476,419.8250939846039,419.8250939846039,419.8250939846039,419.8250939846039,419.8250939846039,419.8250939846039,419.8250939846039,422.37808179855347,1,2.6703529357910156,None,,,,,,,,,,,,,,,,,,218,1,2025-03-07_14h54.43.351,comp,2024.2.4,56.86760056185564,2025-03-07 14h55.07.298581 -0500,
99,99,0,filler_random,None,None,None,None,None,None,None,None,None,None,2,3.8325729370117188,None,,,,,0,0,0,0,0,99,99,149,422.39337706565857,,,,,,,,,,,,,,,,,,,,,,,,,,,,,,,,,,,,,,,,,,,,,,,,,,,,,,,,,,,,,,,,,,,,,,,,,,,,,,,,,163.47041429355426,148.64287742102533,114.21484050571901,176.77087784042004,166.47291840257827,122.70852292459932,4.0,4.2,-259,-3,0,-269,246,7,422.37986993789673,422.380051612854,422.3829288482666,422.39337706565857,422.53551268577576,422.53551268577576,422.53551268577576,422.53551268577576,422.53551268577576,422.53551268577576,422.53551268577576,426.240140914917,2,3.8325729370117188,None,,,,,,,,,,,,,,,,,,218,1,2025-03-07_14h54.43.351,comp,2024.2.4,56.86760056185564,2025-03-07 14h55.07.298581 -0500,
100,100,0,catch,None,None,None,None,None,None,None,None,None,None,3,0.8342831134796143,None,,,,,0,0,0,0,0,100,100,127,426.2557168006897,,,,,,,,,,,,,,,,,,,,,,,,,,,,,,,,,,,,,,,,,,,,,,,,,,,,,,,,,,,,,,,,,,,,,,,,,,,,,,,,,88,102,103,87,151,174,1.0,1.2,-190,11,0,9,226,20,426.24215292930603,426.2422318458557,426.2452554702759,426.2557168006897,426.40282225608826,426.40282225608826,426.40282225608826,426.40282225608826,426.40282225608826,426.40282225608826,426.40282225608826,427.1042814254761,3,0.8342831134796143,None,,,,,,,,,,,,,,,,,,218,1,2025-03-07_14h54.43.351,comp,2024.2.4,56.86760056185564,2025-03-07 14h55.07.298581 -0500,
101,101,0,filler_random,None,None,None,None,None,None,None,None,None,None,3,0.8262181282043457,None,,,,,0,0,0,0,0,101,101,157,427.1205806732178,,,,,,,,,,,,,,,,,,,,,,,,,,,,,,,,,,,,,,,,,,,,,,,,,,,,,,,,,,,,,,,,,,,,,,,,,,,,,,,,,185.82678574952433,71.81984167204082,102.28481137353403,95.51262093341828,130.36487652859444,160.09903352524844,2.2,2.21,-180,-262,0,266,224,286,427.10609340667725,427.10616993904114,427.1101784706116,427.1205806732178,427.28046703338623,427.28046703338623,427.28046703338623,427.28046703338623,427.28046703338623,427.28046703338623,427.28046703338623,427.95440006256104,3,0.8262181282043457,None,,,,,,,,,,,,,,,,,,218,1,2025-03-07_14h54.43.351,comp,2024.2.4,56.86760056185564,2025-03-07 14h55.07.298581 -0500,
102,102,0,critical,hdw,35.0,3.0,upper,200.0,125.0,127.0,127.0,125.0,200.0,3,3.2804455757141113,None,,,,,0,0,0,0,0,102,102,111,427.9694836139679,,,,,,,,,,,,,,,,,,,,,,,,,,,,,,,,,,,,,,,,,,,,,,,,,,,,,,,,,,,,,,,,,,,,,,,,,,,,,,,,,200.0,125.0,127.0,127.0,125.0,200.0,3.0,3.2,-222,-270,0,18,260,288,427.95599365234375,427.95613265037537,427.959579706192,427.9694836139679,428.1217701435089,428.1217701435089,428.1217701435089,428.1217701435089,428.1217701435089,428.1217701435089,428.1217701435089,431.26259875297546,3,3.2804455757141113,None,,,,,,,,,,,,,,,,,,218,1,2025-03-07_14h54.43.351,comp,2024.2.4,56.86760056185564,2025-03-07 14h55.07.298581 -0500,
103,103,0,critical,dwh,35.0,1.0,lower,70.0,70.0,57.0,133.0,133.0,57.0,3,2.442359447479248,None,,,,,0,0,0,0,0,103,103,60,431.27960753440857,,,,,,,,,,,,,,,,,,,,,,,,,,,,,,,,,,,,,,,,,,,,,,,,,,,,,,,,,,,,,,,,,,,,,,,,,,,,,,,,,70.0,70.0,57.0,133.0,133.0,57.0,1.0,1.2,-198,1,0,9,191,11,431.2640633583069,431.2641406059265,431.266978263855,431.27960753440857,431.42552375793457,431.42552375793457,431.42552375793457,431.42552375793457,431.42552375793457,431.42552375793457,431.42552375793457,433.7388050556183,3,2.442359447479248,None,,,,,,,,,,,,,,,,,,218,1,2025-03-07_14h54.43.351,comp,2024.2.4,56.86760056185564,2025-03-07 14h55.07.298581 -0500,
104,104,0,critical,hwd,20.0,2.1,upper,200.0,125.0,125.0,200.0,141.0,141.0,1,2.2522544860839844,None,,,,,0,0,0,0,0,104,104,43,433.7577452659607,,,,,,,,,,,,,,,,,,,,,,,,,,,,,,,,,,,,,,,,,,,,,,,,,,,,,,,,,,,,,,,,,,,,,,,,,,,,,,,,,200.0,125.0,125.0,200.0,141.0,141.0,2.1,2.11,-258,275,0,279,266,-281,433.7403633594513,433.74044013023376,433.7436053752899,433.7577452659607,433.90605759620667,433.90605759620667,433.90605759620667,433.90605759620667,433.90605759620667,433.90605759620667,433.90605759620667,436.0232081413269,1,2.2522544860839844,None,,,,,,,,,,,,,,,,,,218,1,2025-03-07_14h54.43.351,comp,2024.2.4,56.86760056185564,2025-03-07 14h55.07.298581 -0500,
105,105,0,filler_square,None,None,None,None,None,None,None,None,None,None,1,1.1430575847625732,None,,,,,0,0,0,0,0,105,105,190,436.04321789741516,,,,,,,,,,,,,,,,,,,,,,,,,,,,,,,,,,,,,,,,,,,,,,,,,,,,,,,,,,,,,,,,,,,,,,,,,,,,,,,,,160.92776560325325,160.92776560325325,139.35978466357565,114.09725843114981,71.52930350327672,124.61982514046414,1.0,1.3,246,-276,480,-282,695,-263,436.024959564209,436.02503490448,436.0283317565918,436.04321789741516,436.19006991386414,436.19006991386414,436.19006991386414,436.19006991386414,436.19006991386414,436.19006991386414,436.19006991386414,437.19712567329407,1,1.1430575847625732,None,,,,,,,,,,,,,,,,,,218,1,2025-03-07_14h54.43.351,comp,2024.2.4,56.86760056185564,2025-03-07 14h55.07.298581 -0500,
106,106,0,critical,hwd,20.0,4.0,lower,133.0,57.0,57.0,133.0,78.0,78.0,1,3.162767171859741,None,,,,,0,0,0,0,0,106,106,106,437.215213060379,,,,,,,,,,,,,,,,,,,,,,,,,,,,,,,,,,,,,,,,,,,,,,,,,,,,,,,,,,,,,,,,,,,,,,,,,,,,,,,,,133.0,57.0,57.0,133.0,78.0,78.0,4.0,4.2,-191,12,0,-258,202,-13,437.1986801624298,437.1987564563751,437.2019679546356,437.215213060379,437.35986161231995,437.35986161231995,437.35986161231995,437.35986161231995,437.35986161231995,437.35986161231995,437.35986161231995,440.3905875682831,1,3.162767171859741,None,,,,,,,,,,,,,,,,,,218,1,2025-03-07_14h54.43.351,comp,2024.2.4,56.86760056185564,2025-03-07 14h55.07.298581 -0500,
107,107,0,critical,dwh,35.0,1.0,upper,127.0,127.0,125.0,200.0,200.0,125.0,3,3.7875473499298096,None,,,,,0,0,0,0,0,107,107,61,440.4063711166382,,,,,,,,,,,,,,,,,,,,,,,,,,,,,,,,,,,,,,,,,,,,,,,,,,,,,,,,,,,,,,,,,,,,,,,,,,,,,,,,,127.0,127.0,125.0,200.0,200.0,125.0,1.0,1.2,-260,-10,0,-14,258,-15,440.39207673072815,440.3921537399292,440.3951632976532,440.4063711166382,440.5576868057251,440.5576868057251,440.5576868057251,440.5576868057251,440.5576868057251,440.5576868057251,440.5576868057251,444.21123147010803,3,3.7875473499298096,None,,,,,,,,,,,,,,,,,,218,1,2025-03-07_14h54.43.351,comp,2024.2.4,56.86760056185564,2025-03-07 14h55.07.298581 -0500,
108,108,0,filler_random,None,None,None,None,None,None,None,None,None,None,1,4.450705289840698,None,,,,,0,0,0,0,0,108,108,144,444.2312843799591,,,,,,,,,,,,,,,,,,,,,,,,,,,,,,,,,,,,,,,,,,,,,,,,,,,,,,,,,,,,,,,,,,,,,,,,,,,,,,,,,154.32457838661168,185.29817937037018,111.98328862435568,167.53095603468955,162.07168461471025,168.4419803871017,4.0,4.1,-272,-263,0,19,264,-268,444.213032245636,444.2131109237671,444.2160792350769,444.2312843799591,444.37369871139526,444.37369871139526,444.37369871139526,444.37369871139526,444.37369871139526,444.37369871139526,444.37369871139526,448.6972510814667,1,4.450705289840698,None,,,,,,,,,,,,,,,,,,218,1,2025-03-07_14h54.43.351,comp,2024.2.4,56.86760056185564,2025-03-07 14h55.07.298581 -0500,
109,109,0,filler_square,None,None,None,None,None,None,None,None,None,None,2,1.7532470226287842,None,,,,,0,0,0,0,0,109,109,204,448.71304154396057,,,,,,,,,,,,,,,,,,,,,,,,,,,,,,,,,,,,,,,,,,,,,,,,,,,,,,,,,,,,,,,,,,,,,,,,,,,,,,,,,120.44206136596544,125.97622640927676,153.73132098121638,153.73132098121638,141.57250941449018,146.59448559752323,2.1,2.12,-236,-253,0,-266,246,279,448.6992380619049,448.6993124485016,448.70264744758606,448.71304154396057,448.86059761047363,448.86059761047363,448.86059761047363,448.86059761047363,448.86059761047363,448.86059761047363,448.86059761047363,450.47784996032715,2,1.7532470226287842,None,,,,,,,,,,,,,,,,,,218,1,2025-03-07_14h54.43.351,comp,2024.2.4,56.86760056185564,2025-03-07 14h55.07.298581 -0500,
110,110,0,filler_square,None,None,None,None,None,None,None,None,None,None,2,0.9480361938476562,None,,,,,0,0,0,0,0,110,110,203,450.4945616722107,,,,,,,,,,,,,,,,,,,,,,,,,,,,,,,,,,,,,,,,,,,,,,,,,,,,,,,,,,,,,,,,,,,,,,,,,,,,,,,,,167.22855709836207,132.91128474115513,189.76442719859537,189.76442719859537,146.42521531824357,126.10505965417441,4.0,4.1,-257,-273,0,7,254,-270,450.47965908050537,450.4797329902649,450.48370122909546,450.4945616722107,450.63717436790466,450.63717436790466,450.63717436790466,450.63717436790466,450.63717436790466,450.63717436790466,450.63717436790466,451.44662261009216,2,0.9480361938476562,None,,,,,,,,,,,,,,,,,,218,1,2025-03-07_14h54.43.351,comp,2024.2.4,56.86760056185564,2025-03-07 14h55.07.298581 -0500,
111,111,0,critical,dwh,20.0,3.0,lower,78.0,78.0,57.0,133.0,133.0,57.0,3,1.6676547527313232,None,,,,,0,0,0,0,0,111,111,68,451.4629895687103,,,,,,,,,,,,,,,,,,,,,,,,,,,,,,,,,,,,,,,,,,,,,,,,,,,,,,,,,,,,,,,,,,,,,,,,,,,,,,,,,78.0,78.0,57.0,133.0,133.0,57.0,3.0,3.1,-202,258,0,-6,191,-253,451.4483504295349,451.4484279155731,451.4522364139557,451.4629895687103,451.6213014125824,451.6213014125824,451.6213014125824,451.6213014125824,451.6213014125824,451.6213014125824,451.6213014125824,453.1365373134613,3,1.6676547527313232,None,,,,,,,,,,,,,,,,,,218,1,2025-03-07_14h54.43.351,comp,2024.2.4,56.86760056185564,2025-03-07 14h55.07.298581 -0500,
112,112,0,critical,whd,35.0,2.1,upper,125.0,200.0,200.0,125.0,127.0,127.0,2,1.1621193885803223,None,,,,,0,0,0,0,0,112,112,13,453.1519763469696,,,,,,,,,,,,,,,,,,,,,,,,,,,,,,,,,,,,,,,,,,,,,,,,,,,,,,,,,,,,,,,,,,,,,,,,,,,,,,,,,125.0,200.0,200.0,125.0,127.0,127.0,2.1,2.11,-258,254,0,262,222,-254,453.13800072669983,453.13807582855225,453.14085960388184,453.1519763469696,453.29558849334717,453.29558849334717,453.29558849334717,453.29558849334717,453.29558849334717,453.29558849334717,453.29558849334717,454.31887340545654,2,1.1621193885803223,None,,,,,,,,,,,,,,,,,,218,1,2025-03-07_14h54.43.351,comp,2024.2.4,56.86760056185564,2025-03-07 14h55.07.298581 -0500,
113,113,0,critical,hwd,20.0,1.0,lower,133.0,57.0,57.0,133.0,78.0,78.0,1,3.7458109855651855,None,,,,,0,0,0,0,0,113,113,102,454.33611130714417,,,,,,,,,,,,,,,,,,,,,,,,,,,,,,,,,,,,,,,,,,,,,,,,,,,,,,,,,,,,,,,,,,,,,,,,,,,,,,,,,133.0,57.0,57.0,133.0,78.0,78.0,1.0,1.2,-191,-16,0,11,202,3,454.3203032016754,454.3203766345978,454.3231773376465,454.33611130714417,454.47896218299866,454.47896218299866,454.47896218299866,454.47896218299866,454.47896218299866,454.47896218299866,454.47896218299866,458.1049003601074,1,3.7458109855651855,None,,,,,,,,,,,,,,,,,,218,1,2025-03-07_14h54.43.351,comp,2024.2.4,56.86760056185564,2025-03-07 14h55.07.298581 -0500,
114,114,0,critical,whd,20.0,2.1,upper,125.0,200.0,200.0,125.0,141.0,141.0,2,3.7359511852264404,None,,,,,0,0,0,0,0,114,114,15,458.122841835022,,,,,,,,,,,,,,,,,,,,,,,,,,,,,,,,,,,,,,,,,,,,,,,,,,,,,,,,,,,,,,,,,,,,,,,,,,,,,,,,,125.0,200.0,200.0,125.0,141.0,141.0,2.1,2.11,-258,259,0,274,229,-271,458.106605052948,458.10668206214905,458.1098847389221,458.122841835022,458.26370072364807,458.26370072364807,458.26370072364807,458.26370072364807,458.26370072364807,458.26370072364807,458.26370072364807,461.8651933670044,2,3.7359511852264404,None,,,,,,,,,,,,,,,,,,218,1,2025-03-07_14h54.43.351,comp,2024.2.4,56.86760056185564,2025-03-07 14h55.07.298581 -0500,
115,115,0,filler_square,None,None,None,None,None,None,None,None,None,None,2,1.1448392868041992,None,,,,,0,0,0,0,0,115,115,179,461.8812167644501,,,,,,,,,,,,,,,,,,,,,,,,,,,,,,,,,,,,,,,,,,,,,,,,,,,,,,,,,,,,,,,,,,,,,,,,,,,,,,,,,152.7559877556568,188.22562719827832,195.06060627469128,195.06060627469128,190.90578003796026,100.01374040720043,2.2,2.22,-288,272,0,-253,244,-254,461.8669755458832,461.86705589294434,461.87037324905396,461.8812167644501,462.031129360199,462.031129360199,462.031129360199,462.031129360199,462.031129360199,462.031129360199,462.031129360199,463.04034972190857,2,1.1448392868041992,None,,,,,,,,,,,,,,,,,,218,1,2025-03-07_14h54.43.351,comp,2024.2.4,56.86760056185564,2025-03-07 14h55.07.298581 -0500,
116,116,0,filler_random,None,None,None,None,None,None,None,None,None,None,1,1.6187770366668701,None,,,,,0,0,0,0,0,116,116,139,463.0553090572357,,,,,,,,,,,,,,,,,,,,,,,,,,,,,,,,,,,,,,,,,,,,,,,,,,,,,,,,,,,,,,,,,,,,,,,,,,,,,,,,,199.78663741898808,122.67360316487841,125.22537184285727,165.0811717292147,83.94484855593332,101.640745255229,4.0,4.2,-240,16,0,-268,229,14,463.0419833660126,463.042058467865,463.0448520183563,463.0553090572357,463.1987233161926,463.1987233161926,463.1987233161926,463.1987233161926,463.1987233161926,463.1987233161926,463.1987233161926,464.68790769577026,1,1.6187770366668701,None,,,,,,,,,,,,,,,,,,218,1,2025-03-07_14h54.43.351,comp,2024.2.4,56.86760056185564,2025-03-07 14h55.07.298581 -0500,
117,117,0,critical,whd,20.0,3.0,lower,57.0,133.0,133.0,57.0,78.0,78.0,3,2.3954381942749023,None,,,,,0,0,0,0,0,117,117,92,464.7026102542877,,,,,,,,,,,,,,,,,,,,,,,,,,,,,,,,,,,,,,,,,,,,,,,,,,,,,,,,,,,,,,,,,,,,,,,,,,,,,,,,,57.0,133.0,133.0,57.0,78.0,78.0,3.0,3.1,-191,259,0,-11,164,-265,464.6893343925476,464.6894094944,464.6922595500946,464.7026102542877,464.8490812778473,464.8490812778473,464.8490812778473,464.8490812778473,464.8490812778473,464.8490812778473,464.8490812778473,467.1158628463745,3,2.3954381942749023,None,,,,,,,,,,,,,,,,,,218,1,2025-03-07_14h54.43.351,comp,2024.2.4,56.86760056185564,2025-03-07 14h55.07.298581 -0500,
118,118,0,critical,wdh,20.0,2.1,lower,57.0,133.0,78.0,78.0,133.0,57.0,1,3.9578425884246826,None,,,,,0,0,0,0,0,118,118,34,467.132119178772,,,,,,,,,,,,,,,,,,,,,,,,,,,,,,,,,,,,,,,,,,,,,,,,,,,,,,,,,,,,,,,,,,,,,,,,,,,,,,,,,57.0,133.0,78.0,78.0,133.0,57.0,2.1,2.11,-202,276,0,289,164,-289,467.11749505996704,467.11757135391235,467.1208553314209,467.132119178772,467.2833104133606,467.2833104133606,467.2833104133606,467.2833104133606,467.2833104133606,467.2833104133606,467.2833104133606,471.0994267463684,1,3.9578425884246826,None,,,,,,,,,,,,,,,,,,218,1,2025-03-07_14h54.43.351,comp,2024.2.4,56.86760056185564,2025-03-07 14h55.07.298581 -0500,
119,119,0,filler_square,None,None,None,None,None,None,None,None,None,None,1,3.3660476207733154,None,,,,,0,0,0,0,0,119,119,171,471.1162931919098,,,,,,,,,,,,,,,,,,,,,,,,,,,,,,,,,,,,,,,,,,,,,,,,,,,,,,,,,,,,,,,,,,,,,,,,,,,,,,,,,68.13003505253872,68.13003505253872,62.57971451783743,59.66001472968698,58.35306590415987,67.15312478291524,1.0,1.1,-640,263,-480,283,-321,261,471.1012682914734,471.1013467311859,471.10443353652954,471.1162931919098,471.2658438682556,471.2658438682556,471.2658438682556,471.2658438682556,471.2658438682556,471.2658438682556,471.2658438682556,474.4878692626953,1,3.3660476207733154,None,,,,,,,,,,,,,,,,,,218,1,2025-03-07_14h54.43.351,comp,2024.2.4,56.86760056185564,2025-03-07 14h55.07.298581 -0500,
120,120,0,filler_random,None,None,None,None,None,None,None,None,None,None,3,1.2657511234283447,None,,,,,0,0,0,0,0,120,120,154,474.5044367313385,,,,,,,,,,,,,,,,,,,,,,,,,,,,,,,,,,,,,,,,,,,,,,,,,,,,,,,,,,,,,,,,,,,,,,,,,,,,,,,,,74.48412965716646,76.48547684922283,120.90727901804641,109.47629346937629,125.04999282077995,178.12707292959988,3.0,3.2,-189,-253,0,18,240,258,474.4898896217346,474.49001717567444,474.49338817596436,474.5044367313385,474.65163469314575,474.65163469314575,474.65163469314575,474.65163469314575,474.65163469314575,474.65163469314575,474.65163469314575,475.7745087146759,3,1.2657511234283447,None,,,,,,,,,,,,,,,,,,218,1,2025-03-07_14h54.43.351,comp,2024.2.4,56.86760056185564,2025-03-07 14h55.07.298581 -0500,
121,121,0,critical,whd,35.0,4.0,lower,57.0,133.0,133.0,57.0,70.0,70.0,2,4.74107551574707,None,,,,,0,0,0,0,0,121,121,88,475.78969717025757,,,,,,,,,,,,,,,,,,,,,,,,,,,,,,,,,,,,,,,,,,,,,,,,,,,,,,,,,,,,,,,,,,,,,,,,,,,,,,,,,57.0,133.0,133.0,57.0,70.0,70.0,4.0,4.1,-191,-287,0,1,160,-282,475.7759976387024,475.7760717868805,475.7790493965149,475.78969717025757,475.9360074996948,475.9360074996948,475.9360074996948,475.9360074996948,475.9360074996948,475.9360074996948,475.9360074996948,480.5364968776703,2,4.74107551574707,None,,,,,,,,,,,,,,,,,,218,1,2025-03-07_14h54.43.351,comp,2024.2.4,56.86760056185564,2025-03-07 14h55.07.298581 -0500,
122,122,0,filler_random,None,None,None,None,None,None,None,None,None,None,2,3.3109278678894043,None,,,,,0,0,0,0,0,122,122,159,480.5554106235504,,,,,,,,,,,,,,,,,,,,,,,,,,,,,,,,,,,,,,,,,,,,,,,,,,,,,,,,,,,,,,,,,,,,,,,,,,,,,,,,,151.82133681465265,159.1890862263346,194.4864039931301,158.53643859219494,60.89495438897549,122.78012641057335,2.1,2.11,-255,259,0,270,237,-256,480.5381944179535,480.5382750034332,480.5413420200348,480.5554106235504,480.7042918205261,480.7042918205261,480.7042918205261,480.7042918205261,480.7042918205261,480.7042918205261,480.7042918205261,483.87076139450073,2,3.3109278678894043,None,,,,,,,,,,,,,,,,,,218,1,2025-03-07_14h54.43.351,comp,2024.2.4,56.86760056185564,2025-03-07 14h55.07.298581 -0500,
123,123,0,filler_square,None,None,None,None,None,None,None,None,None,None,1,2.90830397605896,None,,,,,0,0,0,0,0,123,123,191,483.8881604671478,,,,,,,,,,,,,,,,,,,,,,,,,,,,,,,,,,,,,,,,,,,,,,,,,,,,,,,,,,,,,,,,,,,,,,,,,,,,,,,,,94.15703649059091,94.15703649059091,87.4862027657737,92.20324595812593,57.46095736170332,70.01566146151428,3.0,3.2,-189,-252,0,-2,177,261,483.8725805282593,483.8726577758789,483.8757150173187,483.8881604671478,484.0444781780243,484.0444781780243,484.0444781780243,484.0444781780243,484.0444781780243,484.0444781780243,484.0444781780243,486.80184030532837,1,2.90830397605896,None,,,,,,,,,,,,,,,,,,218,1,2025-03-07_14h54.43.351,comp,2024.2.4,56.86760056185564,2025-03-07 14h55.07.298581 -0500,
124,124,0,filler_square,None,None,None,None,None,None,None,None,None,None,1,1.0713975429534912,None,,,,,0,0,0,0,0,124,124,176,486.8186502456665,,,,,,,,,,,,,,,,,,,,,,,,,,,,,,,,,,,,,,,,,,,,,,,,,,,,,,,,,,,,,,,,,,,,,,,,,,,,,,,,,152.34950115762945,152.34950115762945,123.15401641878194,102.19119578737613,66.15774224963613,138.4753203860538,3.0,3.1,-223,259,0,19,216,-256,486.8036766052246,486.80379843711853,486.8068881034851,486.8186502456665,486.9570987224579,486.9570987224579,486.9570987224579,486.9570987224579,486.9570987224579,486.9570987224579,486.9570987224579,487.9070658683777,1,1.0713975429534912,None,,,,,,,,,,,,,,,,,,218,1,2025-03-07_14h54.43.351,comp,2024.2.4,56.86760056185564,2025-03-07 14h55.07.298581 -0500,
125,125,0,critical,wdh,35.0,2.1,lower,57.0,133.0,70.0,70.0,133.0,57.0,3,2.022282600402832,None,,,,,0,0,0,0,0,125,125,32,487.92474150657654,,,,,,,,,,,,,,,,,,,,,,,,,,,,,,,,,,,,,,,,,,,,,,,,,,,,,,,,,,,,,,,,,,,,,,,,,,,,,,,,,57.0,133.0,70.0,70.0,133.0,57.0,2.1,2.11,-198,276,0,269,160,-274,487.9085991382599,487.90867257118225,487.9119734764099,487.92474150657654,488.07280135154724,488.07280135154724,488.07280135154724,488.07280135154724,488.07280135154724,488.07280135154724,488.07280135154724,489.95785903930664,3,2.022282600402832,None,,,,,,,,,,,,,,,,,,218,1,2025-03-07_14h54.43.351,comp,2024.2.4,56.86760056185564,2025-03-07 14h55.07.298581 -0500,
126,126,0,critical,hwd,35.0,4.0,lower,133.0,57.0,57.0,133.0,70.0,70.0,1,2.2526156902313232,None,,,,,0,0,0,0,0,126,126,100,489.9743318557739,,,,,,,,,,,,,,,,,,,,,,,,,,,,,,,,,,,,,,,,,,,,,,,,,,,,,,,,,,,,,,,,,,,,,,,,,,,,,,,,,133.0,57.0,57.0,133.0,70.0,70.0,4.0,4.1,-191,-286,0,16,198,-261,489.95941376686096,489.9594895839691,489.9634699821472,489.9743318557739,490.12341594696045,490.12341594696045,490.12341594696045,490.12341594696045,490.12341594696045,490.12341594696045,490.12341594696045,492.23477005958557,1,2.2526156902313232,None,,,,,,,,,,,,,,,,,,218,1,2025-03-07_14h54.43.351,comp,2024.2.4,56.86760056185564,2025-03-07 14h55.07.298581 -0500,
127,127,0,filler_square,None,None,None,None,None,None,None,None,None,None,1,2.8626556396484375,None,,,,,0,0,0,0,0,127,127,173,492.25133872032166,,,,,,,,,,,,,,,,,,,,,,,,,,,,,,,,,,,,,,,,,,,,,,,,,,,,,,,,,,,,,,,,,,,,,,,,,,,,,,,,,145.56791978649778,145.56791978649778,80.39175658321108,119.45743402397767,100.83521798629303,103.5935918510928,3.0,3.2,-229,-281,0,-10,208,272,492.23659467697144,492.2366716861725,492.2395100593567,492.25133872032166,492.39198422431946,492.39198422431946,492.39198422431946,492.39198422431946,492.39198422431946,492.39198422431946,492.39198422431946,495.12372517585754,1,2.8626556396484375,None,,,,,,,,,,,,,,,,,,218,1,2025-03-07_14h54.43.351,comp,2024.2.4,56.86760056185564,2025-03-07 14h55.07.298581 -0500,
128,128,0,critical,dwh,35.0,3.0,upper,127.0,127.0,125.0,200.0,200.0,125.0,3,2.390120029449463,None,,,,,0,0,0,0,0,128,128,63,495.14021015167236,,,,,,,,,,,,,,,,,,,,,,,,,,,,,,,,,,,,,,,,,,,,,,,,,,,,,,,,,,,,,,,,,,,,,,,,,,,,,,,,,127.0,127.0,125.0,200.0,200.0,125.0,3.0,3.2,-260,-275,0,2,258,289,495.1252689361572,495.12534856796265,495.128267288208,495.14021015167236,495.2923309803009,495.2923309803009,495.2923309803009,495.2923309803009,495.2923309803009,495.2923309803009,495.2923309803009,497.5357527732849,3,2.390120029449463,None,,,,,,,,,,,,,,,,,,218,1,2025-03-07_14h54.43.351,comp,2024.2.4,56.86760056185564,2025-03-07 14h55.07.298581 -0500,
129,129,0,critical,dwh,20.0,4.0,lower,78.0,78.0,57.0,133.0,133.0,57.0,3,2.1945178508758545,None,,,,,0,0,0,0,0,129,129,70,497.55167984962463,,,,,,,,,,,,,,,,,,,,,,,,,,,,,,,,,,,,,,,,,,,,,,,,,,,,,,,,,,,,,,,,,,,,,,,,,,,,,,,,,78.0,78.0,57.0,133.0,133.0,57.0,4.0,4.1,-202,-278,0,9,191,-268,497.53729009628296,497.5373651981354,497.54053711891174,497.55167984962463,497.69379782676697,497.69379782676697,497.69379782676697,497.69379782676697,497.69379782676697,497.69379782676697,497.69379782676697,499.75044441223145,3,2.1945178508758545,None,,,,,,,,,,,,,,,,,,218,1,2025-03-07_14h54.43.351,comp,2024.2.4,56.86760056185564,2025-03-07 14h55.07.298581 -0500,
130,130,0,critical,hwd,35.0,1.0,upper,200.0,125.0,125.0,200.0,127.0,127.0,1,3.1772234439849854,None,,,,,0,0,0,0,0,130,130,97,499.7688331604004,,,,,,,,,,,,,,,,,,,,,,,,,,,,,,,,,,,,,,,,,,,,,,,,,,,,,,,,,,,,,,,,,,,,,,,,,,,,,,,,,200.0,125.0,125.0,200.0,127.0,127.0,1.0,1.1,-738,252,-480,287,-220,282,499.7520921230316,499.75222086906433,499.75547218322754,499.7688331604004,499.90926909446716,499.90926909446716,499.90926909446716,499.90926909446716,499.90926909446716,499.90926909446716,499.90926909446716,502.96005487442017,1,3.1772234439849854,None,,,,,,,,,,,,,,,,,,218,1,2025-03-07_14h54.43.351,comp,2024.2.4,56.86760056185564,2025-03-07 14h55.07.298581 -0500,
131,131,0,filler_random,None,None,None,None,None,None,None,None,None,None,2,1.6502420902252197,None,,,,,0,0,0,0,0,131,131,168,502.97654914855957,,,,,,,,,,,,,,,,,,,,,,,,,,,,,,,,,,,,,,,,,,,,,,,,,,,,,,,,,,,,,,,,,,,,,,,,,,,,,,,,,192.60112600618766,59.52758738767363,116.74804610438733,191.68593550716093,106.46243592164333,164.1580132430905,2.2,2.21,-222,-281,0,257,274,288,502.9618167877197,502.9619424343109,502.9651460647583,502.97654914855957,503.123658657074,503.123658657074,503.123658657074,503.123658657074,503.123658657074,503.123658657074,503.123658657074,504.63073658943176,2,1.6502420902252197,None,,,,,,,,,,,,,,,,,,218,1,2025-03-07_14h54.43.351,comp,2024.2.4,56.86760056185564,2025-03-07 14h55.07.298581 -0500,
132,132,0,critical,dhw,35.0,3.0,upper,127.0,127.0,200.0,125.0,125.0,200.0,3,2.6350481510162354,None,,,,,0,0,0,0,0,132,132,51,504.64696168899536,,,,,,,,,,,,,,,,,,,,,,,,,,,,,,,,,,,,,,,,,,,,,,,,,,,,,,,,,,,,,,,,,,,,,,,,,,,,,,,,,127.0,127.0,200.0,125.0,125.0,200.0,3.0,3.2,-222,-258,0,-15,258,290,504.63235449790955,504.6324315071106,504.6353385448456,504.64696168899536,504.79482197761536,504.79482197761536,504.79482197761536,504.79482197761536,504.79482197761536,504.79482197761536,504.79482197761536,507.2947335243225,3,2.6350481510162354,None,,,,,,,,,,,,,,,,,,218,1,2025-03-07_14h54.43.351,comp,2024.2.4,56.86760056185564,2025-03-07 14h55.07.298581 -0500,
133,133,0,critical,dhw,35.0,2.1,upper,127.0,127.0,200.0,125.0,125.0,200.0,3,1.6671125888824463,None,,,,,0,0,0,0,0,133,133,25,507.3110990524292,,,,,,,,,,,,,,,,,,,,,,,,,,,,,,,,,,,,,,,,,,,,,,,,,,,,,,,,,,,,,,,,,,,,,,,,,,,,,,,,,127.0,127.0,200.0,125.0,125.0,200.0,2.1,2.11,-222,255,0,274,258,-259,507.29630875587463,507.2963807582855,507.29971385002136,507.3110990524292,507.45825576782227,507.45825576782227,507.45825576782227,507.45825576782227,507.45825576782227,507.45825576782227,507.45825576782227,508.98730659484863,3,1.6671125888824463,None,,,,,,,,,,,,,,,,,,218,1,2025-03-07_14h54.43.351,comp,2024.2.4,56.86760056185564,2025-03-07 14h55.07.298581 -0500,
134,134,0,critical,dwh,20.0,2.1,lower,78.0,78.0,57.0,133.0,133.0,57.0,3,2.1270217895507812,None,,,,,0,0,0,0,0,134,134,30,509.0034284591675,,,,,,,,,,,,,,,,,,,,,,,,,,,,,,,,,,,,,,,,,,,,,,,,,,,,,,,,,,,,,,,,,,,,,,,,,,,,,,,,,78.0,78.0,57.0,133.0,133.0,57.0,2.1,2.11,-202,278,0,286,191,-290,508.9888606071472,508.988970041275,508.99227952957153,509.0034284591675,509.1461536884308,509.1461536884308,509.1461536884308,509.1461536884308,509.1461536884308,509.1461536884308,509.1461536884308,511.1466944217682,3,2.1270217895507812,None,,,,,,,,,,,,,,,,,,218,1,2025-03-07_14h54.43.351,comp,2024.2.4,56.86760056185564,2025-03-07 14h55.07.298581 -0500,
135,135,0,critical,hdw,20.0,1.0,lower,133.0,57.0,78.0,78.0,57.0,133.0,1,2.103010892868042,None,,,,,0,0,0,0,0,135,135,114,511.16302847862244,,,,,,,,,,,,,,,,,,,,,,,,,,,,,,,,,,,,,,,,,,,,,,,,,,,,,,,,,,,,,,,,,,,,,,,,,,,,,,,,,133.0,57.0,78.0,78.0,57.0,133.0,1.0,1.1,-644,273,-480,260,-278,251,511.14832854270935,511.1484010219574,511.1518518924713,511.16302847862244,511.312668800354,511.312668800354,511.312668800354,511.312668800354,511.312668800354,511.312668800354,511.312668800354,513.2811312675476,1,2.103010892868042,None,,,,,,,,,,,,,,,,,,218,1,2025-03-07_14h54.43.351,comp,2024.2.4,56.86760056185564,2025-03-07 14h55.07.298581 -0500,
136,136,0,filler_square,None,None,None,None,None,None,None,None,None,None,3,1.209331750869751,None,,,,,0,0,0,0,0,136,136,170,513.2966463565826,,,,,,,,,,,,,,,,,,,,,,,,,,,,,,,,,,,,,,,,,,,,,,,,,,,,,,,,,,,,,,,,,,,,,,,,,,,,,,,,,139.48813670106085,110.37776682995809,83.24719787187817,117.90305155214604,180.05552865222,180.05552865222,3.0,3.2,-210,-258,0,-8,245,275,513.2828876972198,513.282990694046,513.2863185405731,513.2966463565826,513.4459807872772,513.4459807872772,513.4459807872772,513.4459807872772,513.4459807872772,513.4459807872772,513.4459807872772,514.5189578533173,3,1.209331750869751,None,,,,,,,,,,,,,,,,,,218,1,2025-03-07_14h54.43.351,comp,2024.2.4,56.86760056185564,2025-03-07 14h55.07.298581 -0500,
137,137,0,filler_square,None,None,None,None,None,None,None,None,None,None,3,0.8715128898620605,None,,,,,0,0,0,0,0,137,137,196,514.5393035411835,,,,,,,,,,,,,,,,,,,,,,,,,,,,,,,,,,,,,,,,,,,,,,,,,,,,,,,,,,,,,,,,,,,,,,,,,,,,,,,,,122.42445407076984,62.13055766843774,60.815373171652396,123.85851413926531,134.32811557696235,134.32811557696235,4.0,4.2,-189,-17,0,-268,225,-17,514.5207731723785,514.5208535194397,514.5236744880676,514.5393035411835,514.6821103096008,514.6821103096008,514.6821103096008,514.6821103096008,514.6821103096008,514.6821103096008,514.6821103096008,515.4153518676758,3,0.8715128898620605,None,,,,,,,,,,,,,,,,,,218,1,2025-03-07_14h54.43.351,comp,2024.2.4,56.86760056185564,2025-03-07 14h55.07.298581 -0500,
138,138,0,filler_square,None,None,None,None,None,None,None,None,None,None,3,0.7541205883026123,None,,,,,0,0,0,0,0,138,138,181,515.4319524765015,,,,,,,,,,,,,,,,,,,,,,,,,,,,,,,,,,,,,,,,,,,,,,,,,,,,,,,,,,,,,,,,,,,,,,,,,,,,,,,,,96.51588028697819,65.40637962868563,132.56514617546864,97.36174405128749,161.2845098046531,161.2845098046531,2.1,2.12,-177,-265,0,-261,225,272,515.4172163009644,515.4172971248627,515.4206414222717,515.4319524765015,515.5808699131012,515.5808699131012,515.5808699131012,515.5808699131012,515.5808699131012,515.5808699131012,515.5808699131012,516.1977410316467,3,0.7541205883026123,None,,,,,,,,,,,,,,,,,,218,1,2025-03-07_14h54.43.351,comp,2024.2.4,56.86760056185564,2025-03-07 14h55.07.298581 -0500,
139,139,0,catch,None,None,None,None,None,None,None,None,None,None,3,0.9113731384277344,None,,,,,0,0,0,0,0,139,139,129,516.2186274528503,,,,,,,,,,,,,,,,,,,,,,,,,,,,,,,,,,,,,,,,,,,,,,,,,,,,,,,,,,,,,,,,,,,,,,,,,,,,,,,,,64,126,129,61,183,142,2.1,2.11,-190,283,0,254,198,-252,516.1996517181396,516.1997270584106,516.2028679847717,516.2186274528503,516.3651041984558,516.3651041984558,516.3651041984558,516.3651041984558,516.3651041984558,516.3651041984558,516.3651041984558,517.1327867507935,3,0.9113731384277344,None,,,,,,,,,,,,,,,,,,218,1,2025-03-07_14h54.43.351,comp,2024.2.4,56.86760056185564,2025-03-07 14h55.07.298581 -0500,
