thisN,thisTrialN,thisRepN,effect,order,distance,config,diag,h_1,w_1,h_2,w_2,h_3,w_3,rect_choice.keys,rect_choice.rt,rect_choice.duration,instructions_loop.thisRepN,instructions_loop.thisTrialN,instructions_loop.thisN,instructions_loop.thisIndex,blocks.thisRepN,blocks.thisTrialN,blocks.thisN,blocks.thisIndex,trials.thisRepN,trials.thisTrialN,trials.thisN,trials.thisIndex,thisRow.t,notes,consent.started,agree_button.started,decline_button.started,consent_img.started,mouse.started,consent.stopped,agree_button.numClicks,agree_button.timesOn,agree_button.timesOff,decline_button.numClicks,decline_button.timesOn,decline_button.timesOff,mouse.x,mouse.y,mouse.leftButton,mouse.midButton,mouse.rightButton,mouse.time,mouse.clicked_name,exp_params.started,exp_params.stopped,welcome.started,welcome_text.started,welcome.stopped,instructions_1.started,instructions_1_text_1.started,instructions_1_text_2.started,key_resp.started,instructions_1.stopped,instructions_loop.key_resp.keys,instructions_loop.key_resp.rt,instructions_loop.key_resp.duration,instructions_2.started,instructions_2_text_1.started,instructions_2_text_2.started,key_resp_2.started,instructions_2.stopped,instructions_loop.key_resp_2.keys,instructions_loop.key_resp_2.rt,instructions_loop.key_resp_2.duration,instructions_3.started,instructions_3_text_1.started,r1_instr3.started,r2_instr3.started,r3_instr3.started,r1_instr3_label.started,r2_instr3_label.started,r3_instr3_label.started,instructions_3_text_3.started,instructions_3_text_4.started,key_resp_3.started,instructions_3.stopped,instructions_loop.key_resp_3.keys,instructions_loop.key_resp_3.rt,instructions_loop.key_resp_3.duration,instructions_4.started,instructions_4_text_1.started,instructions_4_text_3.started,instructions_4_text_2.started,key_resp_4.started,instructions_4.stopped,instructions_loop.key_resp_4.keys,instructions_loop.key_resp_4.rt,instructions_loop.key_resp_4.duration,instructions_5.started,instructions_5_text_1.started,instructions_5_text_2.started,key_resp_5.started,instructions_5.stopped,instructions_loop.key_resp_5.keys,instructions_loop.key_resp_5.rt,instructions_loop.key_resp_5.duration,start_exp.started,start_exp_text.started,key_resp_6.started,start_exp.stopped,key_resp_6.keys,key_resp_6.rt,key_resp_6.duration,h_1_tmp,w_1_tmp,h_2_tmp,w_2_tmp,h_3_tmp,w_3_tmp,config_tmp,config_tmp_1,r_1_x,r_1_y,r_2_x,r_2_y,r_3_x,r_3_y,pre_trial.started,pre_trial.stopped,choice_trial.started,rect_choice.started,r_1.started,r_2.started,r_3.started,r_1_label.started,r_2_label.started,r_3_label.started,prompt.started,choice_trial.stopped,trials.rect_choice.keys,trials.rect_choice.rt,trials.rect_choice.duration,end_block.started,end_block_text.started,end_block.stopped,end.started,end_text.started,key_resp_7.started,end.stopped,key_resp_7.keys,key_resp_7.rt,key_resp_7.duration,debriefing.started,debrief_form.started,end_debrief.started,debriefing.stopped,end_debrief.keys,end_debrief.rt,end_debrief.duration,participant,computer,date,expName,psychopyVersion,frameRate,expStart,
,,,,,,,,,,,,,,,,,,,,,,,,,,,,,,,0.01458430290222168,0.03637981414794922,0.03637981414794922,0.03637981414794922,0.014360904693603516,34.36252808570862,1,[34.323607444763184],[34.323630571365356],0,,,[-68.0],[-504.0],[1],[0],[0],[34.34754776954651],['agree_button'],,,,,,,,,,,,,,,,,,,,,,,,,,,,,,,,,,,,,,,,,,,,,,,,,,,,,,,,,,,,,,,,,,,,,,,,,,,,,,,,,,,,,,,,,,,,,,,,,,,,,,,,,,,219,2,2025-03-07_14h57.20.534,comp,2024.2.4,54.68275479938724,2025-03-07 14h57.31.560039 -0500,
,,,,,,,,,,,,,,,,,,,,,,,,,,,,,,,,,,,,,,,,,,,,,,,,,,34.363035440444946,34.363128900527954,,,,,,,,,,,,,,,,,,,,,,,,,,,,,,,,,,,,,,,,,,,,,,,,,,,,,,,,,,,,,,,,,,,,,,,,,,,,,,,,,,,,,,,,,,,,,,,,,,,,,,,,,219,2,2025-03-07_14h57.20.534,comp,2024.2.4,54.68275479938724,2025-03-07 14h57.31.560039 -0500,
,,,,,,,,,,,,,,,,,,,,,,,,,,,,,,,,,,,,,,,,,,,,,,,,,,,,34.36317539215088,34.378713607788086,36.364734172821045,,,,,,,,,,,,,,,,,,,,,,,,,,,,,,,,,,,,,,,,,,,,,,,,,,,,,,,,,,,,,,,,,,,,,,,,,,,,,,,,,,,,,,,,,,,,,,,,,,,,,,219,2,2025-03-07_14h57.20.534,comp,2024.2.4,54.68275479938724,2025-03-07 14h57.31.560039 -0500,
0,0,0,,,,,,,,,,,,,,,0,0,0,0,,,,,,,,,36.381309032440186,,,,,,,,,,,,,,,,,,,,,,,,,,36.36561417579651,36.381309032440186,36.381309032440186,37.865294218063354,44.03431439399719,space,6.16363263130188,None,44.03446435928345,44.05080223083496,44.05080223083496,45.5531792640686,51.556060791015625,space,5.995949029922485,None,51.556251764297485,51.584718227386475,51.584718227386475,51.584718227386475,51.584718227386475,51.584718227386475,51.584718227386475,51.584718227386475,51.584718227386475,51.584718227386475,53.05280780792236,56.45730018615723,space,3.391414165496826,None,56.457470178604126,56.475345611572266,56.475345611572266,56.475345611572266,57.97248077392578,62.07365822792053,space,4.088342666625977,None,62.073816776275635,62.089492082595825,62.089492082595825,63.573182582855225,64.74126243591309,space,1.1511328220367432,None,64.74146127700806,64.75681042671204,64.75681042671204,66.64227676391602,space,1.8716418743133545,None,,,,,,,,,,,,,,,,,,,,,,,,,,,,,,,,,,,,,,,,,,,,,,,219,2,2025-03-07_14h57.20.534,comp,2024.2.4,54.68275479938724,2025-03-07 14h57.31.560039 -0500,
0,0,0,filler_square,None,None,None,None,None,None,None,None,None,None,2,1.331254005432129,None,,,,,0,0,0,0,0,0,0,204,66.72185325622559,,,,,,,,,,,,,,,,,,,,,,,,,,,,,,,,,,,,,,,,,,,,,,,,,,,,,,,,,,,,,,,,,,,,,,,,,,,,,,,,,148.12443388329325,114.20251508251661,162.80264855542583,162.80264855542583,73.51142756942623,67.04916550458415,1.0,1.1,-715,280,-480,263,-269,269,66.70544505119324,66.70547723770142,66.70675253868103,66.72185325622559,66.86584973335266,66.86584973335266,66.86584973335266,66.86584973335266,66.86584973335266,66.86584973335266,66.86584973335266,68.05747961997986,2,1.331254005432129,None,,,,,,,,,,,,,,,,,,219,2,2025-03-07_14h57.20.534,comp,2024.2.4,54.68275479938724,2025-03-07 14h57.31.560039 -0500,
1,1,0,filler_square,None,None,None,None,None,None,None,None,None,None,3,6.570482492446899,None,,,,,0,0,0,0,0,1,1,175,68.0738878250122,,,,,,,,,,,,,,,,,,,,,,,,,,,,,,,,,,,,,,,,,,,,,,,,,,,,,,,,,,,,,,,,,,,,,,,,,,,,,,,,,57.399067410683536,57.399067410683536,57.32911366188938,57.03871456473406,57.300441818576346,57.31129154954495,2.1,2.11,-153,261,0,263,153,-258,68.05928683280945,68.0593581199646,68.06203103065491,68.0738878250122,68.22586607933044,68.22586607933044,68.22586607933044,68.22586607933044,68.22586607933044,68.22586607933044,68.22586607933044,74.66118717193604,3,6.570482492446899,None,,,,,,,,,,,,,,,,,,219,2,2025-03-07_14h57.20.534,comp,2024.2.4,54.68275479938724,2025-03-07 14h57.31.560039 -0500,
2,2,0,critical,hdw,35.0,2.1,lower,133.0,57.0,70.0,70.0,57.0,133.0,1,4.5835630893707275,None,,,,,0,0,0,0,0,2,2,20,74.67707180976868,,,,,,,,,,,,,,,,,,,,,,,,,,,,,,,,,,,,,,,,,,,,,,,,,,,,,,,,,,,,,,,,,,,,,,,,,,,,,,,,,133.0,57.0,70.0,70.0,57.0,133.0,2.1,2.12,-160,-259,0,-252,198,282,74.66288828849792,74.66302728652954,74.66657304763794,74.67707180976868,74.82950615882874,74.82950615882874,74.82950615882874,74.82950615882874,74.82950615882874,74.82950615882874,74.82950615882874,79.27893567085266,1,4.5835630893707275,None,,,,,,,,,,,,,,,,,,219,2,2025-03-07_14h57.20.534,comp,2024.2.4,54.68275479938724,2025-03-07 14h57.31.560039 -0500,
3,3,0,critical,dhw,20.0,2.1,upper,141.0,141.0,200.0,125.0,125.0,200.0,3,5.650529861450195,None,,,,,0,0,0,0,0,3,3,3,79.29786562919617,,,,,,,,,,,,,,,,,,,,,,,,,,,,,,,,,,,,,,,,,,,,,,,,,,,,,,,,,,,,,,,,,,,,,,,,,,,,,,,,,141.0,141.0,200.0,125.0,125.0,200.0,2.1,2.11,-229,257,0,262,258,-261,79.28056716918945,79.28064894676208,79.28403973579407,79.29786562919617,79.43255138397217,79.43255138397217,79.43255138397217,79.43255138397217,79.43255138397217,79.43255138397217,79.43255138397217,84.96334028244019,3,5.650529861450195,None,,,,,,,,,,,,,,,,,,219,2,2025-03-07_14h57.20.534,comp,2024.2.4,54.68275479938724,2025-03-07 14h57.31.560039 -0500,
4,4,0,critical,hwd,35.0,2.1,upper,200.0,125.0,125.0,200.0,127.0,127.0,2,4.001526832580566,None,,,,,0,0,0,0,0,4,4,17,84.97897577285767,,,,,,,,,,,,,,,,,,,,,,,,,,,,,,,,,,,,,,,,,,,,,,,,,,,,,,,,,,,,,,,,,,,,,,,,,,,,,,,,,200.0,125.0,125.0,200.0,127.0,127.0,2.1,2.12,-258,-282,0,-286,260,266,84.96482729911804,84.96490168571472,84.96803593635559,84.97897577285767,85.13008093833923,85.13008093833923,85.13008093833923,85.13008093833923,85.13008093833923,85.13008093833923,85.13008093833923,88.99847531318665,2,4.001526832580566,None,,,,,,,,,,,,,,,,,,219,2,2025-03-07_14h57.20.534,comp,2024.2.4,54.68275479938724,2025-03-07 14h57.31.560039 -0500,
5,5,0,critical,wdh,35.0,2.1,upper,125.0,200.0,127.0,127.0,200.0,125.0,1,2.229832410812378,None,,,,,0,0,0,0,0,5,5,9,89.01452779769897,,,,,,,,,,,,,,,,,,,,,,,,,,,,,,,,,,,,,,,,,,,,,,,,,,,,,,,,,,,,,,,,,,,,,,,,,,,,,,,,,125.0,200.0,127.0,127.0,200.0,125.0,2.1,2.11,-260,256,0,264,222,-282,88.99997663497925,89.00005173683167,89.00324821472168,89.01452779769897,89.16541481018066,89.16541481018066,89.16541481018066,89.16541481018066,89.16541481018066,89.16541481018066,89.16541481018066,91.2572660446167,1,2.229832410812378,None,,,,,,,,,,,,,,,,,,219,2,2025-03-07_14h57.20.534,comp,2024.2.4,54.68275479938724,2025-03-07 14h57.31.560039 -0500,
6,6,0,filler_random,None,None,None,None,None,None,None,None,None,None,2,1.5921716690063477,None,,,,,0,0,0,0,0,6,6,148,91.27618718147278,,,,,,,,,,,,,,,,,,,,,,,,,,,,,,,,,,,,,,,,,,,,,,,,,,,,,,,,,,,,,,,,,,,,,,,,,,,,,,,,,172.0174629560561,105.92509958066023,190.1122761113792,164.6165992274823,156.1602845368674,80.90364680145919,2.2,2.21,-231,-266,0,274,219,281,91.25888562202454,91.25896334648132,91.26198172569275,91.27618718147278,91.41834115982056,91.41834115982056,91.41834115982056,91.41834115982056,91.41834115982056,91.41834115982056,91.41834115982056,92.88255000114441,2,1.5921716690063477,None,,,,,,,,,,,,,,,,,,219,2,2025-03-07_14h57.20.534,comp,2024.2.4,54.68275479938724,2025-03-07 14h57.31.560039 -0500,
7,7,0,critical,hdw,20.0,2.1,lower,133.0,57.0,78.0,78.0,57.0,133.0,3,3.953308582305908,None,,,,,0,0,0,0,0,7,7,46,92.89919972419739,,,,,,,,,,,,,,,,,,,,,,,,,,,,,,,,,,,,,,,,,,,,,,,,,,,,,,,,,,,,,,,,,,,,,,,,,,,,,,,,,133.0,57.0,78.0,78.0,57.0,133.0,2.1,2.11,-164,283,0,280,202,-267,92.88420915603638,92.88431906700134,92.88777709007263,92.89919972419739,93.0366702079773,93.0366702079773,93.0366702079773,93.0366702079773,93.0366702079773,93.0366702079773,93.0366702079773,96.85755681991577,3,3.953308582305908,None,,,,,,,,,,,,,,,,,,219,2,2025-03-07_14h57.20.534,comp,2024.2.4,54.68275479938724,2025-03-07 14h57.31.560039 -0500,
8,8,0,critical,wdh,20.0,1.0,lower,57.0,133.0,78.0,78.0,133.0,57.0,1,5.915706396102905,None,,,,,0,0,0,0,0,8,8,78,96.87294459342957,,,,,,,,,,,,,,,,,,,,,,,,,,,,,,,,,,,,,,,,,,,,,,,,,,,,,,,,,,,,,,,,,,,,,,,,,,,,,,,,,57.0,133.0,78.0,78.0,133.0,57.0,1.0,1.3,278,-250,480,-251,644,-257,96.85905933380127,96.85916066169739,96.86213779449463,96.87294459342957,97.01758885383606,97.01758885383606,97.01758885383606,97.01758885383606,97.01758885383606,97.01758885383606,97.01758885383606,102.790687084198,1,5.915706396102905,None,,,,,,,,,,,,,,,,,,219,2,2025-03-07_14h57.20.534,comp,2024.2.4,54.68275479938724,2025-03-07 14h57.31.560039 -0500,
9,9,0,critical,dwh,20.0,4.0,upper,141.0,141.0,125.0,200.0,200.0,125.0,2,3.973695755004883,None,,,,,0,0,0,0,0,9,9,71,102.80796575546265,,,,,,,,,,,,,,,,,,,,,,,,,,,,,,,,,,,,,,,,,,,,,,,,,,,,,,,,,,,,,,,,,,,,,,,,,,,,,,,,,141.0,141.0,125.0,200.0,200.0,125.0,4.0,4.2,-266,4,0,-267,258,-15,102.79246592521667,102.79257273674011,102.7962543964386,102.80796575546265,102.9556839466095,102.9556839466095,102.9556839466095,102.9556839466095,102.9556839466095,102.9556839466095,102.9556839466095,106.78851747512817,2,3.973695755004883,None,,,,,,,,,,,,,,,,,,219,2,2025-03-07_14h57.20.534,comp,2024.2.4,54.68275479938724,2025-03-07 14h57.31.560039 -0500,
10,10,0,critical,hdw,35.0,2.1,upper,200.0,125.0,127.0,127.0,125.0,200.0,3,2.7065658569335938,None,,,,,0,0,0,0,0,10,10,45,106.80970668792725,,,,,,,,,,,,,,,,,,,,,,,,,,,,,,,,,,,,,,,,,,,,,,,,,,,,,,,,,,,,,,,,,,,,,,,,,,,,,,,,,200.0,125.0,127.0,127.0,125.0,200.0,2.1,2.11,-222,286,0,263,260,-272,106.79006552696228,106.79018568992615,106.79326391220093,106.80970668792725,106.95503854751587,106.95503854751587,106.95503854751587,106.95503854751587,106.95503854751587,106.95503854751587,106.95503854751587,109.53137636184692,3,2.7065658569335938,None,,,,,,,,,,,,,,,,,,219,2,2025-03-07_14h57.20.534,comp,2024.2.4,54.68275479938724,2025-03-07 14h57.31.560039 -0500,
11,11,0,critical,wdh,20.0,2.1,upper,125.0,200.0,141.0,141.0,200.0,125.0,1,2.726714611053467,None,,,,,0,0,0,0,0,11,11,11,109.54968118667603,,,,,,,,,,,,,,,,,,,,,,,,,,,,,,,,,,,,,,,,,,,,,,,,,,,,,,,,,,,,,,,,,,,,,,,,,,,,,,,,,125.0,200.0,141.0,141.0,200.0,125.0,2.1,2.11,-266,256,0,260,229,-259,109.53292322158813,109.53300404548645,109.53603219985962,109.54968118667603,109.68835473060608,109.68835473060608,109.68835473060608,109.68835473060608,109.68835473060608,109.68835473060608,109.68835473060608,112.29094338417053,1,2.726714611053467,None,,,,,,,,,,,,,,,,,,219,2,2025-03-07_14h57.20.534,comp,2024.2.4,54.68275479938724,2025-03-07 14h57.31.560039 -0500,
12,12,0,filler_square,None,None,None,None,None,None,None,None,None,None,3,2.043996572494507,None,,,,,0,0,0,0,0,12,12,171,112.3067991733551,,,,,,,,,,,,,,,,,,,,,,,,,,,,,,,,,,,,,,,,,,,,,,,,,,,,,,,,,,,,,,,,,,,,,,,,,,,,,,,,,109.3632204581933,67.4378554230999,96.40913415917882,78.84682208443652,130.04301954640133,130.04301954640133,3.0,3.2,-169,-268,0,19,200,283,112.29287838935852,112.29299592971802,112.29638385772705,112.3067991733551,112.44870281219482,112.44870281219482,112.44870281219482,112.44870281219482,112.44870281219482,112.44870281219482,112.44870281219482,114.3562216758728,3,2.043996572494507,None,,,,,,,,,,,,,,,,,,219,2,2025-03-07_14h57.20.534,comp,2024.2.4,54.68275479938724,2025-03-07 14h57.31.560039 -0500,
13,13,0,filler_square,None,None,None,None,None,None,None,None,None,None,1,2.0591208934783936,None,,,,,0,0,0,0,0,13,13,180,114.37752985954285,,,,,,,,,,,,,,,,,,,,,,,,,,,,,,,,,,,,,,,,,,,,,,,,,,,,,,,,,,,,,,,,,,,,,,,,,,,,,,,,,103.04702783144003,103.04702783144003,67.3501716513226,101.05698933354225,58.76897674121476,96.26894203210041,4.0,4.2,-198,8,0,-260,195,-11,114.35825538635254,114.3583357334137,114.36214709281921,114.37752985954285,114.52380466461182,114.52380466461182,114.52380466461182,114.52380466461182,114.52380466461182,114.52380466461182,114.52380466461182,116.44020342826843,1,2.0591208934783936,None,,,,,,,,,,,,,,,,,,219,2,2025-03-07_14h57.20.534,comp,2024.2.4,54.68275479938724,2025-03-07 14h57.31.560039 -0500,
14,14,0,critical,wdh,35.0,2.1,upper,125.0,200.0,127.0,127.0,200.0,125.0,1,3.579833507537842,None,,,,,0,0,0,0,0,14,14,33,116.45653533935547,,,,,,,,,,,,,,,,,,,,,,,,,,,,,,,,,,,,,,,,,,,,,,,,,,,,,,,,,,,,,,,,,,,,,,,,,,,,,,,,,125.0,200.0,127.0,127.0,200.0,125.0,2.1,2.12,-260,-255,0,-266,222,264,116.44171357154846,116.4417896270752,116.44493889808655,116.45653533935547,116.61075925827026,116.61075925827026,116.61075925827026,116.61075925827026,116.61075925827026,116.61075925827026,116.61075925827026,120.05461597442627,1,3.579833507537842,None,,,,,,,,,,,,,,,,,,219,2,2025-03-07_14h57.20.534,comp,2024.2.4,54.68275479938724,2025-03-07 14h57.31.560039 -0500,
15,15,0,critical,dhw,35.0,4.0,lower,70.0,70.0,133.0,57.0,57.0,133.0,3,3.8364810943603516,None,,,,,0,0,0,0,0,15,15,52,120.07261562347412,,,,,,,,,,,,,,,,,,,,,,,,,,,,,,,,,,,,,,,,,,,,,,,,,,,,,,,,,,,,,,,,,,,,,,,,,,,,,,,,,70.0,70.0,133.0,57.0,57.0,133.0,4.0,4.2,-160,20,0,-277,191,-7,120.05628991127014,120.0564215183258,120.05982041358948,120.07261562347412,120.20890021324158,120.20890021324158,120.20890021324158,120.20890021324158,120.20890021324158,120.20890021324158,120.20890021324158,123.91487097740173,3,3.8364810943603516,None,,,,,,,,,,,,,,,,,,219,2,2025-03-07_14h57.20.534,comp,2024.2.4,54.68275479938724,2025-03-07 14h57.31.560039 -0500,
16,16,0,critical,hwd,20.0,3.0,upper,200.0,125.0,125.0,200.0,141.0,141.0,2,2.249598979949951,None,,,,,0,0,0,0,0,16,16,105,123.93091607093811,,,,,,,,,,,,,,,,,,,,,,,,,,,,,,,,,,,,,,,,,,,,,,,,,,,,,,,,,,,,,,,,,,,,,,,,,,,,,,,,,200.0,125.0,125.0,200.0,141.0,141.0,3.0,3.2,-258,-283,0,5,266,262,123.91678977012634,123.91687059402466,123.91996455192566,123.93091607093811,124.08061242103577,124.08061242103577,124.08061242103577,124.08061242103577,124.08061242103577,124.08061242103577,124.08061242103577,126.19518709182739,2,2.249598979949951,None,,,,,,,,,,,,,,,,,,219,2,2025-03-07_14h57.20.534,comp,2024.2.4,54.68275479938724,2025-03-07 14h57.31.560039 -0500,
17,17,0,filler_random,None,None,None,None,None,None,None,None,None,None,1,1.9129326343536377,None,,,,,0,0,0,0,0,17,17,167,126.21143817901611,,,,,,,,,,,,,,,,,,,,,,,,,,,,,,,,,,,,,,,,,,,,,,,,,,,,,,,,,,,,,,,,,,,,,,,,,,,,,,,,,130.0259839429943,193.27450360610587,120.8967176133115,155.51985783398828,93.70542831972789,102.56773296068442,2.1,2.12,-270,-250,0,-288,225,256,126.19721817970276,126.1973226070404,126.20103716850281,126.21143817901611,126.36644744873047,126.36644744873047,126.36644744873047,126.36644744873047,126.36644744873047,126.36644744873047,126.36644744873047,128.14342713356018,1,1.9129326343536377,None,,,,,,,,,,,,,,,,,,219,2,2025-03-07_14h57.20.534,comp,2024.2.4,54.68275479938724,2025-03-07 14h57.31.560039 -0500,
18,18,0,critical,wdh,35.0,3.0,lower,57.0,133.0,70.0,70.0,133.0,57.0,1,2.752638578414917,None,,,,,0,0,0,0,0,18,18,74,128.16360878944397,,,,,,,,,,,,,,,,,,,,,,,,,,,,,,,,,,,,,,,,,,,,,,,,,,,,,,,,,,,,,,,,,,,,,,,,,,,,,,,,,57.0,133.0,70.0,70.0,133.0,57.0,3.0,3.2,-198,-251,0,17,160,283,128.1450252532959,128.14514088630676,128.14837884902954,128.16360878944397,128.29803371429443,128.29803371429443,128.29803371429443,128.29803371429443,128.29803371429443,128.29803371429443,128.29803371429443,130.9295198917389,1,2.752638578414917,None,,,,,,,,,,,,,,,,,,219,2,2025-03-07_14h57.20.534,comp,2024.2.4,54.68275479938724,2025-03-07 14h57.31.560039 -0500,
19,19,0,critical,dhw,20.0,2.1,upper,141.0,141.0,200.0,125.0,125.0,200.0,3,2.13815975189209,None,,,,,0,0,0,0,0,19,19,27,130.94615650177002,,,,,,,,,,,,,,,,,,,,,,,,,,,,,,,,,,,,,,,,,,,,,,,,,,,,,,,,,,,,,,,,,,,,,,,,,,,,,,,,,141.0,141.0,200.0,125.0,125.0,200.0,2.1,2.12,-229,-251,0,-275,258,285,130.93119621276855,130.9312732219696,130.9348120689392,130.94615650177002,131.09412813186646,131.09412813186646,131.09412813186646,131.09412813186646,131.09412813186646,131.09412813186646,131.09412813186646,133.09666991233826,3,2.13815975189209,None,,,,,,,,,,,,,,,,,,219,2,2025-03-07_14h57.20.534,comp,2024.2.4,54.68275479938724,2025-03-07 14h57.31.560039 -0500,
20,20,0,critical,whd,35.0,4.0,lower,57.0,133.0,133.0,57.0,70.0,70.0,1,3.3462352752685547,None,,,,,0,0,0,0,0,20,20,88,133.11476874351501,,,,,,,,,,,,,,,,,,,,,,,,,,,,,,,,,,,,,,,,,,,,,,,,,,,,,,,,,,,,,,,,,,,,,,,,,,,,,,,,,57.0,133.0,133.0,57.0,70.0,70.0,4.0,4.2,-191,12,0,-255,160,9,133.09824419021606,133.09832453727722,133.1015968322754,133.11476874351501,133.2631859779358,133.2631859779358,133.2631859779358,133.2631859779358,133.2631859779358,133.2631859779358,133.2631859779358,136.4666485786438,1,3.3462352752685547,None,,,,,,,,,,,,,,,,,,219,2,2025-03-07_14h57.20.534,comp,2024.2.4,54.68275479938724,2025-03-07 14h57.31.560039 -0500,
21,21,0,critical,hwd,20.0,4.0,lower,133.0,57.0,57.0,133.0,78.0,78.0,2,3.6174943447113037,None,,,,,0,0,0,0,0,21,21,106,136.4828586578369,,,,,,,,,,,,,,,,,,,,,,,,,,,,,,,,,,,,,,,,,,,,,,,,,,,,,,,,,,,,,,,,,,,,,,,,,,,,,,,,,133.0,57.0,57.0,133.0,78.0,78.0,4.0,4.2,-191,8,0,-265,202,1,136.46888065338135,136.46896362304688,136.4720401763916,136.4828586578369,136.63149642944336,136.63149642944336,136.63149642944336,136.63149642944336,136.63149642944336,136.63149642944336,136.63149642944336,140.1174304485321,2,3.6174943447113037,None,,,,,,,,,,,,,,,,,,219,2,2025-03-07_14h57.20.534,comp,2024.2.4,54.68275479938724,2025-03-07 14h57.31.560039 -0500,
22,22,0,filler_random,None,None,None,None,None,None,None,None,None,None,1,1.6870317459106445,None,,,,,0,0,0,0,0,22,22,139,140.13391971588135,,,,,,,,,,,,,,,,,,,,,,,,,,,,,,,,,,,,,,,,,,,,,,,,,,,,,,,,,,,,,,,,,,,,,,,,,,,,,,,,,195.80702176898964,189.18271577414365,163.33083054129776,158.66629570061124,84.43095702836645,59.42951144644288,3.0,3.1,-270,289,0,8,205,-259,140.11943221092224,140.11950826644897,140.12349772453308,140.13391971588135,140.28215551376343,140.28215551376343,140.28215551376343,140.28215551376343,140.28215551376343,140.28215551376343,140.28215551376343,141.82415509223938,1,1.6870317459106445,None,,,,,,,,,,,,,,,,,,219,2,2025-03-07_14h57.20.534,comp,2024.2.4,54.68275479938724,2025-03-07 14h57.31.560039 -0500,
23,23,0,critical,hwd,20.0,1.0,lower,133.0,57.0,57.0,133.0,78.0,78.0,1,4.260582208633423,None,,,,,0,0,0,0,0,23,23,102,141.83966612815857,,,,,,,,,,,,,,,,,,,,,,,,,,,,,,,,,,,,,,,,,,,,,,,,,,,,,,,,,,,,,,,,,,,,,,,,,,,,,,,,,133.0,57.0,57.0,133.0,78.0,78.0,1.0,1.3,289,-274,480,-259,682,-266,141.82565593719482,141.82573318481445,141.82874584197998,141.83966612815857,141.98236989974976,141.98236989974976,141.98236989974976,141.98236989974976,141.98236989974976,141.98236989974976,141.98236989974976,146.11814880371094,1,4.260582208633423,None,,,,,,,,,,,,,,,,,,219,2,2025-03-07_14h57.20.534,comp,2024.2.4,54.68275479938724,2025-03-07 14h57.31.560039 -0500,
24,24,0,critical,dwh,35.0,2.1,upper,127.0,127.0,125.0,200.0,200.0,125.0,2,2.207073450088501,None,,,,,0,0,0,0,0,24,24,5,146.13434624671936,,,,,,,,,,,,,,,,,,,,,,,,,,,,,,,,,,,,,,,,,,,,,,,,,,,,,,,,,,,,,,,,,,,,,,,,,,,,,,,,,127.0,127.0,125.0,200.0,200.0,125.0,2.1,2.11,-260,278,0,275,258,-275,146.11977791786194,146.11988043785095,146.1233353614807,146.13434624671936,146.2849462032318,146.2849462032318,146.2849462032318,146.2849462032318,146.2849462032318,146.2849462032318,146.2849462032318,148.35228824615479,2,2.207073450088501,None,,,,,,,,,,,,,,,,,,219,2,2025-03-07_14h57.20.534,comp,2024.2.4,54.68275479938724,2025-03-07 14h57.31.560039 -0500,
25,25,0,critical,whd,35.0,4.0,upper,125.0,200.0,200.0,125.0,127.0,127.0,1,3.051699638366699,None,,,,,0,0,0,0,0,25,25,89,148.36858248710632,,,,,,,,,,,,,,,,,,,,,,,,,,,,,,,,,,,,,,,,,,,,,,,,,,,,,,,,,,,,,,,,,,,,,,,,,,,,,,,,,125.0,200.0,200.0,125.0,127.0,127.0,4.0,4.1,-258,-283,0,18,222,-273,148.3539171218872,148.35401844978333,148.3576328754425,148.36858248710632,148.5163164138794,148.5163164138794,148.5163164138794,148.5163164138794,148.5163164138794,148.5163164138794,148.5163164138794,151.4358959197998,1,3.051699638366699,None,,,,,,,,,,,,,,,,,,219,2,2025-03-07_14h57.20.534,comp,2024.2.4,54.68275479938724,2025-03-07 14h57.31.560039 -0500,
26,26,0,critical,hdw,20.0,4.0,lower,133.0,57.0,78.0,78.0,57.0,133.0,3,4.04070782661438,None,,,,,0,0,0,0,0,26,26,118,151.45175170898438,,,,,,,,,,,,,,,,,,,,,,,,,,,,,,,,,,,,,,,,,,,,,,,,,,,,,,,,,,,,,,,,,,,,,,,,,,,,,,,,,133.0,57.0,78.0,78.0,57.0,133.0,4.0,4.1,-164,-271,0,-11,202,-276,151.43745374679565,151.43753170967102,151.44122314453125,151.45175170898438,151.60575556755066,151.60575556755066,151.60575556755066,151.60575556755066,151.60575556755066,151.60575556755066,151.60575556755066,155.50756883621216,3,4.04070782661438,None,,,,,,,,,,,,,,,,,,219,2,2025-03-07_14h57.20.534,comp,2024.2.4,54.68275479938724,2025-03-07 14h57.31.560039 -0500,
27,27,0,filler_random,None,None,None,None,None,None,None,None,None,None,2,1.632469654083252,None,,,,,0,0,0,0,0,27,27,131,155.52385234832764,,,,,,,,,,,,,,,,,,,,,,,,,,,,,,,,,,,,,,,,,,,,,,,,,,,,,,,,,,,,,,,,,,,,,,,,,,,,,,,,,160.59282736637914,84.24200764405005,159.9640477711454,169.0627661903465,98.91712288955213,115.1228424054224,2.2,2.22,-223,290,0,-274,238,-266,155.50947999954224,155.50959515571594,155.51336288452148,155.52385234832764,155.6997721195221,155.6997721195221,155.6997721195221,155.6997721195221,155.6997721195221,155.6997721195221,155.6997721195221,157.17363381385803,2,1.632469654083252,None,,,,,,,,,,,,,,,,,,219,2,2025-03-07_14h57.20.534,comp,2024.2.4,54.68275479938724,2025-03-07 14h57.31.560039 -0500,
28,28,0,filler_square,None,None,None,None,None,None,None,None,None,None,3,1.5909051895141602,None,,,,,0,0,0,0,0,28,28,173,157.19018745422363,,,,,,,,,,,,,,,,,,,,,,,,,,,,,,,,,,,,,,,,,,,,,,,,,,,,,,,,,,,,,,,,,,,,,,,,,,,,,,,,,149.98257985270746,70.52251332464132,147.62803838849317,128.38485990598488,180.8896631897796,180.8896631897796,4.0,4.2,-195,9,0,-284,251,12,157.1756076812744,157.175687789917,157.1787986755371,157.19018745422363,157.33685183525085,157.33685183525085,157.33685183525085,157.33685183525085,157.33685183525085,157.33685183525085,157.33685183525085,158.7864110469818,3,1.5909051895141602,None,,,,,,,,,,,,,,,,,,219,2,2025-03-07_14h57.20.534,comp,2024.2.4,54.68275479938724,2025-03-07 14h57.31.560039 -0500,
29,29,0,critical,dhw,35.0,2.1,upper,127.0,127.0,200.0,125.0,125.0,200.0,3,2.1294326782226562,None,,,,,0,0,0,0,0,29,29,25,158.8034472465515,,,,,,,,,,,,,,,,,,,,,,,,,,,,,,,,,,,,,,,,,,,,,,,,,,,,,,,,,,,,,,,,,,,,,,,,,,,,,,,,,127.0,127.0,200.0,125.0,125.0,200.0,2.1,2.12,-222,-253,0,-253,258,277,158.78806376457214,158.78820753097534,158.79169178009033,158.8034472465515,158.95121383666992,158.95121383666992,158.95121383666992,158.95121383666992,158.95121383666992,158.95121383666992,158.95121383666992,160.93782138824463,3,2.1294326782226562,None,,,,,,,,,,,,,,,,,,219,2,2025-03-07_14h57.20.534,comp,2024.2.4,54.68275479938724,2025-03-07 14h57.31.560039 -0500,
30,30,0,critical,hdw,35.0,4.0,upper,200.0,125.0,127.0,127.0,125.0,200.0,1,2.2811174392700195,None,,,,,0,0,0,0,0,30,30,113,160.95565176010132,,,,,,,,,,,,,,,,,,,,,,,,,,,,,,,,,,,,,,,,,,,,,,,,,,,,,,,,,,,,,,,,,,,,,,,,,,,,,,,,,200.0,125.0,127.0,127.0,125.0,200.0,4.0,4.2,-222,-13,0,-262,260,8,160.93934798240662,160.93942761421204,160.94257616996765,160.95565176010132,161.10590767860413,161.10590767860413,161.10590767860413,161.10590767860413,161.10590767860413,161.10590767860413,161.10590767860413,163.24635648727417,1,2.2811174392700195,None,,,,,,,,,,,,,,,,,,219,2,2025-03-07_14h57.20.534,comp,2024.2.4,54.68275479938724,2025-03-07 14h57.31.560039 -0500,
31,31,0,filler_square,None,None,None,None,None,None,None,None,None,None,3,2.1973624229431152,None,,,,,0,0,0,0,0,31,31,202,163.26430296897888,,,,,,,,,,,,,,,,,,,,,,,,,,,,,,,,,,,,,,,,,,,,,,,,,,,,,,,,,,,,,,,,,,,,,,,,,,,,,,,,,94.76831844403875,66.94410923937177,107.28404823779209,64.74913807112198,123.80296965093832,123.80296965093832,1.0,1.3,318,-289,480,-258,670,-276,163.248126745224,163.24820804595947,163.25121545791626,163.26430296897888,163.40470457077026,163.40470457077026,163.40470457077026,163.40470457077026,163.40470457077026,163.40470457077026,163.40470457077026,165.4754078388214,3,2.1973624229431152,None,,,,,,,,,,,,,,,,,,219,2,2025-03-07_14h57.20.534,comp,2024.2.4,54.68275479938724,2025-03-07 14h57.31.560039 -0500,
32,32,0,critical,dwh,35.0,1.0,lower,70.0,70.0,57.0,133.0,133.0,57.0,3,2.5054290294647217,None,,,,,0,0,0,0,0,32,32,60,165.49117803573608,,,,,,,,,,,,,,,,,,,,,,,,,,,,,,,,,,,,,,,,,,,,,,,,,,,,,,,,,,,,,,,,,,,,,,,,,,,,,,,,,70.0,70.0,57.0,133.0,133.0,57.0,1.0,1.1,-678,280,-480,272,-289,270,165.47708296775818,165.47724604606628,165.48069405555725,165.49117803573608,165.63976669311523,165.63976669311523,165.63976669311523,165.63976669311523,165.63976669311523,165.63976669311523,165.63976669311523,168.0023331642151,3,2.5054290294647217,None,,,,,,,,,,,,,,,,,,219,2,2025-03-07_14h57.20.534,comp,2024.2.4,54.68275479938724,2025-03-07 14h57.31.560039 -0500,
33,33,0,critical,hwd,35.0,1.0,lower,133.0,57.0,57.0,133.0,70.0,70.0,2,2.811469316482544,None,,,,,0,0,0,0,0,33,33,96,168.01795744895935,,,,,,,,,,,,,,,,,,,,,,,,,,,,,,,,,,,,,,,,,,,,,,,,,,,,,,,,,,,,,,,,,,,,,,,,,,,,,,,,,133.0,57.0,57.0,133.0,70.0,70.0,1.0,1.3,289,-281,480,-282,678,-253,168.00384879112244,168.0039255619049,168.00696849822998,168.01795744895935,168.15708208084106,168.15708208084106,168.15708208084106,168.15708208084106,168.15708208084106,168.15708208084106,168.15708208084106,170.83624291419983,2,2.811469316482544,None,,,,,,,,,,,,,,,,,,219,2,2025-03-07_14h57.20.534,comp,2024.2.4,54.68275479938724,2025-03-07 14h57.31.560039 -0500,
34,34,0,filler_square,None,None,None,None,None,None,None,None,None,None,2,1.2161521911621094,None,,,,,0,0,0,0,0,34,34,190,170.85221123695374,,,,,,,,,,,,,,,,,,,,,,,,,,,,,,,,,,,,,,,,,,,,,,,,,,,,,,,,,,,,,,,,,,,,,,,,,,,,,,,,,129.66360954074656,124.63735221700395,164.79580046711428,164.79580046711428,159.30214424913328,131.57431546311733,1.0,1.2,-241,7,0,-12,244,1,170.8379421234131,170.83802151679993,170.84102320671082,170.85221123695374,170.98980355262756,170.98980355262756,170.98980355262756,170.98980355262756,170.98980355262756,170.98980355262756,170.98980355262756,172.08194184303284,2,1.2161521911621094,None,,,,,,,,,,,,,,,,,,219,2,2025-03-07_14h57.20.534,comp,2024.2.4,54.68275479938724,2025-03-07 14h57.31.560039 -0500,
35,35,0,filler_square,None,None,None,None,None,None,None,None,None,None,1,1.7417960166931152,None,,,,,0,0,0,0,0,35,35,192,172.10256028175354,,,,,,,,,,,,,,,,,,,,,,,,,,,,,,,,,,,,,,,,,,,,,,,,,,,,,,,,,,,,,,,,,,,,,,,,,,,,,,,,,86.69227944723391,86.69227944723391,72.89892258653511,79.07322104328236,60.55604433646109,84.4287291485647,1.0,1.1,-659,264,-480,275,-302,256,172.0837757587433,172.08385634422302,172.08689284324646,172.10256028175354,172.24149084091187,172.24149084091187,172.24149084091187,172.24149084091187,172.24149084091187,172.24149084091187,172.24149084091187,173.8637773990631,1,1.7417960166931152,None,,,,,,,,,,,,,,,,,,219,2,2025-03-07_14h57.20.534,comp,2024.2.4,54.68275479938724,2025-03-07 14h57.31.560039 -0500,
36,36,0,critical,dhw,35.0,3.0,lower,70.0,70.0,133.0,57.0,57.0,133.0,3,2.8903756141662598,None,,,,,0,0,0,0,0,36,36,50,173.88225054740906,,,,,,,,,,,,,,,,,,,,,,,,,,,,,,,,,,,,,,,,,,,,,,,,,,,,,,,,,,,,,,,,,,,,,,,,,,,,,,,,,70.0,70.0,133.0,57.0,57.0,133.0,3.0,3.2,-160,-251,0,-17,191,276,173.8652846813202,173.8653621673584,173.86844158172607,173.88225054740906,174.02572655677795,174.02572655677795,174.02572655677795,174.02572655677795,174.02572655677795,174.02572655677795,174.02572655677795,176.77546525001526,3,2.8903756141662598,None,,,,,,,,,,,,,,,,,,219,2,2025-03-07_14h57.20.534,comp,2024.2.4,54.68275479938724,2025-03-07 14h57.31.560039 -0500,
37,37,0,filler_random,None,None,None,None,None,None,None,None,None,None,1,1.364473819732666,None,,,,,0,0,0,0,0,37,37,152,176.79269218444824,,,,,,,,,,,,,,,,,,,,,,,,,,,,,,,,,,,,,,,,,,,,,,,,,,,,,,,,,,,,,,,,,,,,,,,,,,,,,,,,,125.41251061754666,169.30285114117657,76.87725303410312,121.01125916089887,105.90476671599227,116.79886091968356,2.2,2.21,-241,-258,0,258,215,264,176.7773847579956,176.77746605873108,176.7810182571411,176.79269218444824,176.9439413547516,176.9439413547516,176.9439413547516,176.9439413547516,176.9439413547516,176.9439413547516,176.9439413547516,178.16258597373962,1,1.364473819732666,None,,,,,,,,,,,,,,,,,,219,2,2025-03-07_14h57.20.534,comp,2024.2.4,54.68275479938724,2025-03-07 14h57.31.560039 -0500,
38,38,0,critical,hwd,35.0,2.1,upper,200.0,125.0,125.0,200.0,127.0,127.0,1,2.194201707839966,None,,,,,0,0,0,0,0,38,38,41,178.17851996421814,,,,,,,,,,,,,,,,,,,,,,,,,,,,,,,,,,,,,,,,,,,,,,,,,,,,,,,,,,,,,,,,,,,,,,,,,,,,,,,,,200.0,125.0,125.0,200.0,127.0,127.0,2.1,2.12,-258,-270,0,-262,260,265,178.16419649124146,178.16429567337036,178.16768598556519,178.17851996421814,178.32548022270203,178.32548022270203,178.32548022270203,178.32548022270203,178.32548022270203,178.32548022270203,178.32548022270203,180.37694811820984,1,2.194201707839966,None,,,,,,,,,,,,,,,,,,219,2,2025-03-07_14h57.20.534,comp,2024.2.4,54.68275479938724,2025-03-07 14h57.31.560039 -0500,
39,39,0,critical,whd,20.0,2.1,lower,57.0,133.0,133.0,57.0,78.0,78.0,1,4.15535044670105,None,,,,,0,0,0,0,0,39,39,14,180.39351153373718,,,,,,,,,,,,,,,,,,,,,,,,,,,,,,,,,,,,,,,,,,,,,,,,,,,,,,,,,,,,,,,,,,,,,,,,,,,,,,,,,57.0,133.0,133.0,57.0,78.0,78.0,2.1,2.11,-191,261,0,280,164,-267,180.37857294082642,180.37865281105042,180.3818473815918,180.39351153373718,180.54368233680725,180.54368233680725,180.54368233680725,180.54368233680725,180.54368233680725,180.54368233680725,180.54368233680725,184.55098056793213,1,4.15535044670105,None,,,,,,,,,,,,,,,,,,219,2,2025-03-07_14h57.20.534,comp,2024.2.4,54.68275479938724,2025-03-07 14h57.31.560039 -0500,
40,40,0,critical,whd,20.0,3.0,upper,125.0,200.0,200.0,125.0,141.0,141.0,1,3.006096839904785,None,,,,,0,0,0,0,0,40,40,93,184.56738924980164,,,,,,,,,,,,,,,,,,,,,,,,,,,,,,,,,,,,,,,,,,,,,,,,,,,,,,,,,,,,,,,,,,,,,,,,,,,,,,,,,125.0,200.0,200.0,125.0,141.0,141.0,3.0,3.1,-258,263,0,-6,229,-275,184.55251932144165,184.55259919166565,184.5556764602661,184.56738924980164,184.71555185317993,184.71555185317993,184.71555185317993,184.71555185317993,184.71555185317993,184.71555185317993,184.71555185317993,187.57925033569336,1,3.006096839904785,None,,,,,,,,,,,,,,,,,,219,2,2025-03-07_14h57.20.534,comp,2024.2.4,54.68275479938724,2025-03-07 14h57.31.560039 -0500,
41,41,0,filler_random,None,None,None,None,None,None,None,None,None,None,2,1.5337104797363281,None,,,,,0,0,0,0,0,41,41,133,187.59864568710327,,,,,,,,,,,,,,,,,,,,,,,,,,,,,,,,,,,,,,,,,,,,,,,,,,,,,,,,,,,,,,,,,,,,,,,,,,,,,,,,,71.41537330434896,67.48994325583739,91.48765630579672,102.45811591902466,83.48161285443979,68.08342971742302,1.0,1.3,299,-262,480,-258,661,-265,187.5811448097229,187.58123564720154,187.58463597297668,187.59864568710327,187.74727702140808,187.74727702140808,187.74727702140808,187.74727702140808,187.74727702140808,187.74727702140808,187.74727702140808,189.15179324150085,2,1.5337104797363281,None,,,,,,,,,,,,,,,,,,219,2,2025-03-07_14h57.20.534,comp,2024.2.4,54.68275479938724,2025-03-07 14h57.31.560039 -0500,
42,42,0,filler_square,None,None,None,None,None,None,None,None,None,None,3,2.842203140258789,None,,,,,0,0,0,0,0,42,42,209,189.1706793308258,,,,,,,,,,,,,,,,,,,,,,,,,,,,,,,,,,,,,,,,,,,,,,,,,,,,,,,,,,,,,,,,,,,,,,,,,,,,,,,,,61.77566230274499,74.05215470310034,60.80645741492108,71.6114656490353,75.40842947659931,75.40842947659931,1.0,1.3,311,-285,480,-288,650,-259,189.15366959571838,189.153746843338,189.15680623054504,189.1706793308258,189.31418204307556,189.31418204307556,189.31418204307556,189.31418204307556,189.31418204307556,189.31418204307556,189.31418204307556,192.01502227783203,3,2.842203140258789,None,,,,,,,,,,,,,,,,,,219,2,2025-03-07_14h57.20.534,comp,2024.2.4,54.68275479938724,2025-03-07 14h57.31.560039 -0500,
43,43,0,filler_square,None,None,None,None,None,None,None,None,None,None,2,0.003602266311645508,None,,,,,0,0,0,0,0,43,43,203,192.0326189994812,,,,,,,,,,,,,,,,,,,,,,,,,,,,,,,,,,,,,,,,,,,,,,,,,,,,,,,,,,,,,,,,,,,,,,,,,,,,,,,,,93.51911932402842,101.04770925569952,121.96250276737628,121.96250276737628,86.57850077561406,104.52159021148412,4.0,4.1,-208,-288,0,6,209,-255,192.01686120033264,192.01693844795227,192.02077960968018,192.0326189994812,,,,,,,,192.04857277870178,2,0.003602266311645508,None,,,,,,,,,,,,,,,,,,219,2,2025-03-07_14h57.20.534,comp,2024.2.4,54.68275479938724,2025-03-07 14h57.31.560039 -0500,
44,44,0,critical,hdw,35.0,3.0,upper,200.0,125.0,127.0,127.0,125.0,200.0,1,None,None,,,,,0,0,0,0,0,44,44,111,192.06494331359863,,,,,,,,,,,,,,,,,,,,,,,,,,,,,,,,,,,,,,,,,,,,,,,,,,,,,,,,,,,,,,,,,,,,,,,,,,,,,,,,,200.0,125.0,127.0,127.0,125.0,200.0,3.0,3.1,-222,267,0,3,260,-279,192.05002665519714,192.0501356124878,192.05350828170776,192.06494331359863,192.21083045005798,192.21083045005798,192.21083045005798,192.21083045005798,192.21083045005798,192.21083045005798,192.21083045005798,192.22935342788696,1,None,None,,,,,,,,,,,,,,,,,,219,2,2025-03-07_14h57.20.534,comp,2024.2.4,54.68275479938724,2025-03-07 14h57.31.560039 -0500,
45,45,0,filler_random,None,None,None,None,None,None,None,None,None,None,3,3.407215118408203,None,,,,,0,0,0,0,0,45,45,149,192.24513149261475,,,,,,,,,,,,,,,,,,,,,,,,,,,,,,,,,,,,,,,,,,,,,,,,,,,,,,,,,,,,,,,,,,,,,,,,,,,,,,,,,150.1056626312076,88.5943378873072,141.99834691909837,129.57536674278998,152.91852659891296,139.41924894050192,2.2,2.21,-205,-285,0,282,230,282,192.2301380634308,192.23017072677612,192.23151206970215,192.24513149261475,192.38173127174377,192.38173127174377,192.38173127174377,192.38173127174377,192.38173127174377,192.38173127174377,192.38173127174377,195.66597700119019,3,3.407215118408203,None,,,,,,,,,,,,,,,,,,219,2,2025-03-07_14h57.20.534,comp,2024.2.4,54.68275479938724,2025-03-07 14h57.31.560039 -0500,
46,46,0,critical,hwd,20.0,1.0,upper,200.0,125.0,125.0,200.0,141.0,141.0,2,3.7216572761535645,None,,,,,0,0,0,0,0,46,46,103,195.68250513076782,,,,,,,,,,,,,,,,,,,,,,,,,,,,,,,,,,,,,,,,,,,,,,,,,,,,,,,,,,,,,,,,,,,,,,,,,,,,,,,,,200.0,125.0,125.0,200.0,141.0,141.0,1.0,1.3,222,-282,480,-254,746,-272,195.66768503189087,195.66781616210938,195.67122292518616,195.68250513076782,195.83182334899902,195.83182334899902,195.83182334899902,195.83182334899902,195.83182334899902,195.83182334899902,195.83182334899902,199.4153914451599,2,3.7216572761535645,None,,,,,,,,,,,,,,,,,,219,2,2025-03-07_14h57.20.534,comp,2024.2.4,54.68275479938724,2025-03-07 14h57.31.560039 -0500,
47,47,0,critical,whd,20.0,3.0,lower,57.0,133.0,133.0,57.0,78.0,78.0,1,2.4360289573669434,None,,,,,0,0,0,0,0,47,47,92,199.43214011192322,,,,,,,,,,,,,,,,,,,,,,,,,,,,,,,,,,,,,,,,,,,,,,,,,,,,,,,,,,,,,,,,,,,,,,,,,,,,,,,,,57.0,133.0,133.0,57.0,78.0,78.0,3.0,3.2,-191,-251,0,3,164,273,199.4169557094574,199.4170367717743,199.4203381538391,199.43214011192322,199.5834174156189,199.5834174156189,199.5834174156189,199.5834174156189,199.5834174156189,199.5834174156189,199.5834174156189,201.88420224189758,1,2.4360289573669434,None,,,,,,,,,,,,,,,,,,219,2,2025-03-07_14h57.20.534,comp,2024.2.4,54.68275479938724,2025-03-07 14h57.31.560039 -0500,
48,48,0,critical,wdh,35.0,1.0,lower,57.0,133.0,70.0,70.0,133.0,57.0,1,1.9747264385223389,None,,,,,0,0,0,0,0,48,48,72,201.90211725234985,,,,,,,,,,,,,,,,,,,,,,,,,,,,,,,,,,,,,,,,,,,,,,,,,,,,,,,,,,,,,,,,,,,,,,,,,,,,,,,,,57.0,133.0,70.0,70.0,133.0,57.0,1.0,1.3,282,-261,480,-285,640,-253,201.88577461242676,201.88584899902344,201.88926577568054,201.90211725234985,202.05173921585083,202.05173921585083,202.05173921585083,202.05173921585083,202.05173921585083,202.05173921585083,202.05173921585083,203.88640069961548,1,1.9747264385223389,None,,,,,,,,,,,,,,,,,,219,2,2025-03-07_14h57.20.534,comp,2024.2.4,54.68275479938724,2025-03-07 14h57.31.560039 -0500,
49,49,0,critical,whd,20.0,1.0,lower,57.0,133.0,133.0,57.0,78.0,78.0,2,7.453757047653198,None,,,,,0,0,0,0,0,49,49,90,203.90238618850708,,,,,,,,,,,,,,,,,,,,,,,,,,,,,,,,,,,,,,,,,,,,,,,,,,,,,,,,,,,,,,,,,,,,,,,,,,,,,,,,,57.0,133.0,133.0,57.0,78.0,78.0,1.0,1.3,289,-279,480,-283,644,-259,203.88794612884521,203.88802289962769,203.89161920547485,203.90238618850708,204.04942417144775,204.04942417144775,204.04942417144775,204.04942417144775,204.04942417144775,204.04942417144775,204.04942417144775,211.37161993980408,2,7.453757047653198,None,,,,,,,,,,,,,,,,,,219,2,2025-03-07_14h57.20.534,comp,2024.2.4,54.68275479938724,2025-03-07 14h57.31.560039 -0500,
50,50,0,critical,hdw,35.0,3.0,lower,133.0,57.0,70.0,70.0,57.0,133.0,3,2.305065631866455,None,,,,,0,0,0,0,0,50,50,110,211.3883421421051,,,,,,,,,,,,,,,,,,,,,,,,,,,,,,,,,,,,,,,,,,,,,,,,,,,,,,,,,,,,,,,,,,,,,,,,,,,,,,,,,133.0,57.0,70.0,70.0,57.0,133.0,3.0,3.2,-160,-288,0,11,198,276,211.37325596809387,211.37338709831238,211.37685012817383,211.3883421421051,211.54033780097961,211.54033780097961,211.54033780097961,211.54033780097961,211.54033780097961,211.54033780097961,211.54033780097961,213.69714975357056,3,2.305065631866455,None,,,,,,,,,,,,,,,,,,219,2,2025-03-07_14h57.20.534,comp,2024.2.4,54.68275479938724,2025-03-07 14h57.31.560039 -0500,
51,51,0,critical,whd,35.0,3.0,upper,125.0,200.0,200.0,125.0,127.0,127.0,1,1.91920804977417,None,,,,,0,0,0,0,0,51,51,87,213.71759700775146,,,,,,,,,,,,,,,,,,,,,,,,,,,,,,,,,,,,,,,,,,,,,,,,,,,,,,,,,,,,,,,,,,,,,,,,,,,,,,,,,125.0,200.0,200.0,125.0,127.0,127.0,3.0,3.1,-258,285,0,0,222,-286,213.6986780166626,213.6987555027008,213.70183634757996,213.71759700775146,213.85499143600464,213.85499143600464,213.85499143600464,213.85499143600464,213.85499143600464,213.85499143600464,213.85499143600464,215.6428771018982,1,1.91920804977417,None,,,,,,,,,,,,,,,,,,219,2,2025-03-07_14h57.20.534,comp,2024.2.4,54.68275479938724,2025-03-07 14h57.31.560039 -0500,
52,52,0,filler_square,None,None,None,None,None,None,None,None,None,None,3,1.6412363052368164,None,,,,,0,0,0,0,0,52,52,205,215.6591899394989,,,,,,,,,,,,,,,,,,,,,,,,,,,,,,,,,,,,,,,,,,,,,,,,,,,,,,,,,,,,,,,,,,,,,,,,,,,,,,,,,176.6190771480723,176.6190771480723,75.97859870804336,70.06042286571684,173.2805490515197,106.46415564619787,2.1,2.12,-219,-262,0,-252,184,258,215.64489817619324,215.64502716064453,215.64835715293884,215.6591899394989,215.80949640274048,215.80949640274048,215.80949640274048,215.80949640274048,215.80949640274048,215.80949640274048,215.80949640274048,217.30598998069763,3,1.6412363052368164,None,,,,,,,,,,,,,,,,,,219,2,2025-03-07_14h57.20.534,comp,2024.2.4,54.68275479938724,2025-03-07 14h57.31.560039 -0500,
53,53,0,filler_square,None,None,None,None,None,None,None,None,None,None,2,2.902076482772827,None,,,,,0,0,0,0,0,53,53,178,217.32741975784302,,,,,,,,,,,,,,,,,,,,,,,,,,,,,,,,,,,,,,,,,,,,,,,,,,,,,,,,,,,,,,,,,,,,,,,,,,,,,,,,,137.7333365169108,125.68081871323396,143.67089056659603,143.67089056659603,111.27244124022809,134.4278092147515,3.0,3.2,-231,-262,0,-15,235,253,217.3078043460846,217.30788254737854,217.3110454082489,217.32741975784302,217.474595785141,217.474595785141,217.474595785141,217.474595785141,217.474595785141,217.474595785141,217.474595785141,220.24053478240967,2,2.902076482772827,None,,,,,,,,,,,,,,,,,,219,2,2025-03-07_14h57.20.534,comp,2024.2.4,54.68275479938724,2025-03-07 14h57.31.560039 -0500,
54,54,0,critical,wdh,35.0,3.0,upper,125.0,200.0,127.0,127.0,200.0,125.0,1,2.179995059967041,None,,,,,0,0,0,0,0,54,54,75,220.25679087638855,,,,,,,,,,,,,,,,,,,,,,,,,,,,,,,,,,,,,,,,,,,,,,,,,,,,,,,,,,,,,,,,,,,,,,,,,,,,,,,,,125.0,200.0,127.0,127.0,200.0,125.0,3.0,3.1,-260,282,0,4,222,-265,220.24214506149292,220.24222564697266,220.2457890510559,220.25679087638855,220.4114248752594,220.4114248752594,220.4114248752594,220.4114248752594,220.4114248752594,220.4114248752594,220.4114248752594,222.44245886802673,1,2.179995059967041,None,,,,,,,,,,,,,,,,,,219,2,2025-03-07_14h57.20.534,comp,2024.2.4,54.68275479938724,2025-03-07 14h57.31.560039 -0500,
55,55,0,catch,None,None,None,None,None,None,None,None,None,None,3,1.7772176265716553,None,,,,,0,0,0,0,0,55,55,122,222.45931434631348,,,,,,,,,,,,,,,,,,,,,,,,,,,,,,,,,,,,,,,,,,,,,,,,,,,,,,,,,,,,,,,,,,,,,,,,,,,,,,,,,81,109,132,58,171,154,4.0,4.1,-180,-253,0,4,202,-268,222.4447295665741,222.44480800628662,222.44845366477966,222.45931434631348,222.60877990722656,222.60877990722656,222.60877990722656,222.60877990722656,222.60877990722656,222.60877990722656,222.60877990722656,224.2416865825653,3,1.7772176265716553,None,,,,,,,,,,,,,,,,,,219,2,2025-03-07_14h57.20.534,comp,2024.2.4,54.68275479938724,2025-03-07 14h57.31.560039 -0500,
56,56,0,critical,wdh,20.0,2.1,lower,57.0,133.0,78.0,78.0,133.0,57.0,1,3.602649450302124,None,,,,,0,0,0,0,0,56,56,34,224.25759196281433,,,,,,,,,,,,,,,,,,,,,,,,,,,,,,,,,,,,,,,,,,,,,,,,,,,,,,,,,,,,,,,,,,,,,,,,,,,,,,,,,57.0,133.0,78.0,78.0,133.0,57.0,2.1,2.11,-202,281,0,276,164,-254,224.2431972026825,224.24329614639282,224.24682068824768,224.25759196281433,224.41021490097046,224.41021490097046,224.41021490097046,224.41021490097046,224.41021490097046,224.41021490097046,224.41021490097046,227.8763346672058,1,3.602649450302124,None,,,,,,,,,,,,,,,,,,219,2,2025-03-07_14h57.20.534,comp,2024.2.4,54.68275479938724,2025-03-07 14h57.31.560039 -0500,
57,57,0,filler_random,None,None,None,None,None,None,None,None,None,None,2,9.871460199356079,None,,,,,0,0,0,0,0,57,57,168,227.89280319213867,,,,,,,,,,,,,,,,,,,,,,,,,,,,,,,,,,,,,,,,,,,,,,,,,,,,,,,,,,,,,,,,,,,,,,,,,,,,,,,,,133.00272590019642,186.9199047370873,143.5238022342282,181.04584195712988,72.3187523968481,58.04790319287672,4.0,4.2,-280,-14,0,-264,216,-13,227.8779981136322,227.87807703018188,227.88153409957886,227.89280319213867,228.04512119293213,228.04512119293213,228.04512119293213,228.04512119293213,228.04512119293213,228.04512119293213,228.04512119293213,237.7789077758789,2,9.871460199356079,None,,,,,,,,,,,,,,,,,,219,2,2025-03-07_14h57.20.534,comp,2024.2.4,54.68275479938724,2025-03-07 14h57.31.560039 -0500,
58,58,0,filler_square,None,None,None,None,None,None,None,None,None,None,2,1.4653007984161377,None,,,,,0,0,0,0,0,58,58,181,237.79551029205322,,,,,,,,,,,,,,,,,,,,,,,,,,,,,,,,,,,,,,,,,,,,,,,,,,,,,,,,,,,,,,,,,,,,,,,,,,,,,,,,,154.2386954907863,140.60997866974202,190.50024118003262,190.50024118003262,132.45123597165832,113.98417495733538,2.1,2.11,-262,259,0,281,248,-255,237.78079771995544,237.78087329864502,237.78501725196838,237.79551029205322,237.94514441490173,237.94514441490173,237.94514441490173,237.94514441490173,237.94514441490173,237.94514441490173,237.94514441490173,239.26611852645874,2,1.4653007984161377,None,,,,,,,,,,,,,,,,,,219,2,2025-03-07_14h57.20.534,comp,2024.2.4,54.68275479938724,2025-03-07 14h57.31.560039 -0500,
59,59,0,critical,whd,35.0,2.1,lower,57.0,133.0,133.0,57.0,70.0,70.0,2,3.257628917694092,None,,,,,0,0,0,0,0,59,59,36,239.28257822990417,,,,,,,,,,,,,,,,,,,,,,,,,,,,,,,,,,,,,,,,,,,,,,,,,,,,,,,,,,,,,,,,,,,,,,,,,,,,,,,,,57.0,133.0,133.0,57.0,70.0,70.0,2.1,2.12,-191,-281,0,-254,160,264,239.2677698135376,239.26785135269165,239.2718541622162,239.28257822990417,239.42951083183289,239.42951083183289,239.42951083183289,239.42951083183289,239.42951083183289,239.42951083183289,239.42951083183289,242.55243110656738,2,3.257628917694092,None,,,,,,,,,,,,,,,,,,219,2,2025-03-07_14h57.20.534,comp,2024.2.4,54.68275479938724,2025-03-07 14h57.31.560039 -0500,
60,60,0,critical,dwh,20.0,3.0,upper,141.0,141.0,125.0,200.0,200.0,125.0,3,1.84737229347229,None,,,,,0,0,0,0,0,60,60,69,242.57279253005981,,,,,,,,,,,,,,,,,,,,,,,,,,,,,,,,,,,,,,,,,,,,,,,,,,,,,,,,,,,,,,,,,,,,,,,,,,,,,,,,,141.0,141.0,125.0,200.0,200.0,125.0,3.0,3.2,-266,-273,0,15,258,277,242.55396175384521,242.5540373325348,242.5570306777954,242.57279253005981,242.71436142921448,242.71436142921448,242.71436142921448,242.71436142921448,242.71436142921448,242.71436142921448,242.71436142921448,244.43405890464783,3,1.84737229347229,None,,,,,,,,,,,,,,,,,,219,2,2025-03-07_14h57.20.534,comp,2024.2.4,54.68275479938724,2025-03-07 14h57.31.560039 -0500,
61,61,0,filler_random,None,None,None,None,None,None,None,None,None,None,2,2.525228977203369,None,,,,,0,0,0,0,0,61,61,163,244.4551441669464,,,,,,,,,,,,,,,,,,,,,,,,,,,,,,,,,,,,,,,,,,,,,,,,,,,,,,,,,,,,,,,,,,,,,,,,,,,,,,,,,114.77559039491175,73.04071429641574,82.02380811054958,126.57660293844584,154.57595412940552,64.63099260595163,2.1,2.12,-196,-271,0,-267,192,251,244.43627047538757,244.43634915351868,244.4394347667694,244.4551441669464,244.60227823257446,244.60227823257446,244.60227823257446,244.60227823257446,244.60227823257446,244.60227823257446,244.60227823257446,246.997620344162,2,2.525228977203369,None,,,,,,,,,,,,,,,,,,219,2,2025-03-07_14h57.20.534,comp,2024.2.4,54.68275479938724,2025-03-07 14h57.31.560039 -0500,
62,62,0,critical,dwh,20.0,1.0,upper,141.0,141.0,125.0,200.0,200.0,125.0,2,2.9089250564575195,None,,,,,0,0,0,0,0,62,62,67,247.0158474445343,,,,,,,,,,,,,,,,,,,,,,,,,,,,,,,,,,,,,,,,,,,,,,,,,,,,,,,,,,,,,,,,,,,,,,,,,,,,,,,,,141.0,141.0,125.0,200.0,200.0,125.0,1.0,1.2,-266,-8,0,17,258,0,246.99918174743652,246.99925994873047,247.00285410881042,247.0158474445343,247.1658275127411,247.1658275127411,247.1658275127411,247.1658275127411,247.1658275127411,247.1658275127411,247.1658275127411,249.9328351020813,2,2.9089250564575195,None,,,,,,,,,,,,,,,,,,219,2,2025-03-07_14h57.20.534,comp,2024.2.4,54.68275479938724,2025-03-07 14h57.31.560039 -0500,
63,63,0,filler_random,None,None,None,None,None,None,None,None,None,None,1,1.1436793804168701,None,,,,,0,0,0,0,0,63,63,143,249.94939398765564,,,,,,,,,,,,,,,,,,,,,,,,,,,,,,,,,,,,,,,,,,,,,,,,,,,,,,,,,,,,,,,,,,,,,,,,,,,,,,,,,180.049782632138,198.14877249271254,78.07697125965257,74.99065668188882,113.28239386420486,132.31738106598033,4.0,4.2,-233,16,0,-269,200,-3,249.93464398384094,249.9347231388092,249.93841576576233,249.94939398765564,250.0998454093933,250.0998454093933,250.0998454093933,250.0998454093933,250.0998454093933,250.0998454093933,250.0998454093933,251.10202479362488,1,1.1436793804168701,None,,,,,,,,,,,,,,,,,,219,2,2025-03-07_14h57.20.534,comp,2024.2.4,54.68275479938724,2025-03-07 14h57.31.560039 -0500,
64,64,0,critical,hdw,20.0,3.0,lower,133.0,57.0,78.0,78.0,57.0,133.0,3,4.955864191055298,None,,,,,0,0,0,0,0,64,64,116,251.1203682422638,,,,,,,,,,,,,,,,,,,,,,,,,,,,,,,,,,,,,,,,,,,,,,,,,,,,,,,,,,,,,,,,,,,,,,,,,,,,,,,,,133.0,57.0,78.0,78.0,57.0,133.0,3.0,3.1,-164,251,0,-12,202,-261,251.1036672592163,251.10377669334412,251.10732054710388,251.1203682422638,251.2708249092102,251.2708249092102,251.2708249092102,251.2708249092102,251.2708249092102,251.2708249092102,251.2708249092102,256.09490728378296,3,4.955864191055298,None,,,,,,,,,,,,,,,,,,219,2,2025-03-07_14h57.20.534,comp,2024.2.4,54.68275479938724,2025-03-07 14h57.31.560039 -0500,
65,65,0,critical,wdh,20.0,2.1,lower,57.0,133.0,78.0,78.0,133.0,57.0,1,3.9207096099853516,None,,,,,0,0,0,0,0,65,65,10,256.1154634952545,,,,,,,,,,,,,,,,,,,,,,,,,,,,,,,,,,,,,,,,,,,,,,,,,,,,,,,,,,,,,,,,,,,,,,,,,,,,,,,,,57.0,133.0,78.0,78.0,133.0,57.0,2.1,2.11,-202,284,0,262,164,-280,256.0965437889099,256.0966191291809,256.0999825000763,256.1154634952545,256.2525327205658,256.2525327205658,256.2525327205658,256.2525327205658,256.2525327205658,256.2525327205658,256.2525327205658,260.05229353904724,1,3.9207096099853516,None,,,,,,,,,,,,,,,,,,219,2,2025-03-07_14h57.20.534,comp,2024.2.4,54.68275479938724,2025-03-07 14h57.31.560039 -0500,
66,66,0,critical,dhw,20.0,2.1,lower,78.0,78.0,133.0,57.0,57.0,133.0,3,1.3360731601715088,None,,,,,0,0,0,0,0,66,66,26,260.06811594963074,,,,,,,,,,,,,,,,,,,,,,,,,,,,,,,,,,,,,,,,,,,,,,,,,,,,,,,,,,,,,,,,,,,,,,,,,,,,,,,,,78.0,78.0,133.0,57.0,57.0,133.0,2.1,2.12,-164,-259,0,-287,191,286,260.05391454696655,260.05400037765503,260.05769205093384,260.06811594963074,260.22398114204407,260.22398114204407,260.22398114204407,260.22398114204407,260.22398114204407,260.22398114204407,260.22398114204407,261.419438123703,3,1.3360731601715088,None,,,,,,,,,,,,,,,,,,219,2,2025-03-07_14h57.20.534,comp,2024.2.4,54.68275479938724,2025-03-07 14h57.31.560039 -0500,
67,67,0,filler_square,None,None,None,None,None,None,None,None,None,None,2,1.104511022567749,None,,,,,0,0,0,0,0,67,67,201,261.43566060066223,,,,,,,,,,,,,,,,,,,,,,,,,,,,,,,,,,,,,,,,,,,,,,,,,,,,,,,,,,,,,,,,,,,,,,,,,,,,,,,,,84.30363785717297,136.56000972543717,174.21696348862156,174.21696348862156,137.202528028554,131.97990090988625,1.0,1.2,-251,16,0,13,249,-16,261.42143058776855,261.42151403427124,261.4250111579895,261.43566060066223,261.590767621994,261.590767621994,261.590767621994,261.590767621994,261.590767621994,261.590767621994,261.590767621994,262.55550956726074,2,1.104511022567749,None,,,,,,,,,,,,,,,,,,219,2,2025-03-07_14h57.20.534,comp,2024.2.4,54.68275479938724,2025-03-07 14h57.31.560039 -0500,
68,68,0,catch,None,None,None,None,None,None,None,None,None,None,3,1.0321354866027832,None,,,,,0,0,0,0,0,68,68,121,262.57204389572144,,,,,,,,,,,,,,,,,,,,,,,,,,,,,,,,,,,,,,,,,,,,,,,,,,,,,,,,,,,,,,,,,,,,,,,,,,,,,,,,,93,97,87,103,161,164,2.1,2.12,-196,-257,0,-252,230,258,262.5577437877655,262.55782175064087,262.5616309642792,262.57204389572144,262.7203049659729,262.7203049659729,262.7203049659729,262.7203049659729,262.7203049659729,262.7203049659729,262.7203049659729,263.62056398391724,3,1.0321354866027832,None,,,,,,,,,,,,,,,,,,219,2,2025-03-07_14h57.20.534,comp,2024.2.4,54.68275479938724,2025-03-07 14h57.31.560039 -0500,
69,69,0,filler_random,None,None,None,None,None,None,None,None,None,None,2,1.3739597797393799,None,,,,,0,0,0,0,0,69,69,146,263.63818645477295,,,,,,,,,,,,,,,,,,,,,,,,,,,,,,,,,,,,,,,,,,,,,,,,,,,,,,,,,,,,,,,,,,,,,,,,,,,,,,,,,61.43688396587766,185.27600923999663,195.15336695095812,91.5703792909169,96.0014412220832,138.41025621996846,2.2,2.21,-234,-275,0,275,211,286,263.62227606773376,263.62235283851624,263.6255190372467,263.63818645477295,263.7877445220947,263.7877445220947,263.7877445220947,263.7877445220947,263.7877445220947,263.7877445220947,263.7877445220947,265.0217008590698,2,1.3739597797393799,None,,,,,,,,,,,,,,,,,,219,2,2025-03-07_14h57.20.534,comp,2024.2.4,54.68275479938724,2025-03-07 14h57.31.560039 -0500,
70,70,0,filler_square,None,None,None,None,None,None,None,None,None,None,2,0.9569101333618164,None,,,,,0,0,0,0,0,70,70,172,265.03921842575073,,,,,,,,,,,,,,,,,,,,,,,,,,,,,,,,,,,,,,,,,,,,,,,,,,,,,,,,,,,,,,,,,,,,,,,,,,,,,,,,,141.75807980725727,61.66082797665152,136.3760785241196,146.54261700463996,147.58814142384432,147.58814142384432,4.0,4.1,-200,-268,0,-18,243,-285,265.0237202644348,265.0237989425659,265.0275115966797,265.03921842575073,265.1876332759857,265.1876332759857,265.1876332759857,265.1876332759857,265.1876332759857,265.1876332759857,265.1876332759857,266.01191663742065,2,0.9569101333618164,None,,,,,,,,,,,,,,,,,,219,2,2025-03-07_14h57.20.534,comp,2024.2.4,54.68275479938724,2025-03-07 14h57.31.560039 -0500,
71,71,0,critical,dhw,35.0,2.1,upper,127.0,127.0,200.0,125.0,125.0,200.0,3,1.6377811431884766,None,,,,,0,0,0,0,0,71,71,1,266.0307378768921,,,,,,,,,,,,,,,,,,,,,,,,,,,,,,,,,,,,,,,,,,,,,,,,,,,,,,,,,,,,,,,,,,,,,,,,,,,,,,,,,127.0,127.0,200.0,125.0,125.0,200.0,2.1,2.11,-222,271,0,283,258,-270,266.01348543167114,266.0135614871979,266.01658868789673,266.0307378768921,266.1673216819763,266.1673216819763,266.1673216819763,266.1673216819763,266.1673216819763,266.1673216819763,266.1673216819763,267.67054057121277,3,1.6377811431884766,None,,,,,,,,,,,,,,,,,,219,2,2025-03-07_14h57.20.534,comp,2024.2.4,54.68275479938724,2025-03-07 14h57.31.560039 -0500,
72,72,0,catch,None,None,None,None,None,None,None,None,None,None,2,1.100283145904541,None,,,,,0,0,0,0,0,72,72,127,267.6881670951843,,,,,,,,,,,,,,,,,,,,,,,,,,,,,,,,,,,,,,,,,,,,,,,,,,,,,,,,,,,,,,,,,,,,,,,,,,,,,,,,,71,119,162,163,89,101,2.2,2.21,-237,-261,0,256,228,287,267.67272305488586,267.67280197143555,267.67640829086304,267.6881670951843,267.8391852378845,267.8391852378845,267.8391852378845,267.8391852378845,267.8391852378845,267.8391852378845,267.8391852378845,268.8015983104706,2,1.100283145904541,None,,,,,,,,,,,,,,,,,,219,2,2025-03-07_14h57.20.534,comp,2024.2.4,54.68275479938724,2025-03-07 14h57.31.560039 -0500,
73,73,0,filler_square,None,None,None,None,None,None,None,None,None,None,3,1.4504625797271729,None,,,,,0,0,0,0,0,73,73,197,268.8181073665619,,,,,,,,,,,,,,,,,,,,,,,,,,,,,,,,,,,,,,,,,,,,,,,,,,,,,,,,,,,,,,,,,,,,,,,,,,,,,,,,,108.35306195518069,68.30966513456855,67.16339776113747,102.05432248059044,121.88420314642725,121.88420314642725,1.0,1.3,299,-265,480,-258,688,-275,268.8034179210663,268.8034932613373,268.80648851394653,268.8181073665619,268.96041655540466,268.96041655540466,268.96041655540466,268.96041655540466,268.96041655540466,268.96041655540466,268.96041655540466,270.2739849090576,3,1.4504625797271729,None,,,,,,,,,,,,,,,,,,219,2,2025-03-07_14h57.20.534,comp,2024.2.4,54.68275479938724,2025-03-07 14h57.31.560039 -0500,
74,74,0,critical,whd,20.0,4.0,upper,125.0,200.0,200.0,125.0,141.0,141.0,1,3.1786415576934814,None,,,,,0,0,0,0,0,74,74,95,270.2903084754944,,,,,,,,,,,,,,,,,,,,,,,,,,,,,,,,,,,,,,,,,,,,,,,,,,,,,,,,,,,,,,,,,,,,,,,,,,,,,,,,,125.0,200.0,200.0,125.0,141.0,141.0,4.0,4.1,-258,-258,0,16,229,-254,270.27561044692993,270.27570104599,270.2794361114502,270.2903084754944,270.4373199939728,270.4373199939728,270.4373199939728,270.4373199939728,270.4373199939728,270.4373199939728,270.4373199939728,273.4736125469208,1,3.1786415576934814,None,,,,,,,,,,,,,,,,,,219,2,2025-03-07_14h57.20.534,comp,2024.2.4,54.68275479938724,2025-03-07 14h57.31.560039 -0500,
75,75,0,filler_square,None,None,None,None,None,None,None,None,None,None,2,3.3863468170166016,None,,,,,0,0,0,0,0,75,75,191,273.48982214927673,,,,,,,,,,,,,,,,,,,,,,,,,,,,,,,,,,,,,,,,,,,,,,,,,,,,,,,,,,,,,,,,,,,,,,,,,,,,,,,,,78.91233892464008,58.237088411746726,118.23726906152561,118.23726906152561,113.655853224144,74.82835303059368,2.2,2.21,-184,-276,0,271,193,289,273.4754829406738,273.4755620956421,273.47905349731445,273.48982214927673,273.6444745063782,273.6444745063782,273.6444745063782,273.6444745063782,273.6444745063782,273.6444745063782,273.6444745063782,276.89375853538513,2,3.3863468170166016,None,,,,,,,,,,,,,,,,,,219,2,2025-03-07_14h57.20.534,comp,2024.2.4,54.68275479938724,2025-03-07 14h57.31.560039 -0500,
76,76,0,filler_square,None,None,None,None,None,None,None,None,None,None,1,2.6051394939422607,None,,,,,0,0,0,0,0,76,76,200,276.9120464324951,,,,,,,,,,,,,,,,,,,,,,,,,,,,,,,,,,,,,,,,,,,,,,,,,,,,,,,,,,,,,,,,,,,,,,,,,,,,,,,,,121.39439196958004,121.39439196958004,97.33621624929599,75.86570653653745,106.01269775851404,102.68659663723702,3.0,3.1,-195,265,0,-17,185,-286,276.8960704803467,276.8962287902832,276.8993020057678,276.9120464324951,277.0576763153076,277.0576763153076,277.0576763153076,277.0576763153076,277.0576763153076,277.0576763153076,277.0576763153076,279.5263772010803,1,2.6051394939422607,None,,,,,,,,,,,,,,,,,,219,2,2025-03-07_14h57.20.534,comp,2024.2.4,54.68275479938724,2025-03-07 14h57.31.560039 -0500,
77,77,0,critical,dwh,20.0,2.1,upper,141.0,141.0,125.0,200.0,200.0,125.0,3,8.254100561141968,None,,,,,0,0,0,0,0,77,77,7,279.54208064079285,,,,,,,,,,,,,,,,,,,,,,,,,,,,,,,,,,,,,,,,,,,,,,,,,,,,,,,,,,,,,,,,,,,,,,,,,,,,,,,,,141.0,141.0,125.0,200.0,200.0,125.0,2.1,2.11,-266,260,0,250,258,-283,279.5278859138489,279.5279631614685,279.53134202957153,279.54208064079285,279.6907789707184,279.6907789707184,279.6907789707184,279.6907789707184,279.6907789707184,279.6907789707184,279.6907789707184,287.81187534332275,3,8.254100561141968,None,,,,,,,,,,,,,,,,,,219,2,2025-03-07_14h57.20.534,comp,2024.2.4,54.68275479938724,2025-03-07 14h57.31.560039 -0500,
78,78,0,critical,hdw,35.0,2.1,upper,200.0,125.0,127.0,127.0,125.0,200.0,3,2.072753667831421,None,,,,,0,0,0,0,0,78,78,21,287.8273434638977,,,,,,,,,,,,,,,,,,,,,,,,,,,,,,,,,,,,,,,,,,,,,,,,,,,,,,,,,,,,,,,,,,,,,,,,,,,,,,,,,200.0,125.0,127.0,127.0,125.0,200.0,2.1,2.12,-222,-280,0,-281,260,261,287.8134424686432,287.8135178089142,287.8170087337494,287.8273434638977,287.9816884994507,287.9816884994507,287.9816884994507,287.9816884994507,287.9816884994507,287.9816884994507,287.9816884994507,289.91634035110474,3,2.072753667831421,None,,,,,,,,,,,,,,,,,,219,2,2025-03-07_14h57.20.534,comp,2024.2.4,54.68275479938724,2025-03-07 14h57.31.560039 -0500,
79,79,0,filler_random,None,None,None,None,None,None,None,None,None,None,1,4.807505369186401,None,,,,,0,0,0,0,0,79,79,135,289.9327254295349,,,,,,,,,,,,,,,,,,,,,,,,,,,,,,,,,,,,,,,,,,,,,,,,,,,,,,,,,,,,,,,,,,,,,,,,,,,,,,,,,199.53298117524668,101.8433823370672,92.37901947818823,161.92973059332152,155.26783150486858,84.85390308887762,3.0,3.2,-228,-269,0,-8,219,276,289.9183666706085,289.9184458255768,289.92225646972656,289.9327254295349,290.077538728714,290.077538728714,290.077538728714,290.077538728714,290.077538728714,290.077538728714,290.077538728714,294.7508819103241,1,4.807505369186401,None,,,,,,,,,,,,,,,,,,219,2,2025-03-07_14h57.20.534,comp,2024.2.4,54.68275479938724,2025-03-07 14h57.31.560039 -0500,
80,80,0,critical,hdw,35.0,1.0,upper,200.0,125.0,127.0,127.0,125.0,200.0,3,2.478872299194336,None,,,,,0,0,0,0,0,80,80,109,294.7656331062317,,,,,,,,,,,,,,,,,,,,,,,,,,,,,,,,,,,,,,,,,,,,,,,,,,,,,,,,,,,,,,,,,,,,,,,,,,,,,,,,,200.0,125.0,127.0,127.0,125.0,200.0,1.0,1.1,-702,287,-480,276,-220,264,294.7525191307068,294.7526476383209,294.75603723526,294.7656331062317,294.9122748374939,294.9122748374939,294.9122748374939,294.9122748374939,294.9122748374939,294.9122748374939,294.9122748374939,297.2513949871063,3,2.478872299194336,None,,,,,,,,,,,,,,,,,,219,2,2025-03-07_14h57.20.534,comp,2024.2.4,54.68275479938724,2025-03-07 14h57.31.560039 -0500,
81,81,0,critical,dwh,20.0,3.0,lower,78.0,78.0,57.0,133.0,133.0,57.0,3,3.0656750202178955,None,,,,,0,0,0,0,0,81,81,68,297.2672235965729,,,,,,,,,,,,,,,,,,,,,,,,,,,,,,,,,,,,,,,,,,,,,,,,,,,,,,,,,,,,,,,,,,,,,,,,,,,,,,,,,78.0,78.0,57.0,133.0,133.0,57.0,3.0,3.2,-202,-257,0,3,191,270,297.25302171707153,297.25312662124634,297.2564582824707,297.2672235965729,297.41938185691833,297.41938185691833,297.41938185691833,297.41938185691833,297.41938185691833,297.41938185691833,297.41938185691833,300.3414912223816,3,3.0656750202178955,None,,,,,,,,,,,,,,,,,,219,2,2025-03-07_14h57.20.534,comp,2024.2.4,54.68275479938724,2025-03-07 14h57.31.560039 -0500,
82,82,0,critical,wdh,35.0,2.1,lower,57.0,133.0,70.0,70.0,133.0,57.0,3,2.666154623031616,None,,,,,0,0,0,0,0,82,82,8,300.36232566833496,,,,,,,,,,,,,,,,,,,,,,,,,,,,,,,,,,,,,,,,,,,,,,,,,,,,,,,,,,,,,,,,,,,,,,,,,,,,,,,,,57.0,133.0,70.0,70.0,133.0,57.0,2.1,2.11,-198,268,0,256,160,-262,300.3430631160736,300.34317278862,300.34658885002136,300.36232566833496,300.49913144111633,300.49913144111633,300.49913144111633,300.49913144111633,300.49913144111633,300.49913144111633,300.49913144111633,303.0309407711029,3,2.666154623031616,None,,,,,,,,,,,,,,,,,,219,2,2025-03-07_14h57.20.534,comp,2024.2.4,54.68275479938724,2025-03-07 14h57.31.560039 -0500,
83,83,0,critical,dwh,20.0,2.1,upper,141.0,141.0,125.0,200.0,200.0,125.0,2,2.2608563899993896,None,,,,,0,0,0,0,0,83,83,31,303.04803252220154,,,,,,,,,,,,,,,,,,,,,,,,,,,,,,,,,,,,,,,,,,,,,,,,,,,,,,,,,,,,,,,,,,,,,,,,,,,,,,,,,141.0,141.0,125.0,200.0,200.0,125.0,2.1,2.11,-266,281,0,282,258,-284,303.0325970649719,303.03267192840576,303.03617548942566,303.04803252220154,303.20269656181335,303.20269656181335,303.20269656181335,303.20269656181335,303.20269656181335,303.20269656181335,303.20269656181335,305.31483030319214,2,2.2608563899993896,None,,,,,,,,,,,,,,,,,,219,2,2025-03-07_14h57.20.534,comp,2024.2.4,54.68275479938724,2025-03-07 14h57.31.560039 -0500,
84,84,0,critical,hwd,35.0,3.0,upper,200.0,125.0,125.0,200.0,127.0,127.0,2,3.298003673553467,None,,,,,0,0,0,0,0,84,84,99,305.33113527297974,,,,,,,,,,,,,,,,,,,,,,,,,,,,,,,,,,,,,,,,,,,,,,,,,,,,,,,,,,,,,,,,,,,,,,,,,,,,,,,,,200.0,125.0,125.0,200.0,127.0,127.0,3.0,3.1,-258,250,0,2,260,-271,305.316472530365,305.31658148765564,305.3202087879181,305.33113527297974,305.4728262424469,305.4728262424469,305.4728262424469,305.4728262424469,305.4728262424469,305.4728262424469,305.4728262424469,308.63449263572693,2,3.298003673553467,None,,,,,,,,,,,,,,,,,,219,2,2025-03-07_14h57.20.534,comp,2024.2.4,54.68275479938724,2025-03-07 14h57.31.560039 -0500,
85,85,0,critical,whd,20.0,1.0,upper,125.0,200.0,200.0,125.0,141.0,141.0,1,1.6029012203216553,None,,,,,0,0,0,0,0,85,85,91,308.6495199203491,,,,,,,,,,,,,,,,,,,,,,,,,,,,,,,,,,,,,,,,,,,,,,,,,,,,,,,,,,,,,,,,,,,,,,,,,,,,,,,,,125.0,200.0,200.0,125.0,141.0,141.0,1.0,1.1,-738,290,-480,289,-251,253,308.6361446380615,308.6362261772156,308.6395721435547,308.6495199203491,308.80362582206726,308.80362582206726,308.80362582206726,308.80362582206726,308.80362582206726,308.80362582206726,308.80362582206726,310.2693090438843,1,1.6029012203216553,None,,,,,,,,,,,,,,,,,,219,2,2025-03-07_14h57.20.534,comp,2024.2.4,54.68275479938724,2025-03-07 14h57.31.560039 -0500,
86,86,0,filler_random,None,None,None,None,None,None,None,None,None,None,3,1.5824611186981201,None,,,,,0,0,0,0,0,86,86,166,310.285763502121,,,,,,,,,,,,,,,,,,,,,,,,,,,,,,,,,,,,,,,,,,,,,,,,,,,,,,,,,,,,,,,,,,,,,,,,,,,,,,,,,98.24600886907432,125.01994698670576,122.87864559266816,71.68990544278657,125.92969322914072,169.73447802371322,2.2,2.21,-194,-276,0,285,217,253,310.2712800502777,310.2713589668274,310.27512097358704,310.285763502121,310.43618965148926,310.43618965148926,310.43618965148926,310.43618965148926,310.43618965148926,310.43618965148926,310.43618965148926,311.88637495040894,3,1.5824611186981201,None,,,,,,,,,,,,,,,,,,219,2,2025-03-07_14h57.20.534,comp,2024.2.4,54.68275479938724,2025-03-07 14h57.31.560039 -0500,
87,87,0,critical,whd,35.0,2.1,lower,57.0,133.0,133.0,57.0,70.0,70.0,2,3.9591972827911377,None,,,,,0,0,0,0,0,87,87,12,311.90177631378174,,,,,,,,,,,,,,,,,,,,,,,,,,,,,,,,,,,,,,,,,,,,,,,,,,,,,,,,,,,,,,,,,,,,,,,,,,,,,,,,,57.0,133.0,133.0,57.0,70.0,70.0,2.1,2.11,-191,288,0,266,160,-256,311.8878605365753,311.8879473209381,311.8914153575897,311.90177631378174,312.0587627887726,312.0587627887726,312.0587627887726,312.0587627887726,312.0587627887726,312.0587627887726,312.0587627887726,315.87014961242676,2,3.9591972827911377,None,,,,,,,,,,,,,,,,,,219,2,2025-03-07_14h57.20.534,comp,2024.2.4,54.68275479938724,2025-03-07 14h57.31.560039 -0500,
88,88,0,filler_random,None,None,None,None,None,None,None,None,None,None,2,1.3109464645385742,None,,,,,0,0,0,0,0,88,88,150,315.886221408844,,,,,,,,,,,,,,,,,,,,,,,,,,,,,,,,,,,,,,,,,,,,,,,,,,,,,,,,,,,,,,,,,,,,,,,,,,,,,,,,,87.50575988638607,123.46647872441103,135.58078993440472,196.08118380078452,60.04830398286374,147.9790210058819,2.1,2.11,-256,254,0,251,268,-261,315.87186193466187,315.8719394207001,315.875449180603,315.886221408844,316.0368559360504,316.0368559360504,316.0368559360504,316.0368559360504,316.0368559360504,316.0368559360504,316.0368559360504,317.20504450798035,2,1.3109464645385742,None,,,,,,,,,,,,,,,,,,219,2,2025-03-07_14h57.20.534,comp,2024.2.4,54.68275479938724,2025-03-07 14h57.31.560039 -0500,
89,89,0,filler_square,None,None,None,None,None,None,None,None,None,None,3,1.3189408779144287,None,,,,,0,0,0,0,0,89,89,174,317.2219343185425,,,,,,,,,,,,,,,,,,,,,,,,,,,,,,,,,,,,,,,,,,,,,,,,,,,,,,,,,,,,,,,,,,,,,,,,,,,,,,,,,68.32636489638881,95.28224388121512,125.75505522511179,60.543318607800366,126.48797618311667,126.48797618311667,1.0,1.1,-654,256,-480,263,-290,252,317.2072579860687,317.2073931694031,317.2109594345093,317.2219343185425,317.3684697151184,317.3684697151184,317.3684697151184,317.3684697151184,317.3684697151184,317.3684697151184,317.3684697151184,318.54738759994507,3,1.3189408779144287,None,,,,,,,,,,,,,,,,,,219,2,2025-03-07_14h57.20.534,comp,2024.2.4,54.68275479938724,2025-03-07 14h57.31.560039 -0500,
90,90,0,filler_random,None,None,None,None,None,None,None,None,None,None,1,4.304197072982788,None,,,,,0,0,0,0,0,90,90,138,318.563942193985,,,,,,,,,,,,,,,,,,,,,,,,,,,,,,,,,,,,,,,,,,,,,,,,,,,,,,,,,,,,,,,,,,,,,,,,,,,,,,,,,196.77086976860068,112.92667702094305,119.20602500969463,146.93429969851366,172.05831564308224,58.071566695143304,2.1,2.11,-226,263,0,289,199,-269,318.54934072494507,318.5494215488434,318.55281686782837,318.563942193985,318.70353841781616,318.70353841781616,318.70353841781616,318.70353841781616,318.70353841781616,318.70353841781616,318.70353841781616,322.8721556663513,1,4.304197072982788,None,,,,,,,,,,,,,,,,,,219,2,2025-03-07_14h57.20.534,comp,2024.2.4,54.68275479938724,2025-03-07 14h57.31.560039 -0500,
91,91,0,filler_square,None,None,None,None,None,None,None,None,None,None,2,3.02000093460083,None,,,,,0,0,0,0,0,91,91,177,322.8883481025696,,,,,,,,,,,,,,,,,,,,,,,,,,,,,,,,,,,,,,,,,,,,,,,,,,,,,,,,,,,,,,,,,,,,,,,,,,,,,,,,,74.41195795275095,67.53760250542108,145.41715735789825,145.41715735789825,109.405479275891,67.22705335814793,3.0,3.2,-202,-261,0,18,202,288,322.87399315834045,322.87407064437866,322.8775956630707,322.8883481025696,323.0393521785736,323.0393521785736,323.0393521785736,323.0393521785736,323.0393521785736,323.0393521785736,323.0393521785736,325.92263865470886,2,3.02000093460083,None,,,,,,,,,,,,,,,,,,219,2,2025-03-07_14h57.20.534,comp,2024.2.4,54.68275479938724,2025-03-07 14h57.31.560039 -0500,
92,92,0,catch,None,None,None,None,None,None,None,None,None,None,3,1.185143232345581,None,,,,,0,0,0,0,0,92,92,128,325.9390001296997,,,,,,,,,,,,,,,,,,,,,,,,,,,,,,,,,,,,,,,,,,,,,,,,,,,,,,,,,,,,,,,,,,,,,,,,,,,,,,,,,87,103,83,107,137,188,2.1,2.11,-201,265,0,279,244,-254,325.9248731136322,325.92494916915894,325.92865538597107,325.9390001296997,326.0906140804291,326.0906140804291,326.0906140804291,326.0906140804291,326.0906140804291,326.0906140804291,326.0906140804291,327.12763357162476,3,1.185143232345581,None,,,,,,,,,,,,,,,,,,219,2,2025-03-07_14h57.20.534,comp,2024.2.4,54.68275479938724,2025-03-07 14h57.31.560039 -0500,
93,93,0,filler_random,None,None,None,None,None,None,None,None,None,None,2,1.124687910079956,None,,,,,0,0,0,0,0,93,93,145,327.1434586048126,,,,,,,,,,,,,,,,,,,,,,,,,,,,,,,,,,,,,,,,,,,,,,,,,,,,,,,,,,,,,,,,,,,,,,,,,,,,,,,,,60.525527802696395,86.6730932681802,136.65822522287408,199.2144880969273,87.30555037418942,150.05395818797962,2.1,2.12,-239,-281,0,-274,271,275,327.129358291626,327.1294367313385,327.1327660083771,327.1434586048126,327.2945704460144,327.2945704460144,327.2945704460144,327.2945704460144,327.2945704460144,327.2945704460144,327.2945704460144,328.278799533844,2,1.124687910079956,None,,,,,,,,,,,,,,,,,,219,2,2025-03-07_14h57.20.534,comp,2024.2.4,54.68275479938724,2025-03-07 14h57.31.560039 -0500,
94,94,0,critical,dwh,20.0,1.0,lower,78.0,78.0,57.0,133.0,133.0,57.0,3,4.365785360336304,None,,,,,0,0,0,0,0,94,94,66,328.29433965682983,,,,,,,,,,,,,,,,,,,,,,,,,,,,,,,,,,,,,,,,,,,,,,,,,,,,,,,,,,,,,,,,,,,,,,,,,,,,,,,,,78.0,78.0,57.0,133.0,133.0,57.0,1.0,1.1,-682,274,-480,264,-289,284,328.28039288520813,328.28047275543213,328.28353929519653,328.29433965682983,328.43858528137207,328.43858528137207,328.43858528137207,328.43858528137207,328.43858528137207,328.43858528137207,328.43858528137207,332.6760673522949,3,4.365785360336304,None,,,,,,,,,,,,,,,,,,219,2,2025-03-07_14h57.20.534,comp,2024.2.4,54.68275479938724,2025-03-07 14h57.31.560039 -0500,
95,95,0,filler_square,None,None,None,None,None,None,None,None,None,None,2,1.2000939846038818,None,,,,,0,0,0,0,0,95,95,195,332.6920087337494,,,,,,,,,,,,,,,,,,,,,,,,,,,,,,,,,,,,,,,,,,,,,,,,,,,,,,,,,,,,,,,,,,,,,,,,,,,,,,,,,57.77083928159153,162.76703070545489,177.1745192466235,177.1745192466235,164.86217256599105,163.91001481512103,2.2,2.21,-266,-284,0,288,267,258,332.67800855636597,332.6781620979309,332.6816303730011,332.6920087337494,332.84181666374207,332.84181666374207,332.84181666374207,332.84181666374207,332.84181666374207,332.84181666374207,332.84181666374207,333.89630341529846,2,1.2000939846038818,None,,,,,,,,,,,,,,,,,,219,2,2025-03-07_14h57.20.534,comp,2024.2.4,54.68275479938724,2025-03-07 14h57.31.560039 -0500,
96,96,0,critical,whd,20.0,4.0,lower,57.0,133.0,133.0,57.0,78.0,78.0,2,2.2688660621643066,None,,,,,0,0,0,0,0,96,96,94,333.9125919342041,,,,,,,,,,,,,,,,,,,,,,,,,,,,,,,,,,,,,,,,,,,,,,,,,,,,,,,,,,,,,,,,,,,,,,,,,,,,,,,,,57.0,133.0,133.0,57.0,78.0,78.0,4.0,4.1,-191,-275,0,-19,164,-266,333.8979449272156,333.89805340766907,333.9016010761261,333.9125919342041,334.0602900981903,334.0602900981903,334.0602900981903,334.0602900981903,334.0602900981903,334.0602900981903,334.0602900981903,336.1929078102112,2,2.2688660621643066,None,,,,,,,,,,,,,,,,,,219,2,2025-03-07_14h57.20.534,comp,2024.2.4,54.68275479938724,2025-03-07 14h57.31.560039 -0500,
97,97,0,critical,hwd,35.0,4.0,upper,200.0,125.0,125.0,200.0,127.0,127.0,2,2.2452945709228516,None,,,,,0,0,0,0,0,97,97,101,336.20832872390747,,,,,,,,,,,,,,,,,,,,,,,,,,,,,,,,,,,,,,,,,,,,,,,,,,,,,,,,,,,,,,,,,,,,,,,,,,,,,,,,,200.0,125.0,125.0,200.0,127.0,127.0,4.0,4.1,-258,-269,0,17,260,-280,336.19463300704956,336.1947093009949,336.1983292102814,336.20832872390747,336.3591094017029,336.3591094017029,336.3591094017029,336.3591094017029,336.3591094017029,336.3591094017029,336.3591094017029,338.4592082500458,2,2.2452945709228516,None,,,,,,,,,,,,,,,,,,219,2,2025-03-07_14h57.20.534,comp,2024.2.4,54.68275479938724,2025-03-07 14h57.31.560039 -0500,
98,98,0,critical,hwd,20.0,4.0,upper,200.0,125.0,125.0,200.0,141.0,141.0,2,2.049459934234619,None,,,,,0,0,0,0,0,98,98,107,338.47562050819397,,,,,,,,,,,,,,,,,,,,,,,,,,,,,,,,,,,,,,,,,,,,,,,,,,,,,,,,,,,,,,,,,,,,,,,,,,,,,,,,,200.0,125.0,125.0,200.0,141.0,141.0,4.0,4.1,-258,-272,0,-20,266,-276,338.4606947898865,338.46077513694763,338.4639072418213,338.47562050819397,338.6269111633301,338.6269111633301,338.6269111633301,338.6269111633301,338.6269111633301,338.6269111633301,338.6269111633301,340.53094696998596,2,2.049459934234619,None,,,,,,,,,,,,,,,,,,219,2,2025-03-07_14h57.20.534,comp,2024.2.4,54.68275479938724,2025-03-07 14h57.31.560039 -0500,
99,99,0,filler_random,None,None,None,None,None,None,None,None,None,None,3,1.4318346977233887,None,,,,,0,0,0,0,0,99,99,132,340.5483331680298,,,,,,,,,,,,,,,,,,,,,,,,,,,,,,,,,,,,,,,,,,,,,,,,,,,,,,,,,,,,,,,,,,,,,,,,,,,,,,,,,173.53105497214602,141.81883044571603,164.56679797773342,100.80327274910518,170.1600618641865,167.83985873481402,3.0,3.1,-217,285,0,11,230,-287,340.5328381061554,340.532940864563,340.5364773273468,340.5483331680298,340.6956021785736,340.6956021785736,340.6956021785736,340.6956021785736,340.6956021785736,340.6956021785736,340.6956021785736,341.9956395626068,3,1.4318346977233887,None,,,,,,,,,,,,,,,,,,219,2,2025-03-07_14h57.20.534,comp,2024.2.4,54.68275479938724,2025-03-07 14h57.31.560039 -0500,
100,100,0,critical,hdw,20.0,1.0,upper,200.0,125.0,141.0,141.0,125.0,200.0,3,2.4091970920562744,None,,,,,0,0,0,0,0,100,100,115,342.0110251903534,,,,,,,,,,,,,,,,,,,,,,,,,,,,,,,,,,,,,,,,,,,,,,,,,,,,,,,,,,,,,,,,,,,,,,,,,,,,,,,,,200.0,125.0,141.0,141.0,125.0,200.0,1.0,1.2,-229,-8,0,7,266,-4,341.99715280532837,341.9972324371338,342.00065064430237,342.0110251903534,342.16297674179077,342.16297674179077,342.16297674179077,342.16297674179077,342.16297674179077,342.16297674179077,342.16297674179077,344.4231698513031,3,2.4091970920562744,None,,,,,,,,,,,,,,,,,,219,2,2025-03-07_14h57.20.534,comp,2024.2.4,54.68275479938724,2025-03-07 14h57.31.560039 -0500,
101,101,0,critical,wdh,20.0,3.0,lower,57.0,133.0,78.0,78.0,133.0,57.0,1,3.5092334747314453,None,,,,,0,0,0,0,0,101,101,80,344.4388840198517,,,,,,,,,,,,,,,,,,,,,,,,,,,,,,,,,,,,,,,,,,,,,,,,,,,,,,,,,,,,,,,,,,,,,,,,,,,,,,,,,57.0,133.0,78.0,78.0,133.0,57.0,3.0,3.2,-202,-251,0,12,164,288,344.4246392250061,344.4247131347656,344.4277403354645,344.4388840198517,344.57928824424744,344.57928824424744,344.57928824424744,344.57928824424744,344.57928824424744,344.57928824424744,344.57928824424744,347.96387243270874,1,3.5092334747314453,None,,,,,,,,,,,,,,,,,,219,2,2025-03-07_14h57.20.534,comp,2024.2.4,54.68275479938724,2025-03-07 14h57.31.560039 -0500,
102,102,0,catch,None,None,None,None,None,None,None,None,None,None,1,2.0749590396881104,None,,,,,0,0,0,0,0,102,102,123,347.9851322174072,,,,,,,,,,,,,,,,,,,,,,,,,,,,,,,,,,,,,,,,,,,,,,,,,,,,,,,,,,,,,,,,,,,,,,,,,,,,,,,,,146,179,60,130,66,124,3.0,3.1,-250,250,0,18,223,-282,347.9658808708191,347.96595644950867,347.96915316581726,347.9851322174072,348.1295852661133,348.1295852661133,348.1295852661133,348.1295852661133,348.1295852661133,348.1295852661133,348.1295852661133,350.07116293907166,1,2.0749590396881104,None,,,,,,,,,,,,,,,,,,219,2,2025-03-07_14h57.20.534,comp,2024.2.4,54.68275479938724,2025-03-07 14h57.31.560039 -0500,
103,103,0,critical,dhw,35.0,3.0,upper,127.0,127.0,200.0,125.0,125.0,200.0,3,2.596261501312256,None,,,,,0,0,0,0,0,103,103,51,350.0879909992218,,,,,,,,,,,,,,,,,,,,,,,,,,,,,,,,,,,,,,,,,,,,,,,,,,,,,,,,,,,,,,,,,,,,,,,,,,,,,,,,,127.0,127.0,200.0,125.0,125.0,200.0,3.0,3.2,-222,-282,0,-2,258,265,350.07264614105225,350.0727229118347,350.07615423202515,350.0879909992218,350.2309319972992,350.2309319972992,350.2309319972992,350.2309319972992,350.2309319972992,350.2309319972992,350.2309319972992,352.68747758865356,3,2.596261501312256,None,,,,,,,,,,,,,,,,,,219,2,2025-03-07_14h57.20.534,comp,2024.2.4,54.68275479938724,2025-03-07 14h57.31.560039 -0500,
104,104,0,catch,None,None,None,None,None,None,None,None,None,None,2,0.9221274852752686,None,,,,,0,0,0,0,0,104,104,120,352.7064046859741,,,,,,,,,,,,,,,,,,,,,,,,,,,,,,,,,,,,,,,,,,,,,,,,,,,,,,,,,,,,,,,,,,,,,,,,,,,,,,,,,110,80,145,180,79,111,4.0,4.1,-226,-277,0,-10,242,-261,352.6895616054535,352.6896381378174,352.6930441856384,352.7064046859741,352.8489582538605,352.8489582538605,352.8489582538605,352.8489582538605,352.8489582538605,352.8489582538605,352.8489582538605,353.63287711143494,2,0.9221274852752686,None,,,,,,,,,,,,,,,,,,219,2,2025-03-07_14h57.20.534,comp,2024.2.4,54.68275479938724,2025-03-07 14h57.31.560039 -0500,
105,105,0,filler_random,None,None,None,None,None,None,None,None,None,None,1,1.7633466720581055,None,,,,,0,0,0,0,0,105,105,158,353.6494119167328,,,,,,,,,,,,,,,,,,,,,,,,,,,,,,,,,,,,,,,,,,,,,,,,,,,,,,,,,,,,,,,,,,,,,,,,,,,,,,,,,120.59391334625373,196.5259994654247,185.1165788750134,117.8594187157126,112.62083948937651,58.19240664149815,1.0,1.2,-253,0,0,0,184,8,353.6346113681793,353.6346929073334,353.6381182670593,353.6494119167328,353.79934644699097,353.79934644699097,353.79934644699097,353.79934644699097,353.79934644699097,353.79934644699097,353.79934644699097,355.4186592102051,1,1.7633466720581055,None,,,,,,,,,,,,,,,,,,219,2,2025-03-07_14h57.20.534,comp,2024.2.4,54.68275479938724,2025-03-07 14h57.31.560039 -0500,
106,106,0,critical,dhw,35.0,1.0,upper,127.0,127.0,200.0,125.0,125.0,200.0,2,1.9294624328613281,None,,,,,0,0,0,0,0,106,106,49,355.43483543395996,,,,,,,,,,,,,,,,,,,,,,,,,,,,,,,,,,,,,,,,,,,,,,,,,,,,,,,,,,,,,,,,,,,,,,,,,,,,,,,,,127.0,127.0,200.0,125.0,125.0,200.0,1.0,1.2,-222,11,0,-12,258,9,355.4201955795288,355.4202961921692,355.4238169193268,355.43483543395996,355.57880687713623,355.57880687713623,355.57880687713623,355.57880687713623,355.57880687713623,355.57880687713623,355.57880687713623,357.36645793914795,2,1.9294624328613281,None,,,,,,,,,,,,,,,,,,219,2,2025-03-07_14h57.20.534,comp,2024.2.4,54.68275479938724,2025-03-07 14h57.31.560039 -0500,
107,107,0,filler_square,None,None,None,None,None,None,None,None,None,None,3,1.5827744007110596,None,,,,,0,0,0,0,0,107,107,188,357.38219594955444,,,,,,,,,,,,,,,,,,,,,,,,,,,,,,,,,,,,,,,,,,,,,,,,,,,,,,,,,,,,,,,,,,,,,,,,,,,,,,,,,69.57733167941848,81.62281785051401,63.86728858540554,80.05156196792585,137.1909848089898,137.1909848089898,3.0,3.1,-177,276,0,19,205,-259,357.36830592155457,357.3683865070343,357.3714289665222,357.38219594955444,357.53339409828186,357.53339409828186,357.53339409828186,357.53339409828186,357.53339409828186,357.53339409828186,357.53339409828186,358.96766233444214,3,1.5827744007110596,None,,,,,,,,,,,,,,,,,,219,2,2025-03-07_14h57.20.534,comp,2024.2.4,54.68275479938724,2025-03-07 14h57.31.560039 -0500,
108,108,0,filler_square,None,None,None,None,None,None,None,None,None,None,2,1.331890344619751,None,,,,,0,0,0,0,0,108,108,199,358.9849066734314,,,,,,,,,,,,,,,,,,,,,,,,,,,,,,,,,,,,,,,,,,,,,,,,,,,,,,,,,,,,,,,,,,,,,,,,,,,,,,,,,88.39115209796725,102.03328456490125,155.04970519460977,155.04970519460977,101.14333356034686,108.55392738798041,1.0,1.1,-705,264,-480,274,-252,262,358.9696321487427,358.96971440315247,358.97322154045105,358.9849066734314,359.1213927268982,359.1213927268982,359.1213927268982,359.1213927268982,359.1213927268982,359.1213927268982,359.1213927268982,360.3234796524048,2,1.331890344619751,None,,,,,,,,,,,,,,,,,,219,2,2025-03-07_14h57.20.534,comp,2024.2.4,54.68275479938724,2025-03-07 14h57.31.560039 -0500,
109,109,0,filler_square,None,None,None,None,None,None,None,None,None,None,3,2.463374614715576,None,,,,,0,0,0,0,0,109,109,183,360.3408453464508,,,,,,,,,,,,,,,,,,,,,,,,,,,,,,,,,,,,,,,,,,,,,,,,,,,,,,,,,,,,,,,,,,,,,,,,,,,,,,,,,60.044717986695,60.00365036342616,62.772284930932145,62.772284930932145,62.60363460197591,57.25910985455923,2.1,2.11,-157,278,0,290,156,-275,360.32551622390747,360.3255970478058,360.329074382782,360.3408453464508,360.48357820510864,360.48357820510864,360.48357820510864,360.48357820510864,360.48357820510864,360.48357820510864,360.48357820510864,362.8086636066437,3,2.463374614715576,None,,,,,,,,,,,,,,,,,,219,2,2025-03-07_14h57.20.534,comp,2024.2.4,54.68275479938724,2025-03-07 14h57.31.560039 -0500,
110,110,0,critical,hdw,20.0,3.0,upper,200.0,125.0,141.0,141.0,125.0,200.0,3,1.721475601196289,None,,,,,0,0,0,0,0,110,110,117,362.826611995697,,,,,,,,,,,,,,,,,,,,,,,,,,,,,,,,,,,,,,,,,,,,,,,,,,,,,,,,,,,,,,,,,,,,,,,,,,,,,,,,,200.0,125.0,141.0,141.0,125.0,200.0,3.0,3.2,-229,-257,0,14,266,277,362.81017684936523,362.8102538585663,362.8134436607361,362.826611995697,362.96752166748047,362.96752166748047,362.96752166748047,362.96752166748047,362.96752166748047,362.96752166748047,362.96752166748047,364.55815863609314,3,1.721475601196289,None,,,,,,,,,,,,,,,,,,219,2,2025-03-07_14h57.20.534,comp,2024.2.4,54.68275479938724,2025-03-07 14h57.31.560039 -0500,
111,111,0,filler_random,None,None,None,None,None,None,None,None,None,None,2,1.1924519538879395,None,,,,,0,0,0,0,0,111,111,161,364.57285714149475,,,,,,,,,,,,,,,,,,,,,,,,,,,,,,,,,,,,,,,,,,,,,,,,,,,,,,,,,,,,,,,,,,,,,,,,,,,,,,,,,128.70707919059927,64.3261344163815,138.34683177365258,196.8536078477186,100.28416032317209,79.43523674626027,1.0,1.3,253,-262,480,-284,714,-267,364.5598909854889,364.55996894836426,364.5629780292511,364.57285714149475,364.7153272628784,364.7153272628784,364.7153272628784,364.7153272628784,364.7153272628784,364.7153272628784,364.7153272628784,365.76773381233215,2,1.1924519538879395,None,,,,,,,,,,,,,,,,,,219,2,2025-03-07_14h57.20.534,comp,2024.2.4,54.68275479938724,2025-03-07 14h57.31.560039 -0500,
112,112,0,critical,wdh,35.0,4.0,lower,57.0,133.0,70.0,70.0,133.0,57.0,3,2.3399264812469482,None,,,,,0,0,0,0,0,112,112,76,365.7842080593109,,,,,,,,,,,,,,,,,,,,,,,,,,,,,,,,,,,,,,,,,,,,,,,,,,,,,,,,,,,,,,,,,,,,,,,,,,,,,,,,,57.0,133.0,70.0,70.0,133.0,57.0,4.0,4.1,-198,-263,0,1,160,-262,365.76926946640015,365.76934695243835,365.77280020713806,365.7842080593109,365.9335107803345,365.9335107803345,365.9335107803345,365.9335107803345,365.9335107803345,365.9335107803345,365.9335107803345,368.14006638526917,3,2.3399264812469482,None,,,,,,,,,,,,,,,,,,219,2,2025-03-07_14h57.20.534,comp,2024.2.4,54.68275479938724,2025-03-07 14h57.31.560039 -0500,
113,113,0,critical,wdh,35.0,1.0,upper,125.0,200.0,127.0,127.0,200.0,125.0,3,0.9529943466186523,None,,,,,0,0,0,0,0,113,113,73,368.15592432022095,,,,,,,,,,,,,,,,,,,,,,,,,,,,,,,,,,,,,,,,,,,,,,,,,,,,,,,,,,,,,,,,,,,,,,,,,,,,,,,,,125.0,200.0,127.0,127.0,200.0,125.0,1.0,1.1,-740,285,-480,280,-258,265,368.14164423942566,368.1417193412781,368.1447193622589,368.15592432022095,368.3031687736511,368.3031687736511,368.3031687736511,368.3031687736511,368.3031687736511,368.3031687736511,368.3031687736511,369.1170582771301,3,0.9529943466186523,None,,,,,,,,,,,,,,,,,,219,2,2025-03-07_14h57.20.534,comp,2024.2.4,54.68275479938724,2025-03-07 14h57.31.560039 -0500,
114,114,0,critical,dhw,20.0,3.0,upper,141.0,141.0,200.0,125.0,125.0,200.0,2,1.7738101482391357,None,,,,,0,0,0,0,0,114,114,57,369.1343824863434,,,,,,,,,,,,,,,,,,,,,,,,,,,,,,,,,,,,,,,,,,,,,,,,,,,,,,,,,,,,,,,,,,,,,,,,,,,,,,,,,141.0,141.0,200.0,125.0,125.0,200.0,3.0,3.2,-229,-271,0,15,258,289,369.1186773777008,369.11875200271606,369.1222274303436,369.1343824863434,369.27048325538635,369.27048325538635,369.27048325538635,369.27048325538635,369.27048325538635,369.27048325538635,369.27048325538635,370.92132925987244,2,1.7738101482391357,None,,,,,,,,,,,,,,,,,,219,2,2025-03-07_14h57.20.534,comp,2024.2.4,54.68275479938724,2025-03-07 14h57.31.560039 -0500,
115,115,0,filler_square,None,None,None,None,None,None,None,None,None,None,2,1.1702513694763184,None,,,,,0,0,0,0,0,115,115,186,370.93772768974304,,,,,,,,,,,,,,,,,,,,,,,,,,,,,,,,,,,,,,,,,,,,,,,,,,,,,,,,,,,,,,,,,,,,,,,,,,,,,,,,,130.8118841796282,157.74070009233355,195.5353741217511,195.5353741217511,161.28780923863616,100.89187834298411,2.2,2.22,-273,251,0,-276,244,-259,370.92308044433594,370.9232153892517,370.927357673645,370.93772768974304,371.0884499549866,371.0884499549866,371.0884499549866,371.0884499549866,371.0884499549866,371.0884499549866,371.0884499549866,372.1233160495758,2,1.1702513694763184,None,,,,,,,,,,,,,,,,,,219,2,2025-03-07_14h57.20.534,comp,2024.2.4,54.68275479938724,2025-03-07 14h57.31.560039 -0500,
116,116,0,filler_random,None,None,None,None,None,None,None,None,None,None,2,1.5504066944122314,None,,,,,0,0,0,0,0,116,116,141,372.1415796279907,,,,,,,,,,,,,,,,,,,,,,,,,,,,,,,,,,,,,,,,,,,,,,,,,,,,,,,,,,,,,,,,,,,,,,,,,,,,,,,,,62.679435073419626,168.89872678116362,106.64733919433206,162.95544676937226,116.54788809490609,126.39624247949642,4.0,4.1,-262,-252,0,11,241,-279,372.1253855228424,372.1254675388336,372.12861156463623,372.1415796279907,372.28701639175415,372.28701639175415,372.28701639175415,372.28701639175415,372.28701639175415,372.28701639175415,372.28701639175415,373.7050724029541,2,1.5504066944122314,None,,,,,,,,,,,,,,,,,,219,2,2025-03-07_14h57.20.534,comp,2024.2.4,54.68275479938724,2025-03-07 14h57.31.560039 -0500,
117,117,0,filler_random,None,None,None,None,None,None,None,None,None,None,2,0.9499104022979736,None,,,,,0,0,0,0,0,117,117,154,373.7261996269226,,,,,,,,,,,,,,,,,,,,,,,,,,,,,,,,,,,,,,,,,,,,,,,,,,,,,,,,,,,,,,,,,,,,,,,,,,,,,,,,,113.8176453062818,128.30704186714541,185.48236446722706,174.4317444557799,180.03143497734175,118.70873842320506,2.2,2.22,-247,277,0,-288,243,-257,373.70713233947754,373.7072148323059,373.7107665538788,373.7261996269226,373.8748288154602,373.8748288154602,373.8748288154602,373.8748288154602,373.8748288154602,373.8748288154602,373.8748288154602,374.69719791412354,2,0.9499104022979736,None,,,,,,,,,,,,,,,,,,219,2,2025-03-07_14h57.20.534,comp,2024.2.4,54.68275479938724,2025-03-07 14h57.31.560039 -0500,
118,118,0,critical,dwh,20.0,2.1,lower,78.0,78.0,57.0,133.0,133.0,57.0,2,2.0390262603759766,None,,,,,0,0,0,0,0,118,118,30,374.7171137332916,,,,,,,,,,,,,,,,,,,,,,,,,,,,,,,,,,,,,,,,,,,,,,,,,,,,,,,,,,,,,,,,,,,,,,,,,,,,,,,,,78.0,78.0,57.0,133.0,133.0,57.0,2.1,2.11,-202,277,0,255,191,-258,374.69869470596313,374.6987681388855,374.70178961753845,374.7171137332916,374.85575890541077,374.85575890541077,374.85575890541077,374.85575890541077,374.85575890541077,374.85575890541077,374.85575890541077,376.769513130188,2,2.0390262603759766,None,,,,,,,,,,,,,,,,,,219,2,2025-03-07_14h57.20.534,comp,2024.2.4,54.68275479938724,2025-03-07 14h57.31.560039 -0500,
119,119,0,filler_random,None,None,None,None,None,None,None,None,None,None,3,1.202486515045166,None,,,,,0,0,0,0,0,119,119,169,376.78557085990906,,,,,,,,,,,,,,,,,,,,,,,,,,,,,,,,,,,,,,,,,,,,,,,,,,,,,,,,,,,,,,,,,,,,,,,,,,,,,,,,,124.53706046575908,101.32229418101088,78.97887176830727,93.56298196630166,181.92886734038112,129.85003909355106,2.1,2.11,-193,259,0,267,208,-263,376.77132987976074,376.7714059352875,376.77445793151855,376.78557085990906,376.9247555732727,376.9247555732727,376.9247555732727,376.9247555732727,376.9247555732727,376.9247555732727,376.9247555732727,378.0060214996338,3,1.202486515045166,None,,,,,,,,,,,,,,,,,,219,2,2025-03-07_14h57.20.534,comp,2024.2.4,54.68275479938724,2025-03-07 14h57.31.560039 -0500,
120,120,0,critical,dhw,20.0,4.0,upper,141.0,141.0,200.0,125.0,125.0,200.0,3,1.6545326709747314,None,,,,,0,0,0,0,0,120,120,59,378.0217180252075,,,,,,,,,,,,,,,,,,,,,,,,,,,,,,,,,,,,,,,,,,,,,,,,,,,,,,,,,,,,,,,,,,,,,,,,,,,,,,,,,141.0,141.0,200.0,125.0,125.0,200.0,4.0,4.1,-229,-281,0,14,258,-264,378.00748586654663,378.00756072998047,378.0110070705414,378.0217180252075,378.17589688301086,378.17589688301086,378.17589688301086,378.17589688301086,378.17589688301086,378.17589688301086,378.17589688301086,379.6878454685211,3,1.6545326709747314,None,,,,,,,,,,,,,,,,,,219,2,2025-03-07_14h57.20.534,comp,2024.2.4,54.68275479938724,2025-03-07 14h57.31.560039 -0500,
121,121,0,critical,hwd,35.0,1.0,upper,200.0,125.0,125.0,200.0,127.0,127.0,2,2.9968502521514893,None,,,,,0,0,0,0,0,121,121,97,379.7039940357208,,,,,,,,,,,,,,,,,,,,,,,,,,,,,,,,,,,,,,,,,,,,,,,,,,,,,,,,,,,,,,,,,,,,,,,,,,,,,,,,,200.0,125.0,125.0,200.0,127.0,127.0,1.0,1.1,-738,259,-480,274,-220,257,379.6894335746765,379.68950748443604,379.6925325393677,379.7039940357208,379.8427405357361,379.8427405357361,379.8427405357361,379.8427405357361,379.8427405357361,379.8427405357361,379.8427405357361,382.7088987827301,2,2.9968502521514893,None,,,,,,,,,,,,,,,,,,219,2,2025-03-07_14h57.20.534,comp,2024.2.4,54.68275479938724,2025-03-07 14h57.31.560039 -0500,
122,122,0,critical,hdw,20.0,1.0,lower,133.0,57.0,78.0,78.0,57.0,133.0,3,1.6389610767364502,None,,,,,0,0,0,0,0,122,122,114,382.7251362800598,,,,,,,,,,,,,,,,,,,,,,,,,,,,,,,,,,,,,,,,,,,,,,,,,,,,,,,,,,,,,,,,,,,,,,,,,,,,,,,,,133.0,57.0,78.0,78.0,57.0,133.0,1.0,1.1,-644,257,-480,257,-278,275,382.7104744911194,382.71055603027344,382.7141435146332,382.7251362800598,382.8748416900635,382.8748416900635,382.8748416900635,382.8748416900635,382.8748416900635,382.8748416900635,382.8748416900635,384.3783309459686,3,1.6389610767364502,None,,,,,,,,,,,,,,,,,,219,2,2025-03-07_14h57.20.534,comp,2024.2.4,54.68275479938724,2025-03-07 14h57.31.560039 -0500,
123,123,0,critical,hwd,20.0,2.1,lower,133.0,57.0,57.0,133.0,78.0,78.0,3,2.4581542015075684,None,,,,,0,0,0,0,0,123,123,42,384.39434909820557,,,,,,,,,,,,,,,,,,,,,,,,,,,,,,,,,,,,,,,,,,,,,,,,,,,,,,,,,,,,,,,,,,,,,,,,,,,,,,,,,133.0,57.0,57.0,133.0,78.0,78.0,2.1,2.11,-191,264,0,278,202,-277,384.37990951538086,384.37998604774475,384.38398480415344,384.39434909820557,384.53975105285645,384.53975105285645,384.53975105285645,384.53975105285645,384.53975105285645,384.53975105285645,384.53975105285645,386.8613157272339,3,2.4581542015075684,None,,,,,,,,,,,,,,,,,,219,2,2025-03-07_14h57.20.534,comp,2024.2.4,54.68275479938724,2025-03-07 14h57.31.560039 -0500,
124,124,0,filler_random,None,None,None,None,None,None,None,None,None,None,1,1.022075891494751,None,,,,,0,0,0,0,0,124,124,134,386.877991437912,,,,,,,,,,,,,,,,,,,,,,,,,,,,,,,,,,,,,,,,,,,,,,,,,,,,,,,,,,,,,,,,,,,,,,,,,,,,,,,,,116.92853540434591,159.6492017576943,73.78606539704268,72.52874156676228,148.595714306327,64.84901884713005,1.0,1.2,-212,-13,0,15,165,-12,386.8634686470032,386.8636031150818,386.8671283721924,386.877991437912,387.0258162021637,387.0258162021637,387.0258162021637,387.0258162021637,387.0258162021637,387.0258162021637,387.0258162021637,387.9128873348236,1,1.022075891494751,None,,,,,,,,,,,,,,,,,,219,2,2025-03-07_14h57.20.534,comp,2024.2.4,54.68275479938724,2025-03-07 14h57.31.560039 -0500,
125,125,0,critical,hdw,20.0,4.0,upper,200.0,125.0,141.0,141.0,125.0,200.0,3,1.6010265350341797,None,,,,,0,0,0,0,0,125,125,119,387.93103194236755,,,,,,,,,,,,,,,,,,,,,,,,,,,,,,,,,,,,,,,,,,,,,,,,,,,,,,,,,,,,,,,,,,,,,,,,,,,,,,,,,200.0,125.0,141.0,141.0,125.0,200.0,4.0,4.2,-229,-17,0,-266,266,7,387.9146959781647,387.91477823257446,387.91783595085144,387.93103194236755,388.0757472515106,388.0757472515106,388.0757472515106,388.0757472515106,388.0757472515106,388.0757472515106,388.0757472515106,389.54270601272583,3,1.6010265350341797,None,,,,,,,,,,,,,,,,,,219,2,2025-03-07_14h57.20.534,comp,2024.2.4,54.68275479938724,2025-03-07 14h57.31.560039 -0500,
126,126,0,critical,whd,35.0,2.1,upper,125.0,200.0,200.0,125.0,127.0,127.0,2,1.5819826126098633,None,,,,,0,0,0,0,0,126,126,13,389.5590012073517,,,,,,,,,,,,,,,,,,,,,,,,,,,,,,,,,,,,,,,,,,,,,,,,,,,,,,,,,,,,,,,,,,,,,,,,,,,,,,,,,125.0,200.0,200.0,125.0,127.0,127.0,2.1,2.12,-258,-257,0,-252,222,266,389.5442018508911,389.5442953109741,389.5475492477417,389.5590012073517,389.7092034816742,389.7092034816742,389.7092034816742,389.7092034816742,389.7092034816742,389.7092034816742,389.7092034816742,391.1447665691376,2,1.5819826126098633,None,,,,,,,,,,,,,,,,,,219,2,2025-03-07_14h57.20.534,comp,2024.2.4,54.68275479938724,2025-03-07 14h57.31.560039 -0500,
127,127,0,critical,hwd,20.0,2.1,upper,200.0,125.0,125.0,200.0,141.0,141.0,1,1.5414841175079346,None,,,,,0,0,0,0,0,127,127,43,391.15918254852295,,,,,,,,,,,,,,,,,,,,,,,,,,,,,,,,,,,,,,,,,,,,,,,,,,,,,,,,,,,,,,,,,,,,,,,,,,,,,,,,,200.0,125.0,125.0,200.0,141.0,141.0,2.1,2.12,-258,-280,0,-264,266,286,391.1462998390198,391.14637660980225,391.14950299263,391.15918254852295,391.29770135879517,391.29770135879517,391.29770135879517,391.29770135879517,391.29770135879517,391.29770135879517,391.29770135879517,392.71324610710144,1,1.5414841175079346,None,,,,,,,,,,,,,,,,,,219,2,2025-03-07_14h57.20.534,comp,2024.2.4,54.68275479938724,2025-03-07 14h57.31.560039 -0500,
128,128,0,filler_random,None,None,None,None,None,None,None,None,None,None,1,1.735877513885498,None,,,,,0,0,0,0,0,128,128,160,392.7321436405182,,,,,,,,,,,,,,,,,,,,,,,,,,,,,,,,,,,,,,,,,,,,,,,,,,,,,,,,,,,,,,,,,,,,,,,,,,,,,,,,,159.387052269347,114.67279895852096,68.87491535541552,157.85295754031912,122.00181695634782,117.37295249586205,2.2,2.21,-232,-260,0,277,234,268,392.7154469490051,392.7155828475952,392.71872091293335,392.7321436405182,392.8778398036957,392.8778398036957,392.8778398036957,392.8778398036957,392.8778398036957,392.8778398036957,392.8778398036957,394.47897720336914,1,1.735877513885498,None,,,,,,,,,,,,,,,,,,219,2,2025-03-07_14h57.20.534,comp,2024.2.4,54.68275479938724,2025-03-07 14h57.31.560039 -0500,
129,129,0,filler_square,None,None,None,None,None,None,None,None,None,None,3,1.204087257385254,None,,,,,0,0,0,0,0,129,129,182,394.49589800834656,,,,,,,,,,,,,,,,,,,,,,,,,,,,,,,,,,,,,,,,,,,,,,,,,,,,,,,,,,,,,,,,,,,,,,,,,,,,,,,,,85.03567887467345,81.50579451022851,152.96507823981472,153.60190109383277,178.5131614625787,178.5131614625787,2.1,2.11,-214,274,0,264,262,-288,394.48098850250244,394.481077671051,394.48500967025757,394.49589800834656,394.6482288837433,394.6482288837433,394.6482288837433,394.6482288837433,394.6482288837433,394.6482288837433,394.6482288837433,395.7097568511963,3,1.204087257385254,None,,,,,,,,,,,,,,,,,,219,2,2025-03-07_14h57.20.534,comp,2024.2.4,54.68275479938724,2025-03-07 14h57.31.560039 -0500,
130,130,0,critical,dhw,35.0,2.1,lower,70.0,70.0,133.0,57.0,57.0,133.0,2,2.792642116546631,None,,,,,0,0,0,0,0,130,130,0,395.72537994384766,,,,,,,,,,,,,,,,,,,,,,,,,,,,,,,,,,,,,,,,,,,,,,,,,,,,,,,,,,,,,,,,,,,,,,,,,,,,,,,,,70.0,70.0,133.0,57.0,57.0,133.0,2.1,2.12,-160,-281,0,-272,191,252,395.71131324768066,395.7113938331604,395.7145240306854,395.72537994384766,395.88136625289917,395.88136625289917,395.88136625289917,395.88136625289917,395.88136625289917,395.88136625289917,395.88136625289917,398.5237648487091,2,2.792642116546631,None,,,,,,,,,,,,,,,,,,219,2,2025-03-07_14h57.20.534,comp,2024.2.4,54.68275479938724,2025-03-07 14h57.31.560039 -0500,
131,131,0,critical,dhw,35.0,2.1,lower,70.0,70.0,133.0,57.0,57.0,133.0,2,0.9338443279266357,None,,,,,0,0,0,0,0,131,131,24,398.5422327518463,,,,,,,,,,,,,,,,,,,,,,,,,,,,,,,,,,,,,,,,,,,,,,,,,,,,,,,,,,,,,,,,,,,,,,,,,,,,,,,,,70.0,70.0,133.0,57.0,57.0,133.0,2.1,2.12,-160,-282,0,-283,191,254,398.52543687820435,398.52551651000977,398.52894949913025,398.5422327518463,398.6979341506958,398.6979341506958,398.6979341506958,398.6979341506958,398.6979341506958,398.6979341506958,398.6979341506958,399.48815536499023,2,0.9338443279266357,None,,,,,,,,,,,,,,,,,,219,2,2025-03-07_14h57.20.534,comp,2024.2.4,54.68275479938724,2025-03-07 14h57.31.560039 -0500,
132,132,0,filler_random,None,None,None,None,None,None,None,None,None,None,3,2.31754732131958,None,,,,,0,0,0,0,0,132,132,164,399.5033755302429,,,,,,,,,,,,,,,,,,,,,,,,,,,,,,,,,,,,,,,,,,,,,,,,,,,,,,,,,,,,,,,,,,,,,,,,,,,,,,,,,58.50524298101535,146.17571703826718,117.55042724554296,59.84605218964546,113.69901719913955,171.4882981724813,2.2,2.21,-199,-251,0,282,212,258,399.4898054599762,399.48987889289856,399.4928631782532,399.5033755302429,399.6437339782715,399.6437339782715,399.6437339782715,399.6437339782715,399.6437339782715,399.6437339782715,399.6437339782715,401.82888555526733,3,2.31754732131958,None,,,,,,,,,,,,,,,,,,219,2,2025-03-07_14h57.20.534,comp,2024.2.4,54.68275479938724,2025-03-07 14h57.31.560039 -0500,
133,133,0,critical,dwh,35.0,2.1,lower,70.0,70.0,57.0,133.0,133.0,57.0,2,3.928251028060913,None,,,,,0,0,0,0,0,133,133,28,401.844708442688,,,,,,,,,,,,,,,,,,,,,,,,,,,,,,,,,,,,,,,,,,,,,,,,,,,,,,,,,,,,,,,,,,,,,,,,,,,,,,,,,70.0,70.0,57.0,133.0,133.0,57.0,2.1,2.12,-198,-277,0,-281,191,262,401.8304531574249,401.83053278923035,401.8337388038635,401.844708442688,401.99514865875244,401.99514865875244,401.99514865875244,401.99514865875244,401.99514865875244,401.99514865875244,401.99514865875244,405.7818720340729,2,3.928251028060913,None,,,,,,,,,,,,,,,,,,219,2,2025-03-07_14h57.20.534,comp,2024.2.4,54.68275479938724,2025-03-07 14h57.31.560039 -0500,
134,134,0,filler_square,None,None,None,None,None,None,None,None,None,None,1,2.157388925552368,None,,,,,0,0,0,0,0,134,134,207,405.79874753952026,,,,,,,,,,,,,,,,,,,,,,,,,,,,,,,,,,,,,,,,,,,,,,,,,,,,,,,,,,,,,,,,,,,,,,,,,,,,,,,,,134.3673212074404,134.3673212074404,129.97790320549802,81.04077539981012,111.50290634995511,97.62804661096587,3.0,3.2,-204,-272,0,5,185,252,405.7837040424347,405.7837851047516,405.78789162635803,405.79874753952026,405.9572446346283,405.9572446346283,405.9572446346283,405.9572446346283,405.9572446346283,405.9572446346283,405.9572446346283,407.96952199935913,1,2.157388925552368,None,,,,,,,,,,,,,,,,,,219,2,2025-03-07_14h57.20.534,comp,2024.2.4,54.68275479938724,2025-03-07 14h57.31.560039 -0500,
135,135,0,critical,whd,20.0,2.1,upper,125.0,200.0,200.0,125.0,141.0,141.0,2,2.6044743061065674,None,,,,,0,0,0,0,0,135,135,15,407.9850482940674,,,,,,,,,,,,,,,,,,,,,,,,,,,,,,,,,,,,,,,,,,,,,,,,,,,,,,,,,,,,,,,,,,,,,,,,,,,,,,,,,125.0,200.0,200.0,125.0,141.0,141.0,2.1,2.11,-258,281,0,266,229,-285,407.9712071418762,407.9712851047516,407.9746661186218,407.9850482940674,408.131539106369,408.131539106369,408.131539106369,408.131539106369,408.131539106369,408.131539106369,408.131539106369,410.60092091560364,2,2.6044743061065674,None,,,,,,,,,,,,,,,,,,219,2,2025-03-07_14h57.20.534,comp,2024.2.4,54.68275479938724,2025-03-07 14h57.31.560039 -0500,
136,136,0,filler_random,None,None,None,None,None,None,None,None,None,None,2,1.1708266735076904,None,,,,,0,0,0,0,0,136,136,159,410.61717414855957,,,,,,,,,,,,,,,,,,,,,,,,,,,,,,,,,,,,,,,,,,,,,,,,,,,,,,,,,,,,,,,,,,,,,,,,,,,,,,,,,167.67153451085602,67.49570427052288,180.53156500823022,153.63809092357195,70.9391586365954,160.3528234173545,3.0,3.2,-207,-284,0,-13,253,262,410.60275506973267,410.6028370857239,410.60628724098206,410.61717414855957,410.7664153575897,410.7664153575897,410.7664153575897,410.7664153575897,410.7664153575897,410.7664153575897,410.7664153575897,411.7988543510437,2,1.1708266735076904,None,,,,,,,,,,,,,,,,,,219,2,2025-03-07_14h57.20.534,comp,2024.2.4,54.68275479938724,2025-03-07 14h57.31.560039 -0500,
137,137,0,filler_square,None,None,None,None,None,None,None,None,None,None,1,1.425499439239502,None,,,,,0,0,0,0,0,137,137,206,411.8191831111908,,,,,,,,,,,,,,,,,,,,,,,,,,,,,,,,,,,,,,,,,,,,,,,,,,,,,,,,,,,,,,,,,,,,,,,,,,,,,,,,,160.94949579533312,160.94949579533312,63.38055782537127,151.64074697584073,96.67311251873359,74.78538709975021,3.0,3.1,-252,280,0,3,209,-266,411.80069398880005,411.80077290534973,411.8041169643402,411.8191831111908,411.9664125442505,411.9664125442505,411.9664125442505,411.9664125442505,411.9664125442505,411.9664125442505,411.9664125442505,413.2514126300812,1,1.425499439239502,None,,,,,,,,,,,,,,,,,,219,2,2025-03-07_14h57.20.534,comp,2024.2.4,54.68275479938724,2025-03-07 14h57.31.560039 -0500,
138,138,0,critical,hdw,35.0,1.0,lower,133.0,57.0,70.0,70.0,57.0,133.0,3,2.3925387859344482,None,,,,,0,0,0,0,0,138,138,108,413.2674605846405,,,,,,,,,,,,,,,,,,,,,,,,,,,,,,,,,,,,,,,,,,,,,,,,,,,,,,,,,,,,,,,,,,,,,,,,,,,,,,,,,133.0,57.0,70.0,70.0,57.0,133.0,1.0,1.3,320,-274,480,-269,678,-285,413.2529842853546,413.2531154155731,413.256630897522,413.2674605846405,413.4037742614746,413.4037742614746,413.4037742614746,413.4037742614746,413.4037742614746,413.4037742614746,413.4037742614746,415.67601466178894,3,2.3925387859344482,None,,,,,,,,,,,,,,,,,,219,2,2025-03-07_14h57.20.534,comp,2024.2.4,54.68275479938724,2025-03-07 14h57.31.560039 -0500,
139,139,0,filler_random,None,None,None,None,None,None,None,None,None,None,3,1.6377487182617188,None,,,,,0,0,0,0,0,139,139,142,415.6943573951721,,,,,,,,,,,,,,,,,,,,,,,,,,,,,,,,,,,,,,,,,,,,,,,,,,,,,,,,,,,,,,,,,,,,,,,,,,,,,,,,,109.85249232030914,134.52633772226085,146.5920924146136,116.78703777207875,178.73402330990814,136.7449771443209,2.2,2.21,-222,-252,0,254,223,262,415.67796540260315,415.67806673049927,415.68138813972473,415.6943573951721,415.8308436870575,415.8308436870575,415.8308436870575,415.8308436870575,415.8308436870575,415.8308436870575,415.8308436870575,417.3341271877289,3,1.6377487182617188,None,,,,,,,,,,,,,,,,,,219,2,2025-03-07_14h57.20.534,comp,2024.2.4,54.68275479938724,2025-03-07 14h57.31.560039 -0500,
