thisN,thisTrialN,thisRepN,effect,order,distance,config,diag,h_1,w_1,h_2,w_2,h_3,w_3,rect_choice.keys,rect_choice.rt,rect_choice.duration,instructions_loop.thisRepN,instructions_loop.thisTrialN,instructions_loop.thisN,instructions_loop.thisIndex,blocks.thisRepN,blocks.thisTrialN,blocks.thisN,blocks.thisIndex,trials.thisRepN,trials.thisTrialN,trials.thisN,trials.thisIndex,thisRow.t,notes,consent.started,agree_button.started,decline_button.started,consent_img.started,mouse.started,consent.stopped,agree_button.numClicks,agree_button.timesOn,agree_button.timesOff,decline_button.numClicks,decline_button.timesOn,decline_button.timesOff,mouse.x,mouse.y,mouse.leftButton,mouse.midButton,mouse.rightButton,mouse.time,mouse.clicked_name,exp_params.started,exp_params.stopped,welcome.started,welcome_text.started,welcome.stopped,instructions_1.started,instructions_1_text_1.started,instructions_1_text_2.started,key_resp.started,instructions_1.stopped,instructions_loop.key_resp.keys,instructions_loop.key_resp.rt,instructions_loop.key_resp.duration,instructions_2.started,instructions_2_text_1.started,instructions_2_text_2.started,key_resp_2.started,instructions_2.stopped,instructions_loop.key_resp_2.keys,instructions_loop.key_resp_2.rt,instructions_loop.key_resp_2.duration,instructions_3.started,instructions_3_text_1.started,r1_instr3.started,r2_instr3.started,r3_instr3.started,r1_instr3_label.started,r2_instr3_label.started,r3_instr3_label.started,instructions_3_text_3.started,instructions_3_text_4.started,key_resp_3.started,instructions_3.stopped,instructions_loop.key_resp_3.keys,instructions_loop.key_resp_3.rt,instructions_loop.key_resp_3.duration,instructions_4.started,instructions_4_text_1.started,instructions_4_text_3.started,instructions_4_text_2.started,key_resp_4.started,instructions_4.stopped,instructions_loop.key_resp_4.keys,instructions_loop.key_resp_4.rt,instructions_loop.key_resp_4.duration,instructions_5.started,instructions_5_text_1.started,instructions_5_text_2.started,key_resp_5.started,instructions_5.stopped,instructions_loop.key_resp_5.keys,instructions_loop.key_resp_5.rt,instructions_loop.key_resp_5.duration,start_exp.started,start_exp_text.started,key_resp_6.started,start_exp.stopped,key_resp_6.keys,key_resp_6.rt,key_resp_6.duration,h_1_tmp,w_1_tmp,h_2_tmp,w_2_tmp,h_3_tmp,w_3_tmp,config_tmp,config_tmp_1,r_1_x,r_1_y,r_2_x,r_2_y,r_3_x,r_3_y,pre_trial.started,pre_trial.stopped,choice_trial.started,rect_choice.started,r_1.started,r_2.started,r_3.started,r_1_label.started,r_2_label.started,r_3_label.started,prompt.started,choice_trial.stopped,trials.rect_choice.keys,trials.rect_choice.rt,trials.rect_choice.duration,end_block.started,end_block_text.started,end_block.stopped,end.started,end_text.started,key_resp_7.started,end.stopped,key_resp_7.keys,key_resp_7.rt,key_resp_7.duration,debriefing.started,debrief_form.started,end_debrief.started,debriefing.stopped,end_debrief.keys,end_debrief.rt,end_debrief.duration,participant,computer,date,expName,psychopyVersion,frameRate,expStart,
,,,,,,,,,,,,,,,,,,,,,,,,,,,,,,,0.02114415168762207,0.03631949424743652,0.03631949424743652,0.03631949424743652,0.020941734313964844,177.05330610275269,1,[177.01370906829834],[177.01374459266663],0,,,[-59.0],[-494.0],[1],[0],[0],[177.03156304359436],['agree_button'],,,,,,,,,,,,,,,,,,,,,,,,,,,,,,,,,,,,,,,,,,,,,,,,,,,,,,,,,,,,,,,,,,,,,,,,,,,,,,,,,,,,,,,,,,,,,,,,,,,,,,,,,,,21,1,2025-02-18_16h02.59.732,comp,2024.2.4,55.69614470918336,2025-02-18 16h03.16.365829 -0500,
,,,,,,,,,,,,,,,,,,,,,,,,,,,,,,,,,,,,,,,,,,,,,,,,,,177.0538046360016,177.05386972427368,,,,,,,,,,,,,,,,,,,,,,,,,,,,,,,,,,,,,,,,,,,,,,,,,,,,,,,,,,,,,,,,,,,,,,,,,,,,,,,,,,,,,,,,,,,,,,,,,,,,,,,,,21,1,2025-02-18_16h02.59.732,comp,2024.2.4,55.69614470918336,2025-02-18 16h03.16.365829 -0500,
,,,,,,,,,,,,,,,,,,,,,,,,,,,,,,,,,,,,,,,,,,,,,,,,,,,,177.05391478538513,177.06690192222595,179.0632004737854,,,,,,,,,,,,,,,,,,,,,,,,,,,,,,,,,,,,,,,,,,,,,,,,,,,,,,,,,,,,,,,,,,,,,,,,,,,,,,,,,,,,,,,,,,,,,,,,,,,,,,21,1,2025-02-18_16h02.59.732,comp,2024.2.4,55.69614470918336,2025-02-18 16h03.16.365829 -0500,
0,0,0,,,,,,,,,,,,,,,0,0,0,0,,,,,,,,,179.08304405212402,,,,,,,,,,,,,,,,,,,,,,,,,,179.06411933898926,179.08304405212402,179.08304405212402,180.56560564041138,184.57192254066467,space,4.000122308731079,None,184.5720784664154,184.5903422832489,184.5903422832489,186.08274245262146,198.11950492858887,space,12.027056694030762,None,198.11966180801392,198.14976382255554,198.14976382255554,198.14976382255554,198.14976382255554,198.14976382255554,198.14976382255554,198.14976382255554,198.14976382255554,198.14976382255554,199.62362217903137,206.9295952320099,space,7.2942023277282715,None,206.92975974082947,206.9472188949585,206.9472188949585,206.9472188949585,208.44035506248474,218.1257905960083,space,9.669572353363037,None,218.12595057487488,218.14513993263245,218.14513993263245,219.62610268592834,221.1759443283081,space,1.5398054122924805,None,221.17615222930908,221.1908986568451,221.1908986568451,222.53339433670044,space,1.3269867897033691,None,,,,,,,,,,,,,,,,,,,,,,,,,,,,,,,,,,,,,,,,,,,,,,,21,1,2025-02-18_16h02.59.732,comp,2024.2.4,55.69614470918336,2025-02-18 16h03.16.365829 -0500,
0,0,0,critical,wdh,20.0,4.0,upper,125.0,200.0,141.0,141.0,200.0,125.0,1,9.508444547653198,None,,,,,0,0,0,0,0,0,0,83,222.6098108291626,,,,,,,,,,,,,,,,,,,,,,,,,,,,,,,,,,,,,,,,,,,,,,,,,,,,,,,,,,,,,,,,,,,,,,,,,,,,,,,,,125.0,200.0,141.0,141.0,200.0,125.0,4.0,4.2,-266,3,0,-273,229,11,222.59239220619202,222.59244918823242,222.594407081604,222.6098108291626,222.7440550327301,222.7440550327301,222.7440550327301,222.7440550327301,222.7440550327301,222.7440550327301,222.7440550327301,232.1313660144806,1,9.508444547653198,None,,,,,,,,,,,,,,,,,,21,1,2025-02-18_16h02.59.732,comp,2024.2.4,55.69614470918336,2025-02-18 16h03.16.365829 -0500,
1,1,0,critical,dhw,20.0,3.0,upper,141.0,141.0,200.0,125.0,125.0,200.0,3,8.437321186065674,None,,,,,0,0,0,0,0,1,1,57,232.14550304412842,,,,,,,,,,,,,,,,,,,,,,,,,,,,,,,,,,,,,,,,,,,,,,,,,,,,,,,,,,,,,,,,,,,,,,,,,,,,,,,,,141.0,141.0,200.0,125.0,125.0,200.0,3.0,3.2,-229,-265,0,5,258,257,232.1328740119934,232.1329517364502,232.1363127231598,232.14550304412842,232.28799653053284,232.28799653053284,232.28799653053284,232.28799653053284,232.28799653053284,232.28799653053284,232.28799653053284,240.59173250198364,3,8.437321186065674,None,,,,,,,,,,,,,,,,,,21,1,2025-02-18_16h02.59.732,comp,2024.2.4,55.69614470918336,2025-02-18 16h03.16.365829 -0500,
2,2,0,critical,wdh,35.0,2.1,lower,57.0,133.0,70.0,70.0,133.0,57.0,3,5.4709179401397705,None,,,,,0,0,0,0,0,2,2,8,240.60919952392578,,,,,,,,,,,,,,,,,,,,,,,,,,,,,,,,,,,,,,,,,,,,,,,,,,,,,,,,,,,,,,,,,,,,,,,,,,,,,,,,,57.0,133.0,70.0,70.0,133.0,57.0,2.1,2.12,-198,-270,0,-262,160,282,240.59330797195435,240.59339332580566,240.59626579284668,240.60919952392578,240.75389528274536,240.75389528274536,240.75389528274536,240.75389528274536,240.75389528274536,240.75389528274536,240.75389528274536,246.08497381210327,3,5.4709179401397705,None,,,,,,,,,,,,,,,,,,21,1,2025-02-18_16h02.59.732,comp,2024.2.4,55.69614470918336,2025-02-18 16h03.16.365829 -0500,
3,3,0,critical,wdh,20.0,4.0,lower,57.0,133.0,78.0,78.0,133.0,57.0,1,8.945075511932373,None,,,,,0,0,0,0,0,3,3,82,246.10165810585022,,,,,,,,,,,,,,,,,,,,,,,,,,,,,,,,,,,,,,,,,,,,,,,,,,,,,,,,,,,,,,,,,,,,,,,,,,,,,,,,,57.0,133.0,78.0,78.0,133.0,57.0,4.0,4.2,-202,-19,0,-263,164,-19,246.0865707397461,246.08664727210999,246.08974313735962,246.10165810585022,246.25323820114136,246.25323820114136,246.25323820114136,246.25323820114136,246.25323820114136,246.25323820114136,246.25323820114136,255.05780720710754,1,8.945075511932373,None,,,,,,,,,,,,,,,,,,21,1,2025-02-18_16h02.59.732,comp,2024.2.4,55.69614470918336,2025-02-18 16h03.16.365829 -0500,
4,4,0,filler_square,None,None,None,None,None,None,None,None,None,None,3,3.6725895404815674,None,,,,,0,0,0,0,0,4,4,195,255.07852387428284,,,,,,,,,,,,,,,,,,,,,,,,,,,,,,,,,,,,,,,,,,,,,,,,,,,,,,,,,,,,,,,,,,,,,,,,,,,,,,,,,80.15495131028416,62.757449846589346,103.50503470577692,147.5830146683939,158.1139375082265,158.1139375082265,3.0,3.2,-201,-283,0,-8,249,268,255.05975723266602,255.05983352661133,255.06296110153198,255.07852387428284,255.22710418701172,255.22710418701172,255.22710418701172,255.22710418701172,255.22710418701172,255.22710418701172,255.22710418701172,258.7604012489319,3,3.6725895404815674,None,,,,,,,,,,,,,,,,,,21,1,2025-02-18_16h02.59.732,comp,2024.2.4,55.69614470918336,2025-02-18 16h03.16.365829 -0500,
5,5,0,filler_square,None,None,None,None,None,None,None,None,None,None,1,4.134438753128052,None,,,,,0,0,0,0,0,5,5,172,258.7762453556061,,,,,,,,,,,,,,,,,,,,,,,,,,,,,,,,,,,,,,,,,,,,,,,,,,,,,,,,,,,,,,,,,,,,,,,,,,,,,,,,,176.7674271756377,176.7674271756377,112.85185293640254,87.2629098875329,162.98542735769752,176.2450915408069,3.0,3.1,-228,253,0,-5,228,-275,258.76214838027954,258.7622275352478,258.76553606987,258.7762453556061,258.9231586456299,258.9231586456299,258.9231586456299,258.9231586456299,258.9231586456299,258.9231586456299,258.9231586456299,262.9149034023285,1,4.134438753128052,None,,,,,,,,,,,,,,,,,,21,1,2025-02-18_16h02.59.732,comp,2024.2.4,55.69614470918336,2025-02-18 16h03.16.365829 -0500,
6,6,0,critical,whd,35.0,3.0,lower,57.0,133.0,133.0,57.0,70.0,70.0,2,3.908850908279419,None,,,,,0,0,0,0,0,6,6,86,262.9302816390991,,,,,,,,,,,,,,,,,,,,,,,,,,,,,,,,,,,,,,,,,,,,,,,,,,,,,,,,,,,,,,,,,,,,,,,,,,,,,,,,,57.0,133.0,133.0,57.0,70.0,70.0,3.0,3.1,-191,285,0,-2,160,-280,262.91646027565,262.9165360927582,262.9194121360779,262.9302816390991,263.07557010650635,263.07557010650635,263.07557010650635,263.07557010650635,263.07557010650635,263.07557010650635,263.07557010650635,266.8425142765045,2,3.908850908279419,None,,,,,,,,,,,,,,,,,,21,1,2025-02-18_16h02.59.732,comp,2024.2.4,55.69614470918336,2025-02-18 16h03.16.365829 -0500,
7,7,0,critical,wdh,20.0,2.1,lower,57.0,133.0,78.0,78.0,133.0,57.0,2,10.548019886016846,None,,,,,0,0,0,0,0,7,7,10,266.8592915534973,,,,,,,,,,,,,,,,,,,,,,,,,,,,,,,,,,,,,,,,,,,,,,,,,,,,,,,,,,,,,,,,,,,,,,,,,,,,,,,,,57.0,133.0,78.0,78.0,133.0,57.0,2.1,2.12,-202,-271,0,-289,164,265,266.844229221344,266.8443968296051,266.84790420532227,266.8592915534973,267.01211524009705,267.01211524009705,267.01211524009705,267.01211524009705,267.01211524009705,267.01211524009705,267.01211524009705,277.4155521392822,2,10.548019886016846,None,,,,,,,,,,,,,,,,,,21,1,2025-02-18_16h02.59.732,comp,2024.2.4,55.69614470918336,2025-02-18 16h03.16.365829 -0500,
8,8,0,critical,whd,35.0,4.0,upper,125.0,200.0,200.0,125.0,127.0,127.0,1,10.758053541183472,None,,,,,0,0,0,0,0,8,8,89,277.4325370788574,,,,,,,,,,,,,,,,,,,,,,,,,,,,,,,,,,,,,,,,,,,,,,,,,,,,,,,,,,,,,,,,,,,,,,,,,,,,,,,,,125.0,200.0,200.0,125.0,127.0,127.0,4.0,4.2,-258,-8,0,-260,222,-1,277.41775918006897,277.417840719223,277.4207651615143,277.4325370788574,277.5791459083557,277.5791459083557,277.5791459083557,277.5791459083557,277.5791459083557,277.5791459083557,277.5791459083557,288.2038400173187,1,10.758053541183472,None,,,,,,,,,,,,,,,,,,21,1,2025-02-18_16h02.59.732,comp,2024.2.4,55.69614470918336,2025-02-18 16h03.16.365829 -0500,
9,9,0,filler_square,None,None,None,None,None,None,None,None,None,None,1,2.338977575302124,None,,,,,0,0,0,0,0,9,9,190,288.22051095962524,,,,,,,,,,,,,,,,,,,,,,,,,,,,,,,,,,,,,,,,,,,,,,,,,,,,,,,,,,,,,,,,,,,,,,,,,,,,,,,,,142.05459001240882,142.05459001240882,61.11789495050043,91.74183640261776,122.94440621234095,131.71171950899281,2.1,2.12,-213,-264,0,-257,208,280,288.20590591430664,288.2059836387634,288.20958518981934,288.22051095962524,288.3674671649933,288.3674671649933,288.3674671649933,288.3674671649933,288.3674671649933,288.3674671649933,288.3674671649933,290.56939792633057,1,2.338977575302124,None,,,,,,,,,,,,,,,,,,21,1,2025-02-18_16h02.59.732,comp,2024.2.4,55.69614470918336,2025-02-18 16h03.16.365829 -0500,
10,10,0,filler_random,None,None,None,None,None,None,None,None,None,None,1,2.2934353351593018,None,,,,,0,0,0,0,0,10,10,143,290.58590865135193,,,,,,,,,,,,,,,,,,,,,,,,,,,,,,,,,,,,,,,,,,,,,,,,,,,,,,,,,,,,,,,,,,,,,,,,,,,,,,,,,162.81420928615609,187.46321313712164,144.85287739078706,199.66694224073746,104.90275229384272,136.84382769062358,3.0,3.2,-290,-277,0,4,264,276,290.57148599624634,290.57161569595337,290.5751383304596,290.58590865135193,290.73384523391724,290.73384523391724,290.73384523391724,290.73384523391724,290.73384523391724,290.73384523391724,290.73384523391724,292.88422417640686,1,2.2934353351593018,None,,,,,,,,,,,,,,,,,,21,1,2025-02-18_16h02.59.732,comp,2024.2.4,55.69614470918336,2025-02-18 16h03.16.365829 -0500,
11,11,0,filler_square,None,None,None,None,None,None,None,None,None,None,3,2.4276816844940186,None,,,,,0,0,0,0,0,11,11,189,292.90087699890137,,,,,,,,,,,,,,,,,,,,,,,,,,,,,,,,,,,,,,,,,,,,,,,,,,,,,,,,,,,,,,,,,,,,,,,,,,,,,,,,,59.14215847480474,70.52609509012724,71.39287767702011,58.70668354168856,73.45249782413067,73.45249782413067,2.1,2.12,-161,-257,0,-276,162,270,292.8862817287445,292.88636541366577,292.88998007774353,292.90087699890137,293.0518205165863,293.0518205165863,293.0518205165863,293.0518205165863,293.0518205165863,293.0518205165863,293.0518205165863,295.3328058719635,3,2.4276816844940186,None,,,,,,,,,,,,,,,,,,21,1,2025-02-18_16h02.59.732,comp,2024.2.4,55.69614470918336,2025-02-18 16h03.16.365829 -0500,
12,12,0,filler_random,None,None,None,None,None,None,None,None,None,None,1,2.010601282119751,None,,,,,0,0,0,0,0,12,12,136,295.34942531585693,,,,,,,,,,,,,,,,,,,,,,,,,,,,,,,,,,,,,,,,,,,,,,,,,,,,,,,,,,,,,,,,,,,,,,,,,,,,,,,,,188.55006252484293,171.29089940280264,129.58059066975767,198.5700170990526,64.17826235042409,102.83135975366864,1.0,1.3,199,-258,480,-254,727,-274,295.3346920013428,295.33477306365967,295.33804297447205,295.34942531585693,295.4983477592468,295.4983477592468,295.4983477592468,295.4983477592468,295.4983477592468,295.4983477592468,295.4983477592468,297.3704137802124,1,2.010601282119751,None,,,,,,,,,,,,,,,,,,21,1,2025-02-18_16h02.59.732,comp,2024.2.4,55.69614470918336,2025-02-18 16h03.16.365829 -0500,
13,13,0,filler_random,None,None,None,None,None,None,None,None,None,None,3,2.2930855751037598,None,,,,,0,0,0,0,0,13,13,162,297.38630270957947,,,,,,,,,,,,,,,,,,,,,,,,,,,,,,,,,,,,,,,,,,,,,,,,,,,,,,,,,,,,,,,,,,,,,,,,,,,,,,,,,84.35292173734759,99.60033473492717,170.42576099177313,83.12385240726931,193.4682246706848,190.0497129330142,4.0,4.1,-187,-256,0,-13,233,-290,297.372243642807,297.3723556995392,297.37555265426636,297.38630270957947,297.53682804107666,297.53682804107666,297.53682804107666,297.53682804107666,297.53682804107666,297.53682804107666,297.53682804107666,299.68878197669983,3,2.2930855751037598,None,,,,,,,,,,,,,,,,,,21,1,2025-02-18_16h02.59.732,comp,2024.2.4,55.69614470918336,2025-02-18 16h03.16.365829 -0500,
14,14,0,filler_random,None,None,None,None,None,None,None,None,None,None,2,2.8812332153320312,None,,,,,0,0,0,0,0,14,14,165,299.70968413352966,,,,,,,,,,,,,,,,,,,,,,,,,,,,,,,,,,,,,,,,,,,,,,,,,,,,,,,,,,,,,,,,,,,,,,,,,,,,,,,,,83.98338107121837,153.39278435183607,174.13054303871053,137.865032063233,149.9161423254272,78.31933426763372,1.0,1.2,-242,-11,0,-4,204,-4,299.69062185287476,299.6907298564911,299.69397163391113,299.70968413352966,299.85339975357056,299.85339975357056,299.85339975357056,299.85339975357056,299.85339975357056,299.85339975357056,299.85339975357056,302.6044909954071,2,2.8812332153320312,None,,,,,,,,,,,,,,,,,,21,1,2025-02-18_16h02.59.732,comp,2024.2.4,55.69614470918336,2025-02-18 16h03.16.365829 -0500,
15,15,0,critical,hwd,35.0,4.0,lower,133.0,57.0,57.0,133.0,70.0,70.0,2,5.947504758834839,None,,,,,0,0,0,0,0,15,15,100,302.62050127983093,,,,,,,,,,,,,,,,,,,,,,,,,,,,,,,,,,,,,,,,,,,,,,,,,,,,,,,,,,,,,,,,,,,,,,,,,,,,,,,,,133.0,57.0,57.0,133.0,70.0,70.0,4.0,4.2,-191,12,0,-261,198,-14,302.60607743263245,302.6061556339264,302.6102306842804,302.62050127983093,302.76977348327637,302.76977348327637,302.76977348327637,302.76977348327637,302.76977348327637,302.76977348327637,302.76977348327637,308.5727002620697,2,5.947504758834839,None,,,,,,,,,,,,,,,,,,21,1,2025-02-18_16h02.59.732,comp,2024.2.4,55.69614470918336,2025-02-18 16h03.16.365829 -0500,
16,16,0,filler_random,None,None,None,None,None,None,None,None,None,None,3,3.8337132930755615,None,,,,,0,0,0,0,0,16,16,146,308.5890245437622,,,,,,,,,,,,,,,,,,,,,,,,,,,,,,,,,,,,,,,,,,,,,,,,,,,,,,,,,,,,,,,,,,,,,,,,,,,,,,,,,129.9994201682111,80.01692249556443,101.32927212082484,159.07004793163685,157.1934507043831,104.90038481076789,2.2,2.21,-216,-277,0,286,228,265,308.5744574069977,308.5745372772217,308.5780487060547,308.5890245437622,308.7396402359009,308.7396402359009,308.7396402359009,308.7396402359009,308.7396402359009,308.7396402359009,308.7396402359009,312.4424240589142,3,3.8337132930755615,None,,,,,,,,,,,,,,,,,,21,1,2025-02-18_16h02.59.732,comp,2024.2.4,55.69614470918336,2025-02-18 16h03.16.365829 -0500,
17,17,0,critical,hwd,35.0,2.1,lower,133.0,57.0,57.0,133.0,70.0,70.0,2,5.506420373916626,None,,,,,0,0,0,0,0,17,17,40,312.4603271484375,,,,,,,,,,,,,,,,,,,,,,,,,,,,,,,,,,,,,,,,,,,,,,,,,,,,,,,,,,,,,,,,,,,,,,,,,,,,,,,,,133.0,57.0,57.0,133.0,70.0,70.0,2.1,2.11,-191,279,0,286,198,-269,312.4440689086914,312.4441945552826,312.44754576683044,312.4603271484375,312.6110649108887,312.6110649108887,312.6110649108887,312.6110649108887,312.6110649108887,312.6110649108887,312.6110649108887,317.9797830581665,2,5.506420373916626,None,,,,,,,,,,,,,,,,,,21,1,2025-02-18_16h02.59.732,comp,2024.2.4,55.69614470918336,2025-02-18 16h03.16.365829 -0500,
18,18,0,critical,dhw,35.0,2.1,lower,70.0,70.0,133.0,57.0,57.0,133.0,3,8.954633235931396,None,,,,,0,0,0,0,0,18,18,24,317.99629759788513,,,,,,,,,,,,,,,,,,,,,,,,,,,,,,,,,,,,,,,,,,,,,,,,,,,,,,,,,,,,,,,,,,,,,,,,,,,,,,,,,70.0,70.0,133.0,57.0,57.0,133.0,2.1,2.11,-160,274,0,261,191,-288,317.98171162605286,317.9818789958954,317.9852089881897,317.99629759788513,318.1447961330414,318.1447961330414,318.1447961330414,318.1447961330414,318.1447961330414,318.1447961330414,318.1447961330414,326.9604420661926,3,8.954633235931396,None,,,,,,,,,,,,,,,,,,21,1,2025-02-18_16h02.59.732,comp,2024.2.4,55.69614470918336,2025-02-18 16h03.16.365829 -0500,
19,19,0,critical,hwd,20.0,2.1,lower,133.0,57.0,57.0,133.0,78.0,78.0,3,3.680131673812866,None,,,,,0,0,0,0,0,19,19,18,326.9765589237213,,,,,,,,,,,,,,,,,,,,,,,,,,,,,,,,,,,,,,,,,,,,,,,,,,,,,,,,,,,,,,,,,,,,,,,,,,,,,,,,,133.0,57.0,57.0,133.0,78.0,78.0,2.1,2.12,-191,-283,0,-262,202,265,326.962064743042,326.9621732234955,326.96559286117554,326.9765589237213,327.1299264431,327.1299264431,327.1299264431,327.1299264431,327.1299264431,327.1299264431,327.1299264431,330.6621000766754,3,3.680131673812866,None,,,,,,,,,,,,,,,,,,21,1,2025-02-18_16h02.59.732,comp,2024.2.4,55.69614470918336,2025-02-18 16h03.16.365829 -0500,
20,20,0,critical,hdw,35.0,4.0,upper,200.0,125.0,127.0,127.0,125.0,200.0,3,5.415567874908447,None,,,,,0,0,0,0,0,20,20,113,330.6798062324524,,,,,,,,,,,,,,,,,,,,,,,,,,,,,,,,,,,,,,,,,,,,,,,,,,,,,,,,,,,,,,,,,,,,,,,,,,,,,,,,,200.0,125.0,127.0,127.0,125.0,200.0,4.0,4.2,-222,-6,0,-287,260,-19,330.6636121273041,330.663690328598,330.6668107509613,330.6798062324524,330.8177993297577,330.8177993297577,330.8177993297577,330.8177993297577,330.8177993297577,330.8177993297577,330.8177993297577,336.11415553092957,3,5.415567874908447,None,,,,,,,,,,,,,,,,,,21,1,2025-02-18_16h02.59.732,comp,2024.2.4,55.69614470918336,2025-02-18 16h03.16.365829 -0500,
21,21,0,critical,hdw,20.0,1.0,upper,200.0,125.0,141.0,141.0,125.0,200.0,3,7.81338095664978,None,,,,,0,0,0,0,0,21,21,115,336.13002133369446,,,,,,,,,,,,,,,,,,,,,,,,,,,,,,,,,,,,,,,,,,,,,,,,,,,,,,,,,,,,,,,,,,,,,,,,,,,,,,,,,200.0,125.0,141.0,141.0,125.0,200.0,1.0,1.2,-229,3,0,-9,266,-14,336.1156942844391,336.11576986312866,336.1189007759094,336.13002133369446,336.2813129425049,336.2813129425049,336.2813129425049,336.2813129425049,336.2813129425049,336.2813129425049,336.2813129425049,343.95266032218933,3,7.81338095664978,None,,,,,,,,,,,,,,,,,,21,1,2025-02-18_16h02.59.732,comp,2024.2.4,55.69614470918336,2025-02-18 16h03.16.365829 -0500,
22,22,0,critical,hdw,20.0,2.1,upper,200.0,125.0,141.0,141.0,125.0,200.0,1,7.4681806564331055,None,,,,,0,0,0,0,0,22,22,47,343.97088503837585,,,,,,,,,,,,,,,,,,,,,,,,,,,,,,,,,,,,,,,,,,,,,,,,,,,,,,,,,,,,,,,,,,,,,,,,,,,,,,,,,200.0,125.0,141.0,141.0,125.0,200.0,2.1,2.11,-229,273,0,275,266,-274,343.9542701244354,343.9543557167053,343.957722902298,343.97088503837585,344.1170778274536,344.1170778274536,344.1170778274536,344.1170778274536,344.1170778274536,344.1170778274536,344.1170778274536,351.45171761512756,1,7.4681806564331055,None,,,,,,,,,,,,,,,,,,21,1,2025-02-18_16h02.59.732,comp,2024.2.4,55.69614470918336,2025-02-18 16h03.16.365829 -0500,
23,23,0,critical,whd,20.0,4.0,lower,57.0,133.0,133.0,57.0,78.0,78.0,2,2.331979990005493,None,,,,,0,0,0,0,0,23,23,94,351.46793127059937,,,,,,,,,,,,,,,,,,,,,,,,,,,,,,,,,,,,,,,,,,,,,,,,,,,,,,,,,,,,,,,,,,,,,,,,,,,,,,,,,57.0,133.0,133.0,57.0,78.0,78.0,4.0,4.1,-191,-273,0,-8,164,-286,351.45323491096497,351.45334243774414,351.456636428833,351.46793127059937,351.6203989982605,351.6203989982605,351.6203989982605,351.6203989982605,351.6203989982605,351.6203989982605,351.6203989982605,353.8058457374573,2,2.331979990005493,None,,,,,,,,,,,,,,,,,,21,1,2025-02-18_16h02.59.732,comp,2024.2.4,55.69614470918336,2025-02-18 16h03.16.365829 -0500,
24,24,0,critical,whd,20.0,2.1,lower,57.0,133.0,133.0,57.0,78.0,78.0,3,4.969145059585571,None,,,,,0,0,0,0,0,24,24,38,353.8220965862274,,,,,,,,,,,,,,,,,,,,,,,,,,,,,,,,,,,,,,,,,,,,,,,,,,,,,,,,,,,,,,,,,,,,,,,,,,,,,,,,,57.0,133.0,133.0,57.0,78.0,78.0,2.1,2.12,-191,-277,0,-262,164,254,353.8074631690979,353.8075408935547,353.8113465309143,353.8220965862274,353.9748260974884,353.9748260974884,353.9748260974884,353.9748260974884,353.9748260974884,353.9748260974884,353.9748260974884,358.807758808136,3,4.969145059585571,None,,,,,,,,,,,,,,,,,,21,1,2025-02-18_16h02.59.732,comp,2024.2.4,55.69614470918336,2025-02-18 16h03.16.365829 -0500,
25,25,0,critical,hwd,20.0,4.0,lower,133.0,57.0,57.0,133.0,78.0,78.0,3,6.782922744750977,None,,,,,0,0,0,0,0,25,25,106,358.8243281841278,,,,,,,,,,,,,,,,,,,,,,,,,,,,,,,,,,,,,,,,,,,,,,,,,,,,,,,,,,,,,,,,,,,,,,,,,,,,,,,,,133.0,57.0,57.0,133.0,78.0,78.0,4.0,4.1,-191,-251,0,-10,202,-273,358.8095564842224,358.8096890449524,358.81310296058655,358.8243281841278,358.97837805747986,358.97837805747986,358.97837805747986,358.97837805747986,358.97837805747986,358.97837805747986,358.97837805747986,365.6095042228699,3,6.782922744750977,None,,,,,,,,,,,,,,,,,,21,1,2025-02-18_16h02.59.732,comp,2024.2.4,55.69614470918336,2025-02-18 16h03.16.365829 -0500,
26,26,0,filler_random,None,None,None,None,None,None,None,None,None,None,2,3.52725887298584,None,,,,,0,0,0,0,0,26,26,148,365.62569761276245,,,,,,,,,,,,,,,,,,,,,,,,,,,,,,,,,,,,,,,,,,,,,,,,,,,,,,,,,,,,,,,,,,,,,,,,,,,,,,,,,151.63120124262718,187.17353704034358,151.67133817533994,194.3075647978599,170.21723149944754,96.69896144968544,2.2,2.21,-287,-253,0,289,242,252,365.6113097667694,365.61139249801636,365.6145567893982,365.62569761276245,365.7751622200012,365.7751622200012,365.7751622200012,365.7751622200012,365.7751622200012,365.7751622200012,365.7751622200012,369.15716075897217,2,3.52725887298584,None,,,,,,,,,,,,,,,,,,21,1,2025-02-18_16h02.59.732,comp,2024.2.4,55.69614470918336,2025-02-18 16h03.16.365829 -0500,
27,27,0,critical,dwh,20.0,2.1,lower,78.0,78.0,57.0,133.0,133.0,57.0,2,8.377102851867676,None,,,,,0,0,0,0,0,27,27,30,369.17412877082825,,,,,,,,,,,,,,,,,,,,,,,,,,,,,,,,,,,,,,,,,,,,,,,,,,,,,,,,,,,,,,,,,,,,,,,,,,,,,,,,,78.0,78.0,57.0,133.0,133.0,57.0,2.1,2.12,-202,-288,0,-250,191,253,369.15880823135376,369.15888118743896,369.162141084671,369.17412877082825,369.313601732254,369.313601732254,369.313601732254,369.313601732254,369.313601732254,369.313601732254,369.313601732254,377.5614709854126,2,8.377102851867676,None,,,,,,,,,,,,,,,,,,21,1,2025-02-18_16h02.59.732,comp,2024.2.4,55.69614470918336,2025-02-18 16h03.16.365829 -0500,
28,28,0,filler_random,None,None,None,None,None,None,None,None,None,None,3,2.5282182693481445,None,,,,,0,0,0,0,0,28,28,166,377.5760838985443,,,,,,,,,,,,,,,,,,,,,,,,,,,,,,,,,,,,,,,,,,,,,,,,,,,,,,,,,,,,,,,,,,,,,,,,,,,,,,,,,67.07075512034585,149.55624130142854,82.87075879668646,191.77678002003324,166.09117131700003,141.4471733778646,2.1,2.12,-267,-281,0,-279,263,255,377.56317496299744,377.56327414512634,377.56654024124146,377.5760838985443,377.7253215312958,377.7253215312958,377.7253215312958,377.7253215312958,377.7253215312958,377.7253215312958,377.7253215312958,380.1106653213501,3,2.5282182693481445,None,,,,,,,,,,,,,,,,,,21,1,2025-02-18_16h02.59.732,comp,2024.2.4,55.69614470918336,2025-02-18 16h03.16.365829 -0500,
29,29,0,filler_square,None,None,None,None,None,None,None,None,None,None,2,1.595566749572754,None,,,,,0,0,0,0,0,29,29,192,380.1318094730377,,,,,,,,,,,,,,,,,,,,,,,,,,,,,,,,,,,,,,,,,,,,,,,,,,,,,,,,,,,,,,,,,,,,,,,,,,,,,,,,,67.69732127613213,104.73304632449462,148.04691584424359,148.04691584424359,129.85771601334633,104.32685797630114,3.0,3.2,-222,-252,0,-20,222,276,380.11250138282776,380.11257576942444,380.1157593727112,380.1318094730377,380.2665557861328,380.2665557861328,380.2665557861328,380.2665557861328,380.2665557861328,380.2665557861328,380.2665557861328,381.7296996116638,2,1.595566749572754,None,,,,,,,,,,,,,,,,,,21,1,2025-02-18_16h02.59.732,comp,2024.2.4,55.69614470918336,2025-02-18 16h03.16.365829 -0500,
30,30,0,critical,whd,20.0,3.0,lower,57.0,133.0,133.0,57.0,78.0,78.0,2,2.5571422576904297,None,,,,,0,0,0,0,0,30,30,92,381.7461471557617,,,,,,,,,,,,,,,,,,,,,,,,,,,,,,,,,,,,,,,,,,,,,,,,,,,,,,,,,,,,,,,,,,,,,,,,,,,,,,,,,57.0,133.0,133.0,57.0,78.0,78.0,3.0,3.1,-191,285,0,-3,164,-289,381.731228351593,381.73136281967163,381.7351222038269,381.7461471557617,381.89834570884705,381.89834570884705,381.89834570884705,381.89834570884705,381.89834570884705,381.89834570884705,381.89834570884705,384.313658952713,2,2.5571422576904297,None,,,,,,,,,,,,,,,,,,21,1,2025-02-18_16h02.59.732,comp,2024.2.4,55.69614470918336,2025-02-18 16h03.16.365829 -0500,
31,31,0,critical,hwd,20.0,3.0,lower,133.0,57.0,57.0,133.0,78.0,78.0,3,2.5015244483947754,None,,,,,0,0,0,0,0,31,31,104,384.3302445411682,,,,,,,,,,,,,,,,,,,,,,,,,,,,,,,,,,,,,,,,,,,,,,,,,,,,,,,,,,,,,,,,,,,,,,,,,,,,,,,,,133.0,57.0,57.0,133.0,78.0,78.0,3.0,3.2,-191,-282,0,19,202,268,384.3153040409088,384.31539130210876,384.3195254802704,384.3302445411682,384.4792068004608,384.4792068004608,384.4792068004608,384.4792068004608,384.4792068004608,384.4792068004608,384.4792068004608,386.8340997695923,3,2.5015244483947754,None,,,,,,,,,,,,,,,,,,21,1,2025-02-18_16h02.59.732,comp,2024.2.4,55.69614470918336,2025-02-18 16h03.16.365829 -0500,
32,32,0,critical,hwd,35.0,1.0,upper,200.0,125.0,125.0,200.0,127.0,127.0,2,8.242838621139526,None,,,,,0,0,0,0,0,32,32,97,386.8533115386963,,,,,,,,,,,,,,,,,,,,,,,,,,,,,,,,,,,,,,,,,,,,,,,,,,,,,,,,,,,,,,,,,,,,,,,,,,,,,,,,,200.0,125.0,125.0,200.0,127.0,127.0,1.0,1.1,-738,274,-480,257,-220,270,386.83596873283386,386.83610582351685,386.8395187854767,386.8533115386963,386.9983403682709,386.9983403682709,386.9983403682709,386.9983403682709,386.9983403682709,386.9983403682709,386.9983403682709,395.1005370616913,2,8.242838621139526,None,,,,,,,,,,,,,,,,,,21,1,2025-02-18_16h02.59.732,comp,2024.2.4,55.69614470918336,2025-02-18 16h03.16.365829 -0500,
33,33,0,filler_square,None,None,None,None,None,None,None,None,None,None,3,1.5793981552124023,None,,,,,0,0,0,0,0,33,33,187,395.1164288520813,,,,,,,,,,,,,,,,,,,,,,,,,,,,,,,,,,,,,,,,,,,,,,,,,,,,,,,,,,,,,,,,,,,,,,,,,,,,,,,,,67.51296478389368,123.14187759900808,87.55458350276216,112.42258567782706,147.91149564458982,147.91149564458982,2.1,2.11,-214,281,0,286,226,-261,395.10228300094604,395.10240626335144,395.1057758331299,395.1164288520813,395.26683926582336,395.26683926582336,395.26683926582336,395.26683926582336,395.26683926582336,395.26683926582336,395.26683926582336,396.7000002861023,3,1.5793981552124023,None,,,,,,,,,,,,,,,,,,21,1,2025-02-18_16h02.59.732,comp,2024.2.4,55.69614470918336,2025-02-18 16h03.16.365829 -0500,
34,34,0,critical,wdh,35.0,3.0,upper,125.0,200.0,127.0,127.0,200.0,125.0,1,10.44950795173645,None,,,,,0,0,0,0,0,34,34,75,396.7188458442688,,,,,,,,,,,,,,,,,,,,,,,,,,,,,,,,,,,,,,,,,,,,,,,,,,,,,,,,,,,,,,,,,,,,,,,,,,,,,,,,,125.0,200.0,127.0,127.0,200.0,125.0,3.0,3.1,-260,274,0,9,222,-273,396.7016041278839,396.70167803764343,396.70501708984375,396.7188458442688,396.8556559085846,396.8556559085846,396.8556559085846,396.8556559085846,396.8556559085846,396.8556559085846,396.8556559085846,407.17149806022644,1,10.44950795173645,None,,,,,,,,,,,,,,,,,,21,1,2025-02-18_16h02.59.732,comp,2024.2.4,55.69614470918336,2025-02-18 16h03.16.365829 -0500,
35,35,0,critical,whd,20.0,1.0,lower,57.0,133.0,133.0,57.0,78.0,78.0,1,6.699081897735596,None,,,,,0,0,0,0,0,35,35,90,407.18857765197754,,,,,,,,,,,,,,,,,,,,,,,,,,,,,,,,,,,,,,,,,,,,,,,,,,,,,,,,,,,,,,,,,,,,,,,,,,,,,,,,,57.0,133.0,133.0,57.0,78.0,78.0,1.0,1.3,289,-282,480,-261,644,-250,407.17312383651733,407.17320227622986,407.17732548713684,407.18857765197754,407.3402886390686,407.3402886390686,407.3402886390686,407.3402886390686,407.3402886390686,407.3402886390686,407.3402886390686,413.8907949924469,1,6.699081897735596,None,,,,,,,,,,,,,,,,,,21,1,2025-02-18_16h02.59.732,comp,2024.2.4,55.69614470918336,2025-02-18 16h03.16.365829 -0500,
36,36,0,filler_random,None,None,None,None,None,None,None,None,None,None,1,1.9955079555511475,None,,,,,0,0,0,0,0,36,36,161,413.90813302993774,,,,,,,,,,,,,,,,,,,,,,,,,,,,,,,,,,,,,,,,,,,,,,,,,,,,,,,,,,,,,,,,,,,,,,,,,,,,,,,,,127.16381686428528,156.90673450518128,110.3013963562993,134.20153598338686,78.48804333989754,162.31881679225503,4.0,4.1,-242,-288,0,-16,244,-277,413.89263105392456,413.8927137851715,413.89579606056213,413.90813302993774,414.0564503669739,414.0564503669739,414.0564503669739,414.0564503669739,414.0564503669739,414.0564503669739,414.0564503669739,415.9166901111603,1,1.9955079555511475,None,,,,,,,,,,,,,,,,,,21,1,2025-02-18_16h02.59.732,comp,2024.2.4,55.69614470918336,2025-02-18 16h03.16.365829 -0500,
37,37,0,critical,wdh,35.0,2.1,lower,57.0,133.0,70.0,70.0,133.0,57.0,3,7.455517768859863,None,,,,,0,0,0,0,0,37,37,32,415.9370951652527,,,,,,,,,,,,,,,,,,,,,,,,,,,,,,,,,,,,,,,,,,,,,,,,,,,,,,,,,,,,,,,,,,,,,,,,,,,,,,,,,57.0,133.0,70.0,70.0,133.0,57.0,2.1,2.11,-198,273,0,252,160,-270,415.9181966781616,415.91829562187195,415.9211962223053,415.9370951652527,416.0743134021759,416.0743134021759,416.0743134021759,416.0743134021759,416.0743134021759,416.0743134021759,416.0743134021759,423.40078258514404,3,7.455517768859863,None,,,,,,,,,,,,,,,,,,21,1,2025-02-18_16h02.59.732,comp,2024.2.4,55.69614470918336,2025-02-18 16h03.16.365829 -0500,
38,38,0,filler_square,None,None,None,None,None,None,None,None,None,None,1,1.910487413406372,None,,,,,0,0,0,0,0,38,38,197,423.41735792160034,,,,,,,,,,,,,,,,,,,,,,,,,,,,,,,,,,,,,,,,,,,,,,,,,,,,,,,,,,,,,,,,,,,,,,,,,,,,,,,,,80.01994660663073,80.01994660663073,64.28019034285211,63.53251535730504,69.18285931002397,58.2668437119717,2.1,2.11,-168,266,0,277,157,-264,423.4028480052948,423.40292596817017,423.4061975479126,423.41735792160034,423.5607614517212,423.5607614517212,423.5607614517212,423.5607614517212,423.5607614517212,423.5607614517212,423.5607614517212,425.3428010940552,1,1.910487413406372,None,,,,,,,,,,,,,,,,,,21,1,2025-02-18_16h02.59.732,comp,2024.2.4,55.69614470918336,2025-02-18 16h03.16.365829 -0500,
39,39,0,critical,dhw,35.0,2.1,upper,127.0,127.0,200.0,125.0,125.0,200.0,3,4.872818231582642,None,,,,,0,0,0,0,0,39,39,25,425.359041929245,,,,,,,,,,,,,,,,,,,,,,,,,,,,,,,,,,,,,,,,,,,,,,,,,,,,,,,,,,,,,,,,,,,,,,,,,,,,,,,,,127.0,127.0,200.0,125.0,125.0,200.0,2.1,2.12,-222,-281,0,-274,258,254,425.34436798095703,425.3444445133209,425.3476662635803,425.359041929245,425.49689507484436,425.49689507484436,425.49689507484436,425.49689507484436,425.49689507484436,425.49689507484436,425.49689507484436,430.24784421920776,3,4.872818231582642,None,,,,,,,,,,,,,,,,,,21,1,2025-02-18_16h02.59.732,comp,2024.2.4,55.69614470918336,2025-02-18 16h03.16.365829 -0500,
40,40,0,filler_random,None,None,None,None,None,None,None,None,None,None,2,2.9568698406219482,None,,,,,0,0,0,0,0,40,40,133,430.26858854293823,,,,,,,,,,,,,,,,,,,,,,,,,,,,,,,,,,,,,,,,,,,,,,,,,,,,,,,,,,,,,,,,,,,,,,,,,,,,,,,,,80.82725280127718,115.55295374692693,147.4781685136219,110.91720976865722,193.07041097743854,73.66255984856652,1.0,1.1,-689,259,-480,257,-292,284,430.249799489975,430.24987721443176,430.25322794914246,430.26858854293823,430.41176414489746,430.41176414489746,430.41176414489746,430.41176414489746,430.41176414489746,430.41176414489746,430.41176414489746,433.23198914527893,2,2.9568698406219482,None,,,,,,,,,,,,,,,,,,21,1,2025-02-18_16h02.59.732,comp,2024.2.4,55.69614470918336,2025-02-18 16h03.16.365829 -0500,
41,41,0,catch,None,None,None,None,None,None,None,None,None,None,2,1.471360683441162,None,,,,,0,0,0,0,0,41,41,122,433.24907541275024,,,,,,,,,,,,,,,,,,,,,,,,,,,,,,,,,,,,,,,,,,,,,,,,,,,,,,,,,,,,,,,,,,,,,,,,,,,,,,,,,102,88,147,178,59,131,4.0,4.1,-229,-288,0,18,250,-275,433.23423290252686,433.23435163497925,433.23828387260437,433.24907541275024,433.3969430923462,433.3969430923462,433.3969430923462,433.3969430923462,433.3969430923462,433.3969430923462,433.3969430923462,434.7290322780609,2,1.471360683441162,None,,,,,,,,,,,,,,,,,,21,1,2025-02-18_16h02.59.732,comp,2024.2.4,55.69614470918336,2025-02-18 16h03.16.365829 -0500,
42,42,0,filler_square,None,None,None,None,None,None,None,None,None,None,2,1.8230946063995361,None,,,,,0,0,0,0,0,42,42,196,434.7454242706299,,,,,,,,,,,,,,,,,,,,,,,,,,,,,,,,,,,,,,,,,,,,,,,,,,,,,,,,,,,,,,,,,,,,,,,,,,,,,,,,,73.28101256375808,61.923740705696716,102.93040127919136,102.93040127919136,89.27658254250478,57.53028067555004,2.1,2.11,-178,273,0,251,176,-272,434.73091101646423,434.730988740921,434.7341115474701,434.7454242706299,434.8928701877594,434.8928701877594,434.8928701877594,434.8928701877594,434.8928701877594,434.8928701877594,434.8928701877594,436.58277463912964,2,1.8230946063995361,None,,,,,,,,,,,,,,,,,,21,1,2025-02-18_16h02.59.732,comp,2024.2.4,55.69614470918336,2025-02-18 16h03.16.365829 -0500,
43,43,0,critical,wdh,35.0,1.0,upper,125.0,200.0,127.0,127.0,200.0,125.0,1,1.7534785270690918,None,,,,,0,0,0,0,0,43,43,73,436.59849977493286,,,,,,,,,,,,,,,,,,,,,,,,,,,,,,,,,,,,,,,,,,,,,,,,,,,,,,,,,,,,,,,,,,,,,,,,,,,,,,,,,125.0,200.0,127.0,127.0,200.0,125.0,1.0,1.1,-740,257,-480,275,-258,287,436.58467841148376,436.58481669425964,436.5881052017212,436.59849977493286,436.7475333213806,436.7475333213806,436.7475333213806,436.7475333213806,436.7475333213806,436.7475333213806,436.7475333213806,438.3651490211487,1,1.7534785270690918,None,,,,,,,,,,,,,,,,,,21,1,2025-02-18_16h02.59.732,comp,2024.2.4,55.69614470918336,2025-02-18 16h03.16.365829 -0500,
44,44,0,critical,dhw,20.0,2.1,lower,78.0,78.0,133.0,57.0,57.0,133.0,2,1.859351396560669,None,,,,,0,0,0,0,0,44,44,2,438.38052344322205,,,,,,,,,,,,,,,,,,,,,,,,,,,,,,,,,,,,,,,,,,,,,,,,,,,,,,,,,,,,,,,,,,,,,,,,,,,,,,,,,78.0,78.0,133.0,57.0,57.0,133.0,2.1,2.11,-164,271,0,263,191,-275,438.36673951148987,438.36681842803955,438.37028217315674,438.38052344322205,438.53104996681213,438.53104996681213,438.53104996681213,438.53104996681213,438.53104996681213,438.53104996681213,438.53104996681213,440.25709199905396,2,1.859351396560669,None,,,,,,,,,,,,,,,,,,21,1,2025-02-18_16h02.59.732,comp,2024.2.4,55.69614470918336,2025-02-18 16h03.16.365829 -0500,
45,45,0,critical,dwh,20.0,3.0,lower,78.0,78.0,57.0,133.0,133.0,57.0,2,3.618421792984009,None,,,,,0,0,0,0,0,45,45,68,440.2775161266327,,,,,,,,,,,,,,,,,,,,,,,,,,,,,,,,,,,,,,,,,,,,,,,,,,,,,,,,,,,,,,,,,,,,,,,,,,,,,,,,,78.0,78.0,57.0,133.0,133.0,57.0,3.0,3.2,-202,-274,0,9,191,274,440.2587287425995,440.2588052749634,440.2621548175812,440.2775161266327,440.41575264930725,440.41575264930725,440.41575264930725,440.41575264930725,440.41575264930725,440.41575264930725,440.41575264930725,443.9160418510437,2,3.618421792984009,None,,,,,,,,,,,,,,,,,,21,1,2025-02-18_16h02.59.732,comp,2024.2.4,55.69614470918336,2025-02-18 16h03.16.365829 -0500,
46,46,0,filler_random,None,None,None,None,None,None,None,None,None,None,3,1.3804521560668945,None,,,,,0,0,0,0,0,46,46,153,443.9320738315582,,,,,,,,,,,,,,,,,,,,,,,,,,,,,,,,,,,,,,,,,,,,,,,,,,,,,,,,,,,,,,,,,,,,,,,,,,,,,,,,,119.77967081473948,119.34325185858106,188.18304537278772,113.17908188928408,192.60061787413545,142.7046893679203,2.2,2.21,-212,-256,0,289,224,275,443.9177963733673,443.9178719520569,443.9209909439087,443.9320738315582,444.0871226787567,444.0871226787567,444.0871226787567,444.0871226787567,444.0871226787567,444.0871226787567,444.0871226787567,445.31675577163696,3,1.3804521560668945,None,,,,,,,,,,,,,,,,,,21,1,2025-02-18_16h02.59.732,comp,2024.2.4,55.69614470918336,2025-02-18 16h03.16.365829 -0500,
47,47,0,critical,hwd,35.0,3.0,lower,133.0,57.0,57.0,133.0,70.0,70.0,1,1.5080173015594482,None,,,,,0,0,0,0,0,47,47,98,445.33273911476135,,,,,,,,,,,,,,,,,,,,,,,,,,,,,,,,,,,,,,,,,,,,,,,,,,,,,,,,,,,,,,,,,,,,,,,,,,,,,,,,,133.0,57.0,57.0,133.0,70.0,70.0,3.0,3.2,-191,-260,0,8,198,275,445.3183491230011,445.31842589378357,445.32185649871826,445.33273911476135,445.48262643814087,445.48262643814087,445.48262643814087,445.48262643814087,445.48262643814087,445.48262643814087,445.48262643814087,446.8507363796234,1,1.5080173015594482,None,,,,,,,,,,,,,,,,,,21,1,2025-02-18_16h02.59.732,comp,2024.2.4,55.69614470918336,2025-02-18 16h03.16.365829 -0500,
48,48,0,filler_square,None,None,None,None,None,None,None,None,None,None,2,0.9818785190582275,None,,,,,0,0,0,0,0,48,48,198,446.8667993545532,,,,,,,,,,,,,,,,,,,,,,,,,,,,,,,,,,,,,,,,,,,,,,,,,,,,,,,,,,,,,,,,,,,,,,,,,,,,,,,,,68.22176243316916,57.83878374081643,157.63250728748912,157.63250728748912,63.034948032589114,87.617182093938,3.0,3.1,-204,253,0,12,219,-274,446.85253524780273,446.8526141643524,446.85604190826416,446.8667993545532,447.018315076828,447.018315076828,447.018315076828,447.018315076828,447.018315076828,447.018315076828,447.018315076828,447.8547945022583,2,0.9818785190582275,None,,,,,,,,,,,,,,,,,,21,1,2025-02-18_16h02.59.732,comp,2024.2.4,55.69614470918336,2025-02-18 16h03.16.365829 -0500,
49,49,0,critical,dhw,35.0,2.1,upper,127.0,127.0,200.0,125.0,125.0,200.0,3,3.0412938594818115,None,,,,,0,0,0,0,0,49,49,1,447.871689081192,,,,,,,,,,,,,,,,,,,,,,,,,,,,,,,,,,,,,,,,,,,,,,,,,,,,,,,,,,,,,,,,,,,,,,,,,,,,,,,,,127.0,127.0,200.0,125.0,125.0,200.0,2.1,2.12,-222,-266,0,-275,258,257,447.8566184043884,447.8567497730255,447.86004281044006,447.871689081192,448.01855063438416,448.01855063438416,448.01855063438416,448.01855063438416,448.01855063438416,448.01855063438416,448.01855063438416,450.9184651374817,3,3.0412938594818115,None,,,,,,,,,,,,,,,,,,21,1,2025-02-18_16h02.59.732,comp,2024.2.4,55.69614470918336,2025-02-18 16h03.16.365829 -0500,
50,50,0,filler_random,None,None,None,None,None,None,None,None,None,None,2,1.6416616439819336,None,,,,,0,0,0,0,0,50,50,131,450.93502855300903,,,,,,,,,,,,,,,,,,,,,,,,,,,,,,,,,,,,,,,,,,,,,,,,,,,,,,,,,,,,,,,,,,,,,,,,,,,,,,,,,76.72337149132403,132.54147588451752,145.7628689176012,107.78764703392682,86.70716294286763,58.93720167996595,4.0,4.2,-216,-6,0,-265,179,15,450.9200723171234,450.92015075683594,450.92375898361206,450.93502855300903,451.08403635025024,451.08403635025024,451.08403635025024,451.08403635025024,451.08403635025024,451.08403635025024,451.08403635025024,452.58795046806335,2,1.6416616439819336,None,,,,,,,,,,,,,,,,,,21,1,2025-02-18_16h02.59.732,comp,2024.2.4,55.69614470918336,2025-02-18 16h03.16.365829 -0500,
51,51,0,critical,dwh,20.0,1.0,lower,78.0,78.0,57.0,133.0,133.0,57.0,2,4.2829978466033936,None,,,,,0,0,0,0,0,51,51,66,452.6050443649292,,,,,,,,,,,,,,,,,,,,,,,,,,,,,,,,,,,,,,,,,,,,,,,,,,,,,,,,,,,,,,,,,,,,,,,,,,,,,,,,,78.0,78.0,57.0,133.0,133.0,57.0,1.0,1.3,278,-261,480,-264,671,-281,452.58973240852356,452.58981132507324,452.59373712539673,452.6050443649292,452.75754714012146,452.75754714012146,452.75754714012146,452.75754714012146,452.75754714012146,452.75754714012146,452.75754714012146,456.90385007858276,2,4.2829978466033936,None,,,,,,,,,,,,,,,,,,21,1,2025-02-18_16h02.59.732,comp,2024.2.4,55.69614470918336,2025-02-18 16h03.16.365829 -0500,
52,52,0,critical,hwd,20.0,3.0,upper,200.0,125.0,125.0,200.0,141.0,141.0,3,3.104675531387329,None,,,,,0,0,0,0,0,52,52,105,456.91995573043823,,,,,,,,,,,,,,,,,,,,,,,,,,,,,,,,,,,,,,,,,,,,,,,,,,,,,,,,,,,,,,,,,,,,,,,,,,,,,,,,,200.0,125.0,125.0,200.0,141.0,141.0,3.0,3.1,-258,259,0,2,266,-284,456.90543365478516,456.90551137924194,456.90966725349426,456.91995573043823,457.07090425491333,457.07090425491333,457.07090425491333,457.07090425491333,457.07090425491333,457.07090425491333,457.07090425491333,460.0415515899658,3,3.104675531387329,None,,,,,,,,,,,,,,,,,,21,1,2025-02-18_16h02.59.732,comp,2024.2.4,55.69614470918336,2025-02-18 16h03.16.365829 -0500,
53,53,0,critical,hdw,35.0,3.0,upper,200.0,125.0,127.0,127.0,125.0,200.0,3,2.10736346244812,None,,,,,0,0,0,0,0,53,53,111,460.06151485443115,,,,,,,,,,,,,,,,,,,,,,,,,,,,,,,,,,,,,,,,,,,,,,,,,,,,,,,,,,,,,,,,,,,,,,,,,,,,,,,,,200.0,125.0,127.0,127.0,125.0,200.0,3.0,3.2,-222,-257,0,-1,260,257,460.04340505599976,460.043541431427,460.04663825035095,460.06151485443115,460.2064402103424,460.2064402103424,460.2064402103424,460.2064402103424,460.2064402103424,460.2064402103424,460.2064402103424,462.17202615737915,3,2.10736346244812,None,,,,,,,,,,,,,,,,,,21,1,2025-02-18_16h02.59.732,comp,2024.2.4,55.69614470918336,2025-02-18 16h03.16.365829 -0500,
54,54,0,critical,hdw,35.0,3.0,lower,133.0,57.0,70.0,70.0,57.0,133.0,1,3.092160224914551,None,,,,,0,0,0,0,0,54,54,110,462.1882379055023,,,,,,,,,,,,,,,,,,,,,,,,,,,,,,,,,,,,,,,,,,,,,,,,,,,,,,,,,,,,,,,,,,,,,,,,,,,,,,,,,133.0,57.0,70.0,70.0,57.0,133.0,3.0,3.2,-160,-269,0,-7,198,256,462.173700094223,462.1738250255585,462.1773624420166,462.1882379055023,462.3436915874481,462.3436915874481,462.3436915874481,462.3436915874481,462.3436915874481,462.3436915874481,462.3436915874481,465.2923457622528,1,3.092160224914551,None,,,,,,,,,,,,,,,,,,21,1,2025-02-18_16h02.59.732,comp,2024.2.4,55.69614470918336,2025-02-18 16h03.16.365829 -0500,
55,55,0,critical,hdw,35.0,4.0,lower,133.0,57.0,70.0,70.0,57.0,133.0,1,6.2040135860443115,None,,,,,0,0,0,0,0,55,55,112,465.3089187145233,,,,,,,,,,,,,,,,,,,,,,,,,,,,,,,,,,,,,,,,,,,,,,,,,,,,,,,,,,,,,,,,,,,,,,,,,,,,,,,,,133.0,57.0,70.0,70.0,57.0,133.0,4.0,4.1,-160,-287,0,-6,198,-263,465.29410791397095,465.294189453125,465.2981204986572,465.3089187145233,465.4571521282196,465.4571521282196,465.4571521282196,465.4571521282196,465.4571521282196,465.4571521282196,465.4571521282196,471.51745891571045,1,6.2040135860443115,None,,,,,,,,,,,,,,,,,,21,1,2025-02-18_16h02.59.732,comp,2024.2.4,55.69614470918336,2025-02-18 16h03.16.365829 -0500,
56,56,0,critical,dwh,20.0,2.1,lower,78.0,78.0,57.0,133.0,133.0,57.0,3,4.22532844543457,None,,,,,0,0,0,0,0,56,56,6,471.53509163856506,,,,,,,,,,,,,,,,,,,,,,,,,,,,,,,,,,,,,,,,,,,,,,,,,,,,,,,,,,,,,,,,,,,,,,,,,,,,,,,,,78.0,78.0,57.0,133.0,133.0,57.0,2.1,2.12,-202,-274,0,-280,191,268,471.51896572113037,471.51904344558716,471.52193665504456,471.53509163856506,471.6749656200409,471.6749656200409,471.6749656200409,471.6749656200409,471.6749656200409,471.6749656200409,471.6749656200409,475.7623724937439,3,4.22532844543457,None,,,,,,,,,,,,,,,,,,21,1,2025-02-18_16h02.59.732,comp,2024.2.4,55.69614470918336,2025-02-18 16h03.16.365829 -0500,
57,57,0,critical,whd,35.0,4.0,lower,57.0,133.0,133.0,57.0,70.0,70.0,2,2.942984104156494,None,,,,,0,0,0,0,0,57,57,88,475.7779116630554,,,,,,,,,,,,,,,,,,,,,,,,,,,,,,,,,,,,,,,,,,,,,,,,,,,,,,,,,,,,,,,,,,,,,,,,,,,,,,,,,57.0,133.0,133.0,57.0,70.0,70.0,4.0,4.1,-191,-257,0,-12,160,-288,475.7639834880829,475.7640628814697,475.7671983242035,475.7779116630554,475.927152633667,475.927152633667,475.927152633667,475.927152633667,475.927152633667,475.927152633667,475.927152633667,478.72874641418457,2,2.942984104156494,None,,,,,,,,,,,,,,,,,,21,1,2025-02-18_16h02.59.732,comp,2024.2.4,55.69614470918336,2025-02-18 16h03.16.365829 -0500,
58,58,0,filler_random,None,None,None,None,None,None,None,None,None,None,1,1.7274978160858154,None,,,,,0,0,0,0,0,58,58,145,478.7456200122833,,,,,,,,,,,,,,,,,,,,,,,,,,,,,,,,,,,,,,,,,,,,,,,,,,,,,,,,,,,,,,,,,,,,,,,,,,,,,,,,,189.97770720009441,191.12160389345505,194.30156717272996,128.52392465247277,107.96315240228955,173.2978916547133,4.0,4.2,-256,-3,0,-270,247,-16,478.7305963039398,478.73072504997253,478.73467469215393,478.7456200122833,478.89389991760254,478.89389991760254,478.89389991760254,478.89389991760254,478.89389991760254,478.89389991760254,478.89389991760254,480.47595715522766,1,1.7274978160858154,None,,,,,,,,,,,,,,,,,,21,1,2025-02-18_16h02.59.732,comp,2024.2.4,55.69614470918336,2025-02-18 16h03.16.365829 -0500,
59,59,0,critical,whd,20.0,2.1,upper,125.0,200.0,200.0,125.0,141.0,141.0,2,8.550662279129028,None,,,,,0,0,0,0,0,59,59,39,480.498165845871,,,,,,,,,,,,,,,,,,,,,,,,,,,,,,,,,,,,,,,,,,,,,,,,,,,,,,,,,,,,,,,,,,,,,,,,,,,,,,,,,125.0,200.0,200.0,125.0,141.0,141.0,2.1,2.11,-258,282,0,276,229,-255,480.4776659011841,480.4777603149414,480.4810719490051,480.498165845871,480.6334891319275,480.6334891319275,480.6334891319275,480.6334891319275,480.6334891319275,480.6334891319275,480.6334891319275,489.052845954895,2,8.550662279129028,None,,,,,,,,,,,,,,,,,,21,1,2025-02-18_16h02.59.732,comp,2024.2.4,55.69614470918336,2025-02-18 16h03.16.365829 -0500,
60,60,0,filler_square,None,None,None,None,None,None,None,None,None,None,3,1.5013997554779053,None,,,,,0,0,0,0,0,60,60,178,489.07497453689575,,,,,,,,,,,,,,,,,,,,,,,,,,,,,,,,,,,,,,,,,,,,,,,,,,,,,,,,,,,,,,,,,,,,,,,,,,,,,,,,,84.688930293518,84.688930293518,67.97402028016243,66.12003431783188,76.43140353857237,78.9507449872536,2.2,2.21,-171,-285,0,280,169,285,489.05467534065247,489.054808139801,489.0581760406494,489.07497453689575,489.21072125434875,489.21072125434875,489.21072125434875,489.21072125434875,489.21072125434875,489.21072125434875,489.21072125434875,490.5921902656555,3,1.5013997554779053,None,,,,,,,,,,,,,,,,,,21,1,2025-02-18_16h02.59.732,comp,2024.2.4,55.69614470918336,2025-02-18 16h03.16.365829 -0500,
61,61,0,filler_square,None,None,None,None,None,None,None,None,None,None,2,1.5440194606781006,None,,,,,0,0,0,0,0,61,61,173,490.60835361480713,,,,,,,,,,,,,,,,,,,,,,,,,,,,,,,,,,,,,,,,,,,,,,,,,,,,,,,,,,,,,,,,,,,,,,,,,,,,,,,,,85.44344436987053,69.40409197116692,90.86889879576756,90.86889879576756,77.3068401089163,81.41824901122209,2.2,2.22,-176,257,0,-288,182,-285,490.59405541419983,490.59412956237793,490.59706234931946,490.60835361480713,490.7601480484009,490.7601480484009,490.7601480484009,490.7601480484009,490.7601480484009,490.7601480484009,490.7601480484009,492.16311383247375,2,1.5440194606781006,None,,,,,,,,,,,,,,,,,,21,1,2025-02-18_16h02.59.732,comp,2024.2.4,55.69614470918336,2025-02-18 16h03.16.365829 -0500,
62,62,0,catch,None,None,None,None,None,None,None,None,None,None,2,2.1084365844726562,None,,,,,0,0,0,0,0,62,62,128,492.17993235588074,,,,,,,,,,,,,,,,,,,,,,,,,,,,,,,,,,,,,,,,,,,,,,,,,,,,,,,,,,,,,,,,,,,,,,,,,,,,,,,,,109,81,164,161,122,68,4.0,4.1,-217,-272,0,-5,210,-268,492.16497802734375,492.1650538444519,492.16808319091797,492.17993235588074,492.3297665119171,492.3297665119171,492.3297665119171,492.3297665119171,492.3297665119171,492.3297665119171,492.3297665119171,494.30400371551514,2,2.1084365844726562,None,,,,,,,,,,,,,,,,,,21,1,2025-02-18_16h02.59.732,comp,2024.2.4,55.69614470918336,2025-02-18 16h03.16.365829 -0500,
63,63,0,critical,dhw,20.0,2.1,lower,78.0,78.0,133.0,57.0,57.0,133.0,2,2.817843437194824,None,,,,,0,0,0,0,0,63,63,26,494.31866931915283,,,,,,,,,,,,,,,,,,,,,,,,,,,,,,,,,,,,,,,,,,,,,,,,,,,,,,,,,,,,,,,,,,,,,,,,,,,,,,,,,78.0,78.0,133.0,57.0,57.0,133.0,2.1,2.11,-164,275,0,255,191,-283,494.30549240112305,494.3055658340454,494.3084077835083,494.31866931915283,494.46583676338196,494.46583676338196,494.46583676338196,494.46583676338196,494.46583676338196,494.46583676338196,494.46583676338196,497.14218306541443,2,2.817843437194824,None,,,,,,,,,,,,,,,,,,21,1,2025-02-18_16h02.59.732,comp,2024.2.4,55.69614470918336,2025-02-18 16h03.16.365829 -0500,
64,64,0,filler_random,None,None,None,None,None,None,None,None,None,None,1,1.01473069190979,None,,,,,0,0,0,0,0,64,64,147,497.16261410713196,,,,,,,,,,,,,,,,,,,,,,,,,,,,,,,,,,,,,,,,,,,,,,,,,,,,,,,,,,,,,,,,,,,,,,,,,,,,,,,,,190.77037976259516,191.63290725549498,75.37426571542466,127.10749053481388,86.03302217013143,135.10917739649068,4.0,4.1,-255,-272,0,-11,227,-268,497.14392733573914,497.144006729126,497.14688515663147,497.16261410713196,497.29865550994873,497.29865550994873,497.29865550994873,497.29865550994873,497.29865550994873,497.29865550994873,497.29865550994873,498.18408465385437,1,1.01473069190979,None,,,,,,,,,,,,,,,,,,21,1,2025-02-18_16h02.59.732,comp,2024.2.4,55.69614470918336,2025-02-18 16h03.16.365829 -0500,
65,65,0,filler_random,None,None,None,None,None,None,None,None,None,None,1,0.7919833660125732,None,,,,,0,0,0,0,0,65,65,134,498.20131754875183,,,,,,,,,,,,,,,,,,,,,,,,,,,,,,,,,,,,,,,,,,,,,,,,,,,,,,,,,,,,,,,,,,,,,,,,,,,,,,,,,194.4045082580872,196.28676365176645,118.15205232628479,94.20771208092597,100.68863085216643,88.54781214188212,4.0,4.2,-241,-7,0,-283,187,1,498.18612408638,498.18620347976685,498.1905686855316,498.20131754875183,498.35783219337463,498.35783219337463,498.35783219337463,498.35783219337463,498.35783219337463,498.35783219337463,498.35783219337463,499.0006535053253,1,0.7919833660125732,None,,,,,,,,,,,,,,,,,,21,1,2025-02-18_16h02.59.732,comp,2024.2.4,55.69614470918336,2025-02-18 16h03.16.365829 -0500,
66,66,0,critical,dwh,35.0,3.0,upper,127.0,127.0,125.0,200.0,200.0,125.0,3,1.8712420463562012,None,,,,,0,0,0,0,0,66,66,63,499.0170679092407,,,,,,,,,,,,,,,,,,,,,,,,,,,,,,,,,,,,,,,,,,,,,,,,,,,,,,,,,,,,,,,,,,,,,,,,,,,,,,,,,127.0,127.0,125.0,200.0,200.0,125.0,3.0,3.1,-260,283,0,-14,258,-253,499.00223875045776,499.0023822784424,499.0057942867279,499.0170679092407,499.1660146713257,499.1660146713257,499.1660146713257,499.1660146713257,499.1660146713257,499.1660146713257,499.1660146713257,500.9025785923004,3,1.8712420463562012,None,,,,,,,,,,,,,,,,,,21,1,2025-02-18_16h02.59.732,comp,2024.2.4,55.69614470918336,2025-02-18 16h03.16.365829 -0500,
67,67,0,filler_random,None,None,None,None,None,None,None,None,None,None,2,2.2505178451538086,None,,,,,0,0,0,0,0,67,67,156,500.91883754730225,,,,,,,,,,,,,,,,,,,,,,,,,,,,,,,,,,,,,,,,,,,,,,,,,,,,,,,,,,,,,,,,,,,,,,,,,,,,,,,,,71.52801161064521,147.82630630236915,167.11198744137977,73.4225169116139,60.401543146375865,125.95963907773411,3.0,3.2,-207,-282,0,20,196,251,500.90456223487854,500.9046378135681,500.90853571891785,500.91883754730225,501.0745041370392,501.0745041370392,501.0745041370392,501.0745041370392,501.0745041370392,501.0745041370392,501.0745041370392,503.17276644706726,2,2.2505178451538086,None,,,,,,,,,,,,,,,,,,21,1,2025-02-18_16h02.59.732,comp,2024.2.4,55.69614470918336,2025-02-18 16h03.16.365829 -0500,
68,68,0,critical,hwd,35.0,2.1,upper,200.0,125.0,125.0,200.0,127.0,127.0,2,6.05122971534729,None,,,,,0,0,0,0,0,68,68,17,503.1893382072449,,,,,,,,,,,,,,,,,,,,,,,,,,,,,,,,,,,,,,,,,,,,,,,,,,,,,,,,,,,,,,,,,,,,,,,,,,,,,,,,,200.0,125.0,125.0,200.0,127.0,127.0,2.1,2.12,-258,-288,0,-268,260,275,503.1743268966675,503.1744034290314,503.178236246109,503.1893382072449,503.3384509086609,503.3384509086609,503.3384509086609,503.3384509086609,503.3384509086609,503.3384509086609,503.3384509086609,509.25407576560974,2,6.05122971534729,None,,,,,,,,,,,,,,,,,,21,1,2025-02-18_16h02.59.732,comp,2024.2.4,55.69614470918336,2025-02-18 16h03.16.365829 -0500,
69,69,0,filler_square,None,None,None,None,None,None,None,None,None,None,1,2.0189554691314697,None,,,,,0,0,0,0,0,69,69,201,509.27042746543884,,,,,,,,,,,,,,,,,,,,,,,,,,,,,,,,,,,,,,,,,,,,,,,,,,,,,,,,,,,,,,,,,,,,,,,,,,,,,,,,,123.27200732705633,123.27200732705633,82.62290715145586,121.04202857576853,91.10210853175089,69.02117517625496,2.1,2.11,-218,252,0,250,191,-250,509.2559814453125,509.2560591697693,509.2601191997528,509.27042746543884,509.4207944869995,509.4207944869995,509.4207944869995,509.4207944869995,509.4207944869995,509.4207944869995,509.4207944869995,511.3065893650055,1,2.0189554691314697,None,,,,,,,,,,,,,,,,,,21,1,2025-02-18_16h02.59.732,comp,2024.2.4,55.69614470918336,2025-02-18 16h03.16.365829 -0500,
70,70,0,filler_square,None,None,None,None,None,None,None,None,None,None,3,2.0784432888031006,None,,,,,0,0,0,0,0,70,70,206,511.3229470252991,,,,,,,,,,,,,,,,,,,,,,,,,,,,,,,,,,,,,,,,,,,,,,,,,,,,,,,,,,,,,,,,,,,,,,,,,,,,,,,,,94.53662626196729,64.96190159877905,96.34816619096515,96.34816619096515,95.5711436697488,92.78219175578931,1.0,1.2,-177,7,0,17,191,-10,511.3086302280426,511.3087110519409,511.3126540184021,511.3229470252991,511.46919202804565,511.46919202804565,511.46919202804565,511.46919202804565,511.46919202804565,511.46919202804565,511.46919202804565,513.408087015152,3,2.0784432888031006,None,,,,,,,,,,,,,,,,,,21,1,2025-02-18_16h02.59.732,comp,2024.2.4,55.69614470918336,2025-02-18 16h03.16.365829 -0500,
71,71,0,filler_random,None,None,None,None,None,None,None,None,None,None,2,6.169048547744751,None,,,,,0,0,0,0,0,71,71,149,513.4235298633575,,,,,,,,,,,,,,,,,,,,,,,,,,,,,,,,,,,,,,,,,,,,,,,,,,,,,,,,,,,,,,,,,,,,,,,,,,,,,,,,,92.53657586230813,99.56759930267819,98.35035198467226,182.02803167775238,165.12475888204244,82.57285069934497,2.1,2.12,-237,-263,0,-281,228,276,513.4101202487946,513.4101982116699,513.4134840965271,513.4235298633575,513.5703327655792,513.5703327655792,513.5703327655792,513.5703327655792,513.5703327655792,513.5703327655792,513.5703327655792,519.6062977313995,2,6.169048547744751,None,,,,,,,,,,,,,,,,,,21,1,2025-02-18_16h02.59.732,comp,2024.2.4,55.69614470918336,2025-02-18 16h03.16.365829 -0500,
72,72,0,filler_random,None,None,None,None,None,None,None,None,None,None,3,1.7310075759887695,None,,,,,0,0,0,0,0,72,72,140,519.6223237514496,,,,,,,,,,,,,,,,,,,,,,,,,,,,,,,,,,,,,,,,,,,,,,,,,,,,,,,,,,,,,,,,,,,,,,,,,,,,,,,,,170.46827082920325,61.50092727171059,135.25809027304732,75.6434969293619,145.85973712488266,96.87840178977825,2.1,2.12,-165,-281,0,-253,182,287,519.6079711914062,519.6080455780029,519.6110169887543,519.6223237514496,519.7707588672638,519.7707588672638,519.7707588672638,519.7707588672638,519.7707588672638,519.7707588672638,519.7707588672638,521.3575682640076,3,1.7310075759887695,None,,,,,,,,,,,,,,,,,,21,1,2025-02-18_16h02.59.732,comp,2024.2.4,55.69614470918336,2025-02-18 16h03.16.365829 -0500,
73,73,0,critical,dhw,35.0,1.0,upper,127.0,127.0,200.0,125.0,125.0,200.0,3,2.94027042388916,None,,,,,0,0,0,0,0,73,73,49,521.3731985092163,,,,,,,,,,,,,,,,,,,,,,,,,,,,,,,,,,,,,,,,,,,,,,,,,,,,,,,,,,,,,,,,,,,,,,,,,,,,,,,,,127.0,127.0,200.0,125.0,125.0,200.0,1.0,1.1,-702,289,-480,286,-222,259,521.3590824604034,521.3591568470001,521.3625433444977,521.3731985092163,521.5304381847382,521.5304381847382,521.5304381847382,521.5304381847382,521.5304381847382,521.5304381847382,521.5304381847382,524.3196041584015,3,2.94027042388916,None,,,,,,,,,,,,,,,,,,21,1,2025-02-18_16h02.59.732,comp,2024.2.4,55.69614470918336,2025-02-18 16h03.16.365829 -0500,
74,74,0,filler_random,None,None,None,None,None,None,None,None,None,None,3,1.840083122253418,None,,,,,0,0,0,0,0,74,74,158,524.3366787433624,,,,,,,,,,,,,,,,,,,,,,,,,,,,,,,,,,,,,,,,,,,,,,,,,,,,,,,,,,,,,,,,,,,,,,,,,,,,,,,,,107.62149014255681,162.15838269923972,150.4467574946803,125.70895868165799,153.1870378461552,173.42264187826822,3.0,3.2,-240,-265,0,1,246,270,524.3214972019196,524.3215763568878,524.3247973918915,524.3366787433624,524.4788568019867,524.4788568019867,524.4788568019867,524.4788568019867,524.4788568019867,524.4788568019867,524.4788568019867,526.1922442913055,3,1.840083122253418,None,,,,,,,,,,,,,,,,,,21,1,2025-02-18_16h02.59.732,comp,2024.2.4,55.69614470918336,2025-02-18 16h03.16.365829 -0500,
75,75,0,critical,wdh,35.0,2.1,upper,125.0,200.0,127.0,127.0,200.0,125.0,1,3.336740016937256,None,,,,,0,0,0,0,0,75,75,33,526.208155632019,,,,,,,,,,,,,,,,,,,,,,,,,,,,,,,,,,,,,,,,,,,,,,,,,,,,,,,,,,,,,,,,,,,,,,,,,,,,,,,,,125.0,200.0,127.0,127.0,200.0,125.0,2.1,2.12,-260,-280,0,-271,222,273,526.1938796043396,526.1939668655396,526.1977570056915,526.208155632019,526.3590002059937,526.3590002059937,526.3590002059937,526.3590002059937,526.3590002059937,526.3590002059937,526.3590002059937,529.5607755184174,1,3.336740016937256,None,,,,,,,,,,,,,,,,,,21,1,2025-02-18_16h02.59.732,comp,2024.2.4,55.69614470918336,2025-02-18 16h03.16.365829 -0500,
76,76,0,filler_square,None,None,None,None,None,None,None,None,None,None,2,1.0077793598175049,None,,,,,0,0,0,0,0,76,76,170,529.5769019126892,,,,,,,,,,,,,,,,,,,,,,,,,,,,,,,,,,,,,,,,,,,,,,,,,,,,,,,,,,,,,,,,,,,,,,,,,,,,,,,,,87.67722665820325,123.14984859801125,141.07313569556436,141.07313569556436,63.521790758995806,80.30205040736621,1.0,1.1,-708,266,-480,272,-273,271,529.5625128746033,529.5625886917114,529.5657405853271,529.5769019126892,529.7311825752258,529.7311825752258,529.7311825752258,529.7311825752258,529.7311825752258,529.7311825752258,529.7311825752258,530.5938258171082,2,1.0077793598175049,None,,,,,,,,,,,,,,,,,,21,1,2025-02-18_16h02.59.732,comp,2024.2.4,55.69614470918336,2025-02-18 16h03.16.365829 -0500,
77,77,0,critical,dhw,35.0,1.0,lower,70.0,70.0,133.0,57.0,57.0,133.0,3,1.670360803604126,None,,,,,0,0,0,0,0,77,77,48,530.610348701477,,,,,,,,,,,,,,,,,,,,,,,,,,,,,,,,,,,,,,,,,,,,,,,,,,,,,,,,,,,,,,,,,,,,,,,,,,,,,,,,,70.0,70.0,133.0,57.0,57.0,133.0,1.0,1.1,-640,261,-480,252,-289,256,530.5953831672668,530.5954823493958,530.5995497703552,530.610348701477,530.7609167098999,530.7609167098999,530.7609167098999,530.7609167098999,530.7609167098999,530.7609167098999,530.7609167098999,532.2976126670837,3,1.670360803604126,None,,,,,,,,,,,,,,,,,,21,1,2025-02-18_16h02.59.732,comp,2024.2.4,55.69614470918336,2025-02-18 16h03.16.365829 -0500,
78,78,0,filler_square,None,None,None,None,None,None,None,None,None,None,2,3.5650885105133057,None,,,,,0,0,0,0,0,78,78,202,532.3156898021698,,,,,,,,,,,,,,,,,,,,,,,,,,,,,,,,,,,,,,,,,,,,,,,,,,,,,,,,,,,,,,,,,,,,,,,,,,,,,,,,,60.238641797241264,90.80033304639527,133.96112103990686,133.48580231964766,137.00230145925997,137.00230145925997,4.0,4.2,-208,-5,0,-282,231,-11,532.2994871139526,532.2995669841766,532.3027245998383,532.3156898021698,532.4621679782867,532.4621679782867,532.4621679782867,532.4621679782867,532.4621679782867,532.4621679782867,532.4621679782867,535.8954901695251,2,3.5650885105133057,None,,,,,,,,,,,,,,,,,,21,1,2025-02-18_16h02.59.732,comp,2024.2.4,55.69614470918336,2025-02-18 16h03.16.365829 -0500,
79,79,0,filler_square,None,None,None,None,None,None,None,None,None,None,2,1.3463218212127686,None,,,,,0,0,0,0,0,79,79,182,535.9111654758453,,,,,,,,,,,,,,,,,,,,,,,,,,,,,,,,,,,,,,,,,,,,,,,,,,,,,,,,,,,,,,,,,,,,,,,,,,,,,,,,,80.22282453224926,81.08627333041345,137.20277395306135,137.20277395306135,136.88072344629006,108.64626029629521,3.0,3.1,-205,252,0,-9,219,-264,535.89728474617,535.8973627090454,535.9007687568665,535.9111654758453,536.0624318122864,536.0624318122864,536.0624318122864,536.0624318122864,536.0624318122864,536.0624318122864,536.0624318122864,537.2608120441437,2,1.3463218212127686,None,,,,,,,,,,,,,,,,,,21,1,2025-02-18_16h02.59.732,comp,2024.2.4,55.69614470918336,2025-02-18 16h03.16.365829 -0500,
80,80,0,filler_random,None,None,None,None,None,None,None,None,None,None,3,2.364251136779785,None,,,,,0,0,0,0,0,80,80,167,537.2770721912384,,,,,,,,,,,,,,,,,,,,,,,,,,,,,,,,,,,,,,,,,,,,,,,,,,,,,,,,,,,,,,,,,,,,,,,,,,,,,,,,,154.62088645889622,177.46123793039794,173.66783612661715,128.81951688553949,161.7043343150475,177.129903482106,1.0,1.3,231,-276,480,-282,729,-287,537.26247382164,537.2625510692596,537.2654657363892,537.2770721912384,537.4156532287598,537.4156532287598,537.4156532287598,537.4156532287598,537.4156532287598,537.4156532287598,537.4156532287598,539.650847196579,3,2.364251136779785,None,,,,,,,,,,,,,,,,,,21,1,2025-02-18_16h02.59.732,comp,2024.2.4,55.69614470918336,2025-02-18 16h03.16.365829 -0500,
81,81,0,filler_random,None,None,None,None,None,None,None,None,None,None,2,9.513158082962036,None,,,,,0,0,0,0,0,81,81,139,539.6716423034668,,,,,,,,,,,,,,,,,,,,,,,,,,,,,,,,,,,,,,,,,,,,,,,,,,,,,,,,,,,,,,,,,,,,,,,,,,,,,,,,,122.68733765262296,120.34696932542082,153.55745313892206,137.1183186319007,189.48233994089264,125.21417153267312,2.1,2.11,-225,280,0,289,227,-283,539.6526646614075,539.6527442932129,539.6559176445007,539.6716423034668,539.8135585784912,539.8135585784912,539.8135585784912,539.8135585784912,539.8135585784912,539.8135585784912,539.8135585784912,549.1994051933289,2,9.513158082962036,None,,,,,,,,,,,,,,,,,,21,1,2025-02-18_16h02.59.732,comp,2024.2.4,55.69614470918336,2025-02-18 16h03.16.365829 -0500,
82,82,0,critical,whd,35.0,2.1,upper,125.0,200.0,200.0,125.0,127.0,127.0,2,2.2898008823394775,None,,,,,0,0,0,0,0,82,82,13,549.2151927947998,,,,,,,,,,,,,,,,,,,,,,,,,,,,,,,,,,,,,,,,,,,,,,,,,,,,,,,,,,,,,,,,,,,,,,,,,,,,,,,,,125.0,200.0,200.0,125.0,127.0,127.0,2.1,2.12,-258,-287,0,-285,222,285,549.2008802890778,549.2009561061859,549.2042074203491,549.2151927947998,549.3718011379242,549.3718011379242,549.3718011379242,549.3718011379242,549.3718011379242,549.3718011379242,549.3718011379242,551.5194711685181,2,2.2898008823394775,None,,,,,,,,,,,,,,,,,,21,1,2025-02-18_16h02.59.732,comp,2024.2.4,55.69614470918336,2025-02-18 16h03.16.365829 -0500,
83,83,0,critical,dwh,20.0,4.0,upper,141.0,141.0,125.0,200.0,200.0,125.0,3,2.9220902919769287,None,,,,,0,0,0,0,0,83,83,71,551.5347077846527,,,,,,,,,,,,,,,,,,,,,,,,,,,,,,,,,,,,,,,,,,,,,,,,,,,,,,,,,,,,,,,,,,,,,,,,,,,,,,,,,141.0,141.0,125.0,200.0,200.0,125.0,4.0,4.1,-266,-270,0,-13,258,-277,551.5211040973663,551.5211791992188,551.5240836143494,551.5347077846527,551.6846022605896,551.6846022605896,551.6846022605896,551.6846022605896,551.6846022605896,551.6846022605896,551.6846022605896,554.469034910202,3,2.9220902919769287,None,,,,,,,,,,,,,,,,,,21,1,2025-02-18_16h02.59.732,comp,2024.2.4,55.69614470918336,2025-02-18 16h03.16.365829 -0500,
84,84,0,filler_square,None,None,None,None,None,None,None,None,None,None,2,2.731341600418091,None,,,,,0,0,0,0,0,84,84,181,554.4862232208252,,,,,,,,,,,,,,,,,,,,,,,,,,,,,,,,,,,,,,,,,,,,,,,,,,,,,,,,,,,,,,,,,,,,,,,,,,,,,,,,,59.27300271728274,89.75304914605569,104.6876591358901,104.6876591358901,76.6099064614896,104.6089062092386,1.0,1.1,-673,267,-480,288,-279,264,554.4709088802338,554.4709837436676,554.4741492271423,554.4862232208252,554.630889415741,554.630889415741,554.630889415741,554.630889415741,554.630889415741,554.630889415741,554.630889415741,557.2352390289307,2,2.731341600418091,None,,,,,,,,,,,,,,,,,,21,1,2025-02-18_16h02.59.732,comp,2024.2.4,55.69614470918336,2025-02-18 16h03.16.365829 -0500,
85,85,0,critical,hdw,20.0,3.0,upper,200.0,125.0,141.0,141.0,125.0,200.0,1,1.8015673160552979,None,,,,,0,0,0,0,0,85,85,117,557.255411863327,,,,,,,,,,,,,,,,,,,,,,,,,,,,,,,,,,,,,,,,,,,,,,,,,,,,,,,,,,,,,,,,,,,,,,,,,,,,,,,,,200.0,125.0,141.0,141.0,125.0,200.0,3.0,3.1,-229,266,0,-9,266,-268,557.2367761135101,557.2368516921997,557.2400915622711,557.255411863327,557.4026238918304,557.4026238918304,557.4026238918304,557.4026238918304,557.4026238918304,557.4026238918304,557.4026238918304,559.0705013275146,1,1.8015673160552979,None,,,,,,,,,,,,,,,,,,21,1,2025-02-18_16h02.59.732,comp,2024.2.4,55.69614470918336,2025-02-18 16h03.16.365829 -0500,
86,86,0,filler_random,None,None,None,None,None,None,None,None,None,None,3,2.3799445629119873,None,,,,,0,0,0,0,0,86,86,144,559.0859632492065,,,,,,,,,,,,,,,,,,,,,,,,,,,,,,,,,,,,,,,,,,,,,,,,,,,,,,,,,,,,,,,,,,,,,,,,,,,,,,,,,123.78111444845882,84.34040028905547,125.11572372727937,164.20345224894777,198.64854711588254,92.95144486380886,2.2,2.21,-220,-270,0,262,225,263,559.0722382068634,559.0723400115967,559.075441122055,559.0859632492065,559.2388265132904,559.2388265132904,559.2388265132904,559.2388265132904,559.2388265132904,559.2388265132904,559.2388265132904,561.4728078842163,3,2.3799445629119873,None,,,,,,,,,,,,,,,,,,21,1,2025-02-18_16h02.59.732,comp,2024.2.4,55.69614470918336,2025-02-18 16h03.16.365829 -0500,
87,87,0,filler_square,None,None,None,None,None,None,None,None,None,None,3,1.6555373668670654,None,,,,,0,0,0,0,0,87,87,184,561.4901912212372,,,,,,,,,,,,,,,,,,,,,,,,,,,,,,,,,,,,,,,,,,,,,,,,,,,,,,,,,,,,,,,,,,,,,,,,,,,,,,,,,135.63582016574446,125.78826261916903,119.10003133575975,119.80445866441985,145.60430009840155,145.60430009840155,3.0,3.2,-219,-263,0,15,229,282,561.4748914241791,561.4749717712402,561.4784324169159,561.4901912212372,561.6405630111694,561.6405630111694,561.6405630111694,561.6405630111694,561.6405630111694,561.6405630111694,561.6405630111694,563.1560318470001,3,1.6555373668670654,None,,,,,,,,,,,,,,,,,,21,1,2025-02-18_16h02.59.732,comp,2024.2.4,55.69614470918336,2025-02-18 16h03.16.365829 -0500,
88,88,0,critical,hdw,35.0,1.0,upper,200.0,125.0,127.0,127.0,125.0,200.0,3,3.468963623046875,None,,,,,0,0,0,0,0,88,88,109,563.1726417541504,,,,,,,,,,,,,,,,,,,,,,,,,,,,,,,,,,,,,,,,,,,,,,,,,,,,,,,,,,,,,,,,,,,,,,,,,,,,,,,,,200.0,125.0,127.0,127.0,125.0,200.0,1.0,1.2,-222,-16,0,-3,260,15,563.1577997207642,563.1578772068024,563.1618239879608,563.1726417541504,563.3254799842834,563.3254799842834,563.3254799842834,563.3254799842834,563.3254799842834,563.3254799842834,563.3254799842834,566.643860578537,3,3.468963623046875,None,,,,,,,,,,,,,,,,,,21,1,2025-02-18_16h02.59.732,comp,2024.2.4,55.69614470918336,2025-02-18 16h03.16.365829 -0500,
89,89,0,filler_square,None,None,None,None,None,None,None,None,None,None,2,2.036294937133789,None,,,,,0,0,0,0,0,89,89,171,566.6606464385986,,,,,,,,,,,,,,,,,,,,,,,,,,,,,,,,,,,,,,,,,,,,,,,,,,,,,,,,,,,,,,,,,,,,,,,,,,,,,,,,,83.28241997187371,60.40674195747953,89.42307024628599,89.42307024628599,61.88025575068998,76.49363808600918,1.0,1.1,-651,264,-480,285,-301,260,566.6457846164703,566.64586353302,566.6488692760468,566.6606464385986,566.8063969612122,566.8063969612122,566.8063969612122,566.8063969612122,566.8063969612122,566.8063969612122,566.8063969612122,568.7073686122894,2,2.036294937133789,None,,,,,,,,,,,,,,,,,,21,1,2025-02-18_16h02.59.732,comp,2024.2.4,55.69614470918336,2025-02-18 16h03.16.365829 -0500,
90,90,0,filler_random,None,None,None,None,None,None,None,None,None,None,3,1.166550636291504,None,,,,,0,0,0,0,0,90,90,164,568.723310470581,,,,,,,,,,,,,,,,,,,,,,,,,,,,,,,,,,,,,,,,,,,,,,,,,,,,,,,,,,,,,,,,,,,,,,,,,,,,,,,,,102.91136306833556,91.3094901679024,159.13782844008125,61.487051206576915,124.63719042693162,106.62015942252003,2.1,2.12,-172,-269,0,-277,180,251,568.709050655365,568.7091290950775,568.7125942707062,568.723310470581,568.8755185604095,568.8755185604095,568.8755185604095,568.8755185604095,568.8755185604095,568.8755185604095,568.8755185604095,569.894184589386,3,1.166550636291504,None,,,,,,,,,,,,,,,,,,21,1,2025-02-18_16h02.59.732,comp,2024.2.4,55.69614470918336,2025-02-18 16h03.16.365829 -0500,
91,91,0,critical,wdh,20.0,2.1,upper,125.0,200.0,141.0,141.0,200.0,125.0,3,2.6036746501922607,None,,,,,0,0,0,0,0,91,91,35,569.9100472927094,,,,,,,,,,,,,,,,,,,,,,,,,,,,,,,,,,,,,,,,,,,,,,,,,,,,,,,,,,,,,,,,,,,,,,,,,,,,,,,,,125.0,200.0,141.0,141.0,200.0,125.0,2.1,2.12,-266,-277,0,-254,229,257,569.8957738876343,569.8958504199982,569.8992025852203,569.9100472927094,570.0630476474762,570.0630476474762,570.0630476474762,570.0630476474762,570.0630476474762,570.0630476474762,570.0630476474762,572.518657207489,3,2.6036746501922607,None,,,,,,,,,,,,,,,,,,21,1,2025-02-18_16h02.59.732,comp,2024.2.4,55.69614470918336,2025-02-18 16h03.16.365829 -0500,
92,92,0,critical,dwh,35.0,4.0,lower,70.0,70.0,57.0,133.0,133.0,57.0,3,1.769869089126587,None,,,,,0,0,0,0,0,92,92,64,572.535130739212,,,,,,,,,,,,,,,,,,,,,,,,,,,,,,,,,,,,,,,,,,,,,,,,,,,,,,,,,,,,,,,,,,,,,,,,,,,,,,,,,70.0,70.0,57.0,133.0,133.0,57.0,4.0,4.1,-198,-256,0,-14,191,-258,572.5202326774597,572.5203378200531,572.5237069129944,572.535130739212,572.6727240085602,572.6727240085602,572.6727240085602,572.6727240085602,572.6727240085602,572.6727240085602,572.6727240085602,574.3090243339539,3,1.769869089126587,None,,,,,,,,,,,,,,,,,,21,1,2025-02-18_16h02.59.732,comp,2024.2.4,55.69614470918336,2025-02-18 16h03.16.365829 -0500,
93,93,0,filler_random,None,None,None,None,None,None,None,None,None,None,2,1.4447782039642334,None,,,,,0,0,0,0,0,93,93,169,574.3250596523285,,,,,,,,,,,,,,,,,,,,,,,,,,,,,,,,,,,,,,,,,,,,,,,,,,,,,,,,,,,,,,,,,,,,,,,,,,,,,,,,,199.1790023905092,90.60977456931481,133.21359215000257,197.29886989884142,123.18166671622026,172.8314310327615,4.0,4.1,-240,-257,0,-12,281,-256,574.310848236084,574.3109295368195,574.3143057823181,574.3250596523285,574.4797959327698,574.4797959327698,574.4797959327698,574.4797959327698,574.4797959327698,574.4797959327698,574.4797959327698,575.7745363712311,2,1.4447782039642334,None,,,,,,,,,,,,,,,,,,21,1,2025-02-18_16h02.59.732,comp,2024.2.4,55.69614470918336,2025-02-18 16h03.16.365829 -0500,
94,94,0,filler_square,None,None,None,None,None,None,None,None,None,None,3,1.7023813724517822,None,,,,,0,0,0,0,0,94,94,209,575.79532289505,,,,,,,,,,,,,,,,,,,,,,,,,,,,,,,,,,,,,,,,,,,,,,,,,,,,,,,,,,,,,,,,,,,,,,,,,,,,,,,,,76.56117701444127,65.98645856342887,114.46583293875682,82.73746742133567,115.27597681772218,115.27597681772218,1.0,1.1,-650,266,-480,280,-285,252,575.7762777805328,575.7763566970825,575.7795653343201,575.79532289505,575.9463694095612,575.9463694095612,575.9463694095612,575.9463694095612,575.9463694095612,575.9463694095612,575.9463694095612,577.4999730587006,3,1.7023813724517822,None,,,,,,,,,,,,,,,,,,21,1,2025-02-18_16h02.59.732,comp,2024.2.4,55.69614470918336,2025-02-18 16h03.16.365829 -0500,
95,95,0,filler_random,None,None,None,None,None,None,None,None,None,None,1,0.8099303245544434,None,,,,,0,0,0,0,0,95,95,160,577.5193839073181,,,,,,,,,,,,,,,,,,,,,,,,,,,,,,,,,,,,,,,,,,,,,,,,,,,,,,,,,,,,,,,,,,,,,,,,,,,,,,,,,171.0666126475353,167.29200792035104,120.55889875596759,96.12469165037548,67.30175380667433,87.48800034680781,1.0,1.1,-708,275,-480,270,-292,289,577.5016400814056,577.5017173290253,577.5045871734619,577.5193839073181,577.6601333618164,577.6601333618164,577.6601333618164,577.6601333618164,577.6601333618164,577.6601333618164,577.6601333618164,578.3442742824554,1,0.8099303245544434,None,,,,,,,,,,,,,,,,,,21,1,2025-02-18_16h02.59.732,comp,2024.2.4,55.69614470918336,2025-02-18 16h03.16.365829 -0500,
96,96,0,critical,whd,35.0,2.1,lower,57.0,133.0,133.0,57.0,70.0,70.0,2,1.632232904434204,None,,,,,0,0,0,0,0,96,96,12,578.3608202934265,,,,,,,,,,,,,,,,,,,,,,,,,,,,,,,,,,,,,,,,,,,,,,,,,,,,,,,,,,,,,,,,,,,,,,,,,,,,,,,,,57.0,133.0,133.0,57.0,70.0,70.0,2.1,2.11,-191,287,0,268,160,-264,578.3459334373474,578.3460123538971,578.3489892482758,578.3608202934265,578.5099890232086,578.5099890232086,578.5099890232086,578.5099890232086,578.5099890232086,578.5099890232086,578.5099890232086,580.0097849369049,2,1.632232904434204,None,,,,,,,,,,,,,,,,,,21,1,2025-02-18_16h02.59.732,comp,2024.2.4,55.69614470918336,2025-02-18 16h03.16.365829 -0500,
97,97,0,critical,hwd,35.0,1.0,lower,133.0,57.0,57.0,133.0,70.0,70.0,2,3.9197168350219727,None,,,,,0,0,0,0,0,97,97,96,580.0256967544556,,,,,,,,,,,,,,,,,,,,,,,,,,,,,,,,,,,,,,,,,,,,,,,,,,,,,,,,,,,,,,,,,,,,,,,,,,,,,,,,,133.0,57.0,57.0,133.0,70.0,70.0,1.0,1.1,-671,282,-480,262,-282,255,580.0112767219543,580.0113523006439,580.0154085159302,580.0256967544556,580.1811635494232,580.1811635494232,580.1811635494232,580.1811635494232,580.1811635494232,580.1811635494232,580.1811635494232,583.9478542804718,2,3.9197168350219727,None,,,,,,,,,,,,,,,,,,21,1,2025-02-18_16h02.59.732,comp,2024.2.4,55.69614470918336,2025-02-18 16h03.16.365829 -0500,
98,98,0,critical,dwh,20.0,2.1,upper,141.0,141.0,125.0,200.0,200.0,125.0,3,4.219280958175659,None,,,,,0,0,0,0,0,98,98,7,583.9673635959625,,,,,,,,,,,,,,,,,,,,,,,,,,,,,,,,,,,,,,,,,,,,,,,,,,,,,,,,,,,,,,,,,,,,,,,,,,,,,,,,,141.0,141.0,125.0,200.0,200.0,125.0,2.1,2.12,-266,-254,0,-257,258,286,583.9497137069702,583.9497954845428,583.9530165195465,583.9673635959625,584.111043214798,584.111043214798,584.111043214798,584.111043214798,584.111043214798,584.111043214798,584.111043214798,588.1932029724121,3,4.219280958175659,None,,,,,,,,,,,,,,,,,,21,1,2025-02-18_16h02.59.732,comp,2024.2.4,55.69614470918336,2025-02-18 16h03.16.365829 -0500,
99,99,0,filler_square,None,None,None,None,None,None,None,None,None,None,1,0.854496955871582,None,,,,,0,0,0,0,0,99,99,185,588.2112021446228,,,,,,,,,,,,,,,,,,,,,,,,,,,,,,,,,,,,,,,,,,,,,,,,,,,,,,,,,,,,,,,,,,,,,,,,,,,,,,,,,192.33570635649738,192.33570635649738,146.92415119064094,153.44360232259785,95.87482235799561,80.96222433829809,1.0,1.2,-269,8,0,-12,213,-20,588.195157289505,588.1952781677246,588.1986343860626,588.2112021446228,588.3586087226868,588.3586087226868,588.3586087226868,588.3586087226868,588.3586087226868,588.3586087226868,588.3586087226868,589.074547290802,1,0.854496955871582,None,,,,,,,,,,,,,,,,,,21,1,2025-02-18_16h02.59.732,comp,2024.2.4,55.69614470918336,2025-02-18 16h03.16.365829 -0500,
100,100,0,filler_square,None,None,None,None,None,None,None,None,None,None,2,1.2617733478546143,None,,,,,0,0,0,0,0,100,100,199,589.0923414230347,,,,,,,,,,,,,,,,,,,,,,,,,,,,,,,,,,,,,,,,,,,,,,,,,,,,,,,,,,,,,,,,,,,,,,,,,,,,,,,,,151.4989101264361,150.95322516403522,179.4879869276369,179.4879869276369,128.84425007825098,75.37347273859851,2.2,2.22,-261,251,0,-282,223,-268,589.0763556957245,589.0764346122742,589.0793344974518,589.0923414230347,589.2290441989899,589.2290441989899,589.2290441989899,589.2290441989899,589.2290441989899,589.2290441989899,589.2290441989899,590.3641350269318,2,1.2617733478546143,None,,,,,,,,,,,,,,,,,,21,1,2025-02-18_16h02.59.732,comp,2024.2.4,55.69614470918336,2025-02-18 16h03.16.365829 -0500,
101,101,0,critical,hwd,35.0,4.0,upper,200.0,125.0,125.0,200.0,127.0,127.0,2,1.7878632545471191,None,,,,,0,0,0,0,0,101,101,101,590.381377696991,,,,,,,,,,,,,,,,,,,,,,,,,,,,,,,,,,,,,,,,,,,,,,,,,,,,,,,,,,,,,,,,,,,,,,,,,,,,,,,,,200.0,125.0,125.0,200.0,127.0,127.0,4.0,4.2,-258,5,0,-269,260,18,590.3656651973724,590.3657426834106,590.3693256378174,590.381377696991,590.5306861400604,590.5306861400604,590.5306861400604,590.5306861400604,590.5306861400604,590.5306861400604,590.5306861400604,592.180163860321,2,1.7878632545471191,None,,,,,,,,,,,,,,,,,,21,1,2025-02-18_16h02.59.732,comp,2024.2.4,55.69614470918336,2025-02-18 16h03.16.365829 -0500,
102,102,0,catch,None,None,None,None,None,None,None,None,None,None,3,0.9742796421051025,None,,,,,0,0,0,0,0,102,102,121,592.1963367462158,,,,,,,,,,,,,,,,,,,,,,,,,,,,,,,,,,,,,,,,,,,,,,,,,,,,,,,,,,,,,,,,,,,,,,,,,,,,,,,,,125,65,103,87,166,159,1.0,1.1,-652,256,-480,278,-261,266,592.1821944713593,592.1822972297668,592.1856963634491,592.1963367462158,592.3431208133698,592.3431208133698,592.3431208133698,592.3431208133698,592.3431208133698,592.3431208133698,592.3431208133698,593.1812732219696,3,0.9742796421051025,None,,,,,,,,,,,,,,,,,,21,1,2025-02-18_16h02.59.732,comp,2024.2.4,55.69614470918336,2025-02-18 16h03.16.365829 -0500,
103,103,0,critical,dhw,20.0,1.0,lower,78.0,78.0,133.0,57.0,57.0,133.0,3,1.8776922225952148,None,,,,,0,0,0,0,0,103,103,54,593.1977100372314,,,,,,,,,,,,,,,,,,,,,,,,,,,,,,,,,,,,,,,,,,,,,,,,,,,,,,,,,,,,,,,,,,,,,,,,,,,,,,,,,78.0,78.0,133.0,57.0,57.0,133.0,1.0,1.3,316,-251,480,-264,671,-251,593.1827666759491,593.1828444004059,593.1869399547577,593.1977100372314,593.3477847576141,593.3477847576141,593.3477847576141,593.3477847576141,593.3477847576141,593.3477847576141,593.3477847576141,595.0798623561859,3,1.8776922225952148,None,,,,,,,,,,,,,,,,,,21,1,2025-02-18_16h02.59.732,comp,2024.2.4,55.69614470918336,2025-02-18 16h03.16.365829 -0500,
104,104,0,critical,hdw,35.0,2.1,upper,200.0,125.0,127.0,127.0,125.0,200.0,3,3.1928043365478516,None,,,,,0,0,0,0,0,104,104,21,595.096465587616,,,,,,,,,,,,,,,,,,,,,,,,,,,,,,,,,,,,,,,,,,,,,,,,,,,,,,,,,,,,,,,,,,,,,,,,,,,,,,,,,200.0,125.0,127.0,127.0,125.0,200.0,2.1,2.12,-222,-263,0,-261,260,280,595.0813508033752,595.081428527832,595.0846376419067,595.096465587616,595.2360064983368,595.2360064983368,595.2360064983368,595.2360064983368,595.2360064983368,595.2360064983368,595.2360064983368,598.3000898361206,3,3.1928043365478516,None,,,,,,,,,,,,,,,,,,21,1,2025-02-18_16h02.59.732,comp,2024.2.4,55.69614470918336,2025-02-18 16h03.16.365829 -0500,
105,105,0,critical,dhw,20.0,4.0,lower,78.0,78.0,133.0,57.0,57.0,133.0,2,1.8611268997192383,None,,,,,0,0,0,0,0,105,105,58,598.3161566257477,,,,,,,,,,,,,,,,,,,,,,,,,,,,,,,,,,,,,,,,,,,,,,,,,,,,,,,,,,,,,,,,,,,,,,,,,,,,,,,,,78.0,78.0,133.0,57.0,57.0,133.0,4.0,4.1,-164,-287,0,20,191,-281,598.3016769886017,598.3017570972443,598.3053140640259,598.3161566257477,598.468590259552,598.468590259552,598.468590259552,598.468590259552,598.468590259552,598.468590259552,598.468590259552,600.1954483985901,2,1.8611268997192383,None,,,,,,,,,,,,,,,,,,21,1,2025-02-18_16h02.59.732,comp,2024.2.4,55.69614470918336,2025-02-18 16h03.16.365829 -0500,
106,106,0,filler_random,None,None,None,None,None,None,None,None,None,None,3,1.3010027408599854,None,,,,,0,0,0,0,0,106,106,141,600.212589263916,,,,,,,,,,,,,,,,,,,,,,,,,,,,,,,,,,,,,,,,,,,,,,,,,,,,,,,,,,,,,,,,,,,,,,,,,,,,,,,,,140.6387736014729,88.92006831852703,166.6280262522734,185.60544690079894,162.50682996357634,189.35266977683264,3.0,3.1,-233,251,0,0,283,-279,600.1971535682678,600.1972296237946,600.2001392841339,600.212589263916,600.3479442596436,600.3479442596436,600.3479442596436,600.3479442596436,600.3479442596436,600.3479442596436,600.3479442596436,601.5196652412415,3,1.3010027408599854,None,,,,,,,,,,,,,,,,,,21,1,2025-02-18_16h02.59.732,comp,2024.2.4,55.69614470918336,2025-02-18 16h03.16.365829 -0500,
107,107,0,filler_random,None,None,None,None,None,None,None,None,None,None,3,1.1589932441711426,None,,,,,0,0,0,0,0,107,107,132,601.5388617515564,,,,,,,,,,,,,,,,,,,,,,,,,,,,,,,,,,,,,,,,,,,,,,,,,,,,,,,,,,,,,,,,,,,,,,,,,,,,,,,,,81.08855604756351,117.10879844317039,71.94477530821767,118.28457670823965,185.71268561712102,102.4996556830975,3.0,3.2,-214,-273,0,-12,206,261,601.5214607715607,601.5215444564819,601.5244719982147,601.5388617515564,601.6846644878387,601.6846644878387,601.6846644878387,601.6846644878387,601.6846644878387,601.6846644878387,601.6846644878387,602.7024972438812,3,1.1589932441711426,None,,,,,,,,,,,,,,,,,,21,1,2025-02-18_16h02.59.732,comp,2024.2.4,55.69614470918336,2025-02-18 16h03.16.365829 -0500,
108,108,0,critical,dwh,35.0,2.1,upper,127.0,127.0,125.0,200.0,200.0,125.0,3,3.0348727703094482,None,,,,,0,0,0,0,0,108,108,29,602.7184064388275,,,,,,,,,,,,,,,,,,,,,,,,,,,,,,,,,,,,,,,,,,,,,,,,,,,,,,,,,,,,,,,,,,,,,,,,,,,,,,,,,127.0,127.0,125.0,200.0,200.0,125.0,2.1,2.11,-260,254,0,258,258,-276,602.7041792869568,602.7042994499207,602.7077057361603,602.7184064388275,602.8656601905823,602.8656601905823,602.8656601905823,602.8656601905823,602.8656601905823,602.8656601905823,602.8656601905823,605.7675540447235,3,3.0348727703094482,None,,,,,,,,,,,,,,,,,,21,1,2025-02-18_16h02.59.732,comp,2024.2.4,55.69614470918336,2025-02-18 16h03.16.365829 -0500,
109,109,0,critical,hdw,35.0,2.1,lower,133.0,57.0,70.0,70.0,57.0,133.0,3,2.83762264251709,None,,,,,0,0,0,0,0,109,109,20,605.7880551815033,,,,,,,,,,,,,,,,,,,,,,,,,,,,,,,,,,,,,,,,,,,,,,,,,,,,,,,,,,,,,,,,,,,,,,,,,,,,,,,,,133.0,57.0,70.0,70.0,57.0,133.0,2.1,2.11,-160,268,0,287,198,-272,605.7691376209259,605.7692139148712,605.77263712883,605.7880551815033,605.9349799156189,605.9349799156189,605.9349799156189,605.9349799156189,605.9349799156189,605.9349799156189,605.9349799156189,608.6360599994659,3,2.83762264251709,None,,,,,,,,,,,,,,,,,,21,1,2025-02-18_16h02.59.732,comp,2024.2.4,55.69614470918336,2025-02-18 16h03.16.365829 -0500,
110,110,0,catch,None,None,None,None,None,None,None,None,None,None,2,0.9479396343231201,None,,,,,0,0,0,0,0,110,110,120,608.6541736125946,,,,,,,,,,,,,,,,,,,,,,,,,,,,,,,,,,,,,,,,,,,,,,,,,,,,,,,,,,,,,,,,,,,,,,,,,,,,,,,,,109,81,165,160,83,107,4.0,4.1,-216,-251,0,16,230,-275,608.637975692749,608.6380522251129,608.6412422657013,608.6541736125946,608.8033010959625,608.8033010959625,608.8033010959625,608.8033010959625,608.8033010959625,608.8033010959625,608.8033010959625,609.6071929931641,2,0.9479396343231201,None,,,,,,,,,,,,,,,,,,21,1,2025-02-18_16h02.59.732,comp,2024.2.4,55.69614470918336,2025-02-18 16h03.16.365829 -0500,
111,111,0,critical,wdh,35.0,4.0,lower,57.0,133.0,70.0,70.0,133.0,57.0,3,2.305607557296753,None,,,,,0,0,0,0,0,111,111,76,609.6237218379974,,,,,,,,,,,,,,,,,,,,,,,,,,,,,,,,,,,,,,,,,,,,,,,,,,,,,,,,,,,,,,,,,,,,,,,,,,,,,,,,,57.0,133.0,70.0,70.0,133.0,57.0,4.0,4.2,-198,-5,0,-261,160,-13,609.6087923049927,609.6088714599609,609.6129176616669,609.6237218379974,609.7724132537842,609.7724132537842,609.7724132537842,609.7724132537842,609.7724132537842,609.7724132537842,609.7724132537842,611.9400725364685,3,2.305607557296753,None,,,,,,,,,,,,,,,,,,21,1,2025-02-18_16h02.59.732,comp,2024.2.4,55.69614470918336,2025-02-18 16h03.16.365829 -0500,
112,112,0,filler_square,None,None,None,None,None,None,None,None,None,None,1,1.1728839874267578,None,,,,,0,0,0,0,0,112,112,191,611.956657409668,,,,,,,,,,,,,,,,,,,,,,,,,,,,,,,,,,,,,,,,,,,,,,,,,,,,,,,,,,,,,,,,,,,,,,,,,,,,,,,,,186.69380240093682,186.69380240093682,108.84488773484996,164.27750283846882,164.17409200825483,151.61660554965016,3.0,3.1,-271,263,0,-14,254,-256,611.9418835639954,611.9419641494751,611.9458973407745,611.956657409668,612.1109368801117,612.1109368801117,612.1109368801117,612.1109368801117,612.1109368801117,612.1109368801117,612.1109368801117,613.1457664966583,1,1.1728839874267578,None,,,,,,,,,,,,,,,,,,21,1,2025-02-18_16h02.59.732,comp,2024.2.4,55.69614470918336,2025-02-18 16h03.16.365829 -0500,
113,113,0,filler_square,None,None,None,None,None,None,None,None,None,None,1,1.3535425662994385,None,,,,,0,0,0,0,0,113,113,194,613.1610758304596,,,,,,,,,,,,,,,,,,,,,,,,,,,,,,,,,,,,,,,,,,,,,,,,,,,,,,,,,,,,,,,,,,,,,,,,,,,,,,,,,114.54207511027501,114.54207511027501,101.6887106309519,108.49169342744682,110.51289817376988,66.48797491748782,2.1,2.12,-208,-265,0,-276,183,267,613.1475365161896,613.1476142406464,613.1504855155945,613.1610758304596,613.3030865192413,613.3030865192413,613.3030865192413,613.3030865192413,613.3030865192413,613.3030865192413,613.3030865192413,614.5209784507751,1,1.3535425662994385,None,,,,,,,,,,,,,,,,,,21,1,2025-02-18_16h02.59.732,comp,2024.2.4,55.69614470918336,2025-02-18 16h03.16.365829 -0500,
114,114,0,critical,dwh,35.0,1.0,upper,127.0,127.0,125.0,200.0,200.0,125.0,2,6.026317119598389,None,,,,,0,0,0,0,0,114,114,61,614.5367839336395,,,,,,,,,,,,,,,,,,,,,,,,,,,,,,,,,,,,,,,,,,,,,,,,,,,,,,,,,,,,,,,,,,,,,,,,,,,,,,,,,127.0,127.0,125.0,200.0,200.0,125.0,1.0,1.1,-740,271,-480,251,-222,268,614.5225164890289,614.5225949287415,614.5259985923767,614.5367839336395,614.6854588985443,614.6854588985443,614.6854588985443,614.6854588985443,614.6854588985443,614.6854588985443,614.6854588985443,620.5681006908417,2,6.026317119598389,None,,,,,,,,,,,,,,,,,,21,1,2025-02-18_16h02.59.732,comp,2024.2.4,55.69614470918336,2025-02-18 16h03.16.365829 -0500,
115,115,0,critical,dhw,20.0,1.0,upper,141.0,141.0,200.0,125.0,125.0,200.0,3,2.521484613418579,None,,,,,0,0,0,0,0,115,115,55,620.584771156311,,,,,,,,,,,,,,,,,,,,,,,,,,,,,,,,,,,,,,,,,,,,,,,,,,,,,,,,,,,,,,,,,,,,,,,,,,,,,,,,,141.0,141.0,200.0,125.0,125.0,200.0,1.0,1.2,-229,19,0,-11,258,9,620.5697083473206,620.569810628891,620.5731091499329,620.584771156311,620.741295337677,620.741295337677,620.741295337677,620.741295337677,620.741295337677,620.741295337677,620.741295337677,623.1086242198944,3,2.521484613418579,None,,,,,,,,,,,,,,,,,,21,1,2025-02-18_16h02.59.732,comp,2024.2.4,55.69614470918336,2025-02-18 16h03.16.365829 -0500,
116,116,0,filler_square,None,None,None,None,None,None,None,None,None,None,2,1.2376160621643066,None,,,,,0,0,0,0,0,116,116,183,623.1255147457123,,,,,,,,,,,,,,,,,,,,,,,,,,,,,,,,,,,,,,,,,,,,,,,,,,,,,,,,,,,,,,,,,,,,,,,,,,,,,,,,,68.10731638600599,96.38380238429161,120.58713058098908,120.58713058098908,95.5297045453245,93.74206441248788,2.1,2.11,-204,276,0,276,203,-287,623.1106412410736,623.1107251644135,623.1138858795166,623.1255147457123,623.2736930847168,623.2736930847168,623.2736930847168,623.2736930847168,623.2736930847168,623.2736930847168,623.2736930847168,624.3665745258331,2,1.2376160621643066,None,,,,,,,,,,,,,,,,,,21,1,2025-02-18_16h02.59.732,comp,2024.2.4,55.69614470918336,2025-02-18 16h03.16.365829 -0500,
117,117,0,critical,wdh,20.0,2.1,upper,125.0,200.0,141.0,141.0,200.0,125.0,3,7.1536126136779785,None,,,,,0,0,0,0,0,117,117,11,624.3842761516571,,,,,,,,,,,,,,,,,,,,,,,,,,,,,,,,,,,,,,,,,,,,,,,,,,,,,,,,,,,,,,,,,,,,,,,,,,,,,,,,,125.0,200.0,141.0,141.0,200.0,125.0,2.1,2.11,-266,260,0,267,229,-286,624.3681275844574,624.3682053089142,624.3710777759552,624.3842761516571,624.5240876674652,624.5240876674652,624.5240876674652,624.5240876674652,624.5240876674652,624.5240876674652,624.5240876674652,631.5464036464691,3,7.1536126136779785,None,,,,,,,,,,,,,,,,,,21,1,2025-02-18_16h02.59.732,comp,2024.2.4,55.69614470918336,2025-02-18 16h03.16.365829 -0500,
118,118,0,filler_square,None,None,None,None,None,None,None,None,None,None,3,2.271790027618408,None,,,,,0,0,0,0,0,118,118,205,631.5627369880676,,,,,,,,,,,,,,,,,,,,,,,,,,,,,,,,,,,,,,,,,,,,,,,,,,,,,,,,,,,,,,,,,,,,,,,,,,,,,,,,,85.64340300372615,85.64340300372615,68.99707227949762,65.2899399108684,61.989211371295845,83.75374480648874,2.2,2.22,-171,266,0,-260,171,-273,631.548314332962,631.5483963489532,631.55180311203,631.5627369880676,631.7097308635712,631.7097308635712,631.7097308635712,631.7097308635712,631.7097308635712,631.7097308635712,631.7097308635712,633.844667673111,3,2.271790027618408,None,,,,,,,,,,,,,,,,,,21,1,2025-02-18_16h02.59.732,comp,2024.2.4,55.69614470918336,2025-02-18 16h03.16.365829 -0500,
119,119,0,filler_random,None,None,None,None,None,None,None,None,None,None,3,2.6450560092926025,None,,,,,0,0,0,0,0,119,119,142,633.861287355423,,,,,,,,,,,,,,,,,,,,,,,,,,,,,,,,,,,,,,,,,,,,,,,,,,,,,,,,,,,,,,,,,,,,,,,,,,,,,,,,,147.67267310279277,161.71088217404395,153.4196340389684,82.81902344427806,180.28598844984538,155.5124581773742,1.0,1.3,262,-264,480,-262,695,-275,633.8464245796204,633.8465220928192,633.8505175113678,633.861287355423,634.0141887664795,634.0141887664795,634.0141887664795,634.0141887664795,634.0141887664795,634.0141887664795,634.0141887664795,636.5118677616119,3,2.6450560092926025,None,,,,,,,,,,,,,,,,,,21,1,2025-02-18_16h02.59.732,comp,2024.2.4,55.69614470918336,2025-02-18 16h03.16.365829 -0500,
120,120,0,critical,dhw,20.0,4.0,upper,141.0,141.0,200.0,125.0,125.0,200.0,3,2.0406782627105713,None,,,,,0,0,0,0,0,120,120,59,636.5289845466614,,,,,,,,,,,,,,,,,,,,,,,,,,,,,,,,,,,,,,,,,,,,,,,,,,,,,,,,,,,,,,,,,,,,,,,,,,,,,,,,,141.0,141.0,200.0,125.0,125.0,200.0,4.0,4.2,-229,-7,0,-253,258,-6,636.5134057998657,636.5134842395782,636.5173809528351,636.5289845466614,636.6793661117554,636.6793661117554,636.6793661117554,636.6793661117554,636.6793661117554,636.6793661117554,636.6793661117554,638.5787363052368,3,2.0406782627105713,None,,,,,,,,,,,,,,,,,,21,1,2025-02-18_16h02.59.732,comp,2024.2.4,55.69614470918336,2025-02-18 16h03.16.365829 -0500,
121,121,0,critical,wdh,35.0,1.0,lower,57.0,133.0,70.0,70.0,133.0,57.0,3,1.7183902263641357,None,,,,,0,0,0,0,0,121,121,72,638.5953903198242,,,,,,,,,,,,,,,,,,,,,,,,,,,,,,,,,,,,,,,,,,,,,,,,,,,,,,,,,,,,,,,,,,,,,,,,,,,,,,,,,57.0,133.0,70.0,70.0,133.0,57.0,1.0,1.3,282,-257,480,-275,640,-251,638.5802459716797,638.5803999900818,638.5845937728882,638.5953903198242,638.7427678108215,638.7427678108215,638.7427678108215,638.7427678108215,638.7427678108215,638.7427678108215,638.7427678108215,640.3289053440094,3,1.7183902263641357,None,,,,,,,,,,,,,,,,,,21,1,2025-02-18_16h02.59.732,comp,2024.2.4,55.69614470918336,2025-02-18 16h03.16.365829 -0500,
122,122,0,critical,dwh,20.0,3.0,upper,141.0,141.0,125.0,200.0,200.0,125.0,3,2.217374563217163,None,,,,,0,0,0,0,0,122,122,69,640.344388961792,,,,,,,,,,,,,,,,,,,,,,,,,,,,,,,,,,,,,,,,,,,,,,,,,,,,,,,,,,,,,,,,,,,,,,,,,,,,,,,,,141.0,141.0,125.0,200.0,200.0,125.0,3.0,3.2,-266,-277,0,19,258,270,640.3305284976959,640.330605506897,640.3341219425201,640.344388961792,640.4961330890656,640.4961330890656,640.4961330890656,640.4961330890656,640.4961330890656,640.4961330890656,640.4961330890656,642.5800490379333,3,2.217374563217163,None,,,,,,,,,,,,,,,,,,21,1,2025-02-18_16h02.59.732,comp,2024.2.4,55.69614470918336,2025-02-18 16h03.16.365829 -0500,
123,123,0,filler_random,None,None,None,None,None,None,None,None,None,None,2,1.0832133293151855,None,,,,,0,0,0,0,0,123,123,155,642.598521232605,,,,,,,,,,,,,,,,,,,,,,,,,,,,,,,,,,,,,,,,,,,,,,,,,,,,,,,,,,,,,,,,,,,,,,,,,,,,,,,,,75.97812242523727,121.8625608717853,176.53241455975055,112.08658016866642,61.25809862373733,161.63318456181847,1.0,1.1,-693,284,-480,267,-247,259,642.5817832946777,642.5818591117859,642.5857670307159,642.598521232605,642.747222661972,642.747222661972,642.747222661972,642.747222661972,642.747222661972,642.747222661972,642.747222661972,643.6962897777557,2,1.0832133293151855,None,,,,,,,,,,,,,,,,,,21,1,2025-02-18_16h02.59.732,comp,2024.2.4,55.69614470918336,2025-02-18 16h03.16.365829 -0500,
124,124,0,critical,dhw,20.0,2.1,upper,141.0,141.0,200.0,125.0,125.0,200.0,3,2.6747944355010986,None,,,,,0,0,0,0,0,124,124,3,643.7123401165009,,,,,,,,,,,,,,,,,,,,,,,,,,,,,,,,,,,,,,,,,,,,,,,,,,,,,,,,,,,,,,,,,,,,,,,,,,,,,,,,,141.0,141.0,200.0,125.0,125.0,200.0,2.1,2.11,-229,257,0,280,258,-288,643.697833776474,643.6979086399078,643.7011196613312,643.7123401165009,643.8696823120117,643.8696823120117,643.8696823120117,643.8696823120117,643.8696823120117,643.8696823120117,643.8696823120117,646.4032180309296,3,2.6747944355010986,None,,,,,,,,,,,,,,,,,,21,1,2025-02-18_16h02.59.732,comp,2024.2.4,55.69614470918336,2025-02-18 16h03.16.365829 -0500,
125,125,0,critical,hdw,20.0,2.1,upper,200.0,125.0,141.0,141.0,125.0,200.0,3,2.462881088256836,None,,,,,0,0,0,0,0,125,125,23,646.4188981056213,,,,,,,,,,,,,,,,,,,,,,,,,,,,,,,,,,,,,,,,,,,,,,,,,,,,,,,,,,,,,,,,,,,,,,,,,,,,,,,,,200.0,125.0,141.0,141.0,125.0,200.0,2.1,2.11,-229,285,0,277,266,-282,646.4047315120697,646.4048089981079,646.4077098369598,646.4188981056213,646.564781665802,646.564781665802,646.564781665802,646.564781665802,646.564781665802,646.564781665802,646.564781665802,648.8979284763336,3,2.462881088256836,None,,,,,,,,,,,,,,,,,,21,1,2025-02-18_16h02.59.732,comp,2024.2.4,55.69614470918336,2025-02-18 16h03.16.365829 -0500,
126,126,0,filler_square,None,None,None,None,None,None,None,None,None,None,1,4.093369960784912,None,,,,,0,0,0,0,0,126,126,208,648.917311668396,,,,,,,,,,,,,,,,,,,,,,,,,,,,,,,,,,,,,,,,,,,,,,,,,,,,,,,,,,,,,,,,,,,,,,,,,,,,,,,,,84.71833924487616,84.71833924487616,79.6835737905314,61.42915061030158,59.20607273987438,76.07009431789209,2.2,2.21,-169,-259,0,256,165,287,648.8997292518616,648.8998067378998,648.9030876159668,648.917311668396,649.0646741390228,649.0646741390228,649.0646741390228,649.0646741390228,649.0646741390228,649.0646741390228,649.0646741390228,653.0189881324768,1,4.093369960784912,None,,,,,,,,,,,,,,,,,,21,1,2025-02-18_16h02.59.732,comp,2024.2.4,55.69614470918336,2025-02-18 16h03.16.365829 -0500,
127,127,0,critical,whd,35.0,2.1,upper,125.0,200.0,200.0,125.0,127.0,127.0,2,3.3030829429626465,None,,,,,0,0,0,0,0,127,127,37,653.0347547531128,,,,,,,,,,,,,,,,,,,,,,,,,,,,,,,,,,,,,,,,,,,,,,,,,,,,,,,,,,,,,,,,,,,,,,,,,,,,,,,,,125.0,200.0,200.0,125.0,127.0,127.0,2.1,2.12,-258,-275,0,-289,222,281,653.0207104682922,653.0207915306091,653.0239927768707,653.0347547531128,653.1867301464081,653.1867301464081,653.1867301464081,653.1867301464081,653.1867301464081,653.1867301464081,653.1867301464081,656.3533225059509,2,3.3030829429626465,None,,,,,,,,,,,,,,,,,,21,1,2025-02-18_16h02.59.732,comp,2024.2.4,55.69614470918336,2025-02-18 16h03.16.365829 -0500,
128,128,0,critical,wdh,20.0,2.1,lower,57.0,133.0,78.0,78.0,133.0,57.0,3,4.320435047149658,None,,,,,0,0,0,0,0,128,128,34,656.3693017959595,,,,,,,,,,,,,,,,,,,,,,,,,,,,,,,,,,,,,,,,,,,,,,,,,,,,,,,,,,,,,,,,,,,,,,,,,,,,,,,,,57.0,133.0,78.0,78.0,133.0,57.0,2.1,2.12,-202,-287,0,-279,164,269,656.3550124168396,656.3550913333893,656.3581376075745,656.3693017959595,656.5170078277588,656.5170078277588,656.5170078277588,656.5170078277588,656.5170078277588,656.5170078277588,656.5170078277588,660.706702709198,3,4.320435047149658,None,,,,,,,,,,,,,,,,,,21,1,2025-02-18_16h02.59.732,comp,2024.2.4,55.69614470918336,2025-02-18 16h03.16.365829 -0500,
129,129,0,filler_square,None,None,None,None,None,None,None,None,None,None,3,6.466615200042725,None,,,,,0,0,0,0,0,129,129,188,660.7274751663208,,,,,,,,,,,,,,,,,,,,,,,,,,,,,,,,,,,,,,,,,,,,,,,,,,,,,,,,,,,,,,,,,,,,,,,,,,,,,,,,,61.39867557084951,61.39867557084951,59.35801293751476,57.96292594438531,60.53838123142285,59.36580616020117,1.0,1.2,-156,3,0,20,155,-1,660.7087054252625,660.7087850570679,660.7121481895447,660.7274751663208,660.8687705993652,660.8687705993652,660.8687705993652,660.8687705993652,660.8687705993652,660.8687705993652,660.8687705993652,667.2053685188293,3,6.466615200042725,None,,,,,,,,,,,,,,,,,,21,1,2025-02-18_16h02.59.732,comp,2024.2.4,55.69614470918336,2025-02-18 16h03.16.365829 -0500,
130,130,0,filler_square,None,None,None,None,None,None,None,None,None,None,3,1.8912532329559326,None,,,,,0,0,0,0,0,130,130,200,667.2230429649353,,,,,,,,,,,,,,,,,,,,,,,,,,,,,,,,,,,,,,,,,,,,,,,,,,,,,,,,,,,,,,,,,,,,,,,,,,,,,,,,,119.79649059287254,66.48169982585352,58.71165193546547,112.97694158185546,143.14573609800058,143.14573609800058,2.2,2.22,-186,267,0,-269,224,-281,667.2076330184937,667.2077548503876,667.2115366458893,667.2230429649353,667.3715875148773,667.3715875148773,667.3715875148773,667.3715875148773,667.3715875148773,667.3715875148773,667.3715875148773,669.1169712543488,3,1.8912532329559326,None,,,,,,,,,,,,,,,,,,21,1,2025-02-18_16h02.59.732,comp,2024.2.4,55.69614470918336,2025-02-18 16h03.16.365829 -0500,
131,131,0,critical,hdw,20.0,4.0,lower,133.0,57.0,78.0,78.0,57.0,133.0,1,2.971726655960083,None,,,,,0,0,0,0,0,131,131,118,669.1345891952515,,,,,,,,,,,,,,,,,,,,,,,,,,,,,,,,,,,,,,,,,,,,,,,,,,,,,,,,,,,,,,,,,,,,,,,,,,,,,,,,,133.0,57.0,78.0,78.0,57.0,133.0,4.0,4.1,-164,-265,0,19,202,-283,669.1184720993042,669.1185483932495,669.1215054988861,669.1345891952515,669.2709972858429,669.2709972858429,669.2709972858429,669.2709972858429,669.2709972858429,669.2709972858429,669.2709972858429,672.1242270469666,1,2.971726655960083,None,,,,,,,,,,,,,,,,,,21,1,2025-02-18_16h02.59.732,comp,2024.2.4,55.69614470918336,2025-02-18 16h03.16.365829 -0500,
132,132,0,critical,hwd,20.0,2.1,lower,133.0,57.0,57.0,133.0,78.0,78.0,2,2.221719741821289,None,,,,,0,0,0,0,0,132,132,42,672.1401777267456,,,,,,,,,,,,,,,,,,,,,,,,,,,,,,,,,,,,,,,,,,,,,,,,,,,,,,,,,,,,,,,,,,,,,,,,,,,,,,,,,133.0,57.0,57.0,133.0,78.0,78.0,2.1,2.11,-191,261,0,287,202,-261,672.1258172988892,672.1259315013885,672.1290004253387,672.1401777267456,672.2851331233978,672.2851331233978,672.2851331233978,672.2851331233978,672.2851331233978,672.2851331233978,672.2851331233978,674.372403383255,2,2.221719741821289,None,,,,,,,,,,,,,,,,,,21,1,2025-02-18_16h02.59.732,comp,2024.2.4,55.69614470918336,2025-02-18 16h03.16.365829 -0500,
133,133,0,critical,wdh,35.0,4.0,upper,125.0,200.0,127.0,127.0,200.0,125.0,2,2.0452208518981934,None,,,,,0,0,0,0,0,133,133,77,674.3894097805023,,,,,,,,,,,,,,,,,,,,,,,,,,,,,,,,,,,,,,,,,,,,,,,,,,,,,,,,,,,,,,,,,,,,,,,,,,,,,,,,,125.0,200.0,127.0,127.0,200.0,125.0,4.0,4.2,-260,10,0,-261,222,10,674.3739638328552,674.3740413188934,674.377748966217,674.3894097805023,674.5468943119049,674.5468943119049,674.5468943119049,674.5468943119049,674.5468943119049,674.5468943119049,674.5468943119049,676.4418799877167,2,2.0452208518981934,None,,,,,,,,,,,,,,,,,,21,1,2025-02-18_16h02.59.732,comp,2024.2.4,55.69614470918336,2025-02-18 16h03.16.365829 -0500,
134,134,0,filler_random,None,None,None,None,None,None,None,None,None,None,2,4.3194990158081055,None,,,,,0,0,0,0,0,134,134,159,676.4585044384003,,,,,,,,,,,,,,,,,,,,,,,,,,,,,,,,,,,,,,,,,,,,,,,,,,,,,,,,,,,,,,,,,,,,,,,,,,,,,,,,,124.09116209606725,74.08060757405704,163.40206921239525,79.87278361114724,69.39583455280761,136.8514032786348,4.0,4.1,-173,-262,0,-5,204,-287,676.4438223838806,676.4439523220062,676.4477741718292,676.4585044384003,676.6061973571777,676.6061973571777,676.6061973571777,676.6061973571777,676.6061973571777,676.6061973571777,676.6061973571777,680.7940378189087,2,4.3194990158081055,None,,,,,,,,,,,,,,,,,,21,1,2025-02-18_16h02.59.732,comp,2024.2.4,55.69614470918336,2025-02-18 16h03.16.365829 -0500,
135,135,0,filler_square,None,None,None,None,None,None,None,None,None,None,1,0.9186136722564697,None,,,,,0,0,0,0,0,135,135,207,680.8112714290619,,,,,,,,,,,,,,,,,,,,,,,,,,,,,,,,,,,,,,,,,,,,,,,,,,,,,,,,,,,,,,,,,,,,,,,,,,,,,,,,,150.22090608228217,150.22090608228217,79.23345598331377,111.40613518998686,85.53209790646017,77.0643383541403,2.1,2.12,-227,-254,0,-258,190,258,680.7960629463196,680.796140909195,680.8000824451447,680.8112714290619,680.9586451053619,680.9586451053619,680.9586451053619,680.9586451053619,680.9586451053619,680.9586451053619,680.9586451053619,681.7481350898743,1,0.9186136722564697,None,,,,,,,,,,,,,,,,,,21,1,2025-02-18_16h02.59.732,comp,2024.2.4,55.69614470918336,2025-02-18 16h03.16.365829 -0500,
136,136,0,critical,wdh,20.0,3.0,upper,125.0,200.0,141.0,141.0,200.0,125.0,3,1.5719947814941406,None,,,,,0,0,0,0,0,136,136,81,681.7666680812836,,,,,,,,,,,,,,,,,,,,,,,,,,,,,,,,,,,,,,,,,,,,,,,,,,,,,,,,,,,,,,,,,,,,,,,,,,,,,,,,,125.0,200.0,141.0,141.0,200.0,125.0,3.0,3.1,-266,271,0,14,229,-264,681.7498300075531,681.7499630451202,681.7534444332123,681.7666680812836,681.9089086055756,681.9089086055756,681.9089086055756,681.9089086055756,681.9089086055756,681.9089086055756,681.9089086055756,683.3439917564392,3,1.5719947814941406,None,,,,,,,,,,,,,,,,,,21,1,2025-02-18_16h02.59.732,comp,2024.2.4,55.69614470918336,2025-02-18 16h03.16.365829 -0500,
137,137,0,filler_square,None,None,None,None,None,None,None,None,None,None,1,4.019541263580322,None,,,,,0,0,0,0,0,137,137,177,683.3592214584351,,,,,,,,,,,,,,,,,,,,,,,,,,,,,,,,,,,,,,,,,,,,,,,,,,,,,,,,,,,,,,,,,,,,,,,,,,,,,,,,,78.59977333394056,78.59977333394056,57.0285939031862,75.28592282649177,74.76341356814471,74.43563486648512,2.1,2.12,-173,-270,0,-288,171,264,683.3446791172028,683.3447041511536,683.3456401824951,683.3592214584351,683.5100102424622,683.5100102424622,683.5100102424622,683.5100102424622,683.5100102424622,683.5100102424622,683.5100102424622,687.3876047134399,1,4.019541263580322,None,,,,,,,,,,,,,,,,,,21,1,2025-02-18_16h02.59.732,comp,2024.2.4,55.69614470918336,2025-02-18 16h03.16.365829 -0500,
138,138,0,critical,whd,35.0,1.0,lower,57.0,133.0,133.0,57.0,70.0,70.0,2,1.9153947830200195,None,,,,,0,0,0,0,0,138,138,84,687.4077651500702,,,,,,,,,,,,,,,,,,,,,,,,,,,,,,,,,,,,,,,,,,,,,,,,,,,,,,,,,,,,,,,,,,,,,,,,,,,,,,,,,57.0,133.0,133.0,57.0,70.0,70.0,1.0,1.3,289,-255,480,-288,640,-282,687.3891031742096,687.3891799449921,687.3920409679413,687.4077651500702,687.5439012050629,687.5439012050629,687.5439012050629,687.5439012050629,687.5439012050629,687.5439012050629,687.5439012050629,689.3295741081238,2,1.9153947830200195,None,,,,,,,,,,,,,,,,,,21,1,2025-02-18_16h02.59.732,comp,2024.2.4,55.69614470918336,2025-02-18 16h03.16.365829 -0500,
139,139,0,critical,wdh,20.0,1.0,lower,57.0,133.0,78.0,78.0,133.0,57.0,3,8.024519205093384,None,,,,,0,0,0,0,0,139,139,78,689.3467173576355,,,,,,,,,,,,,,,,,,,,,,,,,,,,,,,,,,,,,,,,,,,,,,,,,,,,,,,,,,,,,,,,,,,,,,,,,,,,,,,,,57.0,133.0,78.0,78.0,133.0,57.0,1.0,1.3,278,-271,480,-261,644,-274,689.3314559459686,689.3315842151642,689.3353745937347,689.3467173576355,689.4938409328461,689.4938409328461,689.4938409328461,689.4938409328461,689.4938409328461,689.4938409328461,689.4938409328461,697.3821828365326,3,8.024519205093384,None,,,,,,,,,,,,,,,,,,21,1,2025-02-18_16h02.59.732,comp,2024.2.4,55.69614470918336,2025-02-18 16h03.16.365829 -0500,
140,140,0,critical,hwd,35.0,2.1,upper,200.0,125.0,125.0,200.0,127.0,127.0,2,2.8759021759033203,None,,,,,0,0,0,0,0,140,140,41,697.3986029624939,,,,,,,,,,,,,,,,,,,,,,,,,,,,,,,,,,,,,,,,,,,,,,,,,,,,,,,,,,,,,,,,,,,,,,,,,,,,,,,,,200.0,125.0,125.0,200.0,127.0,127.0,2.1,2.12,-258,-264,0,-285,260,259,697.3839769363403,697.3841075897217,697.3878467082977,697.3986029624939,697.5473921298981,697.5473921298981,697.5473921298981,697.5473921298981,697.5473921298981,697.5473921298981,697.5473921298981,700.2840075492859,2,2.8759021759033203,None,,,,,,,,,,,,,,,,,,21,1,2025-02-18_16h02.59.732,comp,2024.2.4,55.69614470918336,2025-02-18 16h03.16.365829 -0500,
