thisN,thisTrialN,thisRepN,effect,order,distance,config,diag,h_1,w_1,h_2,w_2,h_3,w_3,rect_choice.keys,rect_choice.rt,rect_choice.duration,instructions_loop.thisRepN,instructions_loop.thisTrialN,instructions_loop.thisN,instructions_loop.thisIndex,blocks.thisRepN,blocks.thisTrialN,blocks.thisN,blocks.thisIndex,trials.thisRepN,trials.thisTrialN,trials.thisN,trials.thisIndex,thisRow.t,notes,consent.started,agree_button.started,decline_button.started,consent_img.started,mouse.started,consent.stopped,agree_button.numClicks,agree_button.timesOn,agree_button.timesOff,decline_button.numClicks,decline_button.timesOn,decline_button.timesOff,mouse.x,mouse.y,mouse.leftButton,mouse.midButton,mouse.rightButton,mouse.time,mouse.clicked_name,exp_params.started,exp_params.stopped,welcome.started,welcome_text.started,welcome.stopped,instructions_1.started,instructions_1_text_1.started,instructions_1_text_2.started,key_resp.started,instructions_1.stopped,instructions_loop.key_resp.keys,instructions_loop.key_resp.rt,instructions_loop.key_resp.duration,instructions_2.started,instructions_2_text_1.started,instructions_2_text_2.started,key_resp_2.started,instructions_2.stopped,instructions_loop.key_resp_2.keys,instructions_loop.key_resp_2.rt,instructions_loop.key_resp_2.duration,instructions_3.started,instructions_3_text_1.started,r1_instr3.started,r2_instr3.started,r3_instr3.started,r1_instr3_label.started,r2_instr3_label.started,r3_instr3_label.started,instructions_3_text_3.started,instructions_3_text_4.started,key_resp_3.started,instructions_3.stopped,instructions_loop.key_resp_3.keys,instructions_loop.key_resp_3.rt,instructions_loop.key_resp_3.duration,instructions_4.started,instructions_4_text_1.started,instructions_4_text_3.started,instructions_4_text_2.started,key_resp_4.started,instructions_4.stopped,instructions_loop.key_resp_4.keys,instructions_loop.key_resp_4.rt,instructions_loop.key_resp_4.duration,instructions_5.started,instructions_5_text_1.started,instructions_5_text_2.started,key_resp_5.started,instructions_5.stopped,instructions_loop.key_resp_5.keys,instructions_loop.key_resp_5.rt,instructions_loop.key_resp_5.duration,start_exp.started,start_exp_text.started,key_resp_6.started,start_exp.stopped,key_resp_6.keys,key_resp_6.rt,key_resp_6.duration,h_1_tmp,w_1_tmp,h_2_tmp,w_2_tmp,h_3_tmp,w_3_tmp,config_tmp,config_tmp_1,r_1_x,r_1_y,r_2_x,r_2_y,r_3_x,r_3_y,pre_trial.started,pre_trial.stopped,choice_trial.started,rect_choice.started,r_1.started,r_2.started,r_3.started,r_1_label.started,r_2_label.started,r_3_label.started,prompt.started,choice_trial.stopped,trials.rect_choice.keys,trials.rect_choice.rt,trials.rect_choice.duration,end_block.started,end_block_text.started,end_block.stopped,end.started,end_text.started,key_resp_7.started,end.stopped,key_resp_7.keys,key_resp_7.rt,key_resp_7.duration,debriefing.started,debrief_form.started,end_debrief.started,debriefing.stopped,end_debrief.keys,end_debrief.rt,end_debrief.duration,participant,computer,date,expName,psychopyVersion,frameRate,expStart,
,,,,,,,,,,,,,,,,,,,,,,,,,,,,,,,0.01473236083984375,0.036728620529174805,0.036728620529174805,0.036728620529174805,0.014508247375488281,73.96114325523376,1,[73.92189717292786],[73.92191934585571],0,,,[-73.0],[-498.0],[1],[0],[0],[73.94590020179749],['agree_button'],,,,,,,,,,,,,,,,,,,,,,,,,,,,,,,,,,,,,,,,,,,,,,,,,,,,,,,,,,,,,,,,,,,,,,,,,,,,,,,,,,,,,,,,,,,,,,,,,,,,,,,,,,,220,1,2025-03-10_10h57.01.041,comp,2024.2.4,57.864281260174494,2025-03-10 10h57.45.834320 -0400,
,,,,,,,,,,,,,,,,,,,,,,,,,,,,,,,,,,,,,,,,,,,,,,,,,,73.96170091629028,73.96176886558533,,,,,,,,,,,,,,,,,,,,,,,,,,,,,,,,,,,,,,,,,,,,,,,,,,,,,,,,,,,,,,,,,,,,,,,,,,,,,,,,,,,,,,,,,,,,,,,,,,,,,,,,,220,1,2025-03-10_10h57.01.041,comp,2024.2.4,57.864281260174494,2025-03-10 10h57.45.834320 -0400,
,,,,,,,,,,,,,,,,,,,,,,,,,,,,,,,,,,,,,,,,,,,,,,,,,,,,73.96181392669678,73.97583270072937,75.9654483795166,,,,,,,,,,,,,,,,,,,,,,,,,,,,,,,,,,,,,,,,,,,,,,,,,,,,,,,,,,,,,,,,,,,,,,,,,,,,,,,,,,,,,,,,,,,,,,,,,,,,,,220,1,2025-03-10_10h57.01.041,comp,2024.2.4,57.864281260174494,2025-03-10 10h57.45.834320 -0400,
0,0,0,,,,,,,,,,,,,,,0,0,0,0,,,,,,,,,75.98234677314758,,,,,,,,,,,,,,,,,,,,,,,,,,75.96632170677185,75.98234677314758,75.98234677314758,77.4677746295929,79.97599506378174,space,2.4976305961608887,None,79.97614121437073,79.99395108222961,79.99395108222961,81.4835524559021,85.54098677635193,space,4.033828020095825,None,85.54114651679993,85.5737075805664,85.5737075805664,85.5737075805664,85.5737075805664,85.5737075805664,85.5737075805664,85.5737075805664,85.5737075805664,85.5737075805664,87.05980038642883,91.96872735023499,space,4.897233486175537,None,91.96889758110046,91.98929452896118,91.98929452896118,91.98929452896118,93.475257396698,98.85561156272888,space,5.369764804840088,None,98.85576128959656,98.8730902671814,98.8730902671814,100.3579478263855,102.29293179512024,space,1.9190616607666016,None,102.29313349723816,102.3087043762207,102.3087043762207,103.65984582901001,space,1.3362414836883545,None,,,,,,,,,,,,,,,,,,,,,,,,,,,,,,,,,,,,,,,,,,,,,,,220,1,2025-03-10_10h57.01.041,comp,2024.2.4,57.864281260174494,2025-03-10 10h57.45.834320 -0400,
0,0,0,critical,wdh,35.0,4.0,lower,57.0,133.0,70.0,70.0,133.0,57.0,3,7.725298881530762,None,,,,,0,0,0,0,0,0,0,76,103.73593044281006,,,,,,,,,,,,,,,,,,,,,,,,,,,,,,,,,,,,,,,,,,,,,,,,,,,,,,,,,,,,,,,,,,,,,,,,,,,,,,,,,57.0,133.0,70.0,70.0,133.0,57.0,4.0,4.2,-198,17,0,-253,160,14,103.7191047668457,103.71915602684021,103.72095680236816,103.73593044281006,103.88771843910217,103.88771843910217,103.88771843910217,103.88771843910217,103.88771843910217,103.88771843910217,103.88771843910217,111.46544599533081,3,7.725298881530762,None,,,,,,,,,,,,,,,,,,220,1,2025-03-10_10h57.01.041,comp,2024.2.4,57.864281260174494,2025-03-10 10h57.45.834320 -0400,
1,1,0,filler_random,None,None,None,None,None,None,None,None,None,None,2,2.3841538429260254,None,,,,,0,0,0,0,0,1,1,160,111.485830783844,,,,,,,,,,,,,,,,,,,,,,,,,,,,,,,,,,,,,,,,,,,,,,,,,,,,,,,,,,,,,,,,,,,,,,,,,,,,,,,,,62.51280427887083,68.09782998509621,90.87681469115051,165.43047718868687,110.51309753410774,82.23490220566734,4.0,4.2,-213,-1,0,-279,220,-13,111.46774220466614,111.46787357330322,111.47085332870483,111.485830783844,111.63186740875244,111.63186740875244,111.63186740875244,111.63186740875244,111.63186740875244,111.63186740875244,111.63186740875244,113.88046932220459,2,2.3841538429260254,None,,,,,,,,,,,,,,,,,,220,1,2025-03-10_10h57.01.041,comp,2024.2.4,57.864281260174494,2025-03-10 10h57.45.834320 -0400,
2,2,0,filler_square,None,None,None,None,None,None,None,None,None,None,2,1.941004991531372,None,,,,,0,0,0,0,0,2,2,200,113.89703345298767,,,,,,,,,,,,,,,,,,,,,,,,,,,,,,,,,,,,,,,,,,,,,,,,,,,,,,,,,,,,,,,,,,,,,,,,,,,,,,,,,155.6467439456391,163.354573939901,182.84622876259738,182.84622876259738,134.93917718373095,107.34471598410289,2.1,2.11,-269,260,0,281,241,-268,113.88250994682312,113.8825900554657,113.88602304458618,113.89703345298767,114.04358887672424,114.04358887672424,114.04358887672424,114.04358887672424,114.04358887672424,114.04358887672424,114.04358887672424,115.84908270835876,2,1.941004991531372,None,,,,,,,,,,,,,,,,,,220,1,2025-03-10_10h57.01.041,comp,2024.2.4,57.864281260174494,2025-03-10 10h57.45.834320 -0400,
3,3,0,filler_random,None,None,None,None,None,None,None,None,None,None,2,1.8610000610351562,None,,,,,0,0,0,0,0,3,3,159,115.86497235298157,,,,,,,,,,,,,,,,,,,,,,,,,,,,,,,,,,,,,,,,,,,,,,,,,,,,,,,,,,,,,,,,,,,,,,,,,,,,,,,,,115.20851041624312,145.60160908691944,149.69549098497743,193.08507478681287,60.55070565679723,193.87674539714234,2.2,2.21,-265,-279,0,251,289,265,115.85095429420471,115.85103797912598,115.85423159599304,115.86497235298157,116.0169689655304,116.0169689655304,116.0169689655304,116.0169689655304,116.0169689655304,116.0169689655304,116.0169689655304,117.7313437461853,2,1.8610000610351562,None,,,,,,,,,,,,,,,,,,220,1,2025-03-10_10h57.01.041,comp,2024.2.4,57.864281260174494,2025-03-10 10h57.45.834320 -0400,
4,4,0,filler_square,None,None,None,None,None,None,None,None,None,None,3,1.9065196514129639,None,,,,,0,0,0,0,0,4,4,208,117.74849104881287,,,,,,,,,,,,,,,,,,,,,,,,,,,,,,,,,,,,,,,,,,,,,,,,,,,,,,,,,,,,,,,,,,,,,,,,,,,,,,,,,135.74955158150902,92.6277271106884,115.44371909805083,121.8310715313568,188.47469640927065,188.47469640927065,2.1,2.12,-203,-259,0,-287,251,281,117.73331308364868,117.733393907547,117.7368381023407,117.74849104881287,117.8970935344696,117.8970935344696,117.8970935344696,117.8970935344696,117.8970935344696,117.8970935344696,117.8970935344696,119.66554117202759,3,1.9065196514129639,None,,,,,,,,,,,,,,,,,,220,1,2025-03-10_10h57.01.041,comp,2024.2.4,57.864281260174494,2025-03-10 10h57.45.834320 -0400,
5,5,0,filler_square,None,None,None,None,None,None,None,None,None,None,2,1.5956811904907227,None,,,,,0,0,0,0,0,5,5,183,119.68215823173523,,,,,,,,,,,,,,,,,,,,,,,,,,,,,,,,,,,,,,,,,,,,,,,,,,,,,,,,,,,,,,,,,,,,,,,,,,,,,,,,,74.12596917768676,89.19442837373572,110.06958361239563,110.06958361239563,67.04585961524046,100.44894491105055,1.0,1.1,-676,280,-480,253,-279,273,119.66766738891602,119.66778445243835,119.67124104499817,119.68215823173523,119.83204674720764,119.83204674720764,119.83204674720764,119.83204674720764,119.83204674720764,119.83204674720764,119.83204674720764,121.28124046325684,2,1.5956811904907227,None,,,,,,,,,,,,,,,,,,220,1,2025-03-10_10h57.01.041,comp,2024.2.4,57.864281260174494,2025-03-10 10h57.45.834320 -0400,
6,6,0,filler_random,None,None,None,None,None,None,None,None,None,None,1,3.7310664653778076,None,,,,,0,0,0,0,0,6,6,165,121.29797911643982,,,,,,,,,,,,,,,,,,,,,,,,,,,,,,,,,,,,,,,,,,,,,,,,,,,,,,,,,,,,,,,,,,,,,,,,,,,,,,,,,135.70580857049453,102.44836574771332,85.42759681761767,148.2186379775132,108.27827852835094,106.16097098743279,2.2,2.21,-221,-256,0,264,223,277,121.28295516967773,121.28303623199463,121.28624033927917,121.29797911643982,121.45245409011841,121.45245409011841,121.45245409011841,121.45245409011841,121.45245409011841,121.45245409011841,121.45245409011841,125.04035115242004,1,3.7310664653778076,None,,,,,,,,,,,,,,,,,,220,1,2025-03-10_10h57.01.041,comp,2024.2.4,57.864281260174494,2025-03-10 10h57.45.834320 -0400,
7,7,0,filler_random,None,None,None,None,None,None,None,None,None,None,2,3.5402004718780518,None,,,,,0,0,0,0,0,7,7,131,125.05676007270813,,,,,,,,,,,,,,,,,,,,,,,,,,,,,,,,,,,,,,,,,,,,,,,,,,,,,,,,,,,,,,,,,,,,,,,,,,,,,,,,,135.67291229037517,68.30623701583603,95.88360468687227,183.0108484728625,146.53672949857284,148.47027072181265,2.1,2.11,-222,253,0,289,262,-266,125.0421838760376,125.04235410690308,125.0456485748291,125.05676007270813,125.20108819007874,125.20108819007874,125.20108819007874,125.20108819007874,125.20108819007874,125.20108819007874,125.20108819007874,128.60870623588562,2,3.5402004718780518,None,,,,,,,,,,,,,,,,,,220,1,2025-03-10_10h57.01.041,comp,2024.2.4,57.864281260174494,2025-03-10 10h57.45.834320 -0400,
8,8,0,critical,hwd,20.0,2.1,upper,200.0,125.0,125.0,200.0,141.0,141.0,1,2.074383497238159,None,,,,,0,0,0,0,0,8,8,43,128.6266951560974,,,,,,,,,,,,,,,,,,,,,,,,,,,,,,,,,,,,,,,,,,,,,,,,,,,,,,,,,,,,,,,,,,,,,,,,,,,,,,,,,200.0,125.0,125.0,200.0,141.0,141.0,2.1,2.11,-258,273,0,287,266,-273,128.6101577281952,128.61026000976562,128.61309552192688,128.6266951560974,128.76931953430176,128.76931953430176,128.76931953430176,128.76931953430176,128.76931953430176,128.76931953430176,128.76931953430176,130.71945118904114,1,2.074383497238159,None,,,,,,,,,,,,,,,,,,220,1,2025-03-10_10h57.01.041,comp,2024.2.4,57.864281260174494,2025-03-10 10h57.45.834320 -0400,
9,9,0,critical,whd,20.0,4.0,lower,57.0,133.0,133.0,57.0,78.0,78.0,1,2.683837890625,None,,,,,0,0,0,0,0,9,9,94,130.73746991157532,,,,,,,,,,,,,,,,,,,,,,,,,,,,,,,,,,,,,,,,,,,,,,,,,,,,,,,,,,,,,,,,,,,,,,,,,,,,,,,,,57.0,133.0,133.0,57.0,78.0,78.0,4.0,4.1,-191,-277,0,-17,164,-273,130.72116827964783,130.72130513191223,130.72488832473755,130.73746991157532,130.8848729133606,130.8848729133606,130.8848729133606,130.8848729133606,130.8848729133606,130.8848729133606,130.8848729133606,133.42371654510498,1,2.683837890625,None,,,,,,,,,,,,,,,,,,220,1,2025-03-10_10h57.01.041,comp,2024.2.4,57.864281260174494,2025-03-10 10h57.45.834320 -0400,
10,10,0,filler_square,None,None,None,None,None,None,None,None,None,None,1,2.9943687915802,None,,,,,0,0,0,0,0,10,10,175,133.4427092075348,,,,,,,,,,,,,,,,,,,,,,,,,,,,,,,,,,,,,,,,,,,,,,,,,,,,,,,,,,,,,,,,,,,,,,,,,,,,,,,,,108.65878004817097,92.56915012083087,92.72688763579305,110.39925101309335,114.11103902559674,114.11103902559674,3.0,3.2,-197,-265,0,-1,208,257,133.42584013938904,133.42592597007751,133.42917609214783,133.4427092075348,133.58522605895996,133.58522605895996,133.58522605895996,133.58522605895996,133.58522605895996,133.58522605895996,133.58522605895996,136.45606303215027,1,2.9943687915802,None,,,,,,,,,,,,,,,,,,220,1,2025-03-10_10h57.01.041,comp,2024.2.4,57.864281260174494,2025-03-10 10h57.45.834320 -0400,
11,11,0,critical,wdh,35.0,2.1,lower,57.0,133.0,70.0,70.0,133.0,57.0,3,2.69403338432312,None,,,,,0,0,0,0,0,11,11,32,136.47202467918396,,,,,,,,,,,,,,,,,,,,,,,,,,,,,,,,,,,,,,,,,,,,,,,,,,,,,,,,,,,,,,,,,,,,,,,,,,,,,,,,,57.0,133.0,70.0,70.0,133.0,57.0,2.1,2.11,-198,273,0,281,160,-283,136.4577112197876,136.45779132843018,136.46088337898254,136.47202467918396,136.60784363746643,136.60784363746643,136.60784363746643,136.60784363746643,136.60784363746643,136.60784363746643,136.60784363746643,139.1727430820465,3,2.69403338432312,None,,,,,,,,,,,,,,,,,,220,1,2025-03-10_10h57.01.041,comp,2024.2.4,57.864281260174494,2025-03-10 10h57.45.834320 -0400,
12,12,0,critical,wdh,20.0,4.0,lower,57.0,133.0,78.0,78.0,133.0,57.0,1,2.912844181060791,None,,,,,0,0,0,0,0,12,12,82,139.18879652023315,,,,,,,,,,,,,,,,,,,,,,,,,,,,,,,,,,,,,,,,,,,,,,,,,,,,,,,,,,,,,,,,,,,,,,,,,,,,,,,,,57.0,133.0,78.0,78.0,133.0,57.0,4.0,4.2,-202,15,0,-290,164,-13,139.17427349090576,139.1744201183319,139.177916765213,139.18879652023315,139.3461492061615,139.3461492061615,139.3461492061615,139.3461492061615,139.3461492061615,139.3461492061615,139.3461492061615,142.1078817844391,1,2.912844181060791,None,,,,,,,,,,,,,,,,,,220,1,2025-03-10_10h57.01.041,comp,2024.2.4,57.864281260174494,2025-03-10 10h57.45.834320 -0400,
13,13,0,critical,dwh,35.0,2.1,upper,127.0,127.0,125.0,200.0,200.0,125.0,2,2.3666605949401855,None,,,,,0,0,0,0,0,13,13,5,142.13427710533142,,,,,,,,,,,,,,,,,,,,,,,,,,,,,,,,,,,,,,,,,,,,,,,,,,,,,,,,,,,,,,,,,,,,,,,,,,,,,,,,,127.0,127.0,125.0,200.0,200.0,125.0,2.1,2.12,-260,-275,0,-253,258,252,142.10977411270142,142.1098563671112,142.1127781867981,142.13427710533142,142.2714283466339,142.2714283466339,142.2714283466339,142.2714283466339,142.2714283466339,142.2714283466339,142.2714283466339,144.51569962501526,2,2.3666605949401855,None,,,,,,,,,,,,,,,,,,220,1,2025-03-10_10h57.01.041,comp,2024.2.4,57.864281260174494,2025-03-10 10h57.45.834320 -0400,
14,14,0,filler_square,None,None,None,None,None,None,None,None,None,None,1,1.1172831058502197,None,,,,,0,0,0,0,0,14,14,197,144.53624153137207,,,,,,,,,,,,,,,,,,,,,,,,,,,,,,,,,,,,,,,,,,,,,,,,,,,,,,,,,,,,,,,,,,,,,,,,,,,,,,,,,177.99591355033192,177.99591355033192,104.74599151993944,120.9430996051527,71.90892333245785,59.231715837629,2.1,2.11,-245,270,0,288,186,-284,144.51750707626343,144.51758670806885,144.52048134803772,144.53624153137207,144.67540168762207,144.67540168762207,144.67540168762207,144.67540168762207,144.67540168762207,144.67540168762207,144.67540168762207,145.6575529575348,1,1.1172831058502197,None,,,,,,,,,,,,,,,,,,220,1,2025-03-10_10h57.01.041,comp,2024.2.4,57.864281260174494,2025-03-10 10h57.45.834320 -0400,
15,15,0,filler_square,None,None,None,None,None,None,None,None,None,None,2,0.8920767307281494,None,,,,,0,0,0,0,0,15,15,184,145.67365193367004,,,,,,,,,,,,,,,,,,,,,,,,,,,,,,,,,,,,,,,,,,,,,,,,,,,,,,,,,,,,,,,,,,,,,,,,,,,,,,,,,75.95405779037836,128.67532043922017,106.3170531006549,72.93153293536318,157.0869164387111,157.0869164387111,2.2,2.21,-197,-271,0,287,211,285,145.65945887565613,145.65957617759705,145.66288328170776,145.67365193367004,145.82310342788696,145.82310342788696,145.82310342788696,145.82310342788696,145.82310342788696,145.82310342788696,145.82310342788696,146.57373428344727,2,0.8920767307281494,None,,,,,,,,,,,,,,,,,,220,1,2025-03-10_10h57.01.041,comp,2024.2.4,57.864281260174494,2025-03-10 10h57.45.834320 -0400,
16,16,0,critical,whd,20.0,4.0,upper,125.0,200.0,200.0,125.0,141.0,141.0,2,1.535834789276123,None,,,,,0,0,0,0,0,16,16,95,146.58935976028442,,,,,,,,,,,,,,,,,,,,,,,,,,,,,,,,,,,,,,,,,,,,,,,,,,,,,,,,,,,,,,,,,,,,,,,,,,,,,,,,,125.0,200.0,200.0,125.0,141.0,141.0,4.0,4.2,-258,-2,0,-277,229,1,146.57526087760925,146.57534217834473,146.57875275611877,146.58935976028442,146.74226760864258,146.74226760864258,146.74226760864258,146.74226760864258,146.74226760864258,146.74226760864258,146.74226760864258,148.12894105911255,2,1.535834789276123,None,,,,,,,,,,,,,,,,,,220,1,2025-03-10_10h57.01.041,comp,2024.2.4,57.864281260174494,2025-03-10 10h57.45.834320 -0400,
17,17,0,critical,whd,35.0,2.1,upper,125.0,200.0,200.0,125.0,127.0,127.0,1,1.243143081665039,None,,,,,0,0,0,0,0,17,17,37,148.14670729637146,,,,,,,,,,,,,,,,,,,,,,,,,,,,,,,,,,,,,,,,,,,,,,,,,,,,,,,,,,,,,,,,,,,,,,,,,,,,,,,,,125.0,200.0,200.0,125.0,127.0,127.0,2.1,2.12,-258,-270,0,-289,222,252,148.130601644516,148.13068008422852,148.13364958763123,148.14670729637146,148.2909116744995,148.2909116744995,148.2909116744995,148.2909116744995,148.2909116744995,148.2909116744995,148.2909116744995,149.3933229446411,1,1.243143081665039,None,,,,,,,,,,,,,,,,,,220,1,2025-03-10_10h57.01.041,comp,2024.2.4,57.864281260174494,2025-03-10 10h57.45.834320 -0400,
18,18,0,critical,hwd,35.0,1.0,upper,200.0,125.0,125.0,200.0,127.0,127.0,1,1.4509358406066895,None,,,,,0,0,0,0,0,18,18,97,149.4100935459137,,,,,,,,,,,,,,,,,,,,,,,,,,,,,,,,,,,,,,,,,,,,,,,,,,,,,,,,,,,,,,,,,,,,,,,,,,,,,,,,,200.0,125.0,125.0,200.0,127.0,127.0,1.0,1.3,222,-262,480,-252,740,-259,149.39512634277344,149.39527678489685,149.3987410068512,149.4100935459137,149.56041169166565,149.56041169166565,149.56041169166565,149.56041169166565,149.56041169166565,149.56041169166565,149.56041169166565,150.87365221977234,1,1.4509358406066895,None,,,,,,,,,,,,,,,,,,220,1,2025-03-10_10h57.01.041,comp,2024.2.4,57.864281260174494,2025-03-10 10h57.45.834320 -0400,
19,19,0,critical,dwh,20.0,2.1,lower,78.0,78.0,57.0,133.0,133.0,57.0,1,1.8508710861206055,None,,,,,0,0,0,0,0,19,19,30,150.89038372039795,,,,,,,,,,,,,,,,,,,,,,,,,,,,,,,,,,,,,,,,,,,,,,,,,,,,,,,,,,,,,,,,,,,,,,,,,,,,,,,,,78.0,78.0,57.0,133.0,133.0,57.0,2.1,2.11,-202,288,0,278,191,-253,150.87517881393433,150.87527799606323,150.87842893600464,150.89038372039795,151.0482542514801,151.0482542514801,151.0482542514801,151.0482542514801,151.0482542514801,151.0482542514801,151.0482542514801,152.75339341163635,1,1.8508710861206055,None,,,,,,,,,,,,,,,,,,220,1,2025-03-10_10h57.01.041,comp,2024.2.4,57.864281260174494,2025-03-10 10h57.45.834320 -0400,
20,20,0,catch,None,None,None,None,None,None,None,None,None,None,1,1.2042639255523682,None,,,,,0,0,0,0,0,20,20,127,152.76929664611816,,,,,,,,,,,,,,,,,,,,,,,,,,,,,,,,,,,,,,,,,,,,,,,,,,,,,,,,,,,,,,,,,,,,,,,,,,,,,,,,,176,149,67,123,92,98,1.0,1.1,-712,273,-480,256,-274,269,152.7553379535675,152.75541830062866,152.75834155082703,152.76929664611816,152.90896725654602,152.90896725654602,152.90896725654602,152.90896725654602,152.90896725654602,152.90896725654602,152.90896725654602,153.97628736495972,1,1.2042639255523682,None,,,,,,,,,,,,,,,,,,220,1,2025-03-10_10h57.01.041,comp,2024.2.4,57.864281260174494,2025-03-10 10h57.45.834320 -0400,
21,21,0,filler_square,None,None,None,None,None,None,None,None,None,None,2,1.2117702960968018,None,,,,,0,0,0,0,0,21,21,204,153.9937663078308,,,,,,,,,,,,,,,,,,,,,,,,,,,,,,,,,,,,,,,,,,,,,,,,,,,,,,,,,,,,,,,,,,,,,,,,,,,,,,,,,71.8171828291423,93.7294568447368,96.38637993518192,90.03195872107983,98.85960863906615,98.85960863906615,2.2,2.22,-188,259,0,-253,190,-274,153.9781756401062,153.97829937934875,153.98175501823425,153.9937663078308,154.14552879333496,154.14552879333496,154.14552879333496,154.14552879333496,154.14552879333496,154.14552879333496,154.14552879333496,155.20876264572144,2,1.2117702960968018,None,,,,,,,,,,,,,,,,,,220,1,2025-03-10_10h57.01.041,comp,2024.2.4,57.864281260174494,2025-03-10 10h57.45.834320 -0400,
22,22,0,filler_square,None,None,None,None,None,None,None,None,None,None,2,1.7848713397979736,None,,,,,0,0,0,0,0,22,22,207,155.22809171676636,,,,,,,,,,,,,,,,,,,,,,,,,,,,,,,,,,,,,,,,,,,,,,,,,,,,,,,,,,,,,,,,,,,,,,,,,,,,,,,,,58.26375959610511,57.39202781402459,58.678661661321065,57.171684951574704,59.71971175083778,59.71971175083778,2.2,2.22,-153,287,0,-275,154,-265,155.2105941772461,155.2106750011444,155.21372747421265,155.22809171676636,155.37599420547485,155.37599420547485,155.37599420547485,155.37599420547485,155.37599420547485,155.37599420547485,155.37599420547485,157.02588558197021,2,1.7848713397979736,None,,,,,,,,,,,,,,,,,,220,1,2025-03-10_10h57.01.041,comp,2024.2.4,57.864281260174494,2025-03-10 10h57.45.834320 -0400,
23,23,0,critical,hdw,20.0,1.0,lower,133.0,57.0,78.0,78.0,57.0,133.0,1,2.0989177227020264,None,,,,,0,0,0,0,0,23,23,114,157.04239559173584,,,,,,,,,,,,,,,,,,,,,,,,,,,,,,,,,,,,,,,,,,,,,,,,,,,,,,,,,,,,,,,,,,,,,,,,,,,,,,,,,133.0,57.0,78.0,78.0,57.0,133.0,1.0,1.2,-164,-10,0,-19,202,0,157.027498960495,157.02757692337036,157.03092765808105,157.04239559173584,157.19322085380554,157.19322085380554,157.19322085380554,157.19322085380554,157.19322085380554,157.19322085380554,157.19322085380554,159.14600944519043,1,2.0989177227020264,None,,,,,,,,,,,,,,,,,,220,1,2025-03-10_10h57.01.041,comp,2024.2.4,57.864281260174494,2025-03-10 10h57.45.834320 -0400,
24,24,0,critical,hdw,35.0,2.1,upper,200.0,125.0,127.0,127.0,125.0,200.0,3,1.4912974834442139,None,,,,,0,0,0,0,0,24,24,21,159.16258692741394,,,,,,,,,,,,,,,,,,,,,,,,,,,,,,,,,,,,,,,,,,,,,,,,,,,,,,,,,,,,,,,,,,,,,,,,,,,,,,,,,200.0,125.0,127.0,127.0,125.0,200.0,2.1,2.11,-222,251,0,290,260,-266,159.14775776863098,159.14784002304077,159.15175342559814,159.16258692741394,159.31641173362732,159.31641173362732,159.31641173362732,159.31641173362732,159.31641173362732,159.31641173362732,159.31641173362732,160.6616086959839,3,1.4912974834442139,None,,,,,,,,,,,,,,,,,,220,1,2025-03-10_10h57.01.041,comp,2024.2.4,57.864281260174494,2025-03-10 10h57.45.834320 -0400,
25,25,0,filler_random,None,None,None,None,None,None,None,None,None,None,2,1.1921796798706055,None,,,,,0,0,0,0,0,25,25,150,160.6776340007782,,,,,,,,,,,,,,,,,,,,,,,,,,,,,,,,,,,,,,,,,,,,,,,,,,,,,,,,,,,,,,,,,,,,,,,,,,,,,,,,,106.21153468685227,180.66932499800265,190.83678241545672,93.28547432404615,80.00408598457554,173.43208594491898,1.0,1.3,247,-289,480,-276,709,-264,160.66343212127686,160.66351294517517,160.66694617271423,160.6776340007782,160.8341474533081,160.8341474533081,160.8341474533081,160.8341474533081,160.8341474533081,160.8341474533081,160.8341474533081,161.87959170341492,2,1.1921796798706055,None,,,,,,,,,,,,,,,,,,220,1,2025-03-10_10h57.01.041,comp,2024.2.4,57.864281260174494,2025-03-10 10h57.45.834320 -0400,
26,26,0,filler_square,None,None,None,None,None,None,None,None,None,None,1,2.342264175415039,None,,,,,0,0,0,0,0,26,26,173,161.8957371711731,,,,,,,,,,,,,,,,,,,,,,,,,,,,,,,,,,,,,,,,,,,,,,,,,,,,,,,,,,,,,,,,,,,,,,,,,,,,,,,,,91.91694618488857,91.91694618488857,69.71142264580982,84.1377411092038,87.15660023763112,73.96409202697727,3.0,3.2,-184,-257,0,8,175,281,161.88158082962036,161.88169646263123,161.88492441177368,161.8957371711731,162.04276371002197,162.04276371002197,162.04276371002197,162.04276371002197,162.04276371002197,162.04276371002197,162.04276371002197,164.24363088607788,1,2.342264175415039,None,,,,,,,,,,,,,,,,,,220,1,2025-03-10_10h57.01.041,comp,2024.2.4,57.864281260174494,2025-03-10 10h57.45.834320 -0400,
27,27,0,critical,wdh,35.0,4.0,upper,125.0,200.0,127.0,127.0,200.0,125.0,1,1.2262513637542725,None,,,,,0,0,0,0,0,27,27,77,164.2592887878418,,,,,,,,,,,,,,,,,,,,,,,,,,,,,,,,,,,,,,,,,,,,,,,,,,,,,,,,,,,,,,,,,,,,,,,,,,,,,,,,,125.0,200.0,127.0,127.0,200.0,125.0,4.0,4.1,-260,-284,0,10,222,-274,164.24518394470215,164.24530577659607,164.24813961982727,164.2592887878418,164.41255736351013,164.41255736351013,164.41255736351013,164.41255736351013,164.41255736351013,164.41255736351013,164.41255736351013,165.49663186073303,1,1.2262513637542725,None,,,,,,,,,,,,,,,,,,220,1,2025-03-10_10h57.01.041,comp,2024.2.4,57.864281260174494,2025-03-10 10h57.45.834320 -0400,
28,28,0,critical,dwh,35.0,2.1,lower,70.0,70.0,57.0,133.0,133.0,57.0,2,1.0477938652038574,None,,,,,0,0,0,0,0,28,28,28,165.5172803401947,,,,,,,,,,,,,,,,,,,,,,,,,,,,,,,,,,,,,,,,,,,,,,,,,,,,,,,,,,,,,,,,,,,,,,,,,,,,,,,,,70.0,70.0,57.0,133.0,133.0,57.0,2.1,2.12,-198,-278,0,-254,191,254,165.49816226959229,165.49827885627747,165.50143122673035,165.5172803401947,165.6653254032135,165.6653254032135,165.6653254032135,165.6653254032135,165.6653254032135,165.6653254032135,165.6653254032135,166.57970762252808,2,1.0477938652038574,None,,,,,,,,,,,,,,,,,,220,1,2025-03-10_10h57.01.041,comp,2024.2.4,57.864281260174494,2025-03-10 10h57.45.834320 -0400,
29,29,0,filler_square,None,None,None,None,None,None,None,None,None,None,1,0.9066791534423828,None,,,,,0,0,0,0,0,29,29,179,166.59570789337158,,,,,,,,,,,,,,,,,,,,,,,,,,,,,,,,,,,,,,,,,,,,,,,,,,,,,,,,,,,,,,,,,,,,,,,,,,,,,,,,,158.48565414972313,158.48565414972313,81.78676681649026,85.79410922129716,80.95443537518764,112.17890616082074,1.0,1.2,-218,5,0,19,195,-3,166.58143734931946,166.5815155506134,166.58480262756348,166.59570789337158,166.74454879760742,166.74454879760742,166.74454879760742,166.74454879760742,166.74454879760742,166.74454879760742,166.74454879760742,167.51360988616943,1,0.9066791534423828,None,,,,,,,,,,,,,,,,,,220,1,2025-03-10_10h57.01.041,comp,2024.2.4,57.864281260174494,2025-03-10 10h57.45.834320 -0400,
30,30,0,critical,dhw,20.0,1.0,lower,78.0,78.0,133.0,57.0,57.0,133.0,2,1.3955094814300537,None,,,,,0,0,0,0,0,30,30,54,167.53055024147034,,,,,,,,,,,,,,,,,,,,,,,,,,,,,,,,,,,,,,,,,,,,,,,,,,,,,,,,,,,,,,,,,,,,,,,,,,,,,,,,,78.0,78.0,133.0,57.0,57.0,133.0,1.0,1.3,316,-284,480,-277,671,-253,167.51508116722107,167.51515865325928,167.51906514167786,167.53055024147034,167.6820306777954,167.6820306777954,167.6820306777954,167.6820306777954,167.6820306777954,167.6820306777954,167.6820306777954,168.93162941932678,2,1.3955094814300537,None,,,,,,,,,,,,,,,,,,220,1,2025-03-10_10h57.01.041,comp,2024.2.4,57.864281260174494,2025-03-10 10h57.45.834320 -0400,
31,31,0,critical,hwd,20.0,1.0,upper,200.0,125.0,125.0,200.0,141.0,141.0,1,1.3941898345947266,None,,,,,0,0,0,0,0,31,31,103,168.94769644737244,,,,,,,,,,,,,,,,,,,,,,,,,,,,,,,,,,,,,,,,,,,,,,,,,,,,,,,,,,,,,,,,,,,,,,,,,,,,,,,,,200.0,125.0,125.0,200.0,141.0,141.0,1.0,1.3,222,-268,480,-274,746,-254,168.9333634376526,168.9334795475006,168.93692350387573,168.94769644737244,169.09489917755127,169.09489917755127,169.09489917755127,169.09489917755127,169.09489917755127,169.09489917755127,169.09489917755127,170.34948182106018,1,1.3941898345947266,None,,,,,,,,,,,,,,,,,,220,1,2025-03-10_10h57.01.041,comp,2024.2.4,57.864281260174494,2025-03-10 10h57.45.834320 -0400,
32,32,0,critical,dhw,35.0,2.1,upper,127.0,127.0,200.0,125.0,125.0,200.0,2,1.240281105041504,None,,,,,0,0,0,0,0,32,32,25,170.36579370498657,,,,,,,,,,,,,,,,,,,,,,,,,,,,,,,,,,,,,,,,,,,,,,,,,,,,,,,,,,,,,,,,,,,,,,,,,,,,,,,,,127.0,127.0,200.0,125.0,125.0,200.0,2.1,2.12,-222,-261,0,-259,258,274,170.35122346878052,170.3513638973236,170.35480570793152,170.36579370498657,170.51578617095947,170.51578617095947,170.51578617095947,170.51578617095947,170.51578617095947,170.51578617095947,170.51578617095947,171.6165177822113,2,1.240281105041504,None,,,,,,,,,,,,,,,,,,220,1,2025-03-10_10h57.01.041,comp,2024.2.4,57.864281260174494,2025-03-10 10h57.45.834320 -0400,
33,33,0,critical,dwh,35.0,4.0,upper,127.0,127.0,125.0,200.0,200.0,125.0,2,0.8766336441040039,None,,,,,0,0,0,0,0,33,33,65,171.63237357139587,,,,,,,,,,,,,,,,,,,,,,,,,,,,,,,,,,,,,,,,,,,,,,,,,,,,,,,,,,,,,,,,,,,,,,,,,,,,,,,,,127.0,127.0,125.0,200.0,200.0,125.0,4.0,4.1,-260,-262,0,6,258,-275,171.61823916435242,171.61832761764526,171.62161135673523,171.63237357139587,171.78614902496338,171.78614902496338,171.78614902496338,171.78614902496338,171.78614902496338,171.78614902496338,171.78614902496338,172.51915502548218,2,0.8766336441040039,None,,,,,,,,,,,,,,,,,,220,1,2025-03-10_10h57.01.041,comp,2024.2.4,57.864281260174494,2025-03-10 10h57.45.834320 -0400,
34,34,0,critical,whd,35.0,2.1,lower,57.0,133.0,133.0,57.0,70.0,70.0,2,1.8753149509429932,None,,,,,0,0,0,0,0,34,34,12,172.53857851028442,,,,,,,,,,,,,,,,,,,,,,,,,,,,,,,,,,,,,,,,,,,,,,,,,,,,,,,,,,,,,,,,,,,,,,,,,,,,,,,,,57.0,133.0,133.0,57.0,70.0,70.0,2.1,2.11,-191,254,0,267,160,-285,172.5209903717041,172.5211296081543,172.52444624900818,172.53857851028442,172.6779055595398,172.6779055595398,172.6779055595398,172.6779055595398,172.6779055595398,172.6779055595398,172.6779055595398,174.42190980911255,2,1.8753149509429932,None,,,,,,,,,,,,,,,,,,220,1,2025-03-10_10h57.01.041,comp,2024.2.4,57.864281260174494,2025-03-10 10h57.45.834320 -0400,
35,35,0,filler_random,None,None,None,None,None,None,None,None,None,None,1,1.0453178882598877,None,,,,,0,0,0,0,0,35,35,137,174.43980598449707,,,,,,,,,,,,,,,,,,,,,,,,,,,,,,,,,,,,,,,,,,,,,,,,,,,,,,,,,,,,,,,,,,,,,,,,,,,,,,,,,188.57554013861673,135.4095749206245,188.1546629573952,89.03363958053987,135.2015848677271,70.37190786309162,2.2,2.22,-208,256,0,-261,176,-251,174.42366576194763,174.42374467849731,174.42668199539185,174.43980598449707,174.58193469047546,174.58193469047546,174.58193469047546,174.58193469047546,174.58193469047546,174.58193469047546,174.58193469047546,175.50635766983032,1,1.0453178882598877,None,,,,,,,,,,,,,,,,,,220,1,2025-03-10_10h57.01.041,comp,2024.2.4,57.864281260174494,2025-03-10 10h57.45.834320 -0400,
36,36,0,filler_square,None,None,None,None,None,None,None,None,None,None,3,1.2400860786437988,None,,,,,0,0,0,0,0,36,36,209,175.52492427825928,,,,,,,,,,,,,,,,,,,,,,,,,,,,,,,,,,,,,,,,,,,,,,,,,,,,,,,,,,,,,,,,,,,,,,,,,,,,,,,,,77.07244164524431,85.98411707864688,83.63662126553146,78.84180998761178,93.93192266648423,93.93192266648423,3.0,3.1,-178,250,0,-15,182,-270,175.5081284046173,175.50822687149048,175.51105999946594,175.52492427825928,175.66686582565308,175.66686582565308,175.66686582565308,175.66686582565308,175.66686582565308,175.66686582565308,175.66686582565308,176.78283715248108,3,1.2400860786437988,None,,,,,,,,,,,,,,,,,,220,1,2025-03-10_10h57.01.041,comp,2024.2.4,57.864281260174494,2025-03-10 10h57.45.834320 -0400,
37,37,0,critical,wdh,20.0,2.1,upper,125.0,200.0,141.0,141.0,200.0,125.0,3,1.4065773487091064,None,,,,,0,0,0,0,0,37,37,11,176.79845070838928,,,,,,,,,,,,,,,,,,,,,,,,,,,,,,,,,,,,,,,,,,,,,,,,,,,,,,,,,,,,,,,,,,,,,,,,,,,,,,,,,125.0,200.0,141.0,141.0,200.0,125.0,2.1,2.12,-266,-254,0,-285,229,271,176.78450846672058,176.7846281528473,176.788067817688,176.79845070838928,176.95026421546936,176.95026421546936,176.95026421546936,176.95026421546936,176.95026421546936,176.95026421546936,176.95026421546936,178.215735912323,3,1.4065773487091064,None,,,,,,,,,,,,,,,,,,220,1,2025-03-10_10h57.01.041,comp,2024.2.4,57.864281260174494,2025-03-10 10h57.45.834320 -0400,
38,38,0,filler_square,None,None,None,None,None,None,None,None,None,None,2,0.8683440685272217,None,,,,,0,0,0,0,0,38,38,199,178.23292326927185,,,,,,,,,,,,,,,,,,,,,,,,,,,,,,,,,,,,,,,,,,,,,,,,,,,,,,,,,,,,,,,,,,,,,,,,,,,,,,,,,115.48313013521962,105.59566697295699,118.99220879345879,118.99220879345879,73.52713070570971,70.02686008889036,2.2,2.21,-208,-283,0,286,191,281,178.21759796142578,178.2176787853241,178.2208034992218,178.23292326927185,178.3697783946991,178.3697783946991,178.3697783946991,178.3697783946991,178.3697783946991,178.3697783946991,178.3697783946991,179.1173403263092,2,0.8683440685272217,None,,,,,,,,,,,,,,,,,,220,1,2025-03-10_10h57.01.041,comp,2024.2.4,57.864281260174494,2025-03-10 10h57.45.834320 -0400,
39,39,0,critical,hdw,35.0,2.1,lower,133.0,57.0,70.0,70.0,57.0,133.0,3,1.6736552715301514,None,,,,,0,0,0,0,0,39,39,20,179.1337010860443,,,,,,,,,,,,,,,,,,,,,,,,,,,,,,,,,,,,,,,,,,,,,,,,,,,,,,,,,,,,,,,,,,,,,,,,,,,,,,,,,133.0,57.0,70.0,70.0,57.0,133.0,2.1,2.11,-160,278,0,290,198,-254,179.11893606185913,179.11901664733887,179.12316989898682,179.1337010860443,179.28875422477722,179.28875422477722,179.28875422477722,179.28875422477722,179.28875422477722,179.28875422477722,179.28875422477722,180.81823754310608,3,1.6736552715301514,None,,,,,,,,,,,,,,,,,,220,1,2025-03-10_10h57.01.041,comp,2024.2.4,57.864281260174494,2025-03-10 10h57.45.834320 -0400,
40,40,0,filler_random,None,None,None,None,None,None,None,None,None,None,2,1.6835973262786865,None,,,,,0,0,0,0,0,40,40,163,180.83433151245117,,,,,,,,,,,,,,,,,,,,,,,,,,,,,,,,,,,,,,,,,,,,,,,,,,,,,,,,,,,,,,,,,,,,,,,,,,,,,,,,,77.56795510777545,120.70139425698387,81.34935698076814,123.40660438440209,65.26196608927053,156.48256171133667,1.0,1.3,262,-262,480,-282,716,-252,180.82002758979797,180.82010984420776,180.82355856895447,180.83433151245117,180.9825954437256,180.9825954437256,180.9825954437256,180.9825954437256,180.9825954437256,180.9825954437256,180.9825954437256,182.52252864837646,2,1.6835973262786865,None,,,,,,,,,,,,,,,,,,220,1,2025-03-10_10h57.01.041,comp,2024.2.4,57.864281260174494,2025-03-10 10h57.45.834320 -0400,
41,41,0,critical,hdw,20.0,2.1,lower,133.0,57.0,78.0,78.0,57.0,133.0,1,1.4913599491119385,None,,,,,0,0,0,0,0,41,41,46,182.53821921348572,,,,,,,,,,,,,,,,,,,,,,,,,,,,,,,,,,,,,,,,,,,,,,,,,,,,,,,,,,,,,,,,,,,,,,,,,,,,,,,,,133.0,57.0,78.0,78.0,57.0,133.0,2.1,2.11,-164,278,0,272,202,-253,182.524071931839,182.52415108680725,182.52735090255737,182.53821921348572,182.6822965145111,182.6822965145111,182.6822965145111,182.6822965145111,182.6822965145111,182.6822965145111,182.6822965145111,184.0339138507843,1,1.4913599491119385,None,,,,,,,,,,,,,,,,,,220,1,2025-03-10_10h57.01.041,comp,2024.2.4,57.864281260174494,2025-03-10 10h57.45.834320 -0400,
42,42,0,filler_square,None,None,None,None,None,None,None,None,None,None,2,1.6184148788452148,None,,,,,0,0,0,0,0,42,42,186,184.05074954032898,,,,,,,,,,,,,,,,,,,,,,,,,,,,,,,,,,,,,,,,,,,,,,,,,,,,,,,,,,,,,,,,,,,,,,,,,,,,,,,,,73.56131973957471,79.99023553861872,160.33129937334118,160.33129937334118,139.5166473559114,139.74864895336287,2.1,2.12,-216,-254,0,-262,246,279,184.03572583198547,184.03580403327942,184.03900170326233,184.05074954032898,184.20538473129272,184.20538473129272,184.20538473129272,184.20538473129272,184.20538473129272,184.20538473129272,184.20538473129272,185.67119097709656,2,1.6184148788452148,None,,,,,,,,,,,,,,,,,,220,1,2025-03-10_10h57.01.041,comp,2024.2.4,57.864281260174494,2025-03-10 10h57.45.834320 -0400,
43,43,0,critical,wdh,20.0,3.0,upper,125.0,200.0,141.0,141.0,200.0,125.0,1,1.781611680984497,None,,,,,0,0,0,0,0,43,43,81,185.687650680542,,,,,,,,,,,,,,,,,,,,,,,,,,,,,,,,,,,,,,,,,,,,,,,,,,,,,,,,,,,,,,,,,,,,,,,,,,,,,,,,,125.0,200.0,141.0,141.0,200.0,125.0,3.0,3.2,-266,-267,0,-16,229,286,185.6730077266693,185.67314624786377,185.67670679092407,185.687650680542,185.83736085891724,185.83736085891724,185.83736085891724,185.83736085891724,185.83736085891724,185.83736085891724,185.83736085891724,187.47218322753906,1,1.781611680984497,None,,,,,,,,,,,,,,,,,,220,1,2025-03-10_10h57.01.041,comp,2024.2.4,57.864281260174494,2025-03-10 10h57.45.834320 -0400,
44,44,0,catch,None,None,None,None,None,None,None,None,None,None,1,1.5433835983276367,None,,,,,0,0,0,0,0,44,44,128,187.49382877349854,,,,,,,,,,,,,,,,,,,,,,,,,,,,,,,,,,,,,,,,,,,,,,,,,,,,,,,,,,,,,,,,,,,,,,,,,,,,,,,,,197,128,123,67,126,64,2.1,2.12,-194,-259,0,-285,162,259,187.4744598865509,187.47454285621643,187.4779875278473,187.49382877349854,187.63713812828064,187.63713812828064,187.63713812828064,187.63713812828064,187.63713812828064,187.63713812828064,187.63713812828064,189.0549294948578,1,1.5433835983276367,None,,,,,,,,,,,,,,,,,,220,1,2025-03-10_10h57.01.041,comp,2024.2.4,57.864281260174494,2025-03-10 10h57.45.834320 -0400,
45,45,0,filler_square,None,None,None,None,None,None,None,None,None,None,1,1.3980708122253418,None,,,,,0,0,0,0,0,45,45,195,189.0713596343994,,,,,,,,,,,,,,,,,,,,,,,,,,,,,,,,,,,,,,,,,,,,,,,,,,,,,,,,,,,,,,,,,,,,,,,,,,,,,,,,,62.3723588266666,62.3723588266666,60.043909383485584,57.99226384969297,60.85741156540878,60.8206349323468,2.1,2.12,-156,-254,0,-254,155,254,189.05701994895935,189.05710005760193,189.0609428882599,189.0713596343994,189.22089552879333,189.22089552879333,189.22089552879333,189.22089552879333,189.22089552879333,189.22089552879333,189.22089552879333,190.48751759529114,1,1.3980708122253418,None,,,,,,,,,,,,,,,,,,220,1,2025-03-10_10h57.01.041,comp,2024.2.4,57.864281260174494,2025-03-10 10h57.45.834320 -0400,
46,46,0,critical,dhw,20.0,2.1,upper,141.0,141.0,200.0,125.0,125.0,200.0,3,1.8377723693847656,None,,,,,0,0,0,0,0,46,46,3,190.5035490989685,,,,,,,,,,,,,,,,,,,,,,,,,,,,,,,,,,,,,,,,,,,,,,,,,,,,,,,,,,,,,,,,,,,,,,,,,,,,,,,,,141.0,141.0,200.0,125.0,125.0,200.0,2.1,2.11,-229,266,0,274,258,-255,190.48908948898315,190.48916745185852,190.49325895309448,190.5035490989685,190.64208149909973,190.64208149909973,190.64208149909973,190.64208149909973,190.64208149909973,190.64208149909973,190.64208149909973,192.35580110549927,3,1.8377723693847656,None,,,,,,,,,,,,,,,,,,220,1,2025-03-10_10h57.01.041,comp,2024.2.4,57.864281260174494,2025-03-10 10h57.45.834320 -0400,
47,47,0,filler_square,None,None,None,None,None,None,None,None,None,None,2,1.751530408859253,None,,,,,0,0,0,0,0,47,47,203,192.37357997894287,,,,,,,,,,,,,,,,,,,,,,,,,,,,,,,,,,,,,,,,,,,,,,,,,,,,,,,,,,,,,,,,,,,,,,,,,,,,,,,,,76.07654505965102,75.97488409975608,78.98803305103002,80.52299247610046,81.09016614049278,81.09016614049278,1.0,1.1,-654,271,-480,265,-303,282,192.35765767097473,192.3577880859375,192.36071228981018,192.37357997894287,192.52066779136658,192.52066779136658,192.52066779136658,192.52066779136658,192.52066779136658,192.52066779136658,192.52066779136658,194.13828468322754,2,1.751530408859253,None,,,,,,,,,,,,,,,,,,220,1,2025-03-10_10h57.01.041,comp,2024.2.4,57.864281260174494,2025-03-10 10h57.45.834320 -0400,
48,48,0,filler_square,None,None,None,None,None,None,None,None,None,None,1,0.8883662223815918,None,,,,,0,0,0,0,0,48,48,178,194.1575107574463,,,,,,,,,,,,,,,,,,,,,,,,,,,,,,,,,,,,,,,,,,,,,,,,,,,,,,,,,,,,,,,,,,,,,,,,,,,,,,,,,188.27671581751585,188.27671581751585,90.3187460884543,91.7929009059929,169.03853835347712,137.4439107157856,2.1,2.11,-236,257,0,270,211,-261,194.1400604248047,194.1401379108429,194.14315032958984,194.1575107574463,194.30464482307434,194.30464482307434,194.30464482307434,194.30464482307434,194.30464482307434,194.30464482307434,194.30464482307434,195.05282521247864,1,0.8883662223815918,None,,,,,,,,,,,,,,,,,,220,1,2025-03-10_10h57.01.041,comp,2024.2.4,57.864281260174494,2025-03-10 10h57.45.834320 -0400,
49,49,0,filler_random,None,None,None,None,None,None,None,None,None,None,3,1.4797403812408447,None,,,,,0,0,0,0,0,49,49,161,195.0699577331543,,,,,,,,,,,,,,,,,,,,,,,,,,,,,,,,,,,,,,,,,,,,,,,,,,,,,,,,,,,,,,,,,,,,,,,,,,,,,,,,,79.53204777346257,151.04089402701592,175.11777915373207,92.3369210814467,126.43998502119277,173.38056273400872,2.2,2.21,-218,-256,0,253,229,258,195.0546543598175,195.0547342300415,195.05759716033936,195.0699577331543,195.22011828422546,195.22011828422546,195.22011828422546,195.22011828422546,195.22011828422546,195.22011828422546,195.22011828422546,196.55511569976807,3,1.4797403812408447,None,,,,,,,,,,,,,,,,,,220,1,2025-03-10_10h57.01.041,comp,2024.2.4,57.864281260174494,2025-03-10 10h57.45.834320 -0400,
50,50,0,filler_random,None,None,None,None,None,None,None,None,None,None,2,1.2476718425750732,None,,,,,0,0,0,0,0,50,50,132,196.5734202861786,,,,,,,,,,,,,,,,,,,,,,,,,,,,,,,,,,,,,,,,,,,,,,,,,,,,,,,,,,,,,,,,,,,,,,,,,,,,,,,,,132.80535288837106,161.58290808787444,196.42644776851358,150.50512854813465,63.315093864612656,100.90593497176036,4.0,4.2,-252,-6,0,-279,222,-8,196.55686783790588,196.556982755661,196.56029319763184,196.5734202861786,196.73087549209595,196.73087549209595,196.73087549209595,196.73087549209595,196.73087549209595,196.73087549209595,196.73087549209595,197.8233597278595,2,1.2476718425750732,None,,,,,,,,,,,,,,,,,,220,1,2025-03-10_10h57.01.041,comp,2024.2.4,57.864281260174494,2025-03-10 10h57.45.834320 -0400,
51,51,0,filler_random,None,None,None,None,None,None,None,None,None,None,1,0.8298044204711914,None,,,,,0,0,0,0,0,51,51,144,197.83932662010193,,,,,,,,,,,,,,,,,,,,,,,,,,,,,,,,,,,,,,,,,,,,,,,,,,,,,,,,,,,,,,,,,,,,,,,,,,,,,,,,,147.34630075366655,168.17177444431692,151.05581272378566,114.34432235717702,194.3869207846567,99.68134519716173,4.0,4.1,-237,-280,0,-4,203,-254,197.82510638237,197.8251874446869,197.8286292552948,197.83932662010193,197.98743510246277,197.98743510246277,197.98743510246277,197.98743510246277,197.98743510246277,197.98743510246277,197.98743510246277,198.67328190803528,1,0.8298044204711914,None,,,,,,,,,,,,,,,,,,220,1,2025-03-10_10h57.01.041,comp,2024.2.4,57.864281260174494,2025-03-10 10h57.45.834320 -0400,
52,52,0,catch,None,None,None,None,None,None,None,None,None,None,2,0.7312023639678955,None,,,,,0,0,0,0,0,52,52,125,198.68941926956177,,,,,,,,,,,,,,,,,,,,,,,,,,,,,,,,,,,,,,,,,,,,,,,,,,,,,,,,,,,,,,,,,,,,,,,,,,,,,,,,,104,86,141,184,106,84,3.0,3.2,-231,-280,0,11,230,263,198.67532420158386,198.67540526390076,198.678808927536,198.68941926956177,198.84066224098206,198.84066224098206,198.84066224098206,198.84066224098206,198.84066224098206,198.84066224098206,198.84066224098206,199.43940711021423,2,0.7312023639678955,None,,,,,,,,,,,,,,,,,,220,1,2025-03-10_10h57.01.041,comp,2024.2.4,57.864281260174494,2025-03-10 10h57.45.834320 -0400,
53,53,0,filler_random,None,None,None,None,None,None,None,None,None,None,3,1.4374263286590576,None,,,,,0,0,0,0,0,53,53,142,199.4558458328247,,,,,,,,,,,,,,,,,,,,,,,,,,,,,,,,,,,,,,,,,,,,,,,,,,,,,,,,,,,,,,,,,,,,,,,,,,,,,,,,,67.55247831923512,194.2283992604384,81.16734109797879,142.2322534760994,124.62393734015956,198.78616305816777,3.0,3.2,-264,-274,0,-14,267,257,199.44115090370178,199.44125294685364,199.44446229934692,199.4558458328247,199.60400772094727,199.60400772094727,199.60400772094727,199.60400772094727,199.60400772094727,199.60400772094727,199.60400772094727,200.90882849693298,3,1.4374263286590576,None,,,,,,,,,,,,,,,,,,220,1,2025-03-10_10h57.01.041,comp,2024.2.4,57.864281260174494,2025-03-10 10h57.45.834320 -0400,
54,54,0,catch,None,None,None,None,None,None,None,None,None,None,1,1.2251310348510742,None,,,,,0,0,0,0,0,54,54,126,200.92531824111938,,,,,,,,,,,,,,,,,,,,,,,,,,,,,,,,,,,,,,,,,,,,,,,,,,,,,,,,,,,,,,,,,,,,,,,,,,,,,,,,,158,167,73,117,95,95,2.1,2.11,-238,280,0,274,202,-266,200.911048412323,200.9111292362213,200.9147825241089,200.92531824111938,201.07460761070251,201.07460761070251,201.07460761070251,201.07460761070251,201.07460761070251,201.07460761070251,201.07460761070251,202.16111040115356,1,1.2251310348510742,None,,,,,,,,,,,,,,,,,,220,1,2025-03-10_10h57.01.041,comp,2024.2.4,57.864281260174494,2025-03-10 10h57.45.834320 -0400,
55,55,0,filler_square,None,None,None,None,None,None,None,None,None,None,1,1.9162683486938477,None,,,,,0,0,0,0,0,55,55,170,202.17773413658142,,,,,,,,,,,,,,,,,,,,,,,,,,,,,,,,,,,,,,,,,,,,,,,,,,,,,,,,,,,,,,,,,,,,,,,,,,,,,,,,,140.9753365478631,140.9753365478631,66.48272750785642,69.57629529682683,107.33705499297469,132.80905203664884,1.0,1.1,-681,279,-480,261,-283,262,202.163170337677,202.16328287124634,202.1667025089264,202.17773413658142,202.32476663589478,202.32476663589478,202.32476663589478,202.32476663589478,202.32476663589478,202.32476663589478,202.32476663589478,204.1008002758026,1,1.9162683486938477,None,,,,,,,,,,,,,,,,,,220,1,2025-03-10_10h57.01.041,comp,2024.2.4,57.864281260174494,2025-03-10 10h57.45.834320 -0400,
56,56,0,critical,whd,35.0,3.0,lower,57.0,133.0,133.0,57.0,70.0,70.0,2,1.6151037216186523,None,,,,,0,0,0,0,0,56,56,86,204.11857557296753,,,,,,,,,,,,,,,,,,,,,,,,,,,,,,,,,,,,,,,,,,,,,,,,,,,,,,,,,,,,,,,,,,,,,,,,,,,,,,,,,57.0,133.0,133.0,57.0,70.0,70.0,3.0,3.2,-191,-290,0,-16,160,262,204.10238218307495,204.1024615764618,204.10535407066345,204.11857557296753,204.260910987854,204.260910987854,204.260910987854,204.260910987854,204.260910987854,204.260910987854,204.260910987854,205.73590564727783,2,1.6151037216186523,None,,,,,,,,,,,,,,,,,,220,1,2025-03-10_10h57.01.041,comp,2024.2.4,57.864281260174494,2025-03-10 10h57.45.834320 -0400,
57,57,0,critical,dhw,35.0,1.0,lower,70.0,70.0,133.0,57.0,57.0,133.0,3,1.0365726947784424,None,,,,,0,0,0,0,0,57,57,48,205.7530336380005,,,,,,,,,,,,,,,,,,,,,,,,,,,,,,,,,,,,,,,,,,,,,,,,,,,,,,,,,,,,,,,,,,,,,,,,,,,,,,,,,70.0,70.0,133.0,57.0,57.0,133.0,1.0,1.2,-160,16,0,-11,191,5,205.7375247478485,205.73765659332275,205.74126386642456,205.7530336380005,205.89032244682312,205.89032244682312,205.89032244682312,205.89032244682312,205.89032244682312,205.89032244682312,205.89032244682312,206.8003318309784,3,1.0365726947784424,None,,,,,,,,,,,,,,,,,,220,1,2025-03-10_10h57.01.041,comp,2024.2.4,57.864281260174494,2025-03-10 10h57.45.834320 -0400,
58,58,0,critical,wdh,35.0,3.0,lower,57.0,133.0,70.0,70.0,133.0,57.0,1,1.7120304107666016,None,,,,,0,0,0,0,0,58,58,74,206.8211064338684,,,,,,,,,,,,,,,,,,,,,,,,,,,,,,,,,,,,,,,,,,,,,,,,,,,,,,,,,,,,,,,,,,,,,,,,,,,,,,,,,57.0,133.0,70.0,70.0,133.0,57.0,3.0,3.2,-198,-262,0,17,160,264,206.80194067955017,206.80201935768127,206.8053789138794,206.8211064338684,206.9592366218567,206.9592366218567,206.9592366218567,206.9592366218567,206.9592366218567,206.9592366218567,206.9592366218567,208.53640365600586,1,1.7120304107666016,None,,,,,,,,,,,,,,,,,,220,1,2025-03-10_10h57.01.041,comp,2024.2.4,57.864281260174494,2025-03-10 10h57.45.834320 -0400,
59,59,0,critical,dhw,20.0,2.1,lower,78.0,78.0,133.0,57.0,57.0,133.0,2,1.097160816192627,None,,,,,0,0,0,0,0,59,59,2,208.55660438537598,,,,,,,,,,,,,,,,,,,,,,,,,,,,,,,,,,,,,,,,,,,,,,,,,,,,,,,,,,,,,,,,,,,,,,,,,,,,,,,,,78.0,78.0,133.0,57.0,57.0,133.0,2.1,2.11,-164,263,0,260,191,-281,208.5378975868225,208.53799176216125,208.54091906547546,208.55660438537598,208.6923053264618,208.6923053264618,208.6923053264618,208.6923053264618,208.6923053264618,208.6923053264618,208.6923053264618,209.6590895652771,2,1.097160816192627,None,,,,,,,,,,,,,,,,,,220,1,2025-03-10_10h57.01.041,comp,2024.2.4,57.864281260174494,2025-03-10 10h57.45.834320 -0400,
60,60,0,critical,hdw,35.0,3.0,upper,200.0,125.0,127.0,127.0,125.0,200.0,3,1.2868516445159912,None,,,,,0,0,0,0,0,60,60,111,209.67965078353882,,,,,,,,,,,,,,,,,,,,,,,,,,,,,,,,,,,,,,,,,,,,,,,,,,,,,,,,,,,,,,,,,,,,,,,,,,,,,,,,,200.0,125.0,127.0,127.0,125.0,200.0,3.0,3.2,-222,-268,0,15,260,278,209.66066360473633,209.66074466705322,209.66383814811707,209.67965078353882,209.82645559310913,209.82645559310913,209.82645559310913,209.82645559310913,209.82645559310913,209.82645559310913,209.82645559310913,210.97747540473938,3,1.2868516445159912,None,,,,,,,,,,,,,,,,,,220,1,2025-03-10_10h57.01.041,comp,2024.2.4,57.864281260174494,2025-03-10 10h57.45.834320 -0400,
61,61,0,filler_random,None,None,None,None,None,None,None,None,None,None,2,1.309624433517456,None,,,,,0,0,0,0,0,61,61,138,210.992285490036,,,,,,,,,,,,,,,,,,,,,,,,,,,,,,,,,,,,,,,,,,,,,,,,,,,,,,,,,,,,,,,,,,,,,,,,,,,,,,,,,71.14803753959497,147.2357797668838,81.90934889141678,175.99242862016058,119.48921061293223,68.09147959927797,4.0,4.1,-258,-282,0,-5,218,-277,210.9792366027832,210.97932171821594,210.98268222808838,210.992285490036,211.14607119560242,211.14607119560242,211.14607119560242,211.14607119560242,211.14607119560242,211.14607119560242,211.14607119560242,212.31215977668762,2,1.309624433517456,None,,,,,,,,,,,,,,,,,,220,1,2025-03-10_10h57.01.041,comp,2024.2.4,57.864281260174494,2025-03-10 10h57.45.834320 -0400,
62,62,0,critical,wdh,20.0,2.1,upper,125.0,200.0,141.0,141.0,200.0,125.0,3,2.005399227142334,None,,,,,0,0,0,0,0,62,62,35,212.3285722732544,,,,,,,,,,,,,,,,,,,,,,,,,,,,,,,,,,,,,,,,,,,,,,,,,,,,,,,,,,,,,,,,,,,,,,,,,,,,,,,,,125.0,200.0,141.0,141.0,200.0,125.0,2.1,2.11,-266,277,0,273,229,-290,212.31379652023315,212.31390047073364,212.31739139556885,212.3285722732544,212.46535658836365,212.46535658836365,212.46535658836365,212.46535658836365,212.46535658836365,212.46535658836365,212.46535658836365,214.34183716773987,3,2.005399227142334,None,,,,,,,,,,,,,,,,,,220,1,2025-03-10_10h57.01.041,comp,2024.2.4,57.864281260174494,2025-03-10 10h57.45.834320 -0400,
63,63,0,filler_random,None,None,None,None,None,None,None,None,None,None,1,4.189824342727661,None,,,,,0,0,0,0,0,63,63,143,214.35942268371582,,,,,,,,,,,,,,,,,,,,,,,,,,,,,,,,,,,,,,,,,,,,,,,,,,,,,,,,,,,,,,,,,,,,,,,,,,,,,,,,,193.19299179587236,172.9819125942306,150.31367596005396,154.47555579277048,191.66545951903757,110.74913638580236,3.0,3.1,-260,289,0,8,229,-285,214.34357571601868,214.34365582466125,214.34653234481812,214.35942268371582,214.49771428108215,214.49771428108215,214.49771428108215,214.49771428108215,214.49771428108215,214.49771428108215,214.49771428108215,218.56350803375244,1,4.189824342727661,None,,,,,,,,,,,,,,,,,,220,1,2025-03-10_10h57.01.041,comp,2024.2.4,57.864281260174494,2025-03-10 10h57.45.834320 -0400,
64,64,0,filler_square,None,None,None,None,None,None,None,None,None,None,3,1.8413810729980469,None,,,,,0,0,0,0,0,64,64,205,218.57973837852478,,,,,,,,,,,,,,,,,,,,,,,,,,,,,,,,,,,,,,,,,,,,,,,,,,,,,,,,,,,,,,,,,,,,,,,,,,,,,,,,,58.75923700244694,58.75923700244694,58.41545530738838,58.129021659668666,57.590952858639824,57.546128272746095,4.0,4.2,-154,17,0,-254,154,12,218.56530690193176,218.56540155410767,218.56941604614258,218.57973837852478,218.72739171981812,218.72739171981812,218.72739171981812,218.72739171981812,218.72739171981812,218.72739171981812,218.72739171981812,220.4312505722046,3,1.8413810729980469,None,,,,,,,,,,,,,,,,,,220,1,2025-03-10_10h57.01.041,comp,2024.2.4,57.864281260174494,2025-03-10 10h57.45.834320 -0400,
65,65,0,catch,None,None,None,None,None,None,None,None,None,None,1,1.3169715404510498,None,,,,,0,0,0,0,0,65,65,123,220.44828939437866,,,,,,,,,,,,,,,,,,,,,,,,,,,,,,,,,,,,,,,,,,,,,,,,,,,,,,,,,,,,,,,,,,,,,,,,,,,,,,,,,163,162,83,107,118,72,3.0,3.2,-230,-290,0,17,186,266,220.4334511756897,220.43353652954102,220.43746495246887,220.44828939437866,220.5993914604187,220.5993914604187,220.5993914604187,220.5993914604187,220.5993914604187,220.5993914604187,220.5993914604187,221.78058052062988,1,1.3169715404510498,None,,,,,,,,,,,,,,,,,,220,1,2025-03-10_10h57.01.041,comp,2024.2.4,57.864281260174494,2025-03-10 10h57.45.834320 -0400,
66,66,0,critical,dwh,20.0,2.1,lower,78.0,78.0,57.0,133.0,133.0,57.0,2,1.1224720478057861,None,,,,,0,0,0,0,0,66,66,6,221.7947235107422,,,,,,,,,,,,,,,,,,,,,,,,,,,,,,,,,,,,,,,,,,,,,,,,,,,,,,,,,,,,,,,,,,,,,,,,,,,,,,,,,78.0,78.0,57.0,133.0,133.0,57.0,2.1,2.11,-202,273,0,273,191,-275,221.78215336799622,221.78227472305298,221.78558683395386,221.7947235107422,221.93676233291626,221.93676233291626,221.93676233291626,221.93676233291626,221.93676233291626,221.93676233291626,221.93676233291626,222.93193078041077,2,1.1224720478057861,None,,,,,,,,,,,,,,,,,,220,1,2025-03-10_10h57.01.041,comp,2024.2.4,57.864281260174494,2025-03-10 10h57.45.834320 -0400,
67,67,0,critical,dwh,20.0,3.0,upper,141.0,141.0,125.0,200.0,200.0,125.0,3,1.1254401206970215,None,,,,,0,0,0,0,0,67,67,69,222.9525272846222,,,,,,,,,,,,,,,,,,,,,,,,,,,,,,,,,,,,,,,,,,,,,,,,,,,,,,,,,,,,,,,,,,,,,,,,,,,,,,,,,141.0,141.0,125.0,200.0,200.0,125.0,3.0,3.2,-266,-257,0,18,258,275,222.9335777759552,222.93368530273438,222.9370608329773,222.9525272846222,223.09733963012695,223.09733963012695,223.09733963012695,223.09733963012695,223.09733963012695,223.09733963012695,223.09733963012695,224.08470225334167,3,1.1254401206970215,None,,,,,,,,,,,,,,,,,,220,1,2025-03-10_10h57.01.041,comp,2024.2.4,57.864281260174494,2025-03-10 10h57.45.834320 -0400,
68,68,0,filler_square,None,None,None,None,None,None,None,None,None,None,2,1.0623948574066162,None,,,,,0,0,0,0,0,68,68,192,224.10351467132568,,,,,,,,,,,,,,,,,,,,,,,,,,,,,,,,,,,,,,,,,,,,,,,,,,,,,,,,,,,,,,,,,,,,,,,,,,,,,,,,,75.49947448330863,122.00557786443204,159.3025770510622,159.3025770510622,96.99573007707325,106.95211809125871,4.0,4.1,-237,-289,0,-6,229,-264,224.0868363380432,224.08692145347595,224.090430021286,224.10351467132568,224.24824714660645,224.24824714660645,224.24824714660645,224.24824714660645,224.24824714660645,224.24824714660645,224.24824714660645,225.1731677055359,2,1.0623948574066162,None,,,,,,,,,,,,,,,,,,220,1,2025-03-10_10h57.01.041,comp,2024.2.4,57.864281260174494,2025-03-10 10h57.45.834320 -0400,
69,69,0,filler_random,None,None,None,None,None,None,None,None,None,None,2,0.8402433395385742,None,,,,,0,0,0,0,0,69,69,139,225.1893560886383,,,,,,,,,,,,,,,,,,,,,,,,,,,,,,,,,,,,,,,,,,,,,,,,,,,,,,,,,,,,,,,,,,,,,,,,,,,,,,,,,62.396234165291155,195.6272032276631,179.17150241614223,136.99520182388648,125.45098513455847,91.89960954254721,4.0,4.1,-262,-266,0,1,210,-251,225.17510080337524,225.17518258094788,225.17841720581055,225.1893560886383,225.32998275756836,225.32998275756836,225.32998275756836,225.32998275756836,225.32998275756836,225.32998275756836,225.32998275756836,226.0333330631256,2,0.8402433395385742,None,,,,,,,,,,,,,,,,,,220,1,2025-03-10_10h57.01.041,comp,2024.2.4,57.864281260174494,2025-03-10 10h57.45.834320 -0400,
70,70,0,critical,hwd,20.0,2.1,lower,133.0,57.0,57.0,133.0,78.0,78.0,1,3.038986921310425,None,,,,,0,0,0,0,0,70,70,18,226.05446338653564,,,,,,,,,,,,,,,,,,,,,,,,,,,,,,,,,,,,,,,,,,,,,,,,,,,,,,,,,,,,,,,,,,,,,,,,,,,,,,,,,133.0,57.0,57.0,133.0,78.0,78.0,2.1,2.12,-191,-258,0,-264,202,271,226.0349452495575,226.035076379776,226.0386323928833,226.05446338653564,226.1979203224182,226.1979203224182,226.1979203224182,226.1979203224182,226.1979203224182,226.1979203224182,226.1979203224182,229.100346326828,1,3.038986921310425,None,,,,,,,,,,,,,,,,,,220,1,2025-03-10_10h57.01.041,comp,2024.2.4,57.864281260174494,2025-03-10 10h57.45.834320 -0400,
71,71,0,critical,wdh,35.0,2.1,upper,125.0,200.0,127.0,127.0,200.0,125.0,3,1.9848344326019287,None,,,,,0,0,0,0,0,71,71,33,229.1163833141327,,,,,,,,,,,,,,,,,,,,,,,,,,,,,,,,,,,,,,,,,,,,,,,,,,,,,,,,,,,,,,,,,,,,,,,,,,,,,,,,,125.0,200.0,127.0,127.0,200.0,125.0,2.1,2.11,-260,259,0,262,222,-273,229.10197257995605,229.10205745697021,229.10558700561523,229.1163833141327,229.27043294906616,229.27043294906616,229.27043294906616,229.27043294906616,229.27043294906616,229.27043294906616,229.27043294906616,231.1154899597168,3,1.9848344326019287,None,,,,,,,,,,,,,,,,,,220,1,2025-03-10_10h57.01.041,comp,2024.2.4,57.864281260174494,2025-03-10 10h57.45.834320 -0400,
72,72,0,critical,dwh,35.0,2.1,lower,70.0,70.0,57.0,133.0,133.0,57.0,3,5.4894585609436035,None,,,,,0,0,0,0,0,72,72,4,231.1317012310028,,,,,,,,,,,,,,,,,,,,,,,,,,,,,,,,,,,,,,,,,,,,,,,,,,,,,,,,,,,,,,,,,,,,,,,,,,,,,,,,,70.0,70.0,57.0,133.0,133.0,57.0,2.1,2.11,-198,267,0,262,191,-254,231.11702585220337,231.11710476875305,231.1203145980835,231.1317012310028,231.2704770565033,231.2704770565033,231.2704770565033,231.2704770565033,231.2704770565033,231.2704770565033,231.2704770565033,236.63510012626648,3,5.4894585609436035,None,,,,,,,,,,,,,,,,,,220,1,2025-03-10_10h57.01.041,comp,2024.2.4,57.864281260174494,2025-03-10 10h57.45.834320 -0400,
73,73,0,critical,dwh,20.0,4.0,upper,141.0,141.0,125.0,200.0,200.0,125.0,3,1.7633795738220215,None,,,,,0,0,0,0,0,73,73,71,236.65066528320312,,,,,,,,,,,,,,,,,,,,,,,,,,,,,,,,,,,,,,,,,,,,,,,,,,,,,,,,,,,,,,,,,,,,,,,,,,,,,,,,,141.0,141.0,125.0,200.0,200.0,125.0,4.0,4.2,-266,0,0,-266,258,-9,236.636723279953,236.63684630393982,236.64037227630615,236.65066528320312,236.80506443977356,236.80506443977356,236.80506443977356,236.80506443977356,236.80506443977356,236.80506443977356,236.80506443977356,238.41932439804077,3,1.7633795738220215,None,,,,,,,,,,,,,,,,,,220,1,2025-03-10_10h57.01.041,comp,2024.2.4,57.864281260174494,2025-03-10 10h57.45.834320 -0400,
74,74,0,filler_square,None,None,None,None,None,None,None,None,None,None,2,3.1079657077789307,None,,,,,0,0,0,0,0,74,74,180,238.4354796409607,,,,,,,,,,,,,,,,,,,,,,,,,,,,,,,,,,,,,,,,,,,,,,,,,,,,,,,,,,,,,,,,,,,,,,,,,,,,,,,,,112.38982196591581,122.70555201087909,124.36093597426178,124.36093597426178,108.60560809236318,101.545020647108,2.1,2.11,-220,257,0,287,209,-287,238.42130661010742,238.42141103744507,238.42487025260925,238.4354796409607,238.58391451835632,238.58391451835632,238.58391451835632,238.58391451835632,238.58391451835632,238.58391451835632,238.58391451835632,241.5540635585785,2,3.1079657077789307,None,,,,,,,,,,,,,,,,,,220,1,2025-03-10_10h57.01.041,comp,2024.2.4,57.864281260174494,2025-03-10 10h57.45.834320 -0400,
75,75,0,critical,whd,35.0,2.1,lower,57.0,133.0,133.0,57.0,70.0,70.0,2,1.7554636001586914,None,,,,,0,0,0,0,0,75,75,36,241.57055568695068,,,,,,,,,,,,,,,,,,,,,,,,,,,,,,,,,,,,,,,,,,,,,,,,,,,,,,,,,,,,,,,,,,,,,,,,,,,,,,,,,57.0,133.0,133.0,57.0,70.0,70.0,2.1,2.11,-191,281,0,279,160,-283,241.55563378334045,241.55571484565735,241.55976629257202,241.57055568695068,241.71843647956848,241.71843647956848,241.71843647956848,241.71843647956848,241.71843647956848,241.71843647956848,241.71843647956848,243.33741688728333,2,1.7554636001586914,None,,,,,,,,,,,,,,,,,,220,1,2025-03-10_10h57.01.041,comp,2024.2.4,57.864281260174494,2025-03-10 10h57.45.834320 -0400,
76,76,0,filler_random,None,None,None,None,None,None,None,None,None,None,1,1.5869009494781494,None,,,,,0,0,0,0,0,76,76,145,243.35432600975037,,,,,,,,,,,,,,,,,,,,,,,,,,,,,,,,,,,,,,,,,,,,,,,,,,,,,,,,,,,,,,,,,,,,,,,,,,,,,,,,,178.64547294469895,119.80072011564718,91.52468702361227,107.81068057940428,77.33074153978686,198.8310761524429,3.0,3.1,-210,287,0,-17,249,-281,243.33916211128235,243.33926224708557,243.34329748153687,243.35432600975037,243.50244045257568,243.50244045257568,243.50244045257568,243.50244045257568,243.50244045257568,243.50244045257568,243.50244045257568,244.9563274383545,1,1.5869009494781494,None,,,,,,,,,,,,,,,,,,220,1,2025-03-10_10h57.01.041,comp,2024.2.4,57.864281260174494,2025-03-10 10h57.45.834320 -0400,
77,77,0,filler_random,None,None,None,None,None,None,None,None,None,None,3,1.2262904644012451,None,,,,,0,0,0,0,0,77,77,134,244.97167706489563,,,,,,,,,,,,,,,,,,,,,,,,,,,,,,,,,,,,,,,,,,,,,,,,,,,,,,,,,,,,,,,,,,,,,,,,,,,,,,,,,77.2812915875888,106.84875448416665,138.98808208357022,140.9100759977649,185.98009563880655,114.84889400442793,2.1,2.11,-220,286,0,263,224,-289,244.95815634727478,244.95826053619385,244.96138620376587,244.97167706489563,245.13389587402344,245.13389587402344,245.13389587402344,245.13389587402344,245.13389587402344,245.13389587402344,245.13389587402344,246.20398354530334,3,1.2262904644012451,None,,,,,,,,,,,,,,,,,,220,1,2025-03-10_10h57.01.041,comp,2024.2.4,57.864281260174494,2025-03-10 10h57.45.834320 -0400,
78,78,0,filler_square,None,None,None,None,None,None,None,None,None,None,1,1.3517777919769287,None,,,,,0,0,0,0,0,78,78,189,246.22140049934387,,,,,,,,,,,,,,,,,,,,,,,,,,,,,,,,,,,,,,,,,,,,,,,,,,,,,,,,,,,,,,,,,,,,,,,,,,,,,,,,,119.13308699130437,119.13308699130437,108.73503181697309,72.35094893641107,59.696613570268255,71.20181585767654,1.0,1.2,-192,4,0,-11,168,3,246.20604276657104,246.20612788200378,246.2095241546631,246.22140049934387,246.3742961883545,246.3742961883545,246.3742961883545,246.3742961883545,246.3742961883545,246.3742961883545,246.3742961883545,247.57571840286255,1,1.3517777919769287,None,,,,,,,,,,,,,,,,,,220,1,2025-03-10_10h57.01.041,comp,2024.2.4,57.864281260174494,2025-03-10 10h57.45.834320 -0400,
79,79,0,filler_square,None,None,None,None,None,None,None,None,None,None,2,0.7966518402099609,None,,,,,0,0,0,0,0,79,79,193,247.592440366745,,,,,,,,,,,,,,,,,,,,,,,,,,,,,,,,,,,,,,,,,,,,,,,,,,,,,,,,,,,,,,,,,,,,,,,,,,,,,,,,,77.20247172034269,85.51523592423908,157.0821633162312,157.0821633162312,76.96218925128053,122.74108860652737,3.0,3.1,-217,253,0,-12,236,-261,247.57743167877197,247.57751488685608,247.58142066001892,247.592440366745,247.73841547966003,247.73841547966003,247.73841547966003,247.73841547966003,247.73841547966003,247.73841547966003,247.73841547966003,248.4087393283844,2,0.7966518402099609,None,,,,,,,,,,,,,,,,,,220,1,2025-03-10_10h57.01.041,comp,2024.2.4,57.864281260174494,2025-03-10 10h57.45.834320 -0400,
80,80,0,critical,hwd,35.0,2.1,lower,133.0,57.0,57.0,133.0,70.0,70.0,2,1.3072013854980469,None,,,,,0,0,0,0,0,80,80,40,248.4266219139099,,,,,,,,,,,,,,,,,,,,,,,,,,,,,,,,,,,,,,,,,,,,,,,,,,,,,,,,,,,,,,,,,,,,,,,,,,,,,,,,,133.0,57.0,57.0,133.0,70.0,70.0,2.1,2.12,-191,-289,0,-280,198,283,248.4103639125824,248.41044449806213,248.41353464126587,248.4266219139099,248.57232642173767,248.57232642173767,248.57232642173767,248.57232642173767,248.57232642173767,248.57232642173767,248.57232642173767,249.74246859550476,2,1.3072013854980469,None,,,,,,,,,,,,,,,,,,220,1,2025-03-10_10h57.01.041,comp,2024.2.4,57.864281260174494,2025-03-10 10h57.45.834320 -0400,
81,81,0,filler_random,None,None,None,None,None,None,None,None,None,None,1,0.9171202182769775,None,,,,,0,0,0,0,0,81,81,151,249.7612521648407,,,,,,,,,,,,,,,,,,,,,,,,,,,,,,,,,,,,,,,,,,,,,,,,,,,,,,,,,,,,,,,,,,,,,,,,,,,,,,,,,145.21174940011423,158.59548162632439,127.77505986966145,120.60407228138402,69.680667610359,75.78998896369035,3.0,3.1,-236,251,0,18,194,-255,249.74449110031128,249.74457550048828,249.74791359901428,249.7612521648407,249.90625858306885,249.90625858306885,249.90625858306885,249.90625858306885,249.90625858306885,249.90625858306885,249.90625858306885,250.68169260025024,1,0.9171202182769775,None,,,,,,,,,,,,,,,,,,220,1,2025-03-10_10h57.01.041,comp,2024.2.4,57.864281260174494,2025-03-10 10h57.45.834320 -0400,
82,82,0,critical,hdw,20.0,4.0,lower,133.0,57.0,78.0,78.0,57.0,133.0,3,2.4504811763763428,None,,,,,0,0,0,0,0,82,82,118,250.69913959503174,,,,,,,,,,,,,,,,,,,,,,,,,,,,,,,,,,,,,,,,,,,,,,,,,,,,,,,,,,,,,,,,,,,,,,,,,,,,,,,,,133.0,57.0,78.0,78.0,57.0,133.0,4.0,4.1,-164,-287,0,-20,202,-268,250.68316841125488,250.68326997756958,250.68612146377563,250.69913959503174,250.8374195098877,250.8374195098877,250.8374195098877,250.8374195098877,250.8374195098877,250.8374195098877,250.8374195098877,253.15796780586243,3,2.4504811763763428,None,,,,,,,,,,,,,,,,,,220,1,2025-03-10_10h57.01.041,comp,2024.2.4,57.864281260174494,2025-03-10 10h57.45.834320 -0400,
83,83,0,critical,wdh,20.0,4.0,upper,125.0,200.0,141.0,141.0,200.0,125.0,1,1.7757947444915771,None,,,,,0,0,0,0,0,83,83,83,253.17411041259766,,,,,,,,,,,,,,,,,,,,,,,,,,,,,,,,,,,,,,,,,,,,,,,,,,,,,,,,,,,,,,,,,,,,,,,,,,,,,,,,,125.0,200.0,141.0,141.0,200.0,125.0,4.0,4.1,-266,-272,0,-18,229,-260,253.15964531898499,253.15976881980896,253.1632206439972,253.17411041259766,253.32535576820374,253.32535576820374,253.32535576820374,253.32535576820374,253.32535576820374,253.32535576820374,253.32535576820374,254.95791101455688,1,1.7757947444915771,None,,,,,,,,,,,,,,,,,,220,1,2025-03-10_10h57.01.041,comp,2024.2.4,57.864281260174494,2025-03-10 10h57.45.834320 -0400,
84,84,0,filler_random,None,None,None,None,None,None,None,None,None,None,2,1.4229199886322021,None,,,,,0,0,0,0,0,84,84,164,254.9741690158844,,,,,,,,,,,,,,,,,,,,,,,,,,,,,,,,,,,,,,,,,,,,,,,,,,,,,,,,,,,,,,,,,,,,,,,,,,,,,,,,,81.85476340821823,180.83353073967663,129.07891458659384,174.27474675268434,72.17207876646223,129.67053656838192,4.0,4.1,-274,-278,0,14,248,-280,254.95979809761047,254.9599244594574,254.96338295936584,254.9741690158844,255.12415409088135,255.12415409088135,255.12415409088135,255.12415409088135,255.12415409088135,255.12415409088135,255.12415409088135,256.4077858924866,2,1.4229199886322021,None,,,,,,,,,,,,,,,,,,220,1,2025-03-10_10h57.01.041,comp,2024.2.4,57.864281260174494,2025-03-10 10h57.45.834320 -0400,
85,85,0,critical,hdw,35.0,4.0,lower,133.0,57.0,70.0,70.0,57.0,133.0,1,1.8050169944763184,None,,,,,0,0,0,0,0,85,85,112,256.4240770339966,,,,,,,,,,,,,,,,,,,,,,,,,,,,,,,,,,,,,,,,,,,,,,,,,,,,,,,,,,,,,,,,,,,,,,,,,,,,,,,,,133.0,57.0,70.0,70.0,57.0,133.0,4.0,4.1,-160,-263,0,16,198,-273,256.4093861579895,256.4095208644867,256.412965297699,256.4240770339966,256.5735909938812,256.5735909938812,256.5735909938812,256.5735909938812,256.5735909938812,256.5735909938812,256.5735909938812,258.24105048179626,1,1.8050169944763184,None,,,,,,,,,,,,,,,,,,220,1,2025-03-10_10h57.01.041,comp,2024.2.4,57.864281260174494,2025-03-10 10h57.45.834320 -0400,
86,86,0,critical,dwh,20.0,3.0,lower,78.0,78.0,57.0,133.0,133.0,57.0,2,2.5479700565338135,None,,,,,0,0,0,0,0,86,86,68,258.2575309276581,,,,,,,,,,,,,,,,,,,,,,,,,,,,,,,,,,,,,,,,,,,,,,,,,,,,,,,,,,,,,,,,,,,,,,,,,,,,,,,,,78.0,78.0,57.0,133.0,133.0,57.0,3.0,3.2,-202,-287,0,-4,191,263,258.24266505241394,258.24275279045105,258.2460050582886,258.2575309276581,258.41144728660583,258.41144728660583,258.41144728660583,258.41144728660583,258.41144728660583,258.41144728660583,258.41144728660583,260.809654712677,2,2.5479700565338135,None,,,,,,,,,,,,,,,,,,220,1,2025-03-10_10h57.01.041,comp,2024.2.4,57.864281260174494,2025-03-10 10h57.45.834320 -0400,
87,87,0,critical,wdh,35.0,2.1,lower,57.0,133.0,70.0,70.0,133.0,57.0,1,1.3312501907348633,None,,,,,0,0,0,0,0,87,87,8,260.8267045021057,,,,,,,,,,,,,,,,,,,,,,,,,,,,,,,,,,,,,,,,,,,,,,,,,,,,,,,,,,,,,,,,,,,,,,,,,,,,,,,,,57.0,133.0,70.0,70.0,133.0,57.0,2.1,2.12,-198,-258,0,-254,160,257,260.81133008003235,260.8114664554596,260.8156352043152,260.8267045021057,260.9810345172882,260.9810345172882,260.9810345172882,260.9810345172882,260.9810345172882,260.9810345172882,260.9810345172882,262.16024827957153,1,1.3312501907348633,None,,,,,,,,,,,,,,,,,,220,1,2025-03-10_10h57.01.041,comp,2024.2.4,57.864281260174494,2025-03-10 10h57.45.834320 -0400,
88,88,0,critical,dwh,20.0,2.1,upper,141.0,141.0,125.0,200.0,200.0,125.0,2,1.6452813148498535,None,,,,,0,0,0,0,0,88,88,7,262.17661023139954,,,,,,,,,,,,,,,,,,,,,,,,,,,,,,,,,,,,,,,,,,,,,,,,,,,,,,,,,,,,,,,,,,,,,,,,,,,,,,,,,141.0,141.0,125.0,200.0,200.0,125.0,2.1,2.12,-266,-276,0,-272,258,251,262.161780834198,262.1618618965149,262.16552662849426,262.17661023139954,262.32651591300964,262.32651591300964,262.32651591300964,262.32651591300964,262.32651591300964,262.32651591300964,262.32651591300964,263.8270516395569,2,1.6452813148498535,None,,,,,,,,,,,,,,,,,,220,1,2025-03-10_10h57.01.041,comp,2024.2.4,57.864281260174494,2025-03-10 10h57.45.834320 -0400,
89,89,0,filler_random,None,None,None,None,None,None,None,None,None,None,1,1.5139360427856445,None,,,,,0,0,0,0,0,89,89,167,263.8431622982025,,,,,,,,,,,,,,,,,,,,,,,,,,,,,,,,,,,,,,,,,,,,,,,,,,,,,,,,,,,,,,,,,,,,,,,,,,,,,,,,,175.33723178859333,133.34622517880493,69.59317812851614,123.00363328562756,144.09501829770514,133.21231367905324,1.0,1.3,256,-254,480,-265,704,-279,263.82880878448486,263.8288903236389,263.83224868774414,263.8431622982025,263.9904613494873,263.9904613494873,263.9904613494873,263.9904613494873,263.9904613494873,263.9904613494873,263.9904613494873,265.36948561668396,1,1.5139360427856445,None,,,,,,,,,,,,,,,,,,220,1,2025-03-10_10h57.01.041,comp,2024.2.4,57.864281260174494,2025-03-10 10h57.45.834320 -0400,
90,90,0,critical,whd,35.0,4.0,lower,57.0,133.0,133.0,57.0,70.0,70.0,2,1.5291457176208496,None,,,,,0,0,0,0,0,90,90,88,265.3880407810211,,,,,,,,,,,,,,,,,,,,,,,,,,,,,,,,,,,,,,,,,,,,,,,,,,,,,,,,,,,,,,,,,,,,,,,,,,,,,,,,,57.0,133.0,133.0,57.0,70.0,70.0,4.0,4.2,-191,-18,0,-272,160,-2,265.3709945678711,265.37107396125793,265.3739733695984,265.3880407810211,265.52841567993164,265.52841567993164,265.52841567993164,265.52841567993164,265.52841567993164,265.52841567993164,265.52841567993164,266.9333622455597,2,1.5291457176208496,None,,,,,,,,,,,,,,,,,,220,1,2025-03-10_10h57.01.041,comp,2024.2.4,57.864281260174494,2025-03-10 10h57.45.834320 -0400,
91,91,0,filler_random,None,None,None,None,None,None,None,None,None,None,1,1.782879114151001,None,,,,,0,0,0,0,0,91,91,156,266.95118260383606,,,,,,,,,,,,,,,,,,,,,,,,,,,,,,,,,,,,,,,,,,,,,,,,,,,,,,,,,,,,,,,,,,,,,,,,,,,,,,,,,158.36079911219326,197.9366039767537,187.63717198986666,66.09615464302634,144.84317635691724,183.93647301579153,2.1,2.12,-228,-273,0,-270,221,257,266.9351396560669,266.9352903366089,266.9385392665863,266.95118260383606,267.0953154563904,267.0953154563904,267.0953154563904,267.0953154563904,267.0953154563904,267.0953154563904,267.0953154563904,268.7364809513092,1,1.782879114151001,None,,,,,,,,,,,,,,,,,,220,1,2025-03-10_10h57.01.041,comp,2024.2.4,57.864281260174494,2025-03-10 10h57.45.834320 -0400,
92,92,0,critical,wdh,35.0,3.0,upper,125.0,200.0,127.0,127.0,200.0,125.0,3,1.9967873096466064,None,,,,,0,0,0,0,0,92,92,75,268.7525107860565,,,,,,,,,,,,,,,,,,,,,,,,,,,,,,,,,,,,,,,,,,,,,,,,,,,,,,,,,,,,,,,,,,,,,,,,,,,,,,,,,125.0,200.0,127.0,127.0,200.0,125.0,3.0,3.1,-260,284,0,6,222,-277,268.73810863494873,268.73818802833557,268.7415428161621,268.7525107860565,268.8959159851074,268.8959159851074,268.8959159851074,268.8959159851074,268.8959159851074,268.8959159851074,268.8959159851074,270.7704555988312,3,1.9967873096466064,None,,,,,,,,,,,,,,,,,,220,1,2025-03-10_10h57.01.041,comp,2024.2.4,57.864281260174494,2025-03-10 10h57.45.834320 -0400,
93,93,0,critical,hdw,20.0,2.1,lower,133.0,57.0,78.0,78.0,57.0,133.0,1,1.7353019714355469,None,,,,,0,0,0,0,0,93,93,22,270.79049706459045,,,,,,,,,,,,,,,,,,,,,,,,,,,,,,,,,,,,,,,,,,,,,,,,,,,,,,,,,,,,,,,,,,,,,,,,,,,,,,,,,133.0,57.0,78.0,78.0,57.0,133.0,2.1,2.12,-164,-269,0,-276,202,277,270.772034406662,270.77211689949036,270.77546977996826,270.79049706459045,270.92964220046997,270.92964220046997,270.92964220046997,270.92964220046997,270.92964220046997,270.92964220046997,270.92964220046997,272.5450279712677,1,1.7353019714355469,None,,,,,,,,,,,,,,,,,,220,1,2025-03-10_10h57.01.041,comp,2024.2.4,57.864281260174494,2025-03-10 10h57.45.834320 -0400,
94,94,0,filler_random,None,None,None,None,None,None,None,None,None,None,3,1.4192323684692383,None,,,,,0,0,0,0,0,94,94,147,272.5618929862976,,,,,,,,,,,,,,,,,,,,,,,,,,,,,,,,,,,,,,,,,,,,,,,,,,,,,,,,,,,,,,,,,,,,,,,,,,,,,,,,,63.12036829369741,131.99861369484256,58.267837903074096,122.72483762340079,103.1908518983111,141.25375896884208,2.2,2.22,-223,251,0,-274,228,-259,272.5468842983246,272.54699063301086,272.55038928985596,272.5618929862976,272.71290254592896,272.71290254592896,272.71290254592896,272.71290254592896,272.71290254592896,272.71290254592896,272.71290254592896,273.99561524391174,3,1.4192323684692383,None,,,,,,,,,,,,,,,,,,220,1,2025-03-10_10h57.01.041,comp,2024.2.4,57.864281260174494,2025-03-10 10h57.45.834320 -0400,
95,95,0,critical,hwd,35.0,1.0,lower,133.0,57.0,57.0,133.0,70.0,70.0,2,1.745671033859253,None,,,,,0,0,0,0,0,95,95,96,274.0120475292206,,,,,,,,,,,,,,,,,,,,,,,,,,,,,,,,,,,,,,,,,,,,,,,,,,,,,,,,,,,,,,,,,,,,,,,,,,,,,,,,,133.0,57.0,57.0,133.0,70.0,70.0,1.0,1.2,-191,3,0,17,198,16,273.9971685409546,273.9972770214081,274.0005741119385,274.0120475292206,274.1636860370636,274.1636860370636,274.1636860370636,274.1636860370636,274.1636860370636,274.1636860370636,274.1636860370636,275.7626688480377,2,1.745671033859253,None,,,,,,,,,,,,,,,,,,220,1,2025-03-10_10h57.01.041,comp,2024.2.4,57.864281260174494,2025-03-10 10h57.45.834320 -0400,
96,96,0,critical,dwh,20.0,1.0,upper,141.0,141.0,125.0,200.0,200.0,125.0,3,1.7863683700561523,None,,,,,0,0,0,0,0,96,96,67,275.77891540527344,,,,,,,,,,,,,,,,,,,,,,,,,,,,,,,,,,,,,,,,,,,,,,,,,,,,,,,,,,,,,,,,,,,,,,,,,,,,,,,,,141.0,141.0,125.0,200.0,200.0,125.0,1.0,1.3,214,-284,480,-266,738,-274,275.76423168182373,275.76432275772095,275.76741886138916,275.77891540527344,275.9193217754364,275.9193217754364,275.9193217754364,275.9193217754364,275.9193217754364,275.9193217754364,275.9193217754364,277.5864884853363,3,1.7863683700561523,None,,,,,,,,,,,,,,,,,,220,1,2025-03-10_10h57.01.041,comp,2024.2.4,57.864281260174494,2025-03-10 10h57.45.834320 -0400,
97,97,0,critical,hdw,35.0,4.0,upper,200.0,125.0,127.0,127.0,125.0,200.0,3,1.321537971496582,None,,,,,0,0,0,0,0,97,97,113,277.6044147014618,,,,,,,,,,,,,,,,,,,,,,,,,,,,,,,,,,,,,,,,,,,,,,,,,,,,,,,,,,,,,,,,,,,,,,,,,,,,,,,,,200.0,125.0,127.0,127.0,125.0,200.0,4.0,4.1,-222,-265,0,-9,260,-263,277.5884416103363,277.58858013153076,277.5917191505432,277.6044147014618,277.747930765152,277.747930765152,277.747930765152,277.747930765152,277.747930765152,277.747930765152,277.747930765152,278.93207478523254,3,1.321537971496582,None,,,,,,,,,,,,,,,,,,220,1,2025-03-10_10h57.01.041,comp,2024.2.4,57.864281260174494,2025-03-10 10h57.45.834320 -0400,
98,98,0,filler_square,None,None,None,None,None,None,None,None,None,None,2,4.239367961883545,None,,,,,0,0,0,0,0,98,98,177,278.9499225616455,,,,,,,,,,,,,,,,,,,,,,,,,,,,,,,,,,,,,,,,,,,,,,,,,,,,,,,,,,,,,,,,,,,,,,,,,,,,,,,,,147.54270107142338,154.23354249951902,159.61818436521608,159.61818436521608,130.21401745355647,108.9415051362119,2.1,2.12,-253,-263,0,-251,230,257,278.93431854248047,278.9344050884247,278.9380967617035,278.9499225616455,279.09705543518066,279.09705543518066,279.09705543518066,279.09705543518066,279.09705543518066,279.09705543518066,279.09705543518066,283.19173312187195,2,4.239367961883545,None,,,,,,,,,,,,,,,,,,220,1,2025-03-10_10h57.01.041,comp,2024.2.4,57.864281260174494,2025-03-10 10h57.45.834320 -0400,
99,99,0,critical,dhw,35.0,1.0,upper,127.0,127.0,200.0,125.0,125.0,200.0,2,1.5982286930084229,None,,,,,0,0,0,0,0,99,99,49,283.20939111709595,,,,,,,,,,,,,,,,,,,,,,,,,,,,,,,,,,,,,,,,,,,,,,,,,,,,,,,,,,,,,,,,,,,,,,,,,,,,,,,,,127.0,127.0,200.0,125.0,125.0,200.0,1.0,1.1,-702,256,-480,274,-222,275,283.19325065612793,283.1933345794678,283.19623851776123,283.20939111709595,283.3501091003418,283.3501091003418,283.3501091003418,283.3501091003418,283.3501091003418,283.3501091003418,283.3501091003418,284.81846594810486,2,1.5982286930084229,None,,,,,,,,,,,,,,,,,,220,1,2025-03-10_10h57.01.041,comp,2024.2.4,57.864281260174494,2025-03-10 10h57.45.834320 -0400,
100,100,0,filler_random,None,None,None,None,None,None,None,None,None,None,2,1.6349117755889893,None,,,,,0,0,0,0,0,100,100,158,284.83438992500305,,,,,,,,,,,,,,,,,,,,,,,,,,,,,,,,,,,,,,,,,,,,,,,,,,,,,,,,,,,,,,,,,,,,,,,,,,,,,,,,,151.90744824652938,163.86788557152767,182.57346826240646,175.0261201895297,61.238471760902,143.73517901066202,2.2,2.22,-265,290,0,-265,255,-255,284.8203818798065,284.82046484947205,284.8236448764801,284.83438992500305,284.985463142395,284.985463142395,284.985463142395,284.985463142395,284.985463142395,284.985463142395,284.985463142395,286.4874906539917,2,1.6349117755889893,None,,,,,,,,,,,,,,,,,,220,1,2025-03-10_10h57.01.041,comp,2024.2.4,57.864281260174494,2025-03-10 10h57.45.834320 -0400,
101,101,0,critical,dwh,35.0,1.0,upper,127.0,127.0,125.0,200.0,200.0,125.0,3,2.1705074310302734,None,,,,,0,0,0,0,0,101,101,61,286.5074625015259,,,,,,,,,,,,,,,,,,,,,,,,,,,,,,,,,,,,,,,,,,,,,,,,,,,,,,,,,,,,,,,,,,,,,,,,,,,,,,,,,127.0,127.0,125.0,200.0,200.0,125.0,1.0,1.3,220,-252,480,-283,738,-262,286.4891936779022,286.4893515110016,286.49265241622925,286.5074625015259,286.6516361236572,286.6516361236572,286.6516361236572,286.6516361236572,286.6516361236572,286.6516361236572,286.6516361236572,288.68504309654236,3,2.1705074310302734,None,,,,,,,,,,,,,,,,,,220,1,2025-03-10_10h57.01.041,comp,2024.2.4,57.864281260174494,2025-03-10 10h57.45.834320 -0400,
102,102,0,critical,dhw,20.0,2.1,upper,141.0,141.0,200.0,125.0,125.0,200.0,3,1.4328336715698242,None,,,,,0,0,0,0,0,102,102,27,288.7008693218231,,,,,,,,,,,,,,,,,,,,,,,,,,,,,,,,,,,,,,,,,,,,,,,,,,,,,,,,,,,,,,,,,,,,,,,,,,,,,,,,,141.0,141.0,200.0,125.0,125.0,200.0,2.1,2.11,-229,257,0,277,258,-279,288.6865863800049,288.68666648864746,288.6900146007538,288.7008693218231,288.85252380371094,288.85252380371094,288.85252380371094,288.85252380371094,288.85252380371094,288.85252380371094,288.85252380371094,290.1378855705261,3,1.4328336715698242,None,,,,,,,,,,,,,,,,,,220,1,2025-03-10_10h57.01.041,comp,2024.2.4,57.864281260174494,2025-03-10 10h57.45.834320 -0400,
103,103,0,critical,whd,35.0,1.0,lower,57.0,133.0,133.0,57.0,70.0,70.0,2,1.9027843475341797,None,,,,,0,0,0,0,0,103,103,84,290.1583471298218,,,,,,,,,,,,,,,,,,,,,,,,,,,,,,,,,,,,,,,,,,,,,,,,,,,,,,,,,,,,,,,,,,,,,,,,,,,,,,,,,57.0,133.0,133.0,57.0,70.0,70.0,1.0,1.1,-671,268,-480,275,-320,257,290.1396327018738,290.13974165916443,290.1430480480194,290.1583471298218,290.3030376434326,290.3030376434326,290.3030376434326,290.3030376434326,290.3030376434326,290.3030376434326,290.3030376434326,292.07803297042847,2,1.9027843475341797,None,,,,,,,,,,,,,,,,,,220,1,2025-03-10_10h57.01.041,comp,2024.2.4,57.864281260174494,2025-03-10 10h57.45.834320 -0400,
104,104,0,critical,hdw,20.0,2.1,upper,200.0,125.0,141.0,141.0,125.0,200.0,3,2.876286506652832,None,,,,,0,0,0,0,0,104,104,47,292.09802889823914,,,,,,,,,,,,,,,,,,,,,,,,,,,,,,,,,,,,,,,,,,,,,,,,,,,,,,,,,,,,,,,,,,,,,,,,,,,,,,,,,200.0,125.0,141.0,141.0,125.0,200.0,2.1,2.12,-229,-287,0,-257,266,285,292.0796549320221,292.0797448158264,292.08308005332947,292.09802889823914,292.23326349258423,292.23326349258423,292.23326349258423,292.23326349258423,292.23326349258423,292.23326349258423,292.23326349258423,294.97832131385803,3,2.876286506652832,None,,,,,,,,,,,,,,,,,,220,1,2025-03-10_10h57.01.041,comp,2024.2.4,57.864281260174494,2025-03-10 10h57.45.834320 -0400,
105,105,0,critical,dhw,35.0,2.1,upper,127.0,127.0,200.0,125.0,125.0,200.0,3,1.6509501934051514,None,,,,,0,0,0,0,0,105,105,1,294.9943141937256,,,,,,,,,,,,,,,,,,,,,,,,,,,,,,,,,,,,,,,,,,,,,,,,,,,,,,,,,,,,,,,,,,,,,,,,,,,,,,,,,127.0,127.0,200.0,125.0,125.0,200.0,2.1,2.11,-222,289,0,282,258,-267,294.9799008369446,294.9799816608429,294.98335576057434,294.9943141937256,295.1347062587738,295.1347062587738,295.1347062587738,295.1347062587738,295.1347062587738,295.1347062587738,295.1347062587738,296.65843749046326,3,1.6509501934051514,None,,,,,,,,,,,,,,,,,,220,1,2025-03-10_10h57.01.041,comp,2024.2.4,57.864281260174494,2025-03-10 10h57.45.834320 -0400,
106,106,0,catch,None,None,None,None,None,None,None,None,None,None,3,0.8874340057373047,None,,,,,0,0,0,0,0,106,106,120,296.67828035354614,,,,,,,,,,,,,,,,,,,,,,,,,,,,,,,,,,,,,,,,,,,,,,,,,,,,,,,,,,,,,,,,,,,,,,,,,,,,,,,,,128,62,84,106,171,154,4.0,4.2,-180,-13,0,-265,226,10,296.6604194641113,296.66049337387085,296.6633985042572,296.67828035354614,296.82531571388245,296.82531571388245,296.82531571388245,296.82531571388245,296.82531571388245,296.82531571388245,296.82531571388245,297.57427859306335,3,0.8874340057373047,None,,,,,,,,,,,,,,,,,,220,1,2025-03-10_10h57.01.041,comp,2024.2.4,57.864281260174494,2025-03-10 10h57.45.834320 -0400,
107,107,0,critical,dhw,20.0,3.0,lower,78.0,78.0,133.0,57.0,57.0,133.0,2,1.568044662475586,None,,,,,0,0,0,0,0,107,107,56,297.59049367904663,,,,,,,,,,,,,,,,,,,,,,,,,,,,,,,,,,,,,,,,,,,,,,,,,,,,,,,,,,,,,,,,,,,,,,,,,,,,,,,,,78.0,78.0,133.0,57.0,57.0,133.0,3.0,3.1,-164,267,0,8,191,-261,297.57584166526794,297.5759234428406,297.5797846317291,297.59049367904663,297.7400140762329,297.7400140762329,297.7400140762329,297.7400140762329,297.7400140762329,297.7400140762329,297.7400140762329,299.1646502017975,2,1.568044662475586,None,,,,,,,,,,,,,,,,,,220,1,2025-03-10_10h57.01.041,comp,2024.2.4,57.864281260174494,2025-03-10 10h57.45.834320 -0400,
108,108,0,critical,hdw,35.0,3.0,lower,133.0,57.0,70.0,70.0,57.0,133.0,3,2.3195905685424805,None,,,,,0,0,0,0,0,108,108,110,299.18163561820984,,,,,,,,,,,,,,,,,,,,,,,,,,,,,,,,,,,,,,,,,,,,,,,,,,,,,,,,,,,,,,,,,,,,,,,,,,,,,,,,,133.0,57.0,70.0,70.0,57.0,133.0,3.0,3.2,-160,-285,0,-2,198,280,299.1662588119507,299.16635179519653,299.16966104507446,299.18163561820984,299.32224440574646,299.32224440574646,299.32224440574646,299.32224440574646,299.32224440574646,299.32224440574646,299.32224440574646,301.5136082172394,3,2.3195905685424805,None,,,,,,,,,,,,,,,,,,220,1,2025-03-10_10h57.01.041,comp,2024.2.4,57.864281260174494,2025-03-10 10h57.45.834320 -0400,
109,109,0,critical,whd,20.0,2.1,upper,125.0,200.0,200.0,125.0,141.0,141.0,2,2.925199270248413,None,,,,,0,0,0,0,0,109,109,15,301.52904629707336,,,,,,,,,,,,,,,,,,,,,,,,,,,,,,,,,,,,,,,,,,,,,,,,,,,,,,,,,,,,,,,,,,,,,,,,,,,,,,,,,125.0,200.0,200.0,125.0,141.0,141.0,2.1,2.12,-258,-262,0,-256,229,272,301.5151376724243,301.5152566432953,301.5181334018707,301.52904629707336,301.673282623291,301.673282623291,301.673282623291,301.673282623291,301.673282623291,301.673282623291,301.673282623291,304.4599313735962,2,2.925199270248413,None,,,,,,,,,,,,,,,,,,220,1,2025-03-10_10h57.01.041,comp,2024.2.4,57.864281260174494,2025-03-10 10h57.45.834320 -0400,
110,110,0,critical,dhw,35.0,2.1,lower,70.0,70.0,133.0,57.0,57.0,133.0,2,1.495469093322754,None,,,,,0,0,0,0,0,110,110,24,304.4785599708557,,,,,,,,,,,,,,,,,,,,,,,,,,,,,,,,,,,,,,,,,,,,,,,,,,,,,,,,,,,,,,,,,,,,,,,,,,,,,,,,,70.0,70.0,133.0,57.0,57.0,133.0,2.1,2.12,-160,-277,0,-275,191,288,304.46162486076355,304.46170711517334,304.4646112918854,304.4785599708557,304.62202858924866,304.62202858924866,304.62202858924866,304.62202858924866,304.62202858924866,304.62202858924866,304.62202858924866,305.9919149875641,2,1.495469093322754,None,,,,,,,,,,,,,,,,,,220,1,2025-03-10_10h57.01.041,comp,2024.2.4,57.864281260174494,2025-03-10 10h57.45.834320 -0400,
111,111,0,critical,hdw,20.0,4.0,upper,200.0,125.0,141.0,141.0,125.0,200.0,3,1.6615204811096191,None,,,,,0,0,0,0,0,111,111,119,306.00853276252747,,,,,,,,,,,,,,,,,,,,,,,,,,,,,,,,,,,,,,,,,,,,,,,,,,,,,,,,,,,,,,,,,,,,,,,,,,,,,,,,,200.0,125.0,141.0,141.0,125.0,200.0,4.0,4.2,-229,8,0,-272,266,-4,305.99354696273804,305.9936468601227,305.99727988243103,306.00853276252747,306.1566848754883,306.1566848754883,306.1566848754883,306.1566848754883,306.1566848754883,306.1566848754883,306.1566848754883,307.6746711730957,3,1.6615204811096191,None,,,,,,,,,,,,,,,,,,220,1,2025-03-10_10h57.01.041,comp,2024.2.4,57.864281260174494,2025-03-10 10h57.45.834320 -0400,
112,112,0,critical,dhw,35.0,3.0,upper,127.0,127.0,200.0,125.0,125.0,200.0,2,1.721034288406372,None,,,,,0,0,0,0,0,112,112,51,307.6919162273407,,,,,,,,,,,,,,,,,,,,,,,,,,,,,,,,,,,,,,,,,,,,,,,,,,,,,,,,,,,,,,,,,,,,,,,,,,,,,,,,,127.0,127.0,200.0,125.0,125.0,200.0,3.0,3.2,-222,-285,0,18,258,262,307.67639446258545,307.6765275001526,307.6800901889801,307.6919162273407,307.829302072525,307.829302072525,307.829302072525,307.829302072525,307.829302072525,307.829302072525,307.829302072525,309.42551445961,2,1.721034288406372,None,,,,,,,,,,,,,,,,,,220,1,2025-03-10_10h57.01.041,comp,2024.2.4,57.864281260174494,2025-03-10 10h57.45.834320 -0400,
113,113,0,catch,None,None,None,None,None,None,None,None,None,None,3,1.1254425048828125,None,,,,,0,0,0,0,0,113,113,122,309.4406681060791,,,,,,,,,,,,,,,,,,,,,,,,,,,,,,,,,,,,,,,,,,,,,,,,,,,,,,,,,,,,,,,,,,,,,,,,,,,,,,,,,125,65,92,98,173,152,3.0,3.2,-178,-264,0,2,221,252,309.42704677581787,309.42711210250854,309.42971754074097,309.4406681060791,309.59633445739746,309.59633445739746,309.59633445739746,309.59633445739746,309.59633445739746,309.59633445739746,309.59633445739746,310.5769422054291,3,1.1254425048828125,None,,,,,,,,,,,,,,,,,,220,1,2025-03-10_10h57.01.041,comp,2024.2.4,57.864281260174494,2025-03-10 10h57.45.834320 -0400,
114,114,0,critical,dwh,35.0,2.1,upper,127.0,127.0,125.0,200.0,200.0,125.0,2,1.7972357273101807,None,,,,,0,0,0,0,0,114,114,29,310.5923538208008,,,,,,,,,,,,,,,,,,,,,,,,,,,,,,,,,,,,,,,,,,,,,,,,,,,,,,,,,,,,,,,,,,,,,,,,,,,,,,,,,127.0,127.0,125.0,200.0,200.0,125.0,2.1,2.12,-260,-266,0,-272,258,254,310.5785870552063,310.578670501709,310.5817496776581,310.5923538208008,310.7422606945038,310.7422606945038,310.7422606945038,310.7422606945038,310.7422606945038,310.7422606945038,310.7422606945038,312.3917317390442,2,1.7972357273101807,None,,,,,,,,,,,,,,,,,,220,1,2025-03-10_10h57.01.041,comp,2024.2.4,57.864281260174494,2025-03-10 10h57.45.834320 -0400,
115,115,0,critical,dwh,35.0,4.0,lower,70.0,70.0,57.0,133.0,133.0,57.0,2,2.3329920768737793,None,,,,,0,0,0,0,0,115,115,64,312.40814661979675,,,,,,,,,,,,,,,,,,,,,,,,,,,,,,,,,,,,,,,,,,,,,,,,,,,,,,,,,,,,,,,,,,,,,,,,,,,,,,,,,70.0,70.0,57.0,133.0,133.0,57.0,4.0,4.1,-198,-255,0,13,191,-286,312.3934564590454,312.3935387134552,312.3968424797058,312.40814661979675,312.5625834465027,312.5625834465027,312.5625834465027,312.5625834465027,312.5625834465027,312.5625834465027,312.5625834465027,314.75062108039856,2,2.3329920768737793,None,,,,,,,,,,,,,,,,,,220,1,2025-03-10_10h57.01.041,comp,2024.2.4,57.864281260174494,2025-03-10 10h57.45.834320 -0400,
116,116,0,filler_random,None,None,None,None,None,None,None,None,None,None,1,1.8546371459960938,None,,,,,0,0,0,0,0,116,116,141,314.76730513572693,,,,,,,,,,,,,,,,,,,,,,,,,,,,,,,,,,,,,,,,,,,,,,,,,,,,,,,,,,,,,,,,,,,,,,,,,,,,,,,,,198.10464519513658,188.76249101101118,81.68260990281414,118.84842959970075,115.70066242406368,62.56213147112276,4.0,4.1,-250,-263,0,-18,187,-251,314.75279211997986,314.75287890434265,314.7562749385834,314.76730513572693,314.9070506095886,314.9070506095886,314.9070506095886,314.9070506095886,314.9070506095886,314.9070506095886,314.9070506095886,316.62684965133667,1,1.8546371459960938,None,,,,,,,,,,,,,,,,,,220,1,2025-03-10_10h57.01.041,comp,2024.2.4,57.864281260174494,2025-03-10 10h57.45.834320 -0400,
117,117,0,critical,dwh,20.0,1.0,lower,78.0,78.0,57.0,133.0,133.0,57.0,3,3.4347753524780273,None,,,,,0,0,0,0,0,117,117,66,316.6428294181824,,,,,,,,,,,,,,,,,,,,,,,,,,,,,,,,,,,,,,,,,,,,,,,,,,,,,,,,,,,,,,,,,,,,,,,,,,,,,,,,,78.0,78.0,57.0,133.0,133.0,57.0,1.0,1.3,278,-261,480,-265,671,-273,316.62840270996094,316.62848138809204,316.63198018074036,316.6428294181824,316.795077085495,316.795077085495,316.795077085495,316.795077085495,316.795077085495,316.795077085495,316.795077085495,320.08130502700806,3,3.4347753524780273,None,,,,,,,,,,,,,,,,,,220,1,2025-03-10_10h57.01.041,comp,2024.2.4,57.864281260174494,2025-03-10 10h57.45.834320 -0400,
118,118,0,filler_random,None,None,None,None,None,None,None,None,None,None,2,2.058119297027588,None,,,,,0,0,0,0,0,118,118,155,320.09993982315063,,,,,,,,,,,,,,,,,,,,,,,,,,,,,,,,,,,,,,,,,,,,,,,,,,,,,,,,,,,,,,,,,,,,,,,,,,,,,,,,,126.52094641298856,128.6415518690161,199.17940672188942,72.43028255663577,128.15247444176754,158.43193839910674,1.0,1.1,-677,283,-480,271,-269,254,320.08327054977417,320.0833568572998,320.0866129398346,320.09993982315063,320.2441518306732,320.2441518306732,320.2441518306732,320.2441518306732,320.2441518306732,320.2441518306732,320.2441518306732,322.16206789016724,2,2.058119297027588,None,,,,,,,,,,,,,,,,,,220,1,2025-03-10_10h57.01.041,comp,2024.2.4,57.864281260174494,2025-03-10 10h57.45.834320 -0400,
119,119,0,critical,whd,20.0,2.1,upper,125.0,200.0,200.0,125.0,141.0,141.0,1,2.7406466007232666,None,,,,,0,0,0,0,0,119,119,39,322.17654275894165,,,,,,,,,,,,,,,,,,,,,,,,,,,,,,,,,,,,,,,,,,,,,,,,,,,,,,,,,,,,,,,,,,,,,,,,,,,,,,,,,125.0,200.0,200.0,125.0,141.0,141.0,2.1,2.12,-258,-258,0,-274,229,257,322.16368198394775,322.1637644767761,322.1669671535492,322.17654275894165,322.3158118724823,322.3158118724823,322.3158118724823,322.3158118724823,322.3158118724823,322.3158118724823,322.3158118724823,324.9287645816803,1,2.7406466007232666,None,,,,,,,,,,,,,,,,,,220,1,2025-03-10_10h57.01.041,comp,2024.2.4,57.864281260174494,2025-03-10 10h57.45.834320 -0400,
120,120,0,critical,hdw,20.0,1.0,upper,200.0,125.0,141.0,141.0,125.0,200.0,1,1.7947394847869873,None,,,,,0,0,0,0,0,120,120,115,324.94711685180664,,,,,,,,,,,,,,,,,,,,,,,,,,,,,,,,,,,,,,,,,,,,,,,,,,,,,,,,,,,,,,,,,,,,,,,,,,,,,,,,,200.0,125.0,141.0,141.0,125.0,200.0,1.0,1.1,-709,257,-480,262,-214,258,324.9304311275482,324.93055629730225,324.93389654159546,324.94711685180664,325.0967013835907,325.0967013835907,325.0967013835907,325.0967013835907,325.0967013835907,325.0967013835907,325.0967013835907,326.7468502521515,1,1.7947394847869873,None,,,,,,,,,,,,,,,,,,220,1,2025-03-10_10h57.01.041,comp,2024.2.4,57.864281260174494,2025-03-10 10h57.45.834320 -0400,
121,121,0,critical,wdh,20.0,2.1,lower,57.0,133.0,78.0,78.0,133.0,57.0,2,1.9853565692901611,None,,,,,0,0,0,0,0,121,121,34,326.7639627456665,,,,,,,,,,,,,,,,,,,,,,,,,,,,,,,,,,,,,,,,,,,,,,,,,,,,,,,,,,,,,,,,,,,,,,,,,,,,,,,,,57.0,133.0,78.0,78.0,133.0,57.0,2.1,2.12,-202,-290,0,-251,164,251,326.74858474731445,326.7487199306488,326.7529318332672,326.7639627456665,326.91102480888367,326.91102480888367,326.91102480888367,326.91102480888367,326.91102480888367,326.91102480888367,326.91102480888367,328.763783454895,2,1.9853565692901611,None,,,,,,,,,,,,,,,,,,220,1,2025-03-10_10h57.01.041,comp,2024.2.4,57.864281260174494,2025-03-10 10h57.45.834320 -0400,
122,122,0,critical,dhw,35.0,4.0,upper,127.0,127.0,200.0,125.0,125.0,200.0,2,2.026420831680298,None,,,,,0,0,0,0,0,122,122,53,328.7791373729706,,,,,,,,,,,,,,,,,,,,,,,,,,,,,,,,,,,,,,,,,,,,,,,,,,,,,,,,,,,,,,,,,,,,,,,,,,,,,,,,,127.0,127.0,200.0,125.0,125.0,200.0,4.0,4.1,-222,-279,0,19,258,-265,328.76539492607117,328.76547598838806,328.7688603401184,328.7791373729706,328.93358182907104,328.93358182907104,328.93358182907104,328.93358182907104,328.93358182907104,328.93358182907104,328.93358182907104,330.8195562362671,2,2.026420831680298,None,,,,,,,,,,,,,,,,,,220,1,2025-03-10_10h57.01.041,comp,2024.2.4,57.864281260174494,2025-03-10 10h57.45.834320 -0400,
123,123,0,critical,hwd,35.0,4.0,lower,133.0,57.0,57.0,133.0,70.0,70.0,1,1.6182098388671875,None,,,,,0,0,0,0,0,123,123,100,330.83522629737854,,,,,,,,,,,,,,,,,,,,,,,,,,,,,,,,,,,,,,,,,,,,,,,,,,,,,,,,,,,,,,,,,,,,,,,,,,,,,,,,,133.0,57.0,57.0,133.0,70.0,70.0,4.0,4.1,-191,-261,0,4,198,-278,330.8211407661438,330.8212642669678,330.82480359077454,330.83522629737854,330.9792733192444,330.9792733192444,330.9792733192444,330.9792733192444,330.9792733192444,330.9792733192444,330.9792733192444,332.465758562088,1,1.6182098388671875,None,,,,,,,,,,,,,,,,,,220,1,2025-03-10_10h57.01.041,comp,2024.2.4,57.864281260174494,2025-03-10 10h57.45.834320 -0400,
124,124,0,critical,wdh,35.0,1.0,lower,57.0,133.0,70.0,70.0,133.0,57.0,3,2.160489320755005,None,,,,,0,0,0,0,0,124,124,72,332.48544478416443,,,,,,,,,,,,,,,,,,,,,,,,,,,,,,,,,,,,,,,,,,,,,,,,,,,,,,,,,,,,,,,,,,,,,,,,,,,,,,,,,57.0,133.0,70.0,70.0,133.0,57.0,1.0,1.1,-678,270,-480,281,-320,280,332.46733808517456,332.46742129325867,332.47049140930176,332.48544478416443,332.6276409626007,332.6276409626007,332.6276409626007,332.6276409626007,332.6276409626007,332.6276409626007,332.6276409626007,334.65449118614197,3,2.160489320755005,None,,,,,,,,,,,,,,,,,,220,1,2025-03-10_10h57.01.041,comp,2024.2.4,57.864281260174494,2025-03-10 10h57.45.834320 -0400,
125,125,0,critical,dwh,35.0,3.0,lower,70.0,70.0,57.0,133.0,133.0,57.0,3,1.4353444576263428,None,,,,,0,0,0,0,0,125,125,62,334.6743848323822,,,,,,,,,,,,,,,,,,,,,,,,,,,,,,,,,,,,,,,,,,,,,,,,,,,,,,,,,,,,,,,,,,,,,,,,,,,,,,,,,70.0,70.0,57.0,133.0,133.0,57.0,3.0,3.2,-198,-273,0,-6,191,257,334.6559987068176,334.65607833862305,334.6590087413788,334.6743848323822,334.81606674194336,334.81606674194336,334.81606674194336,334.81606674194336,334.81606674194336,334.81606674194336,334.81606674194336,336.117778301239,3,1.4353444576263428,None,,,,,,,,,,,,,,,,,,220,1,2025-03-10_10h57.01.041,comp,2024.2.4,57.864281260174494,2025-03-10 10h57.45.834320 -0400,
126,126,0,catch,None,None,None,None,None,None,None,None,None,None,2,1.1915783882141113,None,,,,,0,0,0,0,0,126,126,121,336.13579511642456,,,,,,,,,,,,,,,,,,,,,,,,,,,,,,,,,,,,,,,,,,,,,,,,,,,,,,,,,,,,,,,,,,,,,,,,,,,,,,,,,97,93,192,133,133,57,2.1,2.12,-209,-286,0,-266,191,264,336.11981105804443,336.1198933124542,336.1230208873749,336.13579511642456,336.2828359603882,336.2828359603882,336.2828359603882,336.2828359603882,336.2828359603882,336.2828359603882,336.2828359603882,337.3338873386383,2,1.1915783882141113,None,,,,,,,,,,,,,,,,,,220,1,2025-03-10_10h57.01.041,comp,2024.2.4,57.864281260174494,2025-03-10 10h57.45.834320 -0400,
127,127,0,filler_square,None,None,None,None,None,None,None,None,None,None,2,1.0301010608673096,None,,,,,0,0,0,0,0,127,127,187,337.3519322872162,,,,,,,,,,,,,,,,,,,,,,,,,,,,,,,,,,,,,,,,,,,,,,,,,,,,,,,,,,,,,,,,,,,,,,,,,,,,,,,,,124.90527418348768,99.89759767122618,188.45650203090443,188.45650203090443,67.98718970833345,129.970058159988,1.0,1.3,240,-271,480,-255,735,-264,337.3356900215149,337.33576798439026,337.33885979652405,337.3519322872162,337.4994122982025,337.4994122982025,337.4994122982025,337.4994122982025,337.4994122982025,337.4994122982025,337.4994122982025,338.3862771987915,2,1.0301010608673096,None,,,,,,,,,,,,,,,,,,220,1,2025-03-10_10h57.01.041,comp,2024.2.4,57.864281260174494,2025-03-10 10h57.45.834320 -0400,
128,128,0,critical,hdw,35.0,2.1,lower,133.0,57.0,70.0,70.0,57.0,133.0,1,3.0828726291656494,None,,,,,0,0,0,0,0,128,128,44,338.4028465747833,,,,,,,,,,,,,,,,,,,,,,,,,,,,,,,,,,,,,,,,,,,,,,,,,,,,,,,,,,,,,,,,,,,,,,,,,,,,,,,,,133.0,57.0,70.0,70.0,57.0,133.0,2.1,2.12,-160,-255,0,-251,198,261,338.38813400268555,338.3882555961609,338.39213347435,338.4028465747833,338.5572679042816,338.5572679042816,338.5572679042816,338.5572679042816,338.5572679042816,338.5572679042816,338.5572679042816,341.50055503845215,1,3.0828726291656494,None,,,,,,,,,,,,,,,,,,220,1,2025-03-10_10h57.01.041,comp,2024.2.4,57.864281260174494,2025-03-10 10h57.45.834320 -0400,
129,129,0,filler_random,None,None,None,None,None,None,None,None,None,None,2,2.0938777923583984,None,,,,,0,0,0,0,0,129,129,136,341.52009081840515,,,,,,,,,,,,,,,,,,,,,,,,,,,,,,,,,,,,,,,,,,,,,,,,,,,,,,,,,,,,,,,,,,,,,,,,,,,,,,,,,166.22182346582957,68.41367479871155,184.4038374832474,73.9398619850787,86.18772997167918,144.74086584780537,2.1,2.11,-167,274,0,288,205,-265,341.5022625923157,341.5023407936096,341.5053644180298,341.52009081840515,341.66843032836914,341.66843032836914,341.66843032836914,341.66843032836914,341.66843032836914,341.66843032836914,341.66843032836914,343.61968874931335,2,2.0938777923583984,None,,,,,,,,,,,,,,,,,,220,1,2025-03-10_10h57.01.041,comp,2024.2.4,57.864281260174494,2025-03-10 10h57.45.834320 -0400,
130,130,0,critical,dhw,35.0,4.0,lower,70.0,70.0,133.0,57.0,57.0,133.0,3,1.6958296298980713,None,,,,,0,0,0,0,0,130,130,52,343.637987613678,,,,,,,,,,,,,,,,,,,,,,,,,,,,,,,,,,,,,,,,,,,,,,,,,,,,,,,,,,,,,,,,,,,,,,,,,,,,,,,,,70.0,70.0,133.0,57.0,57.0,133.0,4.0,4.2,-160,15,0,-252,191,-20,343.6214225292206,343.6215102672577,343.62493872642517,343.637987613678,343.7886562347412,343.7886562347412,343.7886562347412,343.7886562347412,343.7886562347412,343.7886562347412,343.7886562347412,345.3417139053345,3,1.6958296298980713,None,,,,,,,,,,,,,,,,,,220,1,2025-03-10_10h57.01.041,comp,2024.2.4,57.864281260174494,2025-03-10 10h57.45.834320 -0400,
131,131,0,critical,wdh,35.0,2.1,upper,125.0,200.0,127.0,127.0,200.0,125.0,1,1.5260019302368164,None,,,,,0,0,0,0,0,131,131,9,345.3598382472992,,,,,,,,,,,,,,,,,,,,,,,,,,,,,,,,,,,,,,,,,,,,,,,,,,,,,,,,,,,,,,,,,,,,,,,,,,,,,,,,,125.0,200.0,127.0,127.0,200.0,125.0,2.1,2.11,-260,287,0,269,222,-252,345.343252658844,345.34333539009094,345.3462641239166,345.3598382472992,345.5020213127136,345.5020213127136,345.5020213127136,345.5020213127136,345.5020213127136,345.5020213127136,345.5020213127136,346.890647649765,1,1.5260019302368164,None,,,,,,,,,,,,,,,,,,220,1,2025-03-10_10h57.01.041,comp,2024.2.4,57.864281260174494,2025-03-10 10h57.45.834320 -0400,
132,132,0,critical,hdw,20.0,3.0,lower,133.0,57.0,78.0,78.0,57.0,133.0,3,2.590529441833496,None,,,,,0,0,0,0,0,132,132,116,346.91067361831665,,,,,,,,,,,,,,,,,,,,,,,,,,,,,,,,,,,,,,,,,,,,,,,,,,,,,,,,,,,,,,,,,,,,,,,,,,,,,,,,,133.0,57.0,78.0,78.0,57.0,133.0,3.0,3.2,-164,-272,0,6,202,266,346.8923292160034,346.8924629688263,346.8957345485687,346.91067361831665,347.0541031360626,347.0541031360626,347.0541031360626,347.0541031360626,347.0541031360626,347.0541031360626,347.0541031360626,349.5043067932129,3,2.590529441833496,None,,,,,,,,,,,,,,,,,,220,1,2025-03-10_10h57.01.041,comp,2024.2.4,57.864281260174494,2025-03-10 10h57.45.834320 -0400,
133,133,0,critical,hwd,20.0,3.0,upper,200.0,125.0,125.0,200.0,141.0,141.0,1,1.99589204788208,None,,,,,0,0,0,0,0,133,133,105,349.52083945274353,,,,,,,,,,,,,,,,,,,,,,,,,,,,,,,,,,,,,,,,,,,,,,,,,,,,,,,,,,,,,,,,,,,,,,,,,,,,,,,,,200.0,125.0,125.0,200.0,141.0,141.0,3.0,3.2,-258,-285,0,1,266,260,349.50599908828735,349.5060815811157,349.5098829269409,349.52083945274353,349.67240476608276,349.67240476608276,349.67240476608276,349.67240476608276,349.67240476608276,349.67240476608276,349.67240476608276,351.51969718933105,1,1.99589204788208,None,,,,,,,,,,,,,,,,,,220,1,2025-03-10_10h57.01.041,comp,2024.2.4,57.864281260174494,2025-03-10 10h57.45.834320 -0400,
134,134,0,filler_square,None,None,None,None,None,None,None,None,None,None,1,1.037444829940796,None,,,,,0,0,0,0,0,134,134,182,351.5359094142914,,,,,,,,,,,,,,,,,,,,,,,,,,,,,,,,,,,,,,,,,,,,,,,,,,,,,,,,,,,,,,,,,,,,,,,,,,,,,,,,,133.9982678197037,133.9982678197037,64.70527613016355,88.66106558327928,81.28445622129017,131.90472032926496,2.2,2.22,-207,262,0,-258,206,-288,351.52017545700073,351.52019357681274,351.5209937095642,351.5359094142914,351.66956400871277,351.66956400871277,351.66956400871277,351.66956400871277,351.66956400871277,351.66956400871277,351.66956400871277,352.5881402492523,1,1.037444829940796,None,,,,,,,,,,,,,,,,,,220,1,2025-03-10_10h57.01.041,comp,2024.2.4,57.864281260174494,2025-03-10 10h57.45.834320 -0400,
135,135,0,critical,hdw,20.0,2.1,upper,200.0,125.0,141.0,141.0,125.0,200.0,3,1.4652860164642334,None,,,,,0,0,0,0,0,135,135,23,352.6039226055145,,,,,,,,,,,,,,,,,,,,,,,,,,,,,,,,,,,,,,,,,,,,,,,,,,,,,,,,,,,,,,,,,,,,,,,,,,,,,,,,,200.0,125.0,141.0,141.0,125.0,200.0,2.1,2.12,-229,-258,0,-274,266,287,352.58972907066345,352.5898060798645,352.59357023239136,352.6039226055145,352.758780002594,352.758780002594,352.758780002594,352.758780002594,352.758780002594,352.758780002594,352.758780002594,354.07293725013733,3,1.4652860164642334,None,,,,,,,,,,,,,,,,,,220,1,2025-03-10_10h57.01.041,comp,2024.2.4,57.864281260174494,2025-03-10 10h57.45.834320 -0400,
136,136,0,critical,whd,20.0,3.0,lower,57.0,133.0,133.0,57.0,78.0,78.0,2,2.4204416275024414,None,,,,,0,0,0,0,0,136,136,92,354.08903336524963,,,,,,,,,,,,,,,,,,,,,,,,,,,,,,,,,,,,,,,,,,,,,,,,,,,,,,,,,,,,,,,,,,,,,,,,,,,,,,,,,57.0,133.0,133.0,57.0,78.0,78.0,3.0,3.2,-191,-254,0,8,164,287,354.0745372772217,354.0746147632599,354.0781319141388,354.08903336524963,354.242303609848,354.242303609848,354.242303609848,354.242303609848,354.242303609848,354.242303609848,354.242303609848,356.52459144592285,2,2.4204416275024414,None,,,,,,,,,,,,,,,,,,220,1,2025-03-10_10h57.01.041,comp,2024.2.4,57.864281260174494,2025-03-10 10h57.45.834320 -0400,
137,137,0,filler_random,None,None,None,None,None,None,None,None,None,None,2,1.1893324851989746,None,,,,,0,0,0,0,0,137,137,135,356.54463815689087,,,,,,,,,,,,,,,,,,,,,,,,,,,,,,,,,,,,,,,,,,,,,,,,,,,,,,,,,,,,,,,,,,,,,,,,,,,,,,,,,194.09175004039616,95.48106045246269,114.98497315637908,197.6831062419561,128.6412665917562,81.48399900442989,2.1,2.12,-243,-260,0,-273,236,280,356.5265443325043,356.5266532897949,356.5301067829132,356.54463815689087,356.6872317790985,356.6872317790985,356.6872317790985,356.6872317790985,356.6872317790985,356.6872317790985,356.6872317790985,357.74030804634094,2,1.1893324851989746,None,,,,,,,,,,,,,,,,,,220,1,2025-03-10_10h57.01.041,comp,2024.2.4,57.864281260174494,2025-03-10 10h57.45.834320 -0400,
138,138,0,critical,hwd,35.0,2.1,lower,133.0,57.0,57.0,133.0,70.0,70.0,2,1.4164109230041504,None,,,,,0,0,0,0,0,138,138,16,357.7569622993469,,,,,,,,,,,,,,,,,,,,,,,,,,,,,,,,,,,,,,,,,,,,,,,,,,,,,,,,,,,,,,,,,,,,,,,,,,,,,,,,,133.0,57.0,57.0,133.0,70.0,70.0,2.1,2.11,-191,250,0,281,198,-267,357.74177980422974,357.74185967445374,357.746009349823,357.7569622993469,357.9134159088135,357.9134159088135,357.9134159088135,357.9134159088135,357.9134159088135,357.9134159088135,357.9134159088135,359.19090247154236,2,1.4164109230041504,None,,,,,,,,,,,,,,,,,,220,1,2025-03-10_10h57.01.041,comp,2024.2.4,57.864281260174494,2025-03-10 10h57.45.834320 -0400,
139,139,0,filler_square,None,None,None,None,None,None,None,None,None,None,2,1.8152706623077393,None,,,,,0,0,0,0,0,139,139,185,359.20673060417175,,,,,,,,,,,,,,,,,,,,,,,,,,,,,,,,,,,,,,,,,,,,,,,,,,,,,,,,,,,,,,,,,,,,,,,,,,,,,,,,,58.48092387984252,63.81110872581131,83.46131015054692,65.68925721890871,86.23366167533823,86.23366167533823,2.2,2.21,-161,-252,0,279,172,277,359.1927342414856,359.19281125068665,359.1958558559418,359.20673060417175,359.3533639907837,359.3533639907837,359.3533639907837,359.3533639907837,359.3533639907837,359.3533639907837,359.3533639907837,361.0289866924286,2,1.8152706623077393,None,,,,,,,,,,,,,,,,,,220,1,2025-03-10_10h57.01.041,comp,2024.2.4,57.864281260174494,2025-03-10 10h57.45.834320 -0400,
