thisN,thisTrialN,thisRepN,effect,order,distance,config,diag,h_1,w_1,h_2,w_2,h_3,w_3,rect_choice.keys,rect_choice.rt,rect_choice.duration,instructions_loop.thisRepN,instructions_loop.thisTrialN,instructions_loop.thisN,instructions_loop.thisIndex,blocks.thisRepN,blocks.thisTrialN,blocks.thisN,blocks.thisIndex,trials.thisRepN,trials.thisTrialN,trials.thisN,trials.thisIndex,thisRow.t,notes,consent.started,agree_button.started,decline_button.started,consent_img.started,mouse.started,consent.stopped,agree_button.numClicks,agree_button.timesOn,agree_button.timesOff,decline_button.numClicks,decline_button.timesOn,decline_button.timesOff,mouse.x,mouse.y,mouse.leftButton,mouse.midButton,mouse.rightButton,mouse.time,mouse.clicked_name,exp_params.started,exp_params.stopped,welcome.started,welcome_text.started,welcome_text.stopped,welcome.stopped,instructions_1.started,instructions_1_text_1.started,instructions_1_text_2.started,key_resp.started,instructions_1.stopped,instructions_loop.key_resp.keys,instructions_loop.key_resp.rt,instructions_loop.key_resp.duration,instructions_2.started,instructions_2_text_1.started,instructions_2_text_2.started,key_resp_2.started,instructions_2.stopped,instructions_loop.key_resp_2.keys,instructions_loop.key_resp_2.rt,instructions_loop.key_resp_2.duration,instructions_3.started,instructions_3_text_1.started,r1_instr3.started,r2_instr3.started,r3_instr3.started,r1_instr3_label.started,r2_instr3_label.started,r3_instr3_label.started,instructions_3_text_3.started,instructions_3_text_4.started,key_resp_3.started,instructions_3.stopped,instructions_loop.key_resp_3.keys,instructions_loop.key_resp_3.rt,instructions_loop.key_resp_3.duration,instructions_4.started,instructions_4_text_1.started,instructions_4_text_3.started,instructions_4_text_2.started,key_resp_4.started,instructions_4.stopped,instructions_loop.key_resp_4.keys,instructions_loop.key_resp_4.rt,instructions_loop.key_resp_4.duration,instructions_5.started,instructions_5_text_1.started,instructions_5_text_2.started,key_resp_5.started,instructions_5.stopped,instructions_loop.key_resp_5.keys,instructions_loop.key_resp_5.rt,instructions_loop.key_resp_5.duration,start_exp.started,start_exp_text.started,key_resp_6.started,start_exp.stopped,key_resp_6.keys,key_resp_6.rt,key_resp_6.duration,h_1_tmp,w_1_tmp,h_2_tmp,w_2_tmp,h_3_tmp,w_3_tmp,config_tmp,config_tmp_1,r_1_x,r_1_y,r_2_x,r_2_y,r_3_x,r_3_y,pre_trial.started,pre_trial.stopped,choice_trial.started,rect_choice.started,r_1.started,r_2.started,r_3.started,r_1_label.started,r_2_label.started,r_3_label.started,prompt.started,choice_trial.stopped,trials.rect_choice.keys,trials.rect_choice.rt,trials.rect_choice.duration,end_block.started,end_block_text.started,end_block.stopped,end.started,end_text.started,key_resp_7.started,end.stopped,key_resp_7.keys,key_resp_7.rt,key_resp_7.duration,debriefing.started,debrief_form.started,end_debrief.started,debriefing.stopped,end_debrief.keys,end_debrief.rt,end_debrief.duration,participant,computer,date,expName,psychopyVersion,frameRate,expStart,
,,,,,,,,,,,,,,,,,,,,,,,,,,,,,,,0.015911102294921875,0.04216957092285156,0.04216957092285156,0.04216957092285156,0.015417098999023438,39.39829921722412,1,[39.354957818984985],[39.354968786239624],0,,,[-118.0],[-540.0],[1],[0],[0],[39.38184881210327],['agree_button'],,,,,,,,,,,,,,,,,,,,,,,,,,,,,,,,,,,,,,,,,,,,,,,,,,,,,,,,,,,,,,,,,,,,,,,,,,,,,,,,,,,,,,,,,,,,,,,,,,,,,,,,,,,,221,3,2025-03-10_10h56.38.326,comp,2024.2.4,60.09720311783585,2025-03-10 10h57.11.725538 -0400,
,,,,,,,,,,,,,,,,,,,,,,,,,,,,,,,,,,,,,,,,,,,,,,,,,,39.39854621887207,39.39857769012451,,,,,,,,,,,,,,,,,,,,,,,,,,,,,,,,,,,,,,,,,,,,,,,,,,,,,,,,,,,,,,,,,,,,,,,,,,,,,,,,,,,,,,,,,,,,,,,,,,,,,,,,,,221,3,2025-03-10_10h56.38.326,comp,2024.2.4,60.09720311783585,2025-03-10 10h57.11.725538 -0400,
,,,,,,,,,,,,,,,,,,,,,,,,,,,,,,,,,,,,,,,,,,,,,,,,,,,,39.398598432540894,39.41178846359253,41.41538166999817,41.39867687225342,,,,,,,,,,,,,,,,,,,,,,,,,,,,,,,,,,,,,,,,,,,,,,,,,,,,,,,,,,,,,,,,,,,,,,,,,,,,,,,,,,,,,,,,,,,,,,,,,,,,,,221,3,2025-03-10_10h56.38.326,comp,2024.2.4,60.09720311783585,2025-03-10 10h57.11.725538 -0400,
0,0,0,,,,,,,,,,,,,,,0,0,0,0,,,,,,,,,41.41538166999817,,,,,,,,,,,,,,,,,,,,,,,,,,,41.399221658706665,41.41538166999817,41.41538166999817,42.898590087890625,44.53333044052124,space,1.6169886589050293,None,44.53341007232666,44.5487425327301,44.5487425327301,46.048622369766235,49.71643424034119,space,3.6503493785858154,None,49.71651768684387,49.738131046295166,49.738131046295166,49.738131046295166,49.738131046295166,49.738131046295166,49.738131046295166,49.738131046295166,49.738131046295166,49.738131046295166,51.21567893028259,58.766870975494385,space,7.538100004196167,None,58.766955852508545,58.78217029571533,58.78217029571533,58.78217029571533,60.28187322616577,63.48336887359619,space,3.192772150039673,None,63.48345184326172,63.498794078826904,63.498794078826904,64.99840044975281,65.83339500427246,space,0.8193995952606201,None,65.83350563049316,65.84890079498291,65.84890079498291,67.09942770004272,space,1.2333862781524658,None,,,,,,,,,,,,,,,,,,,,,,,,,,,,,,,,,,,,,,,,,,,,,,,221,3,2025-03-10_10h56.38.326,comp,2024.2.4,60.09720311783585,2025-03-10 10h57.11.725538 -0400,
0,0,0,critical,wdh,35.0,2.1,lower,57.0,133.0,70.0,70.0,133.0,57.0,1,11.667840719223022,None,,,,,0,0,0,0,0,0,0,32,67.15879511833191,,,,,,,,,,,,,,,,,,,,,,,,,,,,,,,,,,,,,,,,,,,,,,,,,,,,,,,,,,,,,,,,,,,,,,,,,,,,,,,,,,57.0,133.0,70.0,70.0,133.0,57.0,2.1,2.11,-198,284,0,259,160,-272,67.14541578292847,67.14545917510986,67.14741468429565,67.15879511833191,67.30521130561829,67.30521130561829,67.30521130561829,67.30521130561829,67.30521130561829,67.30521130561829,67.30521130561829,78.83280229568481,1,11.667840719223022,None,,,,,,,,,,,,,,,,,,221,3,2025-03-10_10h56.38.326,comp,2024.2.4,60.09720311783585,2025-03-10 10h57.11.725538 -0400,
1,1,0,critical,whd,35.0,4.0,upper,125.0,200.0,200.0,125.0,127.0,127.0,2,7.593937158584595,None,,,,,0,0,0,0,0,1,1,89,78.84852838516235,,,,,,,,,,,,,,,,,,,,,,,,,,,,,,,,,,,,,,,,,,,,,,,,,,,,,,,,,,,,,,,,,,,,,,,,,,,,,,,,,,125.0,200.0,200.0,125.0,127.0,127.0,4.0,4.2,-258,-17,0,-278,222,-18,78.83386564254761,78.83390378952026,78.83635973930359,78.84852838516235,78.99902510643005,78.99902510643005,78.99902510643005,78.99902510643005,78.99902510643005,78.99902510643005,78.99902510643005,86.44975233078003,2,7.593937158584595,None,,,,,,,,,,,,,,,,,,221,3,2025-03-10_10h56.38.326,comp,2024.2.4,60.09720311783585,2025-03-10 10h57.11.725538 -0400,
2,2,0,critical,dhw,20.0,1.0,lower,78.0,78.0,133.0,57.0,57.0,133.0,2,4.600557327270508,None,,,,,0,0,0,0,0,2,2,54,86.46512460708618,,,,,,,,,,,,,,,,,,,,,,,,,,,,,,,,,,,,,,,,,,,,,,,,,,,,,,,,,,,,,,,,,,,,,,,,,,,,,,,,,,78.0,78.0,133.0,57.0,57.0,133.0,1.0,1.1,-644,280,-480,287,-289,277,86.4505684375763,86.450608253479,86.45302271842957,86.46512460708618,86.61511588096619,86.61511588096619,86.61511588096619,86.61511588096619,86.61511588096619,86.61511588096619,86.61511588096619,91.08273649215698,2,4.600557327270508,None,,,,,,,,,,,,,,,,,,221,3,2025-03-10_10h56.38.326,comp,2024.2.4,60.09720311783585,2025-03-10 10h57.11.725538 -0400,
3,3,0,filler_square,None,None,None,None,None,None,None,None,None,None,3,2.95137357711792,None,,,,,0,0,0,0,0,3,3,208,91.0982666015625,,,,,,,,,,,,,,,,,,,,,,,,,,,,,,,,,,,,,,,,,,,,,,,,,,,,,,,,,,,,,,,,,,,,,,,,,,,,,,,,,,94.29334576154895,66.13168698308597,95.94212533372269,60.36746842425763,105.51747647378536,105.51747647378536,2.1,2.12,-159,-263,0,-280,179,261,91.08373808860779,91.08377766609192,91.0861496925354,91.0982666015625,91.2484061717987,91.2484061717987,91.2484061717987,91.2484061717987,91.2484061717987,91.2484061717987,91.2484061717987,94.06615471839905,3,2.95137357711792,None,,,,,,,,,,,,,,,,,,221,3,2025-03-10_10h56.38.326,comp,2024.2.4,60.09720311783585,2025-03-10 10h57.11.725538 -0400,
4,4,0,catch,None,None,None,None,None,None,None,None,None,None,1,2.368072986602783,None,,,,,0,0,0,0,0,4,4,129,94.08157205581665,,,,,,,,,,,,,,,,,,,,,,,,,,,,,,,,,,,,,,,,,,,,,,,,,,,,,,,,,,,,,,,,,,,,,,,,,,,,,,,,,,134,191,97,93,78,112,1.0,1.1,-718,265,-480,261,-282,274,94.06720352172852,94.06724381446838,94.06924510002136,94.08157205581665,94.23183560371399,94.23183560371399,94.23183560371399,94.23183560371399,94.23183560371399,94.23183560371399,94.23183560371399,96.4662652015686,1,2.368072986602783,None,,,,,,,,,,,,,,,,,,221,3,2025-03-10_10h56.38.326,comp,2024.2.4,60.09720311783585,2025-03-10 10h57.11.725538 -0400,
5,5,0,critical,dwh,20.0,3.0,upper,141.0,141.0,125.0,200.0,200.0,125.0,3,5.217153787612915,None,,,,,0,0,0,0,0,5,5,69,96.4816575050354,,,,,,,,,,,,,,,,,,,,,,,,,,,,,,,,,,,,,,,,,,,,,,,,,,,,,,,,,,,,,,,,,,,,,,,,,,,,,,,,,,141.0,141.0,125.0,200.0,200.0,125.0,3.0,3.1,-266,261,0,-9,258,-283,96.46707797050476,96.46711683273315,96.46919846534729,96.4816575050354,96.63187217712402,96.63187217712402,96.63187217712402,96.63187217712402,96.63187217712402,96.63187217712402,96.63187217712402,101.71625828742981,3,5.217153787612915,None,,,,,,,,,,,,,,,,,,221,3,2025-03-10_10h56.38.326,comp,2024.2.4,60.09720311783585,2025-03-10 10h57.11.725538 -0400,
6,6,0,filler_square,None,None,None,None,None,None,None,None,None,None,3,2.205793857574463,None,,,,,0,0,0,0,0,6,6,185,101.73156213760376,,,,,,,,,,,,,,,,,,,,,,,,,,,,,,,,,,,,,,,,,,,,,,,,,,,,,,,,,,,,,,,,,,,,,,,,,,,,,,,,,,109.96042951275524,83.07787751177383,177.3288840600126,143.13811223918705,188.92892035449674,188.92892035449674,2.2,2.21,-209,-275,0,266,262,275,101.71722435951233,101.71726441383362,101.71950221061707,101.73156213760376,101.88183736801147,101.88183736801147,101.88183736801147,101.88183736801147,101.88183736801147,101.88183736801147,101.88183736801147,103.949777841568,3,2.205793857574463,None,,,,,,,,,,,,,,,,,,221,3,2025-03-10_10h56.38.326,comp,2024.2.4,60.09720311783585,2025-03-10 10h57.11.725538 -0400,
7,7,0,critical,dwh,20.0,2.1,lower,78.0,78.0,57.0,133.0,133.0,57.0,2,6.445347309112549,None,,,,,0,0,0,0,0,7,7,6,103.96479868888855,,,,,,,,,,,,,,,,,,,,,,,,,,,,,,,,,,,,,,,,,,,,,,,,,,,,,,,,,,,,,,,,,,,,,,,,,,,,,,,,,,78.0,78.0,57.0,133.0,133.0,57.0,2.1,2.12,-202,-276,0,-251,191,255,103.95059013366699,103.95063042640686,103.95289945602417,103.96479868888855,104.11499214172363,104.11499214172363,104.11499214172363,104.11499214172363,104.11499214172363,104.11499214172363,104.11499214172363,110.4160225391388,2,6.445347309112549,None,,,,,,,,,,,,,,,,,,221,3,2025-03-10_10h56.38.326,comp,2024.2.4,60.09720311783585,2025-03-10 10h57.11.725538 -0400,
8,8,0,critical,dhw,35.0,3.0,lower,70.0,70.0,133.0,57.0,57.0,133.0,3,3.2337241172790527,None,,,,,0,0,0,0,0,8,8,50,110.43173432350159,,,,,,,,,,,,,,,,,,,,,,,,,,,,,,,,,,,,,,,,,,,,,,,,,,,,,,,,,,,,,,,,,,,,,,,,,,,,,,,,,,70.0,70.0,133.0,57.0,57.0,133.0,3.0,3.1,-160,256,0,3,191,-256,110.41680765151978,110.41684865951538,110.41922497749329,110.43173432350159,110.58165383338928,110.58165383338928,110.58165383338928,110.58165383338928,110.58165383338928,110.58165383338928,110.58165383338928,113.6825532913208,3,3.2337241172790527,None,,,,,,,,,,,,,,,,,,221,3,2025-03-10_10h56.38.326,comp,2024.2.4,60.09720311783585,2025-03-10 10h57.11.725538 -0400,
9,9,0,filler_square,None,None,None,None,None,None,None,None,None,None,1,1.8338158130645752,None,,,,,0,0,0,0,0,9,9,209,113.6980950832367,,,,,,,,,,,,,,,,,,,,,,,,,,,,,,,,,,,,,,,,,,,,,,,,,,,,,,,,,,,,,,,,,,,,,,,,,,,,,,,,,,164.85861117568874,164.85861117568874,160.4629537570629,138.74768597959098,98.56216022224115,157.08404951793162,2.1,2.11,-248,266,0,262,244,-276,113.68347716331482,113.68351459503174,113.68583846092224,113.6980950832367,113.84846758842468,113.84846758842468,113.84846758842468,113.84846758842468,113.84846758842468,113.84846758842468,113.84846758842468,115.5332543849945,1,1.8338158130645752,None,,,,,,,,,,,,,,,,,,221,3,2025-03-10_10h56.38.326,comp,2024.2.4,60.09720311783585,2025-03-10 10h57.11.725538 -0400,
10,10,0,critical,wdh,20.0,3.0,upper,125.0,200.0,141.0,141.0,200.0,125.0,3,2.1259605884552,None,,,,,0,0,0,0,0,10,10,81,115.5483546257019,,,,,,,,,,,,,,,,,,,,,,,,,,,,,,,,,,,,,,,,,,,,,,,,,,,,,,,,,,,,,,,,,,,,,,,,,,,,,,,,,,125.0,200.0,141.0,141.0,200.0,125.0,3.0,3.1,-266,262,0,0,229,-257,115.53406643867493,115.53410649299622,115.53658938407898,115.5483546257019,115.6985936164856,115.6985936164856,115.6985936164856,115.6985936164856,115.6985936164856,115.6985936164856,115.6985936164856,117.68294978141785,3,2.1259605884552,None,,,,,,,,,,,,,,,,,,221,3,2025-03-10_10h56.38.326,comp,2024.2.4,60.09720311783585,2025-03-10 10h57.11.725538 -0400,
11,11,0,critical,dhw,35.0,2.1,upper,127.0,127.0,200.0,125.0,125.0,200.0,2,2.400198459625244,None,,,,,0,0,0,0,0,11,11,1,117.69838404655457,,,,,,,,,,,,,,,,,,,,,,,,,,,,,,,,,,,,,,,,,,,,,,,,,,,,,,,,,,,,,,,,,,,,,,,,,,,,,,,,,,127.0,127.0,200.0,125.0,125.0,200.0,2.1,2.12,-222,-262,0,-264,258,254,117.68375611305237,117.68379712104797,117.68614459037781,117.69838404655457,117.848397731781,117.848397731781,117.848397731781,117.848397731781,117.848397731781,117.848397731781,117.848397731781,120.11618065834045,2,2.400198459625244,None,,,,,,,,,,,,,,,,,,221,3,2025-03-10_10h56.38.326,comp,2024.2.4,60.09720311783585,2025-03-10 10h57.11.725538 -0400,
12,12,0,filler_random,None,None,None,None,None,None,None,None,None,None,3,1.4164118766784668,None,,,,,0,0,0,0,0,12,12,134,120.13134956359863,,,,,,,,,,,,,,,,,,,,,,,,,,,,,,,,,,,,,,,,,,,,,,,,,,,,,,,,,,,,,,,,,,,,,,,,,,,,,,,,,,66.23991626544415,119.94182358151127,112.3698422000638,155.2778099623438,142.61179772749563,173.612584486176,2.2,2.22,-234,269,0,-266,260,-252,120.11711049079895,120.11715078353882,120.11962628364563,120.13134956359863,120.28152084350586,120.28152084350586,120.28152084350586,120.28152084350586,120.28152084350586,120.28152084350586,120.28152084350586,121.54951548576355,3,1.4164118766784668,None,,,,,,,,,,,,,,,,,,221,3,2025-03-10_10h56.38.326,comp,2024.2.4,60.09720311783585,2025-03-10 10h57.11.725538 -0400,
13,13,0,critical,hwd,20.0,4.0,upper,200.0,125.0,125.0,200.0,141.0,141.0,2,4.414444446563721,None,,,,,0,0,0,0,0,13,13,107,121.56494116783142,,,,,,,,,,,,,,,,,,,,,,,,,,,,,,,,,,,,,,,,,,,,,,,,,,,,,,,,,,,,,,,,,,,,,,,,,,,,,,,,,,200.0,125.0,125.0,200.0,141.0,141.0,4.0,4.1,-258,-280,0,-16,266,-252,121.55027174949646,121.55032253265381,121.55250787734985,121.56494116783142,121.71500039100647,121.71500039100647,121.71500039100647,121.71500039100647,121.71500039100647,121.71500039100647,121.71500039100647,125.98305463790894,2,4.414444446563721,None,,,,,,,,,,,,,,,,,,221,3,2025-03-10_10h56.38.326,comp,2024.2.4,60.09720311783585,2025-03-10 10h57.11.725538 -0400,
14,14,0,critical,dwh,20.0,2.1,lower,78.0,78.0,57.0,133.0,133.0,57.0,3,2.091789960861206,None,,,,,0,0,0,0,0,14,14,30,125.99833297729492,,,,,,,,,,,,,,,,,,,,,,,,,,,,,,,,,,,,,,,,,,,,,,,,,,,,,,,,,,,,,,,,,,,,,,,,,,,,,,,,,,78.0,78.0,57.0,133.0,133.0,57.0,2.1,2.12,-202,-289,0,-254,191,271,125.983891248703,125.98393225669861,125.98598575592041,125.99833297729492,126.1479856967926,126.1479856967926,126.1479856967926,126.1479856967926,126.1479856967926,126.1479856967926,126.1479856967926,128.0991108417511,3,2.091789960861206,None,,,,,,,,,,,,,,,,,,221,3,2025-03-10_10h56.38.326,comp,2024.2.4,60.09720311783585,2025-03-10 10h57.11.725538 -0400,
15,15,0,filler_random,None,None,None,None,None,None,None,None,None,None,2,2.022294282913208,None,,,,,0,0,0,0,0,15,15,144,128.11488795280457,,,,,,,,,,,,,,,,,,,,,,,,,,,,,,,,,,,,,,,,,,,,,,,,,,,,,,,,,,,,,,,,,,,,,,,,,,,,,,,,,,89.80342097983393,160.21966486037803,174.20215693628,107.45362102502432,131.63936834041846,81.6516399764692,4.0,4.1,-230,-270,0,-16,191,-258,128.10002851486206,128.10007071495056,128.1026451587677,128.11488795280457,128.26486039161682,128.26486039161682,128.26486039161682,128.26486039161682,128.26486039161682,128.26486039161682,128.26486039161682,130.14949250221252,2,2.022294282913208,None,,,,,,,,,,,,,,,,,,221,3,2025-03-10_10h56.38.326,comp,2024.2.4,60.09720311783585,2025-03-10 10h57.11.725538 -0400,
16,16,0,critical,dhw,20.0,1.0,upper,141.0,141.0,200.0,125.0,125.0,200.0,3,4.804791212081909,None,,,,,0,0,0,0,0,16,16,55,130.1645541191101,,,,,,,,,,,,,,,,,,,,,,,,,,,,,,,,,,,,,,,,,,,,,,,,,,,,,,,,,,,,,,,,,,,,,,,,,,,,,,,,,,141.0,141.0,200.0,125.0,125.0,200.0,1.0,1.1,-709,275,-480,262,-222,261,130.15024375915527,130.15029287338257,130.15230107307434,130.1645541191101,130.3150053024292,130.3150053024292,130.3150053024292,130.3150053024292,130.3150053024292,130.3150053024292,130.3150053024292,134.98276209831238,3,4.804791212081909,None,,,,,,,,,,,,,,,,,,221,3,2025-03-10_10h56.38.326,comp,2024.2.4,60.09720311783585,2025-03-10 10h57.11.725538 -0400,
17,17,0,critical,hdw,20.0,2.1,upper,200.0,125.0,141.0,141.0,125.0,200.0,3,3.035587787628174,None,,,,,0,0,0,0,0,17,17,23,134.99783396720886,,,,,,,,,,,,,,,,,,,,,,,,,,,,,,,,,,,,,,,,,,,,,,,,,,,,,,,,,,,,,,,,,,,,,,,,,,,,,,,,,,200.0,125.0,141.0,141.0,125.0,200.0,2.1,2.12,-229,-278,0,-256,266,261,134.98358392715454,134.9836242198944,134.98595356941223,134.99783396720886,135.14823484420776,135.14823484420776,135.14823484420776,135.14823484420776,135.14823484420776,135.14823484420776,135.14823484420776,138.0496175289154,3,3.035587787628174,None,,,,,,,,,,,,,,,,,,221,3,2025-03-10_10h56.38.326,comp,2024.2.4,60.09720311783585,2025-03-10 10h57.11.725538 -0400,
18,18,0,catch,None,None,None,None,None,None,None,None,None,None,1,1.530019998550415,None,,,,,0,0,0,0,0,18,18,120,138.0646767616272,,,,,,,,,,,,,,,,,,,,,,,,,,,,,,,,,,,,,,,,,,,,,,,,,,,,,,,,,,,,,,,,,,,,,,,,,,,,,,,,,,142,183,65,125,62,128,4.0,4.1,-250,-263,0,-17,222,-287,138.0506477355957,138.0506887435913,138.05273509025574,138.0646767616272,138.21475052833557,138.21475052833557,138.21475052833557,138.21475052833557,138.21475052833557,138.21475052833557,138.21475052833557,139.59927654266357,1,1.530019998550415,None,,,,,,,,,,,,,,,,,,221,3,2025-03-10_10h56.38.326,comp,2024.2.4,60.09720311783585,2025-03-10 10h57.11.725538 -0400,
19,19,0,critical,hwd,35.0,2.1,upper,200.0,125.0,125.0,200.0,127.0,127.0,2,2.9492242336273193,None,,,,,0,0,0,0,0,19,19,41,139.61472368240356,,,,,,,,,,,,,,,,,,,,,,,,,,,,,,,,,,,,,,,,,,,,,,,,,,,,,,,,,,,,,,,,,,,,,,,,,,,,,,,,,,200.0,125.0,125.0,200.0,127.0,127.0,2.1,2.12,-258,-280,0,-268,260,283,139.60010266304016,139.6001443862915,139.60236644744873,139.61472368240356,139.76490807533264,139.76490807533264,139.76490807533264,139.76490807533264,139.76490807533264,139.76490807533264,139.76490807533264,142.56603503227234,2,2.9492242336273193,None,,,,,,,,,,,,,,,,,,221,3,2025-03-10_10h56.38.326,comp,2024.2.4,60.09720311783585,2025-03-10 10h57.11.725538 -0400,
20,20,0,critical,wdh,20.0,2.1,lower,57.0,133.0,78.0,78.0,133.0,57.0,3,2.6839113235473633,None,,,,,0,0,0,0,0,20,20,34,142.58141779899597,,,,,,,,,,,,,,,,,,,,,,,,,,,,,,,,,,,,,,,,,,,,,,,,,,,,,,,,,,,,,,,,,,,,,,,,,,,,,,,,,,57.0,133.0,78.0,78.0,133.0,57.0,2.1,2.12,-202,-269,0,-280,164,259,142.56681060791016,142.56684851646423,142.56884598731995,142.58141779899597,142.7315697669983,142.7315697669983,142.7315697669983,142.7315697669983,142.7315697669983,142.7315697669983,142.7315697669983,145.28243923187256,3,2.6839113235473633,None,,,,,,,,,,,,,,,,,,221,3,2025-03-10_10h56.38.326,comp,2024.2.4,60.09720311783585,2025-03-10 10h57.11.725538 -0400,
21,21,0,critical,hdw,35.0,1.0,lower,133.0,57.0,70.0,70.0,57.0,133.0,1,1.992276668548584,None,,,,,0,0,0,0,0,21,21,108,145.29770231246948,,,,,,,,,,,,,,,,,,,,,,,,,,,,,,,,,,,,,,,,,,,,,,,,,,,,,,,,,,,,,,,,,,,,,,,,,,,,,,,,,,133.0,57.0,70.0,70.0,57.0,133.0,1.0,1.2,-160,2,0,-5,198,4,145.28319692611694,145.2832372188568,145.28545570373535,145.29770231246948,145.44796895980835,145.44796895980835,145.44796895980835,145.44796895980835,145.44796895980835,145.44796895980835,145.44796895980835,147.29902148246765,1,1.992276668548584,None,,,,,,,,,,,,,,,,,,221,3,2025-03-10_10h56.38.326,comp,2024.2.4,60.09720311783585,2025-03-10 10h57.11.725538 -0400,
22,22,0,critical,dwh,35.0,1.0,upper,127.0,127.0,125.0,200.0,200.0,125.0,3,3.0795671939849854,None,,,,,0,0,0,0,0,22,22,61,147.31462907791138,,,,,,,,,,,,,,,,,,,,,,,,,,,,,,,,,,,,,,,,,,,,,,,,,,,,,,,,,,,,,,,,,,,,,,,,,,,,,,,,,,127.0,127.0,125.0,200.0,200.0,125.0,1.0,1.1,-740,281,-480,283,-222,282,147.29978919029236,147.29982614517212,147.3022141456604,147.31462907791138,147.4648163318634,147.4648163318634,147.4648163318634,147.4648163318634,147.4648163318634,147.4648163318634,147.4648163318634,150.39933848381042,3,3.0795671939849854,None,,,,,,,,,,,,,,,,,,221,3,2025-03-10_10h56.38.326,comp,2024.2.4,60.09720311783585,2025-03-10 10h57.11.725538 -0400,
23,23,0,filler_square,None,None,None,None,None,None,None,None,None,None,3,1.4112317562103271,None,,,,,0,0,0,0,0,23,23,201,150.4147310256958,,,,,,,,,,,,,,,,,,,,,,,,,,,,,,,,,,,,,,,,,,,,,,,,,,,,,,,,,,,,,,,,,,,,,,,,,,,,,,,,,,77.85268737997565,134.11408821918616,102.06570099151675,74.22849676997289,147.77462098953362,147.77462098953362,2.1,2.12,-200,-282,0,-285,207,263,150.40032076835632,150.40036129951477,150.40266466140747,150.4147310256958,150.56523513793945,150.56523513793945,150.56523513793945,150.56523513793945,150.56523513793945,150.56523513793945,150.56523513793945,151.8324384689331,3,1.4112317562103271,None,,,,,,,,,,,,,,,,,,221,3,2025-03-10_10h56.38.326,comp,2024.2.4,60.09720311783585,2025-03-10 10h57.11.725538 -0400,
24,24,0,filler_random,None,None,None,None,None,None,None,None,None,None,2,1.4502639770507812,None,,,,,0,0,0,0,0,24,24,145,151.84804606437683,,,,,,,,,,,,,,,,,,,,,,,,,,,,,,,,,,,,,,,,,,,,,,,,,,,,,,,,,,,,,,,,,,,,,,,,,,,,,,,,,,89.26820606341073,197.2816208835046,174.23212701272075,174.78580477580886,82.58766605528871,108.122877559,3.0,3.2,-282,-268,0,-15,237,274,151.83335661888123,151.83339619636536,151.83566856384277,151.84804606437683,151.9981815814972,151.9981815814972,151.9981815814972,151.9981815814972,151.9981815814972,151.9981815814972,151.9981815814972,153.31589102745056,2,1.4502639770507812,None,,,,,,,,,,,,,,,,,,221,3,2025-03-10_10h56.38.326,comp,2024.2.4,60.09720311783585,2025-03-10 10h57.11.725538 -0400,
25,25,0,critical,hdw,20.0,2.1,lower,133.0,57.0,78.0,78.0,57.0,133.0,3,2.8380258083343506,None,,,,,0,0,0,0,0,25,25,22,153.33119797706604,,,,,,,,,,,,,,,,,,,,,,,,,,,,,,,,,,,,,,,,,,,,,,,,,,,,,,,,,,,,,,,,,,,,,,,,,,,,,,,,,,133.0,57.0,78.0,78.0,57.0,133.0,2.1,2.12,-164,-266,0,-263,202,257,153.3166787624359,153.31671810150146,153.31905674934387,153.33119797706604,153.48131489753723,153.48131489753723,153.48131489753723,153.48131489753723,153.48131489753723,153.48131489753723,153.48131489753723,156.1826388835907,3,2.8380258083343506,None,,,,,,,,,,,,,,,,,,221,3,2025-03-10_10h56.38.326,comp,2024.2.4,60.09720311783585,2025-03-10 10h57.11.725538 -0400,
26,26,0,filler_square,None,None,None,None,None,None,None,None,None,None,1,1.1003961563110352,None,,,,,0,0,0,0,0,26,26,176,156.1977574825287,,,,,,,,,,,,,,,,,,,,,,,,,,,,,,,,,,,,,,,,,,,,,,,,,,,,,,,,,,,,,,,,,,,,,,,,,,,,,,,,,,104.77397723881333,104.77397723881333,65.53991575382214,64.43566683028288,70.87668882067632,62.5551226472424,2.1,2.12,-181,-267,0,-263,159,257,156.18359184265137,156.1836314201355,156.18590688705444,156.1977574825287,156.34800577163696,156.34800577163696,156.34800577163696,156.34800577163696,156.34800577163696,156.34800577163696,156.34800577163696,157.29931783676147,1,1.1003961563110352,None,,,,,,,,,,,,,,,,,,221,3,2025-03-10_10h56.38.326,comp,2024.2.4,60.09720311783585,2025-03-10 10h57.11.725538 -0400,
27,27,0,critical,dwh,35.0,2.1,upper,127.0,127.0,125.0,200.0,200.0,125.0,3,1.6711292266845703,None,,,,,0,0,0,0,0,27,27,5,157.31471991539001,,,,,,,,,,,,,,,,,,,,,,,,,,,,,,,,,,,,,,,,,,,,,,,,,,,,,,,,,,,,,,,,,,,,,,,,,,,,,,,,,,127.0,127.0,125.0,200.0,200.0,125.0,2.1,2.12,-260,-255,0,-284,258,277,157.30010962486267,157.30014944076538,157.30215644836426,157.31471991539001,157.46508622169495,157.46508622169495,157.46508622169495,157.46508622169495,157.46508622169495,157.46508622169495,157.46508622169495,158.999174118042,3,1.6711292266845703,None,,,,,,,,,,,,,,,,,,221,3,2025-03-10_10h56.38.326,comp,2024.2.4,60.09720311783585,2025-03-10 10h57.11.725538 -0400,
28,28,0,critical,hwd,35.0,2.1,upper,200.0,125.0,125.0,200.0,127.0,127.0,1,1.8506908416748047,None,,,,,0,0,0,0,0,28,28,17,159.01440167427063,,,,,,,,,,,,,,,,,,,,,,,,,,,,,,,,,,,,,,,,,,,,,,,,,,,,,,,,,,,,,,,,,,,,,,,,,,,,,,,,,,200.0,125.0,125.0,200.0,127.0,127.0,2.1,2.12,-258,-288,0,-257,260,276,158.99998474121094,159.00002431869507,159.00205731391907,159.01440167427063,159.16484546661377,159.16484546661377,159.16484546661377,159.16484546661377,159.16484546661377,159.16484546661377,159.16484546661377,160.88237595558167,1,1.8506908416748047,None,,,,,,,,,,,,,,,,,,221,3,2025-03-10_10h56.38.326,comp,2024.2.4,60.09720311783585,2025-03-10 10h57.11.725538 -0400,
29,29,0,critical,dwh,20.0,1.0,lower,78.0,78.0,57.0,133.0,133.0,57.0,3,2.719362258911133,None,,,,,0,0,0,0,0,29,29,66,160.8977119922638,,,,,,,,,,,,,,,,,,,,,,,,,,,,,,,,,,,,,,,,,,,,,,,,,,,,,,,,,,,,,,,,,,,,,,,,,,,,,,,,,,78.0,78.0,57.0,133.0,133.0,57.0,1.0,1.1,-682,289,-480,255,-289,259,160.88316440582275,160.88320541381836,160.88645195960999,160.8977119922638,161.04780554771423,161.04780554771423,161.04780554771423,161.04780554771423,161.04780554771423,161.04780554771423,161.04780554771423,163.63223934173584,3,2.719362258911133,None,,,,,,,,,,,,,,,,,,221,3,2025-03-10_10h56.38.326,comp,2024.2.4,60.09720311783585,2025-03-10 10h57.11.725538 -0400,
30,30,0,critical,wdh,20.0,2.1,upper,125.0,200.0,141.0,141.0,200.0,125.0,1,1.4892578125,None,,,,,0,0,0,0,0,30,30,35,163.64769101142883,,,,,,,,,,,,,,,,,,,,,,,,,,,,,,,,,,,,,,,,,,,,,,,,,,,,,,,,,,,,,,,,,,,,,,,,,,,,,,,,,,125.0,200.0,141.0,141.0,200.0,125.0,2.1,2.12,-266,-267,0,-251,229,279,163.633043050766,163.63308334350586,163.63624024391174,163.64769101142883,163.79809474945068,163.79809474945068,163.79809474945068,163.79809474945068,163.79809474945068,163.79809474945068,163.79809474945068,165.14954900741577,1,1.4892578125,None,,,,,,,,,,,,,,,,,,221,3,2025-03-10_10h56.38.326,comp,2024.2.4,60.09720311783585,2025-03-10 10h57.11.725538 -0400,
31,31,0,filler_random,None,None,None,None,None,None,None,None,None,None,1,4.452579736709595,None,,,,,0,0,0,0,0,31,31,166,165.16444063186646,,,,,,,,,,,,,,,,,,,,,,,,,,,,,,,,,,,,,,,,,,,,,,,,,,,,,,,,,,,,,,,,,,,,,,,,,,,,,,,,,,113.51710783699977,150.74446383007356,79.84516215506493,107.31241696428282,69.45310524268642,199.43309084829534,2.2,2.21,-225,-260,0,277,249,262,165.15042400360107,165.1504626274109,165.15241169929504,165.16444063186646,165.31456804275513,165.31456804275513,165.31456804275513,165.31456804275513,165.31456804275513,165.31456804275513,165.31456804275513,169.63235759735107,1,4.452579736709595,None,,,,,,,,,,,,,,,,,,221,3,2025-03-10_10h56.38.326,comp,2024.2.4,60.09720311783585,2025-03-10 10h57.11.725538 -0400,
32,32,0,filler_random,None,None,None,None,None,None,None,None,None,None,3,1.3780648708343506,None,,,,,0,0,0,0,0,32,32,157,169.64768409729004,,,,,,,,,,,,,,,,,,,,,,,,,,,,,,,,,,,,,,,,,,,,,,,,,,,,,,,,,,,,,,,,,,,,,,,,,,,,,,,,,,134.3687148177225,83.94012730609114,155.93386356664237,146.59832493942707,137.6958045721372,190.50514220016416,4.0,4.2,-211,-13,0,-285,265,-6,169.63324642181396,169.63329672813416,169.63521814346313,169.64768409729004,169.79804253578186,169.79804253578186,169.79804253578186,169.79804253578186,169.79804253578186,169.79804253578186,169.79804253578186,171.032297372818,3,1.3780648708343506,None,,,,,,,,,,,,,,,,,,221,3,2025-03-10_10h56.38.326,comp,2024.2.4,60.09720311783585,2025-03-10 10h57.11.725538 -0400,
33,33,0,filler_square,None,None,None,None,None,None,None,None,None,None,3,1.2338709831237793,None,,,,,0,0,0,0,0,33,33,192,171.04791355133057,,,,,,,,,,,,,,,,,,,,,,,,,,,,,,,,,,,,,,,,,,,,,,,,,,,,,,,,,,,,,,,,,,,,,,,,,,,,,,,,,,82.30131037557668,75.24355707080191,109.32810761480287,129.55253557064003,142.44472834264087,142.44472834264087,4.0,4.2,-198,-2,0,-261,232,2,171.03323435783386,171.0332760810852,171.03531002998352,171.04791355133057,171.1979160308838,171.1979160308838,171.1979160308838,171.1979160308838,171.1979160308838,171.1979160308838,171.1979160308838,172.29900765419006,3,1.2338709831237793,None,,,,,,,,,,,,,,,,,,221,3,2025-03-10_10h56.38.326,comp,2024.2.4,60.09720311783585,2025-03-10 10h57.11.725538 -0400,
34,34,0,filler_random,None,None,None,None,None,None,None,None,None,None,3,1.4226880073547363,None,,,,,0,0,0,0,0,34,34,147,172.31435370445251,,,,,,,,,,,,,,,,,,,,,,,,,,,,,,,,,,,,,,,,,,,,,,,,,,,,,,,,,,,,,,,,,,,,,,,,,,,,,,,,,,145.4568190257861,101.60701768846945,99.6183354535036,160.30302109417823,167.98059501492529,175.21446626608656,3.0,3.1,-227,281,0,9,264,-259,172.2999324798584,172.29997324943542,172.30248403549194,172.31435370445251,172.46463823318481,172.46463823318481,172.46463823318481,172.46463823318481,172.46463823318481,172.46463823318481,172.46463823318481,173.7491602897644,3,1.4226880073547363,None,,,,,,,,,,,,,,,,,,221,3,2025-03-10_10h56.38.326,comp,2024.2.4,60.09720311783585,2025-03-10 10h57.11.725538 -0400,
35,35,0,critical,dwh,20.0,1.0,upper,141.0,141.0,125.0,200.0,200.0,125.0,3,1.7581243515014648,None,,,,,0,0,0,0,0,35,35,67,173.7643756866455,,,,,,,,,,,,,,,,,,,,,,,,,,,,,,,,,,,,,,,,,,,,,,,,,,,,,,,,,,,,,,,,,,,,,,,,,,,,,,,,,,141.0,141.0,125.0,200.0,200.0,125.0,1.0,1.1,-746,278,-480,271,-222,277,173.74997782707214,173.75001883506775,173.7520968914032,173.7643756866455,173.91468787193298,173.91468787193298,173.91468787193298,173.91468787193298,173.91468787193298,173.91468787193298,173.91468787193298,175.53245306015015,3,1.7581243515014648,None,,,,,,,,,,,,,,,,,,221,3,2025-03-10_10h56.38.326,comp,2024.2.4,60.09720311783585,2025-03-10 10h57.11.725538 -0400,
36,36,0,critical,hdw,35.0,2.1,lower,133.0,57.0,70.0,70.0,57.0,133.0,3,3.2171778678894043,None,,,,,0,0,0,0,0,36,36,44,175.5480396747589,,,,,,,,,,,,,,,,,,,,,,,,,,,,,,,,,,,,,,,,,,,,,,,,,,,,,,,,,,,,,,,,,,,,,,,,,,,,,,,,,,133.0,57.0,70.0,70.0,57.0,133.0,2.1,2.12,-160,-285,0,-251,198,284,175.5332715511322,175.5333216190338,175.53537702560425,175.5480396747589,175.6978039741516,175.6978039741516,175.6978039741516,175.6978039741516,175.6978039741516,175.6978039741516,175.6978039741516,178.7664566040039,3,3.2171778678894043,None,,,,,,,,,,,,,,,,,,221,3,2025-03-10_10h56.38.326,comp,2024.2.4,60.09720311783585,2025-03-10 10h57.11.725538 -0400,
37,37,0,critical,hdw,20.0,3.0,lower,133.0,57.0,78.0,78.0,57.0,133.0,3,1.6191232204437256,None,,,,,0,0,0,0,0,37,37,116,178.7818660736084,,,,,,,,,,,,,,,,,,,,,,,,,,,,,,,,,,,,,,,,,,,,,,,,,,,,,,,,,,,,,,,,,,,,,,,,,,,,,,,,,,133.0,57.0,78.0,78.0,57.0,133.0,3.0,3.2,-164,-255,0,-18,202,280,178.76723980903625,178.76729273796082,178.76918578147888,178.7818660736084,178.93164324760437,178.93164324760437,178.93164324760437,178.93164324760437,178.93164324760437,178.93164324760437,178.93164324760437,180.41553807258606,3,1.6191232204437256,None,,,,,,,,,,,,,,,,,,221,3,2025-03-10_10h56.38.326,comp,2024.2.4,60.09720311783585,2025-03-10 10h57.11.725538 -0400,
38,38,0,critical,whd,20.0,3.0,upper,125.0,200.0,200.0,125.0,141.0,141.0,1,2.63421893119812,None,,,,,0,0,0,0,0,38,38,93,180.4309892654419,,,,,,,,,,,,,,,,,,,,,,,,,,,,,,,,,,,,,,,,,,,,,,,,,,,,,,,,,,,,,,,,,,,,,,,,,,,,,,,,,,125.0,200.0,200.0,125.0,141.0,141.0,3.0,3.2,-258,-290,0,-15,229,290,180.41633558273315,180.41637635231018,180.41847276687622,180.4309892654419,180.58123922348022,180.58123922348022,180.58123922348022,180.58123922348022,180.58123922348022,180.58123922348022,180.58123922348022,183.08245611190796,1,2.63421893119812,None,,,,,,,,,,,,,,,,,,221,3,2025-03-10_10h56.38.326,comp,2024.2.4,60.09720311783585,2025-03-10 10h57.11.725538 -0400,
39,39,0,filler_square,None,None,None,None,None,None,None,None,None,None,2,1.8334293365478516,None,,,,,0,0,0,0,0,39,39,172,183.09766507148743,,,,,,,,,,,,,,,,,,,,,,,,,,,,,,,,,,,,,,,,,,,,,,,,,,,,,,,,,,,,,,,,,,,,,,,,,,,,,,,,,,90.01641630751939,71.17669348073127,91.77980297721933,91.77980297721933,75.93870612851165,66.37346025694039,2.1,2.12,-177,-268,0,-272,175,266,183.08343625068665,183.083477973938,183.08549547195435,183.09766507148743,183.2478165626526,183.2478165626526,183.2478165626526,183.2478165626526,183.2478165626526,183.2478165626526,183.2478165626526,184.9323513507843,2,1.8334293365478516,None,,,,,,,,,,,,,,,,,,221,3,2025-03-10_10h56.38.326,comp,2024.2.4,60.09720311783585,2025-03-10 10h57.11.725538 -0400,
40,40,0,critical,hwd,20.0,4.0,lower,133.0,57.0,57.0,133.0,78.0,78.0,2,3.261854887008667,None,,,,,0,0,0,0,0,40,40,106,184.94785475730896,,,,,,,,,,,,,,,,,,,,,,,,,,,,,,,,,,,,,,,,,,,,,,,,,,,,,,,,,,,,,,,,,,,,,,,,,,,,,,,,,,133.0,57.0,57.0,133.0,78.0,78.0,4.0,4.1,-191,-288,0,-18,202,-275,184.93313813209534,184.93317651748657,184.93508529663086,184.94785475730896,185.0976641178131,185.0976641178131,185.0976641178131,185.0976641178131,185.0976641178131,185.0976641178131,185.0976641178131,188.2155261039734,2,3.261854887008667,None,,,,,,,,,,,,,,,,,,221,3,2025-03-10_10h56.38.326,comp,2024.2.4,60.09720311783585,2025-03-10 10h57.11.725538 -0400,
41,41,0,filler_random,None,None,None,None,None,None,None,None,None,None,2,2.0104219913482666,None,,,,,0,0,0,0,0,41,41,155,188.2313060760498,,,,,,,,,,,,,,,,,,,,,,,,,,,,,,,,,,,,,,,,,,,,,,,,,,,,,,,,,,,,,,,,,,,,,,,,,,,,,,,,,,107.20886874362054,99.29812433760503,183.96038487652868,111.04249443412132,172.0479557955639,79.61806961233853,3.0,3.2,-201,-273,0,10,191,267,188.21641612052917,188.21645641326904,188.21845865249634,188.2313060760498,188.38108921051025,188.38108921051025,188.38108921051025,188.38108921051025,188.38108921051025,188.38108921051025,188.38108921051025,190.24897742271423,2,2.0104219913482666,None,,,,,,,,,,,,,,,,,,221,3,2025-03-10_10h56.38.326,comp,2024.2.4,60.09720311783585,2025-03-10 10h57.11.725538 -0400,
42,42,0,filler_random,None,None,None,None,None,None,None,None,None,None,2,1.521216869354248,None,,,,,0,0,0,0,0,42,42,141,190.2644476890564,,,,,,,,,,,,,,,,,,,,,,,,,,,,,,,,,,,,,,,,,,,,,,,,,,,,,,,,,,,,,,,,,,,,,,,,,,,,,,,,,,96.13264671104602,191.7253397581578,187.96356447623583,140.53752917260164,163.33621849743207,60.424746457941474,2.2,2.22,-262,251,0,-274,196,-272,190.2498893737793,190.24993133544922,190.25244116783142,190.2644476890564,190.41444635391235,190.41444635391235,190.41444635391235,190.41444635391235,190.41444635391235,190.41444635391235,190.41444635391235,191.79880380630493,2,1.521216869354248,None,,,,,,,,,,,,,,,,,,221,3,2025-03-10_10h56.38.326,comp,2024.2.4,60.09720311783585,2025-03-10 10h57.11.725538 -0400,
43,43,0,filler_random,None,None,None,None,None,None,None,None,None,None,1,1.5799477100372314,None,,,,,0,0,0,0,0,43,43,149,191.81422591209412,,,,,,,,,,,,,,,,,,,,,,,,,,,,,,,,,,,,,,,,,,,,,,,,,,,,,,,,,,,,,,,,,,,,,,,,,,,,,,,,,,152.82448774079586,119.64013359811739,103.42260459960978,57.74699486797799,59.23951656400963,74.11790736574761,3.0,3.1,-185,253,0,1,162,-275,191.79968929290771,191.79972982406616,191.8021125793457,191.81422591209412,191.96433067321777,191.96433067321777,191.96433067321777,191.96433067321777,191.96433067321777,191.96433067321777,191.96433067321777,193.3988378047943,1,1.5799477100372314,None,,,,,,,,,,,,,,,,,,221,3,2025-03-10_10h56.38.326,comp,2024.2.4,60.09720311783585,2025-03-10 10h57.11.725538 -0400,
44,44,0,filler_random,None,None,None,None,None,None,None,None,None,None,3,1.9382715225219727,None,,,,,0,0,0,0,0,44,44,142,193.41450214385986,,,,,,,,,,,,,,,,,,,,,,,,,,,,,,,,,,,,,,,,,,,,,,,,,,,,,,,,,,,,,,,,,,,,,,,,,,,,,,,,,,105.66761018455665,73.21113189845303,155.89912415413963,78.38462992113591,147.46794783761288,147.40575539361703,2.1,2.12,-172,-260,0,-289,209,257,193.39978432655334,193.39982652664185,193.40180611610413,193.41450214385986,193.56440615653992,193.56440615653992,193.56440615653992,193.56440615653992,193.56440615653992,193.56440615653992,193.56440615653992,195.36546754837036,3,1.9382715225219727,None,,,,,,,,,,,,,,,,,,221,3,2025-03-10_10h56.38.326,comp,2024.2.4,60.09720311783585,2025-03-10 10h57.11.725538 -0400,
45,45,0,critical,wdh,20.0,1.0,upper,125.0,200.0,141.0,141.0,200.0,125.0,1,1.6047742366790771,None,,,,,0,0,0,0,0,45,45,79,195.38082122802734,,,,,,,,,,,,,,,,,,,,,,,,,,,,,,,,,,,,,,,,,,,,,,,,,,,,,,,,,,,,,,,,,,,,,,,,,,,,,,,,,,125.0,200.0,141.0,141.0,200.0,125.0,1.0,1.2,-266,-2,0,-3,229,9,195.36635446548462,195.36639428138733,195.3687469959259,195.38082122802734,195.53120255470276,195.53120255470276,195.53120255470276,195.53120255470276,195.53120255470276,195.53120255470276,195.53120255470276,196.9989230632782,1,1.6047742366790771,None,,,,,,,,,,,,,,,,,,221,3,2025-03-10_10h56.38.326,comp,2024.2.4,60.09720311783585,2025-03-10 10h57.11.725538 -0400,
46,46,0,critical,wdh,35.0,1.0,lower,57.0,133.0,70.0,70.0,133.0,57.0,3,1.9866983890533447,None,,,,,0,0,0,0,0,46,46,72,197.0141704082489,,,,,,,,,,,,,,,,,,,,,,,,,,,,,,,,,,,,,,,,,,,,,,,,,,,,,,,,,,,,,,,,,,,,,,,,,,,,,,,,,,57.0,133.0,70.0,70.0,133.0,57.0,1.0,1.1,-678,279,-480,257,-320,286,196.99970245361328,196.99974012374878,197.0021255016327,197.0141704082489,197.1643476486206,197.1643476486206,197.1643476486206,197.1643476486206,197.1643476486206,197.1643476486206,197.1643476486206,199.0154733657837,3,1.9866983890533447,None,,,,,,,,,,,,,,,,,,221,3,2025-03-10_10h56.38.326,comp,2024.2.4,60.09720311783585,2025-03-10 10h57.11.725538 -0400,
47,47,0,critical,hwd,20.0,3.0,lower,133.0,57.0,57.0,133.0,78.0,78.0,2,1.290637493133545,None,,,,,0,0,0,0,0,47,47,104,199.03083324432373,,,,,,,,,,,,,,,,,,,,,,,,,,,,,,,,,,,,,,,,,,,,,,,,,,,,,,,,,,,,,,,,,,,,,,,,,,,,,,,,,,133.0,57.0,57.0,133.0,78.0,78.0,3.0,3.2,-191,-274,0,1,202,278,199.01626253128052,199.01631450653076,199.01956915855408,199.03083324432373,199.18092250823975,199.18092250823975,199.18092250823975,199.18092250823975,199.18092250823975,199.18092250823975,199.18092250823975,200.3319742679596,2,1.290637493133545,None,,,,,,,,,,,,,,,,,,221,3,2025-03-10_10h56.38.326,comp,2024.2.4,60.09720311783585,2025-03-10 10h57.11.725538 -0400,
48,48,0,critical,hwd,20.0,1.0,upper,200.0,125.0,125.0,200.0,141.0,141.0,2,1.4618823528289795,None,,,,,0,0,0,0,0,48,48,103,200.3477280139923,,,,,,,,,,,,,,,,,,,,,,,,,,,,,,,,,,,,,,,,,,,,,,,,,,,,,,,,,,,,,,,,,,,,,,,,,,,,,,,,,,200.0,125.0,125.0,200.0,141.0,141.0,1.0,1.1,-738,286,-480,278,-214,282,200.33280038833618,200.3328413963318,200.3353567123413,200.3477280139923,200.4977355003357,200.4977355003357,200.4977355003357,200.4977355003357,200.4977355003357,200.4977355003357,200.4977355003357,201.81561708450317,2,1.4618823528289795,None,,,,,,,,,,,,,,,,,,221,3,2025-03-10_10h56.38.326,comp,2024.2.4,60.09720311783585,2025-03-10 10h57.11.725538 -0400,
49,49,0,critical,dwh,20.0,2.1,upper,141.0,141.0,125.0,200.0,200.0,125.0,3,1.3324241638183594,None,,,,,0,0,0,0,0,49,49,7,201.83108186721802,,,,,,,,,,,,,,,,,,,,,,,,,,,,,,,,,,,,,,,,,,,,,,,,,,,,,,,,,,,,,,,,,,,,,,,,,,,,,,,,,,141.0,141.0,125.0,200.0,200.0,125.0,2.1,2.11,-266,264,0,284,258,-272,201.81641936302185,201.81646013259888,201.8184952735901,201.83108186721802,201.98119473457336,201.98119473457336,201.98119473457336,201.98119473457336,201.98119473457336,201.98119473457336,201.98119473457336,203.16565561294556,3,1.3324241638183594,None,,,,,,,,,,,,,,,,,,221,3,2025-03-10_10h56.38.326,comp,2024.2.4,60.09720311783585,2025-03-10 10h57.11.725538 -0400,
50,50,0,critical,dhw,20.0,2.1,lower,78.0,78.0,133.0,57.0,57.0,133.0,3,1.5664336681365967,None,,,,,0,0,0,0,0,50,50,2,203.1810348033905,,,,,,,,,,,,,,,,,,,,,,,,,,,,,,,,,,,,,,,,,,,,,,,,,,,,,,,,,,,,,,,,,,,,,,,,,,,,,,,,,,78.0,78.0,133.0,57.0,57.0,133.0,2.1,2.11,-164,285,0,259,191,-255,203.16647219657898,203.166512966156,203.16866660118103,203.1810348033905,203.33090806007385,203.33090806007385,203.33090806007385,203.33090806007385,203.33090806007385,203.33090806007385,203.33090806007385,204.7488443851471,3,1.5664336681365967,None,,,,,,,,,,,,,,,,,,221,3,2025-03-10_10h56.38.326,comp,2024.2.4,60.09720311783585,2025-03-10 10h57.11.725538 -0400,
51,51,0,filler_random,None,None,None,None,None,None,None,None,None,None,2,1.0931997299194336,None,,,,,0,0,0,0,0,51,51,159,204.76435589790344,,,,,,,,,,,,,,,,,,,,,,,,,,,,,,,,,,,,,,,,,,,,,,,,,,,,,,,,,,,,,,,,,,,,,,,,,,,,,,,,,,95.00276920074359,95.34690927243877,121.13677246985566,142.95501004537675,80.25377459075212,147.42097664744432,2.1,2.12,-215,-268,0,-270,241,280,204.74976563453674,204.74980783462524,204.7522292137146,204.76435589790344,204.91434383392334,204.91434383392334,204.91434383392334,204.91434383392334,204.91434383392334,204.91434383392334,204.91434383392334,205.86536741256714,2,1.0931997299194336,None,,,,,,,,,,,,,,,,,,221,3,2025-03-10_10h56.38.326,comp,2024.2.4,60.09720311783585,2025-03-10 10h57.11.725538 -0400,
52,52,0,filler_random,None,None,None,None,None,None,None,None,None,None,2,0.8564307689666748,None,,,,,0,0,0,0,0,52,52,153,205.8810534477234,,,,,,,,,,,,,,,,,,,,,,,,,,,,,,,,,,,,,,,,,,,,,,,,,,,,,,,,,,,,,,,,,,,,,,,,,,,,,,,,,,83.84762077124684,72.4064169854542,155.26736180080792,141.3779101661487,141.454811243939,64.21336089509298,3.0,3.1,-203,251,0,-14,199,-255,205.86625742912292,205.86631321907043,205.8685703277588,205.8810534477234,206.03089833259583,206.03089833259583,206.03089833259583,206.03089833259583,206.03089833259583,206.03089833259583,206.03089833259583,206.75072026252747,2,0.8564307689666748,None,,,,,,,,,,,,,,,,,,221,3,2025-03-10_10h56.38.326,comp,2024.2.4,60.09720311783585,2025-03-10 10h57.11.725538 -0400,
53,53,0,filler_square,None,None,None,None,None,None,None,None,None,None,2,0.9243674278259277,None,,,,,0,0,0,0,0,53,53,193,206.76520943641663,,,,,,,,,,,,,,,,,,,,,,,,,,,,,,,,,,,,,,,,,,,,,,,,,,,,,,,,,,,,,,,,,,,,,,,,,,,,,,,,,,123.13461595227675,101.48785675051704,149.9290384137825,149.9290384137825,121.2010291153324,88.11905076808233,2.2,2.22,-222,260,0,-256,215,-285,206.75171613693237,206.75175619125366,206.75387167930603,206.76520943641663,206.91438031196594,206.91438031196594,206.91438031196594,206.91438031196594,206.91438031196594,206.91438031196594,206.91438031196594,207.6988127231598,2,0.9243674278259277,None,,,,,,,,,,,,,,,,,,221,3,2025-03-10_10h56.38.326,comp,2024.2.4,60.09720311783585,2025-03-10 10h57.11.725538 -0400,
54,54,0,critical,hwd,35.0,2.1,lower,133.0,57.0,57.0,133.0,70.0,70.0,2,1.0331411361694336,None,,,,,0,0,0,0,0,54,54,16,207.71433520317078,,,,,,,,,,,,,,,,,,,,,,,,,,,,,,,,,,,,,,,,,,,,,,,,,,,,,,,,,,,,,,,,,,,,,,,,,,,,,,,,,,133.0,57.0,57.0,133.0,70.0,70.0,2.1,2.12,-191,-261,0,-278,198,257,207.69959998130798,207.69963765144348,207.70199704170227,207.71433520317078,207.86421394348145,207.86421394348145,207.86421394348145,207.86421394348145,207.86421394348145,207.86421394348145,207.86421394348145,208.7654263973236,2,1.0331411361694336,None,,,,,,,,,,,,,,,,,,221,3,2025-03-10_10h56.38.326,comp,2024.2.4,60.09720311783585,2025-03-10 10h57.11.725538 -0400,
55,55,0,filler_square,None,None,None,None,None,None,None,None,None,None,3,1.3504412174224854,None,,,,,0,0,0,0,0,55,55,194,208.7807092666626,,,,,,,,,,,,,,,,,,,,,,,,,,,,,,,,,,,,,,,,,,,,,,,,,,,,,,,,,,,,,,,,,,,,,,,,,,,,,,,,,,66.72393332641866,175.03274791725676,145.28067661886814,65.70936959813596,176.98166991163833,176.98166991163833,4.0,4.1,-216,-270,0,14,217,-262,208.7663791179657,208.76642036437988,208.768705368042,208.7807092666626,208.93099451065063,208.93099451065063,208.93099451065063,208.93099451065063,208.93099451065063,208.93099451065063,208.93099451065063,210.14867568016052,3,1.3504412174224854,None,,,,,,,,,,,,,,,,,,221,3,2025-03-10_10h56.38.326,comp,2024.2.4,60.09720311783585,2025-03-10 10h57.11.725538 -0400,
56,56,0,critical,wdh,35.0,4.0,lower,57.0,133.0,70.0,70.0,133.0,57.0,1,1.5173757076263428,None,,,,,0,0,0,0,0,56,56,76,210.1640784740448,,,,,,,,,,,,,,,,,,,,,,,,,,,,,,,,,,,,,,,,,,,,,,,,,,,,,,,,,,,,,,,,,,,,,,,,,,,,,,,,,,57.0,133.0,70.0,70.0,133.0,57.0,4.0,4.2,-198,18,0,-255,160,3,210.14952182769775,210.14956212043762,210.1520071029663,210.1640784740448,210.3141438961029,210.3141438961029,210.3141438961029,210.3141438961029,210.3141438961029,210.3141438961029,210.3141438961029,211.69877076148987,1,1.5173757076263428,None,,,,,,,,,,,,,,,,,,221,3,2025-03-10_10h56.38.326,comp,2024.2.4,60.09720311783585,2025-03-10 10h57.11.725538 -0400,
57,57,0,filler_random,None,None,None,None,None,None,None,None,None,None,2,3.29559063911438,None,,,,,0,0,0,0,0,57,57,135,211.71401715278625,,,,,,,,,,,,,,,,,,,,,,,,,,,,,,,,,,,,,,,,,,,,,,,,,,,,,,,,,,,,,,,,,,,,,,,,,,,,,,,,,,57.33231743154759,139.90843542611236,197.92717011329117,102.07480240624969,152.30049399038433,92.68133256160291,1.0,1.3,263,-272,480,-265,673,-255,211.69969820976257,211.6997377872467,211.70197010040283,211.71401715278625,211.8644504547119,211.8644504547119,211.8644504547119,211.8644504547119,211.8644504547119,211.8644504547119,211.8644504547119,215.0153772830963,2,3.29559063911438,None,,,,,,,,,,,,,,,,,,221,3,2025-03-10_10h56.38.326,comp,2024.2.4,60.09720311783585,2025-03-10 10h57.11.725538 -0400,
58,58,0,critical,wdh,20.0,4.0,upper,125.0,200.0,141.0,141.0,200.0,125.0,1,4.874709844589233,None,,,,,0,0,0,0,0,58,58,83,215.03093600273132,,,,,,,,,,,,,,,,,,,,,,,,,,,,,,,,,,,,,,,,,,,,,,,,,,,,,,,,,,,,,,,,,,,,,,,,,,,,,,,,,,125.0,200.0,141.0,141.0,200.0,125.0,4.0,4.1,-266,-263,0,3,229,-282,215.0161623954773,215.01620388031006,215.01846051216125,215.03093600273132,215.1810691356659,215.1810691356659,215.1810691356659,215.1810691356659,215.1810691356659,215.1810691356659,215.1810691356659,219.91540026664734,1,4.874709844589233,None,,,,,,,,,,,,,,,,,,221,3,2025-03-10_10h56.38.326,comp,2024.2.4,60.09720311783585,2025-03-10 10h57.11.725538 -0400,
59,59,0,filler_square,None,None,None,None,None,None,None,None,None,None,2,0.9104719161987305,None,,,,,0,0,0,0,0,59,59,178,219.93095779418945,,,,,,,,,,,,,,,,,,,,,,,,,,,,,,,,,,,,,,,,,,,,,,,,,,,,,,,,,,,,,,,,,,,,,,,,,,,,,,,,,,86.75960706231635,93.00583380321451,132.01147292137432,132.01147292137432,104.1410800058296,113.7627391781205,4.0,4.2,-209,17,0,-259,219,-3,219.91632556915283,219.9163658618927,219.91852688789368,219.93095779418945,220.0807695388794,220.0807695388794,220.0807695388794,220.0807695388794,220.0807695388794,220.0807695388794,220.0807695388794,220.8485884666443,2,0.9104719161987305,None,,,,,,,,,,,,,,,,,,221,3,2025-03-10_10h56.38.326,comp,2024.2.4,60.09720311783585,2025-03-10 10h57.11.725538 -0400,
60,60,0,catch,None,None,None,None,None,None,None,None,None,None,2,0.8832430839538574,None,,,,,0,0,0,0,0,60,60,124,220.8641641139984,,,,,,,,,,,,,,,,,,,,,,,,,,,,,,,,,,,,,,,,,,,,,,,,,,,,,,,,,,,,,,,,,,,,,,,,,,,,,,,,,,82,108,168,157,80,110,2.2,2.22,-228,276,0,-272,230,-250,220.84963989257812,220.84968066215515,220.85211086273193,220.8641641139984,221.01423025131226,221.01423025131226,221.01423025131226,221.01423025131226,221.01423025131226,221.01423025131226,221.01423025131226,221.74879145622253,2,0.8832430839538574,None,,,,,,,,,,,,,,,,,,221,3,2025-03-10_10h56.38.326,comp,2024.2.4,60.09720311783585,2025-03-10 10h57.11.725538 -0400,
61,61,0,filler_square,None,None,None,None,None,None,None,None,None,None,3,0.9666130542755127,None,,,,,0,0,0,0,0,61,61,170,221.7642982006073,,,,,,,,,,,,,,,,,,,,,,,,,,,,,,,,,,,,,,,,,,,,,,,,,,,,,,,,,,,,,,,,,,,,,,,,,,,,,,,,,,90.79591259481307,60.82857141634671,67.60729893339425,88.32018212068571,107.00445262263293,107.00445262263293,3.0,3.1,-171,287,0,-10,194,-271,221.74976062774658,221.7498016357422,221.7521846294403,221.7642982006073,221.91402506828308,221.91402506828308,221.91402506828308,221.91402506828308,221.91402506828308,221.91402506828308,221.91402506828308,222.74847793579102,3,0.9666130542755127,None,,,,,,,,,,,,,,,,,,221,3,2025-03-10_10h56.38.326,comp,2024.2.4,60.09720311783585,2025-03-10 10h57.11.725538 -0400,
62,62,0,filler_random,None,None,None,None,None,None,None,None,None,None,2,2.172600507736206,None,,,,,0,0,0,0,0,62,62,138,222.76391649246216,,,,,,,,,,,,,,,,,,,,,,,,,,,,,,,,,,,,,,,,,,,,,,,,,,,,,,,,,,,,,,,,,,,,,,,,,,,,,,,,,,185.0558750110731,65.49939135393667,71.9307416749473,182.63078962371776,114.44146875940154,70.92939354332664,4.0,4.2,-220,15,0,-270,223,-2,222.7493839263916,222.74942421913147,222.75167989730835,222.76391649246216,222.9141492843628,222.9141492843628,222.9141492843628,222.9141492843628,222.9141492843628,222.9141492843628,222.9141492843628,224.94891500473022,2,2.172600507736206,None,,,,,,,,,,,,,,,,,,221,3,2025-03-10_10h56.38.326,comp,2024.2.4,60.09720311783585,2025-03-10 10h57.11.725538 -0400,
63,63,0,filler_square,None,None,None,None,None,None,None,None,None,None,3,0.988551139831543,None,,,,,0,0,0,0,0,63,63,173,224.96399998664856,,,,,,,,,,,,,,,,,,,,,,,,,,,,,,,,,,,,,,,,,,,,,,,,,,,,,,,,,,,,,,,,,,,,,,,,,,,,,,,,,,89.52753440007757,104.29870193980933,120.73123126091039,145.3831223079213,178.16438452367538,178.16438452367538,4.0,4.2,-221,-16,0,-282,258,15,224.94984793663025,224.94988632202148,224.9522385597229,224.96399998664856,225.1141767501831,225.1141767501831,225.1141767501831,225.1141767501831,225.1141767501831,225.1141767501831,225.1141767501831,225.96548748016357,3,0.988551139831543,None,,,,,,,,,,,,,,,,,,221,3,2025-03-10_10h56.38.326,comp,2024.2.4,60.09720311783585,2025-03-10 10h57.11.725538 -0400,
64,64,0,critical,wdh,20.0,1.0,lower,57.0,133.0,78.0,78.0,133.0,57.0,3,2.0201361179351807,None,,,,,0,0,0,0,0,64,64,78,225.98074007034302,,,,,,,,,,,,,,,,,,,,,,,,,,,,,,,,,,,,,,,,,,,,,,,,,,,,,,,,,,,,,,,,,,,,,,,,,,,,,,,,,,57.0,133.0,78.0,78.0,133.0,57.0,1.0,1.3,278,-266,480,-274,644,-283,225.96627807617188,225.96633434295654,225.96835279464722,225.98074007034302,226.13075304031372,226.13075304031372,226.13075304031372,226.13075304031372,226.13075304031372,226.13075304031372,226.13075304031372,228.01523065567017,3,2.0201361179351807,None,,,,,,,,,,,,,,,,,,221,3,2025-03-10_10h56.38.326,comp,2024.2.4,60.09720311783585,2025-03-10 10h57.11.725538 -0400,
65,65,0,critical,wdh,35.0,3.0,upper,125.0,200.0,127.0,127.0,200.0,125.0,3,0.994908332824707,None,,,,,0,0,0,0,0,65,65,75,228.03056263923645,,,,,,,,,,,,,,,,,,,,,,,,,,,,,,,,,,,,,,,,,,,,,,,,,,,,,,,,,,,,,,,,,,,,,,,,,,,,,,,,,,125.0,200.0,127.0,127.0,200.0,125.0,3.0,3.1,-260,271,0,-3,222,-250,228.01604509353638,228.01608610153198,228.0185742378235,228.03056263923645,228.18087124824524,228.18087124824524,228.18087124824524,228.18087124824524,228.18087124824524,228.18087124824524,228.18087124824524,229.03203868865967,3,0.994908332824707,None,,,,,,,,,,,,,,,,,,221,3,2025-03-10_10h56.38.326,comp,2024.2.4,60.09720311783585,2025-03-10 10h57.11.725538 -0400,
66,66,0,critical,wdh,20.0,2.1,upper,125.0,200.0,141.0,141.0,200.0,125.0,3,1.2995448112487793,None,,,,,0,0,0,0,0,66,66,11,229.04741787910461,,,,,,,,,,,,,,,,,,,,,,,,,,,,,,,,,,,,,,,,,,,,,,,,,,,,,,,,,,,,,,,,,,,,,,,,,,,,,,,,,,125.0,200.0,141.0,141.0,200.0,125.0,2.1,2.12,-266,-286,0,-270,229,279,229.03287959098816,229.03292155265808,229.03546118736267,229.04741787910461,229.19754362106323,229.19754362106323,229.19754362106323,229.19754362106323,229.19754362106323,229.19754362106323,229.19754362106323,230.3490641117096,3,1.2995448112487793,None,,,,,,,,,,,,,,,,,,221,3,2025-03-10_10h56.38.326,comp,2024.2.4,60.09720311783585,2025-03-10 10h57.11.725538 -0400,
67,67,0,critical,dhw,35.0,4.0,upper,127.0,127.0,200.0,125.0,125.0,200.0,3,1.693199634552002,None,,,,,0,0,0,0,0,67,67,53,230.36417961120605,,,,,,,,,,,,,,,,,,,,,,,,,,,,,,,,,,,,,,,,,,,,,,,,,,,,,,,,,,,,,,,,,,,,,,,,,,,,,,,,,,127.0,127.0,200.0,125.0,125.0,200.0,4.0,4.1,-222,-266,0,17,258,-277,230.34983348846436,230.34987568855286,230.3522596359253,230.36417961120605,230.51416087150574,230.51416087150574,230.51416087150574,230.51416087150574,230.51416087150574,230.51416087150574,230.51416087150574,232.06532502174377,3,1.693199634552002,None,,,,,,,,,,,,,,,,,,221,3,2025-03-10_10h56.38.326,comp,2024.2.4,60.09720311783585,2025-03-10 10h57.11.725538 -0400,
68,68,0,filler_random,None,None,None,None,None,None,None,None,None,None,3,0.8086166381835938,None,,,,,0,0,0,0,0,68,68,162,232.08085441589355,,,,,,,,,,,,,,,,,,,,,,,,,,,,,,,,,,,,,,,,,,,,,,,,,,,,,,,,,,,,,,,,,,,,,,,,,,,,,,,,,,187.51972440160333,64.38494318975725,88.20319550149505,175.83690563212753,180.89623911254353,174.11210215826793,3.0,3.1,-216,260,0,-20,271,-273,232.06619143486023,232.06623220443726,232.0684199333191,232.08085441589355,232.23086047172546,232.23086047172546,232.23086047172546,232.23086047172546,232.23086047172546,232.23086047172546,232.23086047172546,232.89876794815063,3,0.8086166381835938,None,,,,,,,,,,,,,,,,,,221,3,2025-03-10_10h56.38.326,comp,2024.2.4,60.09720311783585,2025-03-10 10h57.11.725538 -0400,
69,69,0,filler_square,None,None,None,None,None,None,None,None,None,None,3,4.367018222808838,None,,,,,0,0,0,0,0,69,69,196,232.91416311264038,,,,,,,,,,,,,,,,,,,,,,,,,,,,,,,,,,,,,,,,,,,,,,,,,,,,,,,,,,,,,,,,,,,,,,,,,,,,,,,,,,85.6869927200068,85.6869927200068,67.73612102921702,58.665465609044176,78.53390894019165,85.463526474737,4.0,4.2,-168,-1,0,-285,168,-17,232.89971327781677,232.89975452423096,232.90235209465027,232.91416311264038,233.06393194198608,233.06393194198608,233.06393194198608,233.06393194198608,233.06393194198608,233.06393194198608,233.06393194198608,237.2984495162964,3,4.367018222808838,None,,,,,,,,,,,,,,,,,,221,3,2025-03-10_10h56.38.326,comp,2024.2.4,60.09720311783585,2025-03-10 10h57.11.725538 -0400,
70,70,0,critical,dwh,35.0,1.0,lower,70.0,70.0,57.0,133.0,133.0,57.0,3,1.270634651184082,None,,,,,0,0,0,0,0,70,70,60,237.31387567520142,,,,,,,,,,,,,,,,,,,,,,,,,,,,,,,,,,,,,,,,,,,,,,,,,,,,,,,,,,,,,,,,,,,,,,,,,,,,,,,,,,70.0,70.0,57.0,133.0,133.0,57.0,1.0,1.2,-198,17,0,-6,191,-6,237.299222946167,237.29926180839539,237.30150723457336,237.31387567520142,237.4639368057251,237.4639368057251,237.4639368057251,237.4639368057251,237.4639368057251,237.4639368057251,237.4639368057251,238.59915733337402,3,1.270634651184082,None,,,,,,,,,,,,,,,,,,221,3,2025-03-10_10h56.38.326,comp,2024.2.4,60.09720311783585,2025-03-10 10h57.11.725538 -0400,
71,71,0,filler_square,None,None,None,None,None,None,None,None,None,None,1,2.5644960403442383,None,,,,,0,0,0,0,0,71,71,199,238.61444211006165,,,,,,,,,,,,,,,,,,,,,,,,,,,,,,,,,,,,,,,,,,,,,,,,,,,,,,,,,,,,,,,,,,,,,,,,,,,,,,,,,,89.42681751602319,89.42681751602319,61.75760303836353,85.8460698828347,69.95144316458992,81.34877317692965,4.0,4.1,-184,-266,0,-11,180,-270,238.60014939308167,238.60019040107727,238.60210418701172,238.61444211006165,238.7645070552826,238.7645070552826,238.7645070552826,238.7645070552826,238.7645070552826,238.7645070552826,238.7645070552826,241.18195009231567,1,2.5644960403442383,None,,,,,,,,,,,,,,,,,,221,3,2025-03-10_10h56.38.326,comp,2024.2.4,60.09720311783585,2025-03-10 10h57.11.725538 -0400,
72,72,0,filler_square,None,None,None,None,None,None,None,None,None,None,1,1.1966230869293213,None,,,,,0,0,0,0,0,72,72,202,241.19745683670044,,,,,,,,,,,,,,,,,,,,,,,,,,,,,,,,,,,,,,,,,,,,,,,,,,,,,,,,,,,,,,,,,,,,,,,,,,,,,,,,,,113.52669926500879,113.52669926500879,109.99806034860259,87.32269878298611,60.90550034419976,86.21644710955565,3.0,3.1,-196,257,0,0,183,-262,241.1829149723053,241.1829571723938,241.18505954742432,241.19745683670044,241.34737300872803,241.34737300872803,241.34737300872803,241.34737300872803,241.34737300872803,241.34737300872803,241.34737300872803,242.39862203598022,1,1.1966230869293213,None,,,,,,,,,,,,,,,,,,221,3,2025-03-10_10h56.38.326,comp,2024.2.4,60.09720311783585,2025-03-10 10h57.11.725538 -0400,
73,73,0,critical,hdw,20.0,1.0,lower,133.0,57.0,78.0,78.0,57.0,133.0,2,2.333111524581909,None,,,,,0,0,0,0,0,73,73,114,242.4142026901245,,,,,,,,,,,,,,,,,,,,,,,,,,,,,,,,,,,,,,,,,,,,,,,,,,,,,,,,,,,,,,,,,,,,,,,,,,,,,,,,,,133.0,57.0,78.0,78.0,57.0,133.0,1.0,1.1,-644,257,-480,281,-278,262,242.3994550704956,242.39949584007263,242.40156412124634,242.4142026901245,242.56400179862976,242.56400179862976,242.56400179862976,242.56400179862976,242.56400179862976,242.56400179862976,242.56400179862976,244.76512956619263,2,2.333111524581909,None,,,,,,,,,,,,,,,,,,221,3,2025-03-10_10h56.38.326,comp,2024.2.4,60.09720311783585,2025-03-10 10h57.11.725538 -0400,
74,74,0,filler_random,None,None,None,None,None,None,None,None,None,None,3,2.2131268978118896,None,,,,,0,0,0,0,0,74,74,133,244.78046441078186,,,,,,,,,,,,,,,,,,,,,,,,,,,,,,,,,,,,,,,,,,,,,,,,,,,,,,,,,,,,,,,,,,,,,,,,,,,,,,,,,,103.57603574392516,194.7938888455586,86.52482740744681,180.66204601590158,124.51315655090542,184.23527085390307,2.2,2.22,-284,253,0,-263,278,-278,244.76607704162598,244.76611757278442,244.76863360404968,244.78046441078186,244.93078184127808,244.93078184127808,244.93078184127808,244.93078184127808,244.93078184127808,244.93078184127808,244.93078184127808,246.9985830783844,3,2.2131268978118896,None,,,,,,,,,,,,,,,,,,221,3,2025-03-10_10h56.38.326,comp,2024.2.4,60.09720311783585,2025-03-10 10h57.11.725538 -0400,
75,75,0,filler_random,None,None,None,None,None,None,None,None,None,None,1,1.6592915058135986,None,,,,,0,0,0,0,0,75,75,143,247.01401925086975,,,,,,,,,,,,,,,,,,,,,,,,,,,,,,,,,,,,,,,,,,,,,,,,,,,,,,,,,,,,,,,,,,,,,,,,,,,,,,,,,,116.26282872582314,148.34394986194775,86.9835470768235,82.8674257669467,93.52321482728323,85.04569548957151,3.0,3.2,-212,-284,0,20,180,265,246.9994659423828,246.99950575828552,247.00183773040771,247.01401925086975,247.16394639015198,247.16394639015198,247.16394639015198,247.16394639015198,247.16394639015198,247.16394639015198,247.16394639015198,248.68164610862732,1,1.6592915058135986,None,,,,,,,,,,,,,,,,,,221,3,2025-03-10_10h56.38.326,comp,2024.2.4,60.09720311783585,2025-03-10 10h57.11.725538 -0400,
76,76,0,filler_square,None,None,None,None,None,None,None,None,None,None,3,1.8000702857971191,None,,,,,0,0,0,0,0,76,76,187,248.69735550880432,,,,,,,,,,,,,,,,,,,,,,,,,,,,,,,,,,,,,,,,,,,,,,,,,,,,,,,,,,,,,,,,,,,,,,,,,,,,,,,,,,72.2075126140223,62.59785809671974,61.24997848694856,71.63786078026139,84.14411915526145,84.14411915526145,2.1,2.12,-163,-257,0,-253,174,265,248.6826000213623,248.68263983726501,248.6850278377533,248.69735550880432,248.84719729423523,248.84719729423523,248.84719729423523,248.84719729423523,248.84719729423523,248.84719729423523,248.84719729423523,250.51505613327026,3,1.8000702857971191,None,,,,,,,,,,,,,,,,,,221,3,2025-03-10_10h56.38.326,comp,2024.2.4,60.09720311783585,2025-03-10 10h57.11.725538 -0400,
77,77,0,critical,hwd,35.0,2.1,lower,133.0,57.0,57.0,133.0,70.0,70.0,3,1.2638943195343018,None,,,,,0,0,0,0,0,77,77,40,250.53048849105835,,,,,,,,,,,,,,,,,,,,,,,,,,,,,,,,,,,,,,,,,,,,,,,,,,,,,,,,,,,,,,,,,,,,,,,,,,,,,,,,,,133.0,57.0,57.0,133.0,70.0,70.0,2.1,2.12,-191,-286,0,-286,198,252,250.5158727169037,250.51591300964355,250.51842665672302,250.53048849105835,250.68065309524536,250.68065309524536,250.68065309524536,250.68065309524536,250.68065309524536,250.68065309524536,250.68065309524536,251.798513174057,3,1.2638943195343018,None,,,,,,,,,,,,,,,,,,221,3,2025-03-10_10h56.38.326,comp,2024.2.4,60.09720311783585,2025-03-10 10h57.11.725538 -0400,
78,78,0,filler_random,None,None,None,None,None,None,None,None,None,None,1,0.850661039352417,None,,,,,0,0,0,0,0,78,78,169,251.81392455101013,,,,,,,,,,,,,,,,,,,,,,,,,,,,,,,,,,,,,,,,,,,,,,,,,,,,,,,,,,,,,,,,,,,,,,,,,,,,,,,,,,132.9621795505683,194.40576396779662,59.532827828786445,133.30784374331898,68.23372281965763,113.7106988460259,3.0,3.2,-260,-257,0,-18,220,275,251.79942655563354,251.79946517944336,251.80178809165955,251.81392455101013,251.96394419670105,251.96394419670105,251.96394419670105,251.96394419670105,251.96394419670105,251.96394419670105,251.96394419670105,252.68188643455505,1,0.850661039352417,None,,,,,,,,,,,,,,,,,,221,3,2025-03-10_10h56.38.326,comp,2024.2.4,60.09720311783585,2025-03-10 10h57.11.725538 -0400,
79,79,0,critical,whd,20.0,2.1,lower,57.0,133.0,133.0,57.0,78.0,78.0,2,1.5354704856872559,None,,,,,0,0,0,0,0,79,79,14,252.6971173286438,,,,,,,,,,,,,,,,,,,,,,,,,,,,,,,,,,,,,,,,,,,,,,,,,,,,,,,,,,,,,,,,,,,,,,,,,,,,,,,,,,57.0,133.0,133.0,57.0,78.0,78.0,2.1,2.12,-191,-253,0,-262,164,274,252.68269109725952,252.6827290058136,252.6850564479828,252.6971173286438,252.8471496105194,252.8471496105194,252.8471496105194,252.8471496105194,252.8471496105194,252.8471496105194,252.8471496105194,254.24821162223816,2,1.5354704856872559,None,,,,,,,,,,,,,,,,,,221,3,2025-03-10_10h56.38.326,comp,2024.2.4,60.09720311783585,2025-03-10 10h57.11.725538 -0400,
80,80,0,critical,hdw,35.0,1.0,upper,200.0,125.0,127.0,127.0,125.0,200.0,3,1.5214288234710693,None,,,,,0,0,0,0,0,80,80,109,254.26372385025024,,,,,,,,,,,,,,,,,,,,,,,,,,,,,,,,,,,,,,,,,,,,,,,,,,,,,,,,,,,,,,,,,,,,,,,,,,,,,,,,,,200.0,125.0,127.0,127.0,125.0,200.0,1.0,1.3,258,-282,480,-263,740,-258,254.24902057647705,254.24906063079834,254.25123691558838,254.26372385025024,254.41407179832458,254.41407179832458,254.41407179832458,254.41407179832458,254.41407179832458,254.41407179832458,254.41407179832458,255.79851531982422,3,1.5214288234710693,None,,,,,,,,,,,,,,,,,,221,3,2025-03-10_10h56.38.326,comp,2024.2.4,60.09720311783585,2025-03-10 10h57.11.725538 -0400,
81,81,0,filler_random,None,None,None,None,None,None,None,None,None,None,1,4.091806650161743,None,,,,,0,0,0,0,0,81,81,150,255.81384181976318,,,,,,,,,,,,,,,,,,,,,,,,,,,,,,,,,,,,,,,,,,,,,,,,,,,,,,,,,,,,,,,,,,,,,,,,,,,,,,,,,,143.92207630992962,130.4190965228068,158.5385622765118,107.73292063371636,141.96694450956136,118.2999904106708,3.0,3.1,-215,281,0,-15,209,-268,255.79942202568054,255.79946303367615,255.80270051956177,255.81384181976318,255.96389412879944,255.96389412879944,255.96389412879944,255.96389412879944,255.96389412879944,255.96389412879944,255.96389412879944,259.91522216796875,1,4.091806650161743,None,,,,,,,,,,,,,,,,,,221,3,2025-03-10_10h56.38.326,comp,2024.2.4,60.09720311783585,2025-03-10 10h57.11.725538 -0400,
82,82,0,critical,whd,20.0,2.1,upper,125.0,200.0,200.0,125.0,141.0,141.0,2,2.2699105739593506,None,,,,,0,0,0,0,0,82,82,15,259.93065547943115,,,,,,,,,,,,,,,,,,,,,,,,,,,,,,,,,,,,,,,,,,,,,,,,,,,,,,,,,,,,,,,,,,,,,,,,,,,,,,,,,,125.0,200.0,200.0,125.0,141.0,141.0,2.1,2.12,-258,-259,0,-288,229,256,259.91601490974426,259.916054725647,259.918497800827,259.93065547943115,260.0806784629822,260.0806784629822,260.0806784629822,260.0806784629822,260.0806784629822,260.0806784629822,260.0806784629822,262.2152223587036,2,2.2699105739593506,None,,,,,,,,,,,,,,,,,,221,3,2025-03-10_10h56.38.326,comp,2024.2.4,60.09720311783585,2025-03-10 10h57.11.725538 -0400,
83,83,0,filler_random,None,None,None,None,None,None,None,None,None,None,3,0.9945714473724365,None,,,,,0,0,0,0,0,83,83,132,262.2306354045868,,,,,,,,,,,,,,,,,,,,,,,,,,,,,,,,,,,,,,,,,,,,,,,,,,,,,,,,,,,,,,,,,,,,,,,,,,,,,,,,,,149.33761952869617,138.0091063461403,108.79341974595681,177.39913188457257,188.03227596650234,161.35208963558136,4.0,4.2,-254,3,0,-266,265,-10,262.21612644195557,262.2161681652069,262.21863651275635,262.2306354045868,262.3806164264679,262.3806164264679,262.3806164264679,262.3806164264679,262.3806164264679,262.3806164264679,262.3806164264679,263.23193311691284,3,0.9945714473724365,None,,,,,,,,,,,,,,,,,,221,3,2025-03-10_10h56.38.326,comp,2024.2.4,60.09720311783585,2025-03-10 10h57.11.725538 -0400,
84,84,0,critical,whd,35.0,2.1,lower,57.0,133.0,133.0,57.0,70.0,70.0,2,6.201017618179321,None,,,,,0,0,0,0,0,84,84,12,263.2474024295807,,,,,,,,,,,,,,,,,,,,,,,,,,,,,,,,,,,,,,,,,,,,,,,,,,,,,,,,,,,,,,,,,,,,,,,,,,,,,,,,,,57.0,133.0,133.0,57.0,70.0,70.0,2.1,2.12,-191,-272,0,-285,160,258,263.2327296733856,263.23277020454407,263.2351334095001,263.2474024295807,263.3971748352051,263.3971748352051,263.3971748352051,263.3971748352051,263.3971748352051,263.3971748352051,263.3971748352051,269.4648554325104,2,6.201017618179321,None,,,,,,,,,,,,,,,,,,221,3,2025-03-10_10h56.38.326,comp,2024.2.4,60.09720311783585,2025-03-10 10h57.11.725538 -0400,
85,85,0,filler_square,None,None,None,None,None,None,None,None,None,None,3,0.9286870956420898,None,,,,,0,0,0,0,0,85,85,180,269.4803876876831,,,,,,,,,,,,,,,,,,,,,,,,,,,,,,,,,,,,,,,,,,,,,,,,,,,,,,,,,,,,,,,,,,,,,,,,,,,,,,,,,,91.38873963588115,119.07949540908015,133.19214430476512,78.57666418622739,159.35519312674455,159.35519312674455,2.1,2.11,-195,264,0,263,215,-281,269.4658451080322,269.4658873081207,269.4683184623718,269.4803876876831,269.63045859336853,269.63045859336853,269.63045859336853,269.63045859336853,269.63045859336853,269.63045859336853,269.63045859336853,270.4150140285492,3,0.9286870956420898,None,,,,,,,,,,,,,,,,,,221,3,2025-03-10_10h56.38.326,comp,2024.2.4,60.09720311783585,2025-03-10 10h57.11.725538 -0400,
86,86,0,critical,hwd,20.0,2.1,upper,200.0,125.0,125.0,200.0,141.0,141.0,3,1.9786229133605957,None,,,,,0,0,0,0,0,86,86,43,270.4305169582367,,,,,,,,,,,,,,,,,,,,,,,,,,,,,,,,,,,,,,,,,,,,,,,,,,,,,,,,,,,,,,,,,,,,,,,,,,,,,,,,,,200.0,125.0,125.0,200.0,141.0,141.0,2.1,2.11,-258,254,0,280,266,-259,270.4158239364624,270.41586470603943,270.41823649406433,270.4305169582367,270.5805950164795,270.5805950164795,270.5805950164795,270.5805950164795,270.5805950164795,270.5805950164795,270.5805950164795,272.41513538360596,3,1.9786229133605957,None,,,,,,,,,,,,,,,,,,221,3,2025-03-10_10h56.38.326,comp,2024.2.4,60.09720311783585,2025-03-10 10h57.11.725538 -0400,
87,87,0,critical,hwd,20.0,3.0,upper,200.0,125.0,125.0,200.0,141.0,141.0,2,1.62646484375,None,,,,,0,0,0,0,0,87,87,105,272.43060398101807,,,,,,,,,,,,,,,,,,,,,,,,,,,,,,,,,,,,,,,,,,,,,,,,,,,,,,,,,,,,,,,,,,,,,,,,,,,,,,,,,,200.0,125.0,125.0,200.0,141.0,141.0,3.0,3.1,-258,284,0,11,266,-256,272.4159450531006,272.4159851074219,272.4185092449188,272.43060398101807,272.5806174278259,272.5806174278259,272.5806174278259,272.5806174278259,272.5806174278259,272.5806174278259,272.5806174278259,274.06507182121277,2,1.62646484375,None,,,,,,,,,,,,,,,,,,221,3,2025-03-10_10h56.38.326,comp,2024.2.4,60.09720311783585,2025-03-10 10h57.11.725538 -0400,
88,88,0,critical,hdw,35.0,3.0,upper,200.0,125.0,127.0,127.0,125.0,200.0,3,1.1285009384155273,None,,,,,0,0,0,0,0,88,88,111,274.0805923938751,,,,,,,,,,,,,,,,,,,,,,,,,,,,,,,,,,,,,,,,,,,,,,,,,,,,,,,,,,,,,,,,,,,,,,,,,,,,,,,,,,200.0,125.0,127.0,127.0,125.0,200.0,3.0,3.1,-222,264,0,18,260,-275,274.0658504962921,274.06588983535767,274.0682272911072,274.0805923938751,274.23070788383484,274.23070788383484,274.23070788383484,274.23070788383484,274.23070788383484,274.23070788383484,274.23070788383484,275.215047121048,3,1.1285009384155273,None,,,,,,,,,,,,,,,,,,221,3,2025-03-10_10h56.38.326,comp,2024.2.4,60.09720311783585,2025-03-10 10h57.11.725538 -0400,
89,89,0,critical,dwh,35.0,3.0,upper,127.0,127.0,125.0,200.0,200.0,125.0,3,2.978480100631714,None,,,,,0,0,0,0,0,89,89,63,275.23063111305237,,,,,,,,,,,,,,,,,,,,,,,,,,,,,,,,,,,,,,,,,,,,,,,,,,,,,,,,,,,,,,,,,,,,,,,,,,,,,,,,,,127.0,127.0,125.0,200.0,200.0,125.0,3.0,3.2,-260,-274,0,2,258,280,275.2158226966858,275.2158627510071,275.2181978225708,275.23063111305237,275.3806834220886,275.3806834220886,275.3806834220886,275.3806834220886,275.3806834220886,275.3806834220886,275.3806834220886,278.2150158882141,3,2.978480100631714,None,,,,,,,,,,,,,,,,,,221,3,2025-03-10_10h56.38.326,comp,2024.2.4,60.09720311783585,2025-03-10 10h57.11.725538 -0400,
90,90,0,critical,whd,20.0,1.0,lower,57.0,133.0,133.0,57.0,78.0,78.0,1,1.332352638244629,None,,,,,0,0,0,0,0,90,90,90,278.2305908203125,,,,,,,,,,,,,,,,,,,,,,,,,,,,,,,,,,,,,,,,,,,,,,,,,,,,,,,,,,,,,,,,,,,,,,,,,,,,,,,,,,57.0,133.0,133.0,57.0,78.0,78.0,1.0,1.1,-671,267,-480,252,-316,255,278.2157733440399,278.2158110141754,278.21814584732056,278.2305908203125,278.3803520202637,278.3803520202637,278.3803520202637,278.3803520202637,278.3803520202637,278.3803520202637,278.3803520202637,279.58136534690857,1,1.332352638244629,None,,,,,,,,,,,,,,,,,,221,3,2025-03-10_10h56.38.326,comp,2024.2.4,60.09720311783585,2025-03-10 10h57.11.725538 -0400,
91,91,0,filler_square,None,None,None,None,None,None,None,None,None,None,1,1.2282750606536865,None,,,,,0,0,0,0,0,91,91,174,279.596866607666,,,,,,,,,,,,,,,,,,,,,,,,,,,,,,,,,,,,,,,,,,,,,,,,,,,,,,,,,,,,,,,,,,,,,,,,,,,,,,,,,,175.9376555842242,175.9376555842242,152.7568763660306,90.13742399795038,109.37724664825498,70.35920244432181,4.0,4.2,-229,8,0,-268,176,-3,279.58232069015503,279.5823621749878,279.58466053009033,279.596866607666,279.74714517593384,279.74714517593384,279.74714517593384,279.74714517593384,279.74714517593384,279.74714517593384,279.74714517593384,280.83170318603516,1,1.2282750606536865,None,,,,,,,,,,,,,,,,,,221,3,2025-03-10_10h56.38.326,comp,2024.2.4,60.09720311783585,2025-03-10 10h57.11.725538 -0400,
92,92,0,filler_random,None,None,None,None,None,None,None,None,None,None,2,2.7937803268432617,None,,,,,0,0,0,0,0,92,92,154,280.84721302986145,,,,,,,,,,,,,,,,,,,,,,,,,,,,,,,,,,,,,,,,,,,,,,,,,,,,,,,,,,,,,,,,,,,,,,,,,,,,,,,,,,86.3119825427146,105.49321347543275,154.3035058638059,116.90583951418739,97.02673727468976,188.34152208327401,2.1,2.12,-207,-255,0,-269,249,271,280.83260679244995,280.83264684677124,280.8349919319153,280.84721302986145,280.99722123146057,280.99722123146057,280.99722123146057,280.99722123146057,280.99722123146057,280.99722123146057,280.99722123146057,283.64820647239685,2,2.7937803268432617,None,,,,,,,,,,,,,,,,,,221,3,2025-03-10_10h56.38.326,comp,2024.2.4,60.09720311783585,2025-03-10 10h57.11.725538 -0400,
93,93,0,catch,None,None,None,None,None,None,None,None,None,None,2,2.4412083625793457,None,,,,,0,0,0,0,0,93,93,123,283.6638035774231,,,,,,,,,,,,,,,,,,,,,,,,,,,,,,,,,,,,,,,,,,,,,,,,,,,,,,,,,,,,,,,,,,,,,,,,,,,,,,,,,,100,90,172,153,74,116,1.0,1.1,-698,271,-480,255,-250,281,283.64921617507935,283.6492552757263,283.65146255493164,283.6638035774231,283.8137285709381,283.8137285709381,283.8137285709381,283.8137285709381,283.8137285709381,283.8137285709381,283.8137285709381,286.11489844322205,2,2.4412083625793457,None,,,,,,,,,,,,,,,,,,221,3,2025-03-10_10h56.38.326,comp,2024.2.4,60.09720311783585,2025-03-10 10h57.11.725538 -0400,
94,94,0,filler_random,None,None,None,None,None,None,None,None,None,None,2,0.9584619998931885,None,,,,,0,0,0,0,0,94,94,130,286.130578994751,,,,,,,,,,,,,,,,,,,,,,,,,,,,,,,,,,,,,,,,,,,,,,,,,,,,,,,,,,,,,,,,,,,,,,,,,,,,,,,,,,127.59902590400779,103.56474834121593,177.51966015349598,185.5114026142239,94.1781007662239,153.9595932413551,1.0,1.3,239,-272,480,-272,746,-258,286.1158287525177,286.1158697605133,286.1182017326355,286.130578994751,286.28052258491516,286.28052258491516,286.28052258491516,286.28052258491516,286.28052258491516,286.28052258491516,286.28052258491516,287.0982472896576,2,0.9584619998931885,None,,,,,,,,,,,,,,,,,,221,3,2025-03-10_10h56.38.326,comp,2024.2.4,60.09720311783585,2025-03-10 10h57.11.725538 -0400,
95,95,0,critical,whd,35.0,2.1,upper,125.0,200.0,200.0,125.0,127.0,127.0,2,3.495317220687866,None,,,,,0,0,0,0,0,95,95,13,287.1137752532959,,,,,,,,,,,,,,,,,,,,,,,,,,,,,,,,,,,,,,,,,,,,,,,,,,,,,,,,,,,,,,,,,,,,,,,,,,,,,,,,,,125.0,200.0,200.0,125.0,127.0,127.0,2.1,2.12,-258,-286,0,-287,222,266,287.09905099868774,287.0990915298462,287.1010503768921,287.1137752532959,287.26456117630005,287.26456117630005,287.26456117630005,287.26456117630005,287.26456117630005,287.26456117630005,287.26456117630005,290.6151113510132,2,3.495317220687866,None,,,,,,,,,,,,,,,,,,221,3,2025-03-10_10h56.38.326,comp,2024.2.4,60.09720311783585,2025-03-10 10h57.11.725538 -0400,
96,96,0,critical,hdw,20.0,1.0,upper,200.0,125.0,141.0,141.0,125.0,200.0,3,1.490401268005371,None,,,,,0,0,0,0,0,96,96,115,290.6305558681488,,,,,,,,,,,,,,,,,,,,,,,,,,,,,,,,,,,,,,,,,,,,,,,,,,,,,,,,,,,,,,,,,,,,,,,,,,,,,,,,,,200.0,125.0,141.0,141.0,125.0,200.0,1.0,1.2,-229,18,0,3,266,0,290.61587023735046,290.61590933799744,290.61826848983765,290.6305558681488,290.78048872947693,290.78048872947693,290.78048872947693,290.78048872947693,290.78048872947693,290.78048872947693,290.78048872947693,292.131653547287,3,1.490401268005371,None,,,,,,,,,,,,,,,,,,221,3,2025-03-10_10h56.38.326,comp,2024.2.4,60.09720311783585,2025-03-10 10h57.11.725538 -0400,
97,97,0,filler_square,None,None,None,None,None,None,None,None,None,None,3,1.89388108253479,None,,,,,0,0,0,0,0,97,97,204,292.1470437049866,,,,,,,,,,,,,,,,,,,,,,,,,,,,,,,,,,,,,,,,,,,,,,,,,,,,,,,,,,,,,,,,,,,,,,,,,,,,,,,,,,78.67503920278654,100.70227941866537,93.48882565831823,84.24717481109428,106.46962564437283,106.46962564437283,2.1,2.11,-188,268,0,288,191,-272,292.13257026672363,292.1326117515564,292.1349091529846,292.1470437049866,292.2969343662262,292.2969343662262,292.2969343662262,292.2969343662262,292.2969343662262,292.2969343662262,292.2969343662262,294.0479955673218,3,1.89388108253479,None,,,,,,,,,,,,,,,,,,221,3,2025-03-10_10h56.38.326,comp,2024.2.4,60.09720311783585,2025-03-10 10h57.11.725538 -0400,
98,98,0,filler_random,None,None,None,None,None,None,None,None,None,None,1,1.0991604328155518,None,,,,,0,0,0,0,0,98,98,139,294.06370282173157,,,,,,,,,,,,,,,,,,,,,,,,,,,,,,,,,,,,,,,,,,,,,,,,,,,,,,,,,,,,,,,,,,,,,,,,,,,,,,,,,,182.43280199615202,160.78138165613169,122.8546674341809,133.18730378240673,73.07648928088878,163.9596128255294,3.0,3.2,-243,-276,0,4,245,289,294.04893732070923,294.04897809028625,294.05152106285095,294.06370282173157,294.21370124816895,294.21370124816895,294.21370124816895,294.21370124816895,294.21370124816895,294.21370124816895,294.21370124816895,295.16495513916016,1,1.0991604328155518,None,,,,,,,,,,,,,,,,,,221,3,2025-03-10_10h56.38.326,comp,2024.2.4,60.09720311783585,2025-03-10 10h57.11.725538 -0400,
99,99,0,critical,dhw,20.0,3.0,lower,78.0,78.0,133.0,57.0,57.0,133.0,3,1.9338045120239258,None,,,,,0,0,0,0,0,99,99,56,295.18034863471985,,,,,,,,,,,,,,,,,,,,,,,,,,,,,,,,,,,,,,,,,,,,,,,,,,,,,,,,,,,,,,,,,,,,,,,,,,,,,,,,,,78.0,78.0,133.0,57.0,57.0,133.0,3.0,3.2,-164,-282,0,-15,191,276,295.16576528549194,295.1658055782318,295.1682438850403,295.18034863471985,295.3302252292633,295.3302252292633,295.3302252292633,295.3302252292633,295.3302252292633,295.3302252292633,295.3302252292633,297.13175439834595,3,1.9338045120239258,None,,,,,,,,,,,,,,,,,,221,3,2025-03-10_10h56.38.326,comp,2024.2.4,60.09720311783585,2025-03-10 10h57.11.725538 -0400,
100,100,0,critical,whd,35.0,3.0,upper,125.0,200.0,200.0,125.0,127.0,127.0,2,1.9745702743530273,None,,,,,0,0,0,0,0,100,100,87,297.14687609672546,,,,,,,,,,,,,,,,,,,,,,,,,,,,,,,,,,,,,,,,,,,,,,,,,,,,,,,,,,,,,,,,,,,,,,,,,,,,,,,,,,125.0,200.0,200.0,125.0,127.0,127.0,3.0,3.1,-258,288,0,-7,222,-271,297.13255167007446,297.1325924396515,297.1349494457245,297.14687609672546,297.2970702648163,297.2970702648163,297.2970702648163,297.2970702648163,297.2970702648163,297.2970702648163,297.2970702648163,299.131502866745,2,1.9745702743530273,None,,,,,,,,,,,,,,,,,,221,3,2025-03-10_10h56.38.326,comp,2024.2.4,60.09720311783585,2025-03-10 10h57.11.725538 -0400,
101,101,0,critical,whd,35.0,1.0,upper,125.0,200.0,200.0,125.0,127.0,127.0,2,2.3835010528564453,None,,,,,0,0,0,0,0,101,101,85,299.1470820903778,,,,,,,,,,,,,,,,,,,,,,,,,,,,,,,,,,,,,,,,,,,,,,,,,,,,,,,,,,,,,,,,,,,,,,,,,,,,,,,,,,125.0,200.0,200.0,125.0,127.0,127.0,1.0,1.2,-258,-14,0,-20,222,8,299.13226532936096,299.132319688797,299.13559556007385,299.1470820903778,299.2970654964447,299.2970654964447,299.2970654964447,299.2970654964447,299.2970654964447,299.2970654964447,299.2970654964447,301.53179574012756,2,2.3835010528564453,None,,,,,,,,,,,,,,,,,,221,3,2025-03-10_10h56.38.326,comp,2024.2.4,60.09720311783585,2025-03-10 10h57.11.725538 -0400,
102,102,0,critical,dwh,35.0,2.1,lower,70.0,70.0,57.0,133.0,133.0,57.0,3,1.7831659317016602,None,,,,,0,0,0,0,0,102,102,4,301.54714274406433,,,,,,,,,,,,,,,,,,,,,,,,,,,,,,,,,,,,,,,,,,,,,,,,,,,,,,,,,,,,,,,,,,,,,,,,,,,,,,,,,,70.0,70.0,57.0,133.0,133.0,57.0,2.1,2.12,-198,-269,0,-288,191,250,301.5326337814331,301.5326738357544,301.53498816490173,301.54714274406433,301.69688963890076,301.69688963890076,301.69688963890076,301.69688963890076,301.69688963890076,301.69688963890076,301.69688963890076,303.3314800262451,3,1.7831659317016602,None,,,,,,,,,,,,,,,,,,221,3,2025-03-10_10h56.38.326,comp,2024.2.4,60.09720311783585,2025-03-10 10h57.11.725538 -0400,
103,103,0,filler_random,None,None,None,None,None,None,None,None,None,None,2,1.5009558200836182,None,,,,,0,0,0,0,0,103,103,164,303.3472168445587,,,,,,,,,,,,,,,,,,,,,,,,,,,,,,,,,,,,,,,,,,,,,,,,,,,,,,,,,,,,,,,,,,,,,,,,,,,,,,,,,,95.53428153904629,191.83744517457546,165.4595586626135,163.3525114540726,176.84716743621493,100.10457800370968,1.0,1.2,-274,-9,0,16,228,7,303.33235931396484,303.33240032196045,303.3344075679779,303.3472168445587,303.4971053600311,303.4971053600311,303.4971053600311,303.4971053600311,303.4971053600311,303.4971053600311,303.4971053600311,304.8649444580078,2,1.5009558200836182,None,,,,,,,,,,,,,,,,,,221,3,2025-03-10_10h56.38.326,comp,2024.2.4,60.09720311783585,2025-03-10 10h57.11.725538 -0400,
104,104,0,critical,wdh,35.0,3.0,lower,57.0,133.0,70.0,70.0,133.0,57.0,3,2.904646873474121,None,,,,,0,0,0,0,0,104,104,74,304.88018465042114,,,,,,,,,,,,,,,,,,,,,,,,,,,,,,,,,,,,,,,,,,,,,,,,,,,,,,,,,,,,,,,,,,,,,,,,,,,,,,,,,,57.0,133.0,70.0,70.0,133.0,57.0,3.0,3.2,-198,-283,0,1,160,273,304.8658037185669,304.865843296051,304.8683443069458,304.88018465042114,305.0301218032837,305.0301218032837,305.0301218032837,305.0301218032837,305.0301218032837,305.0301218032837,305.0301218032837,307.79796862602234,3,2.904646873474121,None,,,,,,,,,,,,,,,,,,221,3,2025-03-10_10h56.38.326,comp,2024.2.4,60.09720311783585,2025-03-10 10h57.11.725538 -0400,
105,105,0,critical,hdw,20.0,3.0,upper,200.0,125.0,141.0,141.0,125.0,200.0,3,1.4918951988220215,None,,,,,0,0,0,0,0,105,105,117,307.81327509880066,,,,,,,,,,,,,,,,,,,,,,,,,,,,,,,,,,,,,,,,,,,,,,,,,,,,,,,,,,,,,,,,,,,,,,,,,,,,,,,,,,200.0,125.0,141.0,141.0,125.0,200.0,3.0,3.2,-229,-262,0,-3,266,282,307.79875016212463,307.79878973960876,307.8012053966522,307.81327509880066,307.9637749195099,307.9637749195099,307.9637749195099,307.9637749195099,307.9637749195099,307.9637749195099,307.9637749195099,309.31488370895386,3,1.4918951988220215,None,,,,,,,,,,,,,,,,,,221,3,2025-03-10_10h56.38.326,comp,2024.2.4,60.09720311783585,2025-03-10 10h57.11.725538 -0400,
106,106,0,filler_random,None,None,None,None,None,None,None,None,None,None,2,2.047811269760132,None,,,,,0,0,0,0,0,106,106,137,309.3304145336151,,,,,,,,,,,,,,,,,,,,,,,,,,,,,,,,,,,,,,,,,,,,,,,,,,,,,,,,,,,,,,,,,,,,,,,,,,,,,,,,,,65.69457205650704,153.90337958857776,179.94342818824828,70.21551840705064,126.29765297180705,101.44632475150715,4.0,4.2,-208,-15,0,-250,182,-8,309.31578731536865,309.3158292770386,309.31826400756836,309.3304145336151,309.4802448749542,309.4802448749542,309.4802448749542,309.4802448749542,309.4802448749542,309.4802448749542,309.4802448749542,311.38143014907837,2,2.047811269760132,None,,,,,,,,,,,,,,,,,,221,3,2025-03-10_10h56.38.326,comp,2024.2.4,60.09720311783585,2025-03-10 10h57.11.725538 -0400,
107,107,0,filler_square,None,None,None,None,None,None,None,None,None,None,2,1.1335031986236572,None,,,,,0,0,0,0,0,107,107,186,311.3969054222107,,,,,,,,,,,,,,,,,,,,,,,,,,,,,,,,,,,,,,,,,,,,,,,,,,,,,,,,,,,,,,,,,,,,,,,,,,,,,,,,,,124.94071571069547,126.51711713282737,145.21684294454366,145.21684294454366,59.03610971098403,90.83872065556793,3.0,3.2,-232,-250,0,-8,214,274,311.3823506832123,311.3823912143707,311.38441157341003,311.3969054222107,311.5468270778656,311.5468270778656,311.5468270778656,311.5468270778656,311.5468270778656,311.5468270778656,311.5468270778656,312.54797077178955,2,1.1335031986236572,None,,,,,,,,,,,,,,,,,,221,3,2025-03-10_10h56.38.326,comp,2024.2.4,60.09720311783585,2025-03-10 10h57.11.725538 -0400,
108,108,0,critical,whd,20.0,4.0,lower,57.0,133.0,133.0,57.0,78.0,78.0,2,2.477344274520874,None,,,,,0,0,0,0,0,108,108,94,312.56342029571533,,,,,,,,,,,,,,,,,,,,,,,,,,,,,,,,,,,,,,,,,,,,,,,,,,,,,,,,,,,,,,,,,,,,,,,,,,,,,,,,,,57.0,133.0,133.0,57.0,78.0,78.0,4.0,4.1,-191,-251,0,-14,164,-270,312.548828125,312.54886984825134,312.55133080482483,312.56342029571533,312.7133963108063,312.7133963108063,312.7133963108063,312.7133963108063,312.7133963108063,312.7133963108063,312.7133963108063,315.04783940315247,2,2.477344274520874,None,,,,,,,,,,,,,,,,,,221,3,2025-03-10_10h56.38.326,comp,2024.2.4,60.09720311783585,2025-03-10 10h57.11.725538 -0400,
109,109,0,critical,hwd,35.0,3.0,lower,133.0,57.0,57.0,133.0,70.0,70.0,2,2.2723324298858643,None,,,,,0,0,0,0,0,109,109,98,315.06353974342346,,,,,,,,,,,,,,,,,,,,,,,,,,,,,,,,,,,,,,,,,,,,,,,,,,,,,,,,,,,,,,,,,,,,,,,,,,,,,,,,,,133.0,57.0,57.0,133.0,70.0,70.0,3.0,3.2,-191,-273,0,6,198,269,315.0486180782318,315.0486583709717,315.05098032951355,315.06353974342346,315.2133731842041,315.2133731842041,315.2133731842041,315.2133731842041,315.2133731842041,315.2133731842041,315.2133731842041,317.34815406799316,2,2.2723324298858643,None,,,,,,,,,,,,,,,,,,221,3,2025-03-10_10h56.38.326,comp,2024.2.4,60.09720311783585,2025-03-10 10h57.11.725538 -0400,
110,110,0,critical,whd,20.0,3.0,lower,57.0,133.0,133.0,57.0,78.0,78.0,2,1.0775277614593506,None,,,,,0,0,0,0,0,110,110,92,317.3633277416229,,,,,,,,,,,,,,,,,,,,,,,,,,,,,,,,,,,,,,,,,,,,,,,,,,,,,,,,,,,,,,,,,,,,,,,,,,,,,,,,,,57.0,133.0,133.0,57.0,78.0,78.0,3.0,3.2,-191,-259,0,0,164,290,317.3489787578583,317.3490192890167,317.35165214538574,317.3633277416229,317.5133419036865,317.5133419036865,317.5133419036865,317.5133419036865,317.5133419036865,317.5133419036865,317.5133419036865,318.44782519340515,2,1.0775277614593506,None,,,,,,,,,,,,,,,,,,221,3,2025-03-10_10h56.38.326,comp,2024.2.4,60.09720311783585,2025-03-10 10h57.11.725538 -0400,
111,111,0,critical,dwh,35.0,4.0,upper,127.0,127.0,125.0,200.0,200.0,125.0,3,1.4253475666046143,None,,,,,0,0,0,0,0,111,111,65,318.4634258747101,,,,,,,,,,,,,,,,,,,,,,,,,,,,,,,,,,,,,,,,,,,,,,,,,,,,,,,,,,,,,,,,,,,,,,,,,,,,,,,,,,127.0,127.0,125.0,200.0,200.0,125.0,4.0,4.2,-260,-16,0,-263,258,-17,318.44859790802,318.4486389160156,318.4505593776703,318.4634258747101,318.61357045173645,318.61357045173645,318.61357045173645,318.61357045173645,318.61357045173645,318.61357045173645,318.61357045173645,319.8980128765106,3,1.4253475666046143,None,,,,,,,,,,,,,,,,,,221,3,2025-03-10_10h56.38.326,comp,2024.2.4,60.09720311783585,2025-03-10 10h57.11.725538 -0400,
112,112,0,filler_square,None,None,None,None,None,None,None,None,None,None,2,2.191378593444824,None,,,,,0,0,0,0,0,112,112,197,319.9135191440582,,,,,,,,,,,,,,,,,,,,,,,,,,,,,,,,,,,,,,,,,,,,,,,,,,,,,,,,,,,,,,,,,,,,,,,,,,,,,,,,,,67.11824846850952,69.22532537782743,89.85110118879442,89.85110118879442,75.39614532395274,81.68008008919998,4.0,4.1,-176,-262,0,3,182,-255,319.8989782333374,319.89902091026306,319.90154504776,319.9135191440582,320.0633430480957,320.0633430480957,320.0633430480957,320.0633430480957,320.0633430480957,320.0633430480957,320.0633430480957,322.114497423172,2,2.191378593444824,None,,,,,,,,,,,,,,,,,,221,3,2025-03-10_10h56.38.326,comp,2024.2.4,60.09720311783585,2025-03-10 10h57.11.725538 -0400,
113,113,0,filler_random,None,None,None,None,None,None,None,None,None,None,3,1.4855594635009766,None,,,,,0,0,0,0,0,113,113,131,322.1304533481598,,,,,,,,,,,,,,,,,,,,,,,,,,,,,,,,,,,,,,,,,,,,,,,,,,,,,,,,,,,,,,,,,,,,,,,,,,,,,,,,,,169.21100108588126,149.98618219510476,117.06191694983391,80.51741138958491,157.60253971694658,142.0792623501913,2.1,2.11,-211,281,0,284,207,-264,322.1153931617737,322.11543345451355,322.1174075603485,322.1304533481598,322.28021812438965,322.28021812438965,322.28021812438965,322.28021812438965,322.28021812438965,322.28021812438965,322.28021812438965,323.63135266304016,3,1.4855594635009766,None,,,,,,,,,,,,,,,,,,221,3,2025-03-10_10h56.38.326,comp,2024.2.4,60.09720311783585,2025-03-10 10h57.11.725538 -0400,
114,114,0,filler_square,None,None,None,None,None,None,None,None,None,None,1,1.4015469551086426,None,,,,,0,0,0,0,0,114,114,184,323.64648389816284,,,,,,,,,,,,,,,,,,,,,,,,,,,,,,,,,,,,,,,,,,,,,,,,,,,,,,,,,,,,,,,,,,,,,,,,,,,,,,,,,,193.7869590078994,193.7869590078994,156.6456422047719,154.8628861169508,193.06503980944925,183.95189214063373,1.0,1.2,-270,17,0,12,265,-13,323.63225626945496,323.6323103904724,323.6345624923706,323.64648389816284,323.79707741737366,323.79707741737366,323.79707741737366,323.79707741737366,323.79707741737366,323.79707741737366,323.79707741737366,325.064697265625,1,1.4015469551086426,None,,,,,,,,,,,,,,,,,,221,3,2025-03-10_10h56.38.326,comp,2024.2.4,60.09720311783585,2025-03-10 10h57.11.725538 -0400,
115,115,0,critical,hwd,20.0,2.1,lower,133.0,57.0,57.0,133.0,78.0,78.0,3,4.52006196975708,None,,,,,0,0,0,0,0,115,115,42,325.0799126625061,,,,,,,,,,,,,,,,,,,,,,,,,,,,,,,,,,,,,,,,,,,,,,,,,,,,,,,,,,,,,,,,,,,,,,,,,,,,,,,,,,133.0,57.0,57.0,133.0,78.0,78.0,2.1,2.12,-191,-259,0,-284,202,268,325.0654733181,325.06551146507263,325.06776762008667,325.0799126625061,325.2300350666046,325.2300350666046,325.2300350666046,325.2300350666046,325.2300350666046,325.2300350666046,325.2300350666046,329.61443400382996,3,4.52006196975708,None,,,,,,,,,,,,,,,,,,221,3,2025-03-10_10h56.38.326,comp,2024.2.4,60.09720311783585,2025-03-10 10h57.11.725538 -0400,
116,116,0,critical,dwh,20.0,2.1,upper,141.0,141.0,125.0,200.0,200.0,125.0,2,2.786043167114258,None,,,,,0,0,0,0,0,116,116,31,329.62985157966614,,,,,,,,,,,,,,,,,,,,,,,,,,,,,,,,,,,,,,,,,,,,,,,,,,,,,,,,,,,,,,,,,,,,,,,,,,,,,,,,,,141.0,141.0,125.0,200.0,200.0,125.0,2.1,2.12,-266,-253,0,-265,258,264,329.61519718170166,329.61523628234863,329.6174681186676,329.62985157966614,329.7802047729492,329.7802047729492,329.7802047729492,329.7802047729492,329.7802047729492,329.7802047729492,329.7802047729492,332.4313232898712,2,2.786043167114258,None,,,,,,,,,,,,,,,,,,221,3,2025-03-10_10h56.38.326,comp,2024.2.4,60.09720311783585,2025-03-10 10h57.11.725538 -0400,
117,117,0,critical,hwd,35.0,4.0,lower,133.0,57.0,57.0,133.0,70.0,70.0,2,2.8262221813201904,None,,,,,0,0,0,0,0,117,117,100,332.4465262889862,,,,,,,,,,,,,,,,,,,,,,,,,,,,,,,,,,,,,,,,,,,,,,,,,,,,,,,,,,,,,,,,,,,,,,,,,,,,,,,,,,133.0,57.0,57.0,133.0,70.0,70.0,4.0,4.1,-191,-286,0,18,198,-273,332.4321331977844,332.4321720600128,332.4353754520416,332.4465262889862,332.59656381607056,332.59656381607056,332.59656381607056,332.59656381607056,332.59656381607056,332.59656381607056,332.59656381607056,335.2816917896271,2,2.8262221813201904,None,,,,,,,,,,,,,,,,,,221,3,2025-03-10_10h56.38.326,comp,2024.2.4,60.09720311783585,2025-03-10 10h57.11.725538 -0400,
118,118,0,filler_random,None,None,None,None,None,None,None,None,None,None,3,6.007721900939941,None,,,,,0,0,0,0,0,118,118,140,335.29730343818665,,,,,,,,,,,,,,,,,,,,,,,,,,,,,,,,,,,,,,,,,,,,,,,,,,,,,,,,,,,,,,,,,,,,,,,,,,,,,,,,,,182.16324097869932,123.62389481552243,143.3622577488701,104.48564020451694,111.41605327695065,157.3325464316781,3.0,3.2,-210,-257,0,14,227,278,335.282594203949,335.28263688087463,335.2845182418823,335.29730343818665,335.4468936920166,335.4468936920166,335.4468936920166,335.4468936920166,335.4468936920166,335.4468936920166,335.4468936920166,341.31456232070923,3,6.007721900939941,None,,,,,,,,,,,,,,,,,,221,3,2025-03-10_10h56.38.326,comp,2024.2.4,60.09720311783585,2025-03-10 10h57.11.725538 -0400,
119,119,0,filler_random,None,None,None,None,None,None,None,None,None,None,1,2.13375186920166,None,,,,,0,0,0,0,0,119,119,152,341.33014941215515,,,,,,,,,,,,,,,,,,,,,,,,,,,,,,,,,,,,,,,,,,,,,,,,,,,,,,,,,,,,,,,,,,,,,,,,,,,,,,,,,,92.17567304644551,183.43639530269263,74.63354429333302,137.75647239458468,98.03808399123258,155.74945305511434,2.1,2.12,-257,-257,0,-262,243,265,341.3154683113098,341.3155107498169,341.3175356388092,341.33014941215515,341.48009729385376,341.48009729385376,341.48009729385376,341.48009729385376,341.48009729385376,341.48009729385376,341.48009729385376,343.4812641143799,1,2.13375186920166,None,,,,,,,,,,,,,,,,,,221,3,2025-03-10_10h56.38.326,comp,2024.2.4,60.09720311783585,2025-03-10 10h57.11.725538 -0400,
120,120,0,filler_square,None,None,None,None,None,None,None,None,None,None,3,1.6247069835662842,None,,,,,0,0,0,0,0,120,120,207,343.49638319015503,,,,,,,,,,,,,,,,,,,,,,,,,,,,,,,,,,,,,,,,,,,,,,,,,,,,,,,,,,,,,,,,,,,,,,,,,,,,,,,,,,81.74136592330272,76.73740061615146,98.41518959294953,82.59797773522509,103.23817612089492,103.23817612089492,3.0,3.1,-176,255,0,18,189,-273,343.4821996688843,343.4822404384613,343.48446130752563,343.49638319015503,343.6466271877289,343.6466271877289,343.6466271877289,343.6466271877289,343.6466271877289,343.6466271877289,343.6466271877289,345.13093852996826,3,1.6247069835662842,None,,,,,,,,,,,,,,,,,,221,3,2025-03-10_10h56.38.326,comp,2024.2.4,60.09720311783585,2025-03-10 10h57.11.725538 -0400,
121,121,0,filler_random,None,None,None,None,None,None,None,None,None,None,1,2.069186210632324,None,,,,,0,0,0,0,0,121,121,167,345.1466875076294,,,,,,,,,,,,,,,,,,,,,,,,,,,,,,,,,,,,,,,,,,,,,,,,,,,,,,,,,,,,,,,,,,,,,,,,,,,,,,,,,,139.23751271088258,175.63816999405486,111.76010703707082,151.74248308729597,95.75144818754094,146.98348658906804,3.0,3.2,-260,-278,0,7,245,290,345.1318745613098,345.1319160461426,345.1343719959259,345.1466875076294,345.2966685295105,345.2966685295105,345.2966685295105,345.2966685295105,345.2966685295105,345.2966685295105,345.2966685295105,347.23121666908264,1,2.069186210632324,None,,,,,,,,,,,,,,,,,,221,3,2025-03-10_10h56.38.326,comp,2024.2.4,60.09720311783585,2025-03-10 10h57.11.725538 -0400,
122,122,0,filler_random,None,None,None,None,None,None,None,None,None,None,1,1.2181625366210938,None,,,,,0,0,0,0,0,122,122,161,347.2464234828949,,,,,,,,,,,,,,,,,,,,,,,,,,,,,,,,,,,,,,,,,,,,,,,,,,,,,,,,,,,,,,,,,,,,,,,,,,,,,,,,,,195.4633194670089,141.80242501509093,154.33449104243974,102.42084811394805,110.21231189276787,119.75268100164207,2.1,2.12,-218,-278,0,-273,207,260,347.23215794563293,347.23219895362854,347.2344162464142,347.2464234828949,347.3966691493988,347.3966691493988,347.3966691493988,347.3966691493988,347.3966691493988,347.3966691493988,347.3966691493988,348.4813268184662,1,1.2181625366210938,None,,,,,,,,,,,,,,,,,,221,3,2025-03-10_10h56.38.326,comp,2024.2.4,60.09720311783585,2025-03-10 10h57.11.725538 -0400,
123,123,0,critical,hwd,20.0,2.1,lower,133.0,57.0,57.0,133.0,78.0,78.0,1,2.344204902648926,None,,,,,0,0,0,0,0,123,123,18,348.4964144229889,,,,,,,,,,,,,,,,,,,,,,,,,,,,,,,,,,,,,,,,,,,,,,,,,,,,,,,,,,,,,,,,,,,,,,,,,,,,,,,,,,133.0,57.0,57.0,133.0,78.0,78.0,2.1,2.11,-191,283,0,289,202,-258,348.48212337493896,348.4821631908417,348.4842600822449,348.4964144229889,348.64656233787537,348.64656233787537,348.64656233787537,348.64656233787537,348.64656233787537,348.64656233787537,348.64656233787537,350.84774708747864,1,2.344204902648926,None,,,,,,,,,,,,,,,,,,221,3,2025-03-10_10h56.38.326,comp,2024.2.4,60.09720311783585,2025-03-10 10h57.11.725538 -0400,
124,124,0,critical,hdw,35.0,2.1,upper,200.0,125.0,127.0,127.0,125.0,200.0,1,1.466808795928955,None,,,,,0,0,0,0,0,124,124,45,350.86334109306335,,,,,,,,,,,,,,,,,,,,,,,,,,,,,,,,,,,,,,,,,,,,,,,,,,,,,,,,,,,,,,,,,,,,,,,,,,,,,,,,,,200.0,125.0,127.0,127.0,125.0,200.0,2.1,2.11,-222,265,0,267,260,-269,350.8485586643219,350.84859800338745,350.8509609699249,350.86334109306335,351.0133831501007,351.0133831501007,351.0133831501007,351.0133831501007,351.0133831501007,351.0133831501007,351.0133831501007,352.3477439880371,1,1.466808795928955,None,,,,,,,,,,,,,,,,,,221,3,2025-03-10_10h56.38.326,comp,2024.2.4,60.09720311783585,2025-03-10 10h57.11.725538 -0400,
125,125,0,filler_square,None,None,None,None,None,None,None,None,None,None,2,2.215390682220459,None,,,,,0,0,0,0,0,125,125,175,352.3630118370056,,,,,,,,,,,,,,,,,,,,,,,,,,,,,,,,,,,,,,,,,,,,,,,,,,,,,,,,,,,,,,,,,,,,,,,,,,,,,,,,,,64.84268989510865,76.19692616483455,81.46637025255109,81.46637025255109,65.62399466613185,70.52943911151436,4.0,4.2,-175,-16,0,-286,172,14,352.34871459007263,352.3487560749054,352.35120368003845,352.3630118370056,352.51320576667786,352.51320576667786,352.51320576667786,352.51320576667786,352.51320576667786,352.51320576667786,352.51320576667786,354.58102583885193,2,2.215390682220459,None,,,,,,,,,,,,,,,,,,221,3,2025-03-10_10h56.38.326,comp,2024.2.4,60.09720311783585,2025-03-10 10h57.11.725538 -0400,
126,126,0,filler_random,None,None,None,None,None,None,None,None,None,None,2,1.100130319595337,None,,,,,0,0,0,0,0,126,126,158,354.596697807312,,,,,,,,,,,,,,,,,,,,,,,,,,,,,,,,,,,,,,,,,,,,,,,,,,,,,,,,,,,,,,,,,,,,,,,,,,,,,,,,,,63.54354600161163,76.2467024570656,134.53226372380192,171.86893715487804,122.28482262153926,102.26944391933117,1.0,1.1,-700,283,-480,261,-247,282,354.5819396972656,354.5819818973541,354.584591627121,354.596697807312,354.7465786933899,354.7465786933899,354.7465786933899,354.7465786933899,354.7465786933899,354.7465786933899,354.7465786933899,355.714248418808,2,1.100130319595337,None,,,,,,,,,,,,,,,,,,221,3,2025-03-10_10h56.38.326,comp,2024.2.4,60.09720311783585,2025-03-10 10h57.11.725538 -0400,
127,127,0,critical,hwd,20.0,2.1,upper,200.0,125.0,125.0,200.0,141.0,141.0,1,2.6700279712677,None,,,,,0,0,0,0,0,127,127,19,355.7297673225403,,,,,,,,,,,,,,,,,,,,,,,,,,,,,,,,,,,,,,,,,,,,,,,,,,,,,,,,,,,,,,,,,,,,,,,,,,,,,,,,,,200.0,125.0,125.0,200.0,141.0,141.0,2.1,2.12,-258,-279,0,-268,266,265,355.7150423526764,355.7150812149048,355.7170481681824,355.7297673225403,355.8800253868103,355.8800253868103,355.8800253868103,355.8800253868103,355.8800253868103,355.8800253868103,355.8800253868103,358.41442680358887,1,2.6700279712677,None,,,,,,,,,,,,,,,,,,221,3,2025-03-10_10h56.38.326,comp,2024.2.4,60.09720311783585,2025-03-10 10h57.11.725538 -0400,
128,128,0,filler_square,None,None,None,None,None,None,None,None,None,None,2,2.0108296871185303,None,,,,,0,0,0,0,0,128,128,181,358.4297842979431,,,,,,,,,,,,,,,,,,,,,,,,,,,,,,,,,,,,,,,,,,,,,,,,,,,,,,,,,,,,,,,,,,,,,,,,,,,,,,,,,,122.53581949466495,195.59792619804085,198.4330490128853,198.4330490128853,179.5098887047762,141.4640519583358,2.1,2.12,-293,-271,0,-261,266,259,358.4153780937195,358.41541934013367,358.41859698295593,358.4297842979431,358.5800745487213,358.5800745487213,358.5800745487213,358.5800745487213,358.5800745487213,358.5800745487213,358.5800745487213,360.44796872138977,2,2.0108296871185303,None,,,,,,,,,,,,,,,,,,221,3,2025-03-10_10h56.38.326,comp,2024.2.4,60.09720311783585,2025-03-10 10h57.11.725538 -0400,
129,129,0,critical,whd,35.0,2.1,lower,57.0,133.0,133.0,57.0,70.0,70.0,2,1.2723770141601562,None,,,,,0,0,0,0,0,129,129,36,360.46323013305664,,,,,,,,,,,,,,,,,,,,,,,,,,,,,,,,,,,,,,,,,,,,,,,,,,,,,,,,,,,,,,,,,,,,,,,,,,,,,,,,,,57.0,133.0,133.0,57.0,70.0,70.0,2.1,2.11,-191,286,0,270,160,-275,360.44879484176636,360.44883465766907,360.4512584209442,360.46323013305664,360.61304903030396,360.61304903030396,360.61304903030396,360.61304903030396,360.61304903030396,360.61304903030396,360.61304903030396,361.74788522720337,2,1.2723770141601562,None,,,,,,,,,,,,,,,,,,221,3,2025-03-10_10h56.38.326,comp,2024.2.4,60.09720311783585,2025-03-10 10h57.11.725538 -0400,
130,130,0,critical,dhw,35.0,2.1,lower,70.0,70.0,133.0,57.0,57.0,133.0,2,1.4688363075256348,None,,,,,0,0,0,0,0,130,130,24,361.76303339004517,,,,,,,,,,,,,,,,,,,,,,,,,,,,,,,,,,,,,,,,,,,,,,,,,,,,,,,,,,,,,,,,,,,,,,,,,,,,,,,,,,70.0,70.0,133.0,57.0,57.0,133.0,2.1,2.11,-160,262,0,278,191,-257,361.74867963790894,361.7487199306488,361.7510631084442,361.76303339004517,361.91298389434814,361.91298389434814,361.91298389434814,361.91298389434814,361.91298389434814,361.91298389434814,361.91298389434814,363.24776244163513,2,1.4688363075256348,None,,,,,,,,,,,,,,,,,,221,3,2025-03-10_10h56.38.326,comp,2024.2.4,60.09720311783585,2025-03-10 10h57.11.725538 -0400,
131,131,0,filler_random,None,None,None,None,None,None,None,None,None,None,2,1.5847423076629639,None,,,,,0,0,0,0,0,131,131,146,363.2629716396332,,,,,,,,,,,,,,,,,,,,,,,,,,,,,,,,,,,,,,,,,,,,,,,,,,,,,,,,,,,,,,,,,,,,,,,,,,,,,,,,,,77.14722710730848,158.85142554332674,121.75039749094053,108.73170991784617,77.04192041950421,118.28214308771251,2.2,2.21,-230,-278,0,273,210,260,363.2486674785614,363.2487087249756,363.251012802124,363.2629716396332,363.4130744934082,363.4130744934082,363.4130744934082,363.4130744934082,363.4130744934082,363.4130744934082,363.4130744934082,364.86410450935364,2,1.5847423076629639,None,,,,,,,,,,,,,,,,,,221,3,2025-03-10_10h56.38.326,comp,2024.2.4,60.09720311783585,2025-03-10 10h57.11.725538 -0400,
132,132,0,filler_random,None,None,None,None,None,None,None,None,None,None,3,1.6559195518493652,None,,,,,0,0,0,0,0,132,132,168,364.8796033859253,,,,,,,,,,,,,,,,,,,,,,,,,,,,,,,,,,,,,,,,,,,,,,,,,,,,,,,,,,,,,,,,,,,,,,,,,,,,,,,,,,118.79942128893505,159.84437818163696,73.16319896880418,105.34415782627337,130.10164935398498,154.816068586168,3.0,3.1,-229,274,0,2,226,-262,364.86501693725586,364.8650562763214,364.86758303642273,364.8796033859253,365.02973341941833,365.02973341941833,365.02973341941833,365.02973341941833,365.02973341941833,365.02973341941833,365.02973341941833,366.5478529930115,3,1.6559195518493652,None,,,,,,,,,,,,,,,,,,221,3,2025-03-10_10h56.38.326,comp,2024.2.4,60.09720311783585,2025-03-10 10h57.11.725538 -0400,
133,133,0,filler_square,None,None,None,None,None,None,None,None,None,None,1,1.4688975811004639,None,,,,,0,0,0,0,0,133,133,190,366.56294894218445,,,,,,,,,,,,,,,,,,,,,,,,,,,,,,,,,,,,,,,,,,,,,,,,,,,,,,,,,,,,,,,,,,,,,,,,,,,,,,,,,,76.47916616053931,76.47916616053931,67.43610818642368,71.64100567389596,57.98787004723058,73.25172705981116,2.1,2.11,-170,252,0,251,168,-283,366.54881501197815,366.54885482788086,366.5512206554413,366.56294894218445,366.71299028396606,366.71299028396606,366.71299028396606,366.71299028396606,366.71299028396606,366.71299028396606,366.71299028396606,368.0474874973297,1,1.4688975811004639,None,,,,,,,,,,,,,,,,,,221,3,2025-03-10_10h56.38.326,comp,2024.2.4,60.09720311783585,2025-03-10 10h57.11.725538 -0400,
134,134,0,critical,wdh,35.0,2.1,lower,57.0,133.0,70.0,70.0,133.0,57.0,1,2.4886343479156494,None,,,,,0,0,0,0,0,134,134,8,368.0629143714905,,,,,,,,,,,,,,,,,,,,,,,,,,,,,,,,,,,,,,,,,,,,,,,,,,,,,,,,,,,,,,,,,,,,,,,,,,,,,,,,,,57.0,133.0,70.0,70.0,133.0,57.0,2.1,2.11,-198,268,0,278,160,-287,368.0483100414276,368.0483503341675,368.0506522655487,368.0629143714905,368.2130708694458,368.2130708694458,368.2130708694458,368.2130708694458,368.2130708694458,368.2130708694458,368.2130708694458,370.56423783302307,1,2.4886343479156494,None,,,,,,,,,,,,,,,,,,221,3,2025-03-10_10h56.38.326,comp,2024.2.4,60.09720311783585,2025-03-10 10h57.11.725538 -0400,
135,135,0,filler_square,None,None,None,None,None,None,None,None,None,None,3,2.0771484375,None,,,,,0,0,0,0,0,135,135,206,370.5796356201172,,,,,,,,,,,,,,,,,,,,,,,,,,,,,,,,,,,,,,,,,,,,,,,,,,,,,,,,,,,,,,,,,,,,,,,,,,,,,,,,,,74.70671392734413,91.71130855675862,74.48004805537111,98.10546866564805,104.93759116184944,104.93759116184944,3.0,3.1,-191,289,0,-17,198,-269,370.565176486969,370.56521701812744,370.5672698020935,370.5796356201172,370.7297420501709,370.7297420501709,370.7297420501709,370.7297420501709,370.7297420501709,370.7297420501709,370.7297420501709,372.6641433238983,3,2.0771484375,None,,,,,,,,,,,,,,,,,,221,3,2025-03-10_10h56.38.326,comp,2024.2.4,60.09720311783585,2025-03-10 10h57.11.725538 -0400,
136,136,0,critical,dhw,35.0,3.0,upper,127.0,127.0,200.0,125.0,125.0,200.0,3,2.208645820617676,None,,,,,0,0,0,0,0,136,136,51,372.67983531951904,,,,,,,,,,,,,,,,,,,,,,,,,,,,,,,,,,,,,,,,,,,,,,,,,,,,,,,,,,,,,,,,,,,,,,,,,,,,,,,,,,127.0,127.0,200.0,125.0,125.0,200.0,3.0,3.2,-222,-279,0,5,258,259,372.6649377346039,372.66497826576233,372.66711592674255,372.67983531951904,372.82992029190063,372.82992029190063,372.82992029190063,372.82992029190063,372.82992029190063,372.82992029190063,372.82992029190063,374.8976163864136,3,2.208645820617676,None,,,,,,,,,,,,,,,,,,221,3,2025-03-10_10h56.38.326,comp,2024.2.4,60.09720311783585,2025-03-10 10h57.11.725538 -0400,
137,137,0,critical,dwh,20.0,4.0,lower,78.0,78.0,57.0,133.0,133.0,57.0,3,1.9186911582946777,None,,,,,0,0,0,0,0,137,137,70,374.91309547424316,,,,,,,,,,,,,,,,,,,,,,,,,,,,,,,,,,,,,,,,,,,,,,,,,,,,,,,,,,,,,,,,,,,,,,,,,,,,,,,,,,78.0,78.0,57.0,133.0,133.0,57.0,4.0,4.2,-202,-14,0,-278,191,14,374.89839792251587,374.8984372615814,374.9006977081299,374.91309547424316,375.0630302429199,375.0630302429199,375.0630302429199,375.0630302429199,375.0630302429199,375.0630302429199,375.0630302429199,376.8474998474121,3,1.9186911582946777,None,,,,,,,,,,,,,,,,,,221,3,2025-03-10_10h56.38.326,comp,2024.2.4,60.09720311783585,2025-03-10 10h57.11.725538 -0400,
138,138,0,critical,hdw,35.0,4.0,lower,133.0,57.0,70.0,70.0,57.0,133.0,3,1.2504570484161377,None,,,,,0,0,0,0,0,138,138,112,376.8627769947052,,,,,,,,,,,,,,,,,,,,,,,,,,,,,,,,,,,,,,,,,,,,,,,,,,,,,,,,,,,,,,,,,,,,,,,,,,,,,,,,,,133.0,57.0,70.0,70.0,57.0,133.0,4.0,4.2,-160,-14,0,-251,198,13,376.84827423095703,376.8483295440674,376.8506212234497,376.8627769947052,377.0130274295807,377.0130274295807,377.0130274295807,377.0130274295807,377.0130274295807,377.0130274295807,377.0130274295807,378.1309003829956,3,1.2504570484161377,None,,,,,,,,,,,,,,,,,,221,3,2025-03-10_10h56.38.326,comp,2024.2.4,60.09720311783585,2025-03-10 10h57.11.725538 -0400,
