thisN,thisTrialN,thisRepN,effect,order,distance,config,diag,h_1,w_1,h_2,w_2,h_3,w_3,rect_choice.keys,rect_choice.rt,rect_choice.duration,instructions_loop.thisRepN,instructions_loop.thisTrialN,instructions_loop.thisN,instructions_loop.thisIndex,blocks.thisRepN,blocks.thisTrialN,blocks.thisN,blocks.thisIndex,trials.thisRepN,trials.thisTrialN,trials.thisN,trials.thisIndex,thisRow.t,notes,consent.started,agree_button.started,decline_button.started,consent_img.started,mouse.started,consent.stopped,agree_button.numClicks,agree_button.timesOn,agree_button.timesOff,decline_button.numClicks,decline_button.timesOn,decline_button.timesOff,mouse.x,mouse.y,mouse.leftButton,mouse.midButton,mouse.rightButton,mouse.time,mouse.clicked_name,exp_params.started,exp_params.stopped,welcome.started,welcome_text.started,welcome.stopped,instructions_1.started,instructions_1_text_1.started,instructions_1_text_2.started,key_resp.started,instructions_1.stopped,instructions_loop.key_resp.keys,instructions_loop.key_resp.rt,instructions_loop.key_resp.duration,instructions_2.started,instructions_2_text_1.started,instructions_2_text_2.started,key_resp_2.started,instructions_2.stopped,instructions_loop.key_resp_2.keys,instructions_loop.key_resp_2.rt,instructions_loop.key_resp_2.duration,instructions_3.started,instructions_3_text_1.started,r1_instr3.started,r2_instr3.started,r3_instr3.started,r1_instr3_label.started,r2_instr3_label.started,r3_instr3_label.started,instructions_3_text_3.started,instructions_3_text_4.started,key_resp_3.started,instructions_3.stopped,instructions_loop.key_resp_3.keys,instructions_loop.key_resp_3.rt,instructions_loop.key_resp_3.duration,instructions_4.started,instructions_4_text_1.started,instructions_4_text_3.started,instructions_4_text_2.started,key_resp_4.started,instructions_4.stopped,instructions_loop.key_resp_4.keys,instructions_loop.key_resp_4.rt,instructions_loop.key_resp_4.duration,instructions_5.started,instructions_5_text_1.started,instructions_5_text_2.started,key_resp_5.started,instructions_5.stopped,instructions_loop.key_resp_5.keys,instructions_loop.key_resp_5.rt,instructions_loop.key_resp_5.duration,start_exp.started,start_exp_text.started,key_resp_6.started,start_exp.stopped,key_resp_6.keys,key_resp_6.rt,key_resp_6.duration,h_1_tmp,w_1_tmp,h_2_tmp,w_2_tmp,h_3_tmp,w_3_tmp,config_tmp,config_tmp_1,r_1_x,r_1_y,r_2_x,r_2_y,r_3_x,r_3_y,pre_trial.started,pre_trial.stopped,choice_trial.started,rect_choice.started,r_1.started,r_2.started,r_3.started,r_1_label.started,r_2_label.started,r_3_label.started,prompt.started,choice_trial.stopped,trials.rect_choice.keys,trials.rect_choice.rt,trials.rect_choice.duration,end_block.started,end_block_text.started,end_block.stopped,end.started,end_text.started,key_resp_7.started,end.stopped,key_resp_7.keys,key_resp_7.rt,key_resp_7.duration,debriefing.started,debrief_form.started,end_debrief.started,debriefing.stopped,end_debrief.keys,end_debrief.rt,end_debrief.duration,participant,computer,date,expName,psychopyVersion,frameRate,expStart,
,,,,,,,,,,,,,,,,,,,,,,,,,,,,,,,0.01575779914855957,0.0421297550201416,0.0421297550201416,0.0421297550201416,0.015233278274536133,8.839264392852783,1,[8.796058654785156],[8.796066999435425],0,,,"[-131.0, -97.0]","[-529.0, -505.0]","[1, 1]","[0, 0]","[0, 0]","[8.282798051834106, 8.822776794433594]","[None, 'agree_button']",,,,,,,,,,,,,,,,,,,,,,,,,,,,,,,,,,,,,,,,,,,,,,,,,,,,,,,,,,,,,,,,,,,,,,,,,,,,,,,,,,,,,,,,,,,,,,,,,,,,,,,,,,,222,5,2025-03-10_11h02.48.057,comp,2024.2.4,59.98967348474121,2025-03-10 11h02.58.014875 -0400,
,,,,,,,,,,,,,,,,,,,,,,,,,,,,,,,,,,,,,,,,,,,,,,,,,,8.839552164077759,8.83958387374878,,,,,,,,,,,,,,,,,,,,,,,,,,,,,,,,,,,,,,,,,,,,,,,,,,,,,,,,,,,,,,,,,,,,,,,,,,,,,,,,,,,,,,,,,,,,,,,,,,,,,,,,,222,5,2025-03-10_11h02.48.057,comp,2024.2.4,59.98967348474121,2025-03-10 11h02.58.014875 -0400,
,,,,,,,,,,,,,,,,,,,,,,,,,,,,,,,,,,,,,,,,,,,,,,,,,,,,8.83960509300232,8.852767705917358,10.84761095046997,,,,,,,,,,,,,,,,,,,,,,,,,,,,,,,,,,,,,,,,,,,,,,,,,,,,,,,,,,,,,,,,,,,,,,,,,,,,,,,,,,,,,,,,,,,,,,,,,,,,,,222,5,2025-03-10_11h02.48.057,comp,2024.2.4,59.98967348474121,2025-03-10 11h02.58.014875 -0400,
0,0,0,,,,,,,,,,,,,,,0,0,0,0,,,,,,,,,10.864278554916382,,,,,,,,,,,,,,,,,,,,,,,,,,10.848156929016113,10.864278554916382,10.864278554916382,12.347617149353027,13.949077844619751,space,1.5841434001922607,None,13.949161767959595,13.964719533920288,13.964719533920288,15.464125633239746,15.581979036331177,space,0.10501694679260254,None,15.582077980041504,15.603946924209595,15.603946924209595,15.603946924209595,15.603946924209595,15.603946924209595,15.603946924209595,15.603946924209595,15.603946924209595,15.603946924209595,17.081658840179443,19.482484579086304,space,2.391921043395996,None,19.482569932937622,19.498121738433838,19.498121738433838,19.498121738433838,20.997579336166382,22.115692853927612,space,1.108273983001709,None,22.115779876708984,22.13127112388611,22.13127112388611,23.630857944488525,24.298462867736816,space,0.6586551666259766,None,24.298577070236206,24.314341068267822,24.314341068267822,24.93208360671997,space,0.61647629737854,None,,,,,,,,,,,,,,,,,,,,,,,,,,,,,,,,,,,,,,,,,,,,,,,222,5,2025-03-10_11h02.48.057,comp,2024.2.4,59.98967348474121,2025-03-10 11h02.58.014875 -0400,
0,0,0,critical,hwd,20.0,2.1,lower,133.0,57.0,57.0,133.0,78.0,78.0,1,2.9149982929229736,None,,,,,0,0,0,0,0,0,0,18,24.991264820098877,,,,,,,,,,,,,,,,,,,,,,,,,,,,,,,,,,,,,,,,,,,,,,,,,,,,,,,,,,,,,,,,,,,,,,,,,,,,,,,,,133.0,57.0,57.0,133.0,78.0,78.0,2.1,2.11,-191,276,0,286,202,-262,24.977595806121826,24.977643489837646,24.979646682739258,24.991264820098877,25.138137340545654,25.138137340545654,25.138137340545654,25.138137340545654,25.138137340545654,25.138137340545654,25.138137340545654,27.915456295013428,1,2.9149982929229736,None,,,,,,,,,,,,,,,,,,222,5,2025-03-10_11h02.48.057,comp,2024.2.4,59.98967348474121,2025-03-10 11h02.58.014875 -0400,
1,1,0,critical,dwh,20.0,1.0,lower,78.0,78.0,57.0,133.0,133.0,57.0,3,2.1018009185791016,None,,,,,0,0,0,0,0,1,1,66,27.93099880218506,,,,,,,,,,,,,,,,,,,,,,,,,,,,,,,,,,,,,,,,,,,,,,,,,,,,,,,,,,,,,,,,,,,,,,,,,,,,,,,,,78.0,78.0,57.0,133.0,133.0,57.0,1.0,1.1,-682,260,-480,285,-289,269,27.916282176971436,27.91632390022278,27.918673276901245,27.93099880218506,28.08095383644104,28.08095383644104,28.08095383644104,28.08095383644104,28.08095383644104,28.08095383644104,28.08095383644104,30.048635959625244,3,2.1018009185791016,None,,,,,,,,,,,,,,,,,,222,5,2025-03-10_11h02.48.057,comp,2024.2.4,59.98967348474121,2025-03-10 11h02.58.014875 -0400,
2,2,0,critical,whd,35.0,3.0,upper,125.0,200.0,200.0,125.0,127.0,127.0,2,4.258070468902588,None,,,,,0,0,0,0,0,2,2,87,30.064005136489868,,,,,,,,,,,,,,,,,,,,,,,,,,,,,,,,,,,,,,,,,,,,,,,,,,,,,,,,,,,,,,,,,,,,,,,,,,,,,,,,,125.0,200.0,200.0,125.0,127.0,127.0,3.0,3.1,-258,264,0,7,222,-259,30.0494122505188,30.04945421218872,30.05182385444641,30.064005136489868,30.21428680419922,30.21428680419922,30.21428680419922,30.21428680419922,30.21428680419922,30.21428680419922,30.21428680419922,34.33222770690918,2,4.258070468902588,None,,,,,,,,,,,,,,,,,,222,5,2025-03-10_11h02.48.057,comp,2024.2.4,59.98967348474121,2025-03-10 11h02.58.014875 -0400,
3,3,0,critical,wdh,35.0,3.0,upper,125.0,200.0,127.0,127.0,200.0,125.0,3,2.7501728534698486,None,,,,,0,0,0,0,0,3,3,75,34.347742557525635,,,,,,,,,,,,,,,,,,,,,,,,,,,,,,,,,,,,,,,,,,,,,,,,,,,,,,,,,,,,,,,,,,,,,,,,,,,,,,,,,125.0,200.0,127.0,127.0,200.0,125.0,3.0,3.1,-260,285,0,-1,222,-277,34.333000898361206,34.33305501937866,34.335113525390625,34.347742557525635,34.497578620910645,34.497578620910645,34.497578620910645,34.497578620910645,34.497578620910645,34.497578620910645,34.497578620910645,37.11536455154419,3,2.7501728534698486,None,,,,,,,,,,,,,,,,,,222,5,2025-03-10_11h02.48.057,comp,2024.2.4,59.98967348474121,2025-03-10 11h02.58.014875 -0400,
4,4,0,filler_random,None,None,None,None,None,None,None,None,None,None,2,1.5021154880523682,None,,,,,0,0,0,0,0,4,4,133,37.1306676864624,,,,,,,,,,,,,,,,,,,,,,,,,,,,,,,,,,,,,,,,,,,,,,,,,,,,,,,,,,,,,,,,,,,,,,,,,,,,,,,,,109.08018465824595,132.4821423667727,174.89107526175428,141.4550384543503,101.7738044927267,129.5294219670493,2.1,2.11,-233,259,0,281,231,-253,37.11626935005188,37.116312742233276,37.11861968040466,37.1306676864624,37.28103590011597,37.28103590011597,37.28103590011597,37.28103590011597,37.28103590011597,37.28103590011597,37.28103590011597,38.648674726486206,2,1.5021154880523682,None,,,,,,,,,,,,,,,,,,222,5,2025-03-10_11h02.48.057,comp,2024.2.4,59.98967348474121,2025-03-10 11h02.58.014875 -0400,
5,5,0,critical,hdw,20.0,3.0,upper,200.0,125.0,141.0,141.0,125.0,200.0,2,1.145303726196289,None,,,,,0,0,0,0,0,5,5,117,38.66395902633667,,,,,,,,,,,,,,,,,,,,,,,,,,,,,,,,,,,,,,,,,,,,,,,,,,,,,,,,,,,,,,,,,,,,,,,,,,,,,,,,,200.0,125.0,141.0,141.0,125.0,200.0,3.0,3.2,-229,-288,0,3,266,288,38.64944005012512,38.64948105812073,38.65184664726257,38.66395902633667,38.81434965133667,38.81434965133667,38.81434965133667,38.81434965133667,38.81434965133667,38.81434965133667,38.81434965133667,39.81544303894043,2,1.145303726196289,None,,,,,,,,,,,,,,,,,,222,5,2025-03-10_11h02.48.057,comp,2024.2.4,59.98967348474121,2025-03-10 11h02.58.014875 -0400,
6,6,0,critical,whd,20.0,2.1,lower,57.0,133.0,133.0,57.0,78.0,78.0,2,2.554628849029541,None,,,,,0,0,0,0,0,6,6,14,39.830838203430176,,,,,,,,,,,,,,,,,,,,,,,,,,,,,,,,,,,,,,,,,,,,,,,,,,,,,,,,,,,,,,,,,,,,,,,,,,,,,,,,,57.0,133.0,133.0,57.0,78.0,78.0,2.1,2.12,-191,-252,0,-266,164,286,39.81625843048096,39.816298961639404,39.81836152076721,39.830838203430176,39.980687856674194,39.980687856674194,39.980687856674194,39.980687856674194,39.980687856674194,39.980687856674194,39.980687856674194,42.3985538482666,2,2.554628849029541,None,,,,,,,,,,,,,,,,,,222,5,2025-03-10_11h02.48.057,comp,2024.2.4,59.98967348474121,2025-03-10 11h02.58.014875 -0400,
7,7,0,critical,dwh,35.0,2.1,lower,70.0,70.0,57.0,133.0,133.0,57.0,3,1.7644767761230469,None,,,,,0,0,0,0,0,7,7,28,42.41399955749512,,,,,,,,,,,,,,,,,,,,,,,,,,,,,,,,,,,,,,,,,,,,,,,,,,,,,,,,,,,,,,,,,,,,,,,,,,,,,,,,,70.0,70.0,57.0,133.0,133.0,57.0,2.1,2.12,-198,-281,0,-270,191,280,42.39932942390442,42.399369955062866,42.401702880859375,42.41399955749512,42.563968658447266,42.563968658447266,42.563968658447266,42.563968658447266,42.563968658447266,42.563968658447266,42.563968658447266,44.18207359313965,3,1.7644767761230469,None,,,,,,,,,,,,,,,,,,222,5,2025-03-10_11h02.48.057,comp,2024.2.4,59.98967348474121,2025-03-10 11h02.58.014875 -0400,
8,8,0,critical,wdh,20.0,2.1,upper,125.0,200.0,141.0,141.0,200.0,125.0,1,1.7389628887176514,None,,,,,0,0,0,0,0,8,8,35,44.19759654998779,,,,,,,,,,,,,,,,,,,,,,,,,,,,,,,,,,,,,,,,,,,,,,,,,,,,,,,,,,,,,,,,,,,,,,,,,,,,,,,,,125.0,200.0,141.0,141.0,200.0,125.0,2.1,2.12,-266,-287,0,-268,229,267,44.18282198905945,44.182862520217896,44.18500995635986,44.19759654998779,44.34765028953552,44.34765028953552,44.34765028953552,44.34765028953552,44.34765028953552,44.34765028953552,44.34765028953552,45.94872689247131,1,1.7389628887176514,None,,,,,,,,,,,,,,,,,,222,5,2025-03-10_11h02.48.057,comp,2024.2.4,59.98967348474121,2025-03-10 11h02.58.014875 -0400,
9,9,0,critical,hdw,20.0,1.0,upper,200.0,125.0,141.0,141.0,125.0,200.0,1,1.7885875701904297,None,,,,,0,0,0,0,0,9,9,115,45.9639630317688,,,,,,,,,,,,,,,,,,,,,,,,,,,,,,,,,,,,,,,,,,,,,,,,,,,,,,,,,,,,,,,,,,,,,,,,,,,,,,,,,200.0,125.0,141.0,141.0,125.0,200.0,1.0,1.3,251,-288,480,-262,746,-260,45.94954228401184,45.94958305358887,45.95210647583008,45.9639630317688,46.11427664756775,46.11427664756775,46.11427664756775,46.11427664756775,46.11427664756775,46.11427664756775,46.11427664756775,47.765801429748535,1,1.7885875701904297,None,,,,,,,,,,,,,,,,,,222,5,2025-03-10_11h02.48.057,comp,2024.2.4,59.98967348474121,2025-03-10 11h02.58.014875 -0400,
10,10,0,critical,hdw,35.0,2.1,upper,200.0,125.0,127.0,127.0,125.0,200.0,3,0.9549593925476074,None,,,,,0,0,0,0,0,10,10,45,47.78141140937805,,,,,,,,,,,,,,,,,,,,,,,,,,,,,,,,,,,,,,,,,,,,,,,,,,,,,,,,,,,,,,,,,,,,,,,,,,,,,,,,,200.0,125.0,127.0,127.0,125.0,200.0,2.1,2.12,-222,-268,0,-251,260,273,47.766685009002686,47.766725301742554,47.76997399330139,47.78141140937805,47.9314501285553,47.9314501285553,47.9314501285553,47.9314501285553,47.9314501285553,47.9314501285553,47.9314501285553,48.748677015304565,3,0.9549593925476074,None,,,,,,,,,,,,,,,,,,222,5,2025-03-10_11h02.48.057,comp,2024.2.4,59.98967348474121,2025-03-10 11h02.58.014875 -0400,
11,11,0,critical,dhw,20.0,3.0,lower,78.0,78.0,133.0,57.0,57.0,133.0,1,1.350095510482788,None,,,,,0,0,0,0,0,11,11,56,48.76397681236267,,,,,,,,,,,,,,,,,,,,,,,,,,,,,,,,,,,,,,,,,,,,,,,,,,,,,,,,,,,,,,,,,,,,,,,,,,,,,,,,,78.0,78.0,133.0,57.0,57.0,133.0,3.0,3.1,-164,253,0,-19,191,-270,48.74944543838501,48.74948787689209,48.75195860862732,48.76397681236267,48.914188623428345,48.914188623428345,48.914188623428345,48.914188623428345,48.914188623428345,48.914188623428345,48.914188623428345,50.13164567947388,1,1.350095510482788,None,,,,,,,,,,,,,,,,,,222,5,2025-03-10_11h02.48.057,comp,2024.2.4,59.98967348474121,2025-03-10 11h02.58.014875 -0400,
12,12,0,critical,wdh,20.0,2.1,lower,57.0,133.0,78.0,78.0,133.0,57.0,1,0.7504701614379883,None,,,,,0,0,0,0,0,12,12,10,50.1471152305603,,,,,,,,,,,,,,,,,,,,,,,,,,,,,,,,,,,,,,,,,,,,,,,,,,,,,,,,,,,,,,,,,,,,,,,,,,,,,,,,,57.0,133.0,78.0,78.0,133.0,57.0,2.1,2.11,-202,282,0,254,164,-286,50.13244032859802,50.132481813430786,50.134929895401,50.1471152305603,50.29722237586975,50.29722237586975,50.29722237586975,50.29722237586975,50.29722237586975,50.29722237586975,50.29722237586975,50.91506624221802,1,0.7504701614379883,None,,,,,,,,,,,,,,,,,,222,5,2025-03-10_11h02.48.057,comp,2024.2.4,59.98967348474121,2025-03-10 11h02.58.014875 -0400,
13,13,0,filler_random,None,None,None,None,None,None,None,None,None,None,2,0.8946139812469482,None,,,,,0,0,0,0,0,13,13,145,50.930569887161255,,,,,,,,,,,,,,,,,,,,,,,,,,,,,,,,,,,,,,,,,,,,,,,,,,,,,,,,,,,,,,,,,,,,,,,,,,,,,,,,,117.19830414974948,176.2166003887992,178.05973329596299,192.82763421267353,75.18975253430006,146.4755269571307,4.0,4.1,-281,-263,0,-11,266,-289,50.91595125198364,50.91599464416504,50.91833972930908,50.930569887161255,51.08102035522461,51.08102035522461,51.08102035522461,51.08102035522461,51.08102035522461,51.08102035522461,51.08102035522461,51.83191227912903,2,0.8946139812469482,None,,,,,,,,,,,,,,,,,,222,5,2025-03-10_11h02.48.057,comp,2024.2.4,59.98967348474121,2025-03-10 11h02.58.014875 -0400,
14,14,0,critical,hwd,20.0,3.0,lower,133.0,57.0,57.0,133.0,78.0,78.0,2,2.2501258850097656,None,,,,,0,0,0,0,0,14,14,104,51.847379207611084,,,,,,,,,,,,,,,,,,,,,,,,,,,,,,,,,,,,,,,,,,,,,,,,,,,,,,,,,,,,,,,,,,,,,,,,,,,,,,,,,133.0,57.0,57.0,133.0,78.0,78.0,3.0,3.1,-191,289,0,17,202,-288,51.832743406295776,51.83278703689575,51.83522582054138,51.847379207611084,51.99726128578186,51.99726128578186,51.99726128578186,51.99726128578186,51.99726128578186,51.99726128578186,51.99726128578186,54.1150758266449,2,2.2501258850097656,None,,,,,,,,,,,,,,,,,,222,5,2025-03-10_11h02.48.057,comp,2024.2.4,59.98967348474121,2025-03-10 11h02.58.014875 -0400,
15,15,0,critical,hwd,35.0,1.0,upper,200.0,125.0,125.0,200.0,127.0,127.0,2,1.7918314933776855,None,,,,,0,0,0,0,0,15,15,97,54.13051104545593,,,,,,,,,,,,,,,,,,,,,,,,,,,,,,,,,,,,,,,,,,,,,,,,,,,,,,,,,,,,,,,,,,,,,,,,,,,,,,,,,200.0,125.0,125.0,200.0,127.0,127.0,1.0,1.1,-738,273,-480,290,-220,260,54.11584496498108,54.11588478088379,54.119004249572754,54.13051104545593,54.281161069869995,54.281161069869995,54.281161069869995,54.281161069869995,54.281161069869995,54.281161069869995,54.281161069869995,55.93188452720642,2,1.7918314933776855,None,,,,,,,,,,,,,,,,,,222,5,2025-03-10_11h02.48.057,comp,2024.2.4,59.98967348474121,2025-03-10 11h02.58.014875 -0400,
16,16,0,critical,dwh,20.0,3.0,lower,78.0,78.0,57.0,133.0,133.0,57.0,3,1.5991652011871338,None,,,,,0,0,0,0,0,16,16,68,55.947556495666504,,,,,,,,,,,,,,,,,,,,,,,,,,,,,,,,,,,,,,,,,,,,,,,,,,,,,,,,,,,,,,,,,,,,,,,,,,,,,,,,,78.0,78.0,57.0,133.0,133.0,57.0,3.0,3.2,-202,-273,0,12,191,262,55.9326810836792,55.932722091674805,55.9347128868103,55.947556495666504,56.09728288650513,56.09728288650513,56.09728288650513,56.09728288650513,56.09728288650513,56.09728288650513,56.09728288650513,57.5485315322876,3,1.5991652011871338,None,,,,,,,,,,,,,,,,,,222,5,2025-03-10_11h02.48.057,comp,2024.2.4,59.98967348474121,2025-03-10 11h02.58.014875 -0400,
17,17,0,critical,hdw,35.0,4.0,upper,200.0,125.0,127.0,127.0,125.0,200.0,1,1.1721742153167725,None,,,,,0,0,0,0,0,17,17,113,57.56409931182861,,,,,,,,,,,,,,,,,,,,,,,,,,,,,,,,,,,,,,,,,,,,,,,,,,,,,,,,,,,,,,,,,,,,,,,,,,,,,,,,,200.0,125.0,127.0,127.0,125.0,200.0,4.0,4.1,-222,-290,0,16,260,-272,57.5496039390564,57.549643993377686,57.55208611488342,57.56409931182861,57.71419095993042,57.71419095993042,57.71419095993042,57.71419095993042,57.71419095993042,57.71419095993042,57.71419095993042,58.748873233795166,1,1.1721742153167725,None,,,,,,,,,,,,,,,,,,222,5,2025-03-10_11h02.48.057,comp,2024.2.4,59.98967348474121,2025-03-10 11h02.58.014875 -0400,
18,18,0,filler_random,None,None,None,None,None,None,None,None,None,None,3,1.1338160037994385,None,,,,,0,0,0,0,0,18,18,146,58.763859033584595,,,,,,,,,,,,,,,,,,,,,,,,,,,,,,,,,,,,,,,,,,,,,,,,,,,,,,,,,,,,,,,,,,,,,,,,,,,,,,,,,108.26225737149262,67.4581955460021,71.21939303457467,160.88123045750098,124.67188775123718,177.60022532997593,2.1,2.11,-210,267,0,264,265,-255,58.74979043006897,58.74983334541321,58.75223660469055,58.763859033584595,58.9139928817749,58.9139928817749,58.9139928817749,58.9139928817749,58.9139928817749,58.9139928817749,58.9139928817749,59.915032386779785,3,1.1338160037994385,None,,,,,,,,,,,,,,,,,,222,5,2025-03-10_11h02.48.057,comp,2024.2.4,59.98967348474121,2025-03-10 11h02.58.014875 -0400,
19,19,0,critical,dhw,20.0,2.1,lower,78.0,78.0,133.0,57.0,57.0,133.0,3,1.4785876274108887,None,,,,,0,0,0,0,0,19,19,26,59.9305055141449,,,,,,,,,,,,,,,,,,,,,,,,,,,,,,,,,,,,,,,,,,,,,,,,,,,,,,,,,,,,,,,,,,,,,,,,,,,,,,,,,78.0,78.0,133.0,57.0,57.0,133.0,2.1,2.11,-164,253,0,258,191,-258,59.915833950042725,59.915876626968384,59.91812753677368,59.9305055141449,60.0809531211853,60.0809531211853,60.0809531211853,60.0809531211853,60.0809531211853,60.0809531211853,60.0809531211853,61.41516423225403,3,1.4785876274108887,None,,,,,,,,,,,,,,,,,,222,5,2025-03-10_11h02.48.057,comp,2024.2.4,59.98967348474121,2025-03-10 11h02.58.014875 -0400,
20,20,0,critical,dwh,35.0,2.1,upper,127.0,127.0,125.0,200.0,200.0,125.0,2,0.8580789566040039,None,,,,,0,0,0,0,0,20,20,29,61.4310348033905,,,,,,,,,,,,,,,,,,,,,,,,,,,,,,,,,,,,,,,,,,,,,,,,,,,,,,,,,,,,,,,,,,,,,,,,,,,,,,,,,127.0,127.0,125.0,200.0,200.0,125.0,2.1,2.11,-260,274,0,268,258,-256,61.41591429710388,61.41595458984375,61.41797351837158,61.4310348033905,61.58083176612854,61.58083176612854,61.58083176612854,61.58083176612854,61.58083176612854,61.58083176612854,61.58083176612854,62.29857158660889,2,0.8580789566040039,None,,,,,,,,,,,,,,,,,,222,5,2025-03-10_11h02.48.057,comp,2024.2.4,59.98967348474121,2025-03-10 11h02.58.014875 -0400,
21,21,0,critical,wdh,20.0,2.1,upper,125.0,200.0,141.0,141.0,200.0,125.0,2,0.8382666110992432,None,,,,,0,0,0,0,0,21,21,11,62.31397318840027,,,,,,,,,,,,,,,,,,,,,,,,,,,,,,,,,,,,,,,,,,,,,,,,,,,,,,,,,,,,,,,,,,,,,,,,,,,,,,,,,125.0,200.0,141.0,141.0,200.0,125.0,2.1,2.12,-266,-257,0,-286,229,267,62.299394607543945,62.299436807632446,62.30197834968567,62.31397318840027,62.46412181854248,62.46412181854248,62.46412181854248,62.46412181854248,62.46412181854248,62.46412181854248,62.46412181854248,63.165276765823364,2,0.8382666110992432,None,,,,,,,,,,,,,,,,,,222,5,2025-03-10_11h02.48.057,comp,2024.2.4,59.98967348474121,2025-03-10 11h02.58.014875 -0400,
22,22,0,filler_square,None,None,None,None,None,None,None,None,None,None,3,0.7977409362792969,None,,,,,0,0,0,0,0,22,22,195,63.180482625961304,,,,,,,,,,,,,,,,,,,,,,,,,,,,,,,,,,,,,,,,,,,,,,,,,,,,,,,,,,,,,,,,,,,,,,,,,,,,,,,,,106.40046855025616,75.61794849697995,149.7500906618568,126.38498896604361,172.51124922536184,172.51124922536184,1.0,1.1,-677,261,-480,258,-235,281,63.1662061214447,63.16624617576599,63.16821241378784,63.180482625961304,63.33088207244873,63.33088207244873,63.33088207244873,63.33088207244873,63.33088207244873,63.33088207244873,63.33088207244873,63.982030391693115,3,0.7977409362792969,None,,,,,,,,,,,,,,,,,,222,5,2025-03-10_11h02.48.057,comp,2024.2.4,59.98967348474121,2025-03-10 11h02.58.014875 -0400,
23,23,0,filler_square,None,None,None,None,None,None,None,None,None,None,2,1.0758063793182373,None,,,,,0,0,0,0,0,23,23,198,63.99729037284851,,,,,,,,,,,,,,,,,,,,,,,,,,,,,,,,,,,,,,,,,,,,,,,,,,,,,,,,,,,,,,,,,,,,,,,,,,,,,,,,,79.71957431583382,78.75124812033924,59.32143478968687,65.76680092425666,81.70177355127856,81.70177355127856,2.1,2.12,-168,-268,0,-261,170,251,63.98297095298767,63.983012676239014,63.98533272743225,63.99729037284851,64.14722990989685,64.14722990989685,64.14722990989685,64.14722990989685,64.14722990989685,64.14722990989685,64.14722990989685,65.08152723312378,2,1.0758063793182373,None,,,,,,,,,,,,,,,,,,222,5,2025-03-10_11h02.48.057,comp,2024.2.4,59.98967348474121,2025-03-10 11h02.58.014875 -0400,
24,24,0,critical,hdw,35.0,2.1,lower,133.0,57.0,70.0,70.0,57.0,133.0,3,0.8389732837677002,None,,,,,0,0,0,0,0,24,24,20,65.09730339050293,,,,,,,,,,,,,,,,,,,,,,,,,,,,,,,,,,,,,,,,,,,,,,,,,,,,,,,,,,,,,,,,,,,,,,,,,,,,,,,,,133.0,57.0,70.0,70.0,57.0,133.0,2.1,2.12,-160,-273,0,-261,198,276,65.08231854438782,65.0823609828949,65.08475136756897,65.09730339050293,65.24711036682129,65.24711036682129,65.24711036682129,65.24711036682129,65.24711036682129,65.24711036682129,65.24711036682129,65.94838094711304,3,0.8389732837677002,None,,,,,,,,,,,,,,,,,,222,5,2025-03-10_11h02.48.057,comp,2024.2.4,59.98967348474121,2025-03-10 11h02.58.014875 -0400,
25,25,0,filler_square,None,None,None,None,None,None,None,None,None,None,3,0.8773219585418701,None,,,,,0,0,0,0,0,25,25,196,65.96373915672302,,,,,,,,,,,,,,,,,,,,,,,,,,,,,,,,,,,,,,,,,,,,,,,,,,,,,,,,,,,,,,,,,,,,,,,,,,,,,,,,,115.88189664373026,146.00505094386486,156.53477836847293,156.53477836847293,153.18197779277025,76.35749064045734,2.1,2.12,-247,-251,0,-279,212,260,65.94931292533875,65.94935321807861,65.95171356201172,65.96373915672302,66.1138985157013,66.1138985157013,66.1138985157013,66.1138985157013,66.1138985157013,66.1138985157013,66.1138985157013,66.84839129447937,3,0.8773219585418701,None,,,,,,,,,,,,,,,,,,222,5,2025-03-10_11h02.48.057,comp,2024.2.4,59.98967348474121,2025-03-10 11h02.58.014875 -0400,
26,26,0,critical,hwd,35.0,3.0,upper,200.0,125.0,125.0,200.0,127.0,127.0,2,0.8172838687896729,None,,,,,0,0,0,0,0,26,26,99,66.86391806602478,,,,,,,,,,,,,,,,,,,,,,,,,,,,,,,,,,,,,,,,,,,,,,,,,,,,,,,,,,,,,,,,,,,,,,,,,,,,,,,,,200.0,125.0,125.0,200.0,127.0,127.0,3.0,3.1,-258,265,0,11,260,-263,66.84919428825378,66.84923529624939,66.85160064697266,66.86391806602478,67.01439046859741,67.01439046859741,67.01439046859741,67.01439046859741,67.01439046859741,67.01439046859741,67.01439046859741,67.69838452339172,2,0.8172838687896729,None,,,,,,,,,,,,,,,,,,222,5,2025-03-10_11h02.48.057,comp,2024.2.4,59.98967348474121,2025-03-10 11h02.58.014875 -0400,
27,27,0,filler_square,None,None,None,None,None,None,None,None,None,None,2,1.007939338684082,None,,,,,0,0,0,0,0,27,27,201,67.71374034881592,,,,,,,,,,,,,,,,,,,,,,,,,,,,,,,,,,,,,,,,,,,,,,,,,,,,,,,,,,,,,,,,,,,,,,,,,,,,,,,,,101.57116142535551,101.57116142535551,98.168521785036,83.34770564424674,85.22629889912206,57.4920457040578,4.0,4.1,-188,-267,0,18,166,-283,67.6993453502655,67.69938588142395,67.70175194740295,67.71374034881592,67.86386489868164,67.86386489868164,67.86386489868164,67.86386489868164,67.86386489868164,67.86386489868164,67.86386489868164,68.73166942596436,2,1.007939338684082,None,,,,,,,,,,,,,,,,,,222,5,2025-03-10_11h02.48.057,comp,2024.2.4,59.98967348474121,2025-03-10 11h02.58.014875 -0400,
28,28,0,catch,None,None,None,None,None,None,None,None,None,None,1,0.846015453338623,None,,,,,0,0,0,0,0,28,28,121,68.7472791671753,,,,,,,,,,,,,,,,,,,,,,,,,,,,,,,,,,,,,,,,,,,,,,,,,,,,,,,,,,,,,,,,,,,,,,,,,,,,,,,,,132,193,80,110,72,118,4.0,4.1,-248,-265,0,19,210,-275,68.73267245292664,68.7327127456665,68.73515224456787,68.7472791671753,68.89733791351318,68.89733791351318,68.89733791351318,68.89733791351318,68.89733791351318,68.89733791351318,68.89733791351318,69.59860968589783,1,0.846015453338623,None,,,,,,,,,,,,,,,,,,222,5,2025-03-10_11h02.48.057,comp,2024.2.4,59.98967348474121,2025-03-10 11h02.58.014875 -0400,
29,29,0,critical,dhw,20.0,2.1,upper,141.0,141.0,200.0,125.0,125.0,200.0,2,2.500300407409668,None,,,,,0,0,0,0,0,29,29,27,69.61396884918213,,,,,,,,,,,,,,,,,,,,,,,,,,,,,,,,,,,,,,,,,,,,,,,,,,,,,,,,,,,,,,,,,,,,,,,,,,,,,,,,,141.0,141.0,200.0,125.0,125.0,200.0,2.1,2.11,-229,269,0,280,258,-278,69.59939861297607,69.5994393825531,69.60191178321838,69.61396884918213,69.76398754119873,69.76398754119873,69.76398754119873,69.76398754119873,69.76398754119873,69.76398754119873,69.76398754119873,72.13200736045837,2,2.500300407409668,None,,,,,,,,,,,,,,,,,,222,5,2025-03-10_11h02.48.057,comp,2024.2.4,59.98967348474121,2025-03-10 11h02.58.014875 -0400,
30,30,0,filler_square,None,None,None,None,None,None,None,None,None,None,2,1.1418943405151367,None,,,,,0,0,0,0,0,30,30,173,72.1471574306488,,,,,,,,,,,,,,,,,,,,,,,,,,,,,,,,,,,,,,,,,,,,,,,,,,,,,,,,,,,,,,,,,,,,,,,,,,,,,,,,,101.86203954955735,66.18274299540799,130.92098007200875,130.92098007200875,83.37825600226252,119.77446341151509,4.0,4.1,-195,-261,0,18,221,-282,72.13299298286438,72.13303661346436,72.13509106636047,72.1471574306488,72.29718327522278,72.29718327522278,72.29718327522278,72.29718327522278,72.29718327522278,72.29718327522278,72.29718327522278,73.29835915565491,2,1.1418943405151367,None,,,,,,,,,,,,,,,,,,222,5,2025-03-10_11h02.48.057,comp,2024.2.4,59.98967348474121,2025-03-10 11h02.58.014875 -0400,
31,31,0,critical,dwh,20.0,2.1,lower,78.0,78.0,57.0,133.0,133.0,57.0,2,2.8221726417541504,None,,,,,0,0,0,0,0,31,31,30,73.31396698951721,,,,,,,,,,,,,,,,,,,,,,,,,,,,,,,,,,,,,,,,,,,,,,,,,,,,,,,,,,,,,,,,,,,,,,,,,,,,,,,,,78.0,78.0,57.0,133.0,133.0,57.0,2.1,2.12,-202,-265,0,-257,191,252,73.29918098449707,73.29922246932983,73.30151987075806,73.31396698951721,73.46371245384216,73.46371245384216,73.46371245384216,73.46371245384216,73.46371245384216,73.46371245384216,73.46371245384216,76.1485447883606,2,2.8221726417541504,None,,,,,,,,,,,,,,,,,,222,5,2025-03-10_11h02.48.057,comp,2024.2.4,59.98967348474121,2025-03-10 11h02.58.014875 -0400,
32,32,0,filler_random,None,None,None,None,None,None,None,None,None,None,3,2.64546275138855,None,,,,,0,0,0,0,0,32,32,150,76.16371202468872,,,,,,,,,,,,,,,,,,,,,,,,,,,,,,,,,,,,,,,,,,,,,,,,,,,,,,,,,,,,,,,,,,,,,,,,,,,,,,,,,86.7666145244374,197.17797944855337,158.66930596806287,186.23928875137236,195.21836333640377,143.84477820137602,2.2,2.21,-288,-278,0,279,261,271,76.14945816993713,76.14950180053711,76.15212202072144,76.16371202468872,76.31406307220459,76.31406307220459,76.31406307220459,76.31406307220459,76.31406307220459,76.31406307220459,76.31406307220459,78.81518244743347,3,2.64546275138855,None,,,,,,,,,,,,,,,,,,222,5,2025-03-10_11h02.48.057,comp,2024.2.4,59.98967348474121,2025-03-10 11h02.58.014875 -0400,
33,33,0,critical,wdh,20.0,4.0,lower,57.0,133.0,78.0,78.0,133.0,57.0,2,1.9321801662445068,None,,,,,0,0,0,0,0,33,33,82,78.83062219619751,,,,,,,,,,,,,,,,,,,,,,,,,,,,,,,,,,,,,,,,,,,,,,,,,,,,,,,,,,,,,,,,,,,,,,,,,,,,,,,,,57.0,133.0,78.0,78.0,133.0,57.0,4.0,4.2,-202,-13,0,-258,164,-14,78.81594252586365,78.81598496437073,78.81806302070618,78.83062219619751,78.98082447052002,78.98082447052002,78.98082447052002,78.98082447052002,78.98082447052002,78.98082447052002,78.98082447052002,80.76490306854248,2,1.9321801662445068,None,,,,,,,,,,,,,,,,,,222,5,2025-03-10_11h02.48.057,comp,2024.2.4,59.98967348474121,2025-03-10 11h02.58.014875 -0400,
34,34,0,catch,None,None,None,None,None,None,None,None,None,None,2,0.9498193264007568,None,,,,,0,0,0,0,0,34,34,126,80.78066921234131,,,,,,,,,,,,,,,,,,,,,,,,,,,,,,,,,,,,,,,,,,,,,,,,,,,,,,,,,,,,,,,,,,,,,,,,,,,,,,,,,69,121,185,140,80,110,3.0,3.1,-226,278,0,17,221,-279,80.76596140861511,80.76600384712219,80.76818895339966,80.78066921234131,80.93058466911316,80.93058466911316,80.93058466911316,80.93058466911316,80.93058466911316,80.93058466911316,80.93058466911316,81.73188209533691,2,0.9498193264007568,None,,,,,,,,,,,,,,,,,,222,5,2025-03-10_11h02.48.057,comp,2024.2.4,59.98967348474121,2025-03-10 11h02.58.014875 -0400,
35,35,0,filler_square,None,None,None,None,None,None,None,None,None,None,3,3.574204206466675,None,,,,,0,0,0,0,0,35,35,200,81.74727058410645,,,,,,,,,,,,,,,,,,,,,,,,,,,,,,,,,,,,,,,,,,,,,,,,,,,,,,,,,,,,,,,,,,,,,,,,,,,,,,,,,72.24794373864111,72.24794373864111,62.32398379370346,70.64213487717097,71.27817037855186,67.98030180151,3.0,3.1,-167,284,0,15,165,-281,81.73285794258118,81.73290061950684,81.7354199886322,81.74727058410645,81.89729976654053,81.89729976654053,81.89729976654053,81.89729976654053,81.89729976654053,81.89729976654053,81.89729976654053,85.33146905899048,3,3.574204206466675,None,,,,,,,,,,,,,,,,,,222,5,2025-03-10_11h02.48.057,comp,2024.2.4,59.98967348474121,2025-03-10 11h02.58.014875 -0400,
36,36,0,catch,None,None,None,None,None,None,None,None,None,None,2,1.0378785133361816,None,,,,,0,0,0,0,0,36,36,128,85.3472216129303,,,,,,,,,,,,,,,,,,,,,,,,,,,,,,,,,,,,,,,,,,,,,,,,,,,,,,,,,,,,,,,,,,,,,,,,,,,,,,,,,59,131,158,167,132,58,1.0,1.3,235,-269,480,-262,688,-287,85.33253359794617,85.33257794380188,85.33509945869446,85.3472216129303,85.49742221832275,85.49742221832275,85.49742221832275,85.49742221832275,85.49742221832275,85.49742221832275,85.49742221832275,86.39824533462524,2,1.0378785133361816,None,,,,,,,,,,,,,,,,,,222,5,2025-03-10_11h02.48.057,comp,2024.2.4,59.98967348474121,2025-03-10 11h02.58.014875 -0400,
37,37,0,critical,whd,20.0,3.0,lower,57.0,133.0,133.0,57.0,78.0,78.0,2,3.522564649581909,None,,,,,0,0,0,0,0,37,37,92,86.41356158256531,,,,,,,,,,,,,,,,,,,,,,,,,,,,,,,,,,,,,,,,,,,,,,,,,,,,,,,,,,,,,,,,,,,,,,,,,,,,,,,,,57.0,133.0,133.0,57.0,78.0,78.0,3.0,3.2,-191,-286,0,-18,164,257,86.39902186393738,86.39907503128052,86.40139293670654,86.41356158256531,86.56377243995667,86.56377243995667,86.56377243995667,86.56377243995667,86.56377243995667,86.56377243995667,86.56377243995667,89.9482159614563,2,3.522564649581909,None,,,,,,,,,,,,,,,,,,222,5,2025-03-10_11h02.48.057,comp,2024.2.4,59.98967348474121,2025-03-10 11h02.58.014875 -0400,
38,38,0,filler_square,None,None,None,None,None,None,None,None,None,None,2,2.367119789123535,None,,,,,0,0,0,0,0,38,38,194,89.96344327926636,,,,,,,,,,,,,,,,,,,,,,,,,,,,,,,,,,,,,,,,,,,,,,,,,,,,,,,,,,,,,,,,,,,,,,,,,,,,,,,,,154.36879516158677,148.8695732122833,154.98000926853194,154.98000926853194,76.32712789671271,68.00071689560377,2.1,2.12,-248,-280,0,-253,207,271,89.94915246963501,89.94919419288635,89.95152997970581,89.96344327926636,90.1139018535614,90.1139018535614,90.1139018535614,90.1139018535614,90.1139018535614,90.1139018535614,90.1139018535614,92.33189058303833,2,2.367119789123535,None,,,,,,,,,,,,,,,,,,222,5,2025-03-10_11h02.48.057,comp,2024.2.4,59.98967348474121,2025-03-10 11h02.58.014875 -0400,
39,39,0,critical,dwh,35.0,3.0,lower,70.0,70.0,57.0,133.0,133.0,57.0,2,1.158160924911499,None,,,,,0,0,0,0,0,39,39,62,92.34716701507568,,,,,,,,,,,,,,,,,,,,,,,,,,,,,,,,,,,,,,,,,,,,,,,,,,,,,,,,,,,,,,,,,,,,,,,,,,,,,,,,,70.0,70.0,57.0,133.0,133.0,57.0,3.0,3.1,-198,275,0,9,191,-274,92.3327283859253,92.33277106285095,92.33490109443665,92.34716701507568,92.49707698822021,92.49707698822021,92.49707698822021,92.49707698822021,92.49707698822021,92.49707698822021,92.49707698822021,93.51493835449219,2,1.158160924911499,None,,,,,,,,,,,,,,,,,,222,5,2025-03-10_11h02.48.057,comp,2024.2.4,59.98967348474121,2025-03-10 11h02.58.014875 -0400,
40,40,0,critical,hwd,35.0,1.0,lower,133.0,57.0,57.0,133.0,70.0,70.0,2,0.8782303333282471,None,,,,,0,0,0,0,0,40,40,96,93.53060412406921,,,,,,,,,,,,,,,,,,,,,,,,,,,,,,,,,,,,,,,,,,,,,,,,,,,,,,,,,,,,,,,,,,,,,,,,,,,,,,,,,133.0,57.0,57.0,133.0,70.0,70.0,1.0,1.2,-191,13,0,-19,198,-13,93.5158302783966,93.51587247848511,93.51794624328613,93.53060412406921,93.68048000335693,93.68048000335693,93.68048000335693,93.68048000335693,93.68048000335693,93.68048000335693,93.68048000335693,94.41475200653076,2,0.8782303333282471,None,,,,,,,,,,,,,,,,,,222,5,2025-03-10_11h02.48.057,comp,2024.2.4,59.98967348474121,2025-03-10 11h02.58.014875 -0400,
41,41,0,filler_random,None,None,None,None,None,None,None,None,None,None,1,1.217616081237793,None,,,,,0,0,0,0,0,41,41,167,94.43050599098206,,,,,,,,,,,,,,,,,,,,,,,,,,,,,,,,,,,,,,,,,,,,,,,,,,,,,,,,,,,,,,,,,,,,,,,,,,,,,,,,,142.86141728454174,159.55135941131832,170.90551904722463,142.63865491642784,170.31974022216497,114.24752084239407,2.2,2.22,-247,278,0,-268,224,-264,94.41566157341003,94.41570448875427,94.41809225082397,94.43050599098206,94.58046388626099,94.58046388626099,94.58046388626099,94.58046388626099,94.58046388626099,94.58046388626099,94.58046388626099,95.6649239063263,1,1.217616081237793,None,,,,,,,,,,,,,,,,,,222,5,2025-03-10_11h02.48.057,comp,2024.2.4,59.98967348474121,2025-03-10 11h02.58.014875 -0400,
42,42,0,critical,dwh,20.0,2.1,upper,141.0,141.0,125.0,200.0,200.0,125.0,2,0.8251590728759766,None,,,,,0,0,0,0,0,42,42,31,95.68015098571777,,,,,,,,,,,,,,,,,,,,,,,,,,,,,,,,,,,,,,,,,,,,,,,,,,,,,,,,,,,,,,,,,,,,,,,,,,,,,,,,,141.0,141.0,125.0,200.0,200.0,125.0,2.1,2.12,-266,-285,0,-287,258,283,95.66570734977722,95.6657464504242,95.66827178001404,95.68015098571777,95.83055782318115,95.83055782318115,95.83055782318115,95.83055782318115,95.83055782318115,95.83055782318115,95.83055782318115,96.5150032043457,2,0.8251590728759766,None,,,,,,,,,,,,,,,,,,222,5,2025-03-10_11h02.48.057,comp,2024.2.4,59.98967348474121,2025-03-10 11h02.58.014875 -0400,
43,43,0,critical,hwd,20.0,2.1,lower,133.0,57.0,57.0,133.0,78.0,78.0,3,0.8856348991394043,None,,,,,0,0,0,0,0,43,43,42,96.53045964241028,,,,,,,,,,,,,,,,,,,,,,,,,,,,,,,,,,,,,,,,,,,,,,,,,,,,,,,,,,,,,,,,,,,,,,,,,,,,,,,,,133.0,57.0,57.0,133.0,78.0,78.0,2.1,2.11,-191,261,0,290,202,-253,96.51579546928406,96.51583909988403,96.51810836791992,96.53045964241028,96.68038892745972,96.68038892745972,96.68038892745972,96.68038892745972,96.68038892745972,96.68038892745972,96.68038892745972,97.43140411376953,3,0.8856348991394043,None,,,,,,,,,,,,,,,,,,222,5,2025-03-10_11h02.48.057,comp,2024.2.4,59.98967348474121,2025-03-10 11h02.58.014875 -0400,
44,44,0,critical,hdw,20.0,2.1,lower,133.0,57.0,78.0,78.0,57.0,133.0,2,0.8994061946868896,None,,,,,0,0,0,0,0,44,44,22,97.44691681861877,,,,,,,,,,,,,,,,,,,,,,,,,,,,,,,,,,,,,,,,,,,,,,,,,,,,,,,,,,,,,,,,,,,,,,,,,,,,,,,,,133.0,57.0,78.0,78.0,57.0,133.0,2.1,2.12,-164,-281,0,-254,202,274,97.43220019340515,97.43224048614502,97.43462204933167,97.44691681861877,97.59713077545166,97.59713077545166,97.59713077545166,97.59713077545166,97.59713077545166,97.59713077545166,97.59713077545166,98.36472249031067,2,0.8994061946868896,None,,,,,,,,,,,,,,,,,,222,5,2025-03-10_11h02.48.057,comp,2024.2.4,59.98967348474121,2025-03-10 11h02.58.014875 -0400,
45,45,0,critical,hdw,20.0,2.1,lower,133.0,57.0,78.0,78.0,57.0,133.0,1,0.7980513572692871,None,,,,,0,0,0,0,0,45,45,46,98.38012385368347,,,,,,,,,,,,,,,,,,,,,,,,,,,,,,,,,,,,,,,,,,,,,,,,,,,,,,,,,,,,,,,,,,,,,,,,,,,,,,,,,133.0,57.0,78.0,78.0,57.0,133.0,2.1,2.11,-164,270,0,252,202,-279,98.36553454399109,98.36557674407959,98.36808061599731,98.38012385368347,98.5303008556366,98.5303008556366,98.5303008556366,98.5303008556366,98.5303008556366,98.5303008556366,98.5303008556366,99.18148922920227,1,0.7980513572692871,None,,,,,,,,,,,,,,,,,,222,5,2025-03-10_11h02.48.057,comp,2024.2.4,59.98967348474121,2025-03-10 11h02.58.014875 -0400,
46,46,0,filler_random,None,None,None,None,None,None,None,None,None,None,3,1.1809959411621094,None,,,,,0,0,0,0,0,46,46,134,99.1970419883728,,,,,,,,,,,,,,,,,,,,,,,,,,,,,,,,,,,,,,,,,,,,,,,,,,,,,,,,,,,,,,,,,,,,,,,,,,,,,,,,,59.32191010418465,183.30492819107252,130.6444494312119,71.76849722268871,147.7817285044662,94.98480642108422,1.0,1.3,256,-279,480,-271,659,-278,99.18239426612854,99.18244004249573,99.18451046943665,99.1970419883728,99.34725904464722,99.34725904464722,99.34725904464722,99.34725904464722,99.34725904464722,99.34725904464722,99.34725904464722,100.38163232803345,3,1.1809959411621094,None,,,,,,,,,,,,,,,,,,222,5,2025-03-10_11h02.48.057,comp,2024.2.4,59.98967348474121,2025-03-10 11h02.58.014875 -0400,
47,47,0,critical,whd,35.0,1.0,upper,125.0,200.0,200.0,125.0,127.0,127.0,3,1.1544215679168701,None,,,,,0,0,0,0,0,47,47,85,100.39753460884094,,,,,,,,,,,,,,,,,,,,,,,,,,,,,,,,,,,,,,,,,,,,,,,,,,,,,,,,,,,,,,,,,,,,,,,,,,,,,,,,,125.0,200.0,200.0,125.0,127.0,127.0,1.0,1.2,-258,8,0,-3,222,0,100.38241338729858,100.3824553489685,100.38444805145264,100.39753460884094,100.54770517349243,100.54770517349243,100.54770517349243,100.54770517349243,100.54770517349243,100.54770517349243,100.54770517349243,101.5648865699768,3,1.1544215679168701,None,,,,,,,,,,,,,,,,,,222,5,2025-03-10_11h02.48.057,comp,2024.2.4,59.98967348474121,2025-03-10 11h02.58.014875 -0400,
48,48,0,critical,dhw,35.0,4.0,lower,70.0,70.0,133.0,57.0,57.0,133.0,2,0.9501817226409912,None,,,,,0,0,0,0,0,48,48,52,101.58018398284912,,,,,,,,,,,,,,,,,,,,,,,,,,,,,,,,,,,,,,,,,,,,,,,,,,,,,,,,,,,,,,,,,,,,,,,,,,,,,,,,,70.0,70.0,133.0,57.0,57.0,133.0,4.0,4.1,-160,-263,0,11,191,-260,101.56580257415771,101.56584596633911,101.56833600997925,101.58018398284912,101.73020124435425,101.73020124435425,101.73020124435425,101.73020124435425,101.73020124435425,101.73020124435425,101.73020124435425,102.53152060508728,2,0.9501817226409912,None,,,,,,,,,,,,,,,,,,222,5,2025-03-10_11h02.48.057,comp,2024.2.4,59.98967348474121,2025-03-10 11h02.58.014875 -0400,
49,49,0,filler_square,None,None,None,None,None,None,None,None,None,None,3,0.7994446754455566,None,,,,,0,0,0,0,0,49,49,203,102.54744338989258,,,,,,,,,,,,,,,,,,,,,,,,,,,,,,,,,,,,,,,,,,,,,,,,,,,,,,,,,,,,,,,,,,,,,,,,,,,,,,,,,82.26668354480233,109.41485396451085,97.20032591582901,94.0091426765229,119.63683042209271,119.63683042209271,1.0,1.2,-198,-17,0,-3,203,11,102.53246712684631,102.53251051902771,102.53486156463623,102.54744338989258,102.69735312461853,102.69735312461853,102.69735312461853,102.69735312461853,102.69735312461853,102.69735312461853,102.69735312461853,103.34829568862915,3,0.7994446754455566,None,,,,,,,,,,,,,,,,,,222,5,2025-03-10_11h02.48.057,comp,2024.2.4,59.98967348474121,2025-03-10 11h02.58.014875 -0400,
50,50,0,critical,hwd,20.0,2.1,upper,200.0,125.0,125.0,200.0,141.0,141.0,3,0.8451848030090332,None,,,,,0,0,0,0,0,50,50,43,103.36366152763367,,,,,,,,,,,,,,,,,,,,,,,,,,,,,,,,,,,,,,,,,,,,,,,,,,,,,,,,,,,,,,,,,,,,,,,,,,,,,,,,,200.0,125.0,125.0,200.0,141.0,141.0,2.1,2.12,-258,-260,0,-270,266,281,103.34908437728882,103.34912896156311,103.35141062736511,103.36366152763367,103.51402544975281,103.51402544975281,103.51402544975281,103.51402544975281,103.51402544975281,103.51402544975281,103.51402544975281,104.21493887901306,3,0.8451848030090332,None,,,,,,,,,,,,,,,,,,222,5,2025-03-10_11h02.48.057,comp,2024.2.4,59.98967348474121,2025-03-10 11h02.58.014875 -0400,
51,51,0,critical,dwh,35.0,2.1,lower,70.0,70.0,57.0,133.0,133.0,57.0,3,1.2835021018981934,None,,,,,0,0,0,0,0,51,51,4,104.23032546043396,,,,,,,,,,,,,,,,,,,,,,,,,,,,,,,,,,,,,,,,,,,,,,,,,,,,,,,,,,,,,,,,,,,,,,,,,,,,,,,,,70.0,70.0,57.0,133.0,133.0,57.0,2.1,2.11,-198,282,0,255,191,-283,104.21572971343994,104.21577072143555,104.21784734725952,104.23032546043396,104.38065385818481,104.38065385818481,104.38065385818481,104.38065385818481,104.38065385818481,104.38065385818481,104.38065385818481,105.53149318695068,3,1.2835021018981934,None,,,,,,,,,,,,,,,,,,222,5,2025-03-10_11h02.48.057,comp,2024.2.4,59.98967348474121,2025-03-10 11h02.58.014875 -0400,
52,52,0,critical,dhw,35.0,2.1,lower,70.0,70.0,133.0,57.0,57.0,133.0,2,1.0381066799163818,None,,,,,0,0,0,0,0,52,52,0,105.54687738418579,,,,,,,,,,,,,,,,,,,,,,,,,,,,,,,,,,,,,,,,,,,,,,,,,,,,,,,,,,,,,,,,,,,,,,,,,,,,,,,,,70.0,70.0,133.0,57.0,57.0,133.0,2.1,2.11,-160,268,0,275,191,-274,105.53229689598083,105.5323395729065,105.53468132019043,105.54687738418579,105.69685697555542,105.69685697555542,105.69685697555542,105.69685697555542,105.69685697555542,105.69685697555542,105.69685697555542,106.59796738624573,2,1.0381066799163818,None,,,,,,,,,,,,,,,,,,222,5,2025-03-10_11h02.48.057,comp,2024.2.4,59.98967348474121,2025-03-10 11h02.58.014875 -0400,
53,53,0,filler_square,None,None,None,None,None,None,None,None,None,None,3,1.1793997287750244,None,,,,,0,0,0,0,0,53,53,197,106.61350703239441,,,,,,,,,,,,,,,,,,,,,,,,,,,,,,,,,,,,,,,,,,,,,,,,,,,,,,,,,,,,,,,,,,,,,,,,,,,,,,,,,107.64221252253711,72.32138014047236,87.17752906203773,104.10636409498221,117.50444431500702,117.50444431500702,2.1,2.11,-184,287,0,270,207,-253,106.5988872051239,106.59892749786377,106.60121202468872,106.61350703239441,106.7637574672699,106.7637574672699,106.7637574672699,106.7637574672699,106.7637574672699,106.7637574672699,106.7637574672699,107.79832911491394,3,1.1793997287750244,None,,,,,,,,,,,,,,,,,,222,5,2025-03-10_11h02.48.057,comp,2024.2.4,59.98967348474121,2025-03-10 11h02.58.014875 -0400,
54,54,0,critical,whd,35.0,1.0,lower,57.0,133.0,133.0,57.0,70.0,70.0,1,2.483461380004883,None,,,,,0,0,0,0,0,54,54,84,107.81367063522339,,,,,,,,,,,,,,,,,,,,,,,,,,,,,,,,,,,,,,,,,,,,,,,,,,,,,,,,,,,,,,,,,,,,,,,,,,,,,,,,,57.0,133.0,133.0,57.0,70.0,70.0,1.0,1.3,289,-287,480,-288,640,-270,107.79912400245667,107.7991669178009,107.80157089233398,107.81367063522339,107.96355104446411,107.96355104446411,107.96355104446411,107.96355104446411,107.96355104446411,107.96355104446411,107.96355104446411,110.31474328041077,1,2.483461380004883,None,,,,,,,,,,,,,,,,,,222,5,2025-03-10_11h02.48.057,comp,2024.2.4,59.98967348474121,2025-03-10 11h02.58.014875 -0400,
55,55,0,catch,None,None,None,None,None,None,None,None,None,None,2,1.101999282836914,None,,,,,0,0,0,0,0,55,55,129,110.33021426200867,,,,,,,,,,,,,,,,,,,,,,,,,,,,,,,,,,,,,,,,,,,,,,,,,,,,,,,,,,,,,,,,,,,,,,,,,,,,,,,,,81,109,145,180,101,89,3.0,3.2,-240,-287,0,-9,230,268,110.31580853462219,110.31585192680359,110.31835341453552,110.33021426200867,110.48025822639465,110.48025822639465,110.48025822639465,110.48025822639465,110.48025822639465,110.48025822639465,110.48025822639465,111.44809341430664,2,1.101999282836914,None,,,,,,,,,,,,,,,,,,222,5,2025-03-10_11h02.48.057,comp,2024.2.4,59.98967348474121,2025-03-10 11h02.58.014875 -0400,
56,56,0,filler_square,None,None,None,None,None,None,None,None,None,None,2,1.1526098251342773,None,,,,,0,0,0,0,0,56,56,181,111.46353125572205,,,,,,,,,,,,,,,,,,,,,,,,,,,,,,,,,,,,,,,,,,,,,,,,,,,,,,,,,,,,,,,,,,,,,,,,,,,,,,,,,137.81054469054038,61.3800734721566,168.7686251222267,168.7686251222267,139.04771063342628,122.6611280172886,2.2,2.21,-211,-276,0,257,242,271,111.4490294456482,111.44908785820007,111.4511489868164,111.46353125572205,111.61394119262695,111.61394119262695,111.61394119262695,111.61394119262695,111.61394119262695,111.61394119262695,111.61394119262695,112.6315450668335,2,1.1526098251342773,None,,,,,,,,,,,,,,,,,,222,5,2025-03-10_11h02.48.057,comp,2024.2.4,59.98967348474121,2025-03-10 11h02.58.014875 -0400,
57,57,0,filler_square,None,None,None,None,None,None,None,None,None,None,1,1.417220115661621,None,,,,,0,0,0,0,0,57,57,206,112.64689254760742,,,,,,,,,,,,,,,,,,,,,,,,,,,,,,,,,,,,,,,,,,,,,,,,,,,,,,,,,,,,,,,,,,,,,,,,,,,,,,,,,133.5467430841238,133.5467430841238,82.23086508235303,112.98041957031572,128.72881736508742,94.30344084397703,3.0,3.1,-219,286,0,-6,200,-267,112.63261103630066,112.632652759552,112.63513445854187,112.64689254760742,112.79703140258789,112.79703140258789,112.79703140258789,112.79703140258789,112.79703140258789,112.79703140258789,112.79703140258789,114.08155417442322,1,1.417220115661621,None,,,,,,,,,,,,,,,,,,222,5,2025-03-10_11h02.48.057,comp,2024.2.4,59.98967348474121,2025-03-10 11h02.58.014875 -0400,
58,58,0,filler_square,None,None,None,None,None,None,None,None,None,None,2,0.8811192512512207,None,,,,,0,0,0,0,0,58,58,172,114.09680962562561,,,,,,,,,,,,,,,,,,,,,,,,,,,,,,,,,,,,,,,,,,,,,,,,,,,,,,,,,,,,,,,,,,,,,,,,,,,,,,,,,87.6971240119326,131.57160221506422,131.58174882703838,131.58174882703838,62.602698922209385,123.70184565110434,2.1,2.11,-228,267,0,262,224,-273,114.0825126171112,114.08255457878113,114.08499884605408,114.09680962562561,114.24686479568481,114.24686479568481,114.24686479568481,114.24686479568481,114.24686479568481,114.24686479568481,114.24686479568481,114.9814887046814,2,0.8811192512512207,None,,,,,,,,,,,,,,,,,,222,5,2025-03-10_11h02.48.057,comp,2024.2.4,59.98967348474121,2025-03-10 11h02.58.014875 -0400,
59,59,0,critical,hwd,35.0,2.1,lower,133.0,57.0,57.0,133.0,70.0,70.0,2,2.5713798999786377,None,,,,,0,0,0,0,0,59,59,40,114.99685764312744,,,,,,,,,,,,,,,,,,,,,,,,,,,,,,,,,,,,,,,,,,,,,,,,,,,,,,,,,,,,,,,,,,,,,,,,,,,,,,,,,133.0,57.0,57.0,133.0,70.0,70.0,2.1,2.11,-191,278,0,260,198,-253,114.98228979110718,114.98233366012573,114.98465371131897,114.99685764312744,115.14694142341614,115.14694142341614,115.14694142341614,115.14694142341614,115.14694142341614,115.14694142341614,115.14694142341614,117.58135032653809,2,2.5713798999786377,None,,,,,,,,,,,,,,,,,,222,5,2025-03-10_11h02.48.057,comp,2024.2.4,59.98967348474121,2025-03-10 11h02.58.014875 -0400,
60,60,0,critical,dwh,20.0,3.0,upper,141.0,141.0,125.0,200.0,200.0,125.0,2,0.9339780807495117,None,,,,,0,0,0,0,0,60,60,69,117.59663343429565,,,,,,,,,,,,,,,,,,,,,,,,,,,,,,,,,,,,,,,,,,,,,,,,,,,,,,,,,,,,,,,,,,,,,,,,,,,,,,,,,141.0,141.0,125.0,200.0,200.0,125.0,3.0,3.1,-266,266,0,-19,258,-263,117.58213949203491,117.58218264579773,117.58457088470459,117.59663343429565,117.747323513031,117.747323513031,117.747323513031,117.747323513031,117.747323513031,117.747323513031,117.747323513031,118.53192400932312,2,0.9339780807495117,None,,,,,,,,,,,,,,,,,,222,5,2025-03-10_11h02.48.057,comp,2024.2.4,59.98967348474121,2025-03-10 11h02.58.014875 -0400,
61,61,0,critical,whd,35.0,3.0,lower,57.0,133.0,133.0,57.0,70.0,70.0,3,1.068960428237915,None,,,,,0,0,0,0,0,61,61,86,118.54695701599121,,,,,,,,,,,,,,,,,,,,,,,,,,,,,,,,,,,,,,,,,,,,,,,,,,,,,,,,,,,,,,,,,,,,,,,,,,,,,,,,,57.0,133.0,133.0,57.0,70.0,70.0,3.0,3.2,-191,-253,0,-6,160,275,118.53274536132812,118.53278827667236,118.53497052192688,118.54695701599121,118.69684600830078,118.69684600830078,118.69684600830078,118.69684600830078,118.69684600830078,118.69684600830078,118.69684600830078,119.63126063346863,3,1.068960428237915,None,,,,,,,,,,,,,,,,,,222,5,2025-03-10_11h02.48.057,comp,2024.2.4,59.98967348474121,2025-03-10 11h02.58.014875 -0400,
62,62,0,critical,hwd,35.0,3.0,lower,133.0,57.0,57.0,133.0,70.0,70.0,2,1.1158251762390137,None,,,,,0,0,0,0,0,62,62,98,119.64671468734741,,,,,,,,,,,,,,,,,,,,,,,,,,,,,,,,,,,,,,,,,,,,,,,,,,,,,,,,,,,,,,,,,,,,,,,,,,,,,,,,,133.0,57.0,57.0,133.0,70.0,70.0,3.0,3.1,-191,285,0,11,198,-280,119.63214135169983,119.63218331336975,119.63461542129517,119.64671468734741,119.79673671722412,119.79673671722412,119.79673671722412,119.79673671722412,119.79673671722412,119.79673671722412,119.79673671722412,120.76460099220276,2,1.1158251762390137,None,,,,,,,,,,,,,,,,,,222,5,2025-03-10_11h02.48.057,comp,2024.2.4,59.98967348474121,2025-03-10 11h02.58.014875 -0400,
63,63,0,filler_random,None,None,None,None,None,None,None,None,None,None,2,0.9085259437561035,None,,,,,0,0,0,0,0,63,63,132,120.78015112876892,,,,,,,,,,,,,,,,,,,,,,,,,,,,,,,,,,,,,,,,,,,,,,,,,,,,,,,,,,,,,,,,,,,,,,,,,,,,,,,,,58.17827227086091,188.22946011516206,94.16481997990955,150.50695064511555,132.56705664756194,65.27358392144282,1.0,1.2,-265,15,0,-4,204,10,120.76548099517822,120.76552486419678,120.76762056350708,120.78015112876892,120.93032217025757,120.93032217025757,120.93032217025757,120.93032217025757,120.93032217025757,120.93032217025757,120.93032217025757,121.69788718223572,2,0.9085259437561035,None,,,,,,,,,,,,,,,,,,222,5,2025-03-10_11h02.48.057,comp,2024.2.4,59.98967348474121,2025-03-10 11h02.58.014875 -0400,
64,64,0,filler_random,None,None,None,None,None,None,None,None,None,None,3,1.0074434280395508,None,,,,,0,0,0,0,0,64,64,148,121.71353006362915,,,,,,,,,,,,,,,,,,,,,,,,,,,,,,,,,,,,,,,,,,,,,,,,,,,,,,,,,,,,,,,,,,,,,,,,,,,,,,,,,114.28480530908632,88.02699174174889,184.10329609056072,109.86310754169338,195.95592995014803,160.58113585486896,2.2,2.22,-195,265,0,-273,231,-260,121.6987829208374,121.6988251209259,121.70148754119873,121.71353006362915,121.86406898498535,121.86406898498535,121.86406898498535,121.86406898498535,121.86406898498535,121.86406898498535,121.86406898498535,122.7314145565033,3,1.0074434280395508,None,,,,,,,,,,,,,,,,,,222,5,2025-03-10_11h02.48.057,comp,2024.2.4,59.98967348474121,2025-03-10 11h02.58.014875 -0400,
65,65,0,critical,dhw,20.0,2.1,upper,141.0,141.0,200.0,125.0,125.0,200.0,3,0.8155803680419922,None,,,,,0,0,0,0,0,65,65,3,122.74694991111755,,,,,,,,,,,,,,,,,,,,,,,,,,,,,,,,,,,,,,,,,,,,,,,,,,,,,,,,,,,,,,,,,,,,,,,,,,,,,,,,,141.0,141.0,200.0,125.0,125.0,200.0,2.1,2.12,-229,-277,0,-254,258,265,122.73227429389954,122.73231744766235,122.73481702804565,122.74694991111755,122.89703726768494,122.89703726768494,122.89703726768494,122.89703726768494,122.89703726768494,122.89703726768494,122.89703726768494,123.56485748291016,3,0.8155803680419922,None,,,,,,,,,,,,,,,,,,222,5,2025-03-10_11h02.48.057,comp,2024.2.4,59.98967348474121,2025-03-10 11h02.58.014875 -0400,
66,66,0,critical,hwd,20.0,3.0,upper,200.0,125.0,125.0,200.0,141.0,141.0,2,0.8355331420898438,None,,,,,0,0,0,0,0,66,66,105,123.58032631874084,,,,,,,,,,,,,,,,,,,,,,,,,,,,,,,,,,,,,,,,,,,,,,,,,,,,,,,,,,,,,,,,,,,,,,,,,,,,,,,,,200.0,125.0,125.0,200.0,141.0,141.0,3.0,3.1,-258,276,0,-10,266,-259,123.5656464099884,123.5656898021698,123.56806826591492,123.58032631874084,123.73033952713013,123.73033952713013,123.73033952713013,123.73033952713013,123.73033952713013,123.73033952713013,123.73033952713013,124.4313416481018,2,0.8355331420898438,None,,,,,,,,,,,,,,,,,,222,5,2025-03-10_11h02.48.057,comp,2024.2.4,59.98967348474121,2025-03-10 11h02.58.014875 -0400,
67,67,0,filler_square,None,None,None,None,None,None,None,None,None,None,3,1.3692216873168945,None,,,,,0,0,0,0,0,67,67,179,124.44666481018066,,,,,,,,,,,,,,,,,,,,,,,,,,,,,,,,,,,,,,,,,,,,,,,,,,,,,,,,,,,,,,,,,,,,,,,,,,,,,,,,,76.37961821827324,115.67889086204796,193.30880666069686,193.30880666069686,184.24780692227466,186.84504830220357,4.0,4.1,-250,-287,0,16,286,-255,124.43231344223022,124.43235421180725,124.43472218513489,124.44666481018066,124.59712433815002,124.59712433815002,124.59712433815002,124.59712433815002,124.59712433815002,124.59712433815002,124.59712433815002,125.83147978782654,3,1.3692216873168945,None,,,,,,,,,,,,,,,,,,222,5,2025-03-10_11h02.48.057,comp,2024.2.4,59.98967348474121,2025-03-10 11h02.58.014875 -0400,
68,68,0,filler_random,None,None,None,None,None,None,None,None,None,None,3,1.2583956718444824,None,,,,,0,0,0,0,0,68,68,161,125.84667754173279,,,,,,,,,,,,,,,,,,,,,,,,,,,,,,,,,,,,,,,,,,,,,,,,,,,,,,,,,,,,,,,,,,,,,,,,,,,,,,,,,164.1457884498828,113.95587804894535,110.16549262492765,171.1789238470917,187.65741077272432,120.98376583165106,1.0,1.3,241,-262,480,-264,722,-252,125.83236527442932,125.83240747451782,125.83471131324768,125.84667754173279,125.99709510803223,125.99709510803223,125.99709510803223,125.99709510803223,125.99709510803223,125.99709510803223,125.99709510803223,127.11475801467896,3,1.2583956718444824,None,,,,,,,,,,,,,,,,,,222,5,2025-03-10_11h02.48.057,comp,2024.2.4,59.98967348474121,2025-03-10 11h02.58.014875 -0400,
69,69,0,critical,wdh,20.0,3.0,upper,125.0,200.0,141.0,141.0,200.0,125.0,3,1.8943824768066406,None,,,,,0,0,0,0,0,69,69,81,127.13021779060364,,,,,,,,,,,,,,,,,,,,,,,,,,,,,,,,,,,,,,,,,,,,,,,,,,,,,,,,,,,,,,,,,,,,,,,,,,,,,,,,,125.0,200.0,141.0,141.0,200.0,125.0,3.0,3.1,-266,276,0,-14,229,-288,127.11558651924133,127.11563014984131,127.11834621429443,127.13021779060364,127.28030395507812,127.28030395507812,127.28030395507812,127.28030395507812,127.28030395507812,127.28030395507812,127.28030395507812,129.0313584804535,3,1.8943824768066406,None,,,,,,,,,,,,,,,,,,222,5,2025-03-10_11h02.48.057,comp,2024.2.4,59.98967348474121,2025-03-10 11h02.58.014875 -0400,
70,70,0,critical,whd,35.0,2.1,lower,57.0,133.0,133.0,57.0,70.0,70.0,3,1.0417160987854004,None,,,,,0,0,0,0,0,70,70,12,129.04690146446228,,,,,,,,,,,,,,,,,,,,,,,,,,,,,,,,,,,,,,,,,,,,,,,,,,,,,,,,,,,,,,,,,,,,,,,,,,,,,,,,,57.0,133.0,133.0,57.0,70.0,70.0,2.1,2.12,-191,-256,0,-289,160,256,129.03217434883118,129.03221583366394,129.03450560569763,129.04690146446228,129.1967749595642,129.1967749595642,129.1967749595642,129.1967749595642,129.1967749595642,129.1967749595642,129.1967749595642,130.0978240966797,3,1.0417160987854004,None,,,,,,,,,,,,,,,,,,222,5,2025-03-10_11h02.48.057,comp,2024.2.4,59.98967348474121,2025-03-10 11h02.58.014875 -0400,
71,71,0,filler_random,None,None,None,None,None,None,None,None,None,None,3,1.5183756351470947,None,,,,,0,0,0,0,0,71,71,131,130.11360549926758,,,,,,,,,,,,,,,,,,,,,,,,,,,,,,,,,,,,,,,,,,,,,,,,,,,,,,,,,,,,,,,,,,,,,,,,,,,,,,,,,94.34032361738855,110.4494358885648,115.39118087292246,65.2331828755931,164.1744285606144,83.435441534137,2.1,2.12,-184,-284,0,-290,170,282,130.09871101379395,130.0987536907196,130.10133051872253,130.11360549926758,130.26383471488953,130.26383471488953,130.26383471488953,130.26383471488953,130.26383471488953,130.26383471488953,130.26383471488953,131.64784693717957,3,1.5183756351470947,None,,,,,,,,,,,,,,,,,,222,5,2025-03-10_11h02.48.057,comp,2024.2.4,59.98967348474121,2025-03-10 11h02.58.014875 -0400,
72,72,0,critical,hwd,35.0,2.1,lower,133.0,57.0,57.0,133.0,70.0,70.0,3,0.9048254489898682,None,,,,,0,0,0,0,0,72,72,16,131.66334176063538,,,,,,,,,,,,,,,,,,,,,,,,,,,,,,,,,,,,,,,,,,,,,,,,,,,,,,,,,,,,,,,,,,,,,,,,,,,,,,,,,133.0,57.0,57.0,133.0,70.0,70.0,2.1,2.12,-191,-263,0,-281,198,262,131.64864563941956,131.64868712425232,131.65120935440063,131.66334176063538,131.8136978149414,131.8136978149414,131.8136978149414,131.8136978149414,131.8136978149414,131.8136978149414,131.8136978149414,132.5811276435852,3,0.9048254489898682,None,,,,,,,,,,,,,,,,,,222,5,2025-03-10_11h02.48.057,comp,2024.2.4,59.98967348474121,2025-03-10 11h02.58.014875 -0400,
73,73,0,critical,hdw,20.0,2.1,upper,200.0,125.0,141.0,141.0,125.0,200.0,3,1.0601294040679932,None,,,,,0,0,0,0,0,73,73,47,132.596586227417,,,,,,,,,,,,,,,,,,,,,,,,,,,,,,,,,,,,,,,,,,,,,,,,,,,,,,,,,,,,,,,,,,,,,,,,,,,,,,,,,200.0,125.0,141.0,141.0,125.0,200.0,2.1,2.12,-229,-281,0,-287,266,266,132.58197665214539,132.58201694488525,132.5839536190033,132.596586227417,132.7468659877777,132.7468659877777,132.7468659877777,132.7468659877777,132.7468659877777,132.7468659877777,132.7468659877777,133.66468143463135,3,1.0601294040679932,None,,,,,,,,,,,,,,,,,,222,5,2025-03-10_11h02.48.057,comp,2024.2.4,59.98967348474121,2025-03-10 11h02.58.014875 -0400,
74,74,0,critical,dhw,20.0,1.0,lower,78.0,78.0,133.0,57.0,57.0,133.0,3,1.2167675495147705,None,,,,,0,0,0,0,0,74,74,54,133.68017745018005,,,,,,,,,,,,,,,,,,,,,,,,,,,,,,,,,,,,,,,,,,,,,,,,,,,,,,,,,,,,,,,,,,,,,,,,,,,,,,,,,78.0,78.0,133.0,57.0,57.0,133.0,1.0,1.2,-164,19,0,5,191,14,133.66545629501343,133.6654987335205,133.6678285598755,133.68017745018005,133.8301477432251,133.8301477432251,133.8301477432251,133.8301477432251,133.8301477432251,133.8301477432251,133.8301477432251,134.8981785774231,3,1.2167675495147705,None,,,,,,,,,,,,,,,,,,222,5,2025-03-10_11h02.48.057,comp,2024.2.4,59.98967348474121,2025-03-10 11h02.58.014875 -0400,
75,75,0,critical,dwh,35.0,1.0,lower,70.0,70.0,57.0,133.0,133.0,57.0,3,0.7504076957702637,None,,,,,0,0,0,0,0,75,75,60,134.9134750366211,,,,,,,,,,,,,,,,,,,,,,,,,,,,,,,,,,,,,,,,,,,,,,,,,,,,,,,,,,,,,,,,,,,,,,,,,,,,,,,,,70.0,70.0,57.0,133.0,133.0,57.0,1.0,1.1,-678,257,-480,289,-289,271,134.8989520072937,134.89899373054504,134.90158796310425,134.9134750366211,135.0634355545044,135.0634355545044,135.0634355545044,135.0634355545044,135.0634355545044,135.0634355545044,135.0634355545044,135.68112087249756,3,0.7504076957702637,None,,,,,,,,,,,,,,,,,,222,5,2025-03-10_11h02.48.057,comp,2024.2.4,59.98967348474121,2025-03-10 11h02.58.014875 -0400,
76,76,0,critical,dwh,20.0,4.0,upper,141.0,141.0,125.0,200.0,200.0,125.0,2,0.7521133422851562,None,,,,,0,0,0,0,0,76,76,71,135.69650602340698,,,,,,,,,,,,,,,,,,,,,,,,,,,,,,,,,,,,,,,,,,,,,,,,,,,,,,,,,,,,,,,,,,,,,,,,,,,,,,,,,141.0,141.0,125.0,200.0,200.0,125.0,4.0,4.1,-266,-278,0,-2,258,-261,135.6819863319397,135.68202686309814,135.6843822002411,135.69650602340698,135.8469684123993,135.8469684123993,135.8469684123993,135.8469684123993,135.8469684123993,135.8469684123993,135.8469684123993,136.45000767707825,2,0.7521133422851562,None,,,,,,,,,,,,,,,,,,222,5,2025-03-10_11h02.48.057,comp,2024.2.4,59.98967348474121,2025-03-10 11h02.58.014875 -0400,
77,77,0,critical,hwd,20.0,2.1,upper,200.0,125.0,125.0,200.0,141.0,141.0,2,0.7842872142791748,None,,,,,0,0,0,0,0,77,77,19,136.4641547203064,,,,,,,,,,,,,,,,,,,,,,,,,,,,,,,,,,,,,,,,,,,,,,,,,,,,,,,,,,,,,,,,,,,,,,,,,,,,,,,,,200.0,125.0,125.0,200.0,141.0,141.0,2.1,2.11,-258,254,0,272,266,-263,136.45091438293457,136.45096039772034,136.45291471481323,136.4641547203064,136.61355590820312,136.61355590820312,136.61355590820312,136.61355590820312,136.61355590820312,136.61355590820312,136.61355590820312,137.26459741592407,2,0.7842872142791748,None,,,,,,,,,,,,,,,,,,222,5,2025-03-10_11h02.48.057,comp,2024.2.4,59.98967348474121,2025-03-10 11h02.58.014875 -0400,
78,78,0,critical,dhw,20.0,1.0,upper,141.0,141.0,200.0,125.0,125.0,200.0,3,1.200575828552246,None,,,,,0,0,0,0,0,78,78,55,137.27996110916138,,,,,,,,,,,,,,,,,,,,,,,,,,,,,,,,,,,,,,,,,,,,,,,,,,,,,,,,,,,,,,,,,,,,,,,,,,,,,,,,,141.0,141.0,200.0,125.0,125.0,200.0,1.0,1.3,251,-256,480,-288,738,-277,137.26539969444275,137.26544165611267,137.26784825325012,137.27996110916138,137.43022274971008,137.43022274971008,137.43022274971008,137.43022274971008,137.43022274971008,137.43022274971008,137.43022274971008,138.49807214736938,3,1.200575828552246,None,,,,,,,,,,,,,,,,,,222,5,2025-03-10_11h02.48.057,comp,2024.2.4,59.98967348474121,2025-03-10 11h02.58.014875 -0400,
79,79,0,critical,wdh,35.0,1.0,lower,57.0,133.0,70.0,70.0,133.0,57.0,3,0.9272186756134033,None,,,,,0,0,0,0,0,79,79,72,138.5133399963379,,,,,,,,,,,,,,,,,,,,,,,,,,,,,,,,,,,,,,,,,,,,,,,,,,,,,,,,,,,,,,,,,,,,,,,,,,,,,,,,,57.0,133.0,70.0,70.0,133.0,57.0,1.0,1.3,282,-290,480,-256,640,-260,138.49884676933289,138.4988875389099,138.50097489356995,138.5133399963379,138.6637828350067,138.6637828350067,138.6637828350067,138.6637828350067,138.6637828350067,138.6637828350067,138.6637828350067,139.44775772094727,3,0.9272186756134033,None,,,,,,,,,,,,,,,,,,222,5,2025-03-10_11h02.48.057,comp,2024.2.4,59.98967348474121,2025-03-10 11h02.58.014875 -0400,
80,80,0,critical,dhw,35.0,4.0,upper,127.0,127.0,200.0,125.0,125.0,200.0,3,1.2723617553710938,None,,,,,0,0,0,0,0,80,80,53,139.46339654922485,,,,,,,,,,,,,,,,,,,,,,,,,,,,,,,,,,,,,,,,,,,,,,,,,,,,,,,,,,,,,,,,,,,,,,,,,,,,,,,,,127.0,127.0,200.0,125.0,125.0,200.0,4.0,4.1,-222,-265,0,8,258,-281,139.44852375984192,139.4485640525818,139.4509675502777,139.46339654922485,139.61352586746216,139.61352586746216,139.61352586746216,139.61352586746216,139.61352586746216,139.61352586746216,139.61352586746216,140.74830746650696,3,1.2723617553710938,None,,,,,,,,,,,,,,,,,,222,5,2025-03-10_11h02.48.057,comp,2024.2.4,59.98967348474121,2025-03-10 11h02.58.014875 -0400,
81,81,0,catch,None,None,None,None,None,None,None,None,None,None,2,0.7988848686218262,None,,,,,0,0,0,0,0,81,81,120,140.76320266723633,,,,,,,,,,,,,,,,,,,,,,,,,,,,,,,,,,,,,,,,,,,,,,,,,,,,,,,,,,,,,,,,,,,,,,,,,,,,,,,,,82,108,161,164,69,121,1.0,1.2,-232,8,0,8,238,8,140.74934434890747,140.74938535690308,140.7516529560089,140.76320266723633,140.91338658332825,140.91338658332825,140.91338658332825,140.91338658332825,140.91338658332825,140.91338658332825,140.91338658332825,141.56470942497253,2,0.7988848686218262,None,,,,,,,,,,,,,,,,,,222,5,2025-03-10_11h02.48.057,comp,2024.2.4,59.98967348474121,2025-03-10 11h02.58.014875 -0400,
82,82,0,critical,hdw,35.0,1.0,upper,200.0,125.0,127.0,127.0,125.0,200.0,3,0.9337258338928223,None,,,,,0,0,0,0,0,82,82,109,141.58007287979126,,,,,,,,,,,,,,,,,,,,,,,,,,,,,,,,,,,,,,,,,,,,,,,,,,,,,,,,,,,,,,,,,,,,,,,,,,,,,,,,,200.0,125.0,127.0,127.0,125.0,200.0,1.0,1.1,-702,286,-480,279,-220,261,141.56550788879395,141.56555032730103,141.56752252578735,141.58007287979126,141.73026728630066,141.73026728630066,141.73026728630066,141.73026728630066,141.73026728630066,141.73026728630066,141.73026728630066,142.53123712539673,3,0.9337258338928223,None,,,,,,,,,,,,,,,,,,222,5,2025-03-10_11h02.48.057,comp,2024.2.4,59.98967348474121,2025-03-10 11h02.58.014875 -0400,
83,83,0,filler_random,None,None,None,None,None,None,None,None,None,None,3,1.1340711116790771,None,,,,,0,0,0,0,0,83,83,157,142.5465488433838,,,,,,,,,,,,,,,,,,,,,,,,,,,,,,,,,,,,,,,,,,,,,,,,,,,,,,,,,,,,,,,,,,,,,,,,,,,,,,,,,142.21126550102895,125.870553867241,176.7769924611801,151.46019709081355,197.17012457209958,148.87553144024167,4.0,4.2,-235,-17,0,-274,246,7,142.53215050697327,142.53219270706177,142.53453755378723,142.5465488433838,142.69697856903076,142.69697856903076,142.69697856903076,142.69697856903076,142.69697856903076,142.69697856903076,142.69697856903076,143.69808387756348,3,1.1340711116790771,None,,,,,,,,,,,,,,,,,,222,5,2025-03-10_11h02.48.057,comp,2024.2.4,59.98967348474121,2025-03-10 11h02.58.014875 -0400,
84,84,0,filler_square,None,None,None,None,None,None,None,None,None,None,3,2.359299421310425,None,,,,,0,0,0,0,0,84,84,177,143.71329522132874,,,,,,,,,,,,,,,,,,,,,,,,,,,,,,,,,,,,,,,,,,,,,,,,,,,,,,,,,,,,,,,,,,,,,,,,,,,,,,,,,69.30022659366261,83.18856068438069,80.8273873726292,78.32721700126993,85.93740952500711,85.93740952500711,4.0,4.2,-177,14,0,-286,178,14,143.6990065574646,143.69905996322632,143.7011947631836,143.71329522132874,143.86329579353333,143.86329579353333,143.86329579353333,143.86329579353333,143.86329579353333,143.86329579353333,143.86329579353333,146.08098196983337,3,2.359299421310425,None,,,,,,,,,,,,,,,,,,222,5,2025-03-10_11h02.48.057,comp,2024.2.4,59.98967348474121,2025-03-10 11h02.58.014875 -0400,
85,85,0,critical,hdw,35.0,3.0,lower,133.0,57.0,70.0,70.0,57.0,133.0,1,1.454667091369629,None,,,,,0,0,0,0,0,85,85,110,146.09697461128235,,,,,,,,,,,,,,,,,,,,,,,,,,,,,,,,,,,,,,,,,,,,,,,,,,,,,,,,,,,,,,,,,,,,,,,,,,,,,,,,,133.0,57.0,70.0,70.0,57.0,133.0,3.0,3.1,-160,280,0,14,198,-287,146.0817425251007,146.08178281784058,146.083669424057,146.09697461128235,146.24664664268494,146.24664664268494,146.24664664268494,146.24664664268494,146.24664664268494,146.24664664268494,146.24664664268494,147.56441068649292,1,1.454667091369629,None,,,,,,,,,,,,,,,,,,222,5,2025-03-10_11h02.48.057,comp,2024.2.4,59.98967348474121,2025-03-10 11h02.58.014875 -0400,
86,86,0,critical,whd,35.0,4.0,upper,125.0,200.0,200.0,125.0,127.0,127.0,3,1.0128867626190186,None,,,,,0,0,0,0,0,86,86,89,147.5798056125641,,,,,,,,,,,,,,,,,,,,,,,,,,,,,,,,,,,,,,,,,,,,,,,,,,,,,,,,,,,,,,,,,,,,,,,,,,,,,,,,,125.0,200.0,200.0,125.0,127.0,127.0,4.0,4.2,-258,4,0,-289,222,7,147.56517386436462,147.56521773338318,147.56753778457642,147.5798056125641,147.73027682304382,147.73027682304382,147.73027682304382,147.73027682304382,147.73027682304382,147.73027682304382,147.73027682304382,148.5981888771057,3,1.0128867626190186,None,,,,,,,,,,,,,,,,,,222,5,2025-03-10_11h02.48.057,comp,2024.2.4,59.98967348474121,2025-03-10 11h02.58.014875 -0400,
87,87,0,filler_random,None,None,None,None,None,None,None,None,None,None,1,1.564009428024292,None,,,,,0,0,0,0,0,87,87,130,148.61357712745667,,,,,,,,,,,,,,,,,,,,,,,,,,,,,,,,,,,,,,,,,,,,,,,,,,,,,,,,,,,,,,,,,,,,,,,,,,,,,,,,,183.7277245095309,113.14872669205644,117.62824471007309,65.2117244364255,140.49653012849438,131.50217379157186,1.0,1.1,-665,275,-480,269,-286,271,148.59907221794128,148.59911632537842,148.60113954544067,148.61357712745667,148.76357531547546,148.76357531547546,148.76357531547546,148.76357531547546,148.76357531547546,148.76357531547546,148.76357531547546,150.18134880065918,1,1.564009428024292,None,,,,,,,,,,,,,,,,,,222,5,2025-03-10_11h02.48.057,comp,2024.2.4,59.98967348474121,2025-03-10 11h02.58.014875 -0400,
88,88,0,critical,whd,20.0,4.0,upper,125.0,200.0,200.0,125.0,141.0,141.0,2,1.3084909915924072,None,,,,,0,0,0,0,0,88,88,95,150.19671845436096,,,,,,,,,,,,,,,,,,,,,,,,,,,,,,,,,,,,,,,,,,,,,,,,,,,,,,,,,,,,,,,,,,,,,,,,,,,,,,,,,125.0,200.0,200.0,125.0,141.0,141.0,4.0,4.1,-258,-288,0,15,229,-270,150.1821186542511,150.18215990066528,150.1852593421936,150.19671845436096,150.34682035446167,150.34682035446167,150.34682035446167,150.34682035446167,150.34682035446167,150.34682035446167,150.34682035446167,151.51460647583008,2,1.3084909915924072,None,,,,,,,,,,,,,,,,,,222,5,2025-03-10_11h02.48.057,comp,2024.2.4,59.98967348474121,2025-03-10 11h02.58.014875 -0400,
89,89,0,filler_square,None,None,None,None,None,None,None,None,None,None,3,1.0700287818908691,None,,,,,0,0,0,0,0,89,89,186,151.53005456924438,,,,,,,,,,,,,,,,,,,,,,,,,,,,,,,,,,,,,,,,,,,,,,,,,,,,,,,,,,,,,,,,,,,,,,,,,,,,,,,,,155.64102158749603,80.35736639331725,177.4534609246794,177.4534609246794,101.84022889845465,127.13448445539338,2.2,2.21,-225,-265,0,281,248,257,151.51565074920654,151.51569366455078,151.51819324493408,151.53005456924438,151.6802225112915,151.6802225112915,151.6802225112915,151.6802225112915,151.6802225112915,151.6802225112915,151.6802225112915,152.61467695236206,3,1.0700287818908691,None,,,,,,,,,,,,,,,,,,222,5,2025-03-10_11h02.48.057,comp,2024.2.4,59.98967348474121,2025-03-10 11h02.58.014875 -0400,
90,90,0,filler_random,None,None,None,None,None,None,None,None,None,None,3,0.7475831508636475,None,,,,,0,0,0,0,0,90,90,156,152.62995314598083,,,,,,,,,,,,,,,,,,,,,,,,,,,,,,,,,,,,,,,,,,,,,,,,,,,,,,,,,,,,,,,,,,,,,,,,,,,,,,,,,67.66878920417388,128.17239195449005,109.2019896948267,61.47362048835572,60.30444117065678,90.03965770128937,1.0,1.2,-191,16,0,15,172,-17,152.6155698299408,152.61561393737793,152.6176676750183,152.62995314598083,152.78011345863342,152.78011345863342,152.78011345863342,152.78011345863342,152.78011345863342,152.78011345863342,152.78011345863342,153.38117003440857,3,0.7475831508636475,None,,,,,,,,,,,,,,,,,,222,5,2025-03-10_11h02.48.057,comp,2024.2.4,59.98967348474121,2025-03-10 11h02.58.014875 -0400,
91,91,0,critical,dhw,35.0,3.0,upper,127.0,127.0,200.0,125.0,125.0,200.0,3,1.403674602508545,None,,,,,0,0,0,0,0,91,91,51,153.39662265777588,,,,,,,,,,,,,,,,,,,,,,,,,,,,,,,,,,,,,,,,,,,,,,,,,,,,,,,,,,,,,,,,,,,,,,,,,,,,,,,,,127.0,127.0,200.0,125.0,125.0,200.0,3.0,3.1,-222,283,0,-19,258,-266,153.38194060325623,153.38198113441467,153.3841679096222,153.39662265777588,153.54677987098694,153.54677987098694,153.54677987098694,153.54677987098694,153.54677987098694,153.54677987098694,153.54677987098694,154.8146288394928,3,1.403674602508545,None,,,,,,,,,,,,,,,,,,222,5,2025-03-10_11h02.48.057,comp,2024.2.4,59.98967348474121,2025-03-10 11h02.58.014875 -0400,
92,92,0,filler_square,None,None,None,None,None,None,None,None,None,None,3,0.7632861137390137,None,,,,,0,0,0,0,0,92,92,189,154.82991528511047,,,,,,,,,,,,,,,,,,,,,,,,,,,,,,,,,,,,,,,,,,,,,,,,,,,,,,,,,,,,,,,,,,,,,,,,,,,,,,,,,127.9213586103736,133.38641018186246,127.56983861268478,74.28995288221732,148.60981205185246,148.60981205185246,4.0,4.1,-200,-253,0,7,207,-277,154.8155496120453,154.81559085845947,154.81794691085815,154.82991528511047,154.98014903068542,154.98014903068542,154.98014903068542,154.98014903068542,154.98014903068542,154.98014903068542,154.98014903068542,155.59794926643372,3,0.7632861137390137,None,,,,,,,,,,,,,,,,,,222,5,2025-03-10_11h02.48.057,comp,2024.2.4,59.98967348474121,2025-03-10 11h02.58.014875 -0400,
93,93,0,filler_random,None,None,None,None,None,None,None,None,None,None,3,0.700190544128418,None,,,,,0,0,0,0,0,93,93,151,155.61338543891907,,,,,,,,,,,,,,,,,,,,,,,,,,,,,,,,,,,,,,,,,,,,,,,,,,,,,,,,,,,,,,,,,,,,,,,,,,,,,,,,,90.2759640586805,143.2077581549154,169.49698198353263,91.74292558620687,89.04499542332894,101.1423107101635,2.2,2.21,-213,-257,0,278,192,266,155.59885048866272,155.59889221191406,155.6008906364441,155.61338543891907,155.76387548446655,155.76387548446655,155.76387548446655,155.76387548446655,155.76387548446655,155.76387548446655,155.76387548446655,156.33103275299072,3,0.700190544128418,None,,,,,,,,,,,,,,,,,,222,5,2025-03-10_11h02.48.057,comp,2024.2.4,59.98967348474121,2025-03-10 11h02.58.014875 -0400,
94,94,0,filler_square,None,None,None,None,None,None,None,None,None,None,2,0.6778888702392578,None,,,,,0,0,0,0,0,94,94,170,156.34660696983337,,,,,,,,,,,,,,,,,,,,,,,,,,,,,,,,,,,,,,,,,,,,,,,,,,,,,,,,,,,,,,,,,,,,,,,,,,,,,,,,,123.1639267115245,93.63977073604718,87.76315127082353,67.79473939075044,166.73861817624822,166.73861817624822,3.0,3.2,-177,-269,0,8,213,289,156.33193135261536,156.33197212219238,156.3339066505432,156.34660696983337,156.49674677848816,156.49674677848816,156.49674677848816,156.49674677848816,156.49674677848816,156.49674677848816,156.49674677848816,157.03132462501526,2,0.6778888702392578,None,,,,,,,,,,,,,,,,,,222,5,2025-03-10_11h02.48.057,comp,2024.2.4,59.98967348474121,2025-03-10 11h02.58.014875 -0400,
95,95,0,critical,whd,20.0,1.0,upper,125.0,200.0,200.0,125.0,141.0,141.0,2,1.737769365310669,None,,,,,0,0,0,0,0,95,95,91,157.0468409061432,,,,,,,,,,,,,,,,,,,,,,,,,,,,,,,,,,,,,,,,,,,,,,,,,,,,,,,,,,,,,,,,,,,,,,,,,,,,,,,,,125.0,200.0,200.0,125.0,141.0,141.0,1.0,1.1,-738,269,-480,269,-251,254,157.03212189674377,157.03216123580933,157.0341236591339,157.0468409061432,157.19678950309753,157.19678950309753,157.19678950309753,157.19678950309753,157.19678950309753,157.19678950309753,157.19678950309753,158.79795742034912,2,1.737769365310669,None,,,,,,,,,,,,,,,,,,222,5,2025-03-10_11h02.48.057,comp,2024.2.4,59.98967348474121,2025-03-10 11h02.58.014875 -0400,
96,96,0,filler_square,None,None,None,None,None,None,None,None,None,None,3,1.2839925289154053,None,,,,,0,0,0,0,0,96,96,185,158.81315755844116,,,,,,,,,,,,,,,,,,,,,,,,,,,,,,,,,,,,,,,,,,,,,,,,,,,,,,,,,,,,,,,,,,,,,,,,,,,,,,,,,102.71832476223804,97.35267472737688,112.02351244078721,112.02351244078721,101.64419979453406,68.37991976990634,3.0,3.2,-201,-254,0,-5,186,270,158.79890727996826,158.7989480495453,158.80121517181396,158.81315755844116,158.96346998214722,158.96346998214722,158.96346998214722,158.96346998214722,158.96346998214722,158.96346998214722,158.96346998214722,160.11428570747375,3,1.2839925289154053,None,,,,,,,,,,,,,,,,,,222,5,2025-03-10_11h02.48.057,comp,2024.2.4,59.98967348474121,2025-03-10 11h02.58.014875 -0400,
97,97,0,critical,dhw,35.0,2.1,upper,127.0,127.0,200.0,125.0,125.0,200.0,2,3.1916399002075195,None,,,,,0,0,0,0,0,97,97,1,160.12973928451538,,,,,,,,,,,,,,,,,,,,,,,,,,,,,,,,,,,,,,,,,,,,,,,,,,,,,,,,,,,,,,,,,,,,,,,,,,,,,,,,,127.0,127.0,200.0,125.0,125.0,200.0,2.1,2.11,-222,270,0,287,258,-270,160.11505722999573,160.1151008605957,160.11739683151245,160.12973928451538,160.28017258644104,160.28017258644104,160.28017258644104,160.28017258644104,160.28017258644104,160.28017258644104,160.28017258644104,163.33118605613708,2,3.1916399002075195,None,,,,,,,,,,,,,,,,,,222,5,2025-03-10_11h02.48.057,comp,2024.2.4,59.98967348474121,2025-03-10 11h02.58.014875 -0400,
98,98,0,critical,dwh,20.0,4.0,lower,78.0,78.0,57.0,133.0,133.0,57.0,3,1.2309937477111816,None,,,,,0,0,0,0,0,98,98,70,163.34674334526062,,,,,,,,,,,,,,,,,,,,,,,,,,,,,,,,,,,,,,,,,,,,,,,,,,,,,,,,,,,,,,,,,,,,,,,,,,,,,,,,,78.0,78.0,57.0,133.0,133.0,57.0,4.0,4.2,-202,7,0,-259,191,19,163.3319308757782,163.33197140693665,163.33518815040588,163.34674334526062,163.49686241149902,163.49686241149902,163.49686241149902,163.49686241149902,163.49686241149902,163.49686241149902,163.49686241149902,164.58101773262024,3,1.2309937477111816,None,,,,,,,,,,,,,,,,,,222,5,2025-03-10_11h02.48.057,comp,2024.2.4,59.98967348474121,2025-03-10 11h02.58.014875 -0400,
99,99,0,critical,dwh,20.0,1.0,upper,141.0,141.0,125.0,200.0,200.0,125.0,3,0.8672370910644531,None,,,,,0,0,0,0,0,99,99,67,164.59659910202026,,,,,,,,,,,,,,,,,,,,,,,,,,,,,,,,,,,,,,,,,,,,,,,,,,,,,,,,,,,,,,,,,,,,,,,,,,,,,,,,,141.0,141.0,125.0,200.0,200.0,125.0,1.0,1.1,-746,251,-480,261,-222,289,164.58176851272583,164.58180809020996,164.58386611938477,164.59659910202026,164.74684858322144,164.74684858322144,164.74684858322144,164.74684858322144,164.74684858322144,164.74684858322144,164.74684858322144,165.48119497299194,3,0.8672370910644531,None,,,,,,,,,,,,,,,,,,222,5,2025-03-10_11h02.48.057,comp,2024.2.4,59.98967348474121,2025-03-10 11h02.58.014875 -0400,
100,100,0,critical,wdh,35.0,2.1,upper,125.0,200.0,127.0,127.0,200.0,125.0,3,0.8338351249694824,None,,,,,0,0,0,0,0,100,100,33,165.49629974365234,,,,,,,,,,,,,,,,,,,,,,,,,,,,,,,,,,,,,,,,,,,,,,,,,,,,,,,,,,,,,,,,,,,,,,,,,,,,,,,,,125.0,200.0,127.0,127.0,200.0,125.0,2.1,2.12,-260,-285,0,-260,222,252,165.4819531440735,165.4819941520691,165.48423767089844,165.49629974365234,165.64678812026978,165.64678812026978,165.64678812026978,165.64678812026978,165.64678812026978,165.64678812026978,165.64678812026978,166.33142971992493,3,0.8338351249694824,None,,,,,,,,,,,,,,,,,,222,5,2025-03-10_11h02.48.057,comp,2024.2.4,59.98967348474121,2025-03-10 11h02.58.014875 -0400,
101,101,0,filler_random,None,None,None,None,None,None,None,None,None,None,3,0.9671599864959717,None,,,,,0,0,0,0,0,101,101,138,166.34674787521362,,,,,,,,,,,,,,,,,,,,,,,,,,,,,,,,,,,,,,,,,,,,,,,,,,,,,,,,,,,,,,,,,,,,,,,,,,,,,,,,,80.53482037710798,115.14086441914725,168.51956978821642,91.59790624388252,182.26418002002077,174.03324243420917,2.2,2.22,-199,268,0,-277,229,-283,166.33228611946106,166.33232808113098,166.3342957496643,166.34674787521362,166.49683284759521,166.49683284759521,166.49683284759521,166.49683284759521,166.49683284759521,166.49683284759521,166.49683284759521,167.3311128616333,3,0.9671599864959717,None,,,,,,,,,,,,,,,,,,222,5,2025-03-10_11h02.48.057,comp,2024.2.4,59.98967348474121,2025-03-10 11h02.58.014875 -0400,
102,102,0,filler_random,None,None,None,None,None,None,None,None,None,None,1,0.9259557723999023,None,,,,,0,0,0,0,0,102,102,169,167.34647583961487,,,,,,,,,,,,,,,,,,,,,,,,,,,,,,,,,,,,,,,,,,,,,,,,,,,,,,,,,,,,,,,,,,,,,,,,,,,,,,,,,177.7197507067395,143.8342730972883,91.72962420610736,80.62338081456755,107.18305814453785,175.0963732961799,2.2,2.22,-208,272,0,-290,224,-262,167.33198285102844,167.33202695846558,167.33407354354858,167.34647583961487,167.49673652648926,167.49673652648926,167.49673652648926,167.49673652648926,167.49673652648926,167.49673652648926,167.49673652648926,168.28101229667664,1,0.9259557723999023,None,,,,,,,,,,,,,,,,,,222,5,2025-03-10_11h02.48.057,comp,2024.2.4,59.98967348474121,2025-03-10 11h02.58.014875 -0400,
103,103,0,critical,dwh,20.0,2.1,upper,141.0,141.0,125.0,200.0,200.0,125.0,3,0.9510269165039062,None,,,,,0,0,0,0,0,103,103,7,168.296612739563,,,,,,,,,,,,,,,,,,,,,,,,,,,,,,,,,,,,,,,,,,,,,,,,,,,,,,,,,,,,,,,,,,,,,,,,,,,,,,,,,141.0,141.0,125.0,200.0,200.0,125.0,2.1,2.12,-266,-275,0,-270,258,285,168.28183794021606,168.28188037872314,168.28390789031982,168.296612739563,168.4471468925476,168.4471468925476,168.4471468925476,168.4471468925476,168.4471468925476,168.4471468925476,168.4471468925476,169.26458930969238,3,0.9510269165039062,None,,,,,,,,,,,,,,,,,,222,5,2025-03-10_11h02.48.057,comp,2024.2.4,59.98967348474121,2025-03-10 11h02.58.014875 -0400,
104,104,0,filler_square,None,None,None,None,None,None,None,None,None,None,1,1.5047571659088135,None,,,,,0,0,0,0,0,104,104,204,169.27978086471558,,,,,,,,,,,,,,,,,,,,,,,,,,,,,,,,,,,,,,,,,,,,,,,,,,,,,,,,,,,,,,,,,,,,,,,,,,,,,,,,,171.68613345351508,171.68613345351508,142.59727483857867,85.84028232279329,124.15334831280892,165.6730299777165,4.0,4.1,-225,-257,0,19,222,-264,169.26551914215088,169.2655599117279,169.26790571212769,169.27978086471558,169.43016719818115,169.43016719818115,169.43016719818115,169.43016719818115,169.43016719818115,169.43016719818115,169.43016719818115,170.7977955341339,1,1.5047571659088135,None,,,,,,,,,,,,,,,,,,222,5,2025-03-10_11h02.48.057,comp,2024.2.4,59.98967348474121,2025-03-10 11h02.58.014875 -0400,
105,105,0,filler_random,None,None,None,None,None,None,None,None,None,None,2,0.9646167755126953,None,,,,,0,0,0,0,0,105,105,155,170.813086271286,,,,,,,,,,,,,,,,,,,,,,,,,,,,,,,,,,,,,,,,,,,,,,,,,,,,,,,,,,,,,,,,,,,,,,,,,,,,,,,,,81.54174173514836,145.5426198000444,146.65996266346897,183.48048426733314,77.88535207459233,69.45787655543859,2.1,2.11,-261,278,0,273,222,-263,170.79866909980774,170.79870891571045,170.80109214782715,170.813086271286,170.96334266662598,170.96334266662598,170.96334266662598,170.96334266662598,170.96334266662598,170.96334266662598,170.96334266662598,171.7811803817749,2,0.9646167755126953,None,,,,,,,,,,,,,,,,,,222,5,2025-03-10_11h02.48.057,comp,2024.2.4,59.98967348474121,2025-03-10 11h02.58.014875 -0400,
106,106,0,filler_square,None,None,None,None,None,None,None,None,None,None,1,2.60306978225708,None,,,,,0,0,0,0,0,106,106,171,171.79660773277283,,,,,,,,,,,,,,,,,,,,,,,,,,,,,,,,,,,,,,,,,,,,,,,,,,,,,,,,,,,,,,,,,,,,,,,,,,,,,,,,,125.54059872400525,125.54059872400525,65.62189446550747,118.9695757746313,71.67472888461816,72.60954489973196,2.2,2.22,-218,272,0,-273,192,-265,171.78208708763123,171.7821307182312,171.78440642356873,171.79660773277283,171.946635723114,171.946635723114,171.946635723114,171.946635723114,171.946635723114,171.946635723114,171.946635723114,174.4144425392151,1,2.60306978225708,None,,,,,,,,,,,,,,,,,,222,5,2025-03-10_11h02.48.057,comp,2024.2.4,59.98967348474121,2025-03-10 11h02.58.014875 -0400,
107,107,0,filler_square,None,None,None,None,None,None,None,None,None,None,3,0.7380292415618896,None,,,,,0,0,0,0,0,107,107,202,174.42977094650269,,,,,,,,,,,,,,,,,,,,,,,,,,,,,,,,,,,,,,,,,,,,,,,,,,,,,,,,,,,,,,,,,,,,,,,,,,,,,,,,,113.85529830000425,111.45578025266366,172.78673212787606,137.87084233294496,186.19933391604704,186.19933391604704,1.0,1.1,-701,276,-480,263,-222,263,174.41538977622986,174.41543221473694,174.41775345802307,174.42977094650269,174.58049988746643,174.58049988746643,174.58049988746643,174.58049988746643,174.58049988746643,174.58049988746643,174.58049988746643,175.1811282634735,3,0.7380292415618896,None,,,,,,,,,,,,,,,,,,222,5,2025-03-10_11h02.48.057,comp,2024.2.4,59.98967348474121,2025-03-10 11h02.58.014875 -0400,
108,108,0,filler_square,None,None,None,None,None,None,None,None,None,None,1,1.251183271408081,None,,,,,0,0,0,0,0,108,108,199,175.1965024471283,,,,,,,,,,,,,,,,,,,,,,,,,,,,,,,,,,,,,,,,,,,,,,,,,,,,,,,,,,,,,,,,,,,,,,,,,,,,,,,,,158.04717703468035,158.04717703468035,135.11675258568042,96.85021777994217,89.54947233411666,57.9108807943108,3.0,3.2,-223,-252,0,-14,173,289,175.1820788383484,175.1821219921112,175.1853485107422,175.1965024471283,175.34727549552917,175.34727549552917,175.34727549552917,175.34727549552917,175.34727549552917,175.34727549552917,175.34727549552917,176.46425318717957,1,1.251183271408081,None,,,,,,,,,,,,,,,,,,222,5,2025-03-10_11h02.48.057,comp,2024.2.4,59.98967348474121,2025-03-10 11h02.58.014875 -0400,
109,109,0,filler_random,None,None,None,None,None,None,None,None,None,None,3,1.671726942062378,None,,,,,0,0,0,0,0,109,109,143,176.47967910766602,,,,,,,,,,,,,,,,,,,,,,,,,,,,,,,,,,,,,,,,,,,,,,,,,,,,,,,,,,,,,,,,,,,,,,,,,,,,,,,,,66.35711780166305,191.98592456773713,119.01267901805852,127.13592924975958,132.68581405298193,171.49448742309417,4.0,4.1,-256,-270,0,-8,245,-257,176.46512603759766,176.46516847610474,176.46720552444458,176.47967910766602,176.6300971508026,176.6300971508026,176.6300971508026,176.6300971508026,176.6300971508026,176.6300971508026,176.6300971508026,178.16440176963806,3,1.671726942062378,None,,,,,,,,,,,,,,,,,,222,5,2025-03-10_11h02.48.057,comp,2024.2.4,59.98967348474121,2025-03-10 11h02.58.014875 -0400,
110,110,0,filler_square,None,None,None,None,None,None,None,None,None,None,3,0.782454252243042,None,,,,,0,0,0,0,0,110,110,191,178.17970514297485,,,,,,,,,,,,,,,,,,,,,,,,,,,,,,,,,,,,,,,,,,,,,,,,,,,,,,,,,,,,,,,,,,,,,,,,,,,,,,,,,198.71577153507306,198.71577153507306,138.91290268283842,162.07818385440385,153.49861672012437,158.87249518275496,2.2,2.21,-276,-281,0,287,256,276,178.16530346870422,178.1653447151184,178.16764450073242,178.17970514297485,178.33010697364807,178.33010697364807,178.33010697364807,178.33010697364807,178.33010697364807,178.33010697364807,178.33010697364807,178.96469736099243,3,0.782454252243042,None,,,,,,,,,,,,,,,,,,222,5,2025-03-10_11h02.48.057,comp,2024.2.4,59.98967348474121,2025-03-10 11h02.58.014875 -0400,
111,111,0,filler_square,None,None,None,None,None,None,None,None,None,None,1,0.9002225399017334,None,,,,,0,0,0,0,0,111,111,192,178.97991347312927,,,,,,,,,,,,,,,,,,,,,,,,,,,,,,,,,,,,,,,,,,,,,,,,,,,,,,,,,,,,,,,,,,,,,,,,,,,,,,,,,132.62460284748215,132.62460284748215,82.82242068088435,92.02863691775121,78.69613189573602,68.32217803697544,3.0,3.1,-208,266,0,-18,176,-277,178.9656171798706,178.96565890312195,178.96778011322021,178.97991347312927,179.13012027740479,179.13012027740479,179.13012027740479,179.13012027740479,179.13012027740479,179.13012027740479,179.13012027740479,179.8812906742096,1,0.9002225399017334,None,,,,,,,,,,,,,,,,,,222,5,2025-03-10_11h02.48.057,comp,2024.2.4,59.98967348474121,2025-03-10 11h02.58.014875 -0400,
112,112,0,critical,hdw,20.0,4.0,lower,133.0,57.0,78.0,78.0,57.0,133.0,3,1.6960725784301758,None,,,,,0,0,0,0,0,112,112,118,179.8967366218567,,,,,,,,,,,,,,,,,,,,,,,,,,,,,,,,,,,,,,,,,,,,,,,,,,,,,,,,,,,,,,,,,,,,,,,,,,,,,,,,,133.0,57.0,78.0,78.0,57.0,133.0,4.0,4.1,-164,-276,0,-8,202,-266,179.88221073150635,179.88226985931396,179.8850998878479,179.8967366218567,180.04653334617615,180.04653334617615,180.04653334617615,180.04653334617615,180.04653334617615,180.04653334617615,180.04653334617615,181.5976026058197,3,1.6960725784301758,None,,,,,,,,,,,,,,,,,,222,5,2025-03-10_11h02.48.057,comp,2024.2.4,59.98967348474121,2025-03-10 11h02.58.014875 -0400,
113,113,0,filler_square,None,None,None,None,None,None,None,None,None,None,1,0.8670318126678467,None,,,,,0,0,0,0,0,113,113,174,181.61324667930603,,,,,,,,,,,,,,,,,,,,,,,,,,,,,,,,,,,,,,,,,,,,,,,,,,,,,,,,,,,,,,,,,,,,,,,,,,,,,,,,,98.47458283701758,98.47458283701758,61.189098316957235,59.950349125542935,64.61724359689052,87.94858072346582,2.2,2.22,-175,259,0,-257,170,-279,181.59855699539185,181.5985996723175,181.60121774673462,181.61324667930603,181.7631471157074,181.7631471157074,181.7631471157074,181.7631471157074,181.7631471157074,181.7631471157074,181.7631471157074,182.48142862319946,1,0.8670318126678467,None,,,,,,,,,,,,,,,,,,222,5,2025-03-10_11h02.48.057,comp,2024.2.4,59.98967348474121,2025-03-10 11h02.58.014875 -0400,
114,114,0,filler_random,None,None,None,None,None,None,None,None,None,None,3,1.5350878238677979,None,,,,,0,0,0,0,0,114,114,163,182.49661111831665,,,,,,,,,,,,,,,,,,,,,,,,,,,,,,,,,,,,,,,,,,,,,,,,,,,,,,,,,,,,,,,,,,,,,,,,,,,,,,,,,125.15090266025489,169.91143179944697,167.0384307715229,87.85410872493657,84.62649726518399,167.90845217303814,2.2,2.21,-225,-255,0,254,224,270,182.48247480392456,182.48253345489502,182.48497366905212,182.49661111831665,182.64654207229614,182.64654207229614,182.64654207229614,182.64654207229614,182.64654207229614,182.64654207229614,182.64654207229614,184.04772233963013,3,1.5350878238677979,None,,,,,,,,,,,,,,,,,,222,5,2025-03-10_11h02.48.057,comp,2024.2.4,59.98967348474121,2025-03-10 11h02.58.014875 -0400,
115,115,0,critical,hdw,20.0,3.0,lower,133.0,57.0,78.0,78.0,57.0,133.0,1,1.233588457107544,None,,,,,0,0,0,0,0,115,115,116,184.06301927566528,,,,,,,,,,,,,,,,,,,,,,,,,,,,,,,,,,,,,,,,,,,,,,,,,,,,,,,,,,,,,,,,,,,,,,,,,,,,,,,,,133.0,57.0,78.0,78.0,57.0,133.0,3.0,3.1,-164,286,0,-18,202,-254,184.04850339889526,184.04854345321655,184.0509271621704,184.06301927566528,184.21318459510803,184.21318459510803,184.21318459510803,184.21318459510803,184.21318459510803,184.21318459510803,184.21318459510803,185.31413078308105,1,1.233588457107544,None,,,,,,,,,,,,,,,,,,222,5,2025-03-10_11h02.48.057,comp,2024.2.4,59.98967348474121,2025-03-10 11h02.58.014875 -0400,
116,116,0,critical,wdh,20.0,3.0,lower,57.0,133.0,78.0,78.0,133.0,57.0,1,0.974942684173584,None,,,,,0,0,0,0,0,116,116,80,185.32962894439697,,,,,,,,,,,,,,,,,,,,,,,,,,,,,,,,,,,,,,,,,,,,,,,,,,,,,,,,,,,,,,,,,,,,,,,,,,,,,,,,,57.0,133.0,78.0,78.0,133.0,57.0,3.0,3.2,-202,-288,0,20,164,261,185.31491351127625,185.314954996109,185.31718611717224,185.32962894439697,185.47979187965393,185.47979187965393,185.47979187965393,185.47979187965393,185.47979187965393,185.47979187965393,185.47979187965393,186.31424498558044,1,0.974942684173584,None,,,,,,,,,,,,,,,,,,222,5,2025-03-10_11h02.48.057,comp,2024.2.4,59.98967348474121,2025-03-10 11h02.58.014875 -0400,
117,117,0,filler_random,None,None,None,None,None,None,None,None,None,None,1,1.3012685775756836,None,,,,,0,0,0,0,0,117,117,140,186.33015275001526,,,,,,,,,,,,,,,,,,,,,,,,,,,,,,,,,,,,,,,,,,,,,,,,,,,,,,,,,,,,,,,,,,,,,,,,,,,,,,,,,168.93048725418595,188.70397420398226,149.24540667163748,166.6134472905351,115.71296822875811,109.78806924749736,1.0,1.2,-274,11,0,-13,234,-12,186.31510400772095,186.31514596939087,186.31708097457886,186.33015275001526,186.47994112968445,186.47994112968445,186.47994112968445,186.47994112968445,186.47994112968445,186.47994112968445,186.47994112968445,187.64764261245728,1,1.3012685775756836,None,,,,,,,,,,,,,,,,,,222,5,2025-03-10_11h02.48.057,comp,2024.2.4,59.98967348474121,2025-03-10 11h02.58.014875 -0400,
118,118,0,critical,hwd,35.0,4.0,lower,133.0,57.0,57.0,133.0,70.0,70.0,1,0.8724658489227295,None,,,,,0,0,0,0,0,118,118,100,187.66293787956238,,,,,,,,,,,,,,,,,,,,,,,,,,,,,,,,,,,,,,,,,,,,,,,,,,,,,,,,,,,,,,,,,,,,,,,,,,,,,,,,,133.0,57.0,57.0,133.0,70.0,70.0,4.0,4.2,-191,-9,0,-279,198,-11,187.6484100818634,187.64845156669617,187.65084171295166,187.66293787956238,187.81313586235046,187.81313586235046,187.81313586235046,187.81313586235046,187.81313586235046,187.81313586235046,187.81313586235046,188.5474123954773,1,0.8724658489227295,None,,,,,,,,,,,,,,,,,,222,5,2025-03-10_11h02.48.057,comp,2024.2.4,59.98967348474121,2025-03-10 11h02.58.014875 -0400,
119,119,0,catch,None,None,None,None,None,None,None,None,None,None,1,1.3991413116455078,None,,,,,0,0,0,0,0,119,119,125,188.56299924850464,,,,,,,,,,,,,,,,,,,,,,,,,,,,,,,,,,,,,,,,,,,,,,,,,,,,,,,,,,,,,,,,,,,,,,,,,,,,,,,,,167,158,125,65,80,110,4.0,4.2,-208,-13,0,-257,184,19,188.548410654068,188.54845118522644,188.55081844329834,188.56299924850464,188.71323561668396,188.71323561668396,188.71323561668396,188.71323561668396,188.71323561668396,188.71323561668396,188.71323561668396,189.96449780464172,1,1.3991413116455078,None,,,,,,,,,,,,,,,,,,222,5,2025-03-10_11h02.48.057,comp,2024.2.4,59.98967348474121,2025-03-10 11h02.58.014875 -0400,
120,120,0,critical,whd,35.0,2.1,upper,125.0,200.0,200.0,125.0,127.0,127.0,2,1.1247472763061523,None,,,,,0,0,0,0,0,120,120,37,189.97997379302979,,,,,,,,,,,,,,,,,,,,,,,,,,,,,,,,,,,,,,,,,,,,,,,,,,,,,,,,,,,,,,,,,,,,,,,,,,,,,,,,,125.0,200.0,200.0,125.0,127.0,127.0,2.1,2.11,-258,260,0,278,222,-279,189.9652931690216,189.9653332233429,189.96770453453064,189.97997379302979,190.12992787361145,190.12992787361145,190.12992787361145,190.12992787361145,190.12992787361145,190.12992787361145,190.12992787361145,191.1143503189087,2,1.1247472763061523,None,,,,,,,,,,,,,,,,,,222,5,2025-03-10_11h02.48.057,comp,2024.2.4,59.98967348474121,2025-03-10 11h02.58.014875 -0400,
121,121,0,critical,dwh,35.0,1.0,upper,127.0,127.0,125.0,200.0,200.0,125.0,3,1.3999254703521729,None,,,,,0,0,0,0,0,121,121,61,191.1298131942749,,,,,,,,,,,,,,,,,,,,,,,,,,,,,,,,,,,,,,,,,,,,,,,,,,,,,,,,,,,,,,,,,,,,,,,,,,,,,,,,,127.0,127.0,125.0,200.0,200.0,125.0,1.0,1.3,220,-276,480,-258,738,-260,191.11512923240662,191.11517071723938,191.11720490455627,191.1298131942749,191.27992463111877,191.27992463111877,191.27992463111877,191.27992463111877,191.27992463111877,191.27992463111877,191.27992463111877,192.53124594688416,3,1.3999254703521729,None,,,,,,,,,,,,,,,,,,222,5,2025-03-10_11h02.48.057,comp,2024.2.4,59.98967348474121,2025-03-10 11h02.58.014875 -0400,
122,122,0,filler_square,None,None,None,None,None,None,None,None,None,None,3,1.2531917095184326,None,,,,,0,0,0,0,0,122,122,193,192.5465865135193,,,,,,,,,,,,,,,,,,,,,,,,,,,,,,,,,,,,,,,,,,,,,,,,,,,,,,,,,,,,,,,,,,,,,,,,,,,,,,,,,102.39293635683529,161.17651210932306,155.06390577888124,119.07641411915813,187.589347879216,187.589347879216,2.1,2.12,-236,-279,0,-282,249,267,192.53221201896667,192.5322539806366,192.53433847427368,192.5465865135193,192.69666051864624,192.69666051864624,192.69666051864624,192.69666051864624,192.69666051864624,192.69666051864624,192.69666051864624,193.81429886817932,3,1.2531917095184326,None,,,,,,,,,,,,,,,,,,222,5,2025-03-10_11h02.48.057,comp,2024.2.4,59.98967348474121,2025-03-10 11h02.58.014875 -0400,
123,123,0,critical,hdw,35.0,1.0,lower,133.0,57.0,70.0,70.0,57.0,133.0,1,2.090959072113037,None,,,,,0,0,0,0,0,123,123,108,193.82963061332703,,,,,,,,,,,,,,,,,,,,,,,,,,,,,,,,,,,,,,,,,,,,,,,,,,,,,,,,,,,,,,,,,,,,,,,,,,,,,,,,,133.0,57.0,70.0,70.0,57.0,133.0,1.0,1.3,320,-284,480,-279,678,-252,193.81519150733948,193.81523203849792,193.8176350593567,193.82963061332703,193.98011350631714,193.98011350631714,193.98011350631714,193.98011350631714,193.98011350631714,193.98011350631714,193.98011350631714,195.9306299686432,1,2.090959072113037,None,,,,,,,,,,,,,,,,,,222,5,2025-03-10_11h02.48.057,comp,2024.2.4,59.98967348474121,2025-03-10 11h02.58.014875 -0400,
124,124,0,critical,wdh,20.0,4.0,upper,125.0,200.0,141.0,141.0,200.0,125.0,2,0.8378646373748779,None,,,,,0,0,0,0,0,124,124,83,195.94647216796875,,,,,,,,,,,,,,,,,,,,,,,,,,,,,,,,,,,,,,,,,,,,,,,,,,,,,,,,,,,,,,,,,,,,,,,,,,,,,,,,,125.0,200.0,141.0,141.0,200.0,125.0,4.0,4.2,-266,-15,0,-255,229,-15,195.9314203262329,195.93146061897278,195.93381452560425,195.94647216796875,196.0968554019928,196.0968554019928,196.0968554019928,196.0968554019928,196.0968554019928,196.0968554019928,196.0968554019928,196.79759573936462,2,0.8378646373748779,None,,,,,,,,,,,,,,,,,,222,5,2025-03-10_11h02.48.057,comp,2024.2.4,59.98967348474121,2025-03-10 11h02.58.014875 -0400,
125,125,0,critical,hdw,20.0,2.1,upper,200.0,125.0,141.0,141.0,125.0,200.0,3,0.6594891548156738,None,,,,,0,0,0,0,0,125,125,23,196.81288719177246,,,,,,,,,,,,,,,,,,,,,,,,,,,,,,,,,,,,,,,,,,,,,,,,,,,,,,,,,,,,,,,,,,,,,,,,,,,,,,,,,200.0,125.0,141.0,141.0,125.0,200.0,2.1,2.11,-229,278,0,280,266,-280,196.79846715927124,196.79851078987122,196.8010003566742,196.81288719177246,196.9640121459961,196.9640121459961,196.9640121459961,196.9640121459961,196.9640121459961,196.9640121459961,196.9640121459961,197.48113298416138,3,0.6594891548156738,None,,,,,,,,,,,,,,,,,,222,5,2025-03-10_11h02.48.057,comp,2024.2.4,59.98967348474121,2025-03-10 11h02.58.014875 -0400,
126,126,0,critical,hwd,35.0,2.1,upper,200.0,125.0,125.0,200.0,127.0,127.0,3,0.6656129360198975,None,,,,,0,0,0,0,0,126,126,41,197.49647188186646,,,,,,,,,,,,,,,,,,,,,,,,,,,,,,,,,,,,,,,,,,,,,,,,,,,,,,,,,,,,,,,,,,,,,,,,,,,,,,,,,200.0,125.0,125.0,200.0,127.0,127.0,2.1,2.12,-258,-264,0,-272,260,284,197.4819040298462,197.4819462299347,197.4839928150177,197.49647188186646,197.64673399925232,197.64673399925232,197.64673399925232,197.64673399925232,197.64673399925232,197.64673399925232,197.64673399925232,198.16450428962708,3,0.6656129360198975,None,,,,,,,,,,,,,,,,,,222,5,2025-03-10_11h02.48.057,comp,2024.2.4,59.98967348474121,2025-03-10 11h02.58.014875 -0400,
127,127,0,filler_random,None,None,None,None,None,None,None,None,None,None,1,2.2761390209198,None,,,,,0,0,0,0,0,127,127,144,198.18011856079102,,,,,,,,,,,,,,,,,,,,,,,,,,,,,,,,,,,,,,,,,,,,,,,,,,,,,,,,,,,,,,,,,,,,,,,,,,,,,,,,,141.46496462692943,108.90495703218608,88.58257082309646,98.11193571513077,102.69943156839983,71.09434038437256,4.0,4.1,-200,-263,0,-8,181,-266,198.16543245315552,198.16547441482544,198.16775727272034,198.18011856079102,198.32973217964172,198.32973217964172,198.32973217964172,198.32973217964172,198.32973217964172,198.32973217964172,198.32973217964172,200.46422123908997,1,2.2761390209198,None,,,,,,,,,,,,,,,,,,222,5,2025-03-10_11h02.48.057,comp,2024.2.4,59.98967348474121,2025-03-10 11h02.58.014875 -0400,
128,128,0,critical,dwh,35.0,4.0,lower,70.0,70.0,57.0,133.0,133.0,57.0,3,1.1923835277557373,None,,,,,0,0,0,0,0,128,128,64,200.48011112213135,,,,,,,,,,,,,,,,,,,,,,,,,,,,,,,,,,,,,,,,,,,,,,,,,,,,,,,,,,,,,,,,,,,,,,,,,,,,,,,,,70.0,70.0,57.0,133.0,133.0,57.0,4.0,4.2,-198,2,0,-285,191,-1,200.46498823165894,200.46502995491028,200.4671049118042,200.48011112213135,200.62980580329895,200.62980580329895,200.62980580329895,200.62980580329895,200.62980580329895,200.62980580329895,200.62980580329895,201.68077397346497,3,1.1923835277557373,None,,,,,,,,,,,,,,,,,,222,5,2025-03-10_11h02.48.057,comp,2024.2.4,59.98967348474121,2025-03-10 11h02.58.014875 -0400,
129,129,0,filler_random,None,None,None,None,None,None,None,None,None,None,1,0.8240394592285156,None,,,,,0,0,0,0,0,129,129,154,201.69649386405945,,,,,,,,,,,,,,,,,,,,,,,,,,,,,,,,,,,,,,,,,,,,,,,,,,,,,,,,,,,,,,,,,,,,,,,,,,,,,,,,,64.5775004659367,78.9567301840612,62.241351002904516,141.88106153143622,190.43690532970894,122.20876608311366,2.2,2.21,-206,-274,0,286,228,261,201.68167877197266,201.68172025680542,201.68416810035706,201.69649386405945,201.8463635444641,201.8463635444641,201.8463635444641,201.8463635444641,201.8463635444641,201.8463635444641,201.8463635444641,202.53071689605713,1,0.8240394592285156,None,,,,,,,,,,,,,,,,,,222,5,2025-03-10_11h02.48.057,comp,2024.2.4,59.98967348474121,2025-03-10 11h02.58.014875 -0400,
130,130,0,critical,whd,35.0,2.1,lower,57.0,133.0,133.0,57.0,70.0,70.0,2,0.8378260135650635,None,,,,,0,0,0,0,0,130,130,36,202.5464792251587,,,,,,,,,,,,,,,,,,,,,,,,,,,,,,,,,,,,,,,,,,,,,,,,,,,,,,,,,,,,,,,,,,,,,,,,,,,,,,,,,57.0,133.0,133.0,57.0,70.0,70.0,2.1,2.11,-191,268,0,279,160,-280,202.53161764144897,202.53165864944458,202.53422117233276,202.5464792251587,202.69622826576233,202.69622826576233,202.69622826576233,202.69622826576233,202.69622826576233,202.69622826576233,202.69622826576233,203.39732122421265,2,0.8378260135650635,None,,,,,,,,,,,,,,,,,,222,5,2025-03-10_11h02.48.057,comp,2024.2.4,59.98967348474121,2025-03-10 11h02.58.014875 -0400,
131,131,0,critical,dwh,35.0,4.0,upper,127.0,127.0,125.0,200.0,200.0,125.0,2,0.5168478488922119,None,,,,,0,0,0,0,0,131,131,65,203.41285181045532,,,,,,,,,,,,,,,,,,,,,,,,,,,,,,,,,,,,,,,,,,,,,,,,,,,,,,,,,,,,,,,,,,,,,,,,,,,,,,,,,127.0,127.0,125.0,200.0,200.0,125.0,4.0,4.2,-260,-3,0,-276,258,-5,203.39808583259583,203.3981273174286,203.40041494369507,203.41285181045532,203.56326746940613,203.56326746940613,203.56326746940613,203.56326746940613,203.56326746940613,203.56326746940613,203.56326746940613,203.94751477241516,2,0.5168478488922119,None,,,,,,,,,,,,,,,,,,222,5,2025-03-10_11h02.48.057,comp,2024.2.4,59.98967348474121,2025-03-10 11h02.58.014875 -0400,
132,132,0,catch,None,None,None,None,None,None,None,None,None,None,2,0.24527788162231445,None,,,,,0,0,0,0,0,132,132,123,203.96287608146667,,,,,,,,,,,,,,,,,,,,,,,,,,,,,,,,,,,,,,,,,,,,,,,,,,,,,,,,,,,,,,,,,,,,,,,,,,,,,,,,,179,146,59,131,132,58,4.0,4.1,-234,-279,0,16,190,-254,203.9485113620758,203.94855189323425,203.95088696479797,203.96287608146667,204.11300992965698,204.11300992965698,204.11300992965698,204.11300992965698,204.11300992965698,204.11300992965698,204.11300992965698,204.21413826942444,2,0.24527788162231445,None,,,,,,,,,,,,,,,,,,222,5,2025-03-10_11h02.48.057,comp,2024.2.4,59.98967348474121,2025-03-10 11h02.58.014875 -0400,
133,133,0,critical,wdh,20.0,2.1,lower,57.0,133.0,78.0,78.0,133.0,57.0,2,0.20176315307617188,None,,,,,0,0,0,0,0,133,133,34,204.2296962738037,,,,,,,,,,,,,,,,,,,,,,,,,,,,,,,,,,,,,,,,,,,,,,,,,,,,,,,,,,,,,,,,,,,,,,,,,,,,,,,,,57.0,133.0,78.0,78.0,133.0,57.0,2.1,2.12,-202,-289,0,-263,164,264,204.21492862701416,204.2149693965912,204.21714425086975,204.2296962738037,204.3795804977417,204.3795804977417,204.3795804977417,204.3795804977417,204.3795804977417,204.3795804977417,204.3795804977417,204.44732666015625,2,0.20176315307617188,None,,,,,,,,,,,,,,,,,,222,5,2025-03-10_11h02.48.057,comp,2024.2.4,59.98967348474121,2025-03-10 11h02.58.014875 -0400,
134,134,0,critical,hwd,35.0,2.1,upper,200.0,125.0,125.0,200.0,127.0,127.0,2,0.1613471508026123,None,,,,,0,0,0,0,0,134,134,17,204.46290564537048,,,,,,,,,,,,,,,,,,,,,,,,,,,,,,,,,,,,,,,,,,,,,,,,,,,,,,,,,,,,,,,,,,,,,,,,,,,,,,,,,200.0,125.0,125.0,200.0,127.0,127.0,2.1,2.12,-258,-254,0,-268,260,253,204.44810509681702,204.4481463432312,204.45047450065613,204.46290564537048,204.61320328712463,204.61320328712463,204.61320328712463,204.61320328712463,204.61320328712463,204.61320328712463,204.61320328712463,204.6310613155365,2,0.1613471508026123,None,,,,,,,,,,,,,,,,,,222,5,2025-03-10_11h02.48.057,comp,2024.2.4,59.98967348474121,2025-03-10 11h02.58.014875 -0400,
135,135,0,critical,dhw,35.0,2.1,upper,127.0,127.0,200.0,125.0,125.0,200.0,2,0.17785382270812988,None,,,,,0,0,0,0,0,135,135,25,204.64639830589294,,,,,,,,,,,,,,,,,,,,,,,,,,,,,,,,,,,,,,,,,,,,,,,,,,,,,,,,,,,,,,,,,,,,,,,,,,,,,,,,,127.0,127.0,200.0,125.0,125.0,200.0,2.1,2.12,-222,-281,0,-275,258,265,204.63180208206177,204.63184237480164,204.63402438163757,204.64639830589294,204.79647278785706,204.79647278785706,204.79647278785706,204.79647278785706,204.79647278785706,204.79647278785706,204.79647278785706,204.8314070701599,2,0.17785382270812988,None,,,,,,,,,,,,,,,,,,222,5,2025-03-10_11h02.48.057,comp,2024.2.4,59.98967348474121,2025-03-10 11h02.58.014875 -0400,
136,136,0,critical,dhw,20.0,2.1,lower,78.0,78.0,133.0,57.0,57.0,133.0,2,0.16904759407043457,None,,,,,0,0,0,0,0,136,136,2,204.84644269943237,,,,,,,,,,,,,,,,,,,,,,,,,,,,,,,,,,,,,,,,,,,,,,,,,,,,,,,,,,,,,,,,,,,,,,,,,,,,,,,,,78.0,78.0,133.0,57.0,57.0,133.0,2.1,2.11,-164,270,0,284,191,-255,204.83218216896057,204.83222270011902,204.834312915802,204.84644269943237,204.9963984489441,204.9963984489441,204.9963984489441,204.9963984489441,204.9963984489441,204.9963984489441,204.9963984489441,205.03101086616516,2,0.16904759407043457,None,,,,,,,,,,,,,,,,,,222,5,2025-03-10_11h02.48.057,comp,2024.2.4,59.98967348474121,2025-03-10 11h02.58.014875 -0400,
137,137,0,filler_random,None,None,None,None,None,None,None,None,None,None,2,0.14599084854125977,None,,,,,0,0,0,0,0,137,137,152,205.04622054100037,,,,,,,,,,,,,,,,,,,,,,,,,,,,,,,,,,,,,,,,,,,,,,,,,,,,,,,,,,,,,,,,,,,,,,,,,,,,,,,,,91.86778606080047,164.9655722458583,188.30015692781868,124.29104454900423,175.93185218214268,195.45730888910717,2.1,2.12,-241,-266,0,-255,256,271,205.03190779685974,205.03194975852966,205.0341944694519,205.04622054100037,205.1970615386963,205.1970615386963,205.1970615386963,205.1970615386963,205.1970615386963,205.1970615386963,205.1970615386963,205.19809913635254,2,0.14599084854125977,None,,,,,,,,,,,,,,,,,,222,5,2025-03-10_11h02.48.057,comp,2024.2.4,59.98967348474121,2025-03-10 11h02.58.014875 -0400,
138,138,0,critical,hdw,35.0,3.0,upper,200.0,125.0,127.0,127.0,125.0,200.0,2,0.16443514823913574,None,,,,,0,0,0,0,0,138,138,111,205.21320223808289,,,,,,,,,,,,,,,,,,,,,,,,,,,,,,,,,,,,,,,,,,,,,,,,,,,,,,,,,,,,,,,,,,,,,,,,,,,,,,,,,200.0,125.0,127.0,127.0,125.0,200.0,3.0,3.1,-222,288,0,10,260,-257,205.19887733459473,205.19891905784607,205.20112657546997,205.21320223808289,205.36310982704163,205.36310982704163,205.36310982704163,205.36310982704163,205.36310982704163,205.36310982704163,205.36310982704163,205.3813135623932,2,0.16443514823913574,None,,,,,,,,,,,,,,,,,,222,5,2025-03-10_11h02.48.057,comp,2024.2.4,59.98967348474121,2025-03-10 11h02.58.014875 -0400,
139,139,0,critical,hdw,35.0,2.1,lower,133.0,57.0,70.0,70.0,57.0,133.0,2,0.1711108684539795,None,,,,,0,0,0,0,0,139,139,44,205.3964924812317,,,,,,,,,,,,,,,,,,,,,,,,,,,,,,,,,,,,,,,,,,,,,,,,,,,,,,,,,,,,,,,,,,,,,,,,,,,,,,,,,133.0,57.0,70.0,70.0,57.0,133.0,2.1,2.11,-160,279,0,280,198,-281,205.38209748268127,205.38213849067688,205.3841917514801,205.3964924812317,205.5462212562561,205.5462212562561,205.5462212562561,205.5462212562561,205.5462212562561,205.5462212562561,205.5462212562561,205.5806224346161,2,0.1711108684539795,None,,,,,,,,,,,,,,,,,,222,5,2025-03-10_11h02.48.057,comp,2024.2.4,59.98967348474121,2025-03-10 11h02.58.014875 -0400,
