thisN,thisTrialN,thisRepN,effect,order,distance,config,diag,h_1,w_1,h_2,w_2,h_3,w_3,rect_choice.keys,rect_choice.rt,rect_choice.duration,instructions_loop.thisRepN,instructions_loop.thisTrialN,instructions_loop.thisN,instructions_loop.thisIndex,blocks.thisRepN,blocks.thisTrialN,blocks.thisN,blocks.thisIndex,trials.thisRepN,trials.thisTrialN,trials.thisN,trials.thisIndex,thisRow.t,notes,consent.started,agree_button.started,decline_button.started,consent_img.started,mouse.started,consent.stopped,agree_button.numClicks,agree_button.timesOn,agree_button.timesOff,decline_button.numClicks,decline_button.timesOn,decline_button.timesOff,mouse.x,mouse.y,mouse.leftButton,mouse.midButton,mouse.rightButton,mouse.time,mouse.clicked_name,exp_params.started,exp_params.stopped,welcome.started,welcome_text.started,welcome.stopped,instructions_1.started,instructions_1_text_1.started,instructions_1_text_2.started,key_resp.started,instructions_1.stopped,instructions_loop.key_resp.keys,instructions_loop.key_resp.rt,instructions_loop.key_resp.duration,instructions_2.started,instructions_2_text_1.started,instructions_2_text_2.started,key_resp_2.started,instructions_2.stopped,instructions_loop.key_resp_2.keys,instructions_loop.key_resp_2.rt,instructions_loop.key_resp_2.duration,instructions_3.started,instructions_3_text_1.started,r1_instr3.started,r2_instr3.started,r3_instr3.started,r1_instr3_label.started,r2_instr3_label.started,r3_instr3_label.started,instructions_3_text_3.started,instructions_3_text_4.started,key_resp_3.started,instructions_3.stopped,instructions_loop.key_resp_3.keys,instructions_loop.key_resp_3.rt,instructions_loop.key_resp_3.duration,instructions_4.started,instructions_4_text_1.started,instructions_4_text_3.started,instructions_4_text_2.started,key_resp_4.started,instructions_4.stopped,instructions_loop.key_resp_4.keys,instructions_loop.key_resp_4.rt,instructions_loop.key_resp_4.duration,instructions_5.started,instructions_5_text_1.started,instructions_5_text_2.started,key_resp_5.started,instructions_5.stopped,instructions_loop.key_resp_5.keys,instructions_loop.key_resp_5.rt,instructions_loop.key_resp_5.duration,start_exp.started,start_exp_text.started,key_resp_6.started,start_exp.stopped,key_resp_6.keys,key_resp_6.rt,key_resp_6.duration,h_1_tmp,w_1_tmp,h_2_tmp,w_2_tmp,h_3_tmp,w_3_tmp,config_tmp,config_tmp_1,r_1_x,r_1_y,r_2_x,r_2_y,r_3_x,r_3_y,pre_trial.started,pre_trial.stopped,choice_trial.started,rect_choice.started,r_1.started,r_2.started,r_3.started,r_1_label.started,r_2_label.started,r_3_label.started,prompt.started,choice_trial.stopped,trials.rect_choice.keys,trials.rect_choice.rt,trials.rect_choice.duration,end_block.started,end_block_text.started,end_block.stopped,end.started,end_text.started,key_resp_7.started,end.stopped,key_resp_7.keys,key_resp_7.rt,key_resp_7.duration,debriefing.started,debrief_form.started,end_debrief.started,debriefing.stopped,end_debrief.keys,end_debrief.rt,end_debrief.duration,participant,computer,date,expName,psychopyVersion,frameRate,expStart,
,,,,,,,,,,,,,,,,,,,,,,,,,,,,,,,0.01452493667602539,0.03440523147583008,0.03440523147583008,0.03440523147583008,0.014320611953735352,33.236225605010986,1,[33.19949913024902],[33.199520111083984],0,,,[-55.0],[-518.0],[1],[0],[0],[33.22131013870239],['agree_button'],,,,,,,,,,,,,,,,,,,,,,,,,,,,,,,,,,,,,,,,,,,,,,,,,,,,,,,,,,,,,,,,,,,,,,,,,,,,,,,,,,,,,,,,,,,,,,,,,,,,,,,,,,,223,2,2025-03-10_11h05.53.080,comp,2024.2.4,54.21946562665223,2025-03-10 11h06.01.514059 -0400,
,,,,,,,,,,,,,,,,,,,,,,,,,,,,,,,,,,,,,,,,,,,,,,,,,,33.23669910430908,33.236764430999756,,,,,,,,,,,,,,,,,,,,,,,,,,,,,,,,,,,,,,,,,,,,,,,,,,,,,,,,,,,,,,,,,,,,,,,,,,,,,,,,,,,,,,,,,,,,,,,,,,,,,,,,,223,2,2025-03-10_11h05.53.080,comp,2024.2.4,54.21946562665223,2025-03-10 11h06.01.514059 -0400,
,,,,,,,,,,,,,,,,,,,,,,,,,,,,,,,,,,,,,,,,,,,,,,,,,,,,33.23680663108826,33.25187134742737,35.24165415763855,,,,,,,,,,,,,,,,,,,,,,,,,,,,,,,,,,,,,,,,,,,,,,,,,,,,,,,,,,,,,,,,,,,,,,,,,,,,,,,,,,,,,,,,,,,,,,,,,,,,,,223,2,2025-03-10_11h05.53.080,comp,2024.2.4,54.21946562665223,2025-03-10 11h06.01.514059 -0400,
0,0,0,,,,,,,,,,,,,,,0,0,0,0,,,,,,,,,35.25594115257263,,,,,,,,,,,,,,,,,,,,,,,,,,35.24252247810364,35.25594115257263,35.25594115257263,36.74138689041138,37.75952434539795,space,1.002180814743042,None,37.75967478752136,37.77353000640869,37.77353000640869,39.276304960250854,46.562312602996826,space,7.281732559204102,None,46.56245803833008,46.59049701690674,46.59049701690674,46.59049701690674,46.59049701690674,46.59049701690674,46.59049701690674,46.59049701690674,46.59049701690674,46.59049701690674,48.07920742034912,53.654937744140625,space,5.567319393157959,None,53.655131101608276,53.671637773513794,53.671637773513794,53.671637773513794,55.163570165634155,63.334044218063354,space,8.154316902160645,None,63.33419394493103,63.34929370880127,63.34929370880127,64.83314442634583,66.33229207992554,space,1.4959325790405273,None,66.33248710632324,66.34827852249146,66.34827852249146,67.6670732498169,space,1.3162610530853271,None,,,,,,,,,,,,,,,,,,,,,,,,,,,,,,,,,,,,,,,,,,,,,,,223,2,2025-03-10_11h05.53.080,comp,2024.2.4,54.21946562665223,2025-03-10 11h06.01.514059 -0400,
0,0,0,critical,whd,35.0,2.1,lower,57.0,133.0,133.0,57.0,70.0,70.0,2,4.238198518753052,None,,,,,0,0,0,0,0,0,0,36,67.74467015266418,,,,,,,,,,,,,,,,,,,,,,,,,,,,,,,,,,,,,,,,,,,,,,,,,,,,,,,,,,,,,,,,,,,,,,,,,,,,,,,,,57.0,133.0,133.0,57.0,70.0,70.0,2.1,2.12,-191,-260,0,-284,160,265,67.72787189483643,67.72792053222656,67.72985911369324,67.74467015266418,67.89284181594849,67.89284181594849,67.89284181594849,67.89284181594849,67.89284181594849,67.89284181594849,67.89284181594849,71.98723649978638,2,4.238198518753052,None,,,,,,,,,,,,,,,,,,223,2,2025-03-10_11h05.53.080,comp,2024.2.4,54.21946562665223,2025-03-10 11h06.01.514059 -0400,
1,1,0,critical,hdw,35.0,4.0,lower,133.0,57.0,70.0,70.0,57.0,133.0,3,5.815274238586426,None,,,,,0,0,0,0,0,1,1,112,72.00662112236023,,,,,,,,,,,,,,,,,,,,,,,,,,,,,,,,,,,,,,,,,,,,,,,,,,,,,,,,,,,,,,,,,,,,,,,,,,,,,,,,,133.0,57.0,70.0,70.0,57.0,133.0,4.0,4.1,-160,-267,0,0,198,-271,71.98888778686523,71.98896598815918,71.99234533309937,72.00662112236023,72.15334582328796,72.15334582328796,72.15334582328796,72.15334582328796,72.15334582328796,72.15334582328796,72.15334582328796,77.83853435516357,3,5.815274238586426,None,,,,,,,,,,,,,,,,,,223,2,2025-03-10_11h05.53.080,comp,2024.2.4,54.21946562665223,2025-03-10 11h06.01.514059 -0400,
2,2,0,filler_random,None,None,None,None,None,None,None,None,None,None,2,4.648118257522583,None,,,,,0,0,0,0,0,2,2,143,77.85466408729553,,,,,,,,,,,,,,,,,,,,,,,,,,,,,,,,,,,,,,,,,,,,,,,,,,,,,,,,,,,,,,,,,,,,,,,,,,,,,,,,,83.06318748453623,185.07447406782302,159.1447187685822,164.99169589579284,189.00006070545402,115.81632638194762,2.2,2.22,-271,278,0,-250,236,-265,77.84024262428284,77.84032130241394,77.84437298774719,77.85466408729553,77.99575352668762,77.99575352668762,77.99575352668762,77.99575352668762,77.99575352668762,77.99575352668762,77.99575352668762,82.50734567642212,2,4.648118257522583,None,,,,,,,,,,,,,,,,,,223,2,2025-03-10_11h05.53.080,comp,2024.2.4,54.21946562665223,2025-03-10 11h06.01.514059 -0400,
3,3,0,critical,hdw,20.0,4.0,lower,133.0,57.0,78.0,78.0,57.0,133.0,3,4.737890243530273,None,,,,,0,0,0,0,0,3,3,118,82.52394080162048,,,,,,,,,,,,,,,,,,,,,,,,,,,,,,,,,,,,,,,,,,,,,,,,,,,,,,,,,,,,,,,,,,,,,,,,,,,,,,,,,133.0,57.0,78.0,78.0,57.0,133.0,4.0,4.2,-164,-9,0,-256,202,-15,82.50887250900269,82.50895047187805,82.51305103302002,82.52394080162048,82.6702036857605,82.6702036857605,82.6702036857605,82.6702036857605,82.6702036857605,82.6702036857605,82.6702036857605,87.2773277759552,3,4.737890243530273,None,,,,,,,,,,,,,,,,,,223,2,2025-03-10_11h05.53.080,comp,2024.2.4,54.21946562665223,2025-03-10 11h06.01.514059 -0400,
4,4,0,critical,whd,35.0,4.0,upper,125.0,200.0,200.0,125.0,127.0,127.0,1,2.328589677810669,None,,,,,0,0,0,0,0,4,4,89,87.29327154159546,,,,,,,,,,,,,,,,,,,,,,,,,,,,,,,,,,,,,,,,,,,,,,,,,,,,,,,,,,,,,,,,,,,,,,,,,,,,,,,,,125.0,200.0,200.0,125.0,127.0,127.0,4.0,4.2,-258,-6,0,-284,222,-8,87.27898931503296,87.27910947799683,87.28295397758484,87.29327154159546,87.44158887863159,87.44158887863159,87.44158887863159,87.44158887863159,87.44158887863159,87.44158887863159,87.44158887863159,89.63759350776672,1,2.328589677810669,None,,,,,,,,,,,,,,,,,,223,2,2025-03-10_11h05.53.080,comp,2024.2.4,54.21946562665223,2025-03-10 11h06.01.514059 -0400,
5,5,0,filler_random,None,None,None,None,None,None,None,None,None,None,2,2.163109064102173,None,,,,,0,0,0,0,0,5,5,167,89.65161871910095,,,,,,,,,,,,,,,,,,,,,,,,,,,,,,,,,,,,,,,,,,,,,,,,,,,,,,,,,,,,,,,,,,,,,,,,,,,,,,,,,169.38687101785092,120.14228586998478,130.50333581695017,177.18301792049388,70.17970825832998,195.2907724267478,3.0,3.1,-245,283,0,1,282,-262,89.63900351524353,89.63905906677246,89.64074277877808,89.65161871910095,89.79433035850525,89.79433035850525,89.79433035850525,89.79433035850525,89.79433035850525,89.79433035850525,89.79433035850525,91.82638239860535,2,2.163109064102173,None,,,,,,,,,,,,,,,,,,223,2,2025-03-10_11h05.53.080,comp,2024.2.4,54.21946562665223,2025-03-10 11h06.01.514059 -0400,
6,6,0,critical,hdw,35.0,3.0,lower,133.0,57.0,70.0,70.0,57.0,133.0,3,2.9578299522399902,None,,,,,0,0,0,0,0,6,6,110,91.84236764907837,,,,,,,,,,,,,,,,,,,,,,,,,,,,,,,,,,,,,,,,,,,,,,,,,,,,,,,,,,,,,,,,,,,,,,,,,,,,,,,,,133.0,57.0,70.0,70.0,57.0,133.0,3.0,3.1,-160,278,0,10,198,-272,91.82789254188538,91.82797384262085,91.83151626586914,91.84236764907837,91.99352526664734,91.99352526664734,91.99352526664734,91.99352526664734,91.99352526664734,91.99352526664734,91.99352526664734,94.8109622001648,3,2.9578299522399902,None,,,,,,,,,,,,,,,,,,223,2,2025-03-10_11h05.53.080,comp,2024.2.4,54.21946562665223,2025-03-10 11h06.01.514059 -0400,
7,7,0,filler_square,None,None,None,None,None,None,None,None,None,None,2,1.2112174034118652,None,,,,,0,0,0,0,0,7,7,208,94.82715606689453,,,,,,,,,,,,,,,,,,,,,,,,,,,,,,,,,,,,,,,,,,,,,,,,,,,,,,,,,,,,,,,,,,,,,,,,,,,,,,,,,64.47644429728825,82.08596588258635,116.70102007262709,116.70102007262709,72.93363234501486,68.74996832371845,4.0,4.2,-195,5,0,-281,189,18,94.81277394294739,94.81285810470581,94.81635046005249,94.82715606689453,94.98432970046997,94.98432970046997,94.98432970046997,94.98432970046997,94.98432970046997,94.98432970046997,94.98432970046997,96.04332971572876,2,1.2112174034118652,None,,,,,,,,,,,,,,,,,,223,2,2025-03-10_11h05.53.080,comp,2024.2.4,54.21946562665223,2025-03-10 11h06.01.514059 -0400,
8,8,0,filler_random,None,None,None,None,None,None,None,None,None,None,2,2.681713342666626,None,,,,,0,0,0,0,0,8,8,150,96.06012725830078,,,,,,,,,,,,,,,,,,,,,,,,,,,,,,,,,,,,,,,,,,,,,,,,,,,,,,,,,,,,,,,,,,,,,,,,,,,,,,,,,71.36853888053034,64.89492147289072,176.54003368291637,79.91303115817092,75.92083317234864,133.37117917271456,4.0,4.1,-168,-258,0,1,203,-277,96.04513001441956,96.04520606994629,96.04852843284607,96.06012725830078,96.21086955070496,96.21086955070496,96.21086955070496,96.21086955070496,96.21086955070496,96.21086955070496,96.21086955070496,98.74556684494019,2,2.681713342666626,None,,,,,,,,,,,,,,,,,,223,2,2025-03-10_11h05.53.080,comp,2024.2.4,54.21946562665223,2025-03-10 11h06.01.514059 -0400,
9,9,0,critical,whd,20.0,3.0,lower,57.0,133.0,133.0,57.0,78.0,78.0,3,7.156277179718018,None,,,,,0,0,0,0,0,9,9,92,98.76191282272339,,,,,,,,,,,,,,,,,,,,,,,,,,,,,,,,,,,,,,,,,,,,,,,,,,,,,,,,,,,,,,,,,,,,,,,,,,,,,,,,,57.0,133.0,133.0,57.0,78.0,78.0,3.0,3.2,-191,-270,0,-8,164,284,98.74705004692078,98.74714732170105,98.75112104415894,98.76191282272339,98.91311597824097,98.91311597824097,98.91311597824097,98.91311597824097,98.91311597824097,98.91311597824097,98.91311597824097,105.920823097229,3,7.156277179718018,None,,,,,,,,,,,,,,,,,,223,2,2025-03-10_11h05.53.080,comp,2024.2.4,54.21946562665223,2025-03-10 11h06.01.514059 -0400,
10,10,0,filler_square,None,None,None,None,None,None,None,None,None,None,3,2.2730956077575684,None,,,,,0,0,0,0,0,10,10,192,105.94150876998901,,,,,,,,,,,,,,,,,,,,,,,,,,,,,,,,,,,,,,,,,,,,,,,,,,,,,,,,,,,,,,,,,,,,,,,,,,,,,,,,,69.50435551894678,74.66950621906952,62.56654588611885,70.99097717547914,89.12612053516521,89.12612053516521,2.2,2.21,-169,-287,0,285,176,270,105.92262291908264,105.92270398139954,105.92571449279785,105.94150876998901,106.07911467552185,106.07911467552185,106.07911467552185,106.07911467552185,106.07911467552185,106.07911467552185,106.07911467552185,108.2209587097168,3,2.2730956077575684,None,,,,,,,,,,,,,,,,,,223,2,2025-03-10_11h05.53.080,comp,2024.2.4,54.21946562665223,2025-03-10 11h06.01.514059 -0400,
11,11,0,catch,None,None,None,None,None,None,None,None,None,None,2,1.2867755889892578,None,,,,,0,0,0,0,0,11,11,120,108.23936796188354,,,,,,,,,,,,,,,,,,,,,,,,,,,,,,,,,,,,,,,,,,,,,,,,,,,,,,,,,,,,,,,,,,,,,,,,,,,,,,,,,87,103,141,184,93,97,2.1,2.11,-240,273,0,284,236,-260,108.22289800643921,108.22297859191895,108.2259259223938,108.23936796188354,108.37766003608704,108.37766003608704,108.37766003608704,108.37766003608704,108.37766003608704,108.37766003608704,108.37766003608704,109.53067350387573,2,1.2867755889892578,None,,,,,,,,,,,,,,,,,,223,2,2025-03-10_11h05.53.080,comp,2024.2.4,54.21946562665223,2025-03-10 11h06.01.514059 -0400,
12,12,0,filler_square,None,None,None,None,None,None,None,None,None,None,2,1.202486515045166,None,,,,,0,0,0,0,0,12,12,180,109.54762434959412,,,,,,,,,,,,,,,,,,,,,,,,,,,,,,,,,,,,,,,,,,,,,,,,,,,,,,,,,,,,,,,,,,,,,,,,,,,,,,,,,104.47364726546469,120.04881675267775,183.22527300721384,183.22527300721384,156.1774223458984,144.025432302617,2.2,2.21,-248,-279,0,263,260,256,109.53259348869324,109.5326738357544,109.53598475456238,109.54762434959412,109.70248627662659,109.70248627662659,109.70248627662659,109.70248627662659,109.70248627662659,109.70248627662659,109.70248627662659,110.76512503623962,2,1.202486515045166,None,,,,,,,,,,,,,,,,,,223,2,2025-03-10_11h05.53.080,comp,2024.2.4,54.21946562665223,2025-03-10 11h06.01.514059 -0400,
13,13,0,filler_square,None,None,None,None,None,None,None,None,None,None,1,1.2169604301452637,None,,,,,0,0,0,0,0,13,13,194,110.78105425834656,,,,,,,,,,,,,,,,,,,,,,,,,,,,,,,,,,,,,,,,,,,,,,,,,,,,,,,,,,,,,,,,,,,,,,,,,,,,,,,,,114.17103503287979,114.17103503287979,73.32697090319901,72.72533114640294,101.43810270317536,68.87995397392352,4.0,4.2,-189,20,0,-277,167,12,110.76684141159058,110.76692175865173,110.77018594741821,110.78105425834656,110.92896914482117,110.92896914482117,110.92896914482117,110.92896914482117,110.92896914482117,110.92896914482117,110.92896914482117,112.00075030326843,1,1.2169604301452637,None,,,,,,,,,,,,,,,,,,223,2,2025-03-10_11h05.53.080,comp,2024.2.4,54.21946562665223,2025-03-10 11h06.01.514059 -0400,
14,14,0,filler_square,None,None,None,None,None,None,None,None,None,None,3,1.2956340312957764,None,,,,,0,0,0,0,0,14,14,195,112.02220559120178,,,,,,,,,,,,,,,,,,,,,,,,,,,,,,,,,,,,,,,,,,,,,,,,,,,,,,,,,,,,,,,,,,,,,,,,,,,,,,,,,160.1426945421525,142.23435718792774,103.5712870940608,72.15909552051848,167.2522951611479,167.2522951611479,1.0,1.2,-203,11,0,1,216,-6,112.00274872779846,112.00282573699951,112.00654006004333,112.02220559120178,112.16547513008118,112.16547513008118,112.16547513008118,112.16547513008118,112.16547513008118,112.16547513008118,112.16547513008118,113.335040807724,3,1.2956340312957764,None,,,,,,,,,,,,,,,,,,223,2,2025-03-10_11h05.53.080,comp,2024.2.4,54.21946562665223,2025-03-10 11h06.01.514059 -0400,
15,15,0,filler_square,None,None,None,None,None,None,None,None,None,None,1,1.1029713153839111,None,,,,,0,0,0,0,0,15,15,189,113.35100269317627,,,,,,,,,,,,,,,,,,,,,,,,,,,,,,,,,,,,,,,,,,,,,,,,,,,,,,,,,,,,,,,,,,,,,,,,,,,,,,,,,99.8749871136741,99.8749871136741,94.21534375216423,62.39046984325502,77.10689447356312,61.09653622078269,2.1,2.11,-177,267,0,259,158,-260,113.33694577217102,113.33705067634583,113.3402054309845,113.35100269317627,113.50315928459167,113.50315928459167,113.50315928459167,113.50315928459167,113.50315928459167,113.50315928459167,113.50315928459167,114.46471166610718,1,1.1029713153839111,None,,,,,,,,,,,,,,,,,,223,2,2025-03-10_11h05.53.080,comp,2024.2.4,54.21946562665223,2025-03-10 11h06.01.514059 -0400,
16,16,0,critical,whd,35.0,2.1,lower,57.0,133.0,133.0,57.0,70.0,70.0,2,2.4368531703948975,None,,,,,0,0,0,0,0,16,16,12,114.48104310035706,,,,,,,,,,,,,,,,,,,,,,,,,,,,,,,,,,,,,,,,,,,,,,,,,,,,,,,,,,,,,,,,,,,,,,,,,,,,,,,,,57.0,133.0,133.0,57.0,70.0,70.0,2.1,2.11,-191,280,0,258,160,-260,114.46620917320251,114.46628379821777,114.46916007995605,114.48104310035706,114.61754488945007,114.61754488945007,114.61754488945007,114.61754488945007,114.61754488945007,114.61754488945007,114.61754488945007,116.93379592895508,2,2.4368531703948975,None,,,,,,,,,,,,,,,,,,223,2,2025-03-10_11h05.53.080,comp,2024.2.4,54.21946562665223,2025-03-10 11h06.01.514059 -0400,
17,17,0,critical,dwh,35.0,3.0,lower,70.0,70.0,57.0,133.0,133.0,57.0,3,1.6083259582519531,None,,,,,0,0,0,0,0,17,17,62,116.95022988319397,,,,,,,,,,,,,,,,,,,,,,,,,,,,,,,,,,,,,,,,,,,,,,,,,,,,,,,,,,,,,,,,,,,,,,,,,,,,,,,,,70.0,70.0,57.0,133.0,133.0,57.0,3.0,3.2,-198,-289,0,15,191,289,116.93544626235962,116.93555569648743,116.93895626068115,116.95022988319397,117.10655164718628,117.10655164718628,117.10655164718628,117.10655164718628,117.10655164718628,117.10655164718628,117.10655164718628,118.56728148460388,3,1.6083259582519531,None,,,,,,,,,,,,,,,,,,223,2,2025-03-10_11h05.53.080,comp,2024.2.4,54.21946562665223,2025-03-10 11h06.01.514059 -0400,
18,18,0,filler_square,None,None,None,None,None,None,None,None,None,None,2,1.3393397331237793,None,,,,,0,0,0,0,0,18,18,206,118.58646631240845,,,,,,,,,,,,,,,,,,,,,,,,,,,,,,,,,,,,,,,,,,,,,,,,,,,,,,,,,,,,,,,,,,,,,,,,,,,,,,,,,129.88686241086367,59.71699578279305,191.81828067698245,191.81828067698245,111.82207396212863,69.33024994661999,4.0,4.2,-222,16,0,-269,227,9,118.56927490234375,118.56935501098633,118.57285499572754,118.58646631240845,118.73642826080322,118.73642826080322,118.73642826080322,118.73642826080322,118.73642826080322,118.73642826080322,118.73642826080322,119.93589878082275,2,1.3393397331237793,None,,,,,,,,,,,,,,,,,,223,2,2025-03-10_11h05.53.080,comp,2024.2.4,54.21946562665223,2025-03-10 11h06.01.514059 -0400,
19,19,0,critical,whd,35.0,3.0,upper,125.0,200.0,200.0,125.0,127.0,127.0,2,2.2230117321014404,None,,,,,0,0,0,0,0,19,19,87,119.95267868041992,,,,,,,,,,,,,,,,,,,,,,,,,,,,,,,,,,,,,,,,,,,,,,,,,,,,,,,,,,,,,,,,,,,,,,,,,,,,,,,,,125.0,200.0,200.0,125.0,127.0,127.0,3.0,3.2,-258,-271,0,-6,222,261,119.93760538101196,119.9377088546753,119.94191241264343,119.95267868041992,120.10546088218689,120.10546088218689,120.10546088218689,120.10546088218689,120.10546088218689,120.10546088218689,120.10546088218689,122.18718194961548,2,2.2230117321014404,None,,,,,,,,,,,,,,,,,,223,2,2025-03-10_11h05.53.080,comp,2024.2.4,54.21946562665223,2025-03-10 11h06.01.514059 -0400,
20,20,0,filler_random,None,None,None,None,None,None,None,None,None,None,1,1.171431303024292,None,,,,,0,0,0,0,0,20,20,152,122.20307636260986,,,,,,,,,,,,,,,,,,,,,,,,,,,,,,,,,,,,,,,,,,,,,,,,,,,,,,,,,,,,,,,,,,,,,,,,,,,,,,,,,178.73934214632092,159.19740171853806,196.22342688750786,89.84488488467377,65.43454043679071,167.72574070681083,3.0,3.2,-221,-282,0,-5,225,279,122.18899750709534,122.18914198875427,122.19231915473938,122.20307636260986,122.35004425048828,122.35004425048828,122.35004425048828,122.35004425048828,122.35004425048828,122.35004425048828,122.35004425048828,123.38624429702759,1,1.171431303024292,None,,,,,,,,,,,,,,,,,,223,2,2025-03-10_11h05.53.080,comp,2024.2.4,54.21946562665223,2025-03-10 11h06.01.514059 -0400,
21,21,0,critical,dwh,35.0,3.0,upper,127.0,127.0,125.0,200.0,200.0,125.0,3,1.4200778007507324,None,,,,,0,0,0,0,0,21,21,63,123.40176057815552,,,,,,,,,,,,,,,,,,,,,,,,,,,,,,,,,,,,,,,,,,,,,,,,,,,,,,,,,,,,,,,,,,,,,,,,,,,,,,,,,127.0,127.0,125.0,200.0,200.0,125.0,3.0,3.1,-260,261,0,16,258,-261,123.38791060447693,123.38799166679382,123.39176893234253,123.40176057815552,123.55183386802673,123.55183386802673,123.55183386802673,123.55183386802673,123.55183386802673,123.55183386802673,123.55183386802673,124.82410454750061,3,1.4200778007507324,None,,,,,,,,,,,,,,,,,,223,2,2025-03-10_11h05.53.080,comp,2024.2.4,54.21946562665223,2025-03-10 11h06.01.514059 -0400,
22,22,0,filler_square,None,None,None,None,None,None,None,None,None,None,2,0.9495067596435547,None,,,,,0,0,0,0,0,22,22,207,124.84074974060059,,,,,,,,,,,,,,,,,,,,,,,,,,,,,,,,,,,,,,,,,,,,,,,,,,,,,,,,,,,,,,,,,,,,,,,,,,,,,,,,,118.54338130900553,145.21507172552663,197.8289420680898,197.8289420680898,106.28772841847743,190.69211471846413,2.2,2.21,-268,-286,0,286,290,268,124.82591199874878,124.8259928226471,124.829909324646,124.84074974060059,124.98615050315857,124.98615050315857,124.98615050315857,124.98615050315857,124.98615050315857,124.98615050315857,124.98615050315857,125.79276514053345,2,0.9495067596435547,None,,,,,,,,,,,,,,,,,,223,2,2025-03-10_11h05.53.080,comp,2024.2.4,54.21946562665223,2025-03-10 11h06.01.514059 -0400,
23,23,0,critical,wdh,35.0,2.1,upper,125.0,200.0,127.0,127.0,200.0,125.0,1,3.276897668838501,None,,,,,0,0,0,0,0,23,23,9,125.80892062187195,,,,,,,,,,,,,,,,,,,,,,,,,,,,,,,,,,,,,,,,,,,,,,,,,,,,,,,,,,,,,,,,,,,,,,,,,,,,,,,,,125.0,200.0,127.0,127.0,200.0,125.0,2.1,2.11,-260,263,0,282,222,-272,125.79443693161011,125.79456329345703,125.79793167114258,125.80892062187195,125.95742678642273,125.95742678642273,125.95742678642273,125.95742678642273,125.95742678642273,125.95742678642273,125.95742678642273,129.10425662994385,1,3.276897668838501,None,,,,,,,,,,,,,,,,,,223,2,2025-03-10_11h05.53.080,comp,2024.2.4,54.21946562665223,2025-03-10 11h06.01.514059 -0400,
24,24,0,critical,dhw,35.0,4.0,upper,127.0,127.0,200.0,125.0,125.0,200.0,3,1.3447222709655762,None,,,,,0,0,0,0,0,24,24,53,129.1198489665985,,,,,,,,,,,,,,,,,,,,,,,,,,,,,,,,,,,,,,,,,,,,,,,,,,,,,,,,,,,,,,,,,,,,,,,,,,,,,,,,,127.0,127.0,200.0,125.0,125.0,200.0,4.0,4.2,-222,11,0,-256,258,-16,129.10570788383484,129.1057813167572,129.1089587211609,129.1198489665985,129.27626371383667,129.27626371383667,129.27626371383667,129.27626371383667,129.27626371383667,129.27626371383667,129.27626371383667,130.4730966091156,3,1.3447222709655762,None,,,,,,,,,,,,,,,,,,223,2,2025-03-10_11h05.53.080,comp,2024.2.4,54.21946562665223,2025-03-10 11h06.01.514059 -0400,
25,25,0,critical,wdh,20.0,3.0,lower,57.0,133.0,78.0,78.0,133.0,57.0,1,1.3394625186920166,None,,,,,0,0,0,0,0,25,25,80,130.4914107322693,,,,,,,,,,,,,,,,,,,,,,,,,,,,,,,,,,,,,,,,,,,,,,,,,,,,,,,,,,,,,,,,,,,,,,,,,,,,,,,,,57.0,133.0,78.0,78.0,133.0,57.0,3.0,3.2,-202,-268,0,-13,164,256,130.47476029396057,130.47489023208618,130.4779052734375,130.4914107322693,130.63732314109802,130.63732314109802,130.63732314109802,130.63732314109802,130.63732314109802,130.63732314109802,130.63732314109802,131.83807015419006,1,1.3394625186920166,None,,,,,,,,,,,,,,,,,,223,2,2025-03-10_11h05.53.080,comp,2024.2.4,54.21946562665223,2025-03-10 11h06.01.514059 -0400,
26,26,0,filler_square,None,None,None,None,None,None,None,None,None,None,1,2.6868951320648193,None,,,,,0,0,0,0,0,26,26,209,131.8548936843872,,,,,,,,,,,,,,,,,,,,,,,,,,,,,,,,,,,,,,,,,,,,,,,,,,,,,,,,,,,,,,,,,,,,,,,,,,,,,,,,,93.86427941856051,93.86427941856051,58.230979931681205,93.08369526952029,63.36826125344583,92.4333319985977,2.2,2.21,-189,-268,0,253,189,278,131.8398516178131,131.83993196487427,131.8430151939392,131.8548936843872,132.00555562973022,132.00555562973022,132.00555562973022,132.00555562973022,132.00555562973022,132.00555562973022,132.00555562973022,134.54425597190857,1,2.6868951320648193,None,,,,,,,,,,,,,,,,,,223,2,2025-03-10_11h05.53.080,comp,2024.2.4,54.21946562665223,2025-03-10 11h06.01.514059 -0400,
27,27,0,critical,hdw,20.0,2.1,lower,133.0,57.0,78.0,78.0,57.0,133.0,2,3.1429216861724854,None,,,,,0,0,0,0,0,27,27,22,134.56013131141663,,,,,,,,,,,,,,,,,,,,,,,,,,,,,,,,,,,,,,,,,,,,,,,,,,,,,,,,,,,,,,,,,,,,,,,,,,,,,,,,,133.0,57.0,78.0,78.0,57.0,133.0,2.1,2.11,-164,269,0,255,202,-285,134.5457580089569,134.5458381175995,134.5492067337036,134.56013131141663,134.70555710792542,134.70555710792542,134.70555710792542,134.70555710792542,134.70555710792542,134.70555710792542,134.70555710792542,137.710054397583,2,3.1429216861724854,None,,,,,,,,,,,,,,,,,,223,2,2025-03-10_11h05.53.080,comp,2024.2.4,54.21946562665223,2025-03-10 11h06.01.514059 -0400,
28,28,0,catch,None,None,None,None,None,None,None,None,None,None,3,1.1187465190887451,None,,,,,0,0,0,0,0,28,28,121,137.72736740112305,,,,,,,,,,,,,,,,,,,,,,,,,,,,,,,,,,,,,,,,,,,,,,,,,,,,,,,,,,,,,,,,,,,,,,,,,,,,,,,,,63,127,97,93,141,184,3.0,3.2,-206,-285,0,-11,234,254,137.71231508255005,137.71239709854126,137.7162582874298,137.72736740112305,137.87308478355408,137.87308478355408,137.87308478355408,137.87308478355408,137.87308478355408,137.87308478355408,137.87308478355408,138.86220240592957,3,1.1187465190887451,None,,,,,,,,,,,,,,,,,,223,2,2025-03-10_11h05.53.080,comp,2024.2.4,54.21946562665223,2025-03-10 11h06.01.514059 -0400,
29,29,0,critical,hdw,20.0,4.0,upper,200.0,125.0,141.0,141.0,125.0,200.0,1,1.2565994262695312,None,,,,,0,0,0,0,0,29,29,119,138.87773203849792,,,,,,,,,,,,,,,,,,,,,,,,,,,,,,,,,,,,,,,,,,,,,,,,,,,,,,,,,,,,,,,,,,,,,,,,,,,,,,,,,200.0,125.0,141.0,141.0,125.0,200.0,4.0,4.2,-229,-8,0,-279,266,6,138.86381244659424,138.86389350891113,138.86727809906006,138.87773203849792,139.02435874938965,139.02435874938965,139.02435874938965,139.02435874938965,139.02435874938965,139.02435874938965,139.02435874938965,140.14263153076172,1,1.2565994262695312,None,,,,,,,,,,,,,,,,,,223,2,2025-03-10_11h05.53.080,comp,2024.2.4,54.21946562665223,2025-03-10 11h06.01.514059 -0400,
30,30,0,filler_square,None,None,None,None,None,None,None,None,None,None,1,1.238511085510254,None,,,,,0,0,0,0,0,30,30,183,140.15937185287476,,,,,,,,,,,,,,,,,,,,,,,,,,,,,,,,,,,,,,,,,,,,,,,,,,,,,,,,,,,,,,,,,,,,,,,,,,,,,,,,,140.18254137180315,140.18254137180315,109.51638065495425,94.08759013430395,131.5773303919717,105.51891369230313,1.0,1.3,267,-252,480,-286,676,-283,140.14480900764465,140.14489769935608,140.14857149124146,140.15937185287476,140.30688619613647,140.30688619613647,140.30688619613647,140.30688619613647,140.30688619613647,140.30688619613647,140.30688619613647,141.4075894355774,1,1.238511085510254,None,,,,,,,,,,,,,,,,,,223,2,2025-03-10_11h05.53.080,comp,2024.2.4,54.21946562665223,2025-03-10 11h06.01.514059 -0400,
31,31,0,filler_square,None,None,None,None,None,None,None,None,None,None,3,0.9819164276123047,None,,,,,0,0,0,0,0,31,31,174,141.42409539222717,,,,,,,,,,,,,,,,,,,,,,,,,,,,,,,,,,,,,,,,,,,,,,,,,,,,,,,,,,,,,,,,,,,,,,,,,,,,,,,,,68.73008632634107,59.764442271562245,62.04952414005354,80.37881371191284,161.115598182317,161.115598182317,1.0,1.2,-166,-19,0,-2,217,8,141.4093358516693,141.40941500663757,141.412526845932,141.42409539222717,141.57386827468872,141.57386827468872,141.57386827468872,141.57386827468872,141.57386827468872,141.57386827468872,141.57386827468872,142.40961909294128,3,0.9819164276123047,None,,,,,,,,,,,,,,,,,,223,2,2025-03-10_11h05.53.080,comp,2024.2.4,54.21946562665223,2025-03-10 11h06.01.514059 -0400,
32,32,0,filler_square,None,None,None,None,None,None,None,None,None,None,1,1.1554267406463623,None,,,,,0,0,0,0,0,32,32,184,142.42640948295593,,,,,,,,,,,,,,,,,,,,,,,,,,,,,,,,,,,,,,,,,,,,,,,,,,,,,,,,,,,,,,,,,,,,,,,,,,,,,,,,,94.7637541809814,94.7637541809814,60.97565363091351,86.26166046885157,71.39546817618586,66.93280905503298,1.0,1.3,293,-253,480,-262,653,-273,142.41169714927673,142.4118046760559,142.41561484336853,142.42640948295593,142.56673574447632,142.56673574447632,142.56673574447632,142.56673574447632,142.56673574447632,142.56673574447632,142.56673574447632,143.59373927116394,1,1.1554267406463623,None,,,,,,,,,,,,,,,,,,223,2,2025-03-10_11h05.53.080,comp,2024.2.4,54.21946562665223,2025-03-10 11h06.01.514059 -0400,
33,33,0,filler_random,None,None,None,None,None,None,None,None,None,None,3,1.0115079879760742,None,,,,,0,0,0,0,0,33,33,157,143.61096811294556,,,,,,,,,,,,,,,,,,,,,,,,,,,,,,,,,,,,,,,,,,,,,,,,,,,,,,,,,,,,,,,,,,,,,,,,,,,,,,,,,105.12025002050675,137.7415796162963,60.71014891163389,178.16824542064455,178.5912651662499,100.9063762158774,1.0,1.2,-254,19,0,-9,236,10,143.59561777114868,143.5957486629486,143.59910798072815,143.61096811294556,143.75866985321045,143.75866985321045,143.75866985321045,143.75866985321045,143.75866985321045,143.75866985321045,143.75866985321045,144.62536191940308,3,1.0115079879760742,None,,,,,,,,,,,,,,,,,,223,2,2025-03-10_11h05.53.080,comp,2024.2.4,54.21946562665223,2025-03-10 11h06.01.514059 -0400,
34,34,0,filler_random,None,None,None,None,None,None,None,None,None,None,1,1.0171465873718262,None,,,,,0,0,0,0,0,34,34,130,144.6448037624359,,,,,,,,,,,,,,,,,,,,,,,,,,,,,,,,,,,,,,,,,,,,,,,,,,,,,,,,,,,,,,,,,,,,,,,,,,,,,,,,,74.40402124369356,192.56166578554448,113.73723254787619,59.46817608636966,185.86142906737066,112.59327645427771,2.2,2.22,-222,279,0,-256,182,-276,144.62720942497253,144.62728571891785,144.6305775642395,144.6448037624359,144.79320764541626,144.79320764541626,144.79320764541626,144.79320764541626,144.79320764541626,144.79320764541626,144.79320764541626,145.67869997024536,1,1.0171465873718262,None,,,,,,,,,,,,,,,,,,223,2,2025-03-10_11h05.53.080,comp,2024.2.4,54.21946562665223,2025-03-10 11h06.01.514059 -0400,
35,35,0,critical,dwh,35.0,4.0,lower,70.0,70.0,57.0,133.0,133.0,57.0,3,1.3754231929779053,None,,,,,0,0,0,0,0,35,35,64,145.6950125694275,,,,,,,,,,,,,,,,,,,,,,,,,,,,,,,,,,,,,,,,,,,,,,,,,,,,,,,,,,,,,,,,,,,,,,,,,,,,,,,,,70.0,70.0,57.0,133.0,133.0,57.0,4.0,4.2,-198,4,0,-283,191,-18,145.68035674095154,145.68045473098755,145.68388152122498,145.6950125694275,145.84409070014954,145.84409070014954,145.84409070014954,145.84409070014954,145.84409070014954,145.84409070014954,145.84409070014954,147.07566905021667,3,1.3754231929779053,None,,,,,,,,,,,,,,,,,,223,2,2025-03-10_11h05.53.080,comp,2024.2.4,54.21946562665223,2025-03-10 11h06.01.514059 -0400,
36,36,0,filler_random,None,None,None,None,None,None,None,None,None,None,2,0.8889744281768799,None,,,,,0,0,0,0,0,36,36,134,147.0928089618683,,,,,,,,,,,,,,,,,,,,,,,,,,,,,,,,,,,,,,,,,,,,,,,,,,,,,,,,,,,,,,,,,,,,,,,,,,,,,,,,,104.61467782388911,100.0774709265692,100.63019571455644,167.44191635483628,142.81131162184914,168.47724626884548,4.0,4.1,-230,-275,0,7,264,-282,147.07754755020142,147.07766342163086,147.0810706615448,147.0928089618683,147.2336070537567,147.2336070537567,147.2336070537567,147.2336070537567,147.2336070537567,147.2336070537567,147.2336070537567,147.99666452407837,2,0.8889744281768799,None,,,,,,,,,,,,,,,,,,223,2,2025-03-10_11h05.53.080,comp,2024.2.4,54.21946562665223,2025-03-10 11h06.01.514059 -0400,
37,37,0,catch,None,None,None,None,None,None,None,None,None,None,1,0.9295687675476074,None,,,,,0,0,0,0,0,37,37,126,148.01244521141052,,,,,,,,,,,,,,,,,,,,,,,,,,,,,,,,,,,,,,,,,,,,,,,,,,,,,,,,,,,,,,,,,,,,,,,,,,,,,,,,,196,129,125,65,120,70,2.2,2.22,-193,283,0,-258,164,-273,147.99877214431763,147.99885773658752,148.00215673446655,148.01244521141052,148.16056489944458,148.16056489944458,148.16056489944458,148.16056489944458,148.16056489944458,148.16056489944458,148.16056489944458,148.94451379776,1,0.9295687675476074,None,,,,,,,,,,,,,,,,,,223,2,2025-03-10_11h05.53.080,comp,2024.2.4,54.21946562665223,2025-03-10 11h06.01.514059 -0400,
38,38,0,critical,hwd,20.0,2.1,lower,133.0,57.0,57.0,133.0,78.0,78.0,2,1.789443016052246,None,,,,,0,0,0,0,0,38,38,42,148.9609351158142,,,,,,,,,,,,,,,,,,,,,,,,,,,,,,,,,,,,,,,,,,,,,,,,,,,,,,,,,,,,,,,,,,,,,,,,,,,,,,,,,133.0,57.0,57.0,133.0,78.0,78.0,2.1,2.11,-191,257,0,288,202,-280,148.9459822177887,148.94608640670776,148.95021510124207,148.9609351158142,149.11137342453003,149.11137342453003,149.11137342453003,149.11137342453003,149.11137342453003,149.11137342453003,149.11137342453003,150.7526183128357,2,1.789443016052246,None,,,,,,,,,,,,,,,,,,223,2,2025-03-10_11h05.53.080,comp,2024.2.4,54.21946562665223,2025-03-10 11h06.01.514059 -0400,
39,39,0,critical,dhw,20.0,2.1,upper,141.0,141.0,200.0,125.0,125.0,200.0,2,2.698462724685669,None,,,,,0,0,0,0,0,39,39,3,150.772234916687,,,,,,,,,,,,,,,,,,,,,,,,,,,,,,,,,,,,,,,,,,,,,,,,,,,,,,,,,,,,,,,,,,,,,,,,,,,,,,,,,141.0,141.0,200.0,125.0,125.0,200.0,2.1,2.11,-229,271,0,265,258,-273,150.75415873527527,150.75423789024353,150.75718927383423,150.772234916687,150.91211771965027,150.91211771965027,150.91211771965027,150.91211771965027,150.91211771965027,150.91211771965027,150.91211771965027,153.4799177646637,2,2.698462724685669,None,,,,,,,,,,,,,,,,,,223,2,2025-03-10_11h05.53.080,comp,2024.2.4,54.21946562665223,2025-03-10 11h06.01.514059 -0400,
40,40,0,critical,dwh,35.0,1.0,lower,70.0,70.0,57.0,133.0,133.0,57.0,2,3.68910551071167,None,,,,,0,0,0,0,0,40,40,60,153.50139212608337,,,,,,,,,,,,,,,,,,,,,,,,,,,,,,,,,,,,,,,,,,,,,,,,,,,,,,,,,,,,,,,,,,,,,,,,,,,,,,,,,70.0,70.0,57.0,133.0,133.0,57.0,1.0,1.1,-678,255,-480,267,-289,264,153.48163199424744,153.48170828819275,153.48519206047058,153.50139212608337,153.6494791507721,153.6494791507721,153.6494791507721,153.6494791507721,153.6494791507721,153.6494791507721,153.6494791507721,157.19798350334167,2,3.68910551071167,None,,,,,,,,,,,,,,,,,,223,2,2025-03-10_11h05.53.080,comp,2024.2.4,54.21946562665223,2025-03-10 11h06.01.514059 -0400,
41,41,0,filler_square,None,None,None,None,None,None,None,None,None,None,1,1.2710692882537842,None,,,,,0,0,0,0,0,41,41,181,157.2147707939148,,,,,,,,,,,,,,,,,,,,,,,,,,,,,,,,,,,,,,,,,,,,,,,,,,,,,,,,,,,,,,,,,,,,,,,,,,,,,,,,,156.0726300902055,156.0726300902055,105.98395105327224,94.8757425145858,152.16183280375276,91.25933630098477,2.1,2.12,-221,-283,0,-274,189,257,157.2001211643219,157.200204372406,157.20380568504333,157.2147707939148,157.36571598052979,157.36571598052979,157.36571598052979,157.36571598052979,157.36571598052979,157.36571598052979,157.36571598052979,158.49547815322876,1,1.2710692882537842,None,,,,,,,,,,,,,,,,,,223,2,2025-03-10_11h05.53.080,comp,2024.2.4,54.21946562665223,2025-03-10 11h06.01.514059 -0400,
42,42,0,critical,hwd,20.0,2.1,upper,200.0,125.0,125.0,200.0,141.0,141.0,3,1.885286808013916,None,,,,,0,0,0,0,0,42,42,19,158.51262140274048,,,,,,,,,,,,,,,,,,,,,,,,,,,,,,,,,,,,,,,,,,,,,,,,,,,,,,,,,,,,,,,,,,,,,,,,,,,,,,,,,200.0,125.0,125.0,200.0,141.0,141.0,2.1,2.12,-258,-274,0,-265,266,252,158.49710416793823,158.497225522995,158.5006332397461,158.51262140274048,158.66219234466553,158.66219234466553,158.66219234466553,158.66219234466553,158.66219234466553,158.66219234466553,158.66219234466553,160.40195631980896,3,1.885286808013916,None,,,,,,,,,,,,,,,,,,223,2,2025-03-10_11h05.53.080,comp,2024.2.4,54.21946562665223,2025-03-10 11h06.01.514059 -0400,
43,43,0,critical,wdh,20.0,2.1,lower,57.0,133.0,78.0,78.0,133.0,57.0,1,1.2976889610290527,None,,,,,0,0,0,0,0,43,43,10,160.42012810707092,,,,,,,,,,,,,,,,,,,,,,,,,,,,,,,,,,,,,,,,,,,,,,,,,,,,,,,,,,,,,,,,,,,,,,,,,,,,,,,,,57.0,133.0,78.0,78.0,133.0,57.0,2.1,2.11,-202,255,0,259,164,-280,160.40374326705933,160.40388011932373,160.4071786403656,160.42012810707092,160.5649425983429,160.5649425983429,160.5649425983429,160.5649425983429,160.5649425983429,160.5649425983429,160.5649425983429,161.7315263748169,1,1.2976889610290527,None,,,,,,,,,,,,,,,,,,223,2,2025-03-10_11h05.53.080,comp,2024.2.4,54.21946562665223,2025-03-10 11h06.01.514059 -0400,
44,44,0,filler_random,None,None,None,None,None,None,None,None,None,None,2,1.2911641597747803,None,,,,,0,0,0,0,0,44,44,156,161.74752712249756,,,,,,,,,,,,,,,,,,,,,,,,,,,,,,,,,,,,,,,,,,,,,,,,,,,,,,,,,,,,,,,,,,,,,,,,,,,,,,,,,102.31963331744433,126.52219142638681,167.67681322747984,107.87780074141679,140.46720125343367,103.47563785000435,1.0,1.1,-693,273,-480,261,-278,272,161.73333954811096,161.73347163200378,161.73694491386414,161.74752712249756,161.90332198143005,161.90332198143005,161.90332198143005,161.90332198143005,161.90332198143005,161.90332198143005,161.90332198143005,163.04906630516052,2,1.2911641597747803,None,,,,,,,,,,,,,,,,,,223,2,2025-03-10_11h05.53.080,comp,2024.2.4,54.21946562665223,2025-03-10 11h06.01.514059 -0400,
45,45,0,critical,wdh,35.0,1.0,lower,57.0,133.0,70.0,70.0,133.0,57.0,3,2.116912841796875,None,,,,,0,0,0,0,0,45,45,72,163.06482434272766,,,,,,,,,,,,,,,,,,,,,,,,,,,,,,,,,,,,,,,,,,,,,,,,,,,,,,,,,,,,,,,,,,,,,,,,,,,,,,,,,57.0,133.0,70.0,70.0,133.0,57.0,1.0,1.3,282,-264,480,-286,640,-251,163.05058073997498,163.05065822601318,163.05403566360474,163.06482434272766,163.21432328224182,163.21432328224182,163.21432328224182,163.21432328224182,163.21432328224182,163.21432328224182,163.21432328224182,165.20017433166504,3,2.116912841796875,None,,,,,,,,,,,,,,,,,,223,2,2025-03-10_11h05.53.080,comp,2024.2.4,54.21946562665223,2025-03-10 11h06.01.514059 -0400,
46,46,0,critical,whd,35.0,2.1,upper,125.0,200.0,200.0,125.0,127.0,127.0,2,1.020508050918579,None,,,,,0,0,0,0,0,46,46,13,165.21890997886658,,,,,,,,,,,,,,,,,,,,,,,,,,,,,,,,,,,,,,,,,,,,,,,,,,,,,,,,,,,,,,,,,,,,,,,,,,,,,,,,,125.0,200.0,200.0,125.0,127.0,127.0,2.1,2.11,-258,287,0,256,222,-251,165.20168471336365,165.2017583847046,165.20526432991028,165.21890997886658,165.36643147468567,165.36643147468567,165.36643147468567,165.36643147468567,165.36643147468567,165.36643147468567,165.36643147468567,166.25083780288696,2,1.020508050918579,None,,,,,,,,,,,,,,,,,,223,2,2025-03-10_11h05.53.080,comp,2024.2.4,54.21946562665223,2025-03-10 11h06.01.514059 -0400,
47,47,0,catch,None,None,None,None,None,None,None,None,None,None,3,1.0763819217681885,None,,,,,0,0,0,0,0,47,47,125,166.266695022583,,,,,,,,,,,,,,,,,,,,,,,,,,,,,,,,,,,,,,,,,,,,,,,,,,,,,,,,,,,,,,,,,,,,,,,,,,,,,,,,,116,74,99,91,199,126,2.2,2.22,-178,288,0,-253,204,-263,166.2527277469635,166.25280737876892,166.25596809387207,166.266695022583,166.41625213623047,166.41625213623047,166.41625213623047,166.41625213623047,166.41625213623047,166.41625213623047,166.41625213623047,167.35148930549622,3,1.0763819217681885,None,,,,,,,,,,,,,,,,,,223,2,2025-03-10_11h05.53.080,comp,2024.2.4,54.21946562665223,2025-03-10 11h06.01.514059 -0400,
48,48,0,critical,dhw,20.0,3.0,upper,141.0,141.0,200.0,125.0,125.0,200.0,3,1.2463006973266602,None,,,,,0,0,0,0,0,48,48,57,167.36745882034302,,,,,,,,,,,,,,,,,,,,,,,,,,,,,,,,,,,,,,,,,,,,,,,,,,,,,,,,,,,,,,,,,,,,,,,,,,,,,,,,,141.0,141.0,200.0,125.0,125.0,200.0,3.0,3.1,-229,270,0,-20,258,-266,167.35304403305054,167.35313320159912,167.35661220550537,167.36745882034302,167.514057636261,167.514057636261,167.514057636261,167.514057636261,167.514057636261,167.514057636261,167.514057636261,168.6171431541443,3,1.2463006973266602,None,,,,,,,,,,,,,,,,,,223,2,2025-03-10_11h05.53.080,comp,2024.2.4,54.21946562665223,2025-03-10 11h06.01.514059 -0400,
49,49,0,critical,hwd,35.0,2.1,lower,133.0,57.0,57.0,133.0,70.0,70.0,1,1.3486742973327637,None,,,,,0,0,0,0,0,49,49,16,168.63309383392334,,,,,,,,,,,,,,,,,,,,,,,,,,,,,,,,,,,,,,,,,,,,,,,,,,,,,,,,,,,,,,,,,,,,,,,,,,,,,,,,,133.0,57.0,57.0,133.0,70.0,70.0,2.1,2.12,-191,-283,0,-257,198,284,168.61867690086365,168.618754863739,168.62221217155457,168.63309383392334,168.78377771377563,168.78377771377563,168.78377771377563,168.78377771377563,168.78377771377563,168.78377771377563,168.78377771377563,169.9841754436493,1,1.3486742973327637,None,,,,,,,,,,,,,,,,,,223,2,2025-03-10_11h05.53.080,comp,2024.2.4,54.21946562665223,2025-03-10 11h06.01.514059 -0400,
50,50,0,filler_square,None,None,None,None,None,None,None,None,None,None,1,1.1892902851104736,None,,,,,0,0,0,0,0,50,50,198,170.0005259513855,,,,,,,,,,,,,,,,,,,,,,,,,,,,,,,,,,,,,,,,,,,,,,,,,,,,,,,,,,,,,,,,,,,,,,,,,,,,,,,,,115.35552271191204,115.35552271191204,88.02562365687108,86.39929764972725,68.24721735474478,101.16337060185006,3.0,3.2,-197,-286,0,-11,190,289,169.98613786697388,169.986230134964,169.98980379104614,170.0005259513855,170.1518726348877,170.1518726348877,170.1518726348877,170.1518726348877,170.1518726348877,170.1518726348877,170.1518726348877,171.2057945728302,1,1.1892902851104736,None,,,,,,,,,,,,,,,,,,223,2,2025-03-10_11h05.53.080,comp,2024.2.4,54.21946562665223,2025-03-10 11h06.01.514059 -0400,
51,51,0,critical,whd,20.0,4.0,upper,125.0,200.0,200.0,125.0,141.0,141.0,2,1.1529896259307861,None,,,,,0,0,0,0,0,51,51,95,171.22189164161682,,,,,,,,,,,,,,,,,,,,,,,,,,,,,,,,,,,,,,,,,,,,,,,,,,,,,,,,,,,,,,,,,,,,,,,,,,,,,,,,,125.0,200.0,200.0,125.0,141.0,141.0,4.0,4.2,-258,15,0,-284,229,-17,171.20728993415833,171.207368850708,171.21030497550964,171.22189164161682,171.36753869056702,171.36753869056702,171.36753869056702,171.36753869056702,171.36753869056702,171.36753869056702,171.36753869056702,172.38629364967346,2,1.1529896259307861,None,,,,,,,,,,,,,,,,,,223,2,2025-03-10_11h05.53.080,comp,2024.2.4,54.21946562665223,2025-03-10 11h06.01.514059 -0400,
52,52,0,filler_random,None,None,None,None,None,None,None,None,None,None,1,1.2350881099700928,None,,,,,0,0,0,0,0,52,52,135,172.4027121067047,,,,,,,,,,,,,,,,,,,,,,,,,,,,,,,,,,,,,,,,,,,,,,,,,,,,,,,,,,,,,,,,,,,,,,,,,,,,,,,,,195.91497883867055,158.06037756982636,180.4833554256902,74.73081554633653,131.9324717817158,125.5474835633916,2.2,2.21,-212,-262,0,258,196,261,172.38818264007568,172.38830637931824,172.39194750785828,172.4027121067047,172.5525209903717,172.5525209903717,172.5525209903717,172.5525209903717,172.5525209903717,172.5525209903717,172.5525209903717,173.65138220787048,1,1.2350881099700928,None,,,,,,,,,,,,,,,,,,223,2,2025-03-10_11h05.53.080,comp,2024.2.4,54.21946562665223,2025-03-10 11h06.01.514059 -0400,
53,53,0,filler_random,None,None,None,None,None,None,None,None,None,None,3,1.7146937847137451,None,,,,,0,0,0,0,0,53,53,169,173.66729283332825,,,,,,,,,,,,,,,,,,,,,,,,,,,,,,,,,,,,,,,,,,,,,,,,,,,,,,,,,,,,,,,,,,,,,,,,,,,,,,,,,71.87075998406885,64.6087290397479,144.39888636762404,68.78698547602579,78.56365881371755,109.94433293938272,3.0,3.1,-163,282,0,5,185,-273,173.65300750732422,173.6531045436859,173.65619087219238,173.66729283332825,173.82027220726013,173.82027220726013,173.82027220726013,173.82027220726013,173.82027220726013,173.82027220726013,173.82027220726013,175.38622546195984,3,1.7146937847137451,None,,,,,,,,,,,,,,,,,,223,2,2025-03-10_11h05.53.080,comp,2024.2.4,54.21946562665223,2025-03-10 11h06.01.514059 -0400,
54,54,0,critical,hwd,35.0,1.0,upper,200.0,125.0,125.0,200.0,127.0,127.0,2,1.4279942512512207,None,,,,,0,0,0,0,0,54,54,97,175.40247106552124,,,,,,,,,,,,,,,,,,,,,,,,,,,,,,,,,,,,,,,,,,,,,,,,,,,,,,,,,,,,,,,,,,,,,,,,,,,,,,,,,200.0,125.0,125.0,200.0,127.0,127.0,1.0,1.1,-738,251,-480,284,-220,269,175.3878035545349,175.387877702713,175.3912181854248,175.40247106552124,175.54889512062073,175.54889512062073,175.54889512062073,175.54889512062073,175.54889512062073,175.54889512062073,175.54889512062073,176.8379406929016,2,1.4279942512512207,None,,,,,,,,,,,,,,,,,,223,2,2025-03-10_11h05.53.080,comp,2024.2.4,54.21946562665223,2025-03-10 11h06.01.514059 -0400,
55,55,0,filler_square,None,None,None,None,None,None,None,None,None,None,2,1.2309644222259521,None,,,,,0,0,0,0,0,55,55,175,176.8555998802185,,,,,,,,,,,,,,,,,,,,,,,,,,,,,,,,,,,,,,,,,,,,,,,,,,,,,,,,,,,,,,,,,,,,,,,,,,,,,,,,,118.2907904691759,114.99968725282368,118.3087623329198,118.3087623329198,86.04096830935268,71.1402092338669,1.0,1.2,-213,-14,0,7,191,17,176.84013628959656,176.8402190208435,176.84383130073547,176.8555998802185,177.0028064250946,177.0028064250946,177.0028064250946,177.0028064250946,177.0028064250946,177.0028064250946,177.0028064250946,178.0934202671051,2,1.2309644222259521,None,,,,,,,,,,,,,,,,,,223,2,2025-03-10_11h05.53.080,comp,2024.2.4,54.21946562665223,2025-03-10 11h06.01.514059 -0400,
56,56,0,critical,dhw,35.0,3.0,lower,70.0,70.0,133.0,57.0,57.0,133.0,3,1.281256914138794,None,,,,,0,0,0,0,0,56,56,50,178.10865187644958,,,,,,,,,,,,,,,,,,,,,,,,,,,,,,,,,,,,,,,,,,,,,,,,,,,,,,,,,,,,,,,,,,,,,,,,,,,,,,,,,70.0,70.0,133.0,57.0,57.0,133.0,3.0,3.1,-160,289,0,-1,191,-281,178.09496974945068,178.09507083892822,178.09796619415283,178.10865187644958,178.25189328193665,178.25189328193665,178.25189328193665,178.25189328193665,178.25189328193665,178.25189328193665,178.25189328193665,179.40320372581482,3,1.281256914138794,None,,,,,,,,,,,,,,,,,,223,2,2025-03-10_11h05.53.080,comp,2024.2.4,54.21946562665223,2025-03-10 11h06.01.514059 -0400,
57,57,0,filler_random,None,None,None,None,None,None,None,None,None,None,1,0.8866279125213623,None,,,,,0,0,0,0,0,57,57,148,179.4232861995697,,,,,,,,,,,,,,,,,,,,,,,,,,,,,,,,,,,,,,,,,,,,,,,,,,,,,,,,,,,,,,,,,,,,,,,,,,,,,,,,,103.34479409364377,193.83585188376432,87.71588123936561,141.53549467287507,160.2810547970099,99.08430075962373,2.1,2.11,-264,271,0,268,216,-253,179.40489172935486,179.40496683120728,179.40840983390808,179.4232861995697,179.57027220726013,179.57027220726013,179.57027220726013,179.57027220726013,179.57027220726013,179.57027220726013,179.57027220726013,180.3195469379425,1,0.8866279125213623,None,,,,,,,,,,,,,,,,,,223,2,2025-03-10_11h05.53.080,comp,2024.2.4,54.21946562665223,2025-03-10 11h06.01.514059 -0400,
58,58,0,critical,hwd,20.0,2.1,lower,133.0,57.0,57.0,133.0,78.0,78.0,3,2.134430170059204,None,,,,,0,0,0,0,0,58,58,18,180.33635687828064,,,,,,,,,,,,,,,,,,,,,,,,,,,,,,,,,,,,,,,,,,,,,,,,,,,,,,,,,,,,,,,,,,,,,,,,,,,,,,,,,133.0,57.0,57.0,133.0,78.0,78.0,2.1,2.12,-191,-258,0,-265,202,267,180.32110476493835,180.32118010520935,180.32448768615723,180.33635687828064,180.4905881881714,180.4905881881714,180.4905881881714,180.4905881881714,180.4905881881714,180.4905881881714,180.4905881881714,182.4755790233612,3,2.134430170059204,None,,,,,,,,,,,,,,,,,,223,2,2025-03-10_11h05.53.080,comp,2024.2.4,54.21946562665223,2025-03-10 11h06.01.514059 -0400,
59,59,0,critical,dhw,20.0,1.0,lower,78.0,78.0,133.0,57.0,57.0,133.0,1,1.411320447921753,None,,,,,0,0,0,0,0,59,59,54,182.49140167236328,,,,,,,,,,,,,,,,,,,,,,,,,,,,,,,,,,,,,,,,,,,,,,,,,,,,,,,,,,,,,,,,,,,,,,,,,,,,,,,,,78.0,78.0,133.0,57.0,57.0,133.0,1.0,1.3,316,-277,480,-252,671,-289,182.47722172737122,182.47730779647827,182.48064804077148,182.49140167236328,182.6381916999817,182.6381916999817,182.6381916999817,182.6381916999817,182.6381916999817,182.6381916999817,182.6381916999817,183.91084027290344,1,1.411320447921753,None,,,,,,,,,,,,,,,,,,223,2,2025-03-10_11h05.53.080,comp,2024.2.4,54.21946562665223,2025-03-10 11h06.01.514059 -0400,
60,60,0,filler_square,None,None,None,None,None,None,None,None,None,None,2,1.1513824462890625,None,,,,,0,0,0,0,0,60,60,171,183.92699575424194,,,,,,,,,,,,,,,,,,,,,,,,,,,,,,,,,,,,,,,,,,,,,,,,,,,,,,,,,,,,,,,,,,,,,,,,,,,,,,,,,57.856377381931615,58.9430738904031,59.11558627976056,59.11558627976056,57.2988268292341,57.84184757382701,2.1,2.11,-155,283,0,272,154,-286,183.91279935836792,183.91292524337769,183.9162094593048,183.92699575424194,184.0717432498932,184.0717432498932,184.0717432498932,184.0717432498932,184.0717432498932,184.0717432498932,184.0717432498932,185.0898575782776,2,1.1513824462890625,None,,,,,,,,,,,,,,,,,,223,2,2025-03-10_11h05.53.080,comp,2024.2.4,54.21946562665223,2025-03-10 11h06.01.514059 -0400,
61,61,0,filler_square,None,None,None,None,None,None,None,None,None,None,1,0.9476587772369385,None,,,,,0,0,0,0,0,61,61,186,185.1066927909851,,,,,,,,,,,,,,,,,,,,,,,,,,,,,,,,,,,,,,,,,,,,,,,,,,,,,,,,,,,,,,,,,,,,,,,,,,,,,,,,,144.06826686893868,144.06826686893868,84.71711877764758,93.90676978544111,117.27708029593971,91.50436206418067,1.0,1.3,265,-282,480,-272,669,-283,185.09179162979126,185.09187602996826,185.09500288963318,185.1066927909851,185.2540454864502,185.2540454864502,185.2540454864502,185.2540454864502,185.2540454864502,185.2540454864502,185.2540454864502,186.07247281074524,1,0.9476587772369385,None,,,,,,,,,,,,,,,,,,223,2,2025-03-10_11h05.53.080,comp,2024.2.4,54.21946562665223,2025-03-10 11h06.01.514059 -0400,
62,62,0,critical,dwh,20.0,2.1,lower,78.0,78.0,57.0,133.0,133.0,57.0,2,1.6857311725616455,None,,,,,0,0,0,0,0,62,62,6,186.08808541297913,,,,,,,,,,,,,,,,,,,,,,,,,,,,,,,,,,,,,,,,,,,,,,,,,,,,,,,,,,,,,,,,,,,,,,,,,,,,,,,,,78.0,78.0,57.0,133.0,133.0,57.0,2.1,2.11,-202,258,0,281,191,-270,186.07404685020447,186.07417511940002,186.07772302627563,186.08808541297913,186.23665714263916,186.23665714263916,186.23665714263916,186.23665714263916,186.23665714263916,186.23665714263916,186.23665714263916,187.7882034778595,2,1.6857311725616455,None,,,,,,,,,,,,,,,,,,223,2,2025-03-10_11h05.53.080,comp,2024.2.4,54.21946562665223,2025-03-10 11h06.01.514059 -0400,
63,63,0,critical,whd,35.0,4.0,lower,57.0,133.0,133.0,57.0,70.0,70.0,2,1.03476881980896,None,,,,,0,0,0,0,0,63,63,88,187.80330181121826,,,,,,,,,,,,,,,,,,,,,,,,,,,,,,,,,,,,,,,,,,,,,,,,,,,,,,,,,,,,,,,,,,,,,,,,,,,,,,,,,57.0,133.0,133.0,57.0,70.0,70.0,4.0,4.2,-191,20,0,-287,160,6,187.78964471817017,187.78972005844116,187.7927703857422,187.80330181121826,187.95931434631348,187.95931434631348,187.95931434631348,187.95931434631348,187.95931434631348,187.95931434631348,187.95931434631348,188.8418266773224,2,1.03476881980896,None,,,,,,,,,,,,,,,,,,223,2,2025-03-10_11h05.53.080,comp,2024.2.4,54.21946562665223,2025-03-10 11h06.01.514059 -0400,
64,64,0,critical,wdh,35.0,4.0,upper,125.0,200.0,127.0,127.0,200.0,125.0,3,1.122760534286499,None,,,,,0,0,0,0,0,64,64,77,188.86148357391357,,,,,,,,,,,,,,,,,,,,,,,,,,,,,,,,,,,,,,,,,,,,,,,,,,,,,,,,,,,,,,,,,,,,,,,,,,,,,,,,,125.0,200.0,127.0,127.0,200.0,125.0,4.0,4.2,-260,-12,0,-252,222,20,188.84347128868103,188.84356832504272,188.84692072868347,188.86148357391357,189.0071189403534,189.0071189403534,189.0071189403534,189.0071189403534,189.0071189403534,189.0071189403534,189.0071189403534,189.9896159172058,3,1.122760534286499,None,,,,,,,,,,,,,,,,,,223,2,2025-03-10_11h05.53.080,comp,2024.2.4,54.21946562665223,2025-03-10 11h06.01.514059 -0400,
65,65,0,critical,dhw,35.0,2.1,upper,127.0,127.0,200.0,125.0,125.0,200.0,2,1.0246870517730713,None,,,,,0,0,0,0,0,65,65,25,190.0058970451355,,,,,,,,,,,,,,,,,,,,,,,,,,,,,,,,,,,,,,,,,,,,,,,,,,,,,,,,,,,,,,,,,,,,,,,,,,,,,,,,,127.0,127.0,200.0,125.0,125.0,200.0,2.1,2.11,-222,271,0,254,258,-275,189.9911663532257,189.99124598503113,189.99435138702393,190.0058970451355,190.15665793418884,190.15665793418884,190.15665793418884,190.15665793418884,190.15665793418884,190.15665793418884,190.15665793418884,191.04164671897888,2,1.0246870517730713,None,,,,,,,,,,,,,,,,,,223,2,2025-03-10_11h05.53.080,comp,2024.2.4,54.21946562665223,2025-03-10 11h06.01.514059 -0400,
66,66,0,critical,hwd,20.0,3.0,upper,200.0,125.0,125.0,200.0,141.0,141.0,2,2.5006825923919678,None,,,,,0,0,0,0,0,66,66,105,191.05745816230774,,,,,,,,,,,,,,,,,,,,,,,,,,,,,,,,,,,,,,,,,,,,,,,,,,,,,,,,,,,,,,,,,,,,,,,,,,,,,,,,,200.0,125.0,125.0,200.0,141.0,141.0,3.0,3.2,-258,-270,0,5,266,290,191.0431706905365,191.04325437545776,191.0467324256897,191.05745816230774,191.21166467666626,191.21166467666626,191.21166467666626,191.21166467666626,191.21166467666626,191.21166467666626,191.21166467666626,193.5762815475464,2,2.5006825923919678,None,,,,,,,,,,,,,,,,,,223,2,2025-03-10_11h05.53.080,comp,2024.2.4,54.21946562665223,2025-03-10 11h06.01.514059 -0400,
67,67,0,filler_square,None,None,None,None,None,None,None,None,None,None,3,0.8854246139526367,None,,,,,0,0,0,0,0,67,67,170,193.59238648414612,,,,,,,,,,,,,,,,,,,,,,,,,,,,,,,,,,,,,,,,,,,,,,,,,,,,,,,,,,,,,,,,,,,,,,,,,,,,,,,,,72.17290926806943,58.11656945789375,83.11408790206812,59.51798557265985,146.61031905126745,146.61031905126745,2.2,2.22,-155,262,0,-284,199,-253,193.57831645011902,193.57839846611023,193.58204555511475,193.59238648414612,193.74216318130493,193.74216318130493,193.74216318130493,193.74216318130493,193.74216318130493,193.74216318130493,193.74216318130493,194.49514198303223,3,0.8854246139526367,None,,,,,,,,,,,,,,,,,,223,2,2025-03-10_11h05.53.080,comp,2024.2.4,54.21946562665223,2025-03-10 11h06.01.514059 -0400,
68,68,0,critical,wdh,20.0,2.1,upper,125.0,200.0,141.0,141.0,200.0,125.0,3,2.2747256755828857,None,,,,,0,0,0,0,0,68,68,35,194.51551866531372,,,,,,,,,,,,,,,,,,,,,,,,,,,,,,,,,,,,,,,,,,,,,,,,,,,,,,,,,,,,,,,,,,,,,,,,,,,,,,,,,125.0,200.0,141.0,141.0,200.0,125.0,2.1,2.11,-266,254,0,261,229,-264,194.4967610836029,194.4968876838684,194.50017619132996,194.51551866531372,194.6585988998413,194.6585988998413,194.6585988998413,194.6585988998413,194.6585988998413,194.6585988998413,194.6585988998413,196.7931911945343,3,2.2747256755828857,None,,,,,,,,,,,,,,,,,,223,2,2025-03-10_11h05.53.080,comp,2024.2.4,54.21946562665223,2025-03-10 11h06.01.514059 -0400,
69,69,0,critical,whd,20.0,1.0,lower,57.0,133.0,133.0,57.0,78.0,78.0,2,1.532064437866211,None,,,,,0,0,0,0,0,69,69,90,196.80972933769226,,,,,,,,,,,,,,,,,,,,,,,,,,,,,,,,,,,,,,,,,,,,,,,,,,,,,,,,,,,,,,,,,,,,,,,,,,,,,,,,,57.0,133.0,133.0,57.0,78.0,78.0,1.0,1.3,289,-278,480,-289,644,-289,196.79474306106567,196.79482197761536,196.79793667793274,196.80972933769226,196.95813822746277,196.95813822746277,196.95813822746277,196.95813822746277,196.95813822746277,196.95813822746277,196.95813822746277,198.34536576271057,2,1.532064437866211,None,,,,,,,,,,,,,,,,,,223,2,2025-03-10_11h05.53.080,comp,2024.2.4,54.21946562665223,2025-03-10 11h06.01.514059 -0400,
70,70,0,critical,dwh,20.0,2.1,lower,78.0,78.0,57.0,133.0,133.0,57.0,3,0.7875673770904541,None,,,,,0,0,0,0,0,70,70,30,198.3621370792389,,,,,,,,,,,,,,,,,,,,,,,,,,,,,,,,,,,,,,,,,,,,,,,,,,,,,,,,,,,,,,,,,,,,,,,,,,,,,,,,,78.0,78.0,57.0,133.0,133.0,57.0,2.1,2.12,-202,-280,0,-284,191,252,198.34718203544617,198.34726190567017,198.35117149353027,198.3621370792389,198.50971174240112,198.50971174240112,198.50971174240112,198.50971174240112,198.50971174240112,198.50971174240112,198.50971174240112,199.1642768383026,3,0.7875673770904541,None,,,,,,,,,,,,,,,,,,223,2,2025-03-10_11h05.53.080,comp,2024.2.4,54.21946562665223,2025-03-10 11h06.01.514059 -0400,
71,71,0,filler_random,None,None,None,None,None,None,None,None,None,None,1,1.1840815544128418,None,,,,,0,0,0,0,0,71,71,153,199.18176937103271,,,,,,,,,,,,,,,,,,,,,,,,,,,,,,,,,,,,,,,,,,,,,,,,,,,,,,,,,,,,,,,,,,,,,,,,,,,,,,,,,129.24290437621428,184.96883194668294,112.80525920054137,197.50555129292505,110.23918866235837,134.59372904069772,2.1,2.11,-287,287,0,280,262,-278,199.16609716415405,199.16618180274963,199.16911482810974,199.18176937103271,199.32749772071838,199.32749772071838,199.32749772071838,199.32749772071838,199.32749772071838,199.32749772071838,199.32749772071838,200.37707042694092,1,1.1840815544128418,None,,,,,,,,,,,,,,,,,,223,2,2025-03-10_11h05.53.080,comp,2024.2.4,54.21946562665223,2025-03-10 11h06.01.514059 -0400,
72,72,0,critical,wdh,20.0,3.0,upper,125.0,200.0,141.0,141.0,200.0,125.0,3,1.6994476318359375,None,,,,,0,0,0,0,0,72,72,81,200.3943955898285,,,,,,,,,,,,,,,,,,,,,,,,,,,,,,,,,,,,,,,,,,,,,,,,,,,,,,,,,,,,,,,,,,,,,,,,,,,,,,,,,125.0,200.0,141.0,141.0,200.0,125.0,3.0,3.1,-266,290,0,14,229,-268,200.3786563873291,200.3787386417389,200.3828706741333,200.3943955898285,200.54261922836304,200.54261922836304,200.54261922836304,200.54261922836304,200.54261922836304,200.54261922836304,200.54261922836304,202.11292934417725,3,1.6994476318359375,None,,,,,,,,,,,,,,,,,,223,2,2025-03-10_11h05.53.080,comp,2024.2.4,54.21946562665223,2025-03-10 11h06.01.514059 -0400,
73,73,0,critical,wdh,35.0,3.0,lower,57.0,133.0,70.0,70.0,133.0,57.0,3,1.612739086151123,None,,,,,0,0,0,0,0,73,73,74,202.1291162967682,,,,,,,,,,,,,,,,,,,,,,,,,,,,,,,,,,,,,,,,,,,,,,,,,,,,,,,,,,,,,,,,,,,,,,,,,,,,,,,,,57.0,133.0,70.0,70.0,133.0,57.0,3.0,3.1,-198,262,0,-14,160,-254,202.11459612846375,202.114670753479,202.11800622940063,202.1291162967682,202.27693223953247,202.27693223953247,202.27693223953247,202.27693223953247,202.27693223953247,202.27693223953247,202.27693223953247,203.7601683139801,3,1.612739086151123,None,,,,,,,,,,,,,,,,,,223,2,2025-03-10_11h05.53.080,comp,2024.2.4,54.21946562665223,2025-03-10 11h06.01.514059 -0400,
74,74,0,critical,dwh,35.0,1.0,upper,127.0,127.0,125.0,200.0,200.0,125.0,1,1.038407802581787,None,,,,,0,0,0,0,0,74,74,61,203.77551293373108,,,,,,,,,,,,,,,,,,,,,,,,,,,,,,,,,,,,,,,,,,,,,,,,,,,,,,,,,,,,,,,,,,,,,,,,,,,,,,,,,127.0,127.0,125.0,200.0,200.0,125.0,1.0,1.1,-740,266,-480,281,-222,254,203.7617061138153,203.7617838382721,203.76489210128784,203.77551293373108,203.9321985244751,203.9321985244751,203.9321985244751,203.9321985244751,203.9321985244751,203.9321985244751,203.9321985244751,204.83441948890686,1,1.038407802581787,None,,,,,,,,,,,,,,,,,,223,2,2025-03-10_11h05.53.080,comp,2024.2.4,54.21946562665223,2025-03-10 11h06.01.514059 -0400,
75,75,0,critical,whd,35.0,2.1,upper,125.0,200.0,200.0,125.0,127.0,127.0,2,1.6414110660552979,None,,,,,0,0,0,0,0,75,75,37,204.85244727134705,,,,,,,,,,,,,,,,,,,,,,,,,,,,,,,,,,,,,,,,,,,,,,,,,,,,,,,,,,,,,,,,,,,,,,,,,,,,,,,,,125.0,200.0,200.0,125.0,127.0,127.0,2.1,2.12,-258,-281,0,-283,222,288,204.83597445487976,204.83609461784363,204.83906316757202,204.85244727134705,204.99561405181885,204.99561405181885,204.99561405181885,204.99561405181885,204.99561405181885,204.99561405181885,204.99561405181885,206.5116536617279,2,1.6414110660552979,None,,,,,,,,,,,,,,,,,,223,2,2025-03-10_11h05.53.080,comp,2024.2.4,54.21946562665223,2025-03-10 11h06.01.514059 -0400,
76,76,0,critical,hwd,35.0,1.0,lower,133.0,57.0,57.0,133.0,70.0,70.0,2,2.523479700088501,None,,,,,0,0,0,0,0,76,76,96,206.53101539611816,,,,,,,,,,,,,,,,,,,,,,,,,,,,,,,,,,,,,,,,,,,,,,,,,,,,,,,,,,,,,,,,,,,,,,,,,,,,,,,,,133.0,57.0,57.0,133.0,70.0,70.0,1.0,1.2,-191,13,0,-20,198,7,206.51331639289856,206.5133924484253,206.516752243042,206.53101539611816,206.6784908771515,206.6784908771515,206.6784908771515,206.6784908771515,206.6784908771515,206.6784908771515,206.6784908771515,209.06423616409302,2,2.523479700088501,None,,,,,,,,,,,,,,,,,,223,2,2025-03-10_11h05.53.080,comp,2024.2.4,54.21946562665223,2025-03-10 11h06.01.514059 -0400,
77,77,0,critical,whd,35.0,3.0,lower,57.0,133.0,133.0,57.0,70.0,70.0,3,3.6372318267822266,None,,,,,0,0,0,0,0,77,77,86,209.08067154884338,,,,,,,,,,,,,,,,,,,,,,,,,,,,,,,,,,,,,,,,,,,,,,,,,,,,,,,,,,,,,,,,,,,,,,,,,,,,,,,,,57.0,133.0,133.0,57.0,70.0,70.0,3.0,3.2,-191,-269,0,-7,160,269,209.06581807136536,209.06594944000244,209.0698754787445,209.08067154884338,209.23412561416626,209.23412561416626,209.23412561416626,209.23412561416626,209.23412561416626,209.23412561416626,209.23412561416626,212.73095273971558,3,3.6372318267822266,None,,,,,,,,,,,,,,,,,,223,2,2025-03-10_11h05.53.080,comp,2024.2.4,54.21946562665223,2025-03-10 11h06.01.514059 -0400,
78,78,0,filler_square,None,None,None,None,None,None,None,None,None,None,3,2.4432010650634766,None,,,,,0,0,0,0,0,78,78,179,212.7473738193512,,,,,,,,,,,,,,,,,,,,,,,,,,,,,,,,,,,,,,,,,,,,,,,,,,,,,,,,,,,,,,,,,,,,,,,,,,,,,,,,,103.83315857817973,58.98860610622477,58.76602356748498,83.04804161281207,105.33657136839295,105.33657136839295,4.0,4.1,-167,-262,0,6,190,-256,212.73299479484558,212.73313546180725,212.73699021339417,212.7473738193512,212.89534187316895,212.89534187316895,212.89534187316895,212.89534187316895,212.89534187316895,212.89534187316895,212.89534187316895,215.19923758506775,3,2.4432010650634766,None,,,,,,,,,,,,,,,,,,223,2,2025-03-10_11h05.53.080,comp,2024.2.4,54.21946562665223,2025-03-10 11h06.01.514059 -0400,
79,79,0,catch,None,None,None,None,None,None,None,None,None,None,1,2.9823005199432373,None,,,,,0,0,0,0,0,79,79,128,215.21549320220947,,,,,,,,,,,,,,,,,,,,,,,,,,,,,,,,,,,,,,,,,,,,,,,,,,,,,,,,,,,,,,,,,,,,,,,,,,,,,,,,,174,151,131,59,123,67,2.2,2.21,-201,-285,0,285,159,273,215.2013659477234,215.2014877796173,215.20477557182312,215.21549320220947,215.3641378879547,215.3641378879547,215.3641378879547,215.3641378879547,215.3641378879547,215.3641378879547,215.3641378879547,218.2167203426361,1,2.9823005199432373,None,,,,,,,,,,,,,,,,,,223,2,2025-03-10_11h05.53.080,comp,2024.2.4,54.21946562665223,2025-03-10 11h06.01.514059 -0400,
80,80,0,filler_random,None,None,None,None,None,None,None,None,None,None,2,1.053682804107666,None,,,,,0,0,0,0,0,80,80,168,218.2408812046051,,,,,,,,,,,,,,,,,,,,,,,,,,,,,,,,,,,,,,,,,,,,,,,,,,,,,,,,,,,,,,,,,,,,,,,,,,,,,,,,,106.4729174794964,57.55163282661496,170.936679017657,119.5525454737385,190.08346865804052,60.00128020303001,4.0,4.1,-185,-264,0,-12,186,-264,218.2184009552002,218.21847867965698,218.22145438194275,218.2408812046051,218.38312649726868,218.38312649726868,218.38312649726868,218.38312649726868,218.38312649726868,218.38312649726868,218.38312649726868,219.30056405067444,2,1.053682804107666,None,,,,,,,,,,,,,,,,,,223,2,2025-03-10_11h05.53.080,comp,2024.2.4,54.21946562665223,2025-03-10 11h06.01.514059 -0400,
81,81,0,filler_square,None,None,None,None,None,None,None,None,None,None,3,1.2012314796447754,None,,,,,0,0,0,0,0,81,81,173,219.31660676002502,,,,,,,,,,,,,,,,,,,,,,,,,,,,,,,,,,,,,,,,,,,,,,,,,,,,,,,,,,,,,,,,,,,,,,,,,,,,,,,,,76.27820479711585,117.82533265477738,61.03766020732836,85.83508992757277,123.37937416695398,123.37937416695398,2.1,2.12,-198,-259,0,-266,201,281,219.3024399280548,219.3025405406952,219.30594897270203,219.31660676002502,219.46629190444946,219.46629190444946,219.46629190444946,219.46629190444946,219.46629190444946,219.46629190444946,219.46629190444946,220.53386569023132,3,1.2012314796447754,None,,,,,,,,,,,,,,,,,,223,2,2025-03-10_11h05.53.080,comp,2024.2.4,54.21946562665223,2025-03-10 11h06.01.514059 -0400,
82,82,0,critical,hwd,35.0,3.0,upper,200.0,125.0,125.0,200.0,127.0,127.0,2,1.999917984008789,None,,,,,0,0,0,0,0,82,82,99,220.5498824119568,,,,,,,,,,,,,,,,,,,,,,,,,,,,,,,,,,,,,,,,,,,,,,,,,,,,,,,,,,,,,,,,,,,,,,,,,,,,,,,,,200.0,125.0,125.0,200.0,127.0,127.0,3.0,3.2,-258,-258,0,-7,260,264,220.5353639125824,220.53543853759766,220.53873419761658,220.5498824119568,220.7029368877411,220.7029368877411,220.7029368877411,220.7029368877411,220.7029368877411,220.7029368877411,220.7029368877411,222.56525373458862,2,1.999917984008789,None,,,,,,,,,,,,,,,,,,223,2,2025-03-10_11h05.53.080,comp,2024.2.4,54.21946562665223,2025-03-10 11h06.01.514059 -0400,
83,83,0,filler_random,None,None,None,None,None,None,None,None,None,None,3,1.4163234233856201,None,,,,,0,0,0,0,0,83,83,159,222.58154392242432,,,,,,,,,,,,,,,,,,,,,,,,,,,,,,,,,,,,,,,,,,,,,,,,,,,,,,,,,,,,,,,,,,,,,,,,,,,,,,,,,197.12535133970346,72.60109566774342,121.81739580906175,66.97104265170748,186.1476941085608,96.819788335038,1.0,1.1,-646,264,-480,286,-302,259,222.56694221496582,222.56709122657776,222.5704243183136,222.58154392242432,222.73264074325562,222.73264074325562,222.73264074325562,222.73264074325562,222.73264074325562,222.73264074325562,222.73264074325562,224.0027952194214,3,1.4163234233856201,None,,,,,,,,,,,,,,,,,,223,2,2025-03-10_11h05.53.080,comp,2024.2.4,54.21946562665223,2025-03-10 11h06.01.514059 -0400,
84,84,0,critical,dhw,35.0,2.1,lower,70.0,70.0,133.0,57.0,57.0,133.0,2,2.9256274700164795,None,,,,,0,0,0,0,0,84,84,0,224.02410244941711,,,,,,,,,,,,,,,,,,,,,,,,,,,,,,,,,,,,,,,,,,,,,,,,,,,,,,,,,,,,,,,,,,,,,,,,,,,,,,,,,70.0,70.0,133.0,57.0,57.0,133.0,2.1,2.11,-160,282,0,258,191,-271,224.00478100776672,224.00490736961365,224.0084948539734,224.02410244941711,224.16755318641663,224.16755318641663,224.16755318641663,224.16755318641663,224.16755318641663,224.16755318641663,224.16755318641663,226.95252346992493,2,2.9256274700164795,None,,,,,,,,,,,,,,,,,,223,2,2025-03-10_11h05.53.080,comp,2024.2.4,54.21946562665223,2025-03-10 11h06.01.514059 -0400,
85,85,0,critical,hdw,35.0,1.0,upper,200.0,125.0,127.0,127.0,125.0,200.0,3,1.7278499603271484,None,,,,,0,0,0,0,0,85,85,109,226.96808433532715,,,,,,,,,,,,,,,,,,,,,,,,,,,,,,,,,,,,,,,,,,,,,,,,,,,,,,,,,,,,,,,,,,,,,,,,,,,,,,,,,200.0,125.0,127.0,127.0,125.0,200.0,1.0,1.1,-702,285,-480,276,-220,252,226.95405983924866,226.95414066314697,226.95721983909607,226.96808433532715,227.12333965301514,227.12333965301514,227.12333965301514,227.12333965301514,227.12333965301514,227.12333965301514,227.12333965301514,228.70170903205872,3,1.7278499603271484,None,,,,,,,,,,,,,,,,,,223,2,2025-03-10_11h05.53.080,comp,2024.2.4,54.21946562665223,2025-03-10 11h06.01.514059 -0400,
86,86,0,critical,dhw,35.0,2.1,upper,127.0,127.0,200.0,125.0,125.0,200.0,3,1.3838472366333008,None,,,,,0,0,0,0,0,86,86,1,228.7178921699524,,,,,,,,,,,,,,,,,,,,,,,,,,,,,,,,,,,,,,,,,,,,,,,,,,,,,,,,,,,,,,,,,,,,,,,,,,,,,,,,,127.0,127.0,200.0,125.0,125.0,200.0,2.1,2.11,-222,270,0,282,258,-259,228.70332431793213,228.70341062545776,228.70674633979797,228.7178921699524,228.8733251094818,228.8733251094818,228.8733251094818,228.8733251094818,228.8733251094818,228.8733251094818,228.8733251094818,230.10375428199768,3,1.3838472366333008,None,,,,,,,,,,,,,,,,,,223,2,2025-03-10_11h05.53.080,comp,2024.2.4,54.21946562665223,2025-03-10 11h06.01.514059 -0400,
87,87,0,filler_square,None,None,None,None,None,None,None,None,None,None,3,0.9341878890991211,None,,,,,0,0,0,0,0,87,87,203,230.1197063922882,,,,,,,,,,,,,,,,,,,,,,,,,,,,,,,,,,,,,,,,,,,,,,,,,,,,,,,,,,,,,,,,,,,,,,,,,,,,,,,,,73.33538552011473,95.60101981776745,94.41137371814429,158.7788551030252,162.52188830303373,162.52188830303373,2.1,2.11,-223,282,0,286,257,-281,230.1055736541748,230.10567331314087,230.1089744567871,230.1197063922882,230.26708912849426,230.26708912849426,230.26708912849426,230.26708912849426,230.26708912849426,230.26708912849426,230.26708912849426,231.07319593429565,3,0.9341878890991211,None,,,,,,,,,,,,,,,,,,223,2,2025-03-10_11h05.53.080,comp,2024.2.4,54.21946562665223,2025-03-10 11h06.01.514059 -0400,
88,88,0,filler_random,None,None,None,None,None,None,None,None,None,None,2,1.442394495010376,None,,,,,0,0,0,0,0,88,88,136,231.09136152267456,,,,,,,,,,,,,,,,,,,,,,,,,,,,,,,,,,,,,,,,,,,,,,,,,,,,,,,,,,,,,,,,,,,,,,,,,,,,,,,,,127.22220282246926,131.76997941178394,172.6089583523053,118.3617154296326,58.16545143377052,141.7637142853705,4.0,4.2,-221,-14,0,-283,226,17,231.07516169548035,231.07528853416443,231.07838988304138,231.09136152267456,231.23671460151672,231.23671460151672,231.23671460151672,231.23671460151672,231.23671460151672,231.23671460151672,231.23671460151672,232.53718900680542,2,1.442394495010376,None,,,,,,,,,,,,,,,,,,223,2,2025-03-10_11h05.53.080,comp,2024.2.4,54.21946562665223,2025-03-10 11h06.01.514059 -0400,
89,89,0,critical,hwd,35.0,4.0,upper,200.0,125.0,125.0,200.0,127.0,127.0,2,1.1967999935150146,None,,,,,0,0,0,0,0,89,89,101,232.55361199378967,,,,,,,,,,,,,,,,,,,,,,,,,,,,,,,,,,,,,,,,,,,,,,,,,,,,,,,,,,,,,,,,,,,,,,,,,,,,,,,,,200.0,125.0,125.0,200.0,127.0,127.0,4.0,4.2,-258,6,0,-262,260,-2,232.53878140449524,232.53886342048645,232.54297518730164,232.55361199378967,232.70172548294067,232.70172548294067,232.70172548294067,232.70172548294067,232.70172548294067,232.70172548294067,232.70172548294067,233.75435614585876,2,1.1967999935150146,None,,,,,,,,,,,,,,,,,,223,2,2025-03-10_11h05.53.080,comp,2024.2.4,54.21946562665223,2025-03-10 11h06.01.514059 -0400,
90,90,0,critical,dwh,20.0,4.0,upper,141.0,141.0,125.0,200.0,200.0,125.0,2,0.7807106971740723,None,,,,,0,0,0,0,0,90,90,71,233.7707941532135,,,,,,,,,,,,,,,,,,,,,,,,,,,,,,,,,,,,,,,,,,,,,,,,,,,,,,,,,,,,,,,,,,,,,,,,,,,,,,,,,141.0,141.0,125.0,200.0,200.0,125.0,4.0,4.2,-266,-17,0,-277,258,2,233.75589299201965,233.7559757232666,233.7601182460785,233.7707941532135,233.9269576072693,233.9269576072693,233.9269576072693,233.9269576072693,233.9269576072693,233.9269576072693,233.9269576072693,234.57433342933655,2,0.7807106971740723,None,,,,,,,,,,,,,,,,,,223,2,2025-03-10_11h05.53.080,comp,2024.2.4,54.21946562665223,2025-03-10 11h06.01.514059 -0400,
91,91,0,critical,wdh,35.0,4.0,lower,57.0,133.0,70.0,70.0,133.0,57.0,2,3.4270997047424316,None,,,,,0,0,0,0,0,91,91,76,234.59465551376343,,,,,,,,,,,,,,,,,,,,,,,,,,,,,,,,,,,,,,,,,,,,,,,,,,,,,,,,,,,,,,,,,,,,,,,,,,,,,,,,,57.0,133.0,70.0,70.0,133.0,57.0,4.0,4.1,-198,-274,0,-19,160,-260,234.5759632587433,234.57611417770386,234.5793173313141,234.59465551376343,234.7479531764984,234.7479531764984,234.7479531764984,234.7479531764984,234.7479531764984,234.7479531764984,234.7479531764984,238.03981590270996,2,3.4270997047424316,None,,,,,,,,,,,,,,,,,,223,2,2025-03-10_11h05.53.080,comp,2024.2.4,54.21946562665223,2025-03-10 11h06.01.514059 -0400,
92,92,0,filler_square,None,None,None,None,None,None,None,None,None,None,2,0.7982347011566162,None,,,,,0,0,0,0,0,92,92,187,238.05590772628784,,,,,,,,,,,,,,,,,,,,,,,,,,,,,,,,,,,,,,,,,,,,,,,,,,,,,,,,,,,,,,,,,,,,,,,,,,,,,,,,,95.8724462431269,95.8724462431269,57.61793155319137,75.10544974861892,60.74939738847267,91.0254215229899,4.0,4.1,-181,-258,0,5,179,-276,238.04168272018433,238.04181838035583,238.0455825328827,238.05590772628784,238.20337510108948,238.20337510108948,238.20337510108948,238.20337510108948,238.20337510108948,238.20337510108948,238.20337510108948,238.8611080646515,2,0.7982347011566162,None,,,,,,,,,,,,,,,,,,223,2,2025-03-10_11h05.53.080,comp,2024.2.4,54.21946562665223,2025-03-10 11h06.01.514059 -0400,
93,93,0,catch,None,None,None,None,None,None,None,None,None,None,1,1.0339791774749756,None,,,,,0,0,0,0,0,93,93,123,238.8781614303589,,,,,,,,,,,,,,,,,,,,,,,,,,,,,,,,,,,,,,,,,,,,,,,,,,,,,,,,,,,,,,,,,,,,,,,,,,,,,,,,,184,141,73,117,126,64,2.2,2.21,-225,-275,0,276,186,258,238.86357021331787,238.8636519908905,238.86658906936646,238.8781614303589,239.02198767662048,239.02198767662048,239.02198767662048,239.02198767662048,239.02198767662048,239.02198767662048,239.02198767662048,239.9231927394867,1,1.0339791774749756,None,,,,,,,,,,,,,,,,,,223,2,2025-03-10_11h05.53.080,comp,2024.2.4,54.21946562665223,2025-03-10 11h06.01.514059 -0400,
94,94,0,catch,None,None,None,None,None,None,None,None,None,None,2,1.106583833694458,None,,,,,0,0,0,0,0,94,94,124,239.93981647491455,,,,,,,,,,,,,,,,,,,,,,,,,,,,,,,,,,,,,,,,,,,,,,,,,,,,,,,,,,,,,,,,,,,,,,,,,,,,,,,,,104,86,149,176,113,77,4.0,4.1,-227,-267,0,-1,222,-281,239.92509579658508,239.9251742362976,239.9289801120758,239.93981647491455,240.0895013809204,240.0895013809204,240.0895013809204,240.0895013809204,240.0895013809204,240.0895013809204,240.0895013809204,241.0552258491516,2,1.106583833694458,None,,,,,,,,,,,,,,,,,,223,2,2025-03-10_11h05.53.080,comp,2024.2.4,54.21946562665223,2025-03-10 11h06.01.514059 -0400,
95,95,0,critical,hdw,35.0,1.0,lower,133.0,57.0,70.0,70.0,57.0,133.0,3,2.678291082382202,None,,,,,0,0,0,0,0,95,95,108,241.0719244480133,,,,,,,,,,,,,,,,,,,,,,,,,,,,,,,,,,,,,,,,,,,,,,,,,,,,,,,,,,,,,,,,,,,,,,,,,,,,,,,,,133.0,57.0,70.0,70.0,57.0,133.0,1.0,1.1,-640,257,-480,289,-282,265,241.05674648284912,241.05682611465454,241.06027150154114,241.0719244480133,241.2227759361267,241.2227759361267,241.2227759361267,241.2227759361267,241.2227759361267,241.2227759361267,241.2227759361267,243.75813388824463,3,2.678291082382202,None,,,,,,,,,,,,,,,,,,223,2,2025-03-10_11h05.53.080,comp,2024.2.4,54.21946562665223,2025-03-10 11h06.01.514059 -0400,
96,96,0,filler_square,None,None,None,None,None,None,None,None,None,None,3,1.127159833908081,None,,,,,0,0,0,0,0,96,96,190,243.77462363243103,,,,,,,,,,,,,,,,,,,,,,,,,,,,,,,,,,,,,,,,,,,,,,,,,,,,,,,,,,,,,,,,,,,,,,,,,,,,,,,,,103.73110123537592,57.70878768609611,73.02989332101428,158.40143028833674,170.33437088069869,170.33437088069869,2.2,2.21,-204,-260,0,261,260,283,243.76010084152222,243.7601957321167,243.76367735862732,243.77462363243103,243.92315125465393,243.92315125465393,243.92315125465393,243.92315125465393,243.92315125465393,243.92315125465393,243.92315125465393,244.9158959388733,3,1.127159833908081,None,,,,,,,,,,,,,,,,,,223,2,2025-03-10_11h05.53.080,comp,2024.2.4,54.21946562665223,2025-03-10 11h06.01.514059 -0400,
97,97,0,critical,dhw,20.0,2.1,upper,141.0,141.0,200.0,125.0,125.0,200.0,3,1.0796735286712646,None,,,,,0,0,0,0,0,97,97,27,244.9339861869812,,,,,,,,,,,,,,,,,,,,,,,,,,,,,,,,,,,,,,,,,,,,,,,,,,,,,,,,,,,,,,,,,,,,,,,,,,,,,,,,,141.0,141.0,200.0,125.0,125.0,200.0,2.1,2.12,-229,-282,0,-267,258,268,244.91750741004944,244.91758561134338,244.92091917991638,244.9339861869812,245.0704801082611,245.0704801082611,245.0704801082611,245.0704801082611,245.0704801082611,245.0704801082611,245.0704801082611,246.0244483947754,3,1.0796735286712646,None,,,,,,,,,,,,,,,,,,223,2,2025-03-10_11h05.53.080,comp,2024.2.4,54.21946562665223,2025-03-10 11h06.01.514059 -0400,
98,98,0,critical,dwh,35.0,2.1,upper,127.0,127.0,125.0,200.0,200.0,125.0,2,1.1252985000610352,None,,,,,0,0,0,0,0,98,98,29,246.04045724868774,,,,,,,,,,,,,,,,,,,,,,,,,,,,,,,,,,,,,,,,,,,,,,,,,,,,,,,,,,,,,,,,,,,,,,,,,,,,,,,,,127.0,127.0,125.0,200.0,200.0,125.0,2.1,2.11,-260,252,0,253,258,-260,246.02605843544006,246.02615928649902,246.02973461151123,246.04045724868774,246.19005298614502,246.19005298614502,246.19005298614502,246.19005298614502,246.19005298614502,246.19005298614502,246.19005298614502,247.1686668395996,2,1.1252985000610352,None,,,,,,,,,,,,,,,,,,223,2,2025-03-10_11h05.53.080,comp,2024.2.4,54.21946562665223,2025-03-10 11h06.01.514059 -0400,
99,99,0,catch,None,None,None,None,None,None,None,None,None,None,3,0.8727467060089111,None,,,,,0,0,0,0,0,99,99,129,247.18912482261658,,,,,,,,,,,,,,,,,,,,,,,,,,,,,,,,,,,,,,,,,,,,,,,,,,,,,,,,,,,,,,,,,,,,,,,,,,,,,,,,,107,83,120,70,170,155,1.0,1.2,-172,-20,0,-1,208,5,247.170490026474,247.170569896698,247.17347764968872,247.18912482261658,247.3246715068817,247.3246715068817,247.3246715068817,247.3246715068817,247.3246715068817,247.3246715068817,247.3246715068817,248.07526803016663,3,0.8727467060089111,None,,,,,,,,,,,,,,,,,,223,2,2025-03-10_11h05.53.080,comp,2024.2.4,54.21946562665223,2025-03-10 11h06.01.514059 -0400,
100,100,0,critical,hwd,20.0,4.0,lower,133.0,57.0,57.0,133.0,78.0,78.0,3,1.5946598052978516,None,,,,,0,0,0,0,0,100,100,106,248.09181761741638,,,,,,,,,,,,,,,,,,,,,,,,,,,,,,,,,,,,,,,,,,,,,,,,,,,,,,,,,,,,,,,,,,,,,,,,,,,,,,,,,133.0,57.0,57.0,133.0,78.0,78.0,4.0,4.2,-191,-6,0,-256,202,7,248.07685208320618,248.07692646980286,248.0805423259735,248.09181761741638,248.24110913276672,248.24110913276672,248.24110913276672,248.24110913276672,248.24110913276672,248.24110913276672,248.24110913276672,249.69596552848816,3,1.5946598052978516,None,,,,,,,,,,,,,,,,,,223,2,2025-03-10_11h05.53.080,comp,2024.2.4,54.21946562665223,2025-03-10 11h06.01.514059 -0400,
101,101,0,critical,hwd,35.0,2.1,upper,200.0,125.0,125.0,200.0,127.0,127.0,1,0.9162299633026123,None,,,,,0,0,0,0,0,101,101,17,249.71353673934937,,,,,,,,,,,,,,,,,,,,,,,,,,,,,,,,,,,,,,,,,,,,,,,,,,,,,,,,,,,,,,,,,,,,,,,,,,,,,,,,,200.0,125.0,125.0,200.0,127.0,127.0,2.1,2.12,-258,-272,0,-283,260,270,249.69757103919983,249.69765043258667,249.70053339004517,249.71353673934937,249.8596785068512,249.8596785068512,249.8596785068512,249.8596785068512,249.8596785068512,249.8596785068512,249.8596785068512,250.63189506530762,1,0.9162299633026123,None,,,,,,,,,,,,,,,,,,223,2,2025-03-10_11h05.53.080,comp,2024.2.4,54.21946562665223,2025-03-10 11h06.01.514059 -0400,
102,102,0,filler_random,None,None,None,None,None,None,None,None,None,None,1,2.102689504623413,None,,,,,0,0,0,0,0,102,102,139,250.64717197418213,,,,,,,,,,,,,,,,,,,,,,,,,,,,,,,,,,,,,,,,,,,,,,,,,,,,,,,,,,,,,,,,,,,,,,,,,,,,,,,,,95.54795092666059,110.04156292181705,125.91112915116881,66.42584059287596,133.62920356422438,74.3388423093357,1.0,1.2,-184,8,0,11,166,16,250.63356614112854,250.63364577293396,250.63658165931702,250.64717197418213,250.79183053970337,250.79183053970337,250.79183053970337,250.79183053970337,250.79183053970337,250.79183053970337,250.79183053970337,252.76008439064026,1,2.102689504623413,None,,,,,,,,,,,,,,,,,,223,2,2025-03-10_11h05.53.080,comp,2024.2.4,54.21946562665223,2025-03-10 11h06.01.514059 -0400,
103,103,0,critical,hwd,35.0,4.0,lower,133.0,57.0,57.0,133.0,70.0,70.0,2,1.5969243049621582,None,,,,,0,0,0,0,0,103,103,100,252.77694821357727,,,,,,,,,,,,,,,,,,,,,,,,,,,,,,,,,,,,,,,,,,,,,,,,,,,,,,,,,,,,,,,,,,,,,,,,,,,,,,,,,133.0,57.0,57.0,133.0,70.0,70.0,4.0,4.1,-191,-289,0,7,198,-254,252.7615683078766,252.76164507865906,252.76569628715515,252.77694821357727,252.93013715744019,252.93013715744019,252.93013715744019,252.93013715744019,252.93013715744019,252.93013715744019,252.93013715744019,254.37793636322021,2,1.5969243049621582,None,,,,,,,,,,,,,,,,,,223,2,2025-03-10_11h05.53.080,comp,2024.2.4,54.21946562665223,2025-03-10 11h06.01.514059 -0400,
104,104,0,critical,hdw,20.0,1.0,lower,133.0,57.0,78.0,78.0,57.0,133.0,1,1.2114734649658203,None,,,,,0,0,0,0,0,104,104,114,254.39467453956604,,,,,,,,,,,,,,,,,,,,,,,,,,,,,,,,,,,,,,,,,,,,,,,,,,,,,,,,,,,,,,,,,,,,,,,,,,,,,,,,,133.0,57.0,78.0,78.0,57.0,133.0,1.0,1.1,-644,264,-480,256,-278,267,254.37951350212097,254.37959218025208,254.3829207420349,254.39467453956604,254.54436326026917,254.54436326026917,254.54436326026917,254.54436326026917,254.54436326026917,254.54436326026917,254.54436326026917,255.61078262329102,1,1.2114734649658203,None,,,,,,,,,,,,,,,,,,223,2,2025-03-10_11h05.53.080,comp,2024.2.4,54.21946562665223,2025-03-10 11h06.01.514059 -0400,
105,105,0,critical,whd,20.0,2.1,upper,125.0,200.0,200.0,125.0,141.0,141.0,3,1.2922303676605225,None,,,,,0,0,0,0,0,105,105,39,255.62649703025818,,,,,,,,,,,,,,,,,,,,,,,,,,,,,,,,,,,,,,,,,,,,,,,,,,,,,,,,,,,,,,,,,,,,,,,,,,,,,,,,,125.0,200.0,200.0,125.0,141.0,141.0,2.1,2.12,-258,-269,0,-271,229,273,255.6123149394989,255.61239457130432,255.61576676368713,255.62649703025818,255.78080582618713,255.78080582618713,255.78080582618713,255.78080582618713,255.78080582618713,255.78080582618713,255.78080582618713,256.9283444881439,3,1.2922303676605225,None,,,,,,,,,,,,,,,,,,223,2,2025-03-10_11h05.53.080,comp,2024.2.4,54.21946562665223,2025-03-10 11h06.01.514059 -0400,
106,106,0,critical,hdw,20.0,2.1,upper,200.0,125.0,141.0,141.0,125.0,200.0,1,1.6219191551208496,None,,,,,0,0,0,0,0,106,106,23,256.94391655921936,,,,,,,,,,,,,,,,,,,,,,,,,,,,,,,,,,,,,,,,,,,,,,,,,,,,,,,,,,,,,,,,,,,,,,,,,,,,,,,,,200.0,125.0,141.0,141.0,125.0,200.0,2.1,2.12,-229,-274,0,-253,266,278,256.9298734664917,256.9299523830414,256.9333589076996,256.94391655921936,257.0941994190216,257.0941994190216,257.0941994190216,257.0941994190216,257.0941994190216,257.0941994190216,257.0941994190216,258.58109998703003,1,1.6219191551208496,None,,,,,,,,,,,,,,,,,,223,2,2025-03-10_11h05.53.080,comp,2024.2.4,54.21946562665223,2025-03-10 11h06.01.514059 -0400,
107,107,0,critical,whd,35.0,1.0,lower,57.0,133.0,133.0,57.0,70.0,70.0,1,1.20170259475708,None,,,,,0,0,0,0,0,107,107,84,258.5969920158386,,,,,,,,,,,,,,,,,,,,,,,,,,,,,,,,,,,,,,,,,,,,,,,,,,,,,,,,,,,,,,,,,,,,,,,,,,,,,,,,,57.0,133.0,133.0,57.0,70.0,70.0,1.0,1.1,-671,251,-480,261,-320,259,258.582772731781,258.58284735679626,258.5867078304291,258.5969920158386,258.7409567832947,258.7409567832947,258.7409567832947,258.7409567832947,258.7409567832947,258.7409567832947,258.7409567832947,259.80335569381714,1,1.20170259475708,None,,,,,,,,,,,,,,,,,,223,2,2025-03-10_11h05.53.080,comp,2024.2.4,54.21946562665223,2025-03-10 11h06.01.514059 -0400,
108,108,0,filler_random,None,None,None,None,None,None,None,None,None,None,3,0.7791368961334229,None,,,,,0,0,0,0,0,108,108,166,259.81856083869934,,,,,,,,,,,,,,,,,,,,,,,,,,,,,,,,,,,,,,,,,,,,,,,,,,,,,,,,,,,,,,,,,,,,,,,,,,,,,,,,,94.1950645533046,130.19665238169404,114.49201792897674,185.63112266912452,157.5387165486938,172.48774654695194,1.0,1.2,-254,-12,0,11,275,-9,259.80497646331787,259.8051118850708,259.8084714412689,259.81856083869934,259.9613311290741,259.9613311290741,259.9613311290741,259.9613311290741,259.9613311290741,259.9613311290741,259.9613311290741,260.6128239631653,3,0.7791368961334229,None,,,,,,,,,,,,,,,,,,223,2,2025-03-10_11h05.53.080,comp,2024.2.4,54.21946562665223,2025-03-10 11h06.01.514059 -0400,
109,109,0,critical,dwh,20.0,3.0,upper,141.0,141.0,125.0,200.0,200.0,125.0,1,1.120177984237671,None,,,,,0,0,0,0,0,109,109,69,260.63016629219055,,,,,,,,,,,,,,,,,,,,,,,,,,,,,,,,,,,,,,,,,,,,,,,,,,,,,,,,,,,,,,,,,,,,,,,,,,,,,,,,,141.0,141.0,125.0,200.0,200.0,125.0,3.0,3.1,-266,258,0,-10,258,-276,260.61434507369995,260.6144211292267,260.6175022125244,260.63016629219055,260.78308367729187,260.78308367729187,260.78308367729187,260.78308367729187,260.78308367729187,260.78308367729187,260.78308367729187,261.7586770057678,1,1.120177984237671,None,,,,,,,,,,,,,,,,,,223,2,2025-03-10_11h05.53.080,comp,2024.2.4,54.21946562665223,2025-03-10 11h06.01.514059 -0400,
110,110,0,filler_square,None,None,None,None,None,None,None,None,None,None,3,0.7939853668212891,None,,,,,0,0,0,0,0,110,110,172,261.7796754837036,,,,,,,,,,,,,,,,,,,,,,,,,,,,,,,,,,,,,,,,,,,,,,,,,,,,,,,,,,,,,,,,,,,,,,,,,,,,,,,,,77.64855641765413,62.99224521931292,87.82827140458838,75.37746450463003,103.57803519438461,103.57803519438461,1.0,1.1,-645,256,-480,281,-295,268,261.76058554649353,261.76070380210876,261.7639834880829,261.7796754837036,261.91299200057983,261.91299200057983,261.91299200057983,261.91299200057983,261.91299200057983,261.91299200057983,261.91299200057983,262.58879566192627,3,0.7939853668212891,None,,,,,,,,,,,,,,,,,,223,2,2025-03-10_11h05.53.080,comp,2024.2.4,54.21946562665223,2025-03-10 11h06.01.514059 -0400,
111,111,0,critical,dwh,35.0,2.1,lower,70.0,70.0,57.0,133.0,133.0,57.0,2,1.4773647785186768,None,,,,,0,0,0,0,0,111,111,4,262.60838317871094,,,,,,,,,,,,,,,,,,,,,,,,,,,,,,,,,,,,,,,,,,,,,,,,,,,,,,,,,,,,,,,,,,,,,,,,,,,,,,,,,70.0,70.0,57.0,133.0,133.0,57.0,2.1,2.11,-198,275,0,270,191,-253,262.5904014110565,262.59047651290894,262.5938127040863,262.60838317871094,262.74443006515503,262.74443006515503,262.74443006515503,262.74443006515503,262.74443006515503,262.74443006515503,262.74443006515503,264.097195148468,2,1.4773647785186768,None,,,,,,,,,,,,,,,,,,223,2,2025-03-10_11h05.53.080,comp,2024.2.4,54.21946562665223,2025-03-10 11h06.01.514059 -0400,
112,112,0,critical,hwd,20.0,1.0,lower,133.0,57.0,57.0,133.0,78.0,78.0,1,0.8902478218078613,None,,,,,0,0,0,0,0,112,112,102,264.11751914024353,,,,,,,,,,,,,,,,,,,,,,,,,,,,,,,,,,,,,,,,,,,,,,,,,,,,,,,,,,,,,,,,,,,,,,,,,,,,,,,,,133.0,57.0,57.0,133.0,78.0,78.0,1.0,1.2,-191,-8,0,18,202,5,264.0987961292267,264.0988893508911,264.102411031723,264.11751914024353,264.26467752456665,264.26467752456665,264.26467752456665,264.26467752456665,264.26467752456665,264.26467752456665,264.26467752456665,265.0105662345886,1,0.8902478218078613,None,,,,,,,,,,,,,,,,,,223,2,2025-03-10_11h05.53.080,comp,2024.2.4,54.21946562665223,2025-03-10 11h06.01.514059 -0400,
113,113,0,critical,hdw,35.0,2.1,lower,133.0,57.0,70.0,70.0,57.0,133.0,3,1.082062005996704,None,,,,,0,0,0,0,0,113,113,44,265.0282847881317,,,,,,,,,,,,,,,,,,,,,,,,,,,,,,,,,,,,,,,,,,,,,,,,,,,,,,,,,,,,,,,,,,,,,,,,,,,,,,,,,133.0,57.0,70.0,70.0,57.0,133.0,2.1,2.11,-160,268,0,288,198,-281,265.01204085350037,265.01211810112,265.014936208725,265.0282847881317,265.1647276878357,265.1647276878357,265.1647276878357,265.1647276878357,265.1647276878357,265.1647276878357,265.1647276878357,266.1131360530853,3,1.082062005996704,None,,,,,,,,,,,,,,,,,,223,2,2025-03-10_11h05.53.080,comp,2024.2.4,54.21946562665223,2025-03-10 11h06.01.514059 -0400,
114,114,0,critical,dhw,35.0,2.1,lower,70.0,70.0,133.0,57.0,57.0,133.0,2,1.1725127696990967,None,,,,,0,0,0,0,0,114,114,24,266.1291980743408,,,,,,,,,,,,,,,,,,,,,,,,,,,,,,,,,,,,,,,,,,,,,,,,,,,,,,,,,,,,,,,,,,,,,,,,,,,,,,,,,70.0,70.0,133.0,57.0,57.0,133.0,2.1,2.11,-160,275,0,279,191,-257,266.1145935058594,266.11466932296753,266.11756205558777,266.1291980743408,266.2811107635498,266.2811107635498,266.2811107635498,266.2811107635498,266.2811107635498,266.2811107635498,266.2811107635498,267.31655740737915,2,1.1725127696990967,None,,,,,,,,,,,,,,,,,,223,2,2025-03-10_11h05.53.080,comp,2024.2.4,54.21946562665223,2025-03-10 11h06.01.514059 -0400,
115,115,0,filler_random,None,None,None,None,None,None,None,None,None,None,1,1.2966008186340332,None,,,,,0,0,0,0,0,115,115,147,267.33313727378845,,,,,,,,,,,,,,,,,,,,,,,,,,,,,,,,,,,,,,,,,,,,,,,,,,,,,,,,,,,,,,,,,,,,,,,,,,,,,,,,,135.68595964289608,195.30167348728335,111.12548804302881,110.63448196407965,128.18255768543207,87.13263698216315,2.1,2.12,-249,-288,0,-278,195,290,267.3184907436371,267.31860518455505,267.32186365127563,267.33313727378845,267.48599004745483,267.48599004745483,267.48599004745483,267.48599004745483,267.48599004745483,267.48599004745483,267.48599004745483,268.6474058628082,1,1.2966008186340332,None,,,,,,,,,,,,,,,,,,223,2,2025-03-10_11h05.53.080,comp,2024.2.4,54.21946562665223,2025-03-10 11h06.01.514059 -0400,
116,116,0,critical,hdw,35.0,2.1,upper,200.0,125.0,127.0,127.0,125.0,200.0,3,1.5659549236297607,None,,,,,0,0,0,0,0,116,116,21,268.66369557380676,,,,,,,,,,,,,,,,,,,,,,,,,,,,,,,,,,,,,,,,,,,,,,,,,,,,,,,,,,,,,,,,,,,,,,,,,,,,,,,,,200.0,125.0,127.0,127.0,125.0,200.0,2.1,2.11,-222,261,0,285,260,-284,268.64906787872314,268.6491446495056,268.65246319770813,268.66369557380676,268.8151352405548,268.8151352405548,268.8151352405548,268.8151352405548,268.8151352405548,268.8151352405548,268.8151352405548,270.23196601867676,3,1.5659549236297607,None,,,,,,,,,,,,,,,,,,223,2,2025-03-10_11h05.53.080,comp,2024.2.4,54.21946562665223,2025-03-10 11h06.01.514059 -0400,
117,117,0,critical,whd,20.0,4.0,lower,57.0,133.0,133.0,57.0,78.0,78.0,3,3.8139991760253906,None,,,,,0,0,0,0,0,117,117,94,270.24842643737793,,,,,,,,,,,,,,,,,,,,,,,,,,,,,,,,,,,,,,,,,,,,,,,,,,,,,,,,,,,,,,,,,,,,,,,,,,,,,,,,,57.0,133.0,133.0,57.0,78.0,78.0,4.0,4.2,-191,-11,0,-257,164,-10,270.23360109329224,270.23371410369873,270.2372839450836,270.24842643737793,270.3847687244415,270.3847687244415,270.3847687244415,270.3847687244415,270.3847687244415,270.3847687244415,270.3847687244415,274.0666825771332,3,3.8139991760253906,None,,,,,,,,,,,,,,,,,,223,2,2025-03-10_11h05.53.080,comp,2024.2.4,54.21946562665223,2025-03-10 11h06.01.514059 -0400,
118,118,0,filler_random,None,None,None,None,None,None,None,None,None,None,2,1.50821852684021,None,,,,,0,0,0,0,0,118,118,138,274.0830144882202,,,,,,,,,,,,,,,,,,,,,,,,,,,,,,,,,,,,,,,,,,,,,,,,,,,,,,,,,,,,,,,,,,,,,,,,,,,,,,,,,191.4229108194127,157.64447574941252,187.9016194040194,187.60416710382927,61.292762941310215,133.08089343150098,1.0,1.1,-749,277,-480,275,-224,266,274.0684175491333,274.06851387023926,274.0721163749695,274.0830144882202,274.2371389865875,274.2371389865875,274.2371389865875,274.2371389865875,274.2371389865875,274.2371389865875,274.2371389865875,275.5994815826416,2,1.50821852684021,None,,,,,,,,,,,,,,,,,,223,2,2025-03-10_11h05.53.080,comp,2024.2.4,54.21946562665223,2025-03-10 11h06.01.514059 -0400,
119,119,0,filler_random,None,None,None,None,None,None,None,None,None,None,1,1.5297048091888428,None,,,,,0,0,0,0,0,119,119,155,275.61997509002686,,,,,,,,,,,,,,,,,,,,,,,,,,,,,,,,,,,,,,,,,,,,,,,,,,,,,,,,,,,,,,,,,,,,,,,,,,,,,,,,,96.56584161237927,154.68899479369475,193.961740883671,175.1905230082421,178.03856802151003,159.99803029835158,2.1,2.12,-261,-286,0,-261,264,270,275.60115098953247,275.6012303829193,275.6044235229492,275.61997509002686,275.7671129703522,275.7671129703522,275.7671129703522,275.7671129703522,275.7671129703522,275.7671129703522,275.7671129703522,277.1529121398926,1,1.5297048091888428,None,,,,,,,,,,,,,,,,,,223,2,2025-03-10_11h05.53.080,comp,2024.2.4,54.21946562665223,2025-03-10 11h06.01.514059 -0400,
120,120,0,critical,dwh,20.0,1.0,lower,78.0,78.0,57.0,133.0,133.0,57.0,3,0.007879018783569336,None,,,,,0,0,0,0,0,120,120,66,277.16924476623535,,,,,,,,,,,,,,,,,,,,,,,,,,,,,,,,,,,,,,,,,,,,,,,,,,,,,,,,,,,,,,,,,,,,,,,,,,,,,,,,,78.0,78.0,57.0,133.0,133.0,57.0,1.0,1.1,-682,289,-480,253,-289,276,277.15452575683594,277.15460443496704,277.1584815979004,277.16924476623535,,,,,,,,277.1814868450165,3,0.007879018783569336,None,,,,,,,,,,,,,,,,,,223,2,2025-03-10_11h05.53.080,comp,2024.2.4,54.21946562665223,2025-03-10 11h06.01.514059 -0400,
121,121,0,filler_square,None,None,None,None,None,None,None,None,None,None,2,1.2873468399047852,None,,,,,0,0,0,0,0,121,121,177,277.19841742515564,,,,,,,,,,,,,,,,,,,,,,,,,,,,,,,,,,,,,,,,,,,,,,,,,,,,,,,,,,,,,,,,,,,,,,,,,,,,,,,,,109.09314091483975,103.6306331016809,143.95168347610576,143.95168347610576,79.98893087813934,77.49787230937757,4.0,4.2,-220,5,0,-275,207,-7,277.1831829547882,277.18325996398926,277.1861803531647,277.19841742515564,277.3351249694824,277.3351249694824,277.3351249694824,277.3351249694824,277.3351249694824,277.3351249694824,277.3351249694824,278.501357793808,2,1.2873468399047852,None,,,,,,,,,,,,,,,,,,223,2,2025-03-10_11h05.53.080,comp,2024.2.4,54.21946562665223,2025-03-10 11h06.01.514059 -0400,
122,122,0,filler_random,None,None,None,None,None,None,None,None,None,None,2,1.0174109935760498,None,,,,,0,0,0,0,0,122,122,161,278.516809463501,,,,,,,,,,,,,,,,,,,,,,,,,,,,,,,,,,,,,,,,,,,,,,,,,,,,,,,,,,,,,,,,,,,,,,,,,,,,,,,,,87.4179739439456,172.08211720236045,136.87037765807762,190.77944350309238,83.47655343354303,127.12247105075659,2.2,2.22,-277,267,0,-283,255,-269,278.50304436683655,278.5031406879425,278.5064630508423,278.516809463501,278.6750466823578,278.6750466823578,278.6750466823578,278.6750466823578,278.6750466823578,278.6750466823578,278.6750466823578,279.5371584892273,2,1.0174109935760498,None,,,,,,,,,,,,,,,,,,223,2,2025-03-10_11h05.53.080,comp,2024.2.4,54.21946562665223,2025-03-10 11h06.01.514059 -0400,
123,123,0,filler_random,None,None,None,None,None,None,None,None,None,None,3,1.5171990394592285,None,,,,,0,0,0,0,0,123,123,165,279.5527436733246,,,,,,,,,,,,,,,,,,,,,,,,,,,,,,,,,,,,,,,,,,,,,,,,,,,,,,,,,,,,,,,,,,,,,,,,,,,,,,,,,157.92185414363462,95.93927544664523,133.01285417728698,129.8884994469903,172.22742392814445,133.34474971349897,3.0,3.2,-209,-289,0,-13,228,278,279.5389630794525,279.53910207748413,279.54213762283325,279.5527436733246,279.69937086105347,279.69937086105347,279.69937086105347,279.69937086105347,279.69937086105347,279.69937086105347,279.69937086105347,281.08539962768555,3,1.5171990394592285,None,,,,,,,,,,,,,,,,,,223,2,2025-03-10_11h05.53.080,comp,2024.2.4,54.21946562665223,2025-03-10 11h06.01.514059 -0400,
124,124,0,catch,None,None,None,None,None,None,None,None,None,None,3,0.8722920417785645,None,,,,,0,0,0,0,0,124,124,127,281.1014199256897,,,,,,,,,,,,,,,,,,,,,,,,,,,,,,,,,,,,,,,,,,,,,,,,,,,,,,,,,,,,,,,,,,,,,,,,,,,,,,,,,72,118,72,118,129,196,2.1,2.12,-214,-257,0,-270,253,253,281.0873577594757,281.08743596076965,281.09090423583984,281.1014199256897,281.2545955181122,281.2545955181122,281.2545955181122,281.2545955181122,281.2545955181122,281.2545955181122,281.2545955181122,281.98619866371155,3,0.8722920417785645,None,,,,,,,,,,,,,,,,,,223,2,2025-03-10_11h05.53.080,comp,2024.2.4,54.21946562665223,2025-03-10 11h06.01.514059 -0400,
125,125,0,filler_random,None,None,None,None,None,None,None,None,None,None,2,1.2079808712005615,None,,,,,0,0,0,0,0,125,125,132,282.0057022571564,,,,,,,,,,,,,,,,,,,,,,,,,,,,,,,,,,,,,,,,,,,,,,,,,,,,,,,,,,,,,,,,,,,,,,,,,,,,,,,,,160.9363202796896,77.94978224805706,189.78847736600287,135.0255458147409,173.90630409836496,85.9474217660867,3.0,3.2,-202,-283,0,6,206,283,281.9878590106964,281.9879379272461,281.9911959171295,282.0057022571564,282.15340185165405,282.15340185165405,282.15340185165405,282.15340185165405,282.15340185165405,282.15340185165405,282.15340185165405,283.2257878780365,2,1.2079808712005615,None,,,,,,,,,,,,,,,,,,223,2,2025-03-10_11h05.53.080,comp,2024.2.4,54.21946562665223,2025-03-10 11h06.01.514059 -0400,
126,126,0,filler_square,None,None,None,None,None,None,None,None,None,None,1,1.5407617092132568,None,,,,,0,0,0,0,0,126,126,197,283.2414700984955,,,,,,,,,,,,,,,,,,,,,,,,,,,,,,,,,,,,,,,,,,,,,,,,,,,,,,,,,,,,,,,,,,,,,,,,,,,,,,,,,88.07667210142728,88.07667210142728,69.25573533093237,82.69572029971671,84.5151446154596,79.69567806213232,2.1,2.12,-181,-282,0,-266,177,259,283.2276418209076,283.227721452713,283.2306454181671,283.2414700984955,283.38579964637756,283.38579964637756,283.38579964637756,283.38579964637756,283.38579964637756,283.38579964637756,283.38579964637756,284.7843141555786,1,1.5407617092132568,None,,,,,,,,,,,,,,,,,,223,2,2025-03-10_11h05.53.080,comp,2024.2.4,54.21946562665223,2025-03-10 11h06.01.514059 -0400,
127,127,0,catch,None,None,None,None,None,None,None,None,None,None,2,0.8370194435119629,None,,,,,0,0,0,0,0,127,127,122,284.8006603717804,,,,,,,,,,,,,,,,,,,,,,,,,,,,,,,,,,,,,,,,,,,,,,,,,,,,,,,,,,,,,,,,,,,,,,,,,,,,,,,,,62,128,185,140,84,106,2.1,2.11,-230,272,0,279,219,-264,284.78616738319397,284.78624272346497,284.78914046287537,284.8006603717804,284.95328974723816,284.95328974723816,284.95328974723816,284.95328974723816,284.95328974723816,284.95328974723816,284.95328974723816,285.65275740623474,2,0.8370194435119629,None,,,,,,,,,,,,,,,,,,223,2,2025-03-10_11h05.53.080,comp,2024.2.4,54.21946562665223,2025-03-10 11h06.01.514059 -0400,
128,128,0,filler_random,None,None,None,None,None,None,None,None,None,None,3,1.1016459465026855,None,,,,,0,0,0,0,0,128,128,158,285.6723880767822,,,,,,,,,,,,,,,,,,,,,,,,,,,,,,,,,,,,,,,,,,,,,,,,,,,,,,,,,,,,,,,,,,,,,,,,,,,,,,,,,138.87579150449403,72.64492219244003,159.5371422232284,142.96949497246837,194.9285376426858,126.4185484465233,4.0,4.1,-204,-251,0,15,231,-267,285.6545000076294,285.65457701683044,285.65782260894775,285.6723880767822,285.82009530067444,285.82009530067444,285.82009530067444,285.82009530067444,285.82009530067444,285.82009530067444,285.82009530067444,286.78737688064575,3,1.1016459465026855,None,,,,,,,,,,,,,,,,,,223,2,2025-03-10_11h05.53.080,comp,2024.2.4,54.21946562665223,2025-03-10 11h06.01.514059 -0400,
129,129,0,critical,whd,20.0,2.1,lower,57.0,133.0,133.0,57.0,78.0,78.0,2,1.1477489471435547,None,,,,,0,0,0,0,0,129,129,38,286.80237650871277,,,,,,,,,,,,,,,,,,,,,,,,,,,,,,,,,,,,,,,,,,,,,,,,,,,,,,,,,,,,,,,,,,,,,,,,,,,,,,,,,57.0,133.0,133.0,57.0,78.0,78.0,2.1,2.11,-191,282,0,255,164,-257,286.788920879364,286.7889964580536,286.79204773902893,286.80237650871277,286.9531137943268,286.9531137943268,286.9531137943268,286.9531137943268,286.9531137943268,286.9531137943268,286.9531137943268,287.95337748527527,2,1.1477489471435547,None,,,,,,,,,,,,,,,,,,223,2,2025-03-10_11h05.53.080,comp,2024.2.4,54.21946562665223,2025-03-10 11h06.01.514059 -0400,
130,130,0,filler_square,None,None,None,None,None,None,None,None,None,None,2,2.835850477218628,None,,,,,0,0,0,0,0,130,130,193,287.96983766555786,,,,,,,,,,,,,,,,,,,,,,,,,,,,,,,,,,,,,,,,,,,,,,,,,,,,,,,,,,,,,,,,,,,,,,,,,,,,,,,,,68.47687295961057,72.03212791383339,72.55643204194561,72.55643204194561,60.30858337462532,71.31349308147196,4.0,4.2,-168,-8,0,-272,168,-10,287.9551360607147,287.955215215683,287.95830750465393,287.96983766555786,288.1171061992645,288.1171061992645,288.1171061992645,288.1171061992645,288.1171061992645,288.1171061992645,288.1171061992645,290.8234853744507,2,2.835850477218628,None,,,,,,,,,,,,,,,,,,223,2,2025-03-10_11h05.53.080,comp,2024.2.4,54.21946562665223,2025-03-10 11h06.01.514059 -0400,
131,131,0,filler_random,None,None,None,None,None,None,None,None,None,None,2,0.9662654399871826,None,,,,,0,0,0,0,0,131,131,154,290.8398675918579,,,,,,,,,,,,,,,,,,,,,,,,,,,,,,,,,,,,,,,,,,,,,,,,,,,,,,,,,,,,,,,,,,,,,,,,,,,,,,,,,97.3405897716637,179.90408949655614,177.11609774535813,185.09106401041544,84.2123405052543,133.27603198912948,2.1,2.11,-278,265,0,272,255,-283,290.82528281211853,290.825412273407,290.8286657333374,290.8398675918579,290.98810505867004,290.98810505867004,290.98810505867004,290.98810505867004,290.98810505867004,290.98810505867004,290.98810505867004,291.8231911659241,2,0.9662654399871826,None,,,,,,,,,,,,,,,,,,223,2,2025-03-10_11h05.53.080,comp,2024.2.4,54.21946562665223,2025-03-10 11h06.01.514059 -0400,
132,132,0,critical,hdw,35.0,2.1,upper,200.0,125.0,127.0,127.0,125.0,200.0,1,1.0959692001342773,None,,,,,0,0,0,0,0,132,132,45,291.8386571407318,,,,,,,,,,,,,,,,,,,,,,,,,,,,,,,,,,,,,,,,,,,,,,,,,,,,,,,,,,,,,,,,,,,,,,,,,,,,,,,,,200.0,125.0,127.0,127.0,125.0,200.0,2.1,2.11,-222,273,0,283,260,-270,291.82474851608276,291.82482862472534,291.8283188343048,291.8386571407318,291.9859960079193,291.9859960079193,291.9859960079193,291.9859960079193,291.9859960079193,291.9859960079193,291.9859960079193,292.93947172164917,1,1.0959692001342773,None,,,,,,,,,,,,,,,,,,223,2,2025-03-10_11h05.53.080,comp,2024.2.4,54.21946562665223,2025-03-10 11h06.01.514059 -0400,
133,133,0,filler_square,None,None,None,None,None,None,None,None,None,None,2,1.1716234683990479,None,,,,,0,0,0,0,0,133,133,200,292.9541618824005,,,,,,,,,,,,,,,,,,,,,,,,,,,,,,,,,,,,,,,,,,,,,,,,,,,,,,,,,,,,,,,,,,,,,,,,,,,,,,,,,62.671566374312945,79.37402542462218,92.60621728571816,92.60621728571816,71.32722764585237,88.62227213785263,2.2,2.21,-182,-281,0,276,187,255,292.94129633903503,292.94137811660767,292.9444479942322,292.9541618824005,293.10473132133484,293.10473132133484,293.10473132133484,293.10473132133484,293.10473132133484,293.10473132133484,293.10473132133484,294.13952469825745,2,1.1716234683990479,None,,,,,,,,,,,,,,,,,,223,2,2025-03-10_11h05.53.080,comp,2024.2.4,54.21946562665223,2025-03-10 11h06.01.514059 -0400,
134,134,0,filler_square,None,None,None,None,None,None,None,None,None,None,2,1.2020666599273682,None,,,,,0,0,0,0,0,134,134,204,294.1555655002594,,,,,,,,,,,,,,,,,,,,,,,,,,,,,,,,,,,,,,,,,,,,,,,,,,,,,,,,,,,,,,,,,,,,,,,,,,,,,,,,,84.52454344622052,74.59897794418883,108.1316663915181,108.1316663915181,63.93347420528111,70.1278545367329,4.0,4.2,-187,14,0,-275,185,-14,294.1415934562683,294.14167284965515,294.14525747299194,294.1555655002594,294.3032763004303,294.3032763004303,294.3032763004303,294.3032763004303,294.3032763004303,294.3032763004303,294.3032763004303,295.37324118614197,2,1.2020666599273682,None,,,,,,,,,,,,,,,,,,223,2,2025-03-10_11h05.53.080,comp,2024.2.4,54.21946562665223,2025-03-10 11h06.01.514059 -0400,
135,135,0,critical,hdw,20.0,2.1,lower,133.0,57.0,78.0,78.0,57.0,133.0,1,1.105485200881958,None,,,,,0,0,0,0,0,135,135,46,295.38924646377563,,,,,,,,,,,,,,,,,,,,,,,,,,,,,,,,,,,,,,,,,,,,,,,,,,,,,,,,,,,,,,,,,,,,,,,,,,,,,,,,,133.0,57.0,78.0,78.0,57.0,133.0,2.1,2.11,-164,273,0,254,202,-270,295.374773979187,295.3748564720154,295.378924369812,295.38924646377563,295.542760848999,295.542760848999,295.542760848999,295.542760848999,295.542760848999,295.542760848999,295.542760848999,296.49811720848083,1,1.105485200881958,None,,,,,,,,,,,,,,,,,,223,2,2025-03-10_11h05.53.080,comp,2024.2.4,54.21946562665223,2025-03-10 11h06.01.514059 -0400,
136,136,0,critical,dwh,35.0,2.1,upper,127.0,127.0,125.0,200.0,200.0,125.0,2,1.060378074645996,None,,,,,0,0,0,0,0,136,136,5,296.5133264064789,,,,,,,,,,,,,,,,,,,,,,,,,,,,,,,,,,,,,,,,,,,,,,,,,,,,,,,,,,,,,,,,,,,,,,,,,,,,,,,,,127.0,127.0,125.0,200.0,200.0,125.0,2.1,2.11,-260,256,0,261,258,-284,296.4996089935303,296.4996876716614,296.5026035308838,296.5133264064789,296.65446639060974,296.65446639060974,296.65446639060974,296.65446639060974,296.65446639060974,296.65446639060974,296.65446639060974,297.5903949737549,2,1.060378074645996,None,,,,,,,,,,,,,,,,,,223,2,2025-03-10_11h05.53.080,comp,2024.2.4,54.21946562665223,2025-03-10 11h06.01.514059 -0400,
137,137,0,filler_random,None,None,None,None,None,None,None,None,None,None,2,0.8979156017303467,None,,,,,0,0,0,0,0,137,137,151,297.606321811676,,,,,,,,,,,,,,,,,,,,,,,,,,,,,,,,,,,,,,,,,,,,,,,,,,,,,,,,,,,,,,,,,,,,,,,,,,,,,,,,,118.32481285213811,172.86415006829287,184.81524679968302,131.77888358746108,145.46239866267643,121.70915717010993,4.0,4.1,-248,-280,0,-6,223,-265,297.5923807621002,297.5924606323242,297.5959367752075,297.606321811676,297.75779032707214,297.75779032707214,297.75779032707214,297.75779032707214,297.75779032707214,297.75779032707214,297.75779032707214,298.50699734687805,2,0.8979156017303467,None,,,,,,,,,,,,,,,,,,223,2,2025-03-10_11h05.53.080,comp,2024.2.4,54.21946562665223,2025-03-10 11h06.01.514059 -0400,
138,138,0,filler_square,None,None,None,None,None,None,None,None,None,None,3,0.8665714263916016,None,,,,,0,0,0,0,0,138,138,196,298.523268699646,,,,,,,,,,,,,,,,,,,,,,,,,,,,,,,,,,,,,,,,,,,,,,,,,,,,,,,,,,,,,,,,,,,,,,,,,,,,,,,,,74.97057720362572,158.1675405564057,96.06917161414304,74.4015824578521,176.08368758192634,176.08368758192634,3.0,3.1,-212,267,0,-7,221,-287,298.508798122406,298.5088760852814,298.51181077957153,298.523268699646,298.6726679801941,298.6726679801941,298.6726679801941,298.6726679801941,298.6726679801941,298.6726679801941,298.6726679801941,299.40647745132446,3,0.8665714263916016,None,,,,,,,,,,,,,,,,,,223,2,2025-03-10_11h05.53.080,comp,2024.2.4,54.21946562665223,2025-03-10 11h06.01.514059 -0400,
139,139,0,critical,dwh,20.0,1.0,upper,141.0,141.0,125.0,200.0,200.0,125.0,3,1.3591179847717285,None,,,,,0,0,0,0,0,139,139,67,299.42250990867615,,,,,,,,,,,,,,,,,,,,,,,,,,,,,,,,,,,,,,,,,,,,,,,,,,,,,,,,,,,,,,,,,,,,,,,,,,,,,,,,,141.0,141.0,125.0,200.0,200.0,125.0,1.0,1.2,-266,-9,0,15,258,16,299.40795063972473,299.408052444458,299.4110598564148,299.42250990867615,299.5744457244873,299.5744457244873,299.5744457244873,299.5744457244873,299.5744457244873,299.5744457244873,299.5744457244873,300.79195523262024,3,1.3591179847717285,None,,,,,,,,,,,,,,,,,,223,2,2025-03-10_11h05.53.080,comp,2024.2.4,54.21946562665223,2025-03-10 11h06.01.514059 -0400,
