thisN,thisTrialN,thisRepN,effect,order,distance,config,diag,h_1,w_1,h_2,w_2,h_3,w_3,rect_choice.keys,rect_choice.rt,rect_choice.duration,instructions_loop.thisRepN,instructions_loop.thisTrialN,instructions_loop.thisN,instructions_loop.thisIndex,blocks.thisRepN,blocks.thisTrialN,blocks.thisN,blocks.thisIndex,trials.thisRepN,trials.thisTrialN,trials.thisN,trials.thisIndex,thisRow.t,notes,consent.started,agree_button.started,decline_button.started,consent_img.started,mouse.started,consent.stopped,agree_button.numClicks,agree_button.timesOn,agree_button.timesOff,decline_button.numClicks,decline_button.timesOn,decline_button.timesOff,mouse.x,mouse.y,mouse.leftButton,mouse.midButton,mouse.rightButton,mouse.time,mouse.clicked_name,exp_params.started,exp_params.stopped,welcome.started,welcome_text.started,welcome.stopped,instructions_1.started,instructions_1_text_1.started,instructions_1_text_2.started,key_resp.started,instructions_1.stopped,instructions_loop.key_resp.keys,instructions_loop.key_resp.rt,instructions_loop.key_resp.duration,instructions_2.started,instructions_2_text_1.started,instructions_2_text_2.started,key_resp_2.started,instructions_2.stopped,instructions_loop.key_resp_2.keys,instructions_loop.key_resp_2.rt,instructions_loop.key_resp_2.duration,instructions_3.started,instructions_3_text_1.started,r1_instr3.started,r2_instr3.started,r3_instr3.started,r1_instr3_label.started,r2_instr3_label.started,r3_instr3_label.started,instructions_3_text_3.started,instructions_3_text_4.started,key_resp_3.started,instructions_3.stopped,instructions_loop.key_resp_3.keys,instructions_loop.key_resp_3.rt,instructions_loop.key_resp_3.duration,instructions_4.started,instructions_4_text_1.started,instructions_4_text_3.started,instructions_4_text_2.started,key_resp_4.started,instructions_4.stopped,instructions_loop.key_resp_4.keys,instructions_loop.key_resp_4.rt,instructions_loop.key_resp_4.duration,instructions_5.started,instructions_5_text_1.started,instructions_5_text_2.started,key_resp_5.started,instructions_5.stopped,instructions_loop.key_resp_5.keys,instructions_loop.key_resp_5.rt,instructions_loop.key_resp_5.duration,start_exp.started,start_exp_text.started,key_resp_6.started,start_exp.stopped,key_resp_6.keys,key_resp_6.rt,key_resp_6.duration,h_1_tmp,w_1_tmp,h_2_tmp,w_2_tmp,h_3_tmp,w_3_tmp,config_tmp,config_tmp_1,r_1_x,r_1_y,r_2_x,r_2_y,r_3_x,r_3_y,pre_trial.started,pre_trial.stopped,choice_trial.started,rect_choice.started,r_1.started,r_2.started,r_3.started,r_1_label.started,r_2_label.started,r_3_label.started,prompt.started,choice_trial.stopped,trials.rect_choice.keys,trials.rect_choice.rt,trials.rect_choice.duration,end_block.started,end_block_text.started,end_block.stopped,end.started,end_text.started,key_resp_7.started,end.stopped,key_resp_7.keys,key_resp_7.rt,key_resp_7.duration,debriefing.started,debrief_form.started,end_debrief.started,debriefing.stopped,end_debrief.keys,end_debrief.rt,end_debrief.duration,participant,computer,date,expName,psychopyVersion,frameRate,expStart,
,,,,,,,,,,,,,,,,,,,,,,,,,,,,,,,0.014685392379760742,0.03747892379760742,0.03747892379760742,0.03747892379760742,0.014488458633422852,37.55626678466797,1,[37.516353607177734],[37.516385316848755],0,,,[-86.0],[-505.0],[1],[0],[0],[37.54120373725891],['agree_button'],,,,,,,,,,,,,,,,,,,,,,,,,,,,,,,,,,,,,,,,,,,,,,,,,,,,,,,,,,,,,,,,,,,,,,,,,,,,,,,,,,,,,,,,,,,,,,,,,,,,,,,,,,,224,1,2025-03-10_13h23.17.366,comp,2024.2.4,46.59970157909765,2025-03-10 13h24.24.066779 -0400,
,,,,,,,,,,,,,,,,,,,,,,,,,,,,,,,,,,,,,,,,,,,,,,,,,,37.55683994293213,37.55689978599548,,,,,,,,,,,,,,,,,,,,,,,,,,,,,,,,,,,,,,,,,,,,,,,,,,,,,,,,,,,,,,,,,,,,,,,,,,,,,,,,,,,,,,,,,,,,,,,,,,,,,,,,,224,1,2025-03-10_13h23.17.366,comp,2024.2.4,46.59970157909765,2025-03-10 13h24.24.066779 -0400,
,,,,,,,,,,,,,,,,,,,,,,,,,,,,,,,,,,,,,,,,,,,,,,,,,,,,37.556938886642456,37.57506465911865,39.56288957595825,,,,,,,,,,,,,,,,,,,,,,,,,,,,,,,,,,,,,,,,,,,,,,,,,,,,,,,,,,,,,,,,,,,,,,,,,,,,,,,,,,,,,,,,,,,,,,,,,,,,,,224,1,2025-03-10_13h23.17.366,comp,2024.2.4,46.59970157909765,2025-03-10 13h24.24.066779 -0400,
0,0,0,,,,,,,,,,,,,,,0,0,0,0,,,,,,,,,39.57976937294006,,,,,,,,,,,,,,,,,,,,,,,,,,39.56385540962219,39.57976937294006,39.57976937294006,41.06532597541809,44.51724553108215,space,3.445159673690796,None,44.51739525794983,44.53371238708496,44.53371238708496,46.031617164611816,51.652355432510376,space,5.606199026107788,None,51.65250825881958,51.681113719940186,51.681113719940186,51.681113719940186,51.681113719940186,51.681113719940186,51.681113719940186,51.681113719940186,51.681113719940186,51.681113719940186,53.15397834777832,59.856364488601685,space,6.693026304244995,None,59.85653042793274,59.87408113479614,59.87408113479614,59.87408113479614,61.35496664047241,70.29103517532349,space,8.92289137840271,None,70.29118585586548,70.30825352668762,70.30825352668762,71.7873706817627,76.44347929954529,space,4.642573595046997,None,76.44371604919434,76.45923209190369,76.45923209190369,78.02660012245178,space,1.554673433303833,None,,,,,,,,,,,,,,,,,,,,,,,,,,,,,,,,,,,,,,,,,,,,,,,224,1,2025-03-10_13h23.17.366,comp,2024.2.4,46.59970157909765,2025-03-10 13h24.24.066779 -0400,
0,0,0,critical,dhw,35.0,3.0,lower,70.0,70.0,133.0,57.0,57.0,133.0,3,8.810990571975708,None,,,,,0,0,0,0,0,0,0,50,78.09885311126709,,,,,,,,,,,,,,,,,,,,,,,,,,,,,,,,,,,,,,,,,,,,,,,,,,,,,,,,,,,,,,,,,,,,,,,,,,,,,,,,,70.0,70.0,133.0,57.0,57.0,133.0,3.0,3.1,-160,261,0,-3,191,-287,78.08251404762268,78.08254408836365,78.08361864089966,78.09885311126709,78.25090599060059,78.25090599060059,78.25090599060059,78.25090599060059,78.25090599060059,78.25090599060059,78.25090599060059,86.91389775276184,3,8.810990571975708,None,,,,,,,,,,,,,,,,,,224,1,2025-03-10_13h23.17.366,comp,2024.2.4,46.59970157909765,2025-03-10 13h24.24.066779 -0400,
1,1,0,catch,None,None,None,None,None,None,None,None,None,None,3,4.091306447982788,None,,,,,0,0,0,0,0,1,1,120,86.93114376068115,,,,,,,,,,,,,,,,,,,,,,,,,,,,,,,,,,,,,,,,,,,,,,,,,,,,,,,,,,,,,,,,,,,,,,,,,,,,,,,,,114,76,114,76,163,162,1.0,1.3,308,-270,480,-286,695,-273,86.91602611541748,86.91610646247864,86.92015504837036,86.93114376068115,87.08347010612488,87.08347010612488,87.08347010612488,87.08347010612488,87.08347010612488,87.08347010612488,87.08347010612488,91.02593183517456,3,4.091306447982788,None,,,,,,,,,,,,,,,,,,224,1,2025-03-10_13h23.17.366,comp,2024.2.4,46.59970157909765,2025-03-10 13h24.24.066779 -0400,
2,2,0,critical,dwh,35.0,2.1,lower,70.0,70.0,57.0,133.0,133.0,57.0,2,16.98786735534668,None,,,,,0,0,0,0,0,2,2,4,91.04289841651917,,,,,,,,,,,,,,,,,,,,,,,,,,,,,,,,,,,,,,,,,,,,,,,,,,,,,,,,,,,,,,,,,,,,,,,,,,,,,,,,,70.0,70.0,57.0,133.0,133.0,57.0,2.1,2.11,-198,270,0,283,191,-278,91.02752923965454,91.02762937545776,91.03096199035645,91.04289841651917,91.18124198913574,91.18124198913574,91.18124198913574,91.18124198913574,91.18124198913574,91.18124198913574,91.18124198913574,108.03621077537537,2,16.98786735534668,None,,,,,,,,,,,,,,,,,,224,1,2025-03-10_13h23.17.366,comp,2024.2.4,46.59970157909765,2025-03-10 13h24.24.066779 -0400,
3,3,0,critical,hwd,35.0,3.0,upper,200.0,125.0,125.0,200.0,127.0,127.0,2,6.21731972694397,None,,,,,0,0,0,0,0,3,3,99,108.05258107185364,,,,,,,,,,,,,,,,,,,,,,,,,,,,,,,,,,,,,,,,,,,,,,,,,,,,,,,,,,,,,,,,,,,,,,,,,,,,,,,,,200.0,125.0,125.0,200.0,127.0,127.0,3.0,3.2,-258,-267,0,-9,260,287,108.03775119781494,108.03782987594604,108.04095387458801,108.05258107185364,108.20328211784363,108.20328211784363,108.20328211784363,108.20328211784363,108.20328211784363,108.20328211784363,108.20328211784363,114.27333045005798,2,6.21731972694397,None,,,,,,,,,,,,,,,,,,224,1,2025-03-10_13h23.17.366,comp,2024.2.4,46.59970157909765,2025-03-10 13h24.24.066779 -0400,
4,4,0,critical,wdh,35.0,2.1,lower,57.0,133.0,70.0,70.0,133.0,57.0,3,13.797579526901245,None,,,,,0,0,0,0,0,4,4,32,114.28912806510925,,,,,,,,,,,,,,,,,,,,,,,,,,,,,,,,,,,,,,,,,,,,,,,,,,,,,,,,,,,,,,,,,,,,,,,,,,,,,,,,,57.0,133.0,70.0,70.0,133.0,57.0,2.1,2.12,-198,-257,0,-284,160,259,114.27489137649536,114.2749707698822,114.27830410003662,114.28912806510925,114.43855023384094,114.43855023384094,114.43855023384094,114.43855023384094,114.43855023384094,114.43855023384094,114.43855023384094,128.09332966804504,3,13.797579526901245,None,,,,,,,,,,,,,,,,,,224,1,2025-03-10_13h23.17.366,comp,2024.2.4,46.59970157909765,2025-03-10 13h24.24.066779 -0400,
5,5,0,filler_random,None,None,None,None,None,None,None,None,None,None,1,5.063651084899902,None,,,,,0,0,0,0,0,5,5,157,128.11024928092957,,,,,,,,,,,,,,,,,,,,,,,,,,,,,,,,,,,,,,,,,,,,,,,,,,,,,,,,,,,,,,,,,,,,,,,,,,,,,,,,,154.853866361307,184.0537757621383,121.44963972684016,150.35157855840237,145.95035459656967,160.10941187724552,4.0,4.2,-263,0,0,-264,251,14,128.09519219398499,128.09532809257507,128.0986955165863,128.11024928092957,128.26201915740967,128.26201915740967,128.26201915740967,128.26201915740967,128.26201915740967,128.26201915740967,128.26201915740967,133.18554759025574,1,5.063651084899902,None,,,,,,,,,,,,,,,,,,224,1,2025-03-10_13h23.17.366,comp,2024.2.4,46.59970157909765,2025-03-10 13h24.24.066779 -0400,
6,6,0,filler_random,None,None,None,None,None,None,None,None,None,None,3,4.359508752822876,None,,,,,0,0,0,0,0,6,6,166,133.20647358894348,,,,,,,,,,,,,,,,,,,,,,,,,,,,,,,,,,,,,,,,,,,,,,,,,,,,,,,,,,,,,,,,,,,,,,,,,,,,,,,,,74.77890312329852,152.10167821424503,145.75942293977408,78.77790147446288,145.0991610610456,123.89681658891773,4.0,4.1,-211,-289,0,10,197,-258,133.18747568130493,133.18761157989502,133.1908402442932,133.20647358894348,133.34131574630737,133.34131574630737,133.34131574630737,133.34131574630737,133.34131574630737,133.34131574630737,133.34131574630737,137.5820209980011,3,4.359508752822876,None,,,,,,,,,,,,,,,,,,224,1,2025-03-10_13h23.17.366,comp,2024.2.4,46.59970157909765,2025-03-10 13h24.24.066779 -0400,
7,7,0,filler_square,None,None,None,None,None,None,None,None,None,None,3,3.043273448944092,None,,,,,0,0,0,0,0,7,7,183,137.5976800918579,,,,,,,,,,,,,,,,,,,,,,,,,,,,,,,,,,,,,,,,,,,,,,,,,,,,,,,,,,,,,,,,,,,,,,,,,,,,,,,,,80.38246594773855,102.59275670215229,100.81768893894477,115.91624700005521,124.83203596446893,124.83203596446893,1.0,1.3,275,-262,480,-260,696,-259,137.58402156829834,137.58409905433655,137.58731889724731,137.5976800918579,137.75507926940918,137.75507926940918,137.75507926940918,137.75507926940918,137.75507926940918,137.75507926940918,137.75507926940918,140.64947080612183,3,3.043273448944092,None,,,,,,,,,,,,,,,,,,224,1,2025-03-10_13h23.17.366,comp,2024.2.4,46.59970157909765,2025-03-10 13h24.24.066779 -0400,
8,8,0,filler_random,None,None,None,None,None,None,None,None,None,None,1,2.084263801574707,None,,,,,0,0,0,0,0,8,8,158,140.66567015647888,,,,,,,,,,,,,,,,,,,,,,,,,,,,,,,,,,,,,,,,,,,,,,,,,,,,,,,,,,,,,,,,,,,,,,,,,,,,,,,,,171.85267257026038,157.07390406663518,67.26528097413373,141.34920709868078,137.88373935747012,70.0209712676694,3.0,3.2,-245,-267,0,14,202,288,140.6512758731842,140.65135216712952,140.6544268131256,140.66567015647888,140.81242108345032,140.81242108345032,140.81242108345032,140.81242108345032,140.81242108345032,140.81242108345032,140.81242108345032,142.7639570236206,1,2.084263801574707,None,,,,,,,,,,,,,,,,,,224,1,2025-03-10_13h23.17.366,comp,2024.2.4,46.59970157909765,2025-03-10 13h24.24.066779 -0400,
9,9,0,filler_square,None,None,None,None,None,None,None,None,None,None,2,3.746772289276123,None,,,,,0,0,0,0,0,9,9,175,142.78028059005737,,,,,,,,,,,,,,,,,,,,,,,,,,,,,,,,,,,,,,,,,,,,,,,,,,,,,,,,,,,,,,,,,,,,,,,,,,,,,,,,,135.2144538787671,150.19763022537586,171.65917321027248,171.65917321027248,123.2882971535009,91.59805222727823,4.0,4.2,-257,-19,0,-277,228,-6,142.76580238342285,142.76588106155396,142.76875829696655,142.78028059005737,142.93193531036377,142.93193531036377,142.93193531036377,142.93193531036377,142.93193531036377,142.93193531036377,142.93193531036377,146.53255701065063,2,3.746772289276123,None,,,,,,,,,,,,,,,,,,224,1,2025-03-10_13h23.17.366,comp,2024.2.4,46.59970157909765,2025-03-10 13h24.24.066779 -0400,
10,10,0,critical,dhw,35.0,2.1,lower,70.0,70.0,133.0,57.0,57.0,133.0,3,13.321651458740234,None,,,,,0,0,0,0,0,10,10,0,146.54923057556152,,,,,,,,,,,,,,,,,,,,,,,,,,,,,,,,,,,,,,,,,,,,,,,,,,,,,,,,,,,,,,,,,,,,,,,,,,,,,,,,,70.0,70.0,133.0,57.0,57.0,133.0,2.1,2.11,-160,277,0,250,191,-268,146.53413558006287,146.53421664237976,146.53754496574402,146.54923057556152,146.69875597953796,146.69875597953796,146.69875597953796,146.69875597953796,146.69875597953796,146.69875597953796,146.69875597953796,159.87630248069763,3,13.321651458740234,None,,,,,,,,,,,,,,,,,,224,1,2025-03-10_13h23.17.366,comp,2024.2.4,46.59970157909765,2025-03-10 13h24.24.066779 -0400,
11,11,0,filler_square,None,None,None,None,None,None,None,None,None,None,2,3.4812192916870117,None,,,,,0,0,0,0,0,11,11,205,159.89280462265015,,,,,,,,,,,,,,,,,,,,,,,,,,,,,,,,,,,,,,,,,,,,,,,,,,,,,,,,,,,,,,,,,,,,,,,,,,,,,,,,,163.42681054396024,144.5111879009592,184.85773630455853,184.85773630455853,182.01682602126897,136.8417930009031,2.2,2.21,-261,-270,0,275,257,267,159.87811946868896,159.87819933891296,159.88106441497803,159.89280462265015,160.03871154785156,160.03871154785156,160.03871154785156,160.03871154785156,160.03871154785156,160.03871154785156,160.03871154785156,163.38736939430237,2,3.4812192916870117,None,,,,,,,,,,,,,,,,,,224,1,2025-03-10_13h23.17.366,comp,2024.2.4,46.59970157909765,2025-03-10 13h24.24.066779 -0400,
12,12,0,critical,dwh,35.0,4.0,upper,127.0,127.0,125.0,200.0,200.0,125.0,2,6.202444314956665,None,,,,,0,0,0,0,0,12,12,65,163.40357780456543,,,,,,,,,,,,,,,,,,,,,,,,,,,,,,,,,,,,,,,,,,,,,,,,,,,,,,,,,,,,,,,,,,,,,,,,,,,,,,,,,127.0,127.0,125.0,200.0,200.0,125.0,4.0,4.2,-260,-12,0,-286,258,18,163.38902354240417,163.38911604881287,163.39255738258362,163.40357780456543,163.5598702430725,163.5598702430725,163.5598702430725,163.5598702430725,163.5598702430725,163.5598702430725,163.5598702430725,169.61197519302368,2,6.202444314956665,None,,,,,,,,,,,,,,,,,,224,1,2025-03-10_13h23.17.366,comp,2024.2.4,46.59970157909765,2025-03-10 13h24.24.066779 -0400,
13,13,0,critical,dhw,35.0,1.0,upper,127.0,127.0,200.0,125.0,125.0,200.0,3,5.222599029541016,None,,,,,0,0,0,0,0,13,13,49,169.6321177482605,,,,,,,,,,,,,,,,,,,,,,,,,,,,,,,,,,,,,,,,,,,,,,,,,,,,,,,,,,,,,,,,,,,,,,,,,,,,,,,,,127.0,127.0,200.0,125.0,125.0,200.0,1.0,1.1,-702,279,-480,277,-222,258,169.61348128318787,169.61355757713318,169.61642622947693,169.6321177482605,169.77333331108093,169.77333331108093,169.77333331108093,169.77333331108093,169.77333331108093,169.77333331108093,169.77333331108093,174.85817909240723,3,5.222599029541016,None,,,,,,,,,,,,,,,,,,224,1,2025-03-10_13h23.17.366,comp,2024.2.4,46.59970157909765,2025-03-10 13h24.24.066779 -0400,
14,14,0,critical,whd,35.0,4.0,upper,125.0,200.0,200.0,125.0,127.0,127.0,1,11.947047710418701,None,,,,,0,0,0,0,0,14,14,89,174.87559723854065,,,,,,,,,,,,,,,,,,,,,,,,,,,,,,,,,,,,,,,,,,,,,,,,,,,,,,,,,,,,,,,,,,,,,,,,,,,,,,,,,125.0,200.0,200.0,125.0,127.0,127.0,4.0,4.2,-258,-2,0,-285,222,-3,174.85974550247192,174.85984325408936,174.86392760276794,174.87559723854065,175.0247893333435,175.0247893333435,175.0247893333435,175.0247893333435,175.0247893333435,175.0247893333435,175.0247893333435,186.82950162887573,1,11.947047710418701,None,,,,,,,,,,,,,,,,,,224,1,2025-03-10_13h23.17.366,comp,2024.2.4,46.59970157909765,2025-03-10 13h24.24.066779 -0400,
15,15,0,critical,wdh,20.0,1.0,upper,125.0,200.0,141.0,141.0,200.0,125.0,1,14.176286220550537,None,,,,,0,0,0,0,0,15,15,79,186.84560012817383,,,,,,,,,,,,,,,,,,,,,,,,,,,,,,,,,,,,,,,,,,,,,,,,,,,,,,,,,,,,,,,,,,,,,,,,,,,,,,,,,125.0,200.0,141.0,141.0,200.0,125.0,1.0,1.1,-746,283,-480,255,-251,253,186.83108639717102,186.83117389678955,186.8345398902893,186.84560012817383,187.0014786720276,187.0014786720276,187.0014786720276,187.0014786720276,187.0014786720276,187.0014786720276,187.0014786720276,201.0327115058899,1,14.176286220550537,None,,,,,,,,,,,,,,,,,,224,1,2025-03-10_13h23.17.366,comp,2024.2.4,46.59970157909765,2025-03-10 13h24.24.066779 -0400,
16,16,0,critical,wdh,20.0,2.1,lower,57.0,133.0,78.0,78.0,133.0,57.0,1,14.460727453231812,None,,,,,0,0,0,0,0,16,16,34,201.04951310157776,,,,,,,,,,,,,,,,,,,,,,,,,,,,,,,,,,,,,,,,,,,,,,,,,,,,,,,,,,,,,,,,,,,,,,,,,,,,,,,,,57.0,133.0,78.0,78.0,133.0,57.0,2.1,2.12,-202,-251,0,-251,164,256,201.03428149223328,201.0343635082245,201.03790307044983,201.04951310157776,201.2023479938507,201.2023479938507,201.2023479938507,201.2023479938507,201.2023479938507,201.2023479938507,201.2023479938507,215.51575827598572,1,14.460727453231812,None,,,,,,,,,,,,,,,,,,224,1,2025-03-10_13h23.17.366,comp,2024.2.4,46.59970157909765,2025-03-10 13h24.24.066779 -0400,
17,17,0,filler_square,None,None,None,None,None,None,None,None,None,None,3,2.994077682495117,None,,,,,0,0,0,0,0,17,17,188,215.53196668624878,,,,,,,,,,,,,,,,,,,,,,,,,,,,,,,,,,,,,,,,,,,,,,,,,,,,,,,,,,,,,,,,,,,,,,,,,,,,,,,,,138.25416606244227,105.99331080160437,195.69742487606848,137.22160227452707,199.38132663632678,199.38132663632678,2.2,2.21,-218,-258,0,256,264,250,215.5175907611847,215.51768970489502,215.52056121826172,215.53196668624878,215.6708002090454,215.6708002090454,215.6708002090454,215.6708002090454,215.6708002090454,215.6708002090454,215.6708002090454,218.53726291656494,3,2.994077682495117,None,,,,,,,,,,,,,,,,,,224,1,2025-03-10_13h23.17.366,comp,2024.2.4,46.59970157909765,2025-03-10 13h24.24.066779 -0400,
18,18,0,filler_square,None,None,None,None,None,None,None,None,None,None,2,3.787933349609375,None,,,,,0,0,0,0,0,18,18,209,218.55433416366577,,,,,,,,,,,,,,,,,,,,,,,,,,,,,,,,,,,,,,,,,,,,,,,,,,,,,,,,,,,,,,,,,,,,,,,,,,,,,,,,,84.27904190161883,72.2759709878531,104.76261625081708,104.76261625081708,101.6769452321659,77.85096505361787,4.0,4.1,-185,-269,0,-8,187,-258,218.539231300354,218.53931593894958,218.5425398349762,218.55433416366577,218.7055745124817,218.7055745124817,218.7055745124817,218.7055745124817,218.7055745124817,218.7055745124817,218.7055745124817,222.34969902038574,2,3.787933349609375,None,,,,,,,,,,,,,,,,,,224,1,2025-03-10_13h23.17.366,comp,2024.2.4,46.59970157909765,2025-03-10 13h24.24.066779 -0400,
19,19,0,critical,wdh,20.0,3.0,lower,57.0,133.0,78.0,78.0,133.0,57.0,3,13.251966714859009,None,,,,,0,0,0,0,0,19,19,80,222.37046790122986,,,,,,,,,,,,,,,,,,,,,,,,,,,,,,,,,,,,,,,,,,,,,,,,,,,,,,,,,,,,,,,,,,,,,,,,,,,,,,,,,57.0,133.0,78.0,78.0,133.0,57.0,3.0,3.1,-202,256,0,16,164,-281,222.3512580394745,222.35133457183838,222.3546178340912,222.37046790122986,222.50685811042786,222.50685811042786,222.50685811042786,222.50685811042786,222.50685811042786,222.50685811042786,222.50685811042786,235.62599086761475,3,13.251966714859009,None,,,,,,,,,,,,,,,,,,224,1,2025-03-10_13h23.17.366,comp,2024.2.4,46.59970157909765,2025-03-10 13h24.24.066779 -0400,
20,20,0,critical,dwh,20.0,4.0,upper,141.0,141.0,125.0,200.0,200.0,125.0,3,11.423899173736572,None,,,,,0,0,0,0,0,20,20,71,235.64627146720886,,,,,,,,,,,,,,,,,,,,,,,,,,,,,,,,,,,,,,,,,,,,,,,,,,,,,,,,,,,,,,,,,,,,,,,,,,,,,,,,,141.0,141.0,125.0,200.0,200.0,125.0,4.0,4.1,-266,-282,0,-7,258,-273,235.6275360584259,235.62761449813843,235.63068866729736,235.64627146720886,235.79347229003906,235.79347229003906,235.79347229003906,235.79347229003906,235.79347229003906,235.79347229003906,235.79347229003906,247.08938646316528,3,11.423899173736572,None,,,,,,,,,,,,,,,,,,224,1,2025-03-10_13h23.17.366,comp,2024.2.4,46.59970157909765,2025-03-10 13h24.24.066779 -0400,
21,21,0,filler_square,None,None,None,None,None,None,None,None,None,None,1,4.825596332550049,None,,,,,0,0,0,0,0,21,21,178,247.1091182231903,,,,,,,,,,,,,,,,,,,,,,,,,,,,,,,,,,,,,,,,,,,,,,,,,,,,,,,,,,,,,,,,,,,,,,,,,,,,,,,,,105.17550025425649,105.17550025425649,80.8482174880715,95.90716777438793,85.95639229960652,74.35653275566526,2.1,2.12,-197,-280,0,-261,181,260,247.09125900268555,247.09133887290955,247.09426927566528,247.1091182231903,247.24814987182617,247.24814987182617,247.24814987182617,247.24814987182617,247.24814987182617,247.24814987182617,247.24814987182617,251.93685269355774,1,4.825596332550049,None,,,,,,,,,,,,,,,,,,224,1,2025-03-10_13h23.17.366,comp,2024.2.4,46.59970157909765,2025-03-10 13h24.24.066779 -0400,
22,22,0,critical,wdh,35.0,2.1,lower,57.0,133.0,70.0,70.0,133.0,57.0,1,6.403878688812256,None,,,,,0,0,0,0,0,22,22,8,251.95496606826782,,,,,,,,,,,,,,,,,,,,,,,,,,,,,,,,,,,,,,,,,,,,,,,,,,,,,,,,,,,,,,,,,,,,,,,,,,,,,,,,,57.0,133.0,70.0,70.0,133.0,57.0,2.1,2.12,-198,-260,0,-272,160,265,251.93836879730225,251.93844509124756,251.94128251075745,251.95496606826782,252.0998284816742,252.0998284816742,252.0998284816742,252.0998284816742,252.0998284816742,252.0998284816742,252.0998284816742,258.3678276538849,1,6.403878688812256,None,,,,,,,,,,,,,,,,,,224,1,2025-03-10_13h23.17.366,comp,2024.2.4,46.59970157909765,2025-03-10 13h24.24.066779 -0400,
23,23,0,critical,hwd,35.0,2.1,upper,200.0,125.0,125.0,200.0,127.0,127.0,2,3.5981693267822266,None,,,,,0,0,0,0,0,23,23,17,258.3838813304901,,,,,,,,,,,,,,,,,,,,,,,,,,,,,,,,,,,,,,,,,,,,,,,,,,,,,,,,,,,,,,,,,,,,,,,,,,,,,,,,,200.0,125.0,125.0,200.0,127.0,127.0,2.1,2.12,-258,-256,0,-281,260,275,258.3694384098053,258.3695135116577,258.373033285141,258.3838813304901,258.53466057777405,258.53466057777405,258.53466057777405,258.53466057777405,258.53466057777405,258.53466057777405,258.53466057777405,261.9853789806366,2,3.5981693267822266,None,,,,,,,,,,,,,,,,,,224,1,2025-03-10_13h23.17.366,comp,2024.2.4,46.59970157909765,2025-03-10 13h24.24.066779 -0400,
24,24,0,critical,wdh,20.0,2.1,upper,125.0,200.0,141.0,141.0,200.0,125.0,3,11.557097434997559,None,,,,,0,0,0,0,0,24,24,35,262.00143814086914,,,,,,,,,,,,,,,,,,,,,,,,,,,,,,,,,,,,,,,,,,,,,,,,,,,,,,,,,,,,,,,,,,,,,,,,,,,,,,,,,125.0,200.0,141.0,141.0,200.0,125.0,2.1,2.12,-266,-279,0,-287,229,256,261.9869339466095,261.98701071739197,261.99033308029175,262.00143814086914,262.15151047706604,262.15151047706604,262.15151047706604,262.15151047706604,262.15151047706604,262.15151047706604,262.15151047706604,273.56097960472107,3,11.557097434997559,None,,,,,,,,,,,,,,,,,,224,1,2025-03-10_13h23.17.366,comp,2024.2.4,46.59970157909765,2025-03-10 13h24.24.066779 -0400,
25,25,0,critical,hdw,35.0,2.1,upper,200.0,125.0,127.0,127.0,125.0,200.0,3,9.725103378295898,None,,,,,0,0,0,0,0,25,25,45,273.57715225219727,,,,,,,,,,,,,,,,,,,,,,,,,,,,,,,,,,,,,,,,,,,,,,,,,,,,,,,,,,,,,,,,,,,,,,,,,,,,,,,,,200.0,125.0,127.0,127.0,125.0,200.0,2.1,2.11,-222,287,0,258,260,-257,273.5625214576721,273.56259989738464,273.5654890537262,273.57715225219727,273.7222104072571,273.7222104072571,273.7222104072571,273.7222104072571,273.7222104072571,273.7222104072571,273.7222104072571,283.3073568344116,3,9.725103378295898,None,,,,,,,,,,,,,,,,,,224,1,2025-03-10_13h23.17.366,comp,2024.2.4,46.59970157909765,2025-03-10 13h24.24.066779 -0400,
26,26,0,filler_random,None,None,None,None,None,None,None,None,None,None,3,5.165948390960693,None,,,,,0,0,0,0,0,26,26,147,283.3203227519989,,,,,,,,,,,,,,,,,,,,,,,,,,,,,,,,,,,,,,,,,,,,,,,,,,,,,,,,,,,,,,,,,,,,,,,,,,,,,,,,,95.48692778193927,117.33225153455075,96.5976218549167,137.6486142737932,122.52530289413457,155.69864151181673,2.2,2.21,-223,-268,0,278,243,281,283.3079571723938,283.307980298996,283.308886051178,283.3203227519989,283.46536588668823,283.46536588668823,283.46536588668823,283.46536588668823,283.46536588668823,283.46536588668823,283.46536588668823,288.502991437912,3,5.165948390960693,None,,,,,,,,,,,,,,,,,,224,1,2025-03-10_13h23.17.366,comp,2024.2.4,46.59970157909765,2025-03-10 13h24.24.066779 -0400,
27,27,0,filler_square,None,None,None,None,None,None,None,None,None,None,3,3.514915943145752,None,,,,,0,0,0,0,0,27,27,187,288.5231668949127,,,,,,,,,,,,,,,,,,,,,,,,,,,,,,,,,,,,,,,,,,,,,,,,,,,,,,,,,,,,,,,,,,,,,,,,,,,,,,,,,85.41010832440858,58.03131431368509,126.1476844603201,167.45937772500787,172.18072047650804,172.18072047650804,2.2,2.22,-209,289,0,-271,266,-256,288.50504755973816,288.5051577091217,288.5083808898926,288.5231668949127,288.65775847435,288.65775847435,288.65775847435,288.65775847435,288.65775847435,288.65775847435,288.65775847435,292.0492968559265,3,3.514915943145752,None,,,,,,,,,,,,,,,,,,224,1,2025-03-10_13h23.17.366,comp,2024.2.4,46.59970157909765,2025-03-10 13h24.24.066779 -0400,
28,28,0,filler_random,None,None,None,None,None,None,None,None,None,None,1,2.0578744411468506,None,,,,,0,0,0,0,0,28,28,155,292.068297624588,,,,,,,,,,,,,,,,,,,,,,,,,,,,,,,,,,,,,,,,,,,,,,,,,,,,,,,,,,,,,,,,,,,,,,,,,,,,,,,,,179.8141040738593,110.6089384837365,123.8817321235718,93.28651280228492,117.77388645653441,60.69439171607265,1.0,1.2,-198,-17,0,-14,173,-4,292.05104303359985,292.05113673210144,292.05408453941345,292.068297624588,292.21182084083557,292.21182084083557,292.21182084083557,292.21182084083557,292.21182084083557,292.21182084083557,292.21182084083557,294.1304907798767,1,2.0578744411468506,None,,,,,,,,,,,,,,,,,,224,1,2025-03-10_13h23.17.366,comp,2024.2.4,46.59970157909765,2025-03-10 13h24.24.066779 -0400,
29,29,0,critical,dwh,35.0,1.0,lower,70.0,70.0,57.0,133.0,133.0,57.0,3,9.755698919296265,None,,,,,0,0,0,0,0,29,29,60,294.14862394332886,,,,,,,,,,,,,,,,,,,,,,,,,,,,,,,,,,,,,,,,,,,,,,,,,,,,,,,,,,,,,,,,,,,,,,,,,,,,,,,,,70.0,70.0,57.0,133.0,133.0,57.0,1.0,1.3,282,-285,480,-253,671,-261,294.132230758667,294.13235902786255,294.135701417923,294.14862394332886,294.29673194885254,294.29673194885254,294.29673194885254,294.29673194885254,294.29673194885254,294.29673194885254,294.29673194885254,303.9153022766113,3,9.755698919296265,None,,,,,,,,,,,,,,,,,,224,1,2025-03-10_13h23.17.366,comp,2024.2.4,46.59970157909765,2025-03-10 13h24.24.066779 -0400,
30,30,0,critical,hdw,35.0,3.0,lower,133.0,57.0,70.0,70.0,57.0,133.0,3,4.866611957550049,None,,,,,0,0,0,0,0,30,30,110,303.9315712451935,,,,,,,,,,,,,,,,,,,,,,,,,,,,,,,,,,,,,,,,,,,,,,,,,,,,,,,,,,,,,,,,,,,,,,,,,,,,,,,,,133.0,57.0,70.0,70.0,57.0,133.0,3.0,3.2,-160,-285,0,5,198,262,303.9170572757721,303.91719913482666,303.9207937717438,303.9315712451935,304.0846891403198,304.0846891403198,304.0846891403198,304.0846891403198,304.0846891403198,304.0846891403198,304.0846891403198,308.8008620738983,3,4.866611957550049,None,,,,,,,,,,,,,,,,,,224,1,2025-03-10_13h23.17.366,comp,2024.2.4,46.59970157909765,2025-03-10 13h24.24.066779 -0400,
31,31,0,critical,whd,35.0,2.1,lower,57.0,133.0,133.0,57.0,70.0,70.0,1,5.465684652328491,None,,,,,0,0,0,0,0,31,31,36,308.82131838798523,,,,,,,,,,,,,,,,,,,,,,,,,,,,,,,,,,,,,,,,,,,,,,,,,,,,,,,,,,,,,,,,,,,,,,,,,,,,,,,,,57.0,133.0,133.0,57.0,70.0,70.0,2.1,2.12,-191,-272,0,-258,160,256,308.80233550071716,308.8024106025696,308.8056049346924,308.82131838798523,308.96680068969727,308.96680068969727,308.96680068969727,308.96680068969727,308.96680068969727,308.96680068969727,308.96680068969727,314.2948212623596,1,5.465684652328491,None,,,,,,,,,,,,,,,,,,224,1,2025-03-10_13h23.17.366,comp,2024.2.4,46.59970157909765,2025-03-10 13h24.24.066779 -0400,
32,32,0,filler_square,None,None,None,None,None,None,None,None,None,None,3,2.790753126144409,None,,,,,0,0,0,0,0,32,32,176,314.3113534450531,,,,,,,,,,,,,,,,,,,,,,,,,,,,,,,,,,,,,,,,,,,,,,,,,,,,,,,,,,,,,,,,,,,,,,,,,,,,,,,,,97.92334030410072,88.40677970915547,83.70819916151105,91.40639526784875,103.5767536732981,103.5767536732981,2.2,2.21,-186,-269,0,266,193,272,314.2966134548187,314.29672956466675,314.2995858192444,314.3113534450531,314.45637941360474,314.45637941360474,314.45637941360474,314.45637941360474,314.45637941360474,314.45637941360474,314.45637941360474,317.1192617416382,3,2.790753126144409,None,,,,,,,,,,,,,,,,,,224,1,2025-03-10_13h23.17.366,comp,2024.2.4,46.59970157909765,2025-03-10 13h24.24.066779 -0400,
33,33,0,critical,wdh,35.0,2.1,upper,125.0,200.0,127.0,127.0,200.0,125.0,1,7.519325017929077,None,,,,,0,0,0,0,0,33,33,9,317.13553619384766,,,,,,,,,,,,,,,,,,,,,,,,,,,,,,,,,,,,,,,,,,,,,,,,,,,,,,,,,,,,,,,,,,,,,,,,,,,,,,,,,125.0,200.0,127.0,127.0,200.0,125.0,2.1,2.11,-260,274,0,275,222,-288,317.1207957267761,317.12088894844055,317.12406635284424,317.13553619384766,317.28724360466003,317.28724360466003,317.28724360466003,317.28724360466003,317.28724360466003,317.28724360466003,317.28724360466003,324.6622576713562,1,7.519325017929077,None,,,,,,,,,,,,,,,,,,224,1,2025-03-10_13h23.17.366,comp,2024.2.4,46.59970157909765,2025-03-10 13h24.24.066779 -0400,
34,34,0,critical,dwh,20.0,2.1,lower,78.0,78.0,57.0,133.0,133.0,57.0,3,13.839776277542114,None,,,,,0,0,0,0,0,34,34,6,324.6783638000488,,,,,,,,,,,,,,,,,,,,,,,,,,,,,,,,,,,,,,,,,,,,,,,,,,,,,,,,,,,,,,,,,,,,,,,,,,,,,,,,,78.0,78.0,57.0,133.0,133.0,57.0,2.1,2.12,-202,-288,0,-284,191,254,324.6639566421509,324.6640486717224,324.6673483848572,324.6783638000488,324.82070422172546,324.82070422172546,324.82070422172546,324.82070422172546,324.82070422172546,324.82070422172546,324.82070422172546,338.53506350517273,3,13.839776277542114,None,,,,,,,,,,,,,,,,,,224,1,2025-03-10_13h23.17.366,comp,2024.2.4,46.59970157909765,2025-03-10 13h24.24.066779 -0400,
35,35,0,critical,whd,35.0,1.0,lower,57.0,133.0,133.0,57.0,70.0,70.0,1,9.127603769302368,None,,,,,0,0,0,0,0,35,35,84,338.55061173439026,,,,,,,,,,,,,,,,,,,,,,,,,,,,,,,,,,,,,,,,,,,,,,,,,,,,,,,,,,,,,,,,,,,,,,,,,,,,,,,,,57.0,133.0,133.0,57.0,70.0,70.0,1.0,1.1,-671,256,-480,251,-320,284,338.5366747379303,338.5367548465729,338.54006004333496,338.55061173439026,338.69790148735046,338.69790148735046,338.69790148735046,338.69790148735046,338.69790148735046,338.69790148735046,338.69790148735046,347.6992847919464,1,9.127603769302368,None,,,,,,,,,,,,,,,,,,224,1,2025-03-10_13h23.17.366,comp,2024.2.4,46.59970157909765,2025-03-10 13h24.24.066779 -0400,
36,36,0,filler_random,None,None,None,None,None,None,None,None,None,None,1,13.694950580596924,None,,,,,0,0,0,0,0,36,36,168,347.71992802619934,,,,,,,,,,,,,,,,,,,,,,,,,,,,,,,,,,,,,,,,,,,,,,,,,,,,,,,,,,,,,,,,,,,,,,,,,,,,,,,,,162.43453045397115,118.2851961297672,87.84986259311525,192.45341110366877,108.22563532312994,155.10990744977443,2.2,2.22,-251,278,0,-273,270,-255,347.7014811038971,347.70156359672546,347.7044885158539,347.71992802619934,347.8644189834595,347.8644189834595,347.8644189834595,347.8644189834595,347.8644189834595,347.8644189834595,347.8644189834595,361.4195716381073,1,13.694950580596924,None,,,,,,,,,,,,,,,,,,224,1,2025-03-10_13h23.17.366,comp,2024.2.4,46.59970157909765,2025-03-10 13h24.24.066779 -0400,
37,37,0,critical,dhw,20.0,2.1,upper,141.0,141.0,200.0,125.0,125.0,200.0,3,3.314530611038208,None,,,,,0,0,0,0,0,37,37,27,361.435711145401,,,,,,,,,,,,,,,,,,,,,,,,,,,,,,,,,,,,,,,,,,,,,,,,,,,,,,,,,,,,,,,,,,,,,,,,,,,,,,,,,141.0,141.0,200.0,125.0,125.0,200.0,2.1,2.12,-229,-276,0,-250,258,279,361.42123556137085,361.42135429382324,361.424777507782,361.435711145401,361.58173632621765,361.58173632621765,361.58173632621765,361.58173632621765,361.58173632621765,361.58173632621765,361.58173632621765,364.76517128944397,3,3.314530611038208,None,,,,,,,,,,,,,,,,,,224,1,2025-03-10_13h23.17.366,comp,2024.2.4,46.59970157909765,2025-03-10 13h24.24.066779 -0400,
38,38,0,critical,dwh,20.0,2.1,upper,141.0,141.0,125.0,200.0,200.0,125.0,2,8.518915891647339,None,,,,,0,0,0,0,0,38,38,7,364.7840085029602,,,,,,,,,,,,,,,,,,,,,,,,,,,,,,,,,,,,,,,,,,,,,,,,,,,,,,,,,,,,,,,,,,,,,,,,,,,,,,,,,141.0,141.0,125.0,200.0,200.0,125.0,2.1,2.12,-266,-285,0,-252,258,285,364.7666974067688,364.76677441596985,364.7695984840393,364.7840085029602,364.9185628890991,364.9185628890991,364.9185628890991,364.9185628890991,364.9185628890991,364.9185628890991,364.9185628890991,373.308509349823,2,8.518915891647339,None,,,,,,,,,,,,,,,,,,224,1,2025-03-10_13h23.17.366,comp,2024.2.4,46.59970157909765,2025-03-10 13h24.24.066779 -0400,
39,39,0,critical,dwh,20.0,2.1,upper,141.0,141.0,125.0,200.0,200.0,125.0,2,6.400206804275513,None,,,,,0,0,0,0,0,39,39,31,373.3260865211487,,,,,,,,,,,,,,,,,,,,,,,,,,,,,,,,,,,,,,,,,,,,,,,,,,,,,,,,,,,,,,,,,,,,,,,,,,,,,,,,,141.0,141.0,125.0,200.0,200.0,125.0,2.1,2.12,-266,-250,0,-289,258,268,373.3101143836975,373.31019496917725,373.31314754486084,373.3260865211487,373.46775579452515,373.46775579452515,373.46775579452515,373.46775579452515,373.46775579452515,373.46775579452515,373.46775579452515,379.7399892807007,2,6.400206804275513,None,,,,,,,,,,,,,,,,,,224,1,2025-03-10_13h23.17.366,comp,2024.2.4,46.59970157909765,2025-03-10 13h24.24.066779 -0400,
40,40,0,critical,dwh,35.0,2.1,upper,127.0,127.0,125.0,200.0,200.0,125.0,2,3.9780032634735107,None,,,,,0,0,0,0,0,40,40,29,379.75643134117126,,,,,,,,,,,,,,,,,,,,,,,,,,,,,,,,,,,,,,,,,,,,,,,,,,,,,,,,,,,,,,,,,,,,,,,,,,,,,,,,,127.0,127.0,125.0,200.0,200.0,125.0,2.1,2.12,-260,-255,0,-253,258,256,379.7415771484375,379.74170303344727,379.74517369270325,379.75643134117126,379.90596628189087,379.90596628189087,379.90596628189087,379.90596628189087,379.90596628189087,379.90596628189087,379.90596628189087,383.7463946342468,2,3.9780032634735107,None,,,,,,,,,,,,,,,,,,224,1,2025-03-10_13h23.17.366,comp,2024.2.4,46.59970157909765,2025-03-10 13h24.24.066779 -0400,
41,41,0,critical,dhw,20.0,3.0,lower,78.0,78.0,133.0,57.0,57.0,133.0,3,4.561041355133057,None,,,,,0,0,0,0,0,41,41,56,383.7650761604309,,,,,,,,,,,,,,,,,,,,,,,,,,,,,,,,,,,,,,,,,,,,,,,,,,,,,,,,,,,,,,,,,,,,,,,,,,,,,,,,,78.0,78.0,133.0,57.0,57.0,133.0,3.0,3.1,-164,278,0,11,191,-273,383.747926235199,383.7480037212372,383.7508952617645,383.7650761604309,383.9063127040863,383.9063127040863,383.9063127040863,383.9063127040863,383.9063127040863,383.9063127040863,383.9063127040863,388.34529995918274,3,4.561041355133057,None,,,,,,,,,,,,,,,,,,224,1,2025-03-10_13h23.17.366,comp,2024.2.4,46.59970157909765,2025-03-10 13h24.24.066779 -0400,
42,42,0,filler_random,None,None,None,None,None,None,None,None,None,None,1,2.1525347232818604,None,,,,,0,0,0,0,0,42,42,154,388.3657138347626,,,,,,,,,,,,,,,,,,,,,,,,,,,,,,,,,,,,,,,,,,,,,,,,,,,,,,,,,,,,,,,,,,,,,,,,,,,,,,,,,178.35566102364322,158.07573641354563,171.1446911685797,58.66396933558574,105.43865827490615,172.19833465314838,1.0,1.3,276,-266,480,-278,691,-256,388.34716963768005,388.3472526073456,388.3504114151001,388.3657138347626,388.5088164806366,388.5088164806366,388.5088164806366,388.5088164806366,388.5088164806366,388.5088164806366,388.5088164806366,390.5324923992157,1,2.1525347232818604,None,,,,,,,,,,,,,,,,,,224,1,2025-03-10_13h23.17.366,comp,2024.2.4,46.59970157909765,2025-03-10 13h24.24.066779 -0400,
43,43,0,filler_random,None,None,None,None,None,None,None,None,None,None,3,3.3978939056396484,None,,,,,0,0,0,0,0,43,43,145,390.5524401664734,,,,,,,,,,,,,,,,,,,,,,,,,,,,,,,,,,,,,,,,,,,,,,,,,,,,,,,,,,,,,,,,,,,,,,,,,,,,,,,,,107.76456375503132,195.30202346910107,102.06921616187202,198.76787965664954,180.71439404957812,152.71833254045634,2.2,2.21,-293,-285,0,273,272,274,390.53419518470764,390.5342698097229,390.5372142791748,390.5524401664734,390.69298815727234,390.69298815727234,390.69298815727234,390.69298815727234,390.69298815727234,390.69298815727234,390.69298815727234,393.9699168205261,3,3.3978939056396484,None,,,,,,,,,,,,,,,,,,224,1,2025-03-10_13h23.17.366,comp,2024.2.4,46.59970157909765,2025-03-10 13h24.24.066779 -0400,
44,44,0,critical,dhw,20.0,4.0,lower,78.0,78.0,133.0,57.0,57.0,133.0,2,8.669076681137085,None,,,,,0,0,0,0,0,44,44,58,393.9861629009247,,,,,,,,,,,,,,,,,,,,,,,,,,,,,,,,,,,,,,,,,,,,,,,,,,,,,,,,,,,,,,,,,,,,,,,,,,,,,,,,,78.0,78.0,133.0,57.0,57.0,133.0,4.0,4.2,-164,-2,0,-287,191,-20,393.9709823131561,393.9710125923157,393.97216415405273,393.9861629009247,394.1273260116577,394.1273260116577,394.1273260116577,394.1273260116577,394.1273260116577,394.1273260116577,394.1273260116577,402.6631679534912,2,8.669076681137085,None,,,,,,,,,,,,,,,,,,224,1,2025-03-10_13h23.17.366,comp,2024.2.4,46.59970157909765,2025-03-10 13h24.24.066779 -0400,
45,45,0,critical,dhw,20.0,2.1,upper,141.0,141.0,200.0,125.0,125.0,200.0,3,3.559382200241089,None,,,,,0,0,0,0,0,45,45,3,402.67992424964905,,,,,,,,,,,,,,,,,,,,,,,,,,,,,,,,,,,,,,,,,,,,,,,,,,,,,,,,,,,,,,,,,,,,,,,,,,,,,,,,,141.0,141.0,200.0,125.0,125.0,200.0,2.1,2.11,-229,286,0,285,258,-250,402.6647484302521,402.66484689712524,402.66890358924866,402.67992424964905,402.8278908729553,402.8278908729553,402.8278908729553,402.8278908729553,402.8278908729553,402.8278908729553,402.8278908729553,406.2504277229309,3,3.559382200241089,None,,,,,,,,,,,,,,,,,,224,1,2025-03-10_13h23.17.366,comp,2024.2.4,46.59970157909765,2025-03-10 13h24.24.066779 -0400,
46,46,0,filler_random,None,None,None,None,None,None,None,None,None,None,1,3.372579336166382,None,,,,,0,0,0,0,0,46,46,141,406.26639008522034,,,,,,,,,,,,,,,,,,,,,,,,,,,,,,,,,,,,,,,,,,,,,,,,,,,,,,,,,,,,,,,,,,,,,,,,,,,,,,,,,175.40928595925055,125.07141510642356,167.45090049549697,99.4741744664561,90.16505259190964,93.69110295448823,4.0,4.2,-208,6,0,-267,193,-4,406.25221014022827,406.25229144096375,406.2554786205292,406.26639008522034,406.41498923301697,406.41498923301697,406.41498923301697,406.41498923301697,406.41498923301697,406.41498923301697,406.41498923301697,409.64849376678467,1,3.372579336166382,None,,,,,,,,,,,,,,,,,,224,1,2025-03-10_13h23.17.366,comp,2024.2.4,46.59970157909765,2025-03-10 13h24.24.066779 -0400,
47,47,0,critical,dwh,20.0,2.1,lower,78.0,78.0,57.0,133.0,133.0,57.0,3,21.39767098426819,None,,,,,0,0,0,0,0,47,47,30,409.66529083251953,,,,,,,,,,,,,,,,,,,,,,,,,,,,,,,,,,,,,,,,,,,,,,,,,,,,,,,,,,,,,,,,,,,,,,,,,,,,,,,,,78.0,78.0,57.0,133.0,133.0,57.0,2.1,2.12,-202,-252,0,-257,191,263,409.6500849723816,409.6501624584198,409.65447640419006,409.66529083251953,409.81382393836975,409.81382393836975,409.81382393836975,409.81382393836975,409.81382393836975,409.81382393836975,409.81382393836975,431.0723752975464,3,21.39767098426819,None,,,,,,,,,,,,,,,,,,224,1,2025-03-10_13h23.17.366,comp,2024.2.4,46.59970157909765,2025-03-10 13h24.24.066779 -0400,
48,48,0,critical,wdh,35.0,3.0,lower,57.0,133.0,70.0,70.0,133.0,57.0,1,8.349402666091919,None,,,,,0,0,0,0,0,48,48,74,431.0890519618988,,,,,,,,,,,,,,,,,,,,,,,,,,,,,,,,,,,,,,,,,,,,,,,,,,,,,,,,,,,,,,,,,,,,,,,,,,,,,,,,,57.0,133.0,70.0,70.0,133.0,57.0,3.0,3.1,-198,255,0,2,160,-261,431.0740008354187,431.07408022880554,431.0782353878021,431.0890519618988,431.23694491386414,431.23694491386414,431.23694491386414,431.23694491386414,431.23694491386414,431.23694491386414,431.23694491386414,439.4580578804016,1,8.349402666091919,None,,,,,,,,,,,,,,,,,,224,1,2025-03-10_13h23.17.366,comp,2024.2.4,46.59970157909765,2025-03-10 13h24.24.066779 -0400,
49,49,0,critical,hdw,35.0,2.1,lower,133.0,57.0,70.0,70.0,57.0,133.0,3,3.290815830230713,None,,,,,0,0,0,0,0,49,49,20,439.4762363433838,,,,,,,,,,,,,,,,,,,,,,,,,,,,,,,,,,,,,,,,,,,,,,,,,,,,,,,,,,,,,,,,,,,,,,,,,,,,,,,,,133.0,57.0,70.0,70.0,57.0,133.0,2.1,2.11,-160,268,0,267,198,-271,439.4595229625702,439.459597826004,439.4635317325592,439.4762363433838,439.62386417388916,439.62386417388916,439.62386417388916,439.62386417388916,439.62386417388916,439.62386417388916,439.62386417388916,442.7754728794098,3,3.290815830230713,None,,,,,,,,,,,,,,,,,,224,1,2025-03-10_13h23.17.366,comp,2024.2.4,46.59970157909765,2025-03-10 13h24.24.066779 -0400,
50,50,0,filler_random,None,None,None,None,None,None,None,None,None,None,2,3.1661410331726074,None,,,,,0,0,0,0,0,50,50,162,442.79216480255127,,,,,,,,,,,,,,,,,,,,,,,,,,,,,,,,,,,,,,,,,,,,,,,,,,,,,,,,,,,,,,,,,,,,,,,,,,,,,,,,,72.73333694612072,129.06660678412337,196.0553132055644,66.73495491659823,95.85887006603136,99.37204784705165,3.0,3.1,-194,261,0,1,179,-279,442.7771620750427,442.77724170684814,442.78130865097046,442.79216480255127,442.94330072402954,442.94330072402954,442.94330072402954,442.94330072402954,442.94330072402954,442.94330072402954,442.94330072402954,445.97457909584045,2,3.1661410331726074,None,,,,,,,,,,,,,,,,,,224,1,2025-03-10_13h23.17.366,comp,2024.2.4,46.59970157909765,2025-03-10 13h24.24.066779 -0400,
51,51,0,filler_random,None,None,None,None,None,None,None,None,None,None,1,2.117666006088257,None,,,,,0,0,0,0,0,51,51,138,445.992712020874,,,,,,,,,,,,,,,,,,,,,,,,,,,,,,,,,,,,,,,,,,,,,,,,,,,,,,,,,,,,,,,,,,,,,,,,,,,,,,,,,133.93836393204907,153.65198128956692,133.55412577006948,69.78686492637297,161.2241302625029,61.27604378785258,4.0,4.2,-208,11,0,-283,162,10,445.97654604911804,445.97666335105896,445.9798858165741,445.992712020874,446.1427412033081,446.1427412033081,446.1427412033081,446.1427412033081,446.1427412033081,446.1427412033081,446.1427412033081,448.1291079521179,1,2.117666006088257,None,,,,,,,,,,,,,,,,,,224,1,2025-03-10_13h23.17.366,comp,2024.2.4,46.59970157909765,2025-03-10 13h24.24.066779 -0400,
52,52,0,critical,whd,20.0,1.0,upper,125.0,200.0,200.0,125.0,141.0,141.0,2,9.667795896530151,None,,,,,0,0,0,0,0,52,52,91,448.1464829444885,,,,,,,,,,,,,,,,,,,,,,,,,,,,,,,,,,,,,,,,,,,,,,,,,,,,,,,,,,,,,,,,,,,,,,,,,,,,,,,,,125.0,200.0,200.0,125.0,141.0,141.0,1.0,1.2,-258,6,0,-3,229,-19,448.1307706832886,448.1308493614197,448.1338953971863,448.1464829444885,448.29453229904175,448.29453229904175,448.29453229904175,448.29453229904175,448.29453229904175,448.29453229904175,448.29453229904175,457.8303565979004,2,9.667795896530151,None,,,,,,,,,,,,,,,,,,224,1,2025-03-10_13h23.17.366,comp,2024.2.4,46.59970157909765,2025-03-10 13h24.24.066779 -0400,
53,53,0,critical,hdw,35.0,1.0,upper,200.0,125.0,127.0,127.0,125.0,200.0,3,7.6722540855407715,None,,,,,0,0,0,0,0,53,53,109,457.84600949287415,,,,,,,,,,,,,,,,,,,,,,,,,,,,,,,,,,,,,,,,,,,,,,,,,,,,,,,,,,,,,,,,,,,,,,,,,,,,,,,,,200.0,125.0,127.0,127.0,125.0,200.0,1.0,1.3,258,-257,480,-258,740,-252,457.83201360702515,457.83208870887756,457.83556270599365,457.84600949287415,458.00034189224243,458.00034189224243,458.00034189224243,458.00034189224243,458.00034189224243,458.00034189224243,458.00034189224243,465.5310637950897,3,7.6722540855407715,None,,,,,,,,,,,,,,,,,,224,1,2025-03-10_13h23.17.366,comp,2024.2.4,46.59970157909765,2025-03-10 13h24.24.066779 -0400,
54,54,0,critical,dwh,35.0,3.0,upper,127.0,127.0,125.0,200.0,200.0,125.0,2,2.019334316253662,None,,,,,0,0,0,0,0,54,54,63,465.54705476760864,,,,,,,,,,,,,,,,,,,,,,,,,,,,,,,,,,,,,,,,,,,,,,,,,,,,,,,,,,,,,,,,,,,,,,,,,,,,,,,,,127.0,127.0,125.0,200.0,200.0,125.0,3.0,3.2,-260,-255,0,7,258,253,465.5325183868408,465.5325930118561,465.53559279441833,465.54705476760864,465.7041826248169,465.7041826248169,465.7041826248169,465.7041826248169,465.7041826248169,465.7041826248169,465.7041826248169,467.5825777053833,2,2.019334316253662,None,,,,,,,,,,,,,,,,,,224,1,2025-03-10_13h23.17.366,comp,2024.2.4,46.59970157909765,2025-03-10 13h24.24.066779 -0400,
55,55,0,critical,hdw,20.0,2.1,upper,200.0,125.0,141.0,141.0,125.0,200.0,3,2.625481605529785,None,,,,,0,0,0,0,0,55,55,47,467.59907364845276,,,,,,,,,,,,,,,,,,,,,,,,,,,,,,,,,,,,,,,,,,,,,,,,,,,,,,,,,,,,,,,,,,,,,,,,,,,,,,,,,200.0,125.0,141.0,141.0,125.0,200.0,2.1,2.11,-229,288,0,267,266,-255,467.58420515060425,467.5843245983124,467.5878312587738,467.59907364845276,467.75624680519104,467.75624680519104,467.75624680519104,467.75624680519104,467.75624680519104,467.75624680519104,467.75624680519104,470.23528027534485,3,2.625481605529785,None,,,,,,,,,,,,,,,,,,224,1,2025-03-10_13h23.17.366,comp,2024.2.4,46.59970157909765,2025-03-10 13h24.24.066779 -0400,
56,56,0,filler_random,None,None,None,None,None,None,None,None,None,None,1,2.5149741172790527,None,,,,,0,0,0,0,0,56,56,161,470.2515015602112,,,,,,,,,,,,,,,,,,,,,,,,,,,,,,,,,,,,,,,,,,,,,,,,,,,,,,,,,,,,,,,,,,,,,,,,,,,,,,,,,196.77393079738343,83.95311468760299,94.59626281175558,68.82759237237953,155.07592368793567,77.8857091182186,4.0,4.2,-172,8,0,-263,169,18,470.2370228767395,470.2371084690094,470.24055314064026,470.2515015602112,470.39956974983215,470.39956974983215,470.39956974983215,470.39956974983215,470.39956974983215,470.39956974983215,470.39956974983215,472.78416299819946,1,2.5149741172790527,None,,,,,,,,,,,,,,,,,,224,1,2025-03-10_13h23.17.366,comp,2024.2.4,46.59970157909765,2025-03-10 13h24.24.066779 -0400,
57,57,0,filler_square,None,None,None,None,None,None,None,None,None,None,3,2.0666685104370117,None,,,,,0,0,0,0,0,57,57,190,472.8042640686035,,,,,,,,,,,,,,,,,,,,,,,,,,,,,,,,,,,,,,,,,,,,,,,,,,,,,,,,,,,,,,,,,,,,,,,,,,,,,,,,,112.25044275008713,97.79377139609417,196.00947445961842,196.00947445961842,161.9930641297317,194.30091047793326,3.0,3.1,-243,284,0,-4,291,-277,472.78593039512634,472.78600573539734,472.78920698165894,472.8042640686035,472.9515995979309,472.9515995979309,472.9515995979309,472.9515995979309,472.9515995979309,472.9515995979309,472.9515995979309,474.8798041343689,3,2.0666685104370117,None,,,,,,,,,,,,,,,,,,224,1,2025-03-10_13h23.17.366,comp,2024.2.4,46.59970157909765,2025-03-10 13h24.24.066779 -0400,
58,58,0,critical,whd,20.0,1.0,lower,57.0,133.0,133.0,57.0,78.0,78.0,1,7.345600605010986,None,,,,,0,0,0,0,0,58,58,90,474.90060234069824,,,,,,,,,,,,,,,,,,,,,,,,,,,,,,,,,,,,,,,,,,,,,,,,,,,,,,,,,,,,,,,,,,,,,,,,,,,,,,,,,57.0,133.0,133.0,57.0,78.0,78.0,1.0,1.3,289,-287,480,-253,644,-285,474.88184213638306,474.8819227218628,474.884872674942,474.90060234069824,475.03778648376465,475.03778648376465,475.03778648376465,475.03778648376465,475.03778648376465,475.03778648376465,475.03778648376465,482.25533294677734,1,7.345600605010986,None,,,,,,,,,,,,,,,,,,224,1,2025-03-10_13h23.17.366,comp,2024.2.4,46.59970157909765,2025-03-10 13h24.24.066779 -0400,
59,59,0,filler_square,None,None,None,None,None,None,None,None,None,None,2,2.0743751525878906,None,,,,,0,0,0,0,0,59,59,185,482.2759795188904,,,,,,,,,,,,,,,,,,,,,,,,,,,,,,,,,,,,,,,,,,,,,,,,,,,,,,,,,,,,,,,,,,,,,,,,,,,,,,,,,125.06966874933461,118.1714064573674,151.4963491542871,151.4963491542871,136.11841614841765,103.77522276776185,2.2,2.22,-231,276,0,-260,224,-272,482.25723791122437,482.2573175430298,482.26054978370667,482.2759795188904,482.41993713378906,482.41993713378906,482.41993713378906,482.41993713378906,482.41993713378906,482.41993713378906,482.41993713378906,484.3557381629944,2,2.0743751525878906,None,,,,,,,,,,,,,,,,,,224,1,2025-03-10_13h23.17.366,comp,2024.2.4,46.59970157909765,2025-03-10 13h24.24.066779 -0400,
60,60,0,critical,dwh,20.0,3.0,upper,141.0,141.0,125.0,200.0,200.0,125.0,3,4.200889348983765,None,,,,,0,0,0,0,0,60,60,69,484.3734323978424,,,,,,,,,,,,,,,,,,,,,,,,,,,,,,,,,,,,,,,,,,,,,,,,,,,,,,,,,,,,,,,,,,,,,,,,,,,,,,,,,141.0,141.0,125.0,200.0,200.0,125.0,3.0,3.1,-266,280,0,2,258,-253,484.357293844223,484.357369184494,484.360383272171,484.3734323978424,484.52199149131775,484.52199149131775,484.52199149131775,484.52199149131775,484.52199149131775,484.52199149131775,484.52199149131775,488.5874774456024,3,4.200889348983765,None,,,,,,,,,,,,,,,,,,224,1,2025-03-10_13h23.17.366,comp,2024.2.4,46.59970157909765,2025-03-10 13h24.24.066779 -0400,
61,61,0,filler_square,None,None,None,None,None,None,None,None,None,None,2,1.6672282218933105,None,,,,,0,0,0,0,0,61,61,197,488.60378193855286,,,,,,,,,,,,,,,,,,,,,,,,,,,,,,,,,,,,,,,,,,,,,,,,,,,,,,,,,,,,,,,,,,,,,,,,,,,,,,,,,82.95388949732285,57.21944253387462,89.41124447136741,89.41124447136741,58.88080471381326,59.78347795908485,1.0,1.1,-649,266,-480,266,-309,289,488.58934593200684,488.589439868927,488.5923533439636,488.60378193855286,488.7572796344757,488.7572796344757,488.7572796344757,488.7572796344757,488.7572796344757,488.7572796344757,488.7572796344757,490.2769207954407,2,1.6672282218933105,None,,,,,,,,,,,,,,,,,,224,1,2025-03-10_13h23.17.366,comp,2024.2.4,46.59970157909765,2025-03-10 13h24.24.066779 -0400,
62,62,0,filler_random,None,None,None,None,None,None,None,None,None,None,1,2.463799476623535,None,,,,,0,0,0,0,0,62,62,133,490.2951171398163,,,,,,,,,,,,,,,,,,,,,,,,,,,,,,,,,,,,,,,,,,,,,,,,,,,,,,,,,,,,,,,,,,,,,,,,,,,,,,,,,171.4584521214866,170.99737370125195,87.88273119270346,115.84565124059145,190.09286027384584,95.63390974220701,1.0,1.2,-239,18,0,-12,202,4,490.278621673584,490.27872347831726,490.2815341949463,490.2951171398163,490.440372467041,490.440372467041,490.440372467041,490.440372467041,490.440372467041,490.440372467041,490.440372467041,492.7613868713379,1,2.463799476623535,None,,,,,,,,,,,,,,,,,,224,1,2025-03-10_13h23.17.366,comp,2024.2.4,46.59970157909765,2025-03-10 13h24.24.066779 -0400,
63,63,0,critical,hwd,20.0,2.1,lower,133.0,57.0,57.0,133.0,78.0,78.0,2,3.5089492797851562,None,,,,,0,0,0,0,0,63,63,42,492.7777907848358,,,,,,,,,,,,,,,,,,,,,,,,,,,,,,,,,,,,,,,,,,,,,,,,,,,,,,,,,,,,,,,,,,,,,,,,,,,,,,,,,133.0,57.0,57.0,133.0,78.0,78.0,2.1,2.12,-191,-259,0,-285,202,274,492.7631878852844,492.76326847076416,492.76618003845215,492.7777907848358,492.92403292655945,492.92403292655945,492.92403292655945,492.92403292655945,492.92403292655945,492.92403292655945,492.92403292655945,496.29102754592896,2,3.5089492797851562,None,,,,,,,,,,,,,,,,,,224,1,2025-03-10_13h23.17.366,comp,2024.2.4,46.59970157909765,2025-03-10 13h24.24.066779 -0400,
64,64,0,critical,whd,20.0,3.0,lower,57.0,133.0,133.0,57.0,78.0,78.0,1,7.822535276412964,None,,,,,0,0,0,0,0,64,64,92,496.3117423057556,,,,,,,,,,,,,,,,,,,,,,,,,,,,,,,,,,,,,,,,,,,,,,,,,,,,,,,,,,,,,,,,,,,,,,,,,,,,,,,,,57.0,133.0,133.0,57.0,78.0,78.0,3.0,3.1,-191,269,0,-13,164,-255,496.29254174232483,496.29261898994446,496.29581332206726,496.3117423057556,496.44641160964966,496.44641160964966,496.44641160964966,496.44641160964966,496.44641160964966,496.44641160964966,496.44641160964966,504.1484959125519,1,7.822535276412964,None,,,,,,,,,,,,,,,,,,224,1,2025-03-10_13h23.17.366,comp,2024.2.4,46.59970157909765,2025-03-10 13h24.24.066779 -0400,
65,65,0,catch,None,None,None,None,None,None,None,None,None,None,1,1.6099684238433838,None,,,,,0,0,0,0,0,65,65,124,504.1649737358093,,,,,,,,,,,,,,,,,,,,,,,,,,,,,,,,,,,,,,,,,,,,,,,,,,,,,,,,,,,,,,,,,,,,,,,,,,,,,,,,,172,153,120,70,94,96,2.2,2.21,-208,-285,0,278,179,262,504.1506938934326,504.1507740020752,504.1536695957184,504.1649737358093,504.3111708164215,504.3111708164215,504.3111708164215,504.3111708164215,504.3111708164215,504.3111708164215,504.3111708164215,505.7834289073944,1,1.6099684238433838,None,,,,,,,,,,,,,,,,,,224,1,2025-03-10_13h23.17.366,comp,2024.2.4,46.59970157909765,2025-03-10 13h24.24.066779 -0400,
66,66,0,filler_square,None,None,None,None,None,None,None,None,None,None,1,1.286484956741333,None,,,,,0,0,0,0,0,66,66,207,505.799907207489,,,,,,,,,,,,,,,,,,,,,,,,,,,,,,,,,,,,,,,,,,,,,,,,,,,,,,,,,,,,,,,,,,,,,,,,,,,,,,,,,197.44896007870784,197.44896007870784,74.46469858978637,171.32658906707996,124.66448343361418,155.62568057217408,2.1,2.12,-280,-262,0,-277,259,260,505.7853138446808,505.7853944301605,505.78827929496765,505.799907207489,505.94572830200195,505.94572830200195,505.94572830200195,505.94572830200195,505.94572830200195,505.94572830200195,505.94572830200195,507.1071403026581,1,1.286484956741333,None,,,,,,,,,,,,,,,,,,224,1,2025-03-10_13h23.17.366,comp,2024.2.4,46.59970157909765,2025-03-10 13h24.24.066779 -0400,
67,67,0,filler_square,None,None,None,None,None,None,None,None,None,None,3,1.873631238937378,None,,,,,0,0,0,0,0,67,67,173,507.1246304512024,,,,,,,,,,,,,,,,,,,,,,,,,,,,,,,,,,,,,,,,,,,,,,,,,,,,,,,,,,,,,,,,,,,,,,,,,,,,,,,,,146.74322931460767,126.90367960278434,62.34116225768449,139.10495074344465,157.2382592036036,157.2382592036036,3.0,3.1,-229,277,0,9,244,-281,507.1089663505554,507.10904002189636,507.1118664741516,507.1246304512024,507.26338171958923,507.26338171958923,507.26338171958923,507.26338171958923,507.26338171958923,507.26338171958923,507.26338171958923,509.01526403427124,3,1.873631238937378,None,,,,,,,,,,,,,,,,,,224,1,2025-03-10_13h23.17.366,comp,2024.2.4,46.59970157909765,2025-03-10 13h24.24.066779 -0400,
68,68,0,filler_square,None,None,None,None,None,None,None,None,None,None,3,1.4146778583526611,None,,,,,0,0,0,0,0,68,68,198,509.0317521095276,,,,,,,,,,,,,,,,,,,,,,,,,,,,,,,,,,,,,,,,,,,,,,,,,,,,,,,,,,,,,,,,,,,,,,,,,,,,,,,,,96.24286382053342,70.39131044763369,79.60831730041475,99.10396965228588,122.06990022373873,122.06990022373873,2.1,2.12,-181,-286,0,-285,207,272,509.0173842906952,509.01746368408203,509.02132654190063,509.0317521095276,509.17514967918396,509.17514967918396,509.17514967918396,509.17514967918396,509.17514967918396,509.17514967918396,509.17514967918396,510.44913506507874,3,1.4146778583526611,None,,,,,,,,,,,,,,,,,,224,1,2025-03-10_13h23.17.366,comp,2024.2.4,46.59970157909765,2025-03-10 13h24.24.066779 -0400,
69,69,0,catch,None,None,None,None,None,None,None,None,None,None,1,2.5451152324676514,None,,,,,0,0,0,0,0,69,69,126,510.46927666664124,,,,,,,,,,,,,,,,,,,,,,,,,,,,,,,,,,,,,,,,,,,,,,,,,,,,,,,,,,,,,,,,,,,,,,,,,,,,,,,,,199,126,95,95,113,77,4.0,4.1,-206,-266,0,-6,182,-281,510.4512457847595,510.451327085495,510.4542889595032,510.46927666664124,510.615841627121,510.615841627121,510.615841627121,510.615841627121,510.615841627121,510.615841627121,510.615841627121,513.0300147533417,1,2.5451152324676514,None,,,,,,,,,,,,,,,,,,224,1,2025-03-10_13h23.17.366,comp,2024.2.4,46.59970157909765,2025-03-10 13h24.24.066779 -0400,
70,70,0,critical,dwh,35.0,1.0,upper,127.0,127.0,125.0,200.0,200.0,125.0,3,5.092487335205078,None,,,,,0,0,0,0,0,70,70,61,513.0504913330078,,,,,,,,,,,,,,,,,,,,,,,,,,,,,,,,,,,,,,,,,,,,,,,,,,,,,,,,,,,,,,,,,,,,,,,,,,,,,,,,,127.0,127.0,125.0,200.0,200.0,125.0,1.0,1.3,220,-253,480,-270,738,-277,513.0316073894501,513.031711101532,513.0350708961487,513.0504913330078,513.1975703239441,513.1975703239441,513.1975703239441,513.1975703239441,513.1975703239441,513.1975703239441,513.1975703239441,518.1508257389069,3,5.092487335205078,None,,,,,,,,,,,,,,,,,,224,1,2025-03-10_13h23.17.366,comp,2024.2.4,46.59970157909765,2025-03-10 13h24.24.066779 -0400,
71,71,0,filler_square,None,None,None,None,None,None,None,None,None,None,2,1.6314773559570312,None,,,,,0,0,0,0,0,71,71,194,518.1675248146057,,,,,,,,,,,,,,,,,,,,,,,,,,,,,,,,,,,,,,,,,,,,,,,,,,,,,,,,,,,,,,,,,,,,,,,,,,,,,,,,,60.38066304306633,64.77037909315702,93.42269217703091,93.42269217703091,88.09112379013854,59.07243304742995,3.0,3.1,-175,286,0,13,172,-257,518.1530864238739,518.1531672477722,518.1565208435059,518.1675248146057,518.3135235309601,518.3135235309601,518.3135235309601,518.3135235309601,518.3135235309601,518.3135235309601,518.3135235309601,519.8025357723236,2,1.6314773559570312,None,,,,,,,,,,,,,,,,,,224,1,2025-03-10_13h23.17.366,comp,2024.2.4,46.59970157909765,2025-03-10 13h24.24.066779 -0400,
72,72,0,filler_square,None,None,None,None,None,None,None,None,None,None,2,5.963675260543823,None,,,,,0,0,0,0,0,72,72,204,519.8189659118652,,,,,,,,,,,,,,,,,,,,,,,,,,,,,,,,,,,,,,,,,,,,,,,,,,,,,,,,,,,,,,,,,,,,,,,,,,,,,,,,,73.57388749199667,78.17991225136612,96.77040747043887,96.77040747043887,95.57575806007225,85.71495824368986,2.1,2.12,-183,-284,0,-288,187,255,519.8046624660492,519.8047561645508,519.8075590133667,519.8189659118652,519.9664740562439,519.9664740562439,519.9664740562439,519.9664740562439,519.9664740562439,519.9664740562439,519.9664740562439,525.7872123718262,2,5.963675260543823,None,,,,,,,,,,,,,,,,,,224,1,2025-03-10_13h23.17.366,comp,2024.2.4,46.59970157909765,2025-03-10 13h24.24.066779 -0400,
73,73,0,critical,wdh,35.0,1.0,upper,125.0,200.0,127.0,127.0,200.0,125.0,1,6.059393644332886,None,,,,,0,0,0,0,0,73,73,73,525.8036897182465,,,,,,,,,,,,,,,,,,,,,,,,,,,,,,,,,,,,,,,,,,,,,,,,,,,,,,,,,,,,,,,,,,,,,,,,,,,,,,,,,125.0,200.0,127.0,127.0,200.0,125.0,1.0,1.3,220,-287,480,-283,702,-265,525.7889778614044,525.7890546321869,525.7929084300995,525.8036897182465,525.9498324394226,525.9498324394226,525.9498324394226,525.9498324394226,525.9498324394226,525.9498324394226,525.9498324394226,531.8712210655212,1,6.059393644332886,None,,,,,,,,,,,,,,,,,,224,1,2025-03-10_13h23.17.366,comp,2024.2.4,46.59970157909765,2025-03-10 13h24.24.066779 -0400,
74,74,0,critical,hwd,35.0,1.0,upper,200.0,125.0,125.0,200.0,127.0,127.0,2,6.342408895492554,None,,,,,0,0,0,0,0,74,74,97,531.8879432678223,,,,,,,,,,,,,,,,,,,,,,,,,,,,,,,,,,,,,,,,,,,,,,,,,,,,,,,,,,,,,,,,,,,,,,,,,,,,,,,,,200.0,125.0,125.0,200.0,127.0,127.0,1.0,1.1,-738,256,-480,280,-220,266,531.8730573654175,531.8731925487518,531.8770875930786,531.8879432678223,532.0417511463165,532.0417511463165,532.0417511463165,532.0417511463165,532.0417511463165,532.0417511463165,532.0417511463165,538.2482604980469,2,6.342408895492554,None,,,,,,,,,,,,,,,,,,224,1,2025-03-10_13h23.17.366,comp,2024.2.4,46.59970157909765,2025-03-10 13h24.24.066779 -0400,
75,75,0,filler_square,None,None,None,None,None,None,None,None,None,None,2,1.262678623199463,None,,,,,0,0,0,0,0,75,75,189,538.2635316848755,,,,,,,,,,,,,,,,,,,,,,,,,,,,,,,,,,,,,,,,,,,,,,,,,,,,,,,,,,,,,,,,,,,,,,,,,,,,,,,,,151.087127156279,96.47358489853153,165.60983032881833,165.60983032881833,69.08195425714989,123.7075056140932,1.0,1.2,-227,-17,0,2,241,-7,538.250078201294,538.2501547336578,538.2530689239502,538.2635316848755,538.4070990085602,538.4070990085602,538.4070990085602,538.4070990085602,538.4070990085602,538.4070990085602,538.4070990085602,539.5412588119507,2,1.262678623199463,None,,,,,,,,,,,,,,,,,,224,1,2025-03-10_13h23.17.366,comp,2024.2.4,46.59970157909765,2025-03-10 13h24.24.066779 -0400,
76,76,0,critical,dwh,20.0,4.0,lower,78.0,78.0,57.0,133.0,133.0,57.0,2,10.12947964668274,None,,,,,0,0,0,0,0,76,76,70,539.5573015213013,,,,,,,,,,,,,,,,,,,,,,,,,,,,,,,,,,,,,,,,,,,,,,,,,,,,,,,,,,,,,,,,,,,,,,,,,,,,,,,,,78.0,78.0,57.0,133.0,133.0,57.0,4.0,4.2,-202,-3,0,-287,191,-15,539.5429763793945,539.5430567264557,539.5469324588776,539.5573015213013,539.7092142105103,539.7092142105103,539.7092142105103,539.7092142105103,539.7092142105103,539.7092142105103,539.7092142105103,549.693058013916,2,10.12947964668274,None,,,,,,,,,,,,,,,,,,224,1,2025-03-10_13h23.17.366,comp,2024.2.4,46.59970157909765,2025-03-10 13h24.24.066779 -0400,
77,77,0,filler_square,None,None,None,None,None,None,None,None,None,None,3,1.7612037658691406,None,,,,,0,0,0,0,0,77,77,203,549.709615945816,,,,,,,,,,,,,,,,,,,,,,,,,,,,,,,,,,,,,,,,,,,,,,,,,,,,,,,,,,,,,,,,,,,,,,,,,,,,,,,,,80.47997082858464,96.46586963768242,142.1907450684813,108.20309756991028,148.35208885769535,148.35208885769535,2.1,2.11,-198,257,0,252,224,-276,549.6948323249817,549.6949253082275,549.698853969574,549.709615945816,549.8589572906494,549.8589572906494,549.8589572906494,549.8589572906494,549.8589572906494,549.8589572906494,549.8589572906494,551.4751851558685,3,1.7612037658691406,None,,,,,,,,,,,,,,,,,,224,1,2025-03-10_13h23.17.366,comp,2024.2.4,46.59970157909765,2025-03-10 13h24.24.066779 -0400,
78,78,0,critical,dhw,20.0,1.0,lower,78.0,78.0,133.0,57.0,57.0,133.0,3,4.633999586105347,None,,,,,0,0,0,0,0,78,78,54,551.5004227161407,,,,,,,,,,,,,,,,,,,,,,,,,,,,,,,,,,,,,,,,,,,,,,,,,,,,,,,,,,,,,,,,,,,,,,,,,,,,,,,,,78.0,78.0,133.0,57.0,57.0,133.0,1.0,1.3,316,-263,480,-270,671,-254,551.4768419265747,551.4769458770752,551.48033618927,551.5004227161407,551.6427927017212,551.6427927017212,551.6427927017212,551.6427927017212,551.6427927017212,551.6427927017212,551.6427927017212,556.1565141677856,3,4.633999586105347,None,,,,,,,,,,,,,,,,,,224,1,2025-03-10_13h23.17.366,comp,2024.2.4,46.59970157909765,2025-03-10 13h24.24.066779 -0400,
79,79,0,filler_random,None,None,None,None,None,None,None,None,None,None,1,1.1354975700378418,None,,,,,0,0,0,0,0,79,79,144,556.1755034923553,,,,,,,,,,,,,,,,,,,,,,,,,,,,,,,,,,,,,,,,,,,,,,,,,,,,,,,,,,,,,,,,,,,,,,,,,,,,,,,,,162.80912660344478,102.32796945525948,62.9945703300544,57.38020786039385,182.3174733047797,67.78540441701377,2.1,2.11,-176,273,0,281,159,-265,556.1584274768829,556.1585545539856,556.1617908477783,556.1755034923553,556.3106970787048,556.3106970787048,556.3106970787048,556.3106970787048,556.3106970787048,556.3106970787048,556.3106970787048,557.3279061317444,1,1.1354975700378418,None,,,,,,,,,,,,,,,,,,224,1,2025-03-10_13h23.17.366,comp,2024.2.4,46.59970157909765,2025-03-10 13h24.24.066779 -0400,
80,80,0,critical,hdw,20.0,2.1,upper,200.0,125.0,141.0,141.0,125.0,200.0,3,1.5746440887451172,None,,,,,0,0,0,0,0,80,80,23,557.3437614440918,,,,,,,,,,,,,,,,,,,,,,,,,,,,,,,,,,,,,,,,,,,,,,,,,,,,,,,,,,,,,,,,,,,,,,,,,,,,,,,,,200.0,125.0,141.0,141.0,125.0,200.0,2.1,2.11,-229,269,0,269,266,-284,557.329375743866,557.3294501304626,557.333447933197,557.3437614440918,557.4956245422363,557.4956245422363,557.4956245422363,557.4956245422363,557.4956245422363,557.4956245422363,557.4956245422363,558.9312102794647,3,1.5746440887451172,None,,,,,,,,,,,,,,,,,,224,1,2025-03-10_13h23.17.366,comp,2024.2.4,46.59970157909765,2025-03-10 13h24.24.066779 -0400,
81,81,0,critical,wdh,20.0,4.0,lower,57.0,133.0,78.0,78.0,133.0,57.0,3,5.510333299636841,None,,,,,0,0,0,0,0,81,81,82,558.9521420001984,,,,,,,,,,,,,,,,,,,,,,,,,,,,,,,,,,,,,,,,,,,,,,,,,,,,,,,,,,,,,,,,,,,,,,,,,,,,,,,,,57.0,133.0,78.0,78.0,133.0,57.0,4.0,4.2,-202,-17,0,-281,164,16,558.9331398010254,558.9332191944122,558.9364671707153,558.9521420001984,559.0947730541229,559.0947730541229,559.0947730541229,559.0947730541229,559.0947730541229,559.0947730541229,559.0947730541229,564.4757511615753,3,5.510333299636841,None,,,,,,,,,,,,,,,,,,224,1,2025-03-10_13h23.17.366,comp,2024.2.4,46.59970157909765,2025-03-10 13h24.24.066779 -0400,
82,82,0,filler_random,None,None,None,None,None,None,None,None,None,None,1,1.5959315299987793,None,,,,,0,0,0,0,0,82,82,169,564.4909546375275,,,,,,,,,,,,,,,,,,,,,,,,,,,,,,,,,,,,,,,,,,,,,,,,,,,,,,,,,,,,,,,,,,,,,,,,,,,,,,,,,113.97595398117835,190.33794624280023,190.27284306793388,63.07663848129049,66.18492551602995,195.0165247711775,2.1,2.11,-223,283,0,278,225,-258,564.4774746894836,564.4775493144989,564.480390548706,564.4909546375275,564.6298961639404,564.6298961639404,564.6298961639404,564.6298961639404,564.6298961639404,564.6298961639404,564.6298961639404,566.0953555107117,1,1.5959315299987793,None,,,,,,,,,,,,,,,,,,224,1,2025-03-10_13h23.17.366,comp,2024.2.4,46.59970157909765,2025-03-10 13h24.24.066779 -0400,
83,83,0,filler_random,None,None,None,None,None,None,None,None,None,None,2,2.782200813293457,None,,,,,0,0,0,0,0,83,83,150,566.1125388145447,,,,,,,,,,,,,,,,,,,,,,,,,,,,,,,,,,,,,,,,,,,,,,,,,,,,,,,,,,,,,,,,,,,,,,,,,,,,,,,,,108.51427060068033,124.23002628149679,95.6331458160765,191.8538864956066,130.52045868343788,81.9832123000958,3.0,3.2,-254,-290,0,-6,233,251,566.0972013473511,566.0973379611969,566.100546836853,566.1125388145447,566.2518601417542,566.2518601417542,566.2518601417542,566.2518601417542,566.2518601417542,566.2518601417542,566.2518601417542,568.8982992172241,2,2.782200813293457,None,,,,,,,,,,,,,,,,,,224,1,2025-03-10_13h23.17.366,comp,2024.2.4,46.59970157909765,2025-03-10 13h24.24.066779 -0400,
84,84,0,critical,whd,20.0,4.0,lower,57.0,133.0,133.0,57.0,78.0,78.0,1,3.743051767349243,None,,,,,0,0,0,0,0,84,84,94,568.9192335605621,,,,,,,,,,,,,,,,,,,,,,,,,,,,,,,,,,,,,,,,,,,,,,,,,,,,,,,,,,,,,,,,,,,,,,,,,,,,,,,,,57.0,133.0,133.0,57.0,78.0,78.0,4.0,4.1,-191,-264,0,-15,164,-257,568.8999674320221,568.9000451564789,568.9033350944519,568.9192335605621,569.0681369304657,569.0681369304657,569.0681369304657,569.0681369304657,569.0681369304657,569.0681369304657,569.0681369304657,572.681343793869,1,3.743051767349243,None,,,,,,,,,,,,,,,,,,224,1,2025-03-10_13h23.17.366,comp,2024.2.4,46.59970157909765,2025-03-10 13h24.24.066779 -0400,
85,85,0,critical,whd,35.0,3.0,lower,57.0,133.0,133.0,57.0,70.0,70.0,1,4.893729209899902,None,,,,,0,0,0,0,0,85,85,86,572.6965856552124,,,,,,,,,,,,,,,,,,,,,,,,,,,,,,,,,,,,,,,,,,,,,,,,,,,,,,,,,,,,,,,,,,,,,,,,,,,,,,,,,57.0,133.0,133.0,57.0,70.0,70.0,3.0,3.1,-191,286,0,19,160,-282,572.6828923225403,572.6829688549042,572.6860151290894,572.6965856552124,572.8392562866211,572.8392562866211,572.8392562866211,572.8392562866211,572.8392562866211,572.8392562866211,572.8392562866211,577.6031305789948,1,4.893729209899902,None,,,,,,,,,,,,,,,,,,224,1,2025-03-10_13h23.17.366,comp,2024.2.4,46.59970157909765,2025-03-10 13h24.24.066779 -0400,
86,86,0,critical,wdh,20.0,1.0,lower,57.0,133.0,78.0,78.0,133.0,57.0,3,3.7000622749328613,None,,,,,0,0,0,0,0,86,86,78,577.618355512619,,,,,,,,,,,,,,,,,,,,,,,,,,,,,,,,,,,,,,,,,,,,,,,,,,,,,,,,,,,,,,,,,,,,,,,,,,,,,,,,,57.0,133.0,78.0,78.0,133.0,57.0,1.0,1.1,-682,269,-480,278,-316,277,577.6049485206604,577.6050279140472,577.6080701351166,577.618355512619,577.7672460079193,577.7672460079193,577.7672460079193,577.7672460079193,577.7672460079193,577.7672460079193,577.7672460079193,581.334733247757,3,3.7000622749328613,None,,,,,,,,,,,,,,,,,,224,1,2025-03-10_13h23.17.366,comp,2024.2.4,46.59970157909765,2025-03-10 13h24.24.066779 -0400,
87,87,0,filler_square,None,None,None,None,None,None,None,None,None,None,3,1.9003973007202148,None,,,,,0,0,0,0,0,87,87,199,581.3528499603271,,,,,,,,,,,,,,,,,,,,,,,,,,,,,,,,,,,,,,,,,,,,,,,,,,,,,,,,,,,,,,,,,,,,,,,,,,,,,,,,,65.71446018673265,69.81003202672606,73.400555196322,63.7436779045818,87.61137059244597,87.61137059244597,2.1,2.11,-163,273,0,270,172,-276,581.3365144729614,581.3366658687592,581.3405830860138,581.3528499603271,581.5018439292908,581.5018439292908,581.5018439292908,581.5018439292908,581.5018439292908,581.5018439292908,581.5018439292908,583.2589337825775,3,1.9003973007202148,None,,,,,,,,,,,,,,,,,,224,1,2025-03-10_13h23.17.366,comp,2024.2.4,46.59970157909765,2025-03-10 13h24.24.066779 -0400,
88,88,0,filler_random,None,None,None,None,None,None,None,None,None,None,1,1.283604383468628,None,,,,,0,0,0,0,0,88,88,136,583.2747604846954,,,,,,,,,,,,,,,,,,,,,,,,,,,,,,,,,,,,,,,,,,,,,,,,,,,,,,,,,,,,,,,,,,,,,,,,,,,,,,,,,136.33707051224667,198.41785097312822,61.19858963041922,180.14091687703137,67.05944275490046,195.68982932161117,4.0,4.2,-285,6,0,-253,284,18,583.2594406604767,583.2594585418701,583.2602496147156,583.2747604846954,583.4190397262573,583.4190397262573,583.4190397262573,583.4190397262573,583.4190397262573,583.4190397262573,583.4190397262573,584.5683870315552,1,1.283604383468628,None,,,,,,,,,,,,,,,,,,224,1,2025-03-10_13h23.17.366,comp,2024.2.4,46.59970157909765,2025-03-10 13h24.24.066779 -0400,
89,89,0,filler_square,None,None,None,None,None,None,None,None,None,None,2,7.35718297958374,None,,,,,0,0,0,0,0,89,89,196,584.5853307247162,,,,,,,,,,,,,,,,,,,,,,,,,,,,,,,,,,,,,,,,,,,,,,,,,,,,,,,,,,,,,,,,,,,,,,,,,,,,,,,,,59.22112916557048,57.10320541122771,64.3801731044444,64.3801731044444,57.38575202632041,58.15623327804753,3.0,3.2,-157,-254,0,1,157,264,584.5700900554657,584.5701680183411,584.5733382701874,584.5853307247162,584.7250199317932,584.7250199317932,584.7250199317932,584.7250199317932,584.7250199317932,584.7250199317932,584.7250199317932,591.9610419273376,2,7.35718297958374,None,,,,,,,,,,,,,,,,,,224,1,2025-03-10_13h23.17.366,comp,2024.2.4,46.59970157909765,2025-03-10 13h24.24.066779 -0400,
90,90,0,critical,whd,20.0,2.1,upper,125.0,200.0,200.0,125.0,141.0,141.0,2,4.842347860336304,None,,,,,0,0,0,0,0,90,90,39,591.9808263778687,,,,,,,,,,,,,,,,,,,,,,,,,,,,,,,,,,,,,,,,,,,,,,,,,,,,,,,,,,,,,,,,,,,,,,,,,,,,,,,,,125.0,200.0,200.0,125.0,141.0,141.0,2.1,2.11,-258,290,0,273,229,-253,591.9625835418701,591.9626832008362,591.9655208587646,591.9808263778687,592.1230039596558,592.1230039596558,592.1230039596558,592.1230039596558,592.1230039596558,592.1230039596558,592.1230039596558,596.8261568546295,2,4.842347860336304,None,,,,,,,,,,,,,,,,,,224,1,2025-03-10_13h23.17.366,comp,2024.2.4,46.59970157909765,2025-03-10 13h24.24.066779 -0400,
91,91,0,critical,dhw,20.0,3.0,upper,141.0,141.0,200.0,125.0,125.0,200.0,3,2.4828975200653076,None,,,,,0,0,0,0,0,91,91,57,596.8434882164001,,,,,,,,,,,,,,,,,,,,,,,,,,,,,,,,,,,,,,,,,,,,,,,,,,,,,,,,,,,,,,,,,,,,,,,,,,,,,,,,,141.0,141.0,200.0,125.0,125.0,200.0,3.0,3.2,-229,-260,0,14,258,266,596.827885389328,596.8279640674591,596.8318064212799,596.8434882164001,596.9909739494324,596.9909739494324,596.9909739494324,596.9909739494324,596.9909739494324,596.9909739494324,596.9909739494324,599.3397991657257,3,2.4828975200653076,None,,,,,,,,,,,,,,,,,,224,1,2025-03-10_13h23.17.366,comp,2024.2.4,46.59970157909765,2025-03-10 13h24.24.066779 -0400,
92,92,0,critical,whd,20.0,2.1,lower,57.0,133.0,133.0,57.0,78.0,78.0,1,4.522638320922852,None,,,,,0,0,0,0,0,92,92,38,599.355801820755,,,,,,,,,,,,,,,,,,,,,,,,,,,,,,,,,,,,,,,,,,,,,,,,,,,,,,,,,,,,,,,,,,,,,,,,,,,,,,,,,57.0,133.0,133.0,57.0,78.0,78.0,2.1,2.11,-191,280,0,289,164,-264,599.3413288593292,599.3414063453674,599.3444819450378,599.355801820755,599.4919347763062,599.4919347763062,599.4919347763062,599.4919347763062,599.4919347763062,599.4919347763062,599.4919347763062,603.8993451595306,1,4.522638320922852,None,,,,,,,,,,,,,,,,,,224,1,2025-03-10_13h23.17.366,comp,2024.2.4,46.59970157909765,2025-03-10 13h24.24.066779 -0400,
93,93,0,filler_square,None,None,None,None,None,None,None,None,None,None,1,1.7876842021942139,None,,,,,0,0,0,0,0,93,93,192,603.9147682189941,,,,,,,,,,,,,,,,,,,,,,,,,,,,,,,,,,,,,,,,,,,,,,,,,,,,,,,,,,,,,,,,,,,,,,,,,,,,,,,,,183.50119353607846,183.50119353607846,98.89789738211795,95.97463443730217,162.48999469385365,169.24640009172117,2.1,2.12,-236,-268,0,-273,229,287,603.9012463092804,603.9013252258301,603.9042208194733,603.9147682189941,604.0586202144623,604.0586202144623,604.0586202144623,604.0586202144623,604.0586202144623,604.0586202144623,604.0586202144623,605.717985868454,1,1.7876842021942139,None,,,,,,,,,,,,,,,,,,224,1,2025-03-10_13h23.17.366,comp,2024.2.4,46.59970157909765,2025-03-10 13h24.24.066779 -0400,
94,94,0,filler_square,None,None,None,None,None,None,None,None,None,None,3,0.9736862182617188,None,,,,,0,0,0,0,0,94,94,181,605.7367405891418,,,,,,,,,,,,,,,,,,,,,,,,,,,,,,,,,,,,,,,,,,,,,,,,,,,,,,,,,,,,,,,,,,,,,,,,,,,,,,,,,87.97770290989672,183.91898449834386,163.70222864244658,58.14688463877629,189.3206489972857,189.3206489972857,4.0,4.2,-217,10,0,-253,220,-16,605.7197816371918,605.7198600769043,605.7227146625519,605.7367405891418,605.8758985996246,605.8758985996246,605.8758985996246,605.8758985996246,605.8758985996246,605.8758985996246,605.8758985996246,606.7261261940002,3,0.9736862182617188,None,,,,,,,,,,,,,,,,,,224,1,2025-03-10_13h23.17.366,comp,2024.2.4,46.59970157909765,2025-03-10 13h24.24.066779 -0400,
95,95,0,critical,hdw,35.0,3.0,upper,200.0,125.0,127.0,127.0,125.0,200.0,3,3.454535484313965,None,,,,,0,0,0,0,0,95,95,111,606.7440128326416,,,,,,,,,,,,,,,,,,,,,,,,,,,,,,,,,,,,,,,,,,,,,,,,,,,,,,,,,,,,,,,,,,,,,,,,,,,,,,,,,200.0,125.0,127.0,127.0,125.0,200.0,3.0,3.2,-222,-255,0,-5,260,282,606.7277503013611,606.727826833725,606.7312235832214,606.7440128326416,606.8901524543762,606.8901524543762,606.8901524543762,606.8901524543762,606.8901524543762,606.8901524543762,606.8901524543762,610.208244562149,3,3.454535484313965,None,,,,,,,,,,,,,,,,,,224,1,2025-03-10_13h23.17.366,comp,2024.2.4,46.59970157909765,2025-03-10 13h24.24.066779 -0400,
96,96,0,critical,dhw,35.0,4.0,upper,127.0,127.0,200.0,125.0,125.0,200.0,3,2.5113468170166016,None,,,,,0,0,0,0,0,96,96,53,610.2246644496918,,,,,,,,,,,,,,,,,,,,,,,,,,,,,,,,,,,,,,,,,,,,,,,,,,,,,,,,,,,,,,,,,,,,,,,,,,,,,,,,,127.0,127.0,200.0,125.0,125.0,200.0,4.0,4.1,-222,-260,0,-15,258,-262,610.2098665237427,610.2099807262421,610.2132596969604,610.2246644496918,610.3720824718475,610.3720824718475,610.3720824718475,610.3720824718475,610.3720824718475,610.3720824718475,610.3720824718475,612.7477059364319,3,2.5113468170166016,None,,,,,,,,,,,,,,,,,,224,1,2025-03-10_13h23.17.366,comp,2024.2.4,46.59970157909765,2025-03-10 13h24.24.066779 -0400,
97,97,0,filler_square,None,None,None,None,None,None,None,None,None,None,3,1.7311241626739502,None,,,,,0,0,0,0,0,97,97,193,612.7640266418457,,,,,,,,,,,,,,,,,,,,,,,,,,,,,,,,,,,,,,,,,,,,,,,,,,,,,,,,,,,,,,,,,,,,,,,,,,,,,,,,,86.89618025427836,99.45448218177373,116.40250917968152,85.91104233847066,120.89477732131783,120.89477732131783,2.2,2.21,-189,-279,0,273,199,282,612.7496869564056,612.7497675418854,612.753568649292,612.7640266418457,612.9121689796448,612.9121689796448,612.9121689796448,612.9121689796448,612.9121689796448,612.9121689796448,612.9121689796448,614.5002205371857,3,1.7311241626739502,None,,,,,,,,,,,,,,,,,,224,1,2025-03-10_13h23.17.366,comp,2024.2.4,46.59970157909765,2025-03-10 13h24.24.066779 -0400,
98,98,0,filler_random,None,None,None,None,None,None,None,None,None,None,2,1.3701109886169434,None,,,,,0,0,0,0,0,98,98,159,614.5164852142334,,,,,,,,,,,,,,,,,,,,,,,,,,,,,,,,,,,,,,,,,,,,,,,,,,,,,,,,,,,,,,,,,,,,,,,,,,,,,,,,,85.99235406790447,167.68286991083122,119.50443271040498,194.14898909626606,94.9570467603548,105.98988671840691,1.0,1.1,-757,263,-480,269,-234,281,614.5019483566284,614.502025604248,614.5048904418945,614.5164852142334,614.6628794670105,614.6628794670105,614.6628794670105,614.6628794670105,614.6628794670105,614.6628794670105,614.6628794670105,615.8891696929932,2,1.3701109886169434,None,,,,,,,,,,,,,,,,,,224,1,2025-03-10_13h23.17.366,comp,2024.2.4,46.59970157909765,2025-03-10 13h24.24.066779 -0400,
99,99,0,filler_square,None,None,None,None,None,None,None,None,None,None,3,1.6861116886138916,None,,,,,0,0,0,0,0,99,99,184,615.9049079418182,,,,,,,,,,,,,,,,,,,,,,,,,,,,,,,,,,,,,,,,,,,,,,,,,,,,,,,,,,,,,,,,,,,,,,,,,,,,,,,,,137.1873679255248,101.3638912821151,80.75172538836435,102.92253596367568,143.14179001659,143.14179001659,2.1,2.12,-198,-276,0,-254,219,254,615.8910000324249,615.8910768032074,615.8939604759216,615.9049079418182,616.0465409755707,616.0465409755707,616.0465409755707,616.0465409755707,616.0465409755707,616.0465409755707,616.0465409755707,617.5969831943512,3,1.6861116886138916,None,,,,,,,,,,,,,,,,,,224,1,2025-03-10_13h23.17.366,comp,2024.2.4,46.59970157909765,2025-03-10 13h24.24.066779 -0400,
100,100,0,critical,hwd,20.0,2.1,lower,133.0,57.0,57.0,133.0,78.0,78.0,2,8.561334609985352,None,,,,,0,0,0,0,0,100,100,18,617.6130301952362,,,,,,,,,,,,,,,,,,,,,,,,,,,,,,,,,,,,,,,,,,,,,,,,,,,,,,,,,,,,,,,,,,,,,,,,,,,,,,,,,133.0,57.0,57.0,133.0,78.0,78.0,2.1,2.12,-191,-258,0,-251,202,253,617.5986051559448,617.5987439155579,617.602169752121,617.6130301952362,617.7653532028198,617.7653532028198,617.7653532028198,617.7653532028198,617.7653532028198,617.7653532028198,617.7653532028198,626.186368227005,2,8.561334609985352,None,,,,,,,,,,,,,,,,,,224,1,2025-03-10_13h23.17.366,comp,2024.2.4,46.59970157909765,2025-03-10 13h24.24.066779 -0400,
101,101,0,filler_square,None,None,None,None,None,None,None,None,None,None,2,6.931657791137695,None,,,,,0,0,0,0,0,101,101,174,626.2028579711914,,,,,,,,,,,,,,,,,,,,,,,,,,,,,,,,,,,,,,,,,,,,,,,,,,,,,,,,,,,,,,,,,,,,,,,,,,,,,,,,,84.11851595090022,87.79814410871667,91.03023050615131,91.03023050615131,90.31253070467412,74.12782600020591,1.0,1.3,295,-261,480,-262,659,-265,626.1887035369873,626.1887838840485,626.1917011737823,626.2028579711914,626.349449634552,626.349449634552,626.349449634552,626.349449634552,626.349449634552,626.349449634552,626.349449634552,633.1494927406311,2,6.931657791137695,None,,,,,,,,,,,,,,,,,,224,1,2025-03-10_13h23.17.366,comp,2024.2.4,46.59970157909765,2025-03-10 13h24.24.066779 -0400,
102,102,0,critical,wdh,20.0,2.1,upper,125.0,200.0,141.0,141.0,200.0,125.0,3,5.064904451370239,None,,,,,0,0,0,0,0,102,102,11,633.1654884815216,,,,,,,,,,,,,,,,,,,,,,,,,,,,,,,,,,,,,,,,,,,,,,,,,,,,,,,,,,,,,,,,,,,,,,,,,,,,,,,,,125.0,200.0,141.0,141.0,200.0,125.0,2.1,2.11,-266,257,0,280,229,-251,633.1510231494904,633.1510972976685,633.1539330482483,633.1654884815216,633.3176019191742,633.3176019191742,633.3176019191742,633.3176019191742,633.3176019191742,633.3176019191742,633.3176019191742,638.2450318336487,3,5.064904451370239,None,,,,,,,,,,,,,,,,,,224,1,2025-03-10_13h23.17.366,comp,2024.2.4,46.59970157909765,2025-03-10 13h24.24.066779 -0400,
103,103,0,critical,dwh,20.0,1.0,lower,78.0,78.0,57.0,133.0,133.0,57.0,3,5.239785432815552,None,,,,,0,0,0,0,0,103,103,66,638.2626156806946,,,,,,,,,,,,,,,,,,,,,,,,,,,,,,,,,,,,,,,,,,,,,,,,,,,,,,,,,,,,,,,,,,,,,,,,,,,,,,,,,78.0,78.0,57.0,133.0,133.0,57.0,1.0,1.3,278,-252,480,-275,671,-287,638.2465605735779,638.2466638088226,638.2495148181915,638.2626156806946,638.4039623737335,638.4039623737335,638.4039623737335,638.4039623737335,638.4039623737335,638.4039623737335,638.4039623737335,643.5208795070648,3,5.239785432815552,None,,,,,,,,,,,,,,,,,,224,1,2025-03-10_13h23.17.366,comp,2024.2.4,46.59970157909765,2025-03-10 13h24.24.066779 -0400,
104,104,0,critical,dhw,35.0,2.1,upper,127.0,127.0,200.0,125.0,125.0,200.0,3,1.9877402782440186,None,,,,,0,0,0,0,0,104,104,1,643.5386066436768,,,,,,,,,,,,,,,,,,,,,,,,,,,,,,,,,,,,,,,,,,,,,,,,,,,,,,,,,,,,,,,,,,,,,,,,,,,,,,,,,127.0,127.0,200.0,125.0,125.0,200.0,2.1,2.11,-222,283,0,269,258,-257,643.5223722457886,643.5224497318268,643.5255172252655,643.5386066436768,643.6901724338531,643.6901724338531,643.6901724338531,643.6901724338531,643.6901724338531,643.6901724338531,643.6901724338531,645.5378940105438,3,1.9877402782440186,None,,,,,,,,,,,,,,,,,,224,1,2025-03-10_13h23.17.366,comp,2024.2.4,46.59970157909765,2025-03-10 13h24.24.066779 -0400,
105,105,0,filler_square,None,None,None,None,None,None,None,None,None,None,2,3.677586078643799,None,,,,,0,0,0,0,0,105,105,195,645.5538427829742,,,,,,,,,,,,,,,,,,,,,,,,,,,,,,,,,,,,,,,,,,,,,,,,,,,,,,,,,,,,,,,,,,,,,,,,,,,,,,,,,59.50531407517265,74.38179124799335,76.17723946155003,76.17723946155003,72.76854313202378,74.8286684551908,1.0,1.3,309,-269,480,-288,652,-273,645.5396099090576,645.5397181510925,645.5427632331848,645.5538427829742,645.7087757587433,645.7087757587433,645.7087757587433,645.7087757587433,645.7087757587433,645.7087757587433,645.7087757587433,649.2391562461853,2,3.677586078643799,None,,,,,,,,,,,,,,,,,,224,1,2025-03-10_13h23.17.366,comp,2024.2.4,46.59970157909765,2025-03-10 13h24.24.066779 -0400,
106,106,0,critical,dhw,35.0,2.1,lower,70.0,70.0,133.0,57.0,57.0,133.0,3,7.148614883422852,None,,,,,0,0,0,0,0,106,106,24,649.2577991485596,,,,,,,,,,,,,,,,,,,,,,,,,,,,,,,,,,,,,,,,,,,,,,,,,,,,,,,,,,,,,,,,,,,,,,,,,,,,,,,,,70.0,70.0,133.0,57.0,57.0,133.0,2.1,2.12,-160,-263,0,-252,191,259,649.2405841350555,649.2406919002533,649.2436766624451,649.2577991485596,649.4058542251587,649.4058542251587,649.4058542251587,649.4058542251587,649.4058542251587,649.4058542251587,649.4058542251587,656.4090104103088,3,7.148614883422852,None,,,,,,,,,,,,,,,,,,224,1,2025-03-10_13h23.17.366,comp,2024.2.4,46.59970157909765,2025-03-10 13h24.24.066779 -0400,
107,107,0,filler_square,None,None,None,None,None,None,None,None,None,None,3,4.374595642089844,None,,,,,0,0,0,0,0,107,107,172,656.425290107727,,,,,,,,,,,,,,,,,,,,,,,,,,,,,,,,,,,,,,,,,,,,,,,,,,,,,,,,,,,,,,,,,,,,,,,,,,,,,,,,,61.22119989980749,57.431856568327305,57.205692009178655,60.72288482769782,61.29911825769304,61.29911825769304,1.0,1.3,325,-283,480,-267,637,-285,656.4108653068542,656.4109420776367,656.4143142700195,656.425290107727,656.5763046741486,656.5763046741486,656.5763046741486,656.5763046741486,656.5763046741486,656.5763046741486,656.5763046741486,660.8106763362885,3,4.374595642089844,None,,,,,,,,,,,,,,,,,,224,1,2025-03-10_13h23.17.366,comp,2024.2.4,46.59970157909765,2025-03-10 13h24.24.066779 -0400,
108,108,0,critical,whd,35.0,2.1,lower,57.0,133.0,133.0,57.0,70.0,70.0,2,3.3414738178253174,None,,,,,0,0,0,0,0,108,108,12,660.825234413147,,,,,,,,,,,,,,,,,,,,,,,,,,,,,,,,,,,,,,,,,,,,,,,,,,,,,,,,,,,,,,,,,,,,,,,,,,,,,,,,,57.0,133.0,133.0,57.0,70.0,70.0,2.1,2.11,-191,252,0,286,160,-275,660.8122184276581,660.8122985363007,660.8156242370605,660.825234413147,660.978010892868,660.978010892868,660.978010892868,660.978010892868,660.978010892868,660.978010892868,660.978010892868,664.1788520812988,2,3.3414738178253174,None,,,,,,,,,,,,,,,,,,224,1,2025-03-10_13h23.17.366,comp,2024.2.4,46.59970157909765,2025-03-10 13h24.24.066779 -0400,
109,109,0,catch,None,None,None,None,None,None,None,None,None,None,2,1.09879732131958,None,,,,,0,0,0,0,0,109,109,122,664.1960508823395,,,,,,,,,,,,,,,,,,,,,,,,,,,,,,,,,,,,,,,,,,,,,,,,,,,,,,,,,,,,,,,,,,,,,,,,,,,,,,,,,116,74,173,152,61,129,2.2,2.21,-209,-277,0,264,236,257,664.1807799339294,664.1808860301971,664.1848134994507,664.1960508823395,664.3496608734131,664.3496608734131,664.3496608734131,664.3496608734131,664.3496608734131,664.3496608734131,664.3496608734131,665.2979319095612,2,1.09879732131958,None,,,,,,,,,,,,,,,,,,224,1,2025-03-10_13h23.17.366,comp,2024.2.4,46.59970157909765,2025-03-10 13h24.24.066779 -0400,
110,110,0,critical,hdw,35.0,4.0,upper,200.0,125.0,127.0,127.0,125.0,200.0,3,3.4375174045562744,None,,,,,0,0,0,0,0,110,110,113,665.313896894455,,,,,,,,,,,,,,,,,,,,,,,,,,,,,,,,,,,,,,,,,,,,,,,,,,,,,,,,,,,,,,,,,,,,,,,,,,,,,,,,,200.0,125.0,127.0,127.0,125.0,200.0,4.0,4.1,-222,-256,0,-5,260,-285,665.2997465133667,665.2998304367065,665.3027830123901,665.313896894455,665.4602725505829,665.4602725505829,665.4602725505829,665.4602725505829,665.4602725505829,665.4602725505829,665.4602725505829,668.7629363536835,3,3.4375174045562744,None,,,,,,,,,,,,,,,,,,224,1,2025-03-10_13h23.17.366,comp,2024.2.4,46.59970157909765,2025-03-10 13h24.24.066779 -0400,
111,111,0,critical,dhw,20.0,2.1,lower,78.0,78.0,133.0,57.0,57.0,133.0,3,5.419357538223267,None,,,,,0,0,0,0,0,111,111,2,668.7790040969849,,,,,,,,,,,,,,,,,,,,,,,,,,,,,,,,,,,,,,,,,,,,,,,,,,,,,,,,,,,,,,,,,,,,,,,,,,,,,,,,,78.0,78.0,133.0,57.0,57.0,133.0,2.1,2.12,-164,-276,0,-270,191,284,668.76460313797,668.7647194862366,668.7681000232697,668.7790040969849,668.9272313117981,668.9272313117981,668.9272313117981,668.9272313117981,668.9272313117981,668.9272313117981,668.9272313117981,674.214747428894,3,5.419357538223267,None,,,,,,,,,,,,,,,,,,224,1,2025-03-10_13h23.17.366,comp,2024.2.4,46.59970157909765,2025-03-10 13h24.24.066779 -0400,
112,112,0,critical,hdw,20.0,3.0,lower,133.0,57.0,78.0,78.0,57.0,133.0,3,4.912193536758423,None,,,,,0,0,0,0,0,112,112,116,674.2302219867706,,,,,,,,,,,,,,,,,,,,,,,,,,,,,,,,,,,,,,,,,,,,,,,,,,,,,,,,,,,,,,,,,,,,,,,,,,,,,,,,,133.0,57.0,78.0,78.0,57.0,133.0,3.0,3.1,-164,275,0,10,202,-254,674.2163865566254,674.2164874076843,674.219927072525,674.2302219867706,674.3813831806183,674.3813831806183,674.3813831806183,674.3813831806183,674.3813831806183,674.3813831806183,674.3813831806183,679.1542038917542,3,4.912193536758423,None,,,,,,,,,,,,,,,,,,224,1,2025-03-10_13h23.17.366,comp,2024.2.4,46.59970157909765,2025-03-10 13h24.24.066779 -0400,
113,113,0,critical,wdh,35.0,2.1,upper,125.0,200.0,127.0,127.0,200.0,125.0,3,1.8235294818878174,None,,,,,0,0,0,0,0,113,113,33,679.1748678684235,,,,,,,,,,,,,,,,,,,,,,,,,,,,,,,,,,,,,,,,,,,,,,,,,,,,,,,,,,,,,,,,,,,,,,,,,,,,,,,,,125.0,200.0,127.0,127.0,200.0,125.0,2.1,2.11,-260,276,0,287,222,-260,679.1557288169861,679.1558072566986,679.1591167449951,679.1748678684235,679.3189752101898,679.3189752101898,679.3189752101898,679.3189752101898,679.3189752101898,679.3189752101898,679.3189752101898,681.0004615783691,3,1.8235294818878174,None,,,,,,,,,,,,,,,,,,224,1,2025-03-10_13h23.17.366,comp,2024.2.4,46.59970157909765,2025-03-10 13h24.24.066779 -0400,
114,114,0,filler_random,None,None,None,None,None,None,None,None,None,None,2,1.3985116481781006,None,,,,,0,0,0,0,0,114,114,153,681.016165971756,,,,,,,,,,,,,,,,,,,,,,,,,,,,,,,,,,,,,,,,,,,,,,,,,,,,,,,,,,,,,,,,,,,,,,,,,,,,,,,,,136.30548586778286,146.24103085236192,169.6872132033718,190.32515580386809,111.39836163036532,193.02606139414368,3.0,3.1,-264,274,0,5,288,-266,681.0021615028381,681.0022389888763,681.0052261352539,681.016165971756,681.1657283306122,681.1657283306122,681.1657283306122,681.1657283306122,681.1657283306122,681.1657283306122,681.1657283306122,682.4179873466492,2,1.3985116481781006,None,,,,,,,,,,,,,,,,,,224,1,2025-03-10_13h23.17.366,comp,2024.2.4,46.59970157909765,2025-03-10 13h24.24.066779 -0400,
115,115,0,critical,wdh,20.0,3.0,upper,125.0,200.0,141.0,141.0,200.0,125.0,3,3.352738380432129,None,,,,,0,0,0,0,0,115,115,81,682.4377365112305,,,,,,,,,,,,,,,,,,,,,,,,,,,,,,,,,,,,,,,,,,,,,,,,,,,,,,,,,,,,,,,,,,,,,,,,,,,,,,,,,125.0,200.0,141.0,141.0,200.0,125.0,3.0,3.1,-266,276,0,15,229,-275,682.4195377826691,682.4196147918701,682.4226548671722,682.4377365112305,682.5842926502228,682.5842926502228,682.5842926502228,682.5842926502228,682.5842926502228,682.5842926502228,682.5842926502228,685.8033833503723,3,3.352738380432129,None,,,,,,,,,,,,,,,,,,224,1,2025-03-10_13h23.17.366,comp,2024.2.4,46.59970157909765,2025-03-10 13h24.24.066779 -0400,
116,116,0,critical,hwd,35.0,2.1,lower,133.0,57.0,57.0,133.0,70.0,70.0,1,3.632564067840576,None,,,,,0,0,0,0,0,116,116,40,685.8219430446625,,,,,,,,,,,,,,,,,,,,,,,,,,,,,,,,,,,,,,,,,,,,,,,,,,,,,,,,,,,,,,,,,,,,,,,,,,,,,,,,,133.0,57.0,57.0,133.0,70.0,70.0,2.1,2.12,-191,-266,0,-288,198,251,685.805061340332,685.8051416873932,685.808842420578,685.8219430446625,685.9700636863708,685.9700636863708,685.9700636863708,685.9700636863708,685.9700636863708,685.9700636863708,685.9700636863708,689.4681060314178,1,3.632564067840576,None,,,,,,,,,,,,,,,,,,224,1,2025-03-10_13h23.17.366,comp,2024.2.4,46.59970157909765,2025-03-10 13h24.24.066779 -0400,
117,117,0,critical,wdh,35.0,4.0,upper,125.0,200.0,127.0,127.0,200.0,125.0,1,2.43477725982666,None,,,,,0,0,0,0,0,117,117,77,689.4843420982361,,,,,,,,,,,,,,,,,,,,,,,,,,,,,,,,,,,,,,,,,,,,,,,,,,,,,,,,,,,,,,,,,,,,,,,,,,,,,,,,,125.0,200.0,127.0,127.0,200.0,125.0,4.0,4.2,-260,3,0,-276,222,1,689.4695823192596,689.4696869850159,689.4728996753693,689.4843420982361,689.6390345096588,689.6390345096588,689.6390345096588,689.6390345096588,689.6390345096588,689.6390345096588,689.6390345096588,691.937175989151,1,2.43477725982666,None,,,,,,,,,,,,,,,,,,224,1,2025-03-10_13h23.17.366,comp,2024.2.4,46.59970157909765,2025-03-10 13h24.24.066779 -0400,
118,118,0,critical,whd,20.0,2.1,lower,57.0,133.0,133.0,57.0,78.0,78.0,2,7.989461421966553,None,,,,,0,0,0,0,0,118,118,14,691.9532079696655,,,,,,,,,,,,,,,,,,,,,,,,,,,,,,,,,,,,,,,,,,,,,,,,,,,,,,,,,,,,,,,,,,,,,,,,,,,,,,,,,57.0,133.0,133.0,57.0,78.0,78.0,2.1,2.11,-191,266,0,269,164,-254,691.9386284351349,691.938734292984,691.9427924156189,691.9532079696655,692.1079518795013,692.1079518795013,692.1079518795013,692.1079518795013,692.1079518795013,692.1079518795013,692.1079518795013,699.9559874534607,2,7.989461421966553,None,,,,,,,,,,,,,,,,,,224,1,2025-03-10_13h23.17.366,comp,2024.2.4,46.59970157909765,2025-03-10 13h24.24.066779 -0400,
119,119,0,critical,hwd,20.0,3.0,lower,133.0,57.0,57.0,133.0,78.0,78.0,1,3.9222397804260254,None,,,,,0,0,0,0,0,119,119,104,699.9721817970276,,,,,,,,,,,,,,,,,,,,,,,,,,,,,,,,,,,,,,,,,,,,,,,,,,,,,,,,,,,,,,,,,,,,,,,,,,,,,,,,,133.0,57.0,57.0,133.0,78.0,78.0,3.0,3.1,-191,269,0,-11,202,-282,699.9575116634369,699.9575898647308,699.9609813690186,699.9721817970276,700.12073969841,700.12073969841,700.12073969841,700.12073969841,700.12073969841,700.12073969841,700.12073969841,703.9117515087128,1,3.9222397804260254,None,,,,,,,,,,,,,,,,,,224,1,2025-03-10_13h23.17.366,comp,2024.2.4,46.59970157909765,2025-03-10 13h24.24.066779 -0400,
120,120,0,filler_square,None,None,None,None,None,None,None,None,None,None,2,6.295675277709961,None,,,,,0,0,0,0,0,120,120,170,703.9273962974548,,,,,,,,,,,,,,,,,,,,,,,,,,,,,,,,,,,,,,,,,,,,,,,,,,,,,,,,,,,,,,,,,,,,,,,,,,,,,,,,,58.774216694241886,59.117136240003816,78.84328521102209,78.84328521102209,77.40462778167769,63.3821776602313,2.2,2.22,-165,269,0,-253,167,-266,703.913690328598,703.9137706756592,703.9170434474945,703.9273962974548,704.0768482685089,704.0768482685089,704.0768482685089,704.0768482685089,704.0768482685089,704.0768482685089,704.0768482685089,710.2250854969025,2,6.295675277709961,None,,,,,,,,,,,,,,,,,,224,1,2025-03-10_13h23.17.366,comp,2024.2.4,46.59970157909765,2025-03-10 13h24.24.066779 -0400,
121,121,0,filler_square,None,None,None,None,None,None,None,None,None,None,3,1.077484130859375,None,,,,,0,0,0,0,0,121,121,177,710.2415497303009,,,,,,,,,,,,,,,,,,,,,,,,,,,,,,,,,,,,,,,,,,,,,,,,,,,,,,,,,,,,,,,,,,,,,,,,,,,,,,,,,57.54598897729119,93.69132019736688,100.62670674159283,85.56423648649863,110.60034747237296,110.60034747237296,3.0,3.2,-186,-272,0,-2,194,250,710.2269718647003,710.2271053791046,710.2305240631104,710.2415497303009,710.3947288990021,710.3947288990021,710.3947288990021,710.3947288990021,710.3947288990021,710.3947288990021,710.3947288990021,711.3272523880005,3,1.077484130859375,None,,,,,,,,,,,,,,,,,,224,1,2025-03-10_13h23.17.366,comp,2024.2.4,46.59970157909765,2025-03-10 13h24.24.066779 -0400,
122,122,0,critical,hwd,35.0,2.1,upper,200.0,125.0,125.0,200.0,127.0,127.0,2,5.431204557418823,None,,,,,0,0,0,0,0,122,122,41,711.3442049026489,,,,,,,,,,,,,,,,,,,,,,,,,,,,,,,,,,,,,,,,,,,,,,,,,,,,,,,,,,,,,,,,,,,,,,,,,,,,,,,,,200.0,125.0,125.0,200.0,127.0,127.0,2.1,2.11,-258,271,0,277,260,-270,711.3287725448608,711.3288493156433,711.3324830532074,711.3442049026489,711.4929482936859,711.4929482936859,711.4929482936859,711.4929482936859,711.4929482936859,711.4929482936859,711.4929482936859,716.7799172401428,2,5.431204557418823,None,,,,,,,,,,,,,,,,,,224,1,2025-03-10_13h23.17.366,comp,2024.2.4,46.59970157909765,2025-03-10 13h24.24.066779 -0400,
123,123,0,catch,None,None,None,None,None,None,None,None,None,None,3,1.289949655532837,None,,,,,0,0,0,0,0,123,123,129,716.7967426776886,,,,,,,,,,,,,,,,,,,,,,,,,,,,,,,,,,,,,,,,,,,,,,,,,,,,,,,,,,,,,,,,,,,,,,,,,,,,,,,,,67,123,78,112,144,181,1.0,1.1,-694,265,-480,266,-238,289,716.78253865242,716.7826976776123,716.7856063842773,716.7967426776886,716.9436042308807,716.9436042308807,716.9436042308807,716.9436042308807,716.9436042308807,716.9436042308807,716.9436042308807,718.0970604419708,3,1.289949655532837,None,,,,,,,,,,,,,,,,,,224,1,2025-03-10_13h23.17.366,comp,2024.2.4,46.59970157909765,2025-03-10 13h24.24.066779 -0400,
124,124,0,critical,whd,35.0,3.0,upper,125.0,200.0,200.0,125.0,127.0,127.0,1,2.6694276332855225,None,,,,,0,0,0,0,0,124,124,87,718.1130142211914,,,,,,,,,,,,,,,,,,,,,,,,,,,,,,,,,,,,,,,,,,,,,,,,,,,,,,,,,,,,,,,,,,,,,,,,,,,,,,,,,125.0,200.0,200.0,125.0,127.0,127.0,3.0,3.2,-258,-267,0,1,222,275,718.0988211631775,718.0989029407501,718.1020767688751,718.1130142211914,718.2590277194977,718.2590277194977,718.2590277194977,718.2590277194977,718.2590277194977,718.2590277194977,718.2590277194977,720.7953515052795,1,2.6694276332855225,None,,,,,,,,,,,,,,,,,,224,1,2025-03-10_13h23.17.366,comp,2024.2.4,46.59970157909765,2025-03-10 13h24.24.066779 -0400,
125,125,0,filler_square,None,None,None,None,None,None,None,None,None,None,1,4.593315839767456,None,,,,,0,0,0,0,0,125,125,186,720.8138151168823,,,,,,,,,,,,,,,,,,,,,,,,,,,,,,,,,,,,,,,,,,,,,,,,,,,,,,,,,,,,,,,,,,,,,,,,,,,,,,,,,120.40175180785431,120.40175180785431,113.10797755658139,115.02468269892927,66.86413782607936,112.51862517432942,2.1,2.12,-214,-281,0,-273,210,274,720.79736161232,720.7974560260773,720.8008313179016,720.8138151168823,720.9633615016937,720.9633615016937,720.9633615016937,720.9633615016937,720.9633615016937,720.9633615016937,720.9633615016937,725.4140841960907,1,4.593315839767456,None,,,,,,,,,,,,,,,,,,224,1,2025-03-10_13h23.17.366,comp,2024.2.4,46.59970157909765,2025-03-10 13h24.24.066779 -0400,
126,126,0,filler_square,None,None,None,None,None,None,None,None,None,None,2,1.3598172664642334,None,,,,,0,0,0,0,0,126,126,179,725.4308414459229,,,,,,,,,,,,,,,,,,,,,,,,,,,,,,,,,,,,,,,,,,,,,,,,,,,,,,,,,,,,,,,,,,,,,,,,,,,,,,,,,60.732237075623935,73.05651209876878,75.98482454959029,75.98482454959029,71.39790591386827,59.22064404962305,1.0,1.2,-171,-9,0,-1,164,-18,725.4159023761749,725.4159822463989,725.4200387001038,725.4308414459229,725.5815765857697,725.5815765857697,725.5815765857697,725.5815765857697,725.5815765857697,725.5815765857697,725.5815765857697,726.8067362308502,2,1.3598172664642334,None,,,,,,,,,,,,,,,,,,224,1,2025-03-10_13h23.17.366,comp,2024.2.4,46.59970157909765,2025-03-10 13h24.24.066779 -0400,
127,127,0,filler_random,None,None,None,None,None,None,None,None,None,None,3,2.7205917835235596,None,,,,,0,0,0,0,0,127,127,131,726.8226721286774,,,,,,,,,,,,,,,,,,,,,,,,,,,,,,,,,,,,,,,,,,,,,,,,,,,,,,,,,,,,,,,,,,,,,,,,,,,,,,,,,195.60074417531035,105.18676297917887,143.222615763264,171.3521891198763,199.4328948889893,155.87721120513464,2.2,2.21,-234,-281,0,287,260,288,726.8084661960602,726.8085477352142,726.8114340305328,726.8226721286774,726.9649841785431,726.9649841785431,726.9649841785431,726.9649841785431,726.9649841785431,726.9649841785431,726.9649841785431,729.5504496097565,3,2.7205917835235596,None,,,,,,,,,,,,,,,,,,224,1,2025-03-10_13h23.17.366,comp,2024.2.4,46.59970157909765,2025-03-10 13h24.24.066779 -0400,
128,128,0,critical,hdw,35.0,1.0,lower,133.0,57.0,70.0,70.0,57.0,133.0,3,4.703834533691406,None,,,,,0,0,0,0,0,128,128,108,729.5668714046478,,,,,,,,,,,,,,,,,,,,,,,,,,,,,,,,,,,,,,,,,,,,,,,,,,,,,,,,,,,,,,,,,,,,,,,,,,,,,,,,,133.0,57.0,70.0,70.0,57.0,133.0,1.0,1.1,-640,272,-480,288,-282,278,729.5523607730865,729.5524973869324,729.5559182167053,729.5668714046478,729.718124628067,729.718124628067,729.718124628067,729.718124628067,729.718124628067,729.718124628067,729.718124628067,734.2841353416443,3,4.703834533691406,None,,,,,,,,,,,,,,,,,,224,1,2025-03-10_13h23.17.366,comp,2024.2.4,46.59970157909765,2025-03-10 13h24.24.066779 -0400,
129,129,0,catch,None,None,None,None,None,None,None,None,None,None,1,2.22658371925354,None,,,,,0,0,0,0,0,129,129,128,734.3006954193115,,,,,,,,,,,,,,,,,,,,,,,,,,,,,,,,,,,,,,,,,,,,,,,,,,,,,,,,,,,,,,,,,,,,,,,,,,,,,,,,,140,185,111,79,74,116,4.0,4.2,-228,-1,0,-290,194,-16,734.28635430336,734.2864353656769,734.290055513382,734.3006954193115,734.4528663158417,734.4528663158417,734.4528663158417,734.4528663158417,734.4528663158417,734.4528663158417,734.4528663158417,736.5341527462006,1,2.22658371925354,None,,,,,,,,,,,,,,,,,,224,1,2025-03-10_13h23.17.366,comp,2024.2.4,46.59970157909765,2025-03-10 13h24.24.066779 -0400,
130,130,0,critical,dwh,35.0,2.1,upper,127.0,127.0,125.0,200.0,200.0,125.0,3,5.734773635864258,None,,,,,0,0,0,0,0,130,130,5,736.5517718791962,,,,,,,,,,,,,,,,,,,,,,,,,,,,,,,,,,,,,,,,,,,,,,,,,,,,,,,,,,,,,,,,,,,,,,,,,,,,,,,,,127.0,127.0,125.0,200.0,200.0,125.0,2.1,2.11,-260,257,0,253,258,-260,736.5358958244324,736.536004781723,736.5393228530884,736.5517718791962,736.7033905982971,736.7033905982971,736.7033905982971,736.7033905982971,736.7033905982971,736.7033905982971,736.7033905982971,742.2885601520538,3,5.734773635864258,None,,,,,,,,,,,,,,,,,,224,1,2025-03-10_13h23.17.366,comp,2024.2.4,46.59970157909765,2025-03-10 13h24.24.066779 -0400,
131,131,0,filler_random,None,None,None,None,None,None,None,None,None,None,2,2.2709081172943115,None,,,,,0,0,0,0,0,131,131,130,742.305406332016,,,,,,,,,,,,,,,,,,,,,,,,,,,,,,,,,,,,,,,,,,,,,,,,,,,,,,,,,,,,,,,,,,,,,,,,,,,,,,,,,110.03648201816884,145.162664833022,103.28082013596716,195.70782835340304,96.63080040908227,156.28362745786364,1.0,1.3,214,-288,480,-267,752,-254,742.2904341220856,742.2905139923096,742.2937796115875,742.305406332016,742.4482820034027,742.4482820034027,742.4482820034027,742.4482820034027,742.4482820034027,742.4482820034027,742.4482820034027,744.5879123210907,2,2.2709081172943115,None,,,,,,,,,,,,,,,,,,224,1,2025-03-10_13h23.17.366,comp,2024.2.4,46.59970157909765,2025-03-10 13h24.24.066779 -0400,
132,132,0,filler_random,None,None,None,None,None,None,None,None,None,None,1,2.8667635917663574,None,,,,,0,0,0,0,0,132,132,151,744.6041822433472,,,,,,,,,,,,,,,,,,,,,,,,,,,,,,,,,,,,,,,,,,,,,,,,,,,,,,,,,,,,,,,,,,,,,,,,,,,,,,,,,169.43344077424427,161.24853513209297,134.3507576677369,189.80569779753552,139.82009533182577,123.33267467857085,1.0,1.2,-272,20,0,14,253,10,744.5899069309235,744.5899856090546,744.5933091640472,744.6041822433472,744.7534790039062,744.7534790039062,744.7534790039062,744.7534790039062,744.7534790039062,744.7534790039062,744.7534790039062,747.4746129512787,1,2.8667635917663574,None,,,,,,,,,,,,,,,,,,224,1,2025-03-10_13h23.17.366,comp,2024.2.4,46.59970157909765,2025-03-10 13h24.24.066779 -0400,
133,133,0,filler_random,None,None,None,None,None,None,None,None,None,None,3,4.252150774002075,None,,,,,0,0,0,0,0,133,133,149,747.4903929233551,,,,,,,,,,,,,,,,,,,,,,,,,,,,,,,,,,,,,,,,,,,,,,,,,,,,,,,,,,,,,,,,,,,,,,,,,,,,,,,,,171.82447127765994,81.29052988122119,91.55867904049046,119.49817307936235,110.23615619939125,146.64920320864033,1.0,1.2,-196,-10,0,2,229,7,747.4762642383575,747.4763391017914,747.4795808792114,747.4903929233551,747.6379313468933,747.6379313468933,747.6379313468933,747.6379313468933,747.6379313468933,747.6379313468933,747.6379313468933,751.7473509311676,3,4.252150774002075,None,,,,,,,,,,,,,,,,,,224,1,2025-03-10_13h23.17.366,comp,2024.2.4,46.59970157909765,2025-03-10 13h24.24.066779 -0400,
134,134,0,critical,hdw,20.0,4.0,upper,200.0,125.0,141.0,141.0,125.0,200.0,3,4.191053152084351,None,,,,,0,0,0,0,0,134,134,119,751.767569065094,,,,,,,,,,,,,,,,,,,,,,,,,,,,,,,,,,,,,,,,,,,,,,,,,,,,,,,,,,,,,,,,,,,,,,,,,,,,,,,,,200.0,125.0,141.0,141.0,125.0,200.0,4.0,4.1,-229,-255,0,19,266,-267,751.748875617981,751.7489528656006,751.75186419487,751.767569065094,751.9049370288849,751.9049370288849,751.9049370288849,751.9049370288849,751.9049370288849,751.9049370288849,751.9049370288849,755.9728400707245,3,4.191053152084351,None,,,,,,,,,,,,,,,,,,224,1,2025-03-10_13h23.17.366,comp,2024.2.4,46.59970157909765,2025-03-10 13h24.24.066779 -0400,
135,135,0,critical,dhw,35.0,4.0,lower,70.0,70.0,133.0,57.0,57.0,133.0,3,3.8737740516662598,None,,,,,0,0,0,0,0,135,135,52,755.9888439178467,,,,,,,,,,,,,,,,,,,,,,,,,,,,,,,,,,,,,,,,,,,,,,,,,,,,,,,,,,,,,,,,,,,,,,,,,,,,,,,,,70.0,70.0,133.0,57.0,57.0,133.0,4.0,4.1,-160,-252,0,0,191,-251,755.9743576049805,755.9744324684143,755.9775457382202,755.9888439178467,756.1462647914886,756.1462647914886,756.1462647914886,756.1462647914886,756.1462647914886,756.1462647914886,756.1462647914886,759.876115322113,3,3.8737740516662598,None,,,,,,,,,,,,,,,,,,224,1,2025-03-10_13h23.17.366,comp,2024.2.4,46.59970157909765,2025-03-10 13h24.24.066779 -0400,
136,136,0,filler_random,None,None,None,None,None,None,None,None,None,None,1,3.5864486694335938,None,,,,,0,0,0,0,0,136,136,164,759.8922309875488,,,,,,,,,,,,,,,,,,,,,,,,,,,,,,,,,,,,,,,,,,,,,,,,,,,,,,,,,,,,,,,,,,,,,,,,,,,,,,,,,146.50770164326423,98.5995484582321,70.34459249573442,151.27560413993967,66.99782823285116,72.16578132134018,2.1,2.12,-221,-259,0,-272,208,264,759.8781630992889,759.878246307373,759.8817160129547,759.8922309875488,760.0421380996704,760.0421380996704,760.0421380996704,760.0421380996704,760.0421380996704,760.0421380996704,760.0421380996704,763.4924459457397,1,3.5864486694335938,None,,,,,,,,,,,,,,,,,,224,1,2025-03-10_13h23.17.366,comp,2024.2.4,46.59970157909765,2025-03-10 13h24.24.066779 -0400,
137,137,0,critical,dhw,20.0,2.1,lower,78.0,78.0,133.0,57.0,57.0,133.0,3,2.0821893215179443,None,,,,,0,0,0,0,0,137,137,26,763.5084226131439,,,,,,,,,,,,,,,,,,,,,,,,,,,,,,,,,,,,,,,,,,,,,,,,,,,,,,,,,,,,,,,,,,,,,,,,,,,,,,,,,78.0,78.0,133.0,57.0,57.0,133.0,2.1,2.12,-164,-252,0,-277,191,289,763.4939889907837,763.494065284729,763.4980690479279,763.5084226131439,763.6575331687927,763.6575331687927,763.6575331687927,763.6575331687927,763.6575331687927,763.6575331687927,763.6575331687927,765.5929923057556,3,2.0821893215179443,None,,,,,,,,,,,,,,,,,,224,1,2025-03-10_13h23.17.366,comp,2024.2.4,46.59970157909765,2025-03-10 13h24.24.066779 -0400,
138,138,0,filler_random,None,None,None,None,None,None,None,None,None,None,1,1.805668830871582,None,,,,,0,0,0,0,0,138,138,132,765.6088898181915,,,,,,,,,,,,,,,,,,,,,,,,,,,,,,,,,,,,,,,,,,,,,,,,,,,,,,,,,,,,,,,,,,,,,,,,,,,,,,,,,167.8458921091654,155.57739041908374,104.02514921831433,104.99615692432899,144.81445696671338,163.49826731864337,4.0,4.2,-226,16,0,-268,230,1,765.5947206020355,765.594799041748,765.5981414318085,765.6088898181915,765.7574148178101,765.7574148178101,765.7574148178101,765.7574148178101,765.7574148178101,765.7574148178101,765.7574148178101,767.426197052002,1,1.805668830871582,None,,,,,,,,,,,,,,,,,,224,1,2025-03-10_13h23.17.366,comp,2024.2.4,46.59970157909765,2025-03-10 13h24.24.066779 -0400,
139,139,0,critical,hwd,20.0,1.0,upper,200.0,125.0,125.0,200.0,141.0,141.0,1,3.3639707565307617,None,,,,,0,0,0,0,0,139,139,103,767.4426581859589,,,,,,,,,,,,,,,,,,,,,,,,,,,,,,,,,,,,,,,,,,,,,,,,,,,,,,,,,,,,,,,,,,,,,,,,,,,,,,,,,200.0,125.0,125.0,200.0,141.0,141.0,1.0,1.3,222,-264,480,-259,746,-276,767.4276585578918,767.4277367591858,767.430853843689,767.4426581859589,767.5946881771088,767.5946881771088,767.5946881771088,767.5946881771088,767.5946881771088,767.5946881771088,767.5946881771088,770.823851108551,1,3.3639707565307617,None,,,,,,,,,,,,,,,,,,224,1,2025-03-10_13h23.17.366,comp,2024.2.4,46.59970157909765,2025-03-10 13h24.24.066779 -0400,
140,140,0,critical,hdw,20.0,1.0,upper,200.0,125.0,141.0,141.0,125.0,200.0,3,2.7305636405944824,None,,,,,0,0,0,0,0,140,140,115,770.8442285060883,,,,,,,,,,,,,,,,,,,,,,,,,,,,,,,,,,,,,,,,,,,,,,,,,,,,,,,,,,,,,,,,,,,,,,,,,,,,,,,,,200.0,125.0,141.0,141.0,125.0,200.0,1.0,1.2,-229,3,0,8,266,-19,770.8254256248474,770.825525522232,770.8289012908936,770.8442285060883,770.9780993461609,770.9780993461609,770.9780993461609,770.9780993461609,770.9780993461609,770.9780993461609,770.9780993461609,773.5789880752563,3,2.7305636405944824,None,,,,,,,,,,,,,,,,,,224,1,2025-03-10_13h23.17.366,comp,2024.2.4,46.59970157909765,2025-03-10 13h24.24.066779 -0400,
