thisN,thisTrialN,thisRepN,effect,order,distance,config,diag,h_1,w_1,h_2,w_2,h_3,w_3,rect_choice.keys,rect_choice.rt,rect_choice.duration,instructions_loop.thisRepN,instructions_loop.thisTrialN,instructions_loop.thisN,instructions_loop.thisIndex,blocks.thisRepN,blocks.thisTrialN,blocks.thisN,blocks.thisIndex,trials.thisRepN,trials.thisTrialN,trials.thisN,trials.thisIndex,thisRow.t,notes,consent.started,agree_button.started,decline_button.started,consent_img.started,mouse.started,consent.stopped,agree_button.numClicks,agree_button.timesOn,agree_button.timesOff,decline_button.numClicks,decline_button.timesOn,decline_button.timesOff,mouse.x,mouse.y,mouse.leftButton,mouse.midButton,mouse.rightButton,mouse.time,mouse.clicked_name,exp_params.started,exp_params.stopped,welcome.started,welcome_text.started,welcome_text.stopped,welcome.stopped,instructions_1.started,instructions_1_text_1.started,instructions_1_text_2.started,key_resp.started,instructions_1.stopped,instructions_loop.key_resp.keys,instructions_loop.key_resp.rt,instructions_loop.key_resp.duration,instructions_2.started,instructions_2_text_1.started,instructions_2_text_2.started,key_resp_2.started,instructions_2.stopped,instructions_loop.key_resp_2.keys,instructions_loop.key_resp_2.rt,instructions_loop.key_resp_2.duration,instructions_3.started,instructions_3_text_1.started,r1_instr3.started,r2_instr3.started,r3_instr3.started,r1_instr3_label.started,r2_instr3_label.started,r3_instr3_label.started,instructions_3_text_3.started,instructions_3_text_4.started,key_resp_3.started,instructions_3.stopped,instructions_loop.key_resp_3.keys,instructions_loop.key_resp_3.rt,instructions_loop.key_resp_3.duration,instructions_4.started,instructions_4_text_1.started,instructions_4_text_3.started,instructions_4_text_2.started,key_resp_4.started,instructions_4.stopped,instructions_loop.key_resp_4.keys,instructions_loop.key_resp_4.rt,instructions_loop.key_resp_4.duration,instructions_5.started,instructions_5_text_1.started,instructions_5_text_2.started,key_resp_5.started,instructions_5.stopped,instructions_loop.key_resp_5.keys,instructions_loop.key_resp_5.rt,instructions_loop.key_resp_5.duration,start_exp.started,start_exp_text.started,key_resp_6.started,start_exp.stopped,key_resp_6.keys,key_resp_6.rt,key_resp_6.duration,h_1_tmp,w_1_tmp,h_2_tmp,w_2_tmp,h_3_tmp,w_3_tmp,config_tmp,config_tmp_1,r_1_x,r_1_y,r_2_x,r_2_y,r_3_x,r_3_y,pre_trial.started,pre_trial.stopped,choice_trial.started,rect_choice.started,r_1.started,r_2.started,r_3.started,r_1_label.started,r_2_label.started,r_3_label.started,prompt.started,choice_trial.stopped,trials.rect_choice.keys,trials.rect_choice.rt,trials.rect_choice.duration,end_block.started,end_block_text.started,end_block.stopped,end.started,end_text.started,key_resp_7.started,end.stopped,key_resp_7.keys,key_resp_7.rt,key_resp_7.duration,debriefing.started,debrief_form.started,end_debrief.started,debriefing.stopped,end_debrief.keys,end_debrief.rt,end_debrief.duration,participant,computer,date,expName,psychopyVersion,frameRate,expStart,
,,,,,,,,,,,,,,,,,,,,,,,,,,,,,,,0.015019655227661133,0.03777575492858887,0.03777575492858887,0.03777575492858887,0.014842510223388672,23.35400891304016,1,[23.313812732696533],[23.31383490562439],0,,,[-81.0],[-505.0],[1],[0],[0],[23.338570594787598],['agree_button'],,,,,,,,,,,,,,,,,,,,,,,,,,,,,,,,,,,,,,,,,,,,,,,,,,,,,,,,,,,,,,,,,,,,,,,,,,,,,,,,,,,,,,,,,,,,,,,,,,,,,,,,,,,,225,2,2025-03-10_13h23.15.922,comp,2024.2.4,None,2025-03-10 13h24.08.628212 -0400,
,,,,,,,,,,,,,,,,,,,,,,,,,,,,,,,,,,,,,,,,,,,,,,,,,,23.35456156730652,23.35462760925293,,,,,,,,,,,,,,,,,,,,,,,,,,,,,,,,,,,,,,,,,,,,,,,,,,,,,,,,,,,,,,,,,,,,,,,,,,,,,,,,,,,,,,,,,,,,,,,,,,,,,,,,,,225,2,2025-03-10_13h23.15.922,comp,2024.2.4,None,2025-03-10 13h24.08.628212 -0400,
,,,,,,,,,,,,,,,,,,,,,,,,,,,,,,,,,,,,,,,,,,,,,,,,,,,,23.354671955108643,23.37011408805847,25.37218999862671,25.35459566116333,,,,,,,,,,,,,,,,,,,,,,,,,,,,,,,,,,,,,,,,,,,,,,,,,,,,,,,,,,,,,,,,,,,,,,,,,,,,,,,,,,,,,,,,,,,,,,,,,,,,,,225,2,2025-03-10_13h23.15.922,comp,2024.2.4,None,2025-03-10 13h24.08.628212 -0400,
0,0,0,,,,,,,,,,,,,,,0,0,0,0,,,,,,,,,25.37218999862671,,,,,,,,,,,,,,,,,,,,,,,,,,,25.355453729629517,25.37218999862671,25.37218999862671,26.859864711761475,29.7425754070282,space,2.866182804107666,None,29.74272584915161,29.757867097854614,29.757867097854614,31.261083126068115,36.6606183052063,space,5.384932041168213,None,36.66076731681824,36.69336748123169,36.69336748123169,36.69336748123169,36.69336748123169,36.69336748123169,36.69336748123169,36.69336748123169,36.69336748123169,36.69336748123169,38.15966582298279,42.653505086898804,space,4.478361129760742,None,42.65366768836975,42.67042112350464,42.67042112350464,42.67042112350464,44.162874937057495,54.08205962181091,space,9.915380954742432,None,54.08221650123596,54.09839844703674,54.09839844703674,55.582669496536255,55.96635174751282,space,0.36733222007751465,None,55.96655225753784,55.98548984527588,55.98548984527588,57.35161328315735,space,1.3571929931640625,None,,,,,,,,,,,,,,,,,,,,,,,,,,,,,,,,,,,,,,,,,,,,,,,225,2,2025-03-10_13h23.15.922,comp,2024.2.4,None,2025-03-10 13h24.08.628212 -0400,
0,0,0,filler_random,None,None,None,None,None,None,None,None,None,None,2,9.883549213409424,None,,,,,0,0,0,0,0,0,0,163,57.42645454406738,,,,,,,,,,,,,,,,,,,,,,,,,,,,,,,,,,,,,,,,,,,,,,,,,,,,,,,,,,,,,,,,,,,,,,,,,,,,,,,,,,74.34334808298402,116.03784130593053,173.55724650105827,87.77392487110076,62.48574426916546,77.54443819775989,2.2,2.22,-198,276,0,-288,179,-286,57.410253286361694,57.41029453277588,57.41149830818176,57.42645454406738,57.57553267478943,57.57553267478943,57.57553267478943,57.57553267478943,57.57553267478943,57.57553267478943,57.57553267478943,67.32157158851624,2,9.883549213409424,None,,,,,,,,,,,,,,,,,,225,2,2025-03-10_13h23.15.922,comp,2024.2.4,None,2025-03-10 13h24.08.628212 -0400,
1,1,0,critical,hdw,35.0,2.1,upper,200.0,125.0,127.0,127.0,125.0,200.0,3,7.515345811843872,None,,,,,0,0,0,0,0,1,1,21,67.33860993385315,,,,,,,,,,,,,,,,,,,,,,,,,,,,,,,,,,,,,,,,,,,,,,,,,,,,,,,,,,,,,,,,,,,,,,,,,,,,,,,,,,200.0,125.0,127.0,127.0,125.0,200.0,2.1,2.11,-222,277,0,278,260,-285,67.32323789596558,67.32339763641357,67.3268415927887,67.33860993385315,67.48891139030457,67.48891139030457,67.48891139030457,67.48891139030457,67.48891139030457,67.48891139030457,67.48891139030457,74.85688161849976,3,7.515345811843872,None,,,,,,,,,,,,,,,,,,225,2,2025-03-10_13h23.15.922,comp,2024.2.4,None,2025-03-10 13h24.08.628212 -0400,
2,2,0,critical,hwd,20.0,1.0,upper,200.0,125.0,125.0,200.0,141.0,141.0,2,10.525048732757568,None,,,,,0,0,0,0,0,2,2,103,74.87287974357605,,,,,,,,,,,,,,,,,,,,,,,,,,,,,,,,,,,,,,,,,,,,,,,,,,,,,,,,,,,,,,,,,,,,,,,,,,,,,,,,,,200.0,125.0,125.0,200.0,141.0,141.0,1.0,1.2,-258,8,0,-3,266,-9,74.8585045337677,74.85858106613159,74.86200404167175,74.87287974357605,75.03072762489319,75.03072762489319,75.03072762489319,75.03072762489319,75.03072762489319,75.03072762489319,75.03072762489319,85.41133213043213,2,10.525048732757568,None,,,,,,,,,,,,,,,,,,225,2,2025-03-10_13h23.15.922,comp,2024.2.4,None,2025-03-10 13h24.08.628212 -0400,
3,3,0,filler_random,None,None,None,None,None,None,None,None,None,None,2,9.482566595077515,None,,,,,0,0,0,0,0,3,3,137,85.42762017250061,,,,,,,,,,,,,,,,,,,,,,,,,,,,,,,,,,,,,,,,,,,,,,,,,,,,,,,,,,,,,,,,,,,,,,,,,,,,,,,,,,185.21446045765325,136.5653446089425,144.11306546081215,180.3866344768388,106.32223623622264,196.34422875815667,2.2,2.21,-254,-272,0,268,284,268,85.41313648223877,85.41321849822998,85.41612792015076,85.42762017250061,85.57687616348267,85.57687616348267,85.57687616348267,85.57687616348267,85.57687616348267,85.57687616348267,85.57687616348267,94.92214441299438,2,9.482566595077515,None,,,,,,,,,,,,,,,,,,225,2,2025-03-10_13h23.15.922,comp,2024.2.4,None,2025-03-10 13h24.08.628212 -0400,
4,4,0,filler_square,None,None,None,None,None,None,None,None,None,None,2,3.0552027225494385,None,,,,,0,0,0,0,0,4,4,186,94.94272184371948,,,,,,,,,,,,,,,,,,,,,,,,,,,,,,,,,,,,,,,,,,,,,,,,,,,,,,,,,,,,,,,,,,,,,,,,,,,,,,,,,,176.03814479845408,106.21037736827157,196.51429351495545,196.51429351495545,58.516559655375914,57.682738058582316,4.0,4.1,-247,-263,0,19,223,-253,94.9239730834961,94.92405200004578,94.92699933052063,94.94272184371948,95.08241820335388,95.08241820335388,95.08241820335388,95.08241820335388,95.08241820335388,95.08241820335388,95.08241820335388,98.01284074783325,2,3.0552027225494385,None,,,,,,,,,,,,,,,,,,225,2,2025-03-10_13h23.15.922,comp,2024.2.4,None,2025-03-10 13h24.08.628212 -0400,
5,5,0,critical,dhw,35.0,4.0,upper,127.0,127.0,200.0,125.0,125.0,200.0,3,4.65738582611084,None,,,,,0,0,0,0,0,5,5,53,98.02865648269653,,,,,,,,,,,,,,,,,,,,,,,,,,,,,,,,,,,,,,,,,,,,,,,,,,,,,,,,,,,,,,,,,,,,,,,,,,,,,,,,,,127.0,127.0,200.0,125.0,125.0,200.0,4.0,4.2,-222,17,0,-262,258,12,98.0143826007843,98.0144567489624,98.01739740371704,98.02865648269653,98.16505551338196,98.16505551338196,98.16505551338196,98.16505551338196,98.16505551338196,98.16505551338196,98.16505551338196,102.69920229911804,3,4.65738582611084,None,,,,,,,,,,,,,,,,,,225,2,2025-03-10_13h23.15.922,comp,2024.2.4,None,2025-03-10 13h24.08.628212 -0400,
6,6,0,critical,whd,35.0,3.0,upper,125.0,200.0,200.0,125.0,127.0,127.0,1,6.027742624282837,None,,,,,0,0,0,0,0,6,6,87,102.71518182754517,,,,,,,,,,,,,,,,,,,,,,,,,,,,,,,,,,,,,,,,,,,,,,,,,,,,,,,,,,,,,,,,,,,,,,,,,,,,,,,,,,125.0,200.0,200.0,125.0,127.0,127.0,3.0,3.2,-258,-285,0,-1,222,257,102.70091581344604,102.70101141929626,102.70490217208862,102.71518182754517,102.86612129211426,102.86612129211426,102.86612129211426,102.86612129211426,102.86612129211426,102.86612129211426,102.86612129211426,108.7520923614502,1,6.027742624282837,None,,,,,,,,,,,,,,,,,,225,2,2025-03-10_13h23.15.922,comp,2024.2.4,None,2025-03-10 13h24.08.628212 -0400,
7,7,0,critical,dhw,35.0,1.0,lower,70.0,70.0,133.0,57.0,57.0,133.0,2,8.237724304199219,None,,,,,0,0,0,0,0,7,7,48,108.76819062232971,,,,,,,,,,,,,,,,,,,,,,,,,,,,,,,,,,,,,,,,,,,,,,,,,,,,,,,,,,,,,,,,,,,,,,,,,,,,,,,,,,70.0,70.0,133.0,57.0,57.0,133.0,1.0,1.1,-640,287,-480,258,-289,272,108.75374054908752,108.75381684303284,108.75731539726257,108.76819062232971,108.9170651435852,108.9170651435852,108.9170651435852,108.9170651435852,108.9170651435852,108.9170651435852,108.9170651435852,117.01917624473572,2,8.237724304199219,None,,,,,,,,,,,,,,,,,,225,2,2025-03-10_13h23.15.922,comp,2024.2.4,None,2025-03-10 13h24.08.628212 -0400,
8,8,0,critical,hdw,35.0,2.1,lower,133.0,57.0,70.0,70.0,57.0,133.0,3,5.743042707443237,None,,,,,0,0,0,0,0,8,8,44,117.03893518447876,,,,,,,,,,,,,,,,,,,,,,,,,,,,,,,,,,,,,,,,,,,,,,,,,,,,,,,,,,,,,,,,,,,,,,,,,,,,,,,,,,133.0,57.0,70.0,70.0,57.0,133.0,2.1,2.11,-160,252,0,255,198,-276,117.02079343795776,117.02086758613586,117.02418303489685,117.03893518447876,117.17821216583252,117.17821216583252,117.17821216583252,117.17821216583252,117.17821216583252,117.17821216583252,117.17821216583252,122.79778957366943,3,5.743042707443237,None,,,,,,,,,,,,,,,,,,225,2,2025-03-10_13h23.15.922,comp,2024.2.4,None,2025-03-10 13h24.08.628212 -0400,
9,9,0,filler_square,None,None,None,None,None,None,None,None,None,None,3,2.6717562675476074,None,,,,,0,0,0,0,0,9,9,191,122.81454181671143,,,,,,,,,,,,,,,,,,,,,,,,,,,,,,,,,,,,,,,,,,,,,,,,,,,,,,,,,,,,,,,,,,,,,,,,,,,,,,,,,,93.8000649456767,104.36541839355093,102.68260814078081,136.60024157526556,172.45048420298465,172.45048420298465,1.0,1.3,264,-263,480,-267,731,-281,122.7998423576355,122.79992175102234,122.80318236351013,122.81454181671143,122.95574164390564,122.95574164390564,122.95574164390564,122.95574164390564,122.95574164390564,122.95574164390564,122.95574164390564,125.48826456069946,3,2.6717562675476074,None,,,,,,,,,,,,,,,,,,225,2,2025-03-10_13h23.15.922,comp,2024.2.4,None,2025-03-10 13h24.08.628212 -0400,
10,10,0,critical,wdh,20.0,2.1,lower,57.0,133.0,78.0,78.0,133.0,57.0,3,17.390635013580322,None,,,,,0,0,0,0,0,10,10,10,125.50383615493774,,,,,,,,,,,,,,,,,,,,,,,,,,,,,,,,,,,,,,,,,,,,,,,,,,,,,,,,,,,,,,,,,,,,,,,,,,,,,,,,,,57.0,133.0,78.0,78.0,133.0,57.0,2.1,2.11,-202,278,0,267,164,-268,125.48974990844727,125.48982381820679,125.49288272857666,125.50383615493774,125.65602898597717,125.65602898597717,125.65602898597717,125.65602898597717,125.65602898597717,125.65602898597717,125.65602898597717,142.91123604774475,3,17.390635013580322,None,,,,,,,,,,,,,,,,,,225,2,2025-03-10_13h23.15.922,comp,2024.2.4,None,2025-03-10 13h24.08.628212 -0400,
11,11,0,critical,hdw,35.0,2.1,lower,133.0,57.0,70.0,70.0,57.0,133.0,1,5.808387517929077,None,,,,,0,0,0,0,0,11,11,20,142.9264464378357,,,,,,,,,,,,,,,,,,,,,,,,,,,,,,,,,,,,,,,,,,,,,,,,,,,,,,,,,,,,,,,,,,,,,,,,,,,,,,,,,,133.0,57.0,70.0,70.0,57.0,133.0,2.1,2.12,-160,-278,0,-284,198,277,142.91286444664001,142.91294264793396,142.91622591018677,142.9264464378357,143.08103847503662,143.08103847503662,143.08103847503662,143.08103847503662,143.08103847503662,143.08103847503662,143.08103847503662,148.74733638763428,1,5.808387517929077,None,,,,,,,,,,,,,,,,,,225,2,2025-03-10_13h23.15.922,comp,2024.2.4,None,2025-03-10 13h24.08.628212 -0400,
12,12,0,filler_random,None,None,None,None,None,None,None,None,None,None,1,6.114331007003784,None,,,,,0,0,0,0,0,12,12,152,148.7635796070099,,,,,,,,,,,,,,,,,,,,,,,,,,,,,,,,,,,,,,,,,,,,,,,,,,,,,,,,,,,,,,,,,,,,,,,,,,,,,,,,,,155.95080766894057,198.35451243796535,174.37586684591298,110.35893579985714,182.95952722528688,105.92109991611238,4.0,4.1,-250,-255,0,8,204,-280,148.74909615516663,148.74917674064636,148.7525496482849,148.7635796070099,148.91265177726746,148.91265177726746,148.91265177726746,148.91265177726746,148.91265177726746,148.91265177726746,148.91265177726746,154.89321422576904,1,6.114331007003784,None,,,,,,,,,,,,,,,,,,225,2,2025-03-10_13h23.15.922,comp,2024.2.4,None,2025-03-10 13h24.08.628212 -0400,
13,13,0,critical,dhw,20.0,2.1,upper,141.0,141.0,200.0,125.0,125.0,200.0,3,6.7304863929748535,None,,,,,0,0,0,0,0,13,13,3,154.90965843200684,,,,,,,,,,,,,,,,,,,,,,,,,,,,,,,,,,,,,,,,,,,,,,,,,,,,,,,,,,,,,,,,,,,,,,,,,,,,,,,,,,141.0,141.0,200.0,125.0,125.0,200.0,2.1,2.12,-229,-283,0,-270,258,270,154.8949167728424,154.89505243301392,154.8983075618744,154.90965843200684,155.04808473587036,155.04808473587036,155.04808473587036,155.04808473587036,155.04808473587036,155.04808473587036,155.04808473587036,161.65095829963684,3,6.7304863929748535,None,,,,,,,,,,,,,,,,,,225,2,2025-03-10_13h23.15.922,comp,2024.2.4,None,2025-03-10 13h24.08.628212 -0400,
14,14,0,critical,whd,20.0,3.0,upper,125.0,200.0,200.0,125.0,141.0,141.0,3,6.050832748413086,None,,,,,0,0,0,0,0,14,14,93,161.66706943511963,,,,,,,,,,,,,,,,,,,,,,,,,,,,,,,,,,,,,,,,,,,,,,,,,,,,,,,,,,,,,,,,,,,,,,,,,,,,,,,,,,125.0,200.0,200.0,125.0,141.0,141.0,3.0,3.1,-258,288,0,10,229,-259,161.65258502960205,161.6526689529419,161.65612626075745,161.66706943511963,161.81601905822754,161.81601905822754,161.81601905822754,161.81601905822754,161.81601905822754,161.81601905822754,161.81601905822754,167.7357246875763,3,6.050832748413086,None,,,,,,,,,,,,,,,,,,225,2,2025-03-10_13h23.15.922,comp,2024.2.4,None,2025-03-10 13h24.08.628212 -0400,
15,15,0,filler_square,None,None,None,None,None,None,None,None,None,None,2,4.238135814666748,None,,,,,0,0,0,0,0,15,15,202,167.75187945365906,,,,,,,,,,,,,,,,,,,,,,,,,,,,,,,,,,,,,,,,,,,,,,,,,,,,,,,,,,,,,,,,,,,,,,,,,,,,,,,,,,100.52625751335893,118.94729459161643,129.12070255522798,129.12070255522798,83.2766180301439,114.99139953353806,2.2,2.21,-220,-270,0,250,218,252,167.73784041404724,167.73792004585266,167.74157619476318,167.75187945365906,167.90088295936584,167.90088295936584,167.90088295936584,167.90088295936584,167.90088295936584,167.90088295936584,167.90088295936584,172.0036232471466,2,4.238135814666748,None,,,,,,,,,,,,,,,,,,225,2,2025-03-10_13h23.15.922,comp,2024.2.4,None,2025-03-10 13h24.08.628212 -0400,
16,16,0,critical,wdh,35.0,4.0,lower,57.0,133.0,70.0,70.0,133.0,57.0,3,7.907158851623535,None,,,,,0,0,0,0,0,16,16,76,172.01877880096436,,,,,,,,,,,,,,,,,,,,,,,,,,,,,,,,,,,,,,,,,,,,,,,,,,,,,,,,,,,,,,,,,,,,,,,,,,,,,,,,,,57.0,133.0,70.0,70.0,133.0,57.0,4.0,4.1,-198,-287,0,-9,160,-251,172.0051200389862,172.00519490242004,172.00855946540833,172.01877880096436,172.17057466506958,172.17057466506958,172.17057466506958,172.17057466506958,172.17057466506958,172.17057466506958,172.17057466506958,179.938134431839,3,7.907158851623535,None,,,,,,,,,,,,,,,,,,225,2,2025-03-10_13h23.15.922,comp,2024.2.4,None,2025-03-10 13h24.08.628212 -0400,
17,17,0,filler_random,None,None,None,None,None,None,None,None,None,None,2,4.802434921264648,None,,,,,0,0,0,0,0,17,17,162,179.95551347732544,,,,,,,,,,,,,,,,,,,,,,,,,,,,,,,,,,,,,,,,,,,,,,,,,,,,,,,,,,,,,,,,,,,,,,,,,,,,,,,,,,139.49415880196005,66.53758688109724,89.13045089554925,131.50862790670448,144.71590107801603,59.26055871411503,2.1,2.12,-195,-279,0,-251,191,250,179.9398512840271,179.93992710113525,179.94303131103516,179.95551347732544,180.10671305656433,180.10671305656433,180.10671305656433,180.10671305656433,180.10671305656433,180.10671305656433,180.10671305656433,184.7723560333252,2,4.802434921264648,None,,,,,,,,,,,,,,,,,,225,2,2025-03-10_13h23.15.922,comp,2024.2.4,None,2025-03-10 13h24.08.628212 -0400,
18,18,0,critical,wdh,20.0,4.0,lower,57.0,133.0,78.0,78.0,133.0,57.0,3,5.666243314743042,None,,,,,0,0,0,0,0,18,18,82,184.7880985736847,,,,,,,,,,,,,,,,,,,,,,,,,,,,,,,,,,,,,,,,,,,,,,,,,,,,,,,,,,,,,,,,,,,,,,,,,,,,,,,,,,57.0,133.0,78.0,78.0,133.0,57.0,4.0,4.1,-202,-282,0,-16,164,-257,184.77398824691772,184.7740786075592,184.7775149345398,184.7880985736847,184.94338059425354,184.94338059425354,184.94338059425354,184.94338059425354,184.94338059425354,184.94338059425354,184.94338059425354,190.4631221294403,3,5.666243314743042,None,,,,,,,,,,,,,,,,,,225,2,2025-03-10_13h23.15.922,comp,2024.2.4,None,2025-03-10 13h24.08.628212 -0400,
19,19,0,critical,hdw,35.0,2.1,upper,200.0,125.0,127.0,127.0,125.0,200.0,3,3.3630425930023193,None,,,,,0,0,0,0,0,19,19,45,190.48280549049377,,,,,,,,,,,,,,,,,,,,,,,,,,,,,,,,,,,,,,,,,,,,,,,,,,,,,,,,,,,,,,,,,,,,,,,,,,,,,,,,,,200.0,125.0,127.0,127.0,125.0,200.0,2.1,2.11,-222,277,0,267,260,-265,190.4648187160492,190.46490001678467,190.46786737442017,190.48280549049377,190.62743997573853,190.62743997573853,190.62743997573853,190.62743997573853,190.62743997573853,190.62743997573853,190.62743997573853,193.8600368499756,3,3.3630425930023193,None,,,,,,,,,,,,,,,,,,225,2,2025-03-10_13h23.15.922,comp,2024.2.4,None,2025-03-10 13h24.08.628212 -0400,
20,20,0,critical,hwd,35.0,2.1,upper,200.0,125.0,125.0,200.0,127.0,127.0,2,8.066391468048096,None,,,,,0,0,0,0,0,20,20,17,193.87593054771423,,,,,,,,,,,,,,,,,,,,,,,,,,,,,,,,,,,,,,,,,,,,,,,,,,,,,,,,,,,,,,,,,,,,,,,,,,,,,,,,,,200.0,125.0,125.0,200.0,127.0,127.0,2.1,2.11,-258,270,0,251,260,-281,193.86160111427307,193.86167860031128,193.86479878425598,193.87593054771423,194.02733850479126,194.02733850479126,194.02733850479126,194.02733850479126,194.02733850479126,194.02733850479126,194.02733850479126,201.9529836177826,2,8.066391468048096,None,,,,,,,,,,,,,,,,,,225,2,2025-03-10_13h23.15.922,comp,2024.2.4,None,2025-03-10 13h24.08.628212 -0400,
21,21,0,critical,whd,35.0,4.0,lower,57.0,133.0,133.0,57.0,70.0,70.0,1,5.939557790756226,None,,,,,0,0,0,0,0,21,21,88,201.97058272361755,,,,,,,,,,,,,,,,,,,,,,,,,,,,,,,,,,,,,,,,,,,,,,,,,,,,,,,,,,,,,,,,,,,,,,,,,,,,,,,,,,57.0,133.0,133.0,57.0,70.0,70.0,4.0,4.1,-191,-253,0,-6,160,-279,201.95450496673584,201.95458507537842,201.95749735832214,201.97058272361755,202.11274933815002,202.11274933815002,202.11274933815002,202.11274933815002,202.11274933815002,202.11274933815002,202.11274933815002,207.9151029586792,1,5.939557790756226,None,,,,,,,,,,,,,,,,,,225,2,2025-03-10_13h23.15.922,comp,2024.2.4,None,2025-03-10 13h24.08.628212 -0400,
22,22,0,filler_square,None,None,None,None,None,None,None,None,None,None,2,7.586410999298096,None,,,,,0,0,0,0,0,22,22,183,207.93141746520996,,,,,,,,,,,,,,,,,,,,,,,,,,,,,,,,,,,,,,,,,,,,,,,,,,,,,,,,,,,,,,,,,,,,,,,,,,,,,,,,,,62.390588007129985,64.50144512838146,66.62177056647931,66.62177056647931,66.43581417414869,66.34807891425578,2.2,2.22,-162,266,0,-267,162,-263,207.91701745986938,207.91709971427917,207.92066740989685,207.93141746520996,208.08011889457703,208.08011889457703,208.08011889457703,208.08011889457703,208.08011889457703,208.08011889457703,208.08011889457703,215.5317440032959,2,7.586410999298096,None,,,,,,,,,,,,,,,,,,225,2,2025-03-10_13h23.15.922,comp,2024.2.4,None,2025-03-10 13h24.08.628212 -0400,
23,23,0,critical,hdw,35.0,4.0,lower,133.0,57.0,70.0,70.0,57.0,133.0,3,5.625600337982178,None,,,,,0,0,0,0,0,23,23,112,215.54826521873474,,,,,,,,,,,,,,,,,,,,,,,,,,,,,,,,,,,,,,,,,,,,,,,,,,,,,,,,,,,,,,,,,,,,,,,,,,,,,,,,,,133.0,57.0,70.0,70.0,57.0,133.0,4.0,4.2,-160,-13,0,-275,198,-18,215.53338408470154,215.53348541259766,215.53684759140015,215.54826521873474,215.70307660102844,215.70307660102844,215.70307660102844,215.70307660102844,215.70307660102844,215.70307660102844,215.70307660102844,221.18412733078003,3,5.625600337982178,None,,,,,,,,,,,,,,,,,,225,2,2025-03-10_13h23.15.922,comp,2024.2.4,None,2025-03-10 13h24.08.628212 -0400,
24,24,0,filler_square,None,None,None,None,None,None,None,None,None,None,3,1.8852202892303467,None,,,,,0,0,0,0,0,24,24,181,221.20064282417297,,,,,,,,,,,,,,,,,,,,,,,,,,,,,,,,,,,,,,,,,,,,,,,,,,,,,,,,,,,,,,,,,,,,,,,,,,,,,,,,,,112.94045116302189,72.17094408008208,73.94810706822071,99.96618589248631,143.7410559254318,143.7410559254318,1.0,1.1,-662,276,-480,263,-262,281,221.18583226203918,221.1859095096588,221.1888406276703,221.20064282417297,221.3547694683075,221.3547694683075,221.3547694683075,221.3547694683075,221.3547694683075,221.3547694683075,221.3547694683075,223.10253167152405,3,1.8852202892303467,None,,,,,,,,,,,,,,,,,,225,2,2025-03-10_13h23.15.922,comp,2024.2.4,None,2025-03-10 13h24.08.628212 -0400,
25,25,0,critical,hdw,35.0,1.0,upper,200.0,125.0,127.0,127.0,125.0,200.0,3,3.9753639698028564,None,,,,,0,0,0,0,0,25,25,109,223.11919045448303,,,,,,,,,,,,,,,,,,,,,,,,,,,,,,,,,,,,,,,,,,,,,,,,,,,,,,,,,,,,,,,,,,,,,,,,,,,,,,,,,,200.0,125.0,127.0,127.0,125.0,200.0,1.0,1.3,258,-284,480,-268,740,-275,223.10412502288818,223.1042037010193,223.10761666297913,223.11919045448303,223.26773858070374,223.26773858070374,223.26773858070374,223.26773858070374,223.26773858070374,223.26773858070374,223.26773858070374,227.10425424575806,3,3.9753639698028564,None,,,,,,,,,,,,,,,,,,225,2,2025-03-10_13h23.15.922,comp,2024.2.4,None,2025-03-10 13h24.08.628212 -0400,
26,26,0,critical,dhw,20.0,3.0,lower,78.0,78.0,133.0,57.0,57.0,133.0,3,3.141376495361328,None,,,,,0,0,0,0,0,26,26,56,227.1206886768341,,,,,,,,,,,,,,,,,,,,,,,,,,,,,,,,,,,,,,,,,,,,,,,,,,,,,,,,,,,,,,,,,,,,,,,,,,,,,,,,,,78.0,78.0,133.0,57.0,57.0,133.0,3.0,3.1,-164,257,0,14,191,-252,227.10593605041504,227.1060552597046,227.109619140625,227.1206886768341,227.2614028453827,227.2614028453827,227.2614028453827,227.2614028453827,227.2614028453827,227.2614028453827,227.2614028453827,230.27838802337646,3,3.141376495361328,None,,,,,,,,,,,,,,,,,,225,2,2025-03-10_13h23.15.922,comp,2024.2.4,None,2025-03-10 13h24.08.628212 -0400,
27,27,0,critical,whd,35.0,1.0,upper,125.0,200.0,200.0,125.0,127.0,127.0,3,8.526427507400513,None,,,,,0,0,0,0,0,27,27,85,230.2956223487854,,,,,,,,,,,,,,,,,,,,,,,,,,,,,,,,,,,,,,,,,,,,,,,,,,,,,,,,,,,,,,,,,,,,,,,,,,,,,,,,,,125.0,200.0,200.0,125.0,127.0,127.0,1.0,1.2,-258,-4,0,-19,222,14,230.27992296218872,230.28000259399414,230.28299593925476,230.2956223487854,230.4373528957367,230.4373528957367,230.4373528957367,230.4373528957367,230.4373528957367,230.4373528957367,230.4373528957367,238.82421112060547,3,8.526427507400513,None,,,,,,,,,,,,,,,,,,225,2,2025-03-10_13h23.15.922,comp,2024.2.4,None,2025-03-10 13h24.08.628212 -0400,
28,28,0,filler_square,None,None,None,None,None,None,None,None,None,None,2,1.7093286514282227,None,,,,,0,0,0,0,0,28,28,190,238.84253430366516,,,,,,,,,,,,,,,,,,,,,,,,,,,,,,,,,,,,,,,,,,,,,,,,,,,,,,,,,,,,,,,,,,,,,,,,,,,,,,,,,,80.94562831086672,64.9891204918921,102.36989343478903,102.36989343478903,63.221114224835894,77.22862589151094,2.2,2.22,-180,283,0,-274,186,-260,238.826007604599,238.8260841369629,238.82918238639832,238.84253430366516,238.9913101196289,238.9913101196289,238.9913101196289,238.9913101196289,238.9913101196289,238.9913101196289,238.9913101196289,240.55757641792297,2,1.7093286514282227,None,,,,,,,,,,,,,,,,,,225,2,2025-03-10_13h23.15.922,comp,2024.2.4,None,2025-03-10 13h24.08.628212 -0400,
29,29,0,filler_square,None,None,None,None,None,None,None,None,None,None,1,2.6012139320373535,None,,,,,0,0,0,0,0,29,29,174,240.5733664035797,,,,,,,,,,,,,,,,,,,,,,,,,,,,,,,,,,,,,,,,,,,,,,,,,,,,,,,,,,,,,,,,,,,,,,,,,,,,,,,,,,99.62422326675483,99.62422326675483,79.07773358808626,93.6233015850581,85.01632348014587,66.00443283073487,2.2,2.21,-193,-284,0,270,176,269,240.5593547821045,240.55943489074707,240.56254887580872,240.5733664035797,240.71095776557922,240.71095776557922,240.71095776557922,240.71095776557922,240.71095776557922,240.71095776557922,240.71095776557922,243.19194078445435,1,2.6012139320373535,None,,,,,,,,,,,,,,,,,,225,2,2025-03-10_13h23.15.922,comp,2024.2.4,None,2025-03-10 13h24.08.628212 -0400,
30,30,0,filler_random,None,None,None,None,None,None,None,None,None,None,2,4.446046829223633,None,,,,,0,0,0,0,0,30,30,143,243.20853924751282,,,,,,,,,,,,,,,,,,,,,,,,,,,,,,,,,,,,,,,,,,,,,,,,,,,,,,,,,,,,,,,,,,,,,,,,,,,,,,,,,,134.37010897207628,111.0826952967141,192.16746713400894,94.81061374474018,83.9952009370302,140.62545268583258,4.0,4.1,-199,-261,0,-13,214,-255,243.19394207000732,243.19402241706848,243.1972451210022,243.20853924751282,243.36087441444397,243.36087441444397,243.36087441444397,243.36087441444397,243.36087441444397,243.36087441444397,243.36087441444397,247.6618630886078,2,4.446046829223633,None,,,,,,,,,,,,,,,,,,225,2,2025-03-10_13h23.15.922,comp,2024.2.4,None,2025-03-10 13h24.08.628212 -0400,
31,31,0,critical,dwh,20.0,1.0,upper,141.0,141.0,125.0,200.0,200.0,125.0,2,4.288043737411499,None,,,,,0,0,0,0,0,31,31,67,247.6777744293213,,,,,,,,,,,,,,,,,,,,,,,,,,,,,,,,,,,,,,,,,,,,,,,,,,,,,,,,,,,,,,,,,,,,,,,,,,,,,,,,,,141.0,141.0,125.0,200.0,200.0,125.0,1.0,1.1,-746,257,-480,283,-222,283,247.66341376304626,247.6635389328003,247.66682267189026,247.6777744293213,247.8316433429718,247.8316433429718,247.8316433429718,247.8316433429718,247.8316433429718,247.8316433429718,247.8316433429718,251.97912526130676,2,4.288043737411499,None,,,,,,,,,,,,,,,,,,225,2,2025-03-10_13h23.15.922,comp,2024.2.4,None,2025-03-10 13h24.08.628212 -0400,
32,32,0,filler_random,None,None,None,None,None,None,None,None,None,None,3,1.8989949226379395,None,,,,,0,0,0,0,0,32,32,168,251.99532103538513,,,,,,,,,,,,,,,,,,,,,,,,,,,,,,,,,,,,,,,,,,,,,,,,,,,,,,,,,,,,,,,,,,,,,,,,,,,,,,,,,,144.6946082345956,77.31673106822636,63.2144577897054,102.5103898999555,169.4689233055592,187.16679894779784,2.2,2.22,-186,266,0,-252,241,-274,251.98111367225647,251.98119068145752,251.98499011993408,251.99532103538513,252.14442038536072,252.14442038536072,252.14442038536072,252.14442038536072,252.14442038536072,252.14442038536072,252.14442038536072,253.90168261528015,3,1.8989949226379395,None,,,,,,,,,,,,,,,,,,225,2,2025-03-10_13h23.15.922,comp,2024.2.4,None,2025-03-10 13h24.08.628212 -0400,
33,33,0,filler_square,None,None,None,None,None,None,None,None,None,None,3,2.438758373260498,None,,,,,0,0,0,0,0,33,33,184,253.91963958740234,,,,,,,,,,,,,,,,,,,,,,,,,,,,,,,,,,,,,,,,,,,,,,,,,,,,,,,,,,,,,,,,,,,,,,,,,,,,,,,,,,81.08707533139116,74.31760584250532,79.01307547234646,73.38444360095811,100.32360608175705,100.32360608175705,2.1,2.11,-170,287,0,260,183,-280,253.90352058410645,253.90359735488892,253.90650534629822,253.91963958740234,254.06243896484375,254.06243896484375,254.06243896484375,254.06243896484375,254.06243896484375,254.06243896484375,254.06243896484375,256.36956238746643,3,2.438758373260498,None,,,,,,,,,,,,,,,,,,225,2,2025-03-10_13h23.15.922,comp,2024.2.4,None,2025-03-10 13h24.08.628212 -0400,
34,34,0,catch,None,None,None,None,None,None,None,None,None,None,2,1.8083469867706299,None,,,,,0,0,0,0,0,34,34,120,256.3899130821228,,,,,,,,,,,,,,,,,,,,,,,,,,,,,,,,,,,,,,,,,,,,,,,,,,,,,,,,,,,,,,,,,,,,,,,,,,,,,,,,,,62,128,144,181,104,86,3.0,3.2,-250,-268,0,18,230,261,256.3714802265167,256.37155842781067,256.37443232536316,256.3899130821228,256.5305082798004,256.5305082798004,256.5305082798004,256.5305082798004,256.5305082798004,256.5305082798004,256.5305082798004,258.21448945999146,2,1.8083469867706299,None,,,,,,,,,,,,,,,,,,225,2,2025-03-10_13h23.15.922,comp,2024.2.4,None,2025-03-10 13h24.08.628212 -0400,
35,35,0,critical,whd,20.0,3.0,lower,57.0,133.0,133.0,57.0,78.0,78.0,1,8.320218086242676,None,,,,,0,0,0,0,0,35,35,92,258.2304151058197,,,,,,,,,,,,,,,,,,,,,,,,,,,,,,,,,,,,,,,,,,,,,,,,,,,,,,,,,,,,,,,,,,,,,,,,,,,,,,,,,,57.0,133.0,133.0,57.0,78.0,78.0,3.0,3.1,-191,256,0,13,164,-279,258.2159857749939,258.2160596847534,258.2192392349243,258.2304151058197,258.38384890556335,258.38384890556335,258.38384890556335,258.38384890556335,258.38384890556335,258.38384890556335,258.38384890556335,266.5561103820801,1,8.320218086242676,None,,,,,,,,,,,,,,,,,,225,2,2025-03-10_13h23.15.922,comp,2024.2.4,None,2025-03-10 13h24.08.628212 -0400,
36,36,0,filler_square,None,None,None,None,None,None,None,None,None,None,1,3.107333183288574,None,,,,,0,0,0,0,0,36,36,173,266.5708930492401,,,,,,,,,,,,,,,,,,,,,,,,,,,,,,,,,,,,,,,,,,,,,,,,,,,,,,,,,,,,,,,,,,,,,,,,,,,,,,,,,,92.32749514294319,92.32749514294319,78.73649689716774,60.599259554723524,60.22174311542616,58.65342872447928,3.0,3.2,-172,-255,0,4,156,251,266.5580110549927,266.5580930709839,266.56101179122925,266.5708930492401,266.7165904045105,266.7165904045105,266.7165904045105,266.7165904045105,266.7165904045105,266.7165904045105,266.7165904045105,269.68596386909485,1,3.107333183288574,None,,,,,,,,,,,,,,,,,,225,2,2025-03-10_13h23.15.922,comp,2024.2.4,None,2025-03-10 13h24.08.628212 -0400,
37,37,0,critical,wdh,20.0,4.0,upper,125.0,200.0,141.0,141.0,200.0,125.0,1,8.039169311523438,None,,,,,0,0,0,0,0,37,37,83,269.70402455329895,,,,,,,,,,,,,,,,,,,,,,,,,,,,,,,,,,,,,,,,,,,,,,,,,,,,,,,,,,,,,,,,,,,,,,,,,,,,,,,,,,125.0,200.0,141.0,141.0,200.0,125.0,4.0,4.2,-266,15,0,-271,229,9,269.6876075267792,269.68768668174744,269.69072008132935,269.70402455329895,269.8493962287903,269.8493962287903,269.8493962287903,269.8493962287903,269.8493962287903,269.8493962287903,269.8493962287903,277.75357246398926,1,8.039169311523438,None,,,,,,,,,,,,,,,,,,225,2,2025-03-10_13h23.15.922,comp,2024.2.4,None,2025-03-10 13h24.08.628212 -0400,
38,38,0,critical,dwh,35.0,4.0,upper,127.0,127.0,125.0,200.0,200.0,125.0,2,6.468444347381592,None,,,,,0,0,0,0,0,38,38,65,277.76933431625366,,,,,,,,,,,,,,,,,,,,,,,,,,,,,,,,,,,,,,,,,,,,,,,,,,,,,,,,,,,,,,,,,,,,,,,,,,,,,,,,,,127.0,127.0,125.0,200.0,200.0,125.0,4.0,4.2,-260,0,0,-263,258,3,277.7551281452179,277.7552089691162,277.75839853286743,277.76933431625366,277.9190969467163,277.9190969467163,277.9190969467163,277.9190969467163,277.9190969467163,277.9190969467163,277.9190969467163,284.2547836303711,2,6.468444347381592,None,,,,,,,,,,,,,,,,,,225,2,2025-03-10_13h23.15.922,comp,2024.2.4,None,2025-03-10 13h24.08.628212 -0400,
39,39,0,critical,whd,20.0,1.0,upper,125.0,200.0,200.0,125.0,141.0,141.0,2,4.427555322647095,None,,,,,0,0,0,0,0,39,39,91,284.27484011650085,,,,,,,,,,,,,,,,,,,,,,,,,,,,,,,,,,,,,,,,,,,,,,,,,,,,,,,,,,,,,,,,,,,,,,,,,,,,,,,,,,125.0,200.0,200.0,125.0,141.0,141.0,1.0,1.1,-738,263,-480,261,-251,288,284.2565321922302,284.2566485404968,284.2600429058075,284.27484011650085,284.4227776527405,284.4227776527405,284.4227776527405,284.4227776527405,284.4227776527405,284.4227776527405,284.4227776527405,288.70849323272705,2,4.427555322647095,None,,,,,,,,,,,,,,,,,,225,2,2025-03-10_13h23.15.922,comp,2024.2.4,None,2025-03-10 13h24.08.628212 -0400,
40,40,0,critical,dhw,20.0,4.0,lower,78.0,78.0,133.0,57.0,57.0,133.0,3,3.201425552368164,None,,,,,0,0,0,0,0,40,40,58,288.72444915771484,,,,,,,,,,,,,,,,,,,,,,,,,,,,,,,,,,,,,,,,,,,,,,,,,,,,,,,,,,,,,,,,,,,,,,,,,,,,,,,,,,78.0,78.0,133.0,57.0,57.0,133.0,4.0,4.2,-164,0,0,-267,191,-8,288.7101709842682,288.7102530002594,288.7134232521057,288.72444915771484,288.8738760948181,288.8738760948181,288.8738760948181,288.8738760948181,288.8738760948181,288.8738760948181,288.8738760948181,291.9415900707245,3,3.201425552368164,None,,,,,,,,,,,,,,,,,,225,2,2025-03-10_13h23.15.922,comp,2024.2.4,None,2025-03-10 13h24.08.628212 -0400,
41,41,0,filler_square,None,None,None,None,None,None,None,None,None,None,3,2.2577872276306152,None,,,,,0,0,0,0,0,41,41,177,291.95714497566223,,,,,,,,,,,,,,,,,,,,,,,,,,,,,,,,,,,,,,,,,,,,,,,,,,,,,,,,,,,,,,,,,,,,,,,,,,,,,,,,,,137.62456325077108,100.29109102215668,172.81218387486723,128.2738020102121,175.36308998711928,175.36308998711928,3.0,3.2,-210,-260,0,0,248,253,291.943480014801,291.9435589313507,291.946946144104,291.95714497566223,292.1065673828125,292.1065673828125,292.1065673828125,292.1065673828125,292.1065673828125,292.1065673828125,292.1065673828125,294.22547340393066,3,2.2577872276306152,None,,,,,,,,,,,,,,,,,,225,2,2025-03-10_13h23.15.922,comp,2024.2.4,None,2025-03-10 13h24.08.628212 -0400,
42,42,0,critical,hdw,20.0,3.0,lower,133.0,57.0,78.0,78.0,57.0,133.0,3,6.2784600257873535,None,,,,,0,0,0,0,0,42,42,116,294.2399950027466,,,,,,,,,,,,,,,,,,,,,,,,,,,,,,,,,,,,,,,,,,,,,,,,,,,,,,,,,,,,,,,,,,,,,,,,,,,,,,,,,,133.0,57.0,78.0,78.0,57.0,133.0,3.0,3.1,-164,266,0,4,202,-283,294.2271077632904,294.22719144821167,294.2304804325104,294.2399950027466,294.3941662311554,294.3941662311554,294.3941662311554,294.3941662311554,294.3941662311554,294.3941662311554,294.3941662311554,300.52716398239136,3,6.2784600257873535,None,,,,,,,,,,,,,,,,,,225,2,2025-03-10_13h23.15.922,comp,2024.2.4,None,2025-03-10 13h24.08.628212 -0400,
43,43,0,critical,whd,35.0,2.1,lower,57.0,133.0,133.0,57.0,70.0,70.0,1,5.502615451812744,None,,,,,0,0,0,0,0,43,43,36,300.54314494132996,,,,,,,,,,,,,,,,,,,,,,,,,,,,,,,,,,,,,,,,,,,,,,,,,,,,,,,,,,,,,,,,,,,,,,,,,,,,,,,,,,57.0,133.0,133.0,57.0,70.0,70.0,2.1,2.12,-191,-268,0,-274,160,277,300.5286648273468,300.5287425518036,300.5322027206421,300.54314494132996,300.69230675697327,300.69230675697327,300.69230675697327,300.69230675697327,300.69230675697327,300.69230675697327,300.69230675697327,306.06189227104187,1,5.502615451812744,None,,,,,,,,,,,,,,,,,,225,2,2025-03-10_13h23.15.922,comp,2024.2.4,None,2025-03-10 13h24.08.628212 -0400,
44,44,0,critical,dwh,20.0,1.0,lower,78.0,78.0,57.0,133.0,133.0,57.0,2,4.784525632858276,None,,,,,0,0,0,0,0,44,44,66,306.07727885246277,,,,,,,,,,,,,,,,,,,,,,,,,,,,,,,,,,,,,,,,,,,,,,,,,,,,,,,,,,,,,,,,,,,,,,,,,,,,,,,,,,78.0,78.0,57.0,133.0,133.0,57.0,1.0,1.2,-202,12,0,-1,191,16,306.06344270706177,306.0635232925415,306.0670564174652,306.07727885246277,306.2290072441101,306.2290072441101,306.2290072441101,306.2290072441101,306.2290072441101,306.2290072441101,306.2290072441101,310.87871503829956,2,4.784525632858276,None,,,,,,,,,,,,,,,,,,225,2,2025-03-10_13h23.15.922,comp,2024.2.4,None,2025-03-10 13h24.08.628212 -0400,
45,45,0,filler_random,None,None,None,None,None,None,None,None,None,None,2,3.6125917434692383,None,,,,,0,0,0,0,0,45,45,139,310.8977336883545,,,,,,,,,,,,,,,,,,,,,,,,,,,,,,,,,,,,,,,,,,,,,,,,,,,,,,,,,,,,,,,,,,,,,,,,,,,,,,,,,,138.36743058827713,134.25723217989804,193.6293450063671,129.54431758103357,163.05047431913874,73.24226611407568,3.0,3.2,-228,-269,0,2,197,268,310.8805332183838,310.88066482543945,310.88389444351196,310.8977336883545,311.04880714416504,311.04880714416504,311.04880714416504,311.04880714416504,311.04880714416504,311.04880714416504,311.04880714416504,314.5174922943115,2,3.6125917434692383,None,,,,,,,,,,,,,,,,,,225,2,2025-03-10_13h23.15.922,comp,2024.2.4,None,2025-03-10 13h24.08.628212 -0400,
46,46,0,critical,wdh,35.0,4.0,upper,125.0,200.0,127.0,127.0,200.0,125.0,1,3.6247072219848633,None,,,,,0,0,0,0,0,46,46,77,314.53349447250366,,,,,,,,,,,,,,,,,,,,,,,,,,,,,,,,,,,,,,,,,,,,,,,,,,,,,,,,,,,,,,,,,,,,,,,,,,,,,,,,,,125.0,200.0,127.0,127.0,200.0,125.0,4.0,4.1,-260,-267,0,-16,222,-275,314.519127368927,314.51920461654663,314.5227119922638,314.53349447250366,314.6848759651184,314.6848759651184,314.6848759651184,314.6848759651184,314.6848759651184,314.6848759651184,314.6848759651184,318.1666193008423,1,3.6247072219848633,None,,,,,,,,,,,,,,,,,,225,2,2025-03-10_13h23.15.922,comp,2024.2.4,None,2025-03-10 13h24.08.628212 -0400,
47,47,0,filler_random,None,None,None,None,None,None,None,None,None,None,2,2.1264376640319824,None,,,,,0,0,0,0,0,47,47,151,318.18392610549927,,,,,,,,,,,,,,,,,,,,,,,,,,,,,,,,,,,,,,,,,,,,,,,,,,,,,,,,,,,,,,,,,,,,,,,,,,,,,,,,,,76.25517760218277,71.71736051472152,155.87777441395508,174.90415286853232,142.22360033476474,160.9247574047196,2.2,2.21,-219,-268,0,260,264,286,318.1684396266937,318.16857957839966,318.17218375205994,318.18392610549927,318.33146929740906,318.33146929740906,318.33146929740906,318.33146929740906,318.33146929740906,318.33146929740906,318.33146929740906,320.31570076942444,2,2.1264376640319824,None,,,,,,,,,,,,,,,,,,225,2,2025-03-10_13h23.15.922,comp,2024.2.4,None,2025-03-10 13h24.08.628212 -0400,
48,48,0,critical,dhw,20.0,2.1,lower,78.0,78.0,133.0,57.0,57.0,133.0,2,11.44673228263855,None,,,,,0,0,0,0,0,48,48,2,320.33540511131287,,,,,,,,,,,,,,,,,,,,,,,,,,,,,,,,,,,,,,,,,,,,,,,,,,,,,,,,,,,,,,,,,,,,,,,,,,,,,,,,,,78.0,78.0,133.0,57.0,57.0,133.0,2.1,2.11,-164,255,0,274,191,-282,320.31720781326294,320.31730461120605,320.3203377723694,320.33540511131287,320.48310136795044,320.48310136795044,320.48310136795044,320.48310136795044,320.48310136795044,320.48310136795044,320.48310136795044,331.78586769104004,2,11.44673228263855,None,,,,,,,,,,,,,,,,,,225,2,2025-03-10_13h23.15.922,comp,2024.2.4,None,2025-03-10 13h24.08.628212 -0400,
49,49,0,filler_square,None,None,None,None,None,None,None,None,None,None,1,2.937744140625,None,,,,,0,0,0,0,0,49,49,187,331.80397152900696,,,,,,,,,,,,,,,,,,,,,,,,,,,,,,,,,,,,,,,,,,,,,,,,,,,,,,,,,,,,,,,,,,,,,,,,,,,,,,,,,,103.42761012344408,103.42761012344408,86.70947658443549,78.48723457091552,86.58821360240698,62.15819217056289,2.2,2.22,-187,262,0,-268,166,-283,331.78765058517456,331.7877299785614,331.790860414505,331.80397152900696,331.9546437263489,331.9546437263489,331.9546437263489,331.9546437263489,331.9546437263489,331.9546437263489,331.9546437263489,334.7553822994232,1,2.937744140625,None,,,,,,,,,,,,,,,,,,225,2,2025-03-10_13h23.15.922,comp,2024.2.4,None,2025-03-10 13h24.08.628212 -0400,
50,50,0,critical,dwh,35.0,1.0,lower,70.0,70.0,57.0,133.0,133.0,57.0,2,7.650203704833984,None,,,,,0,0,0,0,0,50,50,60,334.77166080474854,,,,,,,,,,,,,,,,,,,,,,,,,,,,,,,,,,,,,,,,,,,,,,,,,,,,,,,,,,,,,,,,,,,,,,,,,,,,,,,,,,70.0,70.0,57.0,133.0,133.0,57.0,1.0,1.3,282,-255,480,-277,671,-267,334.75691294670105,334.7569890022278,334.7600235939026,334.77166080474854,334.92047691345215,334.92047691345215,334.92047691345215,334.92047691345215,334.92047691345215,334.92047691345215,334.92047691345215,342.4395489692688,2,7.650203704833984,None,,,,,,,,,,,,,,,,,,225,2,2025-03-10_13h23.15.922,comp,2024.2.4,None,2025-03-10 13h24.08.628212 -0400,
51,51,0,filler_square,None,None,None,None,None,None,None,None,None,None,1,3.310058355331421,None,,,,,0,0,0,0,0,51,51,195,342.45666337013245,,,,,,,,,,,,,,,,,,,,,,,,,,,,,,,,,,,,,,,,,,,,,,,,,,,,,,,,,,,,,,,,,,,,,,,,,,,,,,,,,,102.50712837799398,102.50712837799398,96.76635650314822,66.5128161595258,95.81070398540317,97.12308110786083,3.0,3.1,-181,272,0,-12,178,-264,342.44130849838257,342.4413871765137,342.4444348812103,342.45666337013245,342.6134355068207,342.6134355068207,342.6134355068207,342.6134355068207,342.6134355068207,342.6134355068207,342.6134355068207,345.7746684551239,1,3.310058355331421,None,,,,,,,,,,,,,,,,,,225,2,2025-03-10_13h23.15.922,comp,2024.2.4,None,2025-03-10 13h24.08.628212 -0400,
52,52,0,critical,whd,35.0,1.0,lower,57.0,133.0,133.0,57.0,70.0,70.0,2,4.800472259521484,None,,,,,0,0,0,0,0,52,52,84,345.79035210609436,,,,,,,,,,,,,,,,,,,,,,,,,,,,,,,,,,,,,,,,,,,,,,,,,,,,,,,,,,,,,,,,,,,,,,,,,,,,,,,,,,57.0,133.0,133.0,57.0,70.0,70.0,1.0,1.1,-671,261,-480,267,-320,271,345.7762098312378,345.77630972862244,345.779634475708,345.79035210609436,345.9413757324219,345.9413757324219,345.9413757324219,345.9413757324219,345.9413757324219,345.9413757324219,345.9413757324219,350.59334778785706,2,4.800472259521484,None,,,,,,,,,,,,,,,,,,225,2,2025-03-10_13h23.15.922,comp,2024.2.4,None,2025-03-10 13h24.08.628212 -0400,
53,53,0,filler_random,None,None,None,None,None,None,None,None,None,None,3,2.957712173461914,None,,,,,0,0,0,0,0,53,53,154,350.6090393066406,,,,,,,,,,,,,,,,,,,,,,,,,,,,,,,,,,,,,,,,,,,,,,,,,,,,,,,,,,,,,,,,,,,,,,,,,,,,,,,,,,106.26729593171746,152.52441309641046,80.94365694705675,102.68577986399768,129.6678291734646,198.20224432345395,2.2,2.21,-224,-269,0,283,246,260,350.5951614379883,350.5952425003052,350.59834694862366,350.6090393066406,350.7597806453705,350.7597806453705,350.7597806453705,350.7597806453705,350.7597806453705,350.7597806453705,350.7597806453705,353.5782358646393,3,2.957712173461914,None,,,,,,,,,,,,,,,,,,225,2,2025-03-10_13h23.15.922,comp,2024.2.4,None,2025-03-10 13h24.08.628212 -0400,
54,54,0,catch,None,None,None,None,None,None,None,None,None,None,1,5.595635652542114,None,,,,,0,0,0,0,0,54,54,128,353.5944321155548,,,,,,,,,,,,,,,,,,,,,,,,,,,,,,,,,,,,,,,,,,,,,,,,,,,,,,,,,,,,,,,,,,,,,,,,,,,,,,,,,,185,140,78,112,105,85,2.1,2.12,-222,-278,0,-281,194,285,353.5803875923157,353.58046984672546,353.58363604545593,353.5944321155548,353.7416818141937,353.7416818141937,353.7416818141937,353.7416818141937,353.7416818141937,353.7416818141937,353.7416818141937,359.1983208656311,1,5.595635652542114,None,,,,,,,,,,,,,,,,,,225,2,2025-03-10_13h23.15.922,comp,2024.2.4,None,2025-03-10 13h24.08.628212 -0400,
55,55,0,critical,hdw,20.0,2.1,lower,133.0,57.0,78.0,78.0,57.0,133.0,3,5.451146841049194,None,,,,,0,0,0,0,0,55,55,22,359.2186179161072,,,,,,,,,,,,,,,,,,,,,,,,,,,,,,,,,,,,,,,,,,,,,,,,,,,,,,,,,,,,,,,,,,,,,,,,,,,,,,,,,,133.0,57.0,78.0,78.0,57.0,133.0,2.1,2.12,-164,-259,0,-277,202,257,359.1997981071472,359.1998770236969,359.2029378414154,359.2186179161072,359.3682494163513,359.3682494163513,359.3682494163513,359.3682494163513,359.3682494163513,359.3682494163513,359.3682494163513,364.67959690093994,3,5.451146841049194,None,,,,,,,,,,,,,,,,,,225,2,2025-03-10_13h23.15.922,comp,2024.2.4,None,2025-03-10 13h24.08.628212 -0400,
56,56,0,filler_square,None,None,None,None,None,None,None,None,None,None,2,3.3944313526153564,None,,,,,0,0,0,0,0,56,56,179,364.6998076438904,,,,,,,,,,,,,,,,,,,,,,,,,,,,,,,,,,,,,,,,,,,,,,,,,,,,,,,,,,,,,,,,,,,,,,,,,,,,,,,,,,103.08243436968338,90.47102834833942,131.3549842053709,131.3549842053709,120.45118614597179,110.95433066097273,3.0,3.1,-207,276,0,-15,217,-282,364.6813850402832,364.68146800994873,364.68460297584534,364.6998076438904,364.84771633148193,364.84771633148193,364.84771633148193,364.84771633148193,364.84771633148193,364.84771633148193,364.84771633148193,368.0968985557556,2,3.3944313526153564,None,,,,,,,,,,,,,,,,,,225,2,2025-03-10_13h23.15.922,comp,2024.2.4,None,2025-03-10 13h24.08.628212 -0400,
57,57,0,filler_random,None,None,None,None,None,None,None,None,None,None,3,5.929267168045044,None,,,,,0,0,0,0,0,57,57,145,368.11734199523926,,,,,,,,,,,,,,,,,,,,,,,,,,,,,,,,,,,,,,,,,,,,,,,,,,,,,,,,,,,,,,,,,,,,,,,,,,,,,,,,,,87.11304324008955,111.13839888553102,83.98336940093996,94.61242789968662,84.16363445482294,148.32431145203972,4.0,4.1,-199,-282,0,6,217,-257,368.0985758304596,368.0986523628235,368.10172867774963,368.11734199523926,368.2643780708313,368.2643780708313,368.2643780708313,368.2643780708313,368.2643780708313,368.2643780708313,368.2643780708313,374.0521664619446,3,5.929267168045044,None,,,,,,,,,,,,,,,,,,225,2,2025-03-10_13h23.15.922,comp,2024.2.4,None,2025-03-10 13h24.08.628212 -0400,
58,58,0,filler_square,None,None,None,None,None,None,None,None,None,None,3,1.9679837226867676,None,,,,,0,0,0,0,0,58,58,176,374.0697109699249,,,,,,,,,,,,,,,,,,,,,,,,,,,,,,,,,,,,,,,,,,,,,,,,,,,,,,,,,,,,,,,,,,,,,,,,,,,,,,,,,,97.49369679679835,110.49398497836476,158.378325242764,81.53437272680976,176.7703384680034,176.7703384680034,3.0,3.2,-192,-252,0,20,225,259,374.0542776584625,374.05439829826355,374.0578775405884,374.0697109699249,374.21686124801636,374.21686124801636,374.21686124801636,374.21686124801636,374.21686124801636,374.21686124801636,374.21686124801636,376.05035066604614,3,1.9679837226867676,None,,,,,,,,,,,,,,,,,,225,2,2025-03-10_13h23.15.922,comp,2024.2.4,None,2025-03-10 13h24.08.628212 -0400,
59,59,0,filler_random,None,None,None,None,None,None,None,None,None,None,1,1.5299668312072754,None,,,,,0,0,0,0,0,59,59,165,376.0684320926666,,,,,,,,,,,,,,,,,,,,,,,,,,,,,,,,,,,,,,,,,,,,,,,,,,,,,,,,,,,,,,,,,,,,,,,,,,,,,,,,,,124.13329510144814,196.61263195358904,118.1812188157235,115.32287617007714,149.47985448284106,61.17128700961109,1.0,1.1,-732,268,-480,256,-296,251,376.0522623062134,376.05241990089417,376.0556788444519,376.0684320926666,376.2184898853302,376.2184898853302,376.2184898853302,376.2184898853302,376.2184898853302,376.2184898853302,376.2184898853302,377.60446286201477,1,1.5299668312072754,None,,,,,,,,,,,,,,,,,,225,2,2025-03-10_13h23.15.922,comp,2024.2.4,None,2025-03-10 13h24.08.628212 -0400,
60,60,0,filler_random,None,None,None,None,None,None,None,None,None,None,1,2.2101690769195557,None,,,,,0,0,0,0,0,60,60,132,377.6202301979065,,,,,,,,,,,,,,,,,,,,,,,,,,,,,,,,,,,,,,,,,,,,,,,,,,,,,,,,,,,,,,,,,,,,,,,,,,,,,,,,,,182.86394260879257,120.2401554763477,64.23910446655016,162.46729821927136,62.24976718755757,95.80563623500885,2.2,2.21,-237,-250,0,257,225,261,377.60622215270996,377.6063392162323,377.60958552360535,377.6202301979065,377.76703548431396,377.76703548431396,377.76703548431396,377.76703548431396,377.76703548431396,377.76703548431396,377.76703548431396,379.8359525203705,1,2.2101690769195557,None,,,,,,,,,,,,,,,,,,225,2,2025-03-10_13h23.15.922,comp,2024.2.4,None,2025-03-10 13h24.08.628212 -0400,
61,61,0,filler_random,None,None,None,None,None,None,None,None,None,None,3,1.5541701316833496,None,,,,,0,0,0,0,0,61,61,148,379.85203218460083,,,,,,,,,,,,,,,,,,,,,,,,,,,,,,,,,,,,,,,,,,,,,,,,,,,,,,,,,,,,,,,,,,,,,,,,,,,,,,,,,,107.14176007808442,59.36142593208531,103.61323625006123,69.75066236024901,152.21057468380604,135.21856536414526,4.0,4.1,-161,-253,0,-15,198,-262,379.8376967906952,379.8377766609192,379.841260433197,379.85203218460083,380.0085473060608,380.0085473060608,380.0085473060608,380.0085473060608,380.0085473060608,380.0085473060608,380.0085473060608,381.42667603492737,3,1.5541701316833496,None,,,,,,,,,,,,,,,,,,225,2,2025-03-10_13h23.15.922,comp,2024.2.4,None,2025-03-10 13h24.08.628212 -0400,
62,62,0,critical,dwh,35.0,4.0,lower,70.0,70.0,57.0,133.0,133.0,57.0,2,4.663467168807983,None,,,,,0,0,0,0,0,62,62,64,381.4470410346985,,,,,,,,,,,,,,,,,,,,,,,,,,,,,,,,,,,,,,,,,,,,,,,,,,,,,,,,,,,,,,,,,,,,,,,,,,,,,,,,,,70.0,70.0,57.0,133.0,133.0,57.0,4.0,4.2,-198,-11,0,-260,191,-10,381.42823600769043,381.42833971977234,381.4318091869354,381.4470410346985,381.5849406719208,381.5849406719208,381.5849406719208,381.5849406719208,381.5849406719208,381.5849406719208,381.5849406719208,386.11718130111694,2,4.663467168807983,None,,,,,,,,,,,,,,,,,,225,2,2025-03-10_13h23.15.922,comp,2024.2.4,None,2025-03-10 13h24.08.628212 -0400,
63,63,0,filler_random,None,None,None,None,None,None,None,None,None,None,1,1.648092269897461,None,,,,,0,0,0,0,0,63,63,133,386.1344258785248,,,,,,,,,,,,,,,,,,,,,,,,,,,,,,,,,,,,,,,,,,,,,,,,,,,,,,,,,,,,,,,,,,,,,,,,,,,,,,,,,,187.46103467356875,156.55196062650748,67.86958486870627,124.4314670649329,129.2972889128124,91.26134260389922,4.0,4.1,-236,-284,0,5,204,-259,386.11904191970825,386.1191740036011,386.1224310398102,386.1344258785248,386.2875533103943,386.2875533103943,386.2875533103943,386.2875533103943,386.2875533103943,386.2875533103943,386.2875533103943,387.78768372535706,1,1.648092269897461,None,,,,,,,,,,,,,,,,,,225,2,2025-03-10_13h23.15.922,comp,2024.2.4,None,2025-03-10 13h24.08.628212 -0400,
64,64,0,filler_random,None,None,None,None,None,None,None,None,None,None,3,10.393790483474731,None,,,,,0,0,0,0,0,64,64,146,387.8039085865021,,,,,,,,,,,,,,,,,,,,,,,,,,,,,,,,,,,,,,,,,,,,,,,,,,,,,,,,,,,,,,,,,,,,,,,,,,,,,,,,,,116.92544968844818,186.33045363945874,108.76480016168401,132.0893024566423,122.5269183521842,187.9740362850632,4.0,4.1,-255,-280,0,-10,256,-268,387.78956365585327,387.78968238830566,387.7932150363922,387.8039085865021,387.9551491737366,387.9551491737366,387.9551491737366,387.9551491737366,387.9551491737366,387.9551491737366,387.9551491737366,398.2129728794098,3,10.393790483474731,None,,,,,,,,,,,,,,,,,,225,2,2025-03-10_13h23.15.922,comp,2024.2.4,None,2025-03-10 13h24.08.628212 -0400,
65,65,0,critical,wdh,20.0,3.0,upper,125.0,200.0,141.0,141.0,200.0,125.0,1,9.522321701049805,None,,,,,0,0,0,0,0,65,65,81,398.2285461425781,,,,,,,,,,,,,,,,,,,,,,,,,,,,,,,,,,,,,,,,,,,,,,,,,,,,,,,,,,,,,,,,,,,,,,,,,,,,,,,,,,125.0,200.0,141.0,141.0,200.0,125.0,3.0,3.1,-266,254,0,-5,229,-254,398.21464800834656,398.21472334861755,398.21817326545715,398.2285461425781,398.3781473636627,398.3781473636627,398.3781473636627,398.3781473636627,398.3781473636627,398.3781473636627,398.3781473636627,407.76789021492004,1,9.522321701049805,None,,,,,,,,,,,,,,,,,,225,2,2025-03-10_13h23.15.922,comp,2024.2.4,None,2025-03-10 13h24.08.628212 -0400,
66,66,0,critical,wdh,35.0,2.1,lower,57.0,133.0,70.0,70.0,133.0,57.0,1,6.435444116592407,None,,,,,0,0,0,0,0,66,66,32,407.78667736053467,,,,,,,,,,,,,,,,,,,,,,,,,,,,,,,,,,,,,,,,,,,,,,,,,,,,,,,,,,,,,,,,,,,,,,,,,,,,,,,,,,57.0,133.0,70.0,70.0,133.0,57.0,2.1,2.12,-198,-261,0,-257,160,259,407.7694478034973,407.7695288658142,407.7724678516388,407.78667736053467,407.9296295642853,407.9296295642853,407.9296295642853,407.9296295642853,407.9296295642853,407.9296295642853,407.9296295642853,414.2306225299835,1,6.435444116592407,None,,,,,,,,,,,,,,,,,,225,2,2025-03-10_13h23.15.922,comp,2024.2.4,None,2025-03-10 13h24.08.628212 -0400,
67,67,0,critical,whd,20.0,2.1,lower,57.0,133.0,133.0,57.0,78.0,78.0,1,4.543092250823975,None,,,,,0,0,0,0,0,67,67,38,414.2472541332245,,,,,,,,,,,,,,,,,,,,,,,,,,,,,,,,,,,,,,,,,,,,,,,,,,,,,,,,,,,,,,,,,,,,,,,,,,,,,,,,,,57.0,133.0,133.0,57.0,78.0,78.0,2.1,2.11,-191,252,0,255,164,-271,414.2321856021881,414.2322680950165,414.23566937446594,414.2472541332245,414.39461159706116,414.39461159706116,414.39461159706116,414.39461159706116,414.39461159706116,414.39461159706116,414.39461159706116,418.796236038208,1,4.543092250823975,None,,,,,,,,,,,,,,,,,,225,2,2025-03-10_13h23.15.922,comp,2024.2.4,None,2025-03-10 13h24.08.628212 -0400,
68,68,0,critical,hdw,35.0,4.0,upper,200.0,125.0,127.0,127.0,125.0,200.0,3,22.189435958862305,None,,,,,0,0,0,0,0,68,68,113,418.8168144226074,,,,,,,,,,,,,,,,,,,,,,,,,,,,,,,,,,,,,,,,,,,,,,,,,,,,,,,,,,,,,,,,,,,,,,,,,,,,,,,,,,200.0,125.0,127.0,127.0,125.0,200.0,4.0,4.2,-222,17,0,-276,260,-9,418.79779148101807,418.79786825180054,418.8012583255768,418.8168144226074,418.9648711681366,418.9648711681366,418.9648711681366,418.9648711681366,418.9648711681366,418.9648711681366,418.9648711681366,441.0228953361511,3,22.189435958862305,None,,,,,,,,,,,,,,,,,,225,2,2025-03-10_13h23.15.922,comp,2024.2.4,None,2025-03-10 13h24.08.628212 -0400,
69,69,0,catch,None,None,None,None,None,None,None,None,None,None,2,1.7994868755340576,None,,,,,0,0,0,0,0,69,69,121,441.03859972953796,,,,,,,,,,,,,,,,,,,,,,,,,,,,,,,,,,,,,,,,,,,,,,,,,,,,,,,,,,,,,,,,,,,,,,,,,,,,,,,,,,91,99,131,194,78,112,1.0,1.1,-722,269,-480,279,-231,277,441.02498388290405,441.02506470680237,441.0282757282257,441.03859972953796,441.1869547367096,441.1869547367096,441.1869547367096,441.1869547367096,441.1869547367096,441.1869547367096,441.1869547367096,442.84195017814636,2,1.7994868755340576,None,,,,,,,,,,,,,,,,,,225,2,2025-03-10_13h23.15.922,comp,2024.2.4,None,2025-03-10 13h24.08.628212 -0400,
70,70,0,critical,whd,35.0,2.1,upper,125.0,200.0,200.0,125.0,127.0,127.0,1,7.905176401138306,None,,,,,0,0,0,0,0,70,70,37,442.8604233264923,,,,,,,,,,,,,,,,,,,,,,,,,,,,,,,,,,,,,,,,,,,,,,,,,,,,,,,,,,,,,,,,,,,,,,,,,,,,,,,,,,125.0,200.0,200.0,125.0,127.0,127.0,2.1,2.11,-258,281,0,276,222,-277,442.8435778617859,442.8436574935913,442.8465156555176,442.8604233264923,443.00300192832947,443.00300192832947,443.00300192832947,443.00300192832947,443.00300192832947,443.00300192832947,443.00300192832947,450.7779223918915,1,7.905176401138306,None,,,,,,,,,,,,,,,,,,225,2,2025-03-10_13h23.15.922,comp,2024.2.4,None,2025-03-10 13h24.08.628212 -0400,
71,71,0,critical,wdh,35.0,3.0,upper,125.0,200.0,127.0,127.0,200.0,125.0,3,8.515829801559448,None,,,,,0,0,0,0,0,71,71,75,450.79392170906067,,,,,,,,,,,,,,,,,,,,,,,,,,,,,,,,,,,,,,,,,,,,,,,,,,,,,,,,,,,,,,,,,,,,,,,,,,,,,,,,,,125.0,200.0,127.0,127.0,200.0,125.0,3.0,3.1,-260,275,0,-8,222,-284,450.77959275245667,450.77967381477356,450.7825663089752,450.79392170906067,450.9423131942749,450.9423131942749,450.9423131942749,450.9423131942749,450.9423131942749,450.9423131942749,450.9423131942749,459.3244230747223,3,8.515829801559448,None,,,,,,,,,,,,,,,,,,225,2,2025-03-10_13h23.15.922,comp,2024.2.4,None,2025-03-10 13h24.08.628212 -0400,
72,72,0,critical,dhw,35.0,4.0,lower,70.0,70.0,133.0,57.0,57.0,133.0,3,4.43439507484436,None,,,,,0,0,0,0,0,72,72,52,459.3401119709015,,,,,,,,,,,,,,,,,,,,,,,,,,,,,,,,,,,,,,,,,,,,,,,,,,,,,,,,,,,,,,,,,,,,,,,,,,,,,,,,,,70.0,70.0,133.0,57.0,57.0,133.0,4.0,4.2,-160,-5,0,-272,191,-13,459.32593297958374,459.3260109424591,459.3289039134979,459.3401119709015,459.4933159351349,459.4933159351349,459.4933159351349,459.4933159351349,459.4933159351349,459.4933159351349,459.4933159351349,463.780415058136,3,4.43439507484436,None,,,,,,,,,,,,,,,,,,225,2,2025-03-10_13h23.15.922,comp,2024.2.4,None,2025-03-10 13h24.08.628212 -0400,
73,73,0,critical,dwh,20.0,2.1,lower,78.0,78.0,57.0,133.0,133.0,57.0,2,8.488997459411621,None,,,,,0,0,0,0,0,73,73,6,463.79665446281433,,,,,,,,,,,,,,,,,,,,,,,,,,,,,,,,,,,,,,,,,,,,,,,,,,,,,,,,,,,,,,,,,,,,,,,,,,,,,,,,,,78.0,78.0,57.0,133.0,133.0,57.0,2.1,2.11,-202,263,0,275,191,-266,463.78205943107605,463.78218698501587,463.7856593132019,463.79665446281433,463.95052576065063,463.95052576065063,463.95052576065063,463.95052576065063,463.95052576065063,463.95052576065063,463.95052576065063,472.2977862358093,2,8.488997459411621,None,,,,,,,,,,,,,,,,,,225,2,2025-03-10_13h23.15.922,comp,2024.2.4,None,2025-03-10 13h24.08.628212 -0400,
74,74,0,filler_square,None,None,None,None,None,None,None,None,None,None,1,1.468102216720581,None,,,,,0,0,0,0,0,74,74,182,472.31410932540894,,,,,,,,,,,,,,,,,,,,,,,,,,,,,,,,,,,,,,,,,,,,,,,,,,,,,,,,,,,,,,,,,,,,,,,,,,,,,,,,,,142.9833721351672,142.9833721351672,135.3922710320512,61.85483931246147,59.25139470915647,63.32313524880129,4.0,4.1,-198,-256,0,-12,159,-273,472.29956555366516,472.2996428012848,472.30276918411255,472.31410932540894,472.4670023918152,472.4670023918152,472.4670023918152,472.4670023918152,472.4670023918152,472.4670023918152,472.4670023918152,473.7853057384491,1,1.468102216720581,None,,,,,,,,,,,,,,,,,,225,2,2025-03-10_13h23.15.922,comp,2024.2.4,None,2025-03-10 13h24.08.628212 -0400,
75,75,0,filler_square,None,None,None,None,None,None,None,None,None,None,2,2.156477689743042,None,,,,,0,0,0,0,0,75,75,205,473.80180287361145,,,,,,,,,,,,,,,,,,,,,,,,,,,,,,,,,,,,,,,,,,,,,,,,,,,,,,,,,,,,,,,,,,,,,,,,,,,,,,,,,,67.15217726740501,61.65663241827093,94.8887651450908,94.8887651450908,71.32197694201446,90.27109211853762,3.0,3.1,-174,271,0,-10,189,-277,473.78715109825134,473.78723406791687,473.7911159992218,473.80180287361145,473.94809341430664,473.94809341430664,473.94809341430664,473.94809341430664,473.94809341430664,473.94809341430664,473.94809341430664,475.96300983428955,2,2.156477689743042,None,,,,,,,,,,,,,,,,,,225,2,2025-03-10_13h23.15.922,comp,2024.2.4,None,2025-03-10 13h24.08.628212 -0400,
76,76,0,critical,wdh,20.0,2.1,lower,57.0,133.0,78.0,78.0,133.0,57.0,1,2.597709894180298,None,,,,,0,0,0,0,0,76,76,34,475.9840507507324,,,,,,,,,,,,,,,,,,,,,,,,,,,,,,,,,,,,,,,,,,,,,,,,,,,,,,,,,,,,,,,,,,,,,,,,,,,,,,,,,,57.0,133.0,78.0,78.0,133.0,57.0,2.1,2.11,-202,278,0,252,164,-285,475.96467304229736,475.9647536277771,475.96814489364624,475.9840507507324,476.13582706451416,476.13582706451416,476.13582706451416,476.13582706451416,476.13582706451416,476.13582706451416,476.13582706451416,478.59301948547363,1,2.597709894180298,None,,,,,,,,,,,,,,,,,,225,2,2025-03-10_13h23.15.922,comp,2024.2.4,None,2025-03-10 13h24.08.628212 -0400,
77,77,0,critical,dwh,20.0,4.0,lower,78.0,78.0,57.0,133.0,133.0,57.0,2,2.8086647987365723,None,,,,,0,0,0,0,0,77,77,70,478.6130356788635,,,,,,,,,,,,,,,,,,,,,,,,,,,,,,,,,,,,,,,,,,,,,,,,,,,,,,,,,,,,,,,,,,,,,,,,,,,,,,,,,,78.0,78.0,57.0,133.0,133.0,57.0,4.0,4.1,-202,-278,0,-11,191,-284,478.5946822166443,478.59476590156555,478.59770917892456,478.6130356788635,478.75047755241394,478.75047755241394,478.75047755241394,478.75047755241394,478.75047755241394,478.75047755241394,478.75047755241394,481.43411684036255,2,2.8086647987365723,None,,,,,,,,,,,,,,,,,,225,2,2025-03-10_13h23.15.922,comp,2024.2.4,None,2025-03-10 13h24.08.628212 -0400,
78,78,0,critical,hwd,20.0,4.0,lower,133.0,57.0,57.0,133.0,78.0,78.0,1,3.889369010925293,None,,,,,0,0,0,0,0,78,78,106,481.4522740840912,,,,,,,,,,,,,,,,,,,,,,,,,,,,,,,,,,,,,,,,,,,,,,,,,,,,,,,,,,,,,,,,,,,,,,,,,,,,,,,,,,133.0,57.0,57.0,133.0,78.0,78.0,4.0,4.1,-191,-255,0,-11,202,-264,481.43577575683594,481.43587374687195,481.43909072875977,481.4522740840912,481.63096594810486,481.63096594810486,481.63096594810486,481.63096594810486,481.63096594810486,481.63096594810486,481.63096594810486,485.3583257198334,1,3.889369010925293,None,,,,,,,,,,,,,,,,,,225,2,2025-03-10_13h23.15.922,comp,2024.2.4,None,2025-03-10 13h24.08.628212 -0400,
79,79,0,catch,None,None,None,None,None,None,None,None,None,None,3,1.9506735801696777,None,,,,,0,0,0,0,0,79,79,126,485.375688791275,,,,,,,,,,,,,,,,,,,,,,,,,,,,,,,,,,,,,,,,,,,,,,,,,,,,,,,,,,,,,,,,,,,,,,,,,,,,,,,,,,71,119,102,88,146,179,1.0,1.1,-680,265,-480,273,-250,280,485.3601830005646,485.3602600097656,485.36315965652466,485.375688791275,485.52208709716797,485.52208709716797,485.52208709716797,485.52208709716797,485.52208709716797,485.52208709716797,485.52208709716797,487.33560156822205,3,1.9506735801696777,None,,,,,,,,,,,,,,,,,,225,2,2025-03-10_13h23.15.922,comp,2024.2.4,None,2025-03-10 13h24.08.628212 -0400,
80,80,0,filler_square,None,None,None,None,None,None,None,None,None,None,1,2.549506425857544,None,,,,,0,0,0,0,0,80,80,203,487.35223484039307,,,,,,,,,,,,,,,,,,,,,,,,,,,,,,,,,,,,,,,,,,,,,,,,,,,,,,,,,,,,,,,,,,,,,,,,,,,,,,,,,,184.3789791386812,184.3789791386812,134.30161806652458,157.3180034215169,86.04528643106855,73.58550986964885,4.0,4.2,-267,18,0,-284,211,-5,487.337415933609,487.3374948501587,487.3415358066559,487.35223484039307,487.50261521339417,487.50261521339417,487.50261521339417,487.50261521339417,487.50261521339417,487.50261521339417,487.50261521339417,489.92268538475037,1,2.549506425857544,None,,,,,,,,,,,,,,,,,,225,2,2025-03-10_13h23.15.922,comp,2024.2.4,None,2025-03-10 13h24.08.628212 -0400,
81,81,0,critical,wdh,35.0,1.0,lower,57.0,133.0,70.0,70.0,133.0,57.0,1,4.928759574890137,None,,,,,0,0,0,0,0,81,81,72,489.9410619735718,,,,,,,,,,,,,,,,,,,,,,,,,,,,,,,,,,,,,,,,,,,,,,,,,,,,,,,,,,,,,,,,,,,,,,,,,,,,,,,,,,57.0,133.0,70.0,70.0,133.0,57.0,1.0,1.3,282,-254,480,-259,640,-263,489.92442059516907,489.92454719543457,489.92794704437256,489.9410619735718,490.0863482952118,490.0863482952118,490.0863482952118,490.0863482952118,490.0863482952118,490.0863482952118,490.0863482952118,494.88778162002563,1,4.928759574890137,None,,,,,,,,,,,,,,,,,,225,2,2025-03-10_13h23.15.922,comp,2024.2.4,None,2025-03-10 13h24.08.628212 -0400,
82,82,0,filler_square,None,None,None,None,None,None,None,None,None,None,1,4.230510473251343,None,,,,,0,0,0,0,0,82,82,200,494.9036810398102,,,,,,,,,,,,,,,,,,,,,,,,,,,,,,,,,,,,,,,,,,,,,,,,,,,,,,,,,,,,,,,,,,,,,,,,,,,,,,,,,,151.62481550110294,151.62481550110294,147.67138494663612,92.86612567768502,78.28453527716559,106.85827709752974,2.2,2.22,-218,277,0,-281,196,-270,494.889844417572,494.88992190361023,494.89334511756897,494.9036810398102,495.05965518951416,495.05965518951416,495.05965518951416,495.05965518951416,495.05965518951416,495.05965518951416,495.05965518951416,499.13927030563354,1,4.230510473251343,None,,,,,,,,,,,,,,,,,,225,2,2025-03-10_13h23.15.922,comp,2024.2.4,None,2025-03-10 13h24.08.628212 -0400,
83,83,0,critical,wdh,35.0,2.1,upper,125.0,200.0,127.0,127.0,200.0,125.0,1,3.4747486114501953,None,,,,,0,0,0,0,0,83,83,33,499.15592527389526,,,,,,,,,,,,,,,,,,,,,,,,,,,,,,,,,,,,,,,,,,,,,,,,,,,,,,,,,,,,,,,,,,,,,,,,,,,,,,,,,,125.0,200.0,127.0,127.0,200.0,125.0,2.1,2.12,-260,-282,0,-255,222,252,499.14089798927307,499.14098048210144,499.1450786590576,499.15592527389526,499.30416989326477,499.30416989326477,499.30416989326477,499.30416989326477,499.30416989326477,499.30416989326477,499.30416989326477,502.64041662216187,1,3.4747486114501953,None,,,,,,,,,,,,,,,,,,225,2,2025-03-10_13h23.15.922,comp,2024.2.4,None,2025-03-10 13h24.08.628212 -0400,
84,84,0,catch,None,None,None,None,None,None,None,None,None,None,2,1.853632926940918,None,,,,,0,0,0,0,0,84,84,127,502.6566195487976,,,,,,,,,,,,,,,,,,,,,,,,,,,,,,,,,,,,,,,,,,,,,,,,,,,,,,,,,,,,,,,,,,,,,,,,,,,,,,,,,,125,65,145,180,71,119,2.2,2.22,-218,279,0,-280,246,-260,502.64241671562195,502.64250135421753,502.6458213329315,502.6566195487976,502.81136083602905,502.81136083602905,502.81136083602905,502.81136083602905,502.81136083602905,502.81136083602905,502.81136083602905,504.53003907203674,2,1.853632926940918,None,,,,,,,,,,,,,,,,,,225,2,2025-03-10_13h23.15.922,comp,2024.2.4,None,2025-03-10 13h24.08.628212 -0400,
85,85,0,filler_random,None,None,None,None,None,None,None,None,None,None,1,9.529877185821533,None,,,,,0,0,0,0,0,85,85,144,504.54802560806274,,,,,,,,,,,,,,,,,,,,,,,,,,,,,,,,,,,,,,,,,,,,,,,,,,,,,,,,,,,,,,,,,,,,,,,,,,,,,,,,,,116.69127055114168,172.1813588723698,61.736547090961864,120.55077682174304,190.69417722749264,68.82955626390918,2.2,2.21,-242,-254,0,265,191,280,504.5319092273712,504.53200125694275,504.535276889801,504.54802560806274,504.68939304351807,504.68939304351807,504.68939304351807,504.68939304351807,504.68939304351807,504.68939304351807,504.68939304351807,514.0935544967651,1,9.529877185821533,None,,,,,,,,,,,,,,,,,,225,2,2025-03-10_13h23.15.922,comp,2024.2.4,None,2025-03-10 13h24.08.628212 -0400,
86,86,0,critical,hdw,20.0,2.1,lower,133.0,57.0,78.0,78.0,57.0,133.0,3,3.3368139266967773,None,,,,,0,0,0,0,0,86,86,46,514.1092526912689,,,,,,,,,,,,,,,,,,,,,,,,,,,,,,,,,,,,,,,,,,,,,,,,,,,,,,,,,,,,,,,,,,,,,,,,,,,,,,,,,,133.0,57.0,78.0,78.0,57.0,133.0,2.1,2.11,-164,288,0,269,202,-282,514.0952491760254,514.0954010486603,514.0989155769348,514.1092526912689,514.2626039981842,514.2626039981842,514.2626039981842,514.2626039981842,514.2626039981842,514.2626039981842,514.2626039981842,517.44935297966,3,3.3368139266967773,None,,,,,,,,,,,,,,,,,,225,2,2025-03-10_13h23.15.922,comp,2024.2.4,None,2025-03-10 13h24.08.628212 -0400,
87,87,0,critical,dhw,20.0,4.0,upper,141.0,141.0,200.0,125.0,125.0,200.0,3,20.330852031707764,None,,,,,0,0,0,0,0,87,87,59,517.4668142795563,,,,,,,,,,,,,,,,,,,,,,,,,,,,,,,,,,,,,,,,,,,,,,,,,,,,,,,,,,,,,,,,,,,,,,,,,,,,,,,,,,141.0,141.0,200.0,125.0,125.0,200.0,4.0,4.1,-229,-261,0,-13,258,-270,517.4509499073029,517.4510321617126,517.4540865421295,517.4668142795563,517.6077902317047,517.6077902317047,517.6077902317047,517.6077902317047,517.6077902317047,517.6077902317047,517.6077902317047,537.8127636909485,3,20.330852031707764,None,,,,,,,,,,,,,,,,,,225,2,2025-03-10_13h23.15.922,comp,2024.2.4,None,2025-03-10 13h24.08.628212 -0400,
88,88,0,critical,hdw,20.0,2.1,upper,200.0,125.0,141.0,141.0,125.0,200.0,1,8.053844928741455,None,,,,,0,0,0,0,0,88,88,23,537.8317303657532,,,,,,,,,,,,,,,,,,,,,,,,,,,,,,,,,,,,,,,,,,,,,,,,,,,,,,,,,,,,,,,,,,,,,,,,,,,,,,,,,,200.0,125.0,141.0,141.0,125.0,200.0,2.1,2.11,-229,285,0,287,266,-255,537.8142249584198,537.8143291473389,537.8171889781952,537.8317303657532,537.9674079418182,537.9674079418182,537.9674079418182,537.9674079418182,537.9674079418182,537.9674079418182,537.9674079418182,545.9033315181732,1,8.053844928741455,None,,,,,,,,,,,,,,,,,,225,2,2025-03-10_13h23.15.922,comp,2024.2.4,None,2025-03-10 13h24.08.628212 -0400,
89,89,0,critical,hwd,20.0,2.1,lower,133.0,57.0,57.0,133.0,78.0,78.0,2,6.518940210342407,None,,,,,0,0,0,0,0,89,89,42,545.9191091060638,,,,,,,,,,,,,,,,,,,,,,,,,,,,,,,,,,,,,,,,,,,,,,,,,,,,,,,,,,,,,,,,,,,,,,,,,,,,,,,,,,133.0,57.0,57.0,133.0,78.0,78.0,2.1,2.11,-191,257,0,285,202,-253,545.9049470424652,545.9050240516663,545.9086582660675,545.9191091060638,546.0766294002533,546.0766294002533,546.0766294002533,546.0766294002533,546.0766294002533,546.0766294002533,546.0766294002533,552.4435901641846,2,6.518940210342407,None,,,,,,,,,,,,,,,,,,225,2,2025-03-10_13h23.15.922,comp,2024.2.4,None,2025-03-10 13h24.08.628212 -0400,
90,90,0,critical,dwh,35.0,2.1,upper,127.0,127.0,125.0,200.0,200.0,125.0,2,8.673945903778076,None,,,,,0,0,0,0,0,90,90,5,552.4598021507263,,,,,,,,,,,,,,,,,,,,,,,,,,,,,,,,,,,,,,,,,,,,,,,,,,,,,,,,,,,,,,,,,,,,,,,,,,,,,,,,,,127.0,127.0,125.0,200.0,200.0,125.0,2.1,2.12,-260,-258,0,-260,258,267,552.4453375339508,552.4454536437988,552.4489076137543,552.4598021507263,552.6061577796936,552.6061577796936,552.6061577796936,552.6061577796936,552.6061577796936,552.6061577796936,552.6061577796936,561.1375825405121,2,8.673945903778076,None,,,,,,,,,,,,,,,,,,225,2,2025-03-10_13h23.15.922,comp,2024.2.4,None,2025-03-10 13h24.08.628212 -0400,
91,91,0,critical,dhw,20.0,1.0,lower,78.0,78.0,133.0,57.0,57.0,133.0,2,10.679797887802124,None,,,,,0,0,0,0,0,91,91,54,561.1584632396698,,,,,,,,,,,,,,,,,,,,,,,,,,,,,,,,,,,,,,,,,,,,,,,,,,,,,,,,,,,,,,,,,,,,,,,,,,,,,,,,,,78.0,78.0,133.0,57.0,57.0,133.0,1.0,1.1,-644,284,-480,286,-289,277,561.1391751766205,561.1392736434937,561.1426575183868,561.1584632396698,561.2922217845917,561.2922217845917,561.2922217845917,561.2922217845917,561.2922217845917,561.2922217845917,561.2922217845917,571.8434767723083,2,10.679797887802124,None,,,,,,,,,,,,,,,,,,225,2,2025-03-10_13h23.15.922,comp,2024.2.4,None,2025-03-10 13h24.08.628212 -0400,
92,92,0,filler_random,None,None,None,None,None,None,None,None,None,None,2,4.747396945953369,None,,,,,0,0,0,0,0,92,92,134,571.8599486351013,,,,,,,,,,,,,,,,,,,,,,,,,,,,,,,,,,,,,,,,,,,,,,,,,,,,,,,,,,,,,,,,,,,,,,,,,,,,,,,,,,168.52002976417648,142.73855982119477,175.001004165895,185.57596226437616,128.39407684430563,199.09125506808857,3.0,3.1,-260,258,0,19,288,-259,571.8451735973358,571.8452513217926,571.8482038974762,571.8599486351013,572.0149862766266,572.0149862766266,572.0149862766266,572.0149862766266,572.0149862766266,572.0149862766266,572.0149862766266,576.6125123500824,2,4.747396945953369,None,,,,,,,,,,,,,,,,,,225,2,2025-03-10_13h23.15.922,comp,2024.2.4,None,2025-03-10 13h24.08.628212 -0400,
93,93,0,critical,dhw,20.0,2.1,upper,141.0,141.0,200.0,125.0,125.0,200.0,3,8.808897018432617,None,,,,,0,0,0,0,0,93,93,27,576.6289644241333,,,,,,,,,,,,,,,,,,,,,,,,,,,,,,,,,,,,,,,,,,,,,,,,,,,,,,,,,,,,,,,,,,,,,,,,,,,,,,,,,,141.0,141.0,200.0,125.0,125.0,200.0,2.1,2.12,-229,-253,0,-254,258,264,576.6135737895966,576.6136033535004,576.6147072315216,576.6289644241333,576.7853939533234,576.7853939533234,576.7853939533234,576.7853939533234,576.7853939533234,576.7853939533234,576.7853939533234,585.4499821662903,3,8.808897018432617,None,,,,,,,,,,,,,,,,,,225,2,2025-03-10_13h23.15.922,comp,2024.2.4,None,2025-03-10 13h24.08.628212 -0400,
94,94,0,filler_square,None,None,None,None,None,None,None,None,None,None,3,11.531563758850098,None,,,,,0,0,0,0,0,94,94,206,585.4670481681824,,,,,,,,,,,,,,,,,,,,,,,,,,,,,,,,,,,,,,,,,,,,,,,,,,,,,,,,,,,,,,,,,,,,,,,,,,,,,,,,,,70.93248554793225,79.28116895987343,69.5029269344645,72.70806399162818,79.50296782440594,79.50296782440594,4.0,4.1,-172,-267,0,10,172,-258,585.4518139362335,585.4518947601318,585.4559264183044,585.4670481681824,585.6043934822083,585.6043934822083,585.6043934822083,585.6043934822083,585.6043934822083,585.6043934822083,585.6043934822083,597.0045835971832,3,11.531563758850098,None,,,,,,,,,,,,,,,,,,225,2,2025-03-10_13h23.15.922,comp,2024.2.4,None,2025-03-10 13h24.08.628212 -0400,
95,95,0,filler_random,None,None,None,None,None,None,None,None,None,None,2,3.2560951709747314,None,,,,,0,0,0,0,0,95,95,140,597.0214273929596,,,,,,,,,,,,,,,,,,,,,,,,,,,,,,,,,,,,,,,,,,,,,,,,,,,,,,,,,,,,,,,,,,,,,,,,,,,,,,,,,,68.17360286826425,71.49249058416798,146.94397224425887,134.113672139078,126.59502427241534,120.01182243541601,3.0,3.2,-199,-278,0,-16,223,269,597.0066120624542,597.0067131519318,597.0102021694183,597.0214273929596,597.1696093082428,597.1696093082428,597.1696093082428,597.1696093082428,597.1696093082428,597.1696093082428,597.1696093082428,600.2871057987213,2,3.2560951709747314,None,,,,,,,,,,,,,,,,,,225,2,2025-03-10_13h23.15.922,comp,2024.2.4,None,2025-03-10 13h24.08.628212 -0400,
96,96,0,filler_square,None,None,None,None,None,None,None,None,None,None,1,2.268946647644043,None,,,,,0,0,0,0,0,96,96,185,600.3047113418579,,,,,,,,,,,,,,,,,,,,,,,,,,,,,,,,,,,,,,,,,,,,,,,,,,,,,,,,,,,,,,,,,,,,,,,,,,,,,,,,,,110.4742924773845,110.4742924773845,61.90584617369481,74.43322725702878,78.16050286881347,61.383169407759894,1.0,1.1,-668,273,-480,281,-316,270,600.2893052101135,600.2893991470337,600.293000459671,600.3047113418579,600.4535937309265,600.4535937309265,600.4535937309265,600.4535937309265,600.4535937309265,600.4535937309265,600.4535937309265,602.5876648426056,1,2.268946647644043,None,,,,,,,,,,,,,,,,,,225,2,2025-03-10_13h23.15.922,comp,2024.2.4,None,2025-03-10 13h24.08.628212 -0400,
97,97,0,filler_random,None,None,None,None,None,None,None,None,None,None,2,10.29853868484497,None,,,,,0,0,0,0,0,97,97,142,602.6030504703522,,,,,,,,,,,,,,,,,,,,,,,,,,,,,,,,,,,,,,,,,,,,,,,,,,,,,,,,,,,,,,,,,,,,,,,,,,,,,,,,,,119.6096489997633,179.8394932267688,143.75897096732635,169.76036986165292,112.86459878698929,63.41709011234147,3.0,3.1,-271,280,0,5,213,-277,602.5893807411194,602.5894594192505,602.5925803184509,602.6030504703522,602.7555119991302,602.7555119991302,602.7555119991302,602.7555119991302,602.7555119991302,602.7555119991302,602.7555119991302,612.9129123687744,2,10.29853868484497,None,,,,,,,,,,,,,,,,,,225,2,2025-03-10_13h23.15.922,comp,2024.2.4,None,2025-03-10 13h24.08.628212 -0400,
98,98,0,critical,dwh,35.0,2.1,lower,70.0,70.0,57.0,133.0,133.0,57.0,3,16.33715295791626,None,,,,,0,0,0,0,0,98,98,28,612.9330067634583,,,,,,,,,,,,,,,,,,,,,,,,,,,,,,,,,,,,,,,,,,,,,,,,,,,,,,,,,,,,,,,,,,,,,,,,,,,,,,,,,,70.0,70.0,57.0,133.0,133.0,57.0,2.1,2.11,-198,256,0,273,191,-275,612.9144163131714,612.914493560791,612.9173676967621,612.9330067634583,613.0741829872131,613.0741829872131,613.0741829872131,613.0741829872131,613.0741829872131,613.0741829872131,613.0741829872131,629.2796339988708,3,16.33715295791626,None,,,,,,,,,,,,,,,,,,225,2,2025-03-10_13h23.15.922,comp,2024.2.4,None,2025-03-10 13h24.08.628212 -0400,
99,99,0,filler_random,None,None,None,None,None,None,None,None,None,None,1,3.2703025341033936,None,,,,,0,0,0,0,0,99,99,166,629.2954502105713,,,,,,,,,,,,,,,,,,,,,,,,,,,,,,,,,,,,,,,,,,,,,,,,,,,,,,,,,,,,,,,,,,,,,,,,,,,,,,,,,,186.65463200741016,164.21687250376442,88.67199187290088,187.01640315590615,98.03313895014881,145.72443670622664,1.0,1.2,-272,5,0,-14,262,16,629.2813475131989,629.2814266681671,629.2847185134888,629.2954502105713,629.4438843727112,629.4438843727112,629.4438843727112,629.4438843727112,629.4438843727112,629.4438843727112,629.4438843727112,632.5783269405365,1,3.2703025341033936,None,,,,,,,,,,,,,,,,,,225,2,2025-03-10_13h23.15.922,comp,2024.2.4,None,2025-03-10 13h24.08.628212 -0400,
100,100,0,filler_square,None,None,None,None,None,None,None,None,None,None,1,1.635601282119751,None,,,,,0,0,0,0,0,100,100,197,632.5945343971252,,,,,,,,,,,,,,,,,,,,,,,,,,,,,,,,,,,,,,,,,,,,,,,,,,,,,,,,,,,,,,,,,,,,,,,,,,,,,,,,,,120.7805646579906,120.7805646579906,79.61675735039043,66.13727207484723,96.39974337690575,73.28093672985351,1.0,1.1,-669,255,-480,259,-314,275,632.580090045929,632.5801658630371,632.5830268859863,632.5945343971252,632.7466928958893,632.7466928958893,632.7466928958893,632.7466928958893,632.7466928958893,632.7466928958893,632.7466928958893,634.2478313446045,1,1.635601282119751,None,,,,,,,,,,,,,,,,,,225,2,2025-03-10_13h23.15.922,comp,2024.2.4,None,2025-03-10 13h24.08.628212 -0400,
101,101,0,critical,hwd,35.0,4.0,upper,200.0,125.0,125.0,200.0,127.0,127.0,2,4.350411891937256,None,,,,,0,0,0,0,0,101,101,101,634.2632670402527,,,,,,,,,,,,,,,,,,,,,,,,,,,,,,,,,,,,,,,,,,,,,,,,,,,,,,,,,,,,,,,,,,,,,,,,,,,,,,,,,,200.0,125.0,125.0,200.0,127.0,127.0,4.0,4.2,-258,10,0,-255,260,4,634.2494096755981,634.2495081424713,634.253027677536,634.2632670402527,634.4130434989929,634.4130434989929,634.4130434989929,634.4130434989929,634.4130434989929,634.4130434989929,634.4130434989929,638.6158106327057,2,4.350411891937256,None,,,,,,,,,,,,,,,,,,225,2,2025-03-10_13h23.15.922,comp,2024.2.4,None,2025-03-10 13h24.08.628212 -0400,
102,102,0,filler_random,None,None,None,None,None,None,None,None,None,None,2,24.01304841041565,None,,,,,0,0,0,0,0,102,102,138,638.632593870163,,,,,,,,,,,,,,,,,,,,,,,,,,,,,,,,,,,,,,,,,,,,,,,,,,,,,,,,,,,,,,,,,,,,,,,,,,,,,,,,,,82.45428287561847,65.02562659565274,99.65169715699352,99.91340260914606,60.968338441773625,151.05915406461588,2.1,2.12,-178,-256,0,-262,221,277,638.6176035404205,638.6177361011505,638.6209342479706,638.632593870163,638.7711191177368,638.7711191177368,638.7711191177368,638.7711191177368,638.7711191177368,638.7711191177368,638.7711191177368,662.6553921699524,2,24.01304841041565,None,,,,,,,,,,,,,,,,,,225,2,2025-03-10_13h23.15.922,comp,2024.2.4,None,2025-03-10 13h24.08.628212 -0400,
103,103,0,filler_square,None,None,None,None,None,None,None,None,None,None,1,2.2338123321533203,None,,,,,0,0,0,0,0,103,103,171,662.6759247779846,,,,,,,,,,,,,,,,,,,,,,,,,,,,,,,,,,,,,,,,,,,,,,,,,,,,,,,,,,,,,,,,,,,,,,,,,,,,,,,,,,195.4306279854089,195.4306279854089,104.47204008914136,168.03950105675244,80.53732782452467,191.2122524819971,4.0,4.1,-278,-259,0,7,276,-252,662.6573922634125,662.6574704647064,662.6606674194336,662.6759247779846,662.8276047706604,662.8276047706604,662.8276047706604,662.8276047706604,662.8276047706604,662.8276047706604,662.8276047706604,664.9117543697357,1,2.2338123321533203,None,,,,,,,,,,,,,,,,,,225,2,2025-03-10_13h23.15.922,comp,2024.2.4,None,2025-03-10 13h24.08.628212 -0400,
104,104,0,critical,hwd,20.0,3.0,upper,200.0,125.0,125.0,200.0,141.0,141.0,2,5.629719257354736,None,,,,,0,0,0,0,0,104,104,105,664.928186416626,,,,,,,,,,,,,,,,,,,,,,,,,,,,,,,,,,,,,,,,,,,,,,,,,,,,,,,,,,,,,,,,,,,,,,,,,,,,,,,,,,200.0,125.0,125.0,200.0,141.0,141.0,3.0,3.1,-258,282,0,-15,266,-262,664.9133760929108,664.913453578949,664.9174728393555,664.928186416626,665.0736203193665,665.0736203193665,665.0736203193665,665.0736203193665,665.0736203193665,665.0736203193665,665.0736203193665,670.5766294002533,2,5.629719257354736,None,,,,,,,,,,,,,,,,,,225,2,2025-03-10_13h23.15.922,comp,2024.2.4,None,2025-03-10 13h24.08.628212 -0400,
105,105,0,filler_square,None,None,None,None,None,None,None,None,None,None,3,11.509865283966064,None,,,,,0,0,0,0,0,105,105,180,670.5919678211212,,,,,,,,,,,,,,,,,,,,,,,,,,,,,,,,,,,,,,,,,,,,,,,,,,,,,,,,,,,,,,,,,,,,,,,,,,,,,,,,,,60.170460916231455,60.87826559229423,63.23182298951898,61.77463713810056,67.63968055223951,67.63968055223951,2.1,2.11,-157,265,0,278,161,-269,670.5785021781921,670.5786018371582,670.5817477703094,670.5919678211212,670.7414305210114,670.7414305210114,670.7414305210114,670.7414305210114,670.7414305210114,670.7414305210114,670.7414305210114,682.1031601428986,3,11.509865283966064,None,,,,,,,,,,,,,,,,,,225,2,2025-03-10_13h23.15.922,comp,2024.2.4,None,2025-03-10 13h24.08.628212 -0400,
106,106,0,critical,dhw,20.0,1.0,upper,141.0,141.0,200.0,125.0,125.0,200.0,3,5.561128854751587,None,,,,,0,0,0,0,0,106,106,55,682.1165270805359,,,,,,,,,,,,,,,,,,,,,,,,,,,,,,,,,,,,,,,,,,,,,,,,,,,,,,,,,,,,,,,,,,,,,,,,,,,,,,,,,,141.0,141.0,200.0,125.0,125.0,200.0,1.0,1.1,-709,281,-480,265,-222,252,682.1039657592773,682.1040048599243,682.1055426597595,682.1165270805359,682.2673647403717,682.2673647403717,682.2673647403717,682.2673647403717,682.2673647403717,682.2673647403717,682.2673647403717,687.6819214820862,3,5.561128854751587,None,,,,,,,,,,,,,,,,,,225,2,2025-03-10_13h23.15.922,comp,2024.2.4,None,2025-03-10 13h24.08.628212 -0400,
107,107,0,filler_square,None,None,None,None,None,None,None,None,None,None,3,1.9391889572143555,None,,,,,0,0,0,0,0,107,107,170,687.6983954906464,,,,,,,,,,,,,,,,,,,,,,,,,,,,,,,,,,,,,,,,,,,,,,,,,,,,,,,,,,,,,,,,,,,,,,,,,,,,,,,,,,82.54765196417871,133.20104253650686,139.94792837023218,115.24571910987245,169.64361713917913,169.64361713917913,2.2,2.22,-220,272,0,-273,238,-264,687.6839938163757,687.6840744018555,687.687539100647,687.6983954906464,687.850261926651,687.850261926651,687.850261926651,687.850261926651,687.850261926651,687.850261926651,687.850261926651,689.6510243415833,3,1.9391889572143555,None,,,,,,,,,,,,,,,,,,225,2,2025-03-10_13h23.15.922,comp,2024.2.4,None,2025-03-10 13h24.08.628212 -0400,
108,108,0,critical,whd,20.0,2.1,upper,125.0,200.0,200.0,125.0,141.0,141.0,1,5.3791892528533936,None,,,,,0,0,0,0,0,108,108,15,689.666848897934,,,,,,,,,,,,,,,,,,,,,,,,,,,,,,,,,,,,,,,,,,,,,,,,,,,,,,,,,,,,,,,,,,,,,,,,,,,,,,,,,,125.0,200.0,200.0,125.0,141.0,141.0,2.1,2.11,-258,267,0,276,229,-262,689.6527709960938,689.6529095172882,689.656492471695,689.666848897934,689.8160154819489,689.8160154819489,689.8160154819489,689.8160154819489,689.8160154819489,689.8160154819489,689.8160154819489,695.0511610507965,1,5.3791892528533936,None,,,,,,,,,,,,,,,,,,225,2,2025-03-10_13h23.15.922,comp,2024.2.4,None,2025-03-10 13h24.08.628212 -0400,
109,109,0,critical,hwd,35.0,2.1,lower,133.0,57.0,57.0,133.0,70.0,70.0,1,3.738455057144165,None,,,,,0,0,0,0,0,109,109,16,695.0670831203461,,,,,,,,,,,,,,,,,,,,,,,,,,,,,,,,,,,,,,,,,,,,,,,,,,,,,,,,,,,,,,,,,,,,,,,,,,,,,,,,,,133.0,57.0,57.0,133.0,70.0,70.0,2.1,2.11,-191,283,0,252,198,-281,695.0527744293213,695.0528500080109,695.0562505722046,695.0670831203461,695.2166125774384,695.2166125774384,695.2166125774384,695.2166125774384,695.2166125774384,695.2166125774384,695.2166125774384,698.8117876052856,1,3.738455057144165,None,,,,,,,,,,,,,,,,,,225,2,2025-03-10_13h23.15.922,comp,2024.2.4,None,2025-03-10 13h24.08.628212 -0400,
110,110,0,filler_square,None,None,None,None,None,None,None,None,None,None,3,2.390979528427124,None,,,,,0,0,0,0,0,110,110,204,698.8306176662445,,,,,,,,,,,,,,,,,,,,,,,,,,,,,,,,,,,,,,,,,,,,,,,,,,,,,,,,,,,,,,,,,,,,,,,,,,,,,,,,,,73.14113369757871,122.03331814588077,99.54929361470536,157.1259457242601,177.44304450885184,177.44304450885184,4.0,4.2,-236,12,0,-268,263,4,698.8137683868408,698.8138797283173,698.8170735836029,698.8306176662445,698.9717473983765,698.9717473983765,698.9717473983765,698.9717473983765,698.9717473983765,698.9717473983765,698.9717473983765,701.2354454994202,3,2.390979528427124,None,,,,,,,,,,,,,,,,,,225,2,2025-03-10_13h23.15.922,comp,2024.2.4,None,2025-03-10 13h24.08.628212 -0400,
111,111,0,filler_square,None,None,None,None,None,None,None,None,None,None,3,7.034189462661743,None,,,,,0,0,0,0,0,111,111,188,701.2517066001892,,,,,,,,,,,,,,,,,,,,,,,,,,,,,,,,,,,,,,,,,,,,,,,,,,,,,,,,,,,,,,,,,,,,,,,,,,,,,,,,,,73.80050322476987,72.67859253091949,57.72303798233474,76.0585734202269,78.51173371102661,78.51173371102661,2.1,2.11,-170,255,0,268,173,-286,701.2372374534607,701.2373571395874,701.241409778595,701.2517066001892,701.39879322052,701.39879322052,701.39879322052,701.39879322052,701.39879322052,701.39879322052,701.39879322052,708.3034653663635,3,7.034189462661743,None,,,,,,,,,,,,,,,,,,225,2,2025-03-10_13h23.15.922,comp,2024.2.4,None,2025-03-10 13h24.08.628212 -0400,
112,112,0,filler_square,None,None,None,None,None,None,None,None,None,None,2,4.926170825958252,None,,,,,0,0,0,0,0,112,112,193,708.3209044933319,,,,,,,,,,,,,,,,,,,,,,,,,,,,,,,,,,,,,,,,,,,,,,,,,,,,,,,,,,,,,,,,,,,,,,,,,,,,,,,,,,108.40707461951592,76.86000144315504,127.50642677624857,127.50642677624857,92.66382415970533,65.59682414696653,4.0,4.2,-198,19,0,-277,193,-3,708.3052113056183,708.30530834198,708.3082559108734,708.3209044933319,708.4676058292389,708.4676058292389,708.4676058292389,708.4676058292389,708.4676058292389,708.4676058292389,708.4676058292389,713.2586433887482,2,4.926170825958252,None,,,,,,,,,,,,,,,,,,225,2,2025-03-10_13h23.15.922,comp,2024.2.4,None,2025-03-10 13h24.08.628212 -0400,
113,113,0,critical,dhw,35.0,3.0,lower,70.0,70.0,133.0,57.0,57.0,133.0,3,4.7077226638793945,None,,,,,0,0,0,0,0,113,113,50,713.2745745182037,,,,,,,,,,,,,,,,,,,,,,,,,,,,,,,,,,,,,,,,,,,,,,,,,,,,,,,,,,,,,,,,,,,,,,,,,,,,,,,,,,70.0,70.0,133.0,57.0,57.0,133.0,3.0,3.1,-160,258,0,4,191,-251,713.2602608203888,713.2603659629822,713.263783454895,713.2745745182037,713.4223663806915,713.4223663806915,713.4223663806915,713.4223663806915,713.4223663806915,713.4223663806915,713.4223663806915,717.9907081127167,3,4.7077226638793945,None,,,,,,,,,,,,,,,,,,225,2,2025-03-10_13h23.15.922,comp,2024.2.4,None,2025-03-10 13h24.08.628212 -0400,
114,114,0,critical,dwh,35.0,3.0,lower,70.0,70.0,57.0,133.0,133.0,57.0,2,3.2721385955810547,None,,,,,0,0,0,0,0,114,114,62,718.0054910182953,,,,,,,,,,,,,,,,,,,,,,,,,,,,,,,,,,,,,,,,,,,,,,,,,,,,,,,,,,,,,,,,,,,,,,,,,,,,,,,,,,70.0,70.0,57.0,133.0,133.0,57.0,3.0,3.1,-198,279,0,-10,191,-270,717.9923481941223,717.9924340248108,717.995805978775,718.0054910182953,718.1446239948273,718.1446239948273,718.1446239948273,718.1446239948273,718.1446239948273,718.1446239948273,718.1446239948273,721.2913658618927,2,3.2721385955810547,None,,,,,,,,,,,,,,,,,,225,2,2025-03-10_13h23.15.922,comp,2024.2.4,None,2025-03-10 13h24.08.628212 -0400,
115,115,0,critical,hwd,35.0,3.0,upper,200.0,125.0,125.0,200.0,127.0,127.0,2,5.6746602058410645,None,,,,,0,0,0,0,0,115,115,99,721.3067796230316,,,,,,,,,,,,,,,,,,,,,,,,,,,,,,,,,,,,,,,,,,,,,,,,,,,,,,,,,,,,,,,,,,,,,,,,,,,,,,,,,,200.0,125.0,125.0,200.0,127.0,127.0,3.0,3.1,-258,265,0,19,260,-261,721.2929756641388,721.2930805683136,721.2965068817139,721.3067796230316,721.4557917118073,721.4557917118073,721.4557917118073,721.4557917118073,721.4557917118073,721.4557917118073,721.4557917118073,726.9923770427704,2,5.6746602058410645,None,,,,,,,,,,,,,,,,,,225,2,2025-03-10_13h23.15.922,comp,2024.2.4,None,2025-03-10 13h24.08.628212 -0400,
116,116,0,critical,hwd,35.0,1.0,lower,133.0,57.0,57.0,133.0,70.0,70.0,2,6.253067970275879,None,,,,,0,0,0,0,0,116,116,96,727.0087783336639,,,,,,,,,,,,,,,,,,,,,,,,,,,,,,,,,,,,,,,,,,,,,,,,,,,,,,,,,,,,,,,,,,,,,,,,,,,,,,,,,,133.0,57.0,57.0,133.0,70.0,70.0,1.0,1.2,-191,17,0,2,198,8,726.9938373565674,726.9939150810242,726.9969954490662,727.0087783336639,727.165301322937,727.165301322937,727.165301322937,727.165301322937,727.165301322937,727.165301322937,727.165301322937,733.2787170410156,2,6.253067970275879,None,,,,,,,,,,,,,,,,,,225,2,2025-03-10_13h23.15.922,comp,2024.2.4,None,2025-03-10 13h24.08.628212 -0400,
117,117,0,filler_square,None,None,None,None,None,None,None,None,None,None,3,7.902334690093994,None,,,,,0,0,0,0,0,117,117,198,733.2951011657715,,,,,,,,,,,,,,,,,,,,,,,,,,,,,,,,,,,,,,,,,,,,,,,,,,,,,,,,,,,,,,,,,,,,,,,,,,,,,,,,,,69.10004568419343,102.99718829089403,96.62538902593715,98.50082208111186,108.46026807265643,108.46026807265643,2.2,2.22,-197,276,0,-288,199,-259,733.2804400920868,733.2805190086365,733.2845966815948,733.2951011657715,733.4436795711517,733.4436795711517,733.4436795711517,733.4436795711517,733.4436795711517,733.4436795711517,733.4436795711517,741.2153344154358,3,7.902334690093994,None,,,,,,,,,,,,,,,,,,225,2,2025-03-10_13h23.15.922,comp,2024.2.4,None,2025-03-10 13h24.08.628212 -0400,
118,118,0,catch,None,None,None,None,None,None,None,None,None,None,1,3.528228521347046,None,,,,,0,0,0,0,0,118,118,125,741.2311627864838,,,,,,,,,,,,,,,,,,,,,,,,,,,,,,,,,,,,,,,,,,,,,,,,,,,,,,,,,,,,,,,,,,,,,,,,,,,,,,,,,,192,133,80,110,61,129,2.1,2.12,-218,-261,0,-266,216,264,741.2171943187714,741.2172734737396,741.2202727794647,741.2311627864838,741.3774673938751,741.3774673938751,741.3774673938751,741.3774673938751,741.3774673938751,741.3774673938751,741.3774673938751,744.7665846347809,1,3.528228521347046,None,,,,,,,,,,,,,,,,,,225,2,2025-03-10_13h23.15.922,comp,2024.2.4,None,2025-03-10 13h24.08.628212 -0400,
119,119,0,critical,dhw,35.0,2.1,lower,70.0,70.0,133.0,57.0,57.0,133.0,3,7.518572092056274,None,,,,,0,0,0,0,0,119,119,24,744.7828793525696,,,,,,,,,,,,,,,,,,,,,,,,,,,,,,,,,,,,,,,,,,,,,,,,,,,,,,,,,,,,,,,,,,,,,,,,,,,,,,,,,,70.0,70.0,133.0,57.0,57.0,133.0,2.1,2.12,-160,-283,0,-288,191,254,744.7681396007538,744.7682211399078,744.7713084220886,744.7828793525696,744.9309794902802,744.9309794902802,744.9309794902802,744.9309794902802,744.9309794902802,744.9309794902802,744.9309794902802,752.3169105052948,3,7.518572092056274,None,,,,,,,,,,,,,,,,,,225,2,2025-03-10_13h23.15.922,comp,2024.2.4,None,2025-03-10 13h24.08.628212 -0400,
120,120,0,critical,whd,20.0,2.1,upper,125.0,200.0,200.0,125.0,141.0,141.0,2,4.801269054412842,None,,,,,0,0,0,0,0,120,120,39,752.3324964046478,,,,,,,,,,,,,,,,,,,,,,,,,,,,,,,,,,,,,,,,,,,,,,,,,,,,,,,,,,,,,,,,,,,,,,,,,,,,,,,,,,125.0,200.0,200.0,125.0,141.0,141.0,2.1,2.12,-258,-250,0,-273,229,259,752.3185484409332,752.3186318874359,752.3219172954559,752.3324964046478,752.4892416000366,752.4892416000366,752.4892416000366,752.4892416000366,752.4892416000366,752.4892416000366,752.4892416000366,757.1359453201294,2,4.801269054412842,None,,,,,,,,,,,,,,,,,,225,2,2025-03-10_13h23.15.922,comp,2024.2.4,None,2025-03-10 13h24.08.628212 -0400,
121,121,0,critical,hwd,20.0,1.0,lower,133.0,57.0,57.0,133.0,78.0,78.0,2,6.646801948547363,None,,,,,0,0,0,0,0,121,121,102,757.1518738269806,,,,,,,,,,,,,,,,,,,,,,,,,,,,,,,,,,,,,,,,,,,,,,,,,,,,,,,,,,,,,,,,,,,,,,,,,,,,,,,,,,133.0,57.0,57.0,133.0,78.0,78.0,1.0,1.1,-671,286,-480,283,-278,264,757.1374804973602,757.1375579833984,757.1408717632294,757.1518738269806,757.3028645515442,757.3028645515442,757.3028645515442,757.3028645515442,757.3028645515442,757.3028645515442,757.3028645515442,763.8014440536499,2,6.646801948547363,None,,,,,,,,,,,,,,,,,,225,2,2025-03-10_13h23.15.922,comp,2024.2.4,None,2025-03-10 13h24.08.628212 -0400,
122,122,0,critical,dhw,35.0,1.0,upper,127.0,127.0,200.0,125.0,125.0,200.0,3,9.882925987243652,None,,,,,0,0,0,0,0,122,122,49,763.8193402290344,,,,,,,,,,,,,,,,,,,,,,,,,,,,,,,,,,,,,,,,,,,,,,,,,,,,,,,,,,,,,,,,,,,,,,,,,,,,,,,,,,127.0,127.0,200.0,125.0,125.0,200.0,1.0,1.3,258,-288,480,-279,738,-271,763.8030483722687,763.803124666214,763.8064260482788,763.8193402290344,763.9564871788025,763.9564871788025,763.9564871788025,763.9564871788025,763.9564871788025,763.9564871788025,763.9564871788025,773.709107875824,3,9.882925987243652,None,,,,,,,,,,,,,,,,,,225,2,2025-03-10_13h23.15.922,comp,2024.2.4,None,2025-03-10 13h24.08.628212 -0400,
123,123,0,filler_random,None,None,None,None,None,None,None,None,None,None,2,1.7945067882537842,None,,,,,0,0,0,0,0,123,123,156,773.7249236106873,,,,,,,,,,,,,,,,,,,,,,,,,,,,,,,,,,,,,,,,,,,,,,,,,,,,,,,,,,,,,,,,,,,,,,,,,,,,,,,,,,68.44393972576405,59.528388186438924,114.80677712796519,197.43654576473952,118.60914113421947,61.21549878910177,2.2,2.21,-224,-281,0,262,225,281,773.7109286785126,773.7110080718994,773.7141888141632,773.7249236106873,773.8740668296814,773.8740668296814,773.8740668296814,773.8740668296814,773.8740668296814,773.8740668296814,773.8740668296814,775.5233972072601,2,1.7945067882537842,None,,,,,,,,,,,,,,,,,,225,2,2025-03-10_13h23.15.922,comp,2024.2.4,None,2025-03-10 13h24.08.628212 -0400,
124,124,0,filler_square,None,None,None,None,None,None,None,None,None,None,2,2.4265518188476562,None,,,,,0,0,0,0,0,124,124,178,775.5397071838379,,,,,,,,,,,,,,,,,,,,,,,,,,,,,,,,,,,,,,,,,,,,,,,,,,,,,,,,,,,,,,,,,,,,,,,,,,,,,,,,,,93.93993223848159,131.35329557753005,172.1209685040805,172.1209685040805,59.15424797577767,150.4836233726274,4.0,4.1,-248,-278,0,-2,257,-270,775.5251848697662,775.5252630710602,775.528077840805,775.5397071838379,775.6894290447235,775.6894290447235,775.6894290447235,775.6894290447235,775.6894290447235,775.6894290447235,775.6894290447235,777.9728615283966,2,2.4265518188476562,None,,,,,,,,,,,,,,,,,,225,2,2025-03-10_13h23.15.922,comp,2024.2.4,None,2025-03-10 13h24.08.628212 -0400,
125,125,0,catch,None,None,None,None,None,None,None,None,None,None,1,1.6974313259124756,None,,,,,0,0,0,0,0,125,125,122,777.9904890060425,,,,,,,,,,,,,,,,,,,,,,,,,,,,,,,,,,,,,,,,,,,,,,,,,,,,,,,,,,,,,,,,,,,,,,,,,,,,,,,,,,143,182,85,105,115,75,2.2,2.22,-240,250,0,-288,186,-264,777.9749646186829,777.9750423431396,777.9782705307007,777.9904890060425,778.150140285492,778.150140285492,778.150140285492,778.150140285492,778.150140285492,778.150140285492,778.150140285492,779.6912243366241,1,1.6974313259124756,None,,,,,,,,,,,,,,,,,,225,2,2025-03-10_13h23.15.922,comp,2024.2.4,None,2025-03-10 13h24.08.628212 -0400,
126,126,0,critical,wdh,20.0,2.1,upper,125.0,200.0,141.0,141.0,200.0,125.0,1,4.466885328292847,None,,,,,0,0,0,0,0,126,126,35,779.7069306373596,,,,,,,,,,,,,,,,,,,,,,,,,,,,,,,,,,,,,,,,,,,,,,,,,,,,,,,,,,,,,,,,,,,,,,,,,,,,,,,,,,125.0,200.0,141.0,141.0,200.0,125.0,2.1,2.11,-266,277,0,261,229,-287,779.6927378177643,779.6928131580353,779.6956377029419,779.7069306373596,779.8466348648071,779.8466348648071,779.8466348648071,779.8466348648071,779.8466348648071,779.8466348648071,779.8466348648071,784.1784551143646,1,4.466885328292847,None,,,,,,,,,,,,,,,,,,225,2,2025-03-10_13h23.15.922,comp,2024.2.4,None,2025-03-10 13h24.08.628212 -0400,
127,127,0,filler_square,None,None,None,None,None,None,None,None,None,None,2,3.2010154724121094,None,,,,,0,0,0,0,0,127,127,208,784.1966323852539,,,,,,,,,,,,,,,,,,,,,,,,,,,,,,,,,,,,,,,,,,,,,,,,,,,,,,,,,,,,,,,,,,,,,,,,,,,,,,,,,,90.31275748270087,110.15658830260227,114.67625695171489,114.67625695171489,113.54274070315472,99.86351984353168,3.0,3.1,-208,285,0,-19,203,-281,784.1802036762238,784.1803050041199,784.1834275722504,784.1966323852539,784.3448767662048,784.3448767662048,784.3448767662048,784.3448767662048,784.3448767662048,784.3448767662048,784.3448767662048,787.3997926712036,2,3.2010154724121094,None,,,,,,,,,,,,,,,,,,225,2,2025-03-10_13h23.15.922,comp,2024.2.4,None,2025-03-10 13h24.08.628212 -0400,
128,128,0,filler_square,None,None,None,None,None,None,None,None,None,None,1,2.9450056552886963,None,,,,,0,0,0,0,0,128,128,209,787.4204316139221,,,,,,,,,,,,,,,,,,,,,,,,,,,,,,,,,,,,,,,,,,,,,,,,,,,,,,,,,,,,,,,,,,,,,,,,,,,,,,,,,,80.03108831260015,80.03108831260015,70.22133415359636,62.673877043175345,76.8472312871756,61.94702999331555,3.0,3.2,-167,-286,0,-15,158,252,787.4017953872681,787.4018731117249,787.4050891399384,787.4204316139221,787.5627071857452,787.5627071857452,787.5627071857452,787.5627071857452,787.5627071857452,787.5627071857452,787.5627071857452,790.382771730423,1,2.9450056552886963,None,,,,,,,,,,,,,,,,,,225,2,2025-03-10_13h23.15.922,comp,2024.2.4,None,2025-03-10 13h24.08.628212 -0400,
129,129,0,critical,hwd,20.0,4.0,upper,200.0,125.0,125.0,200.0,141.0,141.0,2,5.445035457611084,None,,,,,0,0,0,0,0,129,129,107,790.4010035991669,,,,,,,,,,,,,,,,,,,,,,,,,,,,,,,,,,,,,,,,,,,,,,,,,,,,,,,,,,,,,,,,,,,,,,,,,,,,,,,,,,200.0,125.0,125.0,200.0,141.0,141.0,4.0,4.2,-258,2,0,-261,266,15,790.3843598365784,790.3844382762909,790.3875637054443,790.4010035991669,790.547126531601,790.547126531601,790.547126531601,790.547126531601,790.547126531601,790.547126531601,790.547126531601,795.8483159542084,2,5.445035457611084,None,,,,,,,,,,,,,,,,,,225,2,2025-03-10_13h23.15.922,comp,2024.2.4,None,2025-03-10 13h24.08.628212 -0400,
130,130,0,critical,hdw,20.0,1.0,lower,133.0,57.0,78.0,78.0,57.0,133.0,3,4.716478586196899,None,,,,,0,0,0,0,0,130,130,114,795.8648965358734,,,,,,,,,,,,,,,,,,,,,,,,,,,,,,,,,,,,,,,,,,,,,,,,,,,,,,,,,,,,,,,,,,,,,,,,,,,,,,,,,,133.0,57.0,78.0,78.0,57.0,133.0,1.0,1.1,-644,272,-480,280,-278,266,795.8498148918152,795.8498940467834,795.8533973693848,795.8648965358734,796.0201778411865,796.0201778411865,796.0201778411865,796.0201778411865,796.0201778411865,796.0201778411865,796.0201778411865,800.5988872051239,3,4.716478586196899,None,,,,,,,,,,,,,,,,,,225,2,2025-03-10_13h23.15.922,comp,2024.2.4,None,2025-03-10 13h24.08.628212 -0400,
131,131,0,filler_square,None,None,None,None,None,None,None,None,None,None,3,3.604322671890259,None,,,,,0,0,0,0,0,131,131,175,800.6170585155487,,,,,,,,,,,,,,,,,,,,,,,,,,,,,,,,,,,,,,,,,,,,,,,,,,,,,,,,,,,,,,,,,,,,,,,,,,,,,,,,,,97.44949623789935,95.46997337500014,81.53823789240508,90.43508243751091,98.25091606259139,98.25091606259139,3.0,3.2,-189,-260,0,-17,190,273,800.6005566120148,800.6006324291229,800.6036744117737,800.6170585155487,800.7521884441376,800.7521884441376,800.7521884441376,800.7521884441376,800.7521884441376,800.7521884441376,800.7521884441376,804.2375416755676,3,3.604322671890259,None,,,,,,,,,,,,,,,,,,225,2,2025-03-10_13h23.15.922,comp,2024.2.4,None,2025-03-10 13h24.08.628212 -0400,
132,132,0,critical,whd,20.0,1.0,lower,57.0,133.0,133.0,57.0,78.0,78.0,1,3.219726800918579,None,,,,,0,0,0,0,0,132,132,90,804.2581238746643,,,,,,,,,,,,,,,,,,,,,,,,,,,,,,,,,,,,,,,,,,,,,,,,,,,,,,,,,,,,,,,,,,,,,,,,,,,,,,,,,,57.0,133.0,133.0,57.0,78.0,78.0,1.0,1.2,-191,2,0,4,164,9,804.2392199039459,804.2393796443939,804.2427945137024,804.2581238746643,804.4018292427063,804.4018292427063,804.4018292427063,804.4018292427063,804.4018292427063,804.4018292427063,804.4018292427063,807.4874262809753,1,3.219726800918579,None,,,,,,,,,,,,,,,,,,225,2,2025-03-10_13h23.15.922,comp,2024.2.4,None,2025-03-10 13h24.08.628212 -0400,
133,133,0,critical,dhw,35.0,2.1,upper,127.0,127.0,200.0,125.0,125.0,200.0,3,2.3225765228271484,None,,,,,0,0,0,0,0,133,133,1,807.5077247619629,,,,,,,,,,,,,,,,,,,,,,,,,,,,,,,,,,,,,,,,,,,,,,,,,,,,,,,,,,,,,,,,,,,,,,,,,,,,,,,,,,127.0,127.0,200.0,125.0,125.0,200.0,2.1,2.12,-222,-272,0,-273,258,278,807.4891293048859,807.4892075061798,807.492532491684,807.5077247619629,807.654825925827,807.654825925827,807.654825925827,807.654825925827,807.654825925827,807.654825925827,807.654825925827,809.8384647369385,3,2.3225765228271484,None,,,,,,,,,,,,,,,,,,225,2,2025-03-10_13h23.15.922,comp,2024.2.4,None,2025-03-10 13h24.08.628212 -0400,
134,134,0,critical,dhw,35.0,2.1,lower,70.0,70.0,133.0,57.0,57.0,133.0,3,2.8309428691864014,None,,,,,0,0,0,0,0,134,134,0,809.8544278144836,,,,,,,,,,,,,,,,,,,,,,,,,,,,,,,,,,,,,,,,,,,,,,,,,,,,,,,,,,,,,,,,,,,,,,,,,,,,,,,,,,70.0,70.0,133.0,57.0,57.0,133.0,2.1,2.11,-160,286,0,287,191,-272,809.840104341507,809.8401837348938,809.8436486721039,809.8544278144836,810.0084834098816,810.0084834098816,810.0084834098816,810.0084834098816,810.0084834098816,810.0084834098816,810.0084834098816,812.703028678894,3,2.8309428691864014,None,,,,,,,,,,,,,,,,,,225,2,2025-03-10_13h23.15.922,comp,2024.2.4,None,2025-03-10 13h24.08.628212 -0400,
135,135,0,critical,hwd,35.0,3.0,lower,133.0,57.0,57.0,133.0,70.0,70.0,2,3.213940143585205,None,,,,,0,0,0,0,0,135,135,98,812.7196736335754,,,,,,,,,,,,,,,,,,,,,,,,,,,,,,,,,,,,,,,,,,,,,,,,,,,,,,,,,,,,,,,,,,,,,,,,,,,,,,,,,,133.0,57.0,57.0,133.0,70.0,70.0,3.0,3.1,-191,282,0,10,198,-269,812.7046525478363,812.7047276496887,812.7081332206726,812.7196736335754,812.873729467392,812.873729467392,812.873729467392,812.873729467392,812.873729467392,812.873729467392,812.873729467392,815.94557929039,2,3.213940143585205,None,,,,,,,,,,,,,,,,,,225,2,2025-03-10_13h23.15.922,comp,2024.2.4,None,2025-03-10 13h24.08.628212 -0400,
136,136,0,filler_square,None,None,None,None,None,None,None,None,None,None,1,2.0329501628875732,None,,,,,0,0,0,0,0,136,136,199,815.9644000530243,,,,,,,,,,,,,,,,,,,,,,,,,,,,,,,,,,,,,,,,,,,,,,,,,,,,,,,,,,,,,,,,,,,,,,,,,,,,,,,,,,112.84953888256672,112.84953888256672,93.53925552022622,59.83106193805783,95.96117455583334,102.475100287309,1.0,1.3,298,-289,480,-252,657,-271,815.9473488330841,815.9474754333496,815.9507260322571,815.9644000530243,816.1001555919647,816.1001555919647,816.1001555919647,816.1001555919647,816.1001555919647,816.1001555919647,816.1001555919647,818.0069153308868,1,2.0329501628875732,None,,,,,,,,,,,,,,,,,,225,2,2025-03-10_13h23.15.922,comp,2024.2.4,None,2025-03-10 13h24.08.628212 -0400,
137,137,0,critical,wdh,20.0,3.0,lower,57.0,133.0,78.0,78.0,133.0,57.0,1,3.5513622760772705,None,,,,,0,0,0,0,0,137,137,80,818.0227839946747,,,,,,,,,,,,,,,,,,,,,,,,,,,,,,,,,,,,,,,,,,,,,,,,,,,,,,,,,,,,,,,,,,,,,,,,,,,,,,,,,,57.0,133.0,78.0,78.0,133.0,57.0,3.0,3.2,-202,-255,0,-10,164,264,818.0085408687592,818.0086195468903,818.0118050575256,818.0227839946747,818.1722228527069,818.1722228527069,818.1722228527069,818.1722228527069,818.1722228527069,818.1722228527069,818.1722228527069,821.5778901576996,1,3.5513622760772705,None,,,,,,,,,,,,,,,,,,225,2,2025-03-10_13h23.15.922,comp,2024.2.4,None,2025-03-10 13h24.08.628212 -0400,
138,138,0,filler_random,None,None,None,None,None,None,None,None,None,None,3,3.1309962272644043,None,,,,,0,0,0,0,0,138,138,131,821.5944013595581,,,,,,,,,,,,,,,,,,,,,,,,,,,,,,,,,,,,,,,,,,,,,,,,,,,,,,,,,,,,,,,,,,,,,,,,,,,,,,,,,,184.68305970238725,160.40710669209727,114.79534238307862,164.6289448905437,168.86200072416142,182.96892490278708,3.0,3.2,-259,-278,0,15,270,272,821.5796842575073,821.5797629356384,821.5827655792236,821.5944013595581,821.7408013343811,821.7408013343811,821.7408013343811,821.7408013343811,821.7408013343811,821.7408013343811,821.7408013343811,824.7380356788635,3,3.1309962272644043,None,,,,,,,,,,,,,,,,,,225,2,2025-03-10_13h23.15.922,comp,2024.2.4,None,2025-03-10 13h24.08.628212 -0400,
139,139,0,filler_square,None,None,None,None,None,None,None,None,None,None,2,3.6832475662231445,None,,,,,0,0,0,0,0,139,139,194,824.7545795440674,,,,,,,,,,,,,,,,,,,,,,,,,,,,,,,,,,,,,,,,,,,,,,,,,,,,,,,,,,,,,,,,,,,,,,,,,,,,,,,,,,91.7242798958363,120.54307522653568,145.93830902476316,145.93830902476316,100.35793976864207,116.55531130800924,4.0,4.2,-229,-1,0,-277,227,-8,824.7398076057434,824.7398824691772,824.7427747249603,824.7545795440674,824.9051761627197,824.9051761627197,824.9051761627197,824.9051761627197,824.9051761627197,824.9051761627197,824.9051761627197,828.4426748752594,2,3.6832475662231445,None,,,,,,,,,,,,,,,,,,225,2,2025-03-10_13h23.15.922,comp,2024.2.4,None,2025-03-10 13h24.08.628212 -0400,
140,140,0,critical,hwd,20.0,2.1,lower,133.0,57.0,57.0,133.0,78.0,78.0,2,4.890979528427124,None,,,,,0,0,0,0,0,140,140,18,828.4588832855225,,,,,,,,,,,,,,,,,,,,,,,,,,,,,,,,,,,,,,,,,,,,,,,,,,,,,,,,,,,,,,,,,,,,,,,,,,,,,,,,,,133.0,57.0,57.0,133.0,78.0,78.0,2.1,2.11,-191,273,0,273,202,-260,828.4443459510803,828.4444561004639,828.447865486145,828.4588832855225,828.6086723804474,828.6086723804474,828.6086723804474,828.6086723804474,828.6086723804474,828.6086723804474,828.6086723804474,833.352833032608,2,4.890979528427124,None,,,,,,,,,,,,,,,,,,225,2,2025-03-10_13h23.15.922,comp,2024.2.4,None,2025-03-10 13h24.08.628212 -0400,
141,141,0,filler_random,None,None,None,None,None,None,None,None,None,None,3,5.884037017822266,None,,,,,0,0,0,0,0,141,141,149,833.3693041801453,,,,,,,,,,,,,,,,,,,,,,,,,,,,,,,,,,,,,,,,,,,,,,,,,,,,,,,,,,,,,,,,,,,,,,,,,,,,,,,,,,103.40306365738404,104.31830105555845,130.81904317127965,105.09532905960481,91.37207449958692,136.4939074454989,1.0,1.2,-201,-13,0,14,217,14,833.3547871112823,833.3548867702484,833.3580853939056,833.3693041801453,833.5104234218597,833.5104234218597,833.5104234218597,833.5104234218597,833.5104234218597,833.5104234218597,833.5104234218597,839.2650096416473,3,5.884037017822266,None,,,,,,,,,,,,,,,,,,225,2,2025-03-10_13h23.15.922,comp,2024.2.4,None,2025-03-10 13h24.08.628212 -0400,
142,142,0,filler_random,None,None,None,None,None,None,None,None,None,None,1,5.057262182235718,None,,,,,0,0,0,0,0,142,142,159,839.284571647644,,,,,,,,,,,,,,,,,,,,,,,,,,,,,,,,,,,,,,,,,,,,,,,,,,,,,,,,,,,,,,,,,,,,,,,,,,,,,,,,,,155.03258634501577,140.70515226641925,113.59738968373085,199.79552897907908,70.32358796259022,62.88019329428379,1.0,1.3,214,-252,480,-250,707,-283,839.2670814990997,839.2671613693237,839.2704293727875,839.284571647644,839.4279429912567,839.4279429912567,839.4279429912567,839.4279429912567,839.4279429912567,839.4279429912567,839.4279429912567,844.344972372055,1,5.057262182235718,None,,,,,,,,,,,,,,,,,,225,2,2025-03-10_13h23.15.922,comp,2024.2.4,None,2025-03-10 13h24.08.628212 -0400,
