thisN,thisTrialN,thisRepN,effect,order,distance,config,diag,h_1,w_1,h_2,w_2,h_3,w_3,rect_choice.keys,rect_choice.rt,rect_choice.duration,instructions_loop.thisRepN,instructions_loop.thisTrialN,instructions_loop.thisN,instructions_loop.thisIndex,blocks.thisRepN,blocks.thisTrialN,blocks.thisN,blocks.thisIndex,trials.thisRepN,trials.thisTrialN,trials.thisN,trials.thisIndex,thisRow.t,notes,consent.started,agree_button.started,decline_button.started,consent_img.started,mouse.started,consent.stopped,agree_button.numClicks,agree_button.timesOn,agree_button.timesOff,decline_button.numClicks,decline_button.timesOn,decline_button.timesOff,mouse.x,mouse.y,mouse.leftButton,mouse.midButton,mouse.rightButton,mouse.time,mouse.clicked_name,exp_params.started,exp_params.stopped,welcome.started,welcome_text.started,welcome.stopped,instructions_1.started,instructions_1_text_1.started,instructions_1_text_2.started,key_resp.started,instructions_1.stopped,instructions_loop.key_resp.keys,instructions_loop.key_resp.rt,instructions_loop.key_resp.duration,instructions_2.started,instructions_2_text_1.started,instructions_2_text_2.started,key_resp_2.started,instructions_2.stopped,instructions_loop.key_resp_2.keys,instructions_loop.key_resp_2.rt,instructions_loop.key_resp_2.duration,instructions_3.started,instructions_3_text_1.started,r1_instr3.started,r2_instr3.started,r3_instr3.started,r1_instr3_label.started,r2_instr3_label.started,r3_instr3_label.started,instructions_3_text_3.started,instructions_3_text_4.started,key_resp_3.started,instructions_3.stopped,instructions_loop.key_resp_3.keys,instructions_loop.key_resp_3.rt,instructions_loop.key_resp_3.duration,instructions_4.started,instructions_4_text_1.started,instructions_4_text_3.started,instructions_4_text_2.started,key_resp_4.started,instructions_4.stopped,instructions_loop.key_resp_4.keys,instructions_loop.key_resp_4.rt,instructions_loop.key_resp_4.duration,instructions_5.started,instructions_5_text_1.started,instructions_5_text_2.started,key_resp_5.started,instructions_5.stopped,instructions_loop.key_resp_5.keys,instructions_loop.key_resp_5.rt,instructions_loop.key_resp_5.duration,start_exp.started,start_exp_text.started,key_resp_6.started,start_exp.stopped,key_resp_6.keys,key_resp_6.rt,key_resp_6.duration,h_1_tmp,w_1_tmp,h_2_tmp,w_2_tmp,h_3_tmp,w_3_tmp,config_tmp,config_tmp_1,r_1_x,r_1_y,r_2_x,r_2_y,r_3_x,r_3_y,pre_trial.started,pre_trial.stopped,choice_trial.started,rect_choice.started,r_1.started,r_2.started,r_3.started,r_1_label.started,r_2_label.started,r_3_label.started,prompt.started,choice_trial.stopped,trials.rect_choice.keys,trials.rect_choice.rt,trials.rect_choice.duration,end_block.started,end_block_text.started,end_block.stopped,end.started,end_text.started,key_resp_7.started,end.stopped,key_resp_7.keys,key_resp_7.rt,key_resp_7.duration,debriefing.started,debrief_form.started,end_debrief.started,debriefing.stopped,end_debrief.keys,end_debrief.rt,end_debrief.duration,participant,computer,date,expName,psychopyVersion,frameRate,expStart,
,,,,,,,,,,,,,,,,,,,,,,,,,,,,,,,0.015453577041625977,0.042131900787353516,0.042131900787353516,0.042131900787353516,0.014931440353393555,10.617498397827148,1,[10.573942184448242],[10.573953628540039],0,,,[-74.0],[-516.0],[1],[0],[0],[10.601515531539917],['agree_button'],,,,,,,,,,,,,,,,,,,,,,,,,,,,,,,,,,,,,,,,,,,,,,,,,,,,,,,,,,,,,,,,,,,,,,,,,,,,,,,,,,,,,,,,,,,,,,,,,,,,,,,,,,,226,3,2025-03-10_13h25.03.802,comp,2024.2.4,61.22249274549988,2025-03-10 13h25.41.984271 -0400,
,,,,,,,,,,,,,,,,,,,,,,,,,,,,,,,,,,,,,,,,,,,,,,,,,,10.617763757705688,10.617798328399658,,,,,,,,,,,,,,,,,,,,,,,,,,,,,,,,,,,,,,,,,,,,,,,,,,,,,,,,,,,,,,,,,,,,,,,,,,,,,,,,,,,,,,,,,,,,,,,,,,,,,,,,,226,3,2025-03-10_13h25.03.802,comp,2024.2.4,61.22249274549988,2025-03-10 13h25.41.984271 -0400,
,,,,,,,,,,,,,,,,,,,,,,,,,,,,,,,,,,,,,,,,,,,,,,,,,,,,10.617821455001831,10.631431579589844,12.627187013626099,,,,,,,,,,,,,,,,,,,,,,,,,,,,,,,,,,,,,,,,,,,,,,,,,,,,,,,,,,,,,,,,,,,,,,,,,,,,,,,,,,,,,,,,,,,,,,,,,,,,,,226,3,2025-03-10_13h25.03.802,comp,2024.2.4,61.22249274549988,2025-03-10 13h25.41.984271 -0400,
0,0,0,,,,,,,,,,,,,,,0,0,0,0,,,,,,,,,12.64439868927002,,,,,,,,,,,,,,,,,,,,,,,,,,12.627732038497925,12.64439868927002,12.64439868927002,14.127221584320068,16.911861658096313,space,2.7780849933624268,None,16.911943197250366,16.92777681350708,16.92777681350708,18.42714786529541,22.06159496307373,space,3.6167047023773193,None,22.06167769432068,22.083455085754395,22.083455085754395,22.083455085754395,22.083455085754395,22.083455085754395,22.083455085754395,22.083455085754395,22.083455085754395,22.083455085754395,23.56084179878235,28.9620041847229,space,5.383864164352417,None,28.962111473083496,28.977491855621338,28.977491855621338,28.977491855621338,30.47723412513733,35.244778633117676,space,4.749537467956543,None,35.2448627948761,35.26043629646301,35.26043629646301,36.76025676727295,37.22864294052124,space,0.45604753494262695,None,37.22875499725342,37.24366283416748,37.24366283416748,38.67820906639099,space,1.43070650100708,None,,,,,,,,,,,,,,,,,,,,,,,,,,,,,,,,,,,,,,,,,,,,,,,226,3,2025-03-10_13h25.03.802,comp,2024.2.4,61.22249274549988,2025-03-10 13h25.41.984271 -0400,
0,0,0,filler_random,None,None,None,None,None,None,None,None,None,None,2,1.9480962753295898,None,,,,,0,0,0,0,0,0,0,163,38.74102830886841,,,,,,,,,,,,,,,,,,,,,,,,,,,,,,,,,,,,,,,,,,,,,,,,,,,,,,,,,,,,,,,,,,,,,,,,,,,,,,,,,128.00075919810075,135.7867074460873,181.3400706270969,179.68531245996002,138.0579378737475,108.91487051902675,1.0,1.1,-734,266,-480,250,-240,260,38.727404832839966,38.727452754974365,38.72963333129883,38.74102830886841,38.88066220283508,38.88066220283508,38.88066220283508,38.88066220283508,38.88066220283508,38.88066220283508,38.88066220283508,40.695109605789185,2,1.9480962753295898,None,,,,,,,,,,,,,,,,,,226,3,2025-03-10_13h25.03.802,comp,2024.2.4,61.22249274549988,2025-03-10 13h25.41.984271 -0400,
1,1,0,critical,hdw,35.0,2.1,lower,133.0,57.0,70.0,70.0,57.0,133.0,3,3.3633737564086914,None,,,,,0,0,0,0,0,1,1,44,40.71097803115845,,,,,,,,,,,,,,,,,,,,,,,,,,,,,,,,,,,,,,,,,,,,,,,,,,,,,,,,,,,,,,,,,,,,,,,,,,,,,,,,,133.0,57.0,70.0,70.0,57.0,133.0,2.1,2.12,-160,-260,0,-277,198,251,40.69589638710022,40.69593524932861,40.6980082988739,40.71097803115845,40.86039686203003,40.86039686203003,40.86039686203003,40.86039686203003,40.86039686203003,40.86039686203003,40.86039686203003,44.07838249206543,3,3.3633737564086914,None,,,,,,,,,,,,,,,,,,226,3,2025-03-10_13h25.03.802,comp,2024.2.4,61.22249274549988,2025-03-10 13h25.41.984271 -0400,
2,2,0,filler_square,None,None,None,None,None,None,None,None,None,None,3,1.6273472309112549,None,,,,,0,0,0,0,0,2,2,177,44.093841791152954,,,,,,,,,,,,,,,,,,,,,,,,,,,,,,,,,,,,,,,,,,,,,,,,,,,,,,,,,,,,,,,,,,,,,,,,,,,,,,,,,77.99498538770185,64.25348004062313,76.77574223391588,79.23703493601226,99.56311365507858,99.56311365507858,1.0,1.3,312,-260,480,-275,665,-277,44.07928228378296,44.07932162284851,44.08129119873047,44.093841791152954,44.24416255950928,44.24416255950928,44.24416255950928,44.24416255950928,44.24416255950928,44.24416255950928,44.24416255950928,45.7282772064209,3,1.6273472309112549,None,,,,,,,,,,,,,,,,,,226,3,2025-03-10_13h25.03.802,comp,2024.2.4,61.22249274549988,2025-03-10 13h25.41.984271 -0400,
3,3,0,critical,hdw,20.0,1.0,upper,200.0,125.0,141.0,141.0,125.0,200.0,3,2.441519021987915,None,,,,,0,0,0,0,0,3,3,115,45.74389672279358,,,,,,,,,,,,,,,,,,,,,,,,,,,,,,,,,,,,,,,,,,,,,,,,,,,,,,,,,,,,,,,,,,,,,,,,,,,,,,,,,200.0,125.0,141.0,141.0,125.0,200.0,1.0,1.2,-229,-5,0,-12,266,18,45.729029178619385,45.72906970977783,45.73138499259949,45.74389672279358,45.89391088485718,45.89391088485718,45.89391088485718,45.89391088485718,45.89391088485718,45.89391088485718,45.89391088485718,48.19513487815857,3,2.441519021987915,None,,,,,,,,,,,,,,,,,,226,3,2025-03-10_13h25.03.802,comp,2024.2.4,61.22249274549988,2025-03-10 13h25.41.984271 -0400,
4,4,0,critical,hdw,20.0,2.1,upper,200.0,125.0,141.0,141.0,125.0,200.0,1,3.3912413120269775,None,,,,,0,0,0,0,0,4,4,47,48.2104856967926,,,,,,,,,,,,,,,,,,,,,,,,,,,,,,,,,,,,,,,,,,,,,,,,,,,,,,,,,,,,,,,,,,,,,,,,,,,,,,,,,200.0,125.0,141.0,141.0,125.0,200.0,2.1,2.12,-229,-251,0,-282,266,290,48.19592523574829,48.19596552848816,48.198044776916504,48.2104856967926,48.360801458358765,48.360801458358765,48.360801458358765,48.360801458358765,48.360801458358765,48.360801458358765,48.360801458358765,51.61166191101074,1,3.3912413120269775,None,,,,,,,,,,,,,,,,,,226,3,2025-03-10_13h25.03.802,comp,2024.2.4,61.22249274549988,2025-03-10 13h25.41.984271 -0400,
5,5,0,critical,dhw,20.0,2.1,upper,141.0,141.0,200.0,125.0,125.0,200.0,1,2.5420660972595215,None,,,,,0,0,0,0,0,5,5,3,51.62714242935181,,,,,,,,,,,,,,,,,,,,,,,,,,,,,,,,,,,,,,,,,,,,,,,,,,,,,,,,,,,,,,,,,,,,,,,,,,,,,,,,,141.0,141.0,200.0,125.0,125.0,200.0,2.1,2.12,-229,-256,0,-259,258,251,51.61247897148132,51.6125214099884,51.61506152153015,51.62714242935181,51.77717995643616,51.77717995643616,51.77717995643616,51.77717995643616,51.77717995643616,51.77717995643616,51.77717995643616,54.17835474014282,1,2.5420660972595215,None,,,,,,,,,,,,,,,,,,226,3,2025-03-10_13h25.03.802,comp,2024.2.4,61.22249274549988,2025-03-10 13h25.41.984271 -0400,
6,6,0,critical,dwh,35.0,4.0,lower,70.0,70.0,57.0,133.0,133.0,57.0,1,4.991488218307495,None,,,,,0,0,0,0,0,6,6,64,54.19385123252869,,,,,,,,,,,,,,,,,,,,,,,,,,,,,,,,,,,,,,,,,,,,,,,,,,,,,,,,,,,,,,,,,,,,,,,,,,,,,,,,,70.0,70.0,57.0,133.0,133.0,57.0,4.0,4.2,-198,19,0,-271,191,-20,54.17914271354675,54.179184436798096,54.18126058578491,54.19385123252869,54.343780517578125,54.343780517578125,54.343780517578125,54.343780517578125,54.343780517578125,54.343780517578125,54.343780517578125,59.19470715522766,1,4.991488218307495,None,,,,,,,,,,,,,,,,,,226,3,2025-03-10_13h25.03.802,comp,2024.2.4,61.22249274549988,2025-03-10 13h25.41.984271 -0400,
7,7,0,filler_square,None,None,None,None,None,None,None,None,None,None,1,2.3019566535949707,None,,,,,0,0,0,0,0,7,7,196,59.21039009094238,,,,,,,,,,,,,,,,,,,,,,,,,,,,,,,,,,,,,,,,,,,,,,,,,,,,,,,,,,,,,,,,,,,,,,,,,,,,,,,,,95.73367568759389,95.73367568759389,68.25013140760872,70.51682907984107,93.01746709431283,83.57769743326021,4.0,4.2,-179,-13,0,-257,173,-5,59.19560670852661,59.195645332336426,59.197635889053345,59.21039009094238,59.36029028892517,59.36029028892517,59.36029028892517,59.36029028892517,59.36029028892517,59.36029028892517,59.36029028892517,61.528016328811646,1,2.3019566535949707,None,,,,,,,,,,,,,,,,,,226,3,2025-03-10_13h25.03.802,comp,2024.2.4,61.22249274549988,2025-03-10 13h25.41.984271 -0400,
8,8,0,critical,wdh,20.0,4.0,upper,125.0,200.0,141.0,141.0,200.0,125.0,1,1.977571725845337,None,,,,,0,0,0,0,0,8,8,83,61.5434193611145,,,,,,,,,,,,,,,,,,,,,,,,,,,,,,,,,,,,,,,,,,,,,,,,,,,,,,,,,,,,,,,,,,,,,,,,,,,,,,,,,125.0,200.0,141.0,141.0,200.0,125.0,4.0,4.1,-266,-255,0,-16,229,-259,61.52881908416748,61.52885842323303,61.530876874923706,61.5434193611145,61.69404649734497,61.69404649734497,61.69404649734497,61.69404649734497,61.69404649734497,61.69404649734497,61.69404649734497,63.52826476097107,1,1.977571725845337,None,,,,,,,,,,,,,,,,,,226,3,2025-03-10_13h25.03.802,comp,2024.2.4,61.22249274549988,2025-03-10 13h25.41.984271 -0400,
9,9,0,critical,hdw,35.0,3.0,upper,200.0,125.0,127.0,127.0,125.0,200.0,3,3.6883482933044434,None,,,,,0,0,0,0,0,9,9,111,63.5436532497406,,,,,,,,,,,,,,,,,,,,,,,,,,,,,,,,,,,,,,,,,,,,,,,,,,,,,,,,,,,,,,,,,,,,,,,,,,,,,,,,,200.0,125.0,127.0,127.0,125.0,200.0,3.0,3.1,-222,255,0,-14,260,-252,63.52902030944824,63.52906131744385,63.53127837181091,63.5436532497406,63.69379258155823,63.69379258155823,63.69379258155823,63.69379258155823,63.69379258155823,63.69379258155823,63.69379258155823,67.24571871757507,3,3.6883482933044434,None,,,,,,,,,,,,,,,,,,226,3,2025-03-10_13h25.03.802,comp,2024.2.4,61.22249274549988,2025-03-10 13h25.41.984271 -0400,
10,10,0,filler_square,None,None,None,None,None,None,None,None,None,None,1,1.148491382598877,None,,,,,0,0,0,0,0,10,10,197,67.26197838783264,,,,,,,,,,,,,,,,,,,,,,,,,,,,,,,,,,,,,,,,,,,,,,,,,,,,,,,,,,,,,,,,,,,,,,,,,,,,,,,,,189.21376271450586,189.21376271450586,109.17065310473528,161.17657044225535,151.9824842946977,87.1431674103818,3.0,3.1,-271,261,0,-15,220,-261,67.24701976776123,67.24706602096558,67.24989628791809,67.26197838783264,67.41059255599976,67.41059255599976,67.41059255599976,67.41059255599976,67.41059255599976,67.41059255599976,67.41059255599976,68.42820453643799,1,1.148491382598877,None,,,,,,,,,,,,,,,,,,226,3,2025-03-10_13h25.03.802,comp,2024.2.4,61.22249274549988,2025-03-10 13h25.41.984271 -0400,
11,11,0,filler_random,None,None,None,None,None,None,None,None,None,None,2,1.5581905841827393,None,,,,,0,0,0,0,0,11,11,138,68.44339156150818,,,,,,,,,,,,,,,,,,,,,,,,,,,,,,,,,,,,,,,,,,,,,,,,,,,,,,,,,,,,,,,,,,,,,,,,,,,,,,,,,102.95697436952429,69.85689554465796,125.32661854124565,102.47454141279127,147.68581672714657,65.95854801730906,1.0,1.3,298,-286,480,-262,660,-253,68.42914938926697,68.429190158844,68.43240928649902,68.44339156150818,68.59348821640015,68.59348821640015,68.59348821640015,68.59348821640015,68.59348821640015,68.59348821640015,68.59348821640015,70.01146221160889,2,1.5581905841827393,None,,,,,,,,,,,,,,,,,,226,3,2025-03-10_13h25.03.802,comp,2024.2.4,61.22249274549988,2025-03-10 13h25.41.984271 -0400,
12,12,0,critical,whd,20.0,2.1,lower,57.0,133.0,133.0,57.0,78.0,78.0,3,3.677814245223999,None,,,,,0,0,0,0,0,12,12,38,70.02704620361328,,,,,,,,,,,,,,,,,,,,,,,,,,,,,,,,,,,,,,,,,,,,,,,,,,,,,,,,,,,,,,,,,,,,,,,,,,,,,,,,,57.0,133.0,133.0,57.0,78.0,78.0,2.1,2.12,-191,-271,0,-260,164,264,70.01227688789368,70.01231741905212,70.0143895149231,70.02704620361328,70.17713761329651,70.17713761329651,70.17713761329651,70.17713761329651,70.17713761329651,70.17713761329651,70.17713761329651,73.71128821372986,3,3.677814245223999,None,,,,,,,,,,,,,,,,,,226,3,2025-03-10_13h25.03.802,comp,2024.2.4,61.22249274549988,2025-03-10 13h25.41.984271 -0400,
13,13,0,critical,whd,20.0,1.0,lower,57.0,133.0,133.0,57.0,78.0,78.0,1,1.074260950088501,None,,,,,0,0,0,0,0,13,13,90,73.72706437110901,,,,,,,,,,,,,,,,,,,,,,,,,,,,,,,,,,,,,,,,,,,,,,,,,,,,,,,,,,,,,,,,,,,,,,,,,,,,,,,,,57.0,133.0,133.0,57.0,78.0,78.0,1.0,1.2,-191,1,0,-2,164,12,73.71205830574036,73.71211194992065,73.71446514129639,73.72706437110901,73.87692523002625,73.87692523002625,73.87692523002625,73.87692523002625,73.87692523002625,73.87692523002625,73.87692523002625,74.81113839149475,1,1.074260950088501,None,,,,,,,,,,,,,,,,,,226,3,2025-03-10_13h25.03.802,comp,2024.2.4,61.22249274549988,2025-03-10 13h25.41.984271 -0400,
14,14,0,filler_random,None,None,None,None,None,None,None,None,None,None,1,1.1508615016937256,None,,,,,0,0,0,0,0,14,14,148,74.82694625854492,,,,,,,,,,,,,,,,,,,,,,,,,,,,,,,,,,,,,,,,,,,,,,,,,,,,,,,,,,,,,,,,,,,,,,,,,,,,,,,,,186.77943686392743,197.09555866468372,177.26016759282336,142.3960302742974,62.76549923329632,164.09081552316292,2.1,2.12,-266,-258,0,-286,249,288,74.81211638450623,74.8121588230133,74.81452202796936,74.82694625854492,74.97711777687073,74.97711777687073,74.97711777687073,74.97711777687073,74.97711777687073,74.97711777687073,74.97711777687073,75.99482536315918,1,1.1508615016937256,None,,,,,,,,,,,,,,,,,,226,3,2025-03-10_13h25.03.802,comp,2024.2.4,61.22249274549988,2025-03-10 13h25.41.984271 -0400,
15,15,0,critical,whd,20.0,4.0,upper,125.0,200.0,200.0,125.0,141.0,141.0,1,0.28612613677978516,None,,,,,0,0,0,0,0,15,15,95,76.01001644134521,,,,,,,,,,,,,,,,,,,,,,,,,,,,,,,,,,,,,,,,,,,,,,,,,,,,,,,,,,,,,,,,,,,,,,,,,,,,,,,,,125.0,200.0,200.0,125.0,141.0,141.0,4.0,4.1,-258,-253,0,-3,229,-282,75.99561095237732,75.9956476688385,75.99814200401306,76.01001644134521,76.16052389144897,76.16052389144897,76.16052389144897,76.16052389144897,76.16052389144897,76.16052389144897,76.16052389144897,76.31164264678955,1,0.28612613677978516,None,,,,,,,,,,,,,,,,,,226,3,2025-03-10_13h25.03.802,comp,2024.2.4,61.22249274549988,2025-03-10 13h25.41.984271 -0400,
16,16,0,critical,dhw,35.0,2.1,upper,127.0,127.0,200.0,125.0,125.0,200.0,3,2.137979745864868,None,,,,,0,0,0,0,0,16,16,1,76.32677221298218,,,,,,,,,,,,,,,,,,,,,,,,,,,,,,,,,,,,,,,,,,,,,,,,,,,,,,,,,,,,,,,,,,,,,,,,,,,,,,,,,127.0,127.0,200.0,125.0,125.0,200.0,2.1,2.12,-222,-277,0,-285,258,273,76.31273126602173,76.31277227401733,76.31490111351013,76.32677221298218,76.47705817222595,76.47705817222595,76.47705817222595,76.47705817222595,76.47705817222595,76.47705817222595,76.47705817222595,78.47815918922424,3,2.137979745864868,None,,,,,,,,,,,,,,,,,,226,3,2025-03-10_13h25.03.802,comp,2024.2.4,61.22249274549988,2025-03-10 13h25.41.984271 -0400,
17,17,0,filler_random,None,None,None,None,None,None,None,None,None,None,2,2.2595503330230713,None,,,,,0,0,0,0,0,17,17,143,78.49347591400146,,,,,,,,,,,,,,,,,,,,,,,,,,,,,,,,,,,,,,,,,,,,,,,,,,,,,,,,,,,,,,,,,,,,,,,,,,,,,,,,,179.27613074671484,85.32033621437827,115.12390168348371,116.18925082196279,134.7430668453593,65.30063092347244,2.1,2.11,-197,286,0,258,187,-285,78.47902703285217,78.47906541824341,78.48229217529297,78.49347591400146,78.64387321472168,78.64387321472168,78.64387321472168,78.64387321472168,78.64387321472168,78.64387321472168,78.64387321472168,80.76125836372375,2,2.2595503330230713,None,,,,,,,,,,,,,,,,,,226,3,2025-03-10_13h25.03.802,comp,2024.2.4,61.22249274549988,2025-03-10 13h25.41.984271 -0400,
18,18,0,critical,dwh,35.0,1.0,upper,127.0,127.0,125.0,200.0,200.0,125.0,2,1.4390323162078857,None,,,,,0,0,0,0,0,18,18,61,80.7768669128418,,,,,,,,,,,,,,,,,,,,,,,,,,,,,,,,,,,,,,,,,,,,,,,,,,,,,,,,,,,,,,,,,,,,,,,,,,,,,,,,,127.0,127.0,125.0,200.0,200.0,125.0,1.0,1.2,-260,-13,0,-3,258,-19,80.76200771331787,80.76204872131348,80.76536345481873,80.7768669128418,80.92689871788025,80.92689871788025,80.92689871788025,80.92689871788025,80.92689871788025,80.92689871788025,80.92689871788025,82.22814798355103,2,1.4390323162078857,None,,,,,,,,,,,,,,,,,,226,3,2025-03-10_13h25.03.802,comp,2024.2.4,61.22249274549988,2025-03-10 13h25.41.984271 -0400,
19,19,0,critical,hdw,20.0,3.0,upper,200.0,125.0,141.0,141.0,125.0,200.0,2,1.2776787281036377,None,,,,,0,0,0,0,0,19,19,117,82.24331140518188,,,,,,,,,,,,,,,,,,,,,,,,,,,,,,,,,,,,,,,,,,,,,,,,,,,,,,,,,,,,,,,,,,,,,,,,,,,,,,,,,200.0,125.0,141.0,141.0,125.0,200.0,3.0,3.1,-229,265,0,-9,266,-272,82.22891497612,82.22895288467407,82.2309935092926,82.24331140518188,82.39356732368469,82.39356732368469,82.39356732368469,82.39356732368469,82.39356732368469,82.39356732368469,82.39356732368469,83.5282552242279,2,1.2776787281036377,None,,,,,,,,,,,,,,,,,,226,3,2025-03-10_13h25.03.802,comp,2024.2.4,61.22249274549988,2025-03-10 13h25.41.984271 -0400,
20,20,0,filler_square,None,None,None,None,None,None,None,None,None,None,1,1.329573631286621,None,,,,,0,0,0,0,0,20,20,181,83.54363751411438,,,,,,,,,,,,,,,,,,,,,,,,,,,,,,,,,,,,,,,,,,,,,,,,,,,,,,,,,,,,,,,,,,,,,,,,,,,,,,,,,186.84434028986496,186.84434028986496,170.74361331855312,132.88148460137728,72.9466199819793,164.88151488377304,1.0,1.3,224,-284,480,-258,725,-287,83.52921199798584,83.52925276756287,83.53133916854858,83.54363751411438,83.69359874725342,83.69359874725342,83.69359874725342,83.69359874725342,83.69359874725342,83.69359874725342,83.69359874725342,84.87824964523315,1,1.329573631286621,None,,,,,,,,,,,,,,,,,,226,3,2025-03-10_13h25.03.802,comp,2024.2.4,61.22249274549988,2025-03-10 13h25.41.984271 -0400,
21,21,0,critical,hwd,35.0,4.0,lower,133.0,57.0,57.0,133.0,70.0,70.0,1,2.434549331665039,None,,,,,0,0,0,0,0,21,21,100,84.89347314834595,,,,,,,,,,,,,,,,,,,,,,,,,,,,,,,,,,,,,,,,,,,,,,,,,,,,,,,,,,,,,,,,,,,,,,,,,,,,,,,,,133.0,57.0,57.0,133.0,70.0,70.0,4.0,4.1,-191,-271,0,-9,198,-284,84.87903141975403,84.87907314300537,84.88139247894287,84.89347314834595,85.04338240623474,85.04338240623474,85.04338240623474,85.04338240623474,85.04338240623474,85.04338240623474,85.04338240623474,87.3446352481842,1,2.434549331665039,None,,,,,,,,,,,,,,,,,,226,3,2025-03-10_13h25.03.802,comp,2024.2.4,61.22249274549988,2025-03-10 13h25.41.984271 -0400,
22,22,0,critical,hdw,35.0,4.0,lower,133.0,57.0,70.0,70.0,57.0,133.0,2,4.008816957473755,None,,,,,0,0,0,0,0,22,22,112,87.35999131202698,,,,,,,,,,,,,,,,,,,,,,,,,,,,,,,,,,,,,,,,,,,,,,,,,,,,,,,,,,,,,,,,,,,,,,,,,,,,,,,,,133.0,57.0,70.0,70.0,57.0,133.0,4.0,4.2,-160,16,0,-274,198,-18,87.34544444084167,87.34548425674438,87.34792137145996,87.35999131202698,87.51018857955933,87.51018857955933,87.51018857955933,87.51018857955933,87.51018857955933,87.51018857955933,87.51018857955933,91.37774157524109,2,4.008816957473755,None,,,,,,,,,,,,,,,,,,226,3,2025-03-10_13h25.03.802,comp,2024.2.4,61.22249274549988,2025-03-10 13h25.41.984271 -0400,
23,23,0,filler_square,None,None,None,None,None,None,None,None,None,None,3,3.3668367862701416,None,,,,,0,0,0,0,0,23,23,200,91.39344120025635,,,,,,,,,,,,,,,,,,,,,,,,,,,,,,,,,,,,,,,,,,,,,,,,,,,,,,,,,,,,,,,,,,,,,,,,,,,,,,,,,65.66517770033035,62.802511169331964,61.72390203937877,62.00188784428385,66.2817966232442,66.2817966232442,2.1,2.12,-158,-262,0,-289,160,280,91.37872266769409,91.3787636756897,91.38134217262268,91.39344120025635,91.54330348968506,91.54330348968506,91.54330348968506,91.54330348968506,91.54330348968506,91.54330348968506,91.54330348968506,94.76147961616516,3,3.3668367862701416,None,,,,,,,,,,,,,,,,,,226,3,2025-03-10_13h25.03.802,comp,2024.2.4,61.22249274549988,2025-03-10 13h25.41.984271 -0400,
24,24,0,critical,wdh,20.0,4.0,lower,57.0,133.0,78.0,78.0,133.0,57.0,2,2.0083329677581787,None,,,,,0,0,0,0,0,24,24,82,94.77683162689209,,,,,,,,,,,,,,,,,,,,,,,,,,,,,,,,,,,,,,,,,,,,,,,,,,,,,,,,,,,,,,,,,,,,,,,,,,,,,,,,,57.0,133.0,78.0,78.0,133.0,57.0,4.0,4.1,-202,-285,0,16,164,-257,94.7622938156128,94.76233434677124,94.7647008895874,94.77683162689209,94.9268250465393,94.9268250465393,94.9268250465393,94.9268250465393,94.9268250465393,94.9268250465393,94.9268250465393,96.79438591003418,2,2.0083329677581787,None,,,,,,,,,,,,,,,,,,226,3,2025-03-10_13h25.03.802,comp,2024.2.4,61.22249274549988,2025-03-10 13h25.41.984271 -0400,
25,25,0,critical,wdh,20.0,2.1,upper,125.0,200.0,141.0,141.0,200.0,125.0,3,1.8163402080535889,None,,,,,0,0,0,0,0,25,25,11,96.8101098537445,,,,,,,,,,,,,,,,,,,,,,,,,,,,,,,,,,,,,,,,,,,,,,,,,,,,,,,,,,,,,,,,,,,,,,,,,,,,,,,,,125.0,200.0,141.0,141.0,200.0,125.0,2.1,2.12,-266,-260,0,-290,229,264,96.79518389701843,96.79522347450256,96.79760384559631,96.8101098537445,96.96023964881897,96.96023964881897,96.96023964881897,96.96023964881897,96.96023964881897,96.96023964881897,96.96023964881897,98.62835383415222,3,1.8163402080535889,None,,,,,,,,,,,,,,,,,,226,3,2025-03-10_13h25.03.802,comp,2024.2.4,61.22249274549988,2025-03-10 13h25.41.984271 -0400,
26,26,0,critical,hdw,35.0,1.0,upper,200.0,125.0,127.0,127.0,125.0,200.0,1,1.5722148418426514,None,,,,,0,0,0,0,0,26,26,109,98.64360189437866,,,,,,,,,,,,,,,,,,,,,,,,,,,,,,,,,,,,,,,,,,,,,,,,,,,,,,,,,,,,,,,,,,,,,,,,,,,,,,,,,200.0,125.0,127.0,127.0,125.0,200.0,1.0,1.3,258,-268,480,-267,740,-265,98.62917900085449,98.62921953201294,98.63128566741943,98.64360189437866,98.79354882240295,98.79354882240295,98.79354882240295,98.79354882240295,98.79354882240295,98.79354882240295,98.79354882240295,100.22838687896729,1,1.5722148418426514,None,,,,,,,,,,,,,,,,,,226,3,2025-03-10_13h25.03.802,comp,2024.2.4,61.22249274549988,2025-03-10 13h25.41.984271 -0400,
27,27,0,critical,wdh,35.0,3.0,upper,125.0,200.0,127.0,127.0,200.0,125.0,3,2.9504473209381104,None,,,,,0,0,0,0,0,27,27,75,100.24326252937317,,,,,,,,,,,,,,,,,,,,,,,,,,,,,,,,,,,,,,,,,,,,,,,,,,,,,,,,,,,,,,,,,,,,,,,,,,,,,,,,,125.0,200.0,127.0,127.0,200.0,125.0,3.0,3.1,-260,271,0,-18,222,-280,100.22917318344116,100.22921299934387,100.23130440711975,100.24326252937317,100.39348816871643,100.39348816871643,100.39348816871643,100.39348816871643,100.39348816871643,100.39348816871643,100.39348816871643,103.21125149726868,3,2.9504473209381104,None,,,,,,,,,,,,,,,,,,226,3,2025-03-10_13h25.03.802,comp,2024.2.4,61.22249274549988,2025-03-10 13h25.41.984271 -0400,
28,28,0,filler_random,None,None,None,None,None,None,None,None,None,None,2,1.878115177154541,None,,,,,0,0,0,0,0,28,28,158,103.2265031337738,,,,,,,,,,,,,,,,,,,,,,,,,,,,,,,,,,,,,,,,,,,,,,,,,,,,,,,,,,,,,,,,,,,,,,,,,,,,,,,,,183.94567588211254,90.34900783281051,169.1391667487725,117.79701973141546,126.86472971209521,61.92936209227546,3.0,3.1,-200,257,0,-18,186,-275,103.21212220191956,103.21216058731079,103.21413326263428,103.2265031337738,103.37704253196716,103.37704253196716,103.37704253196716,103.37704253196716,103.37704253196716,103.37704253196716,103.37704253196716,105.11104154586792,2,1.878115177154541,None,,,,,,,,,,,,,,,,,,226,3,2025-03-10_13h25.03.802,comp,2024.2.4,61.22249274549988,2025-03-10 13h25.41.984271 -0400,
29,29,0,critical,hdw,20.0,3.0,lower,133.0,57.0,78.0,78.0,57.0,133.0,2,1.6418304443359375,None,,,,,0,0,0,0,0,29,29,116,105.12676453590393,,,,,,,,,,,,,,,,,,,,,,,,,,,,,,,,,,,,,,,,,,,,,,,,,,,,,,,,,,,,,,,,,,,,,,,,,,,,,,,,,133.0,57.0,78.0,78.0,57.0,133.0,3.0,3.2,-164,-279,0,17,202,290,105.11182856559753,105.11186909675598,105.11406779289246,105.12676453590393,105.27704405784607,105.27704405784607,105.27704405784607,105.27704405784607,105.27704405784607,105.27704405784607,105.27704405784607,106.77764892578125,2,1.6418304443359375,None,,,,,,,,,,,,,,,,,,226,3,2025-03-10_13h25.03.802,comp,2024.2.4,61.22249274549988,2025-03-10 13h25.41.984271 -0400,
30,30,0,filler_square,None,None,None,None,None,None,None,None,None,None,2,1.0490319728851318,None,,,,,0,0,0,0,0,30,30,171,106.79328107833862,,,,,,,,,,,,,,,,,,,,,,,,,,,,,,,,,,,,,,,,,,,,,,,,,,,,,,,,,,,,,,,,,,,,,,,,,,,,,,,,,59.62829413946028,62.41482919514177,92.41541434785145,92.41541434785145,63.09714436830447,64.53269992049705,2.2,2.21,-173,-260,0,277,174,267,106.77862358093262,106.77866244316101,106.78121614456177,106.79328107833862,106.94315695762634,106.94315695762634,106.94315695762634,106.94315695762634,106.94315695762634,106.94315695762634,106.94315695762634,107.84475517272949,2,1.0490319728851318,None,,,,,,,,,,,,,,,,,,226,3,2025-03-10_13h25.03.802,comp,2024.2.4,61.22249274549988,2025-03-10 13h25.41.984271 -0400,
31,31,0,filler_random,None,None,None,None,None,None,None,None,None,None,3,1.2044849395751953,None,,,,,0,0,0,0,0,31,31,165,107.86012005805969,,,,,,,,,,,,,,,,,,,,,,,,,,,,,,,,,,,,,,,,,,,,,,,,,,,,,,,,,,,,,,,,,,,,,,,,,,,,,,,,,63.763861606797605,93.89470590754155,196.16607149026345,93.8220681587317,191.28935627661593,148.24924068671754,2.1,2.11,-190,269,0,267,217,-268,107.84576892852783,107.84580898284912,107.84825849533081,107.86012005805969,108.01001834869385,108.01001834869385,108.01001834869385,108.01001834869385,108.01001834869385,108.01001834869385,108.01001834869385,109.07776236534119,3,1.2044849395751953,None,,,,,,,,,,,,,,,,,,226,3,2025-03-10_13h25.03.802,comp,2024.2.4,61.22249274549988,2025-03-10 13h25.41.984271 -0400,
32,32,0,critical,dhw,35.0,2.1,lower,70.0,70.0,133.0,57.0,57.0,133.0,1,3.475501537322998,None,,,,,0,0,0,0,0,32,32,0,109.09311008453369,,,,,,,,,,,,,,,,,,,,,,,,,,,,,,,,,,,,,,,,,,,,,,,,,,,,,,,,,,,,,,,,,,,,,,,,,,,,,,,,,70.0,70.0,133.0,57.0,57.0,133.0,2.1,2.11,-160,268,0,266,191,-270,109.07856583595276,109.07860469818115,109.0810661315918,109.09311008453369,109.27695679664612,109.27695679664612,109.27695679664612,109.27695679664612,109.27695679664612,109.27695679664612,109.27695679664612,112.57768774032593,1,3.475501537322998,None,,,,,,,,,,,,,,,,,,226,3,2025-03-10_13h25.03.802,comp,2024.2.4,61.22249274549988,2025-03-10 13h25.41.984271 -0400,
33,33,0,critical,wdh,35.0,2.1,upper,125.0,200.0,127.0,127.0,200.0,125.0,3,1.8078889846801758,None,,,,,0,0,0,0,0,33,33,33,112.59335017204285,,,,,,,,,,,,,,,,,,,,,,,,,,,,,,,,,,,,,,,,,,,,,,,,,,,,,,,,,,,,,,,,,,,,,,,,,,,,,,,,,125.0,200.0,127.0,127.0,200.0,125.0,2.1,2.12,-260,-262,0,-278,222,285,112.57850003242493,112.57854008674622,112.58101630210876,112.59335017204285,112.74340009689331,112.74340009689331,112.74340009689331,112.74340009689331,112.74340009689331,112.74340009689331,112.74340009689331,114.41119337081909,3,1.8078889846801758,None,,,,,,,,,,,,,,,,,,226,3,2025-03-10_13h25.03.802,comp,2024.2.4,61.22249274549988,2025-03-10 13h25.41.984271 -0400,
34,34,0,filler_random,None,None,None,None,None,None,None,None,None,None,3,2.1171324253082275,None,,,,,0,0,0,0,0,34,34,159,114.42683339118958,,,,,,,,,,,,,,,,,,,,,,,,,,,,,,,,,,,,,,,,,,,,,,,,,,,,,,,,,,,,,,,,,,,,,,,,,,,,,,,,,166.76194785526206,77.12490721910821,83.94099896533285,169.24022121698488,90.66279178337112,155.83524528785978,1.0,1.2,-219,7,0,7,259,0,114.41211104393005,114.41215109825134,114.41438364982605,114.42683339118958,114.57690358161926,114.57690358161926,114.57690358161926,114.57690358161926,114.57690358161926,114.57690358161926,114.57690358161926,116.56109809875488,3,2.1171324253082275,None,,,,,,,,,,,,,,,,,,226,3,2025-03-10_13h25.03.802,comp,2024.2.4,61.22249274549988,2025-03-10 13h25.41.984271 -0400,
35,35,0,critical,whd,20.0,2.1,upper,125.0,200.0,200.0,125.0,141.0,141.0,3,1.871347427368164,None,,,,,0,0,0,0,0,35,35,15,116.57642865180969,,,,,,,,,,,,,,,,,,,,,,,,,,,,,,,,,,,,,,,,,,,,,,,,,,,,,,,,,,,,,,,,,,,,,,,,,,,,,,,,,125.0,200.0,200.0,125.0,141.0,141.0,2.1,2.11,-258,275,0,262,229,-268,116.56190800666809,116.56194877624512,116.56400299072266,116.57642865180969,116.74346160888672,116.74346160888672,116.74346160888672,116.74346160888672,116.74346160888672,116.74346160888672,116.74346160888672,118.4611611366272,3,1.871347427368164,None,,,,,,,,,,,,,,,,,,226,3,2025-03-10_13h25.03.802,comp,2024.2.4,61.22249274549988,2025-03-10 13h25.41.984271 -0400,
36,36,0,filler_random,None,None,None,None,None,None,None,None,None,None,1,1.5813260078430176,None,,,,,0,0,0,0,0,36,36,135,118.47645020484924,,,,,,,,,,,,,,,,,,,,,,,,,,,,,,,,,,,,,,,,,,,,,,,,,,,,,,,,,,,,,,,,,,,,,,,,,,,,,,,,,125.28442953312808,196.08055421579027,167.86397849801824,69.69436033465601,199.1276781203659,132.6541732193964,1.0,1.3,251,-256,480,-287,677,-263,118.46206521987915,118.46211814880371,118.46418642997742,118.47645020484924,118.62676477432251,118.62676477432251,118.62676477432251,118.62676477432251,118.62676477432251,118.62676477432251,118.62676477432251,120.06124567985535,1,1.5813260078430176,None,,,,,,,,,,,,,,,,,,226,3,2025-03-10_13h25.03.802,comp,2024.2.4,61.22249274549988,2025-03-10 13h25.41.984271 -0400,
37,37,0,critical,hwd,20.0,2.1,lower,133.0,57.0,57.0,133.0,78.0,78.0,1,2.0835888385772705,None,,,,,0,0,0,0,0,37,37,18,120.07667708396912,,,,,,,,,,,,,,,,,,,,,,,,,,,,,,,,,,,,,,,,,,,,,,,,,,,,,,,,,,,,,,,,,,,,,,,,,,,,,,,,,133.0,57.0,57.0,133.0,78.0,78.0,2.1,2.11,-191,269,0,259,202,-289,120.06201386451721,120.06205463409424,120.0641462802887,120.07667708396912,120.22686195373535,120.22686195373535,120.22686195373535,120.22686195373535,120.22686195373535,120.22686195373535,120.22686195373535,122.17760062217712,1,2.0835888385772705,None,,,,,,,,,,,,,,,,,,226,3,2025-03-10_13h25.03.802,comp,2024.2.4,61.22249274549988,2025-03-10 13h25.41.984271 -0400,
38,38,0,critical,dhw,20.0,2.1,lower,78.0,78.0,133.0,57.0,57.0,133.0,3,2.9346423149108887,None,,,,,0,0,0,0,0,38,38,2,122.19307279586792,,,,,,,,,,,,,,,,,,,,,,,,,,,,,,,,,,,,,,,,,,,,,,,,,,,,,,,,,,,,,,,,,,,,,,,,,,,,,,,,,78.0,78.0,133.0,57.0,57.0,133.0,2.1,2.11,-164,257,0,259,191,-252,122.17841863632202,122.17845845222473,122.18095111846924,122.19307279586792,122.34317779541016,122.34317779541016,122.34317779541016,122.34317779541016,122.34317779541016,122.34317779541016,122.34317779541016,125.14428114891052,3,2.9346423149108887,None,,,,,,,,,,,,,,,,,,226,3,2025-03-10_13h25.03.802,comp,2024.2.4,61.22249274549988,2025-03-10 13h25.41.984271 -0400,
39,39,0,critical,hdw,35.0,2.1,upper,200.0,125.0,127.0,127.0,125.0,200.0,3,1.0172531604766846,None,,,,,0,0,0,0,0,39,39,45,125.15964150428772,,,,,,,,,,,,,,,,,,,,,,,,,,,,,,,,,,,,,,,,,,,,,,,,,,,,,,,,,,,,,,,,,,,,,,,,,,,,,,,,,200.0,125.0,127.0,127.0,125.0,200.0,2.1,2.12,-222,-281,0,-264,260,283,125.14521336555481,125.14525556564331,125.14758563041687,125.15964150428772,125.30994248390198,125.30994248390198,125.30994248390198,125.30994248390198,125.30994248390198,125.30994248390198,125.30994248390198,126.19443321228027,3,1.0172531604766846,None,,,,,,,,,,,,,,,,,,226,3,2025-03-10_13h25.03.802,comp,2024.2.4,61.22249274549988,2025-03-10 13h25.41.984271 -0400,
40,40,0,filler_random,None,None,None,None,None,None,None,None,None,None,2,2.2547507286071777,None,,,,,0,0,0,0,0,40,40,145,126.20968103408813,,,,,,,,,,,,,,,,,,,,,,,,,,,,,,,,,,,,,,,,,,,,,,,,,,,,,,,,,,,,,,,,,,,,,,,,,,,,,,,,,145.66052733345413,62.2140089291075,78.4782825014134,140.7806993020936,96.85870436053355,77.68598304364644,4.0,4.2,-197,-10,0,-251,205,12,126.19531488418579,126.1953535079956,126.1977162361145,126.20968103408813,126.359778881073,126.359778881073,126.359778881073,126.359778881073,126.359778881073,126.359778881073,126.359778881073,128.47776317596436,2,2.2547507286071777,None,,,,,,,,,,,,,,,,,,226,3,2025-03-10_13h25.03.802,comp,2024.2.4,61.22249274549988,2025-03-10 13h25.41.984271 -0400,
41,41,0,filler_square,None,None,None,None,None,None,None,None,None,None,1,1.0114727020263672,None,,,,,0,0,0,0,0,41,41,185,128.49302530288696,,,,,,,,,,,,,,,,,,,,,,,,,,,,,,,,,,,,,,,,,,,,,,,,,,,,,,,,,,,,,,,,,,,,,,,,,,,,,,,,,179.57927755452448,179.57927755452448,123.07382580659294,83.8349050724211,172.71211247439498,130.4094326352249,2.2,2.21,-228,-255,0,268,203,257,128.47872138023376,128.4787621498108,128.4812455177307,128.49302530288696,128.64336800575256,128.64336800575256,128.64336800575256,128.64336800575256,128.64336800575256,128.64336800575256,128.64336800575256,129.51106452941895,1,1.0114727020263672,None,,,,,,,,,,,,,,,,,,226,3,2025-03-10_13h25.03.802,comp,2024.2.4,61.22249274549988,2025-03-10 13h25.41.984271 -0400,
42,42,0,filler_random,None,None,None,None,None,None,None,None,None,None,1,1.3158423900604248,None,,,,,0,0,0,0,0,42,42,136,129.52649521827698,,,,,,,,,,,,,,,,,,,,,,,,,,,,,,,,,,,,,,,,,,,,,,,,,,,,,,,,,,,,,,,,,,,,,,,,,,,,,,,,,180.23535230014625,148.06101604984707,112.73543263150088,174.02349048305427,111.4554271190063,195.1881108357373,2.2,2.21,-257,-254,0,282,281,263,129.5119698047638,129.51201105117798,129.51417303085327,129.52649521827698,129.6766641139984,129.6766641139984,129.6766641139984,129.6766641139984,129.6766641139984,129.6766641139984,129.6766641139984,130.84447956085205,1,1.3158423900604248,None,,,,,,,,,,,,,,,,,,226,3,2025-03-10_13h25.03.802,comp,2024.2.4,61.22249274549988,2025-03-10 13h25.41.984271 -0400,
43,43,0,critical,dwh,35.0,2.1,upper,127.0,127.0,125.0,200.0,200.0,125.0,1,1.998091220855713,None,,,,,0,0,0,0,0,43,43,5,130.85983276367188,,,,,,,,,,,,,,,,,,,,,,,,,,,,,,,,,,,,,,,,,,,,,,,,,,,,,,,,,,,,,,,,,,,,,,,,,,,,,,,,,127.0,127.0,125.0,200.0,200.0,125.0,2.1,2.12,-260,-270,0,-266,258,254,130.84527850151062,130.84531831741333,130.84738898277283,130.85983276367188,131.0099220275879,131.0099220275879,131.0099220275879,131.0099220275879,131.0099220275879,131.0099220275879,131.0099220275879,132.8611900806427,1,1.998091220855713,None,,,,,,,,,,,,,,,,,,226,3,2025-03-10_13h25.03.802,comp,2024.2.4,61.22249274549988,2025-03-10 13h25.41.984271 -0400,
44,44,0,critical,dwh,20.0,2.1,upper,141.0,141.0,125.0,200.0,200.0,125.0,3,1.2190232276916504,None,,,,,0,0,0,0,0,44,44,7,132.87661004066467,,,,,,,,,,,,,,,,,,,,,,,,,,,,,,,,,,,,,,,,,,,,,,,,,,,,,,,,,,,,,,,,,,,,,,,,,,,,,,,,,141.0,141.0,125.0,200.0,200.0,125.0,2.1,2.11,-266,271,0,268,258,-265,132.86200070381165,132.86204195022583,132.86429286003113,132.87661004066467,133.02660369873047,133.02660369873047,133.02660369873047,133.02660369873047,133.02660369873047,133.02660369873047,133.02660369873047,134.11099076271057,3,1.2190232276916504,None,,,,,,,,,,,,,,,,,,226,3,2025-03-10_13h25.03.802,comp,2024.2.4,61.22249274549988,2025-03-10 13h25.41.984271 -0400,
45,45,0,critical,hdw,35.0,2.1,lower,133.0,57.0,70.0,70.0,57.0,133.0,3,2.515632390975952,None,,,,,0,0,0,0,0,45,45,20,134.12626218795776,,,,,,,,,,,,,,,,,,,,,,,,,,,,,,,,,,,,,,,,,,,,,,,,,,,,,,,,,,,,,,,,,,,,,,,,,,,,,,,,,133.0,57.0,70.0,70.0,57.0,133.0,2.1,2.11,-160,256,0,258,198,-288,134.11179184913635,134.11182951927185,134.11403584480286,134.12626218795776,134.2765703201294,134.2765703201294,134.2765703201294,134.2765703201294,134.2765703201294,134.2765703201294,134.2765703201294,136.64436078071594,3,2.515632390975952,None,,,,,,,,,,,,,,,,,,226,3,2025-03-10_13h25.03.802,comp,2024.2.4,61.22249274549988,2025-03-10 13h25.41.984271 -0400,
46,46,0,critical,hwd,20.0,3.0,lower,133.0,57.0,57.0,133.0,78.0,78.0,3,2.387908697128296,None,,,,,0,0,0,0,0,46,46,104,136.65981578826904,,,,,,,,,,,,,,,,,,,,,,,,,,,,,,,,,,,,,,,,,,,,,,,,,,,,,,,,,,,,,,,,,,,,,,,,,,,,,,,,,133.0,57.0,57.0,133.0,78.0,78.0,3.0,3.1,-191,275,0,16,202,-259,136.64514303207397,136.64518308639526,136.64729166030884,136.65981578826904,136.80991220474243,136.80991220474243,136.80991220474243,136.80991220474243,136.80991220474243,136.80991220474243,136.80991220474243,139.06086468696594,3,2.387908697128296,None,,,,,,,,,,,,,,,,,,226,3,2025-03-10_13h25.03.802,comp,2024.2.4,61.22249274549988,2025-03-10 13h25.41.984271 -0400,
47,47,0,critical,dwh,20.0,1.0,upper,141.0,141.0,125.0,200.0,200.0,125.0,3,1.219407558441162,None,,,,,0,0,0,0,0,47,47,67,139.0762267112732,,,,,,,,,,,,,,,,,,,,,,,,,,,,,,,,,,,,,,,,,,,,,,,,,,,,,,,,,,,,,,,,,,,,,,,,,,,,,,,,,141.0,141.0,125.0,200.0,200.0,125.0,1.0,1.2,-266,11,0,-18,258,9,139.06165075302124,139.06169080734253,139.06419849395752,139.0762267112732,139.22703742980957,139.22703742980957,139.22703742980957,139.22703742980957,139.22703742980957,139.22703742980957,139.22703742980957,140.31101536750793,3,1.219407558441162,None,,,,,,,,,,,,,,,,,,226,3,2025-03-10_13h25.03.802,comp,2024.2.4,61.22249274549988,2025-03-10 13h25.41.984271 -0400,
48,48,0,critical,dwh,20.0,4.0,upper,141.0,141.0,125.0,200.0,200.0,125.0,3,1.234055757522583,None,,,,,0,0,0,0,0,48,48,71,140.32624864578247,,,,,,,,,,,,,,,,,,,,,,,,,,,,,,,,,,,,,,,,,,,,,,,,,,,,,,,,,,,,,,,,,,,,,,,,,,,,,,,,,141.0,141.0,125.0,200.0,200.0,125.0,4.0,4.2,-266,2,0,-273,258,19,140.31189680099487,140.31193590164185,140.3143937587738,140.32624864578247,140.47664546966553,140.47664546966553,140.47664546966553,140.47664546966553,140.47664546966553,140.47664546966553,140.47664546966553,141.57770705223083,3,1.234055757522583,None,,,,,,,,,,,,,,,,,,226,3,2025-03-10_13h25.03.802,comp,2024.2.4,61.22249274549988,2025-03-10 13h25.41.984271 -0400,
49,49,0,filler_random,None,None,None,None,None,None,None,None,None,None,1,0.9434792995452881,None,,,,,0,0,0,0,0,49,49,160,141.59299206733704,,,,,,,,,,,,,,,,,,,,,,,,,,,,,,,,,,,,,,,,,,,,,,,,,,,,,,,,,,,,,,,,,,,,,,,,,,,,,,,,,140.09266133932442,174.5816112898744,195.72976560407864,62.425557317681346,152.43307812964335,93.92340891818543,3.0,3.1,-215,283,0,-16,174,-283,141.57862305641174,141.57866287231445,141.58104419708252,141.59299206733704,141.74332070350647,141.74332070350647,141.74332070350647,141.74332070350647,141.74332070350647,141.74332070350647,141.74332070350647,142.54433631896973,1,0.9434792995452881,None,,,,,,,,,,,,,,,,,,226,3,2025-03-10_13h25.03.802,comp,2024.2.4,61.22249274549988,2025-03-10 13h25.41.984271 -0400,
50,50,0,critical,whd,20.0,1.0,upper,125.0,200.0,200.0,125.0,141.0,141.0,1,1.1197295188903809,None,,,,,0,0,0,0,0,50,50,91,142.55999207496643,,,,,,,,,,,,,,,,,,,,,,,,,,,,,,,,,,,,,,,,,,,,,,,,,,,,,,,,,,,,,,,,,,,,,,,,,,,,,,,,,125.0,200.0,200.0,125.0,141.0,141.0,1.0,1.1,-738,262,-480,269,-251,285,142.54513502120972,142.545175075531,142.54724287986755,142.55999207496643,142.70986986160278,142.70986986160278,142.70986986160278,142.70986986160278,142.70986986160278,142.70986986160278,142.70986986160278,143.694322347641,1,1.1197295188903809,None,,,,,,,,,,,,,,,,,,226,3,2025-03-10_13h25.03.802,comp,2024.2.4,61.22249274549988,2025-03-10 13h25.41.984271 -0400,
51,51,0,critical,hdw,35.0,4.0,upper,200.0,125.0,127.0,127.0,125.0,200.0,1,1.385955810546875,None,,,,,0,0,0,0,0,51,51,113,143.70957922935486,,,,,,,,,,,,,,,,,,,,,,,,,,,,,,,,,,,,,,,,,,,,,,,,,,,,,,,,,,,,,,,,,,,,,,,,,,,,,,,,,200.0,125.0,127.0,127.0,125.0,200.0,4.0,4.1,-222,-262,0,4,260,-253,143.69508862495422,143.69512844085693,143.6983618736267,143.70957922935486,143.85989499092102,143.85989499092102,143.85989499092102,143.85989499092102,143.85989499092102,143.85989499092102,143.85989499092102,145.11104559898376,1,1.385955810546875,None,,,,,,,,,,,,,,,,,,226,3,2025-03-10_13h25.03.802,comp,2024.2.4,61.22249274549988,2025-03-10 13h25.41.984271 -0400,
52,52,0,filler_square,None,None,None,None,None,None,None,None,None,None,1,1.0341835021972656,None,,,,,0,0,0,0,0,52,52,187,145.1261808872223,,,,,,,,,,,,,,,,,,,,,,,,,,,,,,,,,,,,,,,,,,,,,,,,,,,,,,,,,,,,,,,,,,,,,,,,,,,,,,,,,149.19310411745414,149.19310411745414,115.37285960908764,92.28150166061224,88.12213762323859,128.73529554744846,3.0,3.2,-217,-257,0,3,207,289,145.11202120780945,145.11206316947937,145.11428022384644,145.1261808872223,145.27639532089233,145.27639532089233,145.27639532089233,145.27639532089233,145.27639532089233,145.27639532089233,145.27639532089233,146.17736983299255,1,1.0341835021972656,None,,,,,,,,,,,,,,,,,,226,3,2025-03-10_13h25.03.802,comp,2024.2.4,61.22249274549988,2025-03-10 13h25.41.984271 -0400,
53,53,0,critical,wdh,20.0,1.0,lower,57.0,133.0,78.0,78.0,133.0,57.0,2,1.9596526622772217,None,,,,,0,0,0,0,0,53,53,78,146.1928083896637,,,,,,,,,,,,,,,,,,,,,,,,,,,,,,,,,,,,,,,,,,,,,,,,,,,,,,,,,,,,,,,,,,,,,,,,,,,,,,,,,57.0,133.0,78.0,78.0,133.0,57.0,1.0,1.2,-202,-18,0,-15,164,11,146.17816400527954,146.17820382118225,146.1806185245514,146.1928083896637,146.34300136566162,146.34300136566162,146.34300136566162,146.34300136566162,146.34300136566162,146.34300136566162,146.34300136566162,148.1607804298401,2,1.9596526622772217,None,,,,,,,,,,,,,,,,,,226,3,2025-03-10_13h25.03.802,comp,2024.2.4,61.22249274549988,2025-03-10 13h25.41.984271 -0400,
54,54,0,critical,whd,20.0,4.0,lower,57.0,133.0,133.0,57.0,78.0,78.0,2,1.481396198272705,None,,,,,0,0,0,0,0,54,54,94,148.17646646499634,,,,,,,,,,,,,,,,,,,,,,,,,,,,,,,,,,,,,,,,,,,,,,,,,,,,,,,,,,,,,,,,,,,,,,,,,,,,,,,,,57.0,133.0,133.0,57.0,78.0,78.0,4.0,4.2,-191,19,0,-285,164,13,148.1615538597107,148.16159439086914,148.1641128063202,148.17646646499634,148.32632184028625,148.32632184028625,148.32632184028625,148.32632184028625,148.32632184028625,148.32632184028625,148.32632184028625,149.66092157363892,2,1.481396198272705,None,,,,,,,,,,,,,,,,,,226,3,2025-03-10_13h25.03.802,comp,2024.2.4,61.22249274549988,2025-03-10 13h25.41.984271 -0400,
55,55,0,critical,whd,35.0,1.0,upper,125.0,200.0,200.0,125.0,127.0,127.0,2,1.3334088325500488,None,,,,,0,0,0,0,0,55,55,85,149.67651224136353,,,,,,,,,,,,,,,,,,,,,,,,,,,,,,,,,,,,,,,,,,,,,,,,,,,,,,,,,,,,,,,,,,,,,,,,,,,,,,,,,125.0,200.0,200.0,125.0,127.0,127.0,1.0,1.2,-258,9,0,17,222,-13,149.66170048713684,149.66174030303955,149.66421270370483,149.67651224136353,149.82642126083374,149.82642126083374,149.82642126083374,149.82642126083374,149.82642126083374,149.82642126083374,149.82642126083374,151.01123237609863,2,1.3334088325500488,None,,,,,,,,,,,,,,,,,,226,3,2025-03-10_13h25.03.802,comp,2024.2.4,61.22249274549988,2025-03-10 13h25.41.984271 -0400,
56,56,0,filler_square,None,None,None,None,None,None,None,None,None,None,2,1.583442211151123,None,,,,,0,0,0,0,0,56,56,208,151.026376247406,,,,,,,,,,,,,,,,,,,,,,,,,,,,,,,,,,,,,,,,,,,,,,,,,,,,,,,,,,,,,,,,,,,,,,,,,,,,,,,,,141.49096444428307,119.35166512088492,143.35763396106807,143.35763396106807,101.20772658567124,132.7589444171698,3.0,3.1,-227,290,0,-4,234,-273,151.0122151374817,151.01225686073303,151.01448154449463,151.026376247406,151.17652487754822,151.17652487754822,151.17652487754822,151.17652487754822,151.17652487754822,151.17652487754822,151.17652487754822,152.6110918521881,2,1.583442211151123,None,,,,,,,,,,,,,,,,,,226,3,2025-03-10_13h25.03.802,comp,2024.2.4,61.22249274549988,2025-03-10 13h25.41.984271 -0400,
57,57,0,filler_square,None,None,None,None,None,None,None,None,None,None,2,2.309917449951172,None,,,,,0,0,0,0,0,57,57,192,152.6264843940735,,,,,,,,,,,,,,,,,,,,,,,,,,,,,,,,,,,,,,,,,,,,,,,,,,,,,,,,,,,,,,,,,,,,,,,,,,,,,,,,,83.30918538416753,85.89828808406625,90.45388071186304,90.45388071186304,77.86705913523654,61.50588616685281,1.0,1.2,-184,10,0,17,172,17,152.61199712753296,152.61203694343567,152.61453461647034,152.6264843940735,152.77625346183777,152.77625346183777,152.77625346183777,152.77625346183777,152.77625346183777,152.77625346183777,152.77625346183777,154.94410347938538,2,2.309917449951172,None,,,,,,,,,,,,,,,,,,226,3,2025-03-10_13h25.03.802,comp,2024.2.4,61.22249274549988,2025-03-10 13h25.41.984271 -0400,
58,58,0,critical,wdh,35.0,1.0,lower,57.0,133.0,70.0,70.0,133.0,57.0,2,4.328517436981201,None,,,,,0,0,0,0,0,58,58,72,154.95982027053833,,,,,,,,,,,,,,,,,,,,,,,,,,,,,,,,,,,,,,,,,,,,,,,,,,,,,,,,,,,,,,,,,,,,,,,,,,,,,,,,,57.0,133.0,70.0,70.0,133.0,57.0,1.0,1.3,282,-263,480,-252,640,-285,154.9448983669281,154.94493913650513,154.94730186462402,154.95982027053833,155.10956692695618,155.10956692695618,155.10956692695618,155.10956692695618,155.10956692695618,155.10956692695618,155.10956692695618,159.29401278495789,2,4.328517436981201,None,,,,,,,,,,,,,,,,,,226,3,2025-03-10_13h25.03.802,comp,2024.2.4,61.22249274549988,2025-03-10 13h25.41.984271 -0400,
59,59,0,filler_square,None,None,None,None,None,None,None,None,None,None,1,2.3217225074768066,None,,,,,0,0,0,0,0,59,59,201,159.30966544151306,,,,,,,,,,,,,,,,,,,,,,,,,,,,,,,,,,,,,,,,,,,,,,,,,,,,,,,,,,,,,,,,,,,,,,,,,,,,,,,,,168.4148024399722,168.4148024399722,95.96431460331584,153.85185170606212,60.64430580231468,102.29158544814729,3.0,3.1,-257,286,0,-19,224,-272,159.294930934906,159.29497122764587,159.2971806526184,159.30966544151306,159.45961260795593,159.45961260795593,159.45961260795593,159.45961260795593,159.45961260795593,159.45961260795593,159.45961260795593,161.64420366287231,1,2.3217225074768066,None,,,,,,,,,,,,,,,,,,226,3,2025-03-10_13h25.03.802,comp,2024.2.4,61.22249274549988,2025-03-10 13h25.41.984271 -0400,
60,60,0,critical,dhw,20.0,1.0,lower,78.0,78.0,133.0,57.0,57.0,133.0,1,3.150283098220825,None,,,,,0,0,0,0,0,60,60,54,161.65946292877197,,,,,,,,,,,,,,,,,,,,,,,,,,,,,,,,,,,,,,,,,,,,,,,,,,,,,,,,,,,,,,,,,,,,,,,,,,,,,,,,,78.0,78.0,133.0,57.0,57.0,133.0,1.0,1.1,-644,264,-480,277,-289,278,161.64501118659973,161.64505004882812,161.64736127853394,161.65946292877197,161.80954313278198,161.80954313278198,161.80954313278198,161.80954313278198,161.80954313278198,161.80954313278198,161.80954313278198,164.8273890018463,1,3.150283098220825,None,,,,,,,,,,,,,,,,,,226,3,2025-03-10_13h25.03.802,comp,2024.2.4,61.22249274549988,2025-03-10 13h25.41.984271 -0400,
61,61,0,filler_square,None,None,None,None,None,None,None,None,None,None,2,5.236749887466431,None,,,,,0,0,0,0,0,61,61,188,164.84283018112183,,,,,,,,,,,,,,,,,,,,,,,,,,,,,,,,,,,,,,,,,,,,,,,,,,,,,,,,,,,,,,,,,,,,,,,,,,,,,,,,,76.1905331924876,76.1905331924876,57.96110471532267,68.4571124461931,63.90483488479647,62.8907850559286,2.1,2.12,-168,-282,0,-260,162,270,164.82833790779114,164.828378200531,164.83147525787354,164.84283018112183,164.99277186393738,164.99277186393738,164.99277186393738,164.99277186393738,164.99277186393738,164.99277186393738,164.99277186393738,170.09426093101501,2,5.236749887466431,None,,,,,,,,,,,,,,,,,,226,3,2025-03-10_13h25.03.802,comp,2024.2.4,61.22249274549988,2025-03-10 13h25.41.984271 -0400,
62,62,0,critical,wdh,35.0,2.1,lower,57.0,133.0,70.0,70.0,133.0,57.0,1,2.61071515083313,None,,,,,0,0,0,0,0,62,62,32,170.1094605922699,,,,,,,,,,,,,,,,,,,,,,,,,,,,,,,,,,,,,,,,,,,,,,,,,,,,,,,,,,,,,,,,,,,,,,,,,,,,,,,,,57.0,133.0,70.0,70.0,133.0,57.0,2.1,2.11,-198,258,0,288,160,-276,170.09503412246704,170.095073223114,170.09765100479126,170.1094605922699,170.25944066047668,170.25944066047668,170.25944066047668,170.25944066047668,170.25944066047668,170.25944066047668,170.25944066047668,172.72730231285095,1,2.61071515083313,None,,,,,,,,,,,,,,,,,,226,3,2025-03-10_13h25.03.802,comp,2024.2.4,61.22249274549988,2025-03-10 13h25.41.984271 -0400,
63,63,0,critical,dwh,35.0,1.0,lower,70.0,70.0,57.0,133.0,133.0,57.0,2,1.4883911609649658,None,,,,,0,0,0,0,0,63,63,60,172.74290990829468,,,,,,,,,,,,,,,,,,,,,,,,,,,,,,,,,,,,,,,,,,,,,,,,,,,,,,,,,,,,,,,,,,,,,,,,,,,,,,,,,70.0,70.0,57.0,133.0,133.0,57.0,1.0,1.2,-198,-13,0,-13,191,-15,172.7280547618866,172.72810792922974,172.73037815093994,172.74290990829468,172.89280533790588,172.89280533790588,172.89280533790588,172.89280533790588,172.89280533790588,172.89280533790588,172.89280533790588,174.24393773078918,2,1.4883911609649658,None,,,,,,,,,,,,,,,,,,226,3,2025-03-10_13h25.03.802,comp,2024.2.4,61.22249274549988,2025-03-10 13h25.41.984271 -0400,
64,64,0,filler_random,None,None,None,None,None,None,None,None,None,None,1,1.1501636505126953,None,,,,,0,0,0,0,0,64,64,162,174.25954031944275,,,,,,,,,,,,,,,,,,,,,,,,,,,,,,,,,,,,,,,,,,,,,,,,,,,,,,,,,,,,,,,,,,,,,,,,,,,,,,,,,71.91241864618617,163.58726804348146,172.80705875817904,101.249441702253,109.0165367751845,66.8775798888129,4.0,4.1,-228,-290,0,2,180,-252,174.24483251571655,174.24487280845642,174.24743461608887,174.25954031944275,174.40982055664062,174.40982055664062,174.40982055664062,174.40982055664062,174.40982055664062,174.40982055664062,174.40982055664062,175.42743158340454,1,1.1501636505126953,None,,,,,,,,,,,,,,,,,,226,3,2025-03-10_13h25.03.802,comp,2024.2.4,61.22249274549988,2025-03-10 13h25.41.984271 -0400,
65,65,0,catch,None,None,None,None,None,None,None,None,None,None,3,1.1884329319000244,None,,,,,0,0,0,0,0,65,65,123,175.4428472518921,,,,,,,,,,,,,,,,,,,,,,,,,,,,,,,,,,,,,,,,,,,,,,,,,,,,,,,,,,,,,,,,,,,,,,,,,,,,,,,,,85,105,126,64,126,199,1.0,1.1,-660,282,-480,257,-252,288,175.42846536636353,175.42850351333618,175.43090796470642,175.4428472518921,175.59289050102234,175.59289050102234,175.59289050102234,175.59289050102234,175.59289050102234,175.59289050102234,175.59289050102234,176.64417266845703,3,1.1884329319000244,None,,,,,,,,,,,,,,,,,,226,3,2025-03-10_13h25.03.802,comp,2024.2.4,61.22249274549988,2025-03-10 13h25.41.984271 -0400,
66,66,0,filler_random,None,None,None,None,None,None,None,None,None,None,1,1.2768089771270752,None,,,,,0,0,0,0,0,66,66,142,176.65938353538513,,,,,,,,,,,,,,,,,,,,,,,,,,,,,,,,,,,,,,,,,,,,,,,,,,,,,,,,,,,,,,,,,,,,,,,,,,,,,,,,,99.04536166298568,171.6679427719266,129.5317887436196,162.38929901041317,69.56205025312582,81.5400030642433,1.0,1.3,217,-288,480,-268,698,-286,176.64507460594177,176.6451277732849,176.6472065448761,176.65938353538513,176.80982565879822,176.80982565879822,176.80982565879822,176.80982565879822,176.80982565879822,176.80982565879822,176.80982565879822,177.9439787864685,1,1.2768089771270752,None,,,,,,,,,,,,,,,,,,226,3,2025-03-10_13h25.03.802,comp,2024.2.4,61.22249274549988,2025-03-10 13h25.41.984271 -0400,
67,67,0,filler_square,None,None,None,None,None,None,None,None,None,None,2,2.3677752017974854,None,,,,,0,0,0,0,0,67,67,183,177.95961999893188,,,,,,,,,,,,,,,,,,,,,,,,,,,,,,,,,,,,,,,,,,,,,,,,,,,,,,,,,,,,,,,,,,,,,,,,,,,,,,,,,158.3773657141736,158.3773657141736,125.22039443698263,91.23276934854385,72.03583398096515,79.22180863109331,4.0,4.2,-221,-3,0,-251,181,8,177.9449155330658,177.94495582580566,177.94742059707642,177.95961999893188,178.10954523086548,178.10954523086548,178.10954523086548,178.10954523086548,178.10954523086548,178.10954523086548,178.10954523086548,180.34397840499878,2,2.3677752017974854,None,,,,,,,,,,,,,,,,,,226,3,2025-03-10_13h25.03.802,comp,2024.2.4,61.22249274549988,2025-03-10 13h25.41.984271 -0400,
68,68,0,critical,whd,35.0,3.0,lower,57.0,133.0,133.0,57.0,70.0,70.0,2,2.7449071407318115,None,,,,,0,0,0,0,0,68,68,86,180.3592710494995,,,,,,,,,,,,,,,,,,,,,,,,,,,,,,,,,,,,,,,,,,,,,,,,,,,,,,,,,,,,,,,,,,,,,,,,,,,,,,,,,57.0,133.0,133.0,57.0,70.0,70.0,3.0,3.2,-191,-252,0,-2,160,280,180.3447539806366,180.3447937965393,180.34729933738708,180.3592710494995,180.50939774513245,180.50939774513245,180.50939774513245,180.50939774513245,180.50939774513245,180.50939774513245,180.50939774513245,183.11066722869873,2,2.7449071407318115,None,,,,,,,,,,,,,,,,,,226,3,2025-03-10_13h25.03.802,comp,2024.2.4,61.22249274549988,2025-03-10 13h25.41.984271 -0400,
69,69,0,critical,hdw,35.0,3.0,lower,133.0,57.0,70.0,70.0,57.0,133.0,3,2.793768882751465,None,,,,,0,0,0,0,0,69,69,110,183.12634015083313,,,,,,,,,,,,,,,,,,,,,,,,,,,,,,,,,,,,,,,,,,,,,,,,,,,,,,,,,,,,,,,,,,,,,,,,,,,,,,,,,133.0,57.0,70.0,70.0,57.0,133.0,3.0,3.1,-160,281,0,-17,198,-265,183.1115758419037,183.11161637306213,183.11417269706726,183.12634015083313,183.27609491348267,183.27609491348267,183.27609491348267,183.27609491348267,183.27609491348267,183.27609491348267,183.27609491348267,185.92713737487793,3,2.793768882751465,None,,,,,,,,,,,,,,,,,,226,3,2025-03-10_13h25.03.802,comp,2024.2.4,61.22249274549988,2025-03-10 13h25.41.984271 -0400,
70,70,0,critical,wdh,20.0,2.1,lower,57.0,133.0,78.0,78.0,133.0,57.0,3,1.1934666633605957,None,,,,,0,0,0,0,0,70,70,34,185.94274973869324,,,,,,,,,,,,,,,,,,,,,,,,,,,,,,,,,,,,,,,,,,,,,,,,,,,,,,,,,,,,,,,,,,,,,,,,,,,,,,,,,57.0,133.0,78.0,78.0,133.0,57.0,2.1,2.12,-202,-269,0,-268,164,262,185.92791080474854,185.92795133590698,185.93019700050354,185.94274973869324,186.09287810325623,186.09287810325623,186.09287810325623,186.09287810325623,186.09287810325623,186.09287810325623,186.09287810325623,187.1437542438507,3,1.1934666633605957,None,,,,,,,,,,,,,,,,,,226,3,2025-03-10_13h25.03.802,comp,2024.2.4,61.22249274549988,2025-03-10 13h25.41.984271 -0400,
71,71,0,critical,dhw,35.0,4.0,upper,127.0,127.0,200.0,125.0,125.0,200.0,2,2.3607828617095947,None,,,,,0,0,0,0,0,71,71,53,187.15949034690857,,,,,,,,,,,,,,,,,,,,,,,,,,,,,,,,,,,,,,,,,,,,,,,,,,,,,,,,,,,,,,,,,,,,,,,,,,,,,,,,,127.0,127.0,200.0,125.0,125.0,200.0,4.0,4.1,-222,-290,0,16,258,-263,187.14450693130493,187.14454460144043,187.146981716156,187.15949034690857,187.30950617790222,187.30950617790222,187.30950617790222,187.30950617790222,187.30950617790222,187.30950617790222,187.30950617790222,189.5273633003235,2,2.3607828617095947,None,,,,,,,,,,,,,,,,,,226,3,2025-03-10_13h25.03.802,comp,2024.2.4,61.22249274549988,2025-03-10 13h25.41.984271 -0400,
72,72,0,filler_square,None,None,None,None,None,None,None,None,None,None,2,3.1610937118530273,None,,,,,0,0,0,0,0,72,72,205,189.542875289917,,,,,,,,,,,,,,,,,,,,,,,,,,,,,,,,,,,,,,,,,,,,,,,,,,,,,,,,,,,,,,,,,,,,,,,,,,,,,,,,,186.3003678407059,186.3003678407059,126.40352885983377,91.39343864950533,104.59035548888795,82.91964052830772,2.1,2.12,-235,-267,0,-287,183,268,189.528315782547,189.52835631370544,189.53080296516418,189.542875289917,189.69277334213257,189.69277334213257,189.69277334213257,189.69277334213257,189.69277334213257,189.69277334213257,189.69277334213257,192.7105438709259,2,3.1610937118530273,None,,,,,,,,,,,,,,,,,,226,3,2025-03-10_13h25.03.802,comp,2024.2.4,61.22249274549988,2025-03-10 13h25.41.984271 -0400,
73,73,0,critical,dhw,35.0,1.0,lower,70.0,70.0,133.0,57.0,57.0,133.0,2,1.1378843784332275,None,,,,,0,0,0,0,0,73,73,48,192.7261688709259,,,,,,,,,,,,,,,,,,,,,,,,,,,,,,,,,,,,,,,,,,,,,,,,,,,,,,,,,,,,,,,,,,,,,,,,,,,,,,,,,70.0,70.0,133.0,57.0,57.0,133.0,1.0,1.3,320,-270,480,-261,671,-288,192.71131324768066,192.71135187149048,192.7137348651886,192.7261688709259,192.8760540485382,192.8760540485382,192.8760540485382,192.8760540485382,192.8760540485382,192.8760540485382,192.8760540485382,193.87719535827637,2,1.1378843784332275,None,,,,,,,,,,,,,,,,,,226,3,2025-03-10_13h25.03.802,comp,2024.2.4,61.22249274549988,2025-03-10 13h25.41.984271 -0400,
74,74,0,catch,None,None,None,None,None,None,None,None,None,None,3,2.571422576904297,None,,,,,0,0,0,0,0,74,74,128,193.89257502555847,,,,,,,,,,,,,,,,,,,,,,,,,,,,,,,,,,,,,,,,,,,,,,,,,,,,,,,,,,,,,,,,,,,,,,,,,,,,,,,,,118,72,69,121,147,178,2.1,2.12,-192,-281,0,-288,246,257,193.8782286643982,193.87827014923096,193.88142156600952,193.89257502555847,194.0427279472351,194.0427279472351,194.0427279472351,194.0427279472351,194.0427279472351,194.0427279472351,194.0427279472351,196.47736477851868,3,2.571422576904297,None,,,,,,,,,,,,,,,,,,226,3,2025-03-10_13h25.03.802,comp,2024.2.4,61.22249274549988,2025-03-10 13h25.41.984271 -0400,
75,75,0,filler_random,None,None,None,None,None,None,None,None,None,None,3,1.371441125869751,None,,,,,0,0,0,0,0,75,75,155,196.49255847930908,,,,,,,,,,,,,,,,,,,,,,,,,,,,,,,,,,,,,,,,,,,,,,,,,,,,,,,,,,,,,,,,,,,,,,,,,,,,,,,,,107.5101381383065,167.3996550050912,144.10599170938696,63.332454094491304,197.7354411961243,77.03288057814797,2.2,2.22,-211,257,0,-271,166,-290,196.47824263572693,196.47828149795532,196.48057746887207,196.49255847930908,196.64275646209717,196.64275646209717,196.64275646209717,196.64275646209717,196.64275646209717,196.64275646209717,196.64275646209717,197.8772623538971,3,1.371441125869751,None,,,,,,,,,,,,,,,,,,226,3,2025-03-10_13h25.03.802,comp,2024.2.4,61.22249274549988,2025-03-10 13h25.41.984271 -0400,
76,76,0,critical,whd,35.0,2.1,lower,57.0,133.0,133.0,57.0,70.0,70.0,2,2.002650260925293,None,,,,,0,0,0,0,0,76,76,12,197.89251923561096,,,,,,,,,,,,,,,,,,,,,,,,,,,,,,,,,,,,,,,,,,,,,,,,,,,,,,,,,,,,,,,,,,,,,,,,,,,,,,,,,57.0,133.0,133.0,57.0,70.0,70.0,2.1,2.12,-191,-259,0,-259,160,259,197.8780345916748,197.87807369232178,197.88018679618835,197.89251923561096,198.042626619339,198.042626619339,198.042626619339,198.042626619339,198.042626619339,198.042626619339,198.042626619339,199.9104301929474,2,2.002650260925293,None,,,,,,,,,,,,,,,,,,226,3,2025-03-10_13h25.03.802,comp,2024.2.4,61.22249274549988,2025-03-10 13h25.41.984271 -0400,
77,77,0,critical,hwd,35.0,2.1,lower,133.0,57.0,57.0,133.0,70.0,70.0,1,1.3621046543121338,None,,,,,0,0,0,0,0,77,77,40,199.92581176757812,,,,,,,,,,,,,,,,,,,,,,,,,,,,,,,,,,,,,,,,,,,,,,,,,,,,,,,,,,,,,,,,,,,,,,,,,,,,,,,,,133.0,57.0,57.0,133.0,70.0,70.0,2.1,2.11,-191,252,0,274,198,-263,199.91124033927917,199.91127967834473,199.91337323188782,199.92581176757812,200.0760178565979,200.0760178565979,200.0760178565979,200.0760178565979,200.0760178565979,200.0760178565979,200.0760178565979,201.29369115829468,1,1.3621046543121338,None,,,,,,,,,,,,,,,,,,226,3,2025-03-10_13h25.03.802,comp,2024.2.4,61.22249274549988,2025-03-10 13h25.41.984271 -0400,
78,78,0,filler_random,None,None,None,None,None,None,None,None,None,None,3,2.1948094367980957,None,,,,,0,0,0,0,0,78,78,168,201.30935525894165,,,,,,,,,,,,,,,,,,,,,,,,,,,,,,,,,,,,,,,,,,,,,,,,,,,,,,,,,,,,,,,,,,,,,,,,,,,,,,,,,81.20516395210475,97.95710045469552,197.14746718399445,170.1647500131287,143.59150082892705,106.86914058158715,3.0,3.1,-230,278,0,-9,235,-257,201.29463362693787,201.2946741580963,201.29710459709167,201.30935525894165,201.4593527317047,201.4593527317047,201.4593527317047,201.4593527317047,201.4593527317047,201.4593527317047,201.4593527317047,203.51045155525208,3,2.1948094367980957,None,,,,,,,,,,,,,,,,,,226,3,2025-03-10_13h25.03.802,comp,2024.2.4,61.22249274549988,2025-03-10 13h25.41.984271 -0400,
79,79,0,critical,hdw,20.0,2.1,lower,133.0,57.0,78.0,78.0,57.0,133.0,1,2.6171116828918457,None,,,,,0,0,0,0,0,79,79,46,203.5260615348816,,,,,,,,,,,,,,,,,,,,,,,,,,,,,,,,,,,,,,,,,,,,,,,,,,,,,,,,,,,,,,,,,,,,,,,,,,,,,,,,,133.0,57.0,78.0,78.0,57.0,133.0,2.1,2.11,-164,274,0,286,202,-270,203.5112326145172,203.51127123832703,203.5136423110962,203.5260615348816,203.67602729797363,203.67602729797363,203.67602729797363,203.67602729797363,203.67602729797363,203.67602729797363,203.67602729797363,206.16043996810913,1,2.6171116828918457,None,,,,,,,,,,,,,,,,,,226,3,2025-03-10_13h25.03.802,comp,2024.2.4,61.22249274549988,2025-03-10 13h25.41.984271 -0400,
80,80,0,critical,wdh,20.0,2.1,lower,57.0,133.0,78.0,78.0,133.0,57.0,1,0.7838082313537598,None,,,,,0,0,0,0,0,80,80,10,206.1757733821869,,,,,,,,,,,,,,,,,,,,,,,,,,,,,,,,,,,,,,,,,,,,,,,,,,,,,,,,,,,,,,,,,,,,,,,,,,,,,,,,,57.0,133.0,78.0,78.0,133.0,57.0,2.1,2.11,-202,260,0,271,164,-259,206.16123723983765,206.16127634048462,206.16367173194885,206.1757733821869,206.32600665092468,206.32600665092468,206.32600665092468,206.32600665092468,206.32600665092468,206.32600665092468,206.32600665092468,206.97702479362488,1,0.7838082313537598,None,,,,,,,,,,,,,,,,,,226,3,2025-03-10_13h25.03.802,comp,2024.2.4,61.22249274549988,2025-03-10 13h25.41.984271 -0400,
81,81,0,critical,dhw,35.0,2.1,lower,70.0,70.0,133.0,57.0,57.0,133.0,2,1.1354739665985107,None,,,,,0,0,0,0,0,81,81,24,206.99249053001404,,,,,,,,,,,,,,,,,,,,,,,,,,,,,,,,,,,,,,,,,,,,,,,,,,,,,,,,,,,,,,,,,,,,,,,,,,,,,,,,,70.0,70.0,133.0,57.0,57.0,133.0,2.1,2.12,-160,-255,0,-287,191,251,206.97779393196106,206.97783207893372,206.98038411140442,206.99249053001404,207.14256596565247,207.14256596565247,207.14256596565247,207.14256596565247,207.14256596565247,207.14256596565247,207.14256596565247,208.14366459846497,2,1.1354739665985107,None,,,,,,,,,,,,,,,,,,226,3,2025-03-10_13h25.03.802,comp,2024.2.4,61.22249274549988,2025-03-10 13h25.41.984271 -0400,
82,82,0,filler_square,None,None,None,None,None,None,None,None,None,None,1,0.898475170135498,None,,,,,0,0,0,0,0,82,82,195,208.1591236591339,,,,,,,,,,,,,,,,,,,,,,,,,,,,,,,,,,,,,,,,,,,,,,,,,,,,,,,,,,,,,,,,,,,,,,,,,,,,,,,,,57.73563255175189,68.71071441258434,94.57348709264627,94.57348709264627,88.93674806015404,61.19409979828363,2.1,2.11,-178,264,0,278,174,-288,208.14464926719666,208.14469003677368,208.14677262306213,208.1591236591339,208.30931091308594,208.30931091308594,208.30931091308594,208.30931091308594,208.30931091308594,208.30931091308594,208.30931091308594,209.06043577194214,1,0.898475170135498,None,,,,,,,,,,,,,,,,,,226,3,2025-03-10_13h25.03.802,comp,2024.2.4,61.22249274549988,2025-03-10 13h25.41.984271 -0400,
83,83,0,critical,hwd,20.0,2.1,upper,200.0,125.0,125.0,200.0,141.0,141.0,1,1.0673599243164062,None,,,,,0,0,0,0,0,83,83,43,209.07592034339905,,,,,,,,,,,,,,,,,,,,,,,,,,,,,,,,,,,,,,,,,,,,,,,,,,,,,,,,,,,,,,,,,,,,,,,,,,,,,,,,,200.0,125.0,125.0,200.0,141.0,141.0,2.1,2.11,-258,262,0,289,266,-287,209.0612108707428,209.06125164031982,209.06356167793274,209.07592034339905,209.22613286972046,209.22613286972046,209.22613286972046,209.22613286972046,209.22613286972046,209.22613286972046,209.22613286972046,210.16054844856262,1,1.0673599243164062,None,,,,,,,,,,,,,,,,,,226,3,2025-03-10_13h25.03.802,comp,2024.2.4,61.22249274549988,2025-03-10 13h25.41.984271 -0400,
84,84,0,catch,None,None,None,None,None,None,None,None,None,None,2,1.9675707817077637,None,,,,,0,0,0,0,0,84,84,122,210.17563128471375,,,,,,,,,,,,,,,,,,,,,,,,,,,,,,,,,,,,,,,,,,,,,,,,,,,,,,,,,,,,,,,,,,,,,,,,,,,,,,,,,109,81,120,70,164,161,2.2,2.22,-172,257,0,-258,212,-284,210.16158771514893,210.16162753105164,210.1640224456787,210.17563128471375,210.32599067687988,210.32599067687988,210.32599067687988,210.32599067687988,210.32599067687988,210.32599067687988,210.32599067687988,212.16040301322937,2,1.9675707817077637,None,,,,,,,,,,,,,,,,,,226,3,2025-03-10_13h25.03.802,comp,2024.2.4,61.22249274549988,2025-03-10 13h25.41.984271 -0400,
85,85,0,critical,whd,20.0,2.1,lower,57.0,133.0,133.0,57.0,78.0,78.0,2,1.0552499294281006,None,,,,,0,0,0,0,0,85,85,14,212.17572474479675,,,,,,,,,,,,,,,,,,,,,,,,,,,,,,,,,,,,,,,,,,,,,,,,,,,,,,,,,,,,,,,,,,,,,,,,,,,,,,,,,57.0,133.0,133.0,57.0,78.0,78.0,2.1,2.11,-191,262,0,263,164,-288,212.1611876487732,212.1612265110016,212.16350841522217,212.17572474479675,212.32587504386902,212.32587504386902,212.32587504386902,212.32587504386902,212.32587504386902,212.32587504386902,212.32587504386902,213.24361181259155,2,1.0552499294281006,None,,,,,,,,,,,,,,,,,,226,3,2025-03-10_13h25.03.802,comp,2024.2.4,61.22249274549988,2025-03-10 13h25.41.984271 -0400,
86,86,0,filler_random,None,None,None,None,None,None,None,None,None,None,3,1.182469367980957,None,,,,,0,0,0,0,0,86,86,149,213.25901079177856,,,,,,,,,,,,,,,,,,,,,,,,,,,,,,,,,,,,,,,,,,,,,,,,,,,,,,,,,,,,,,,,,,,,,,,,,,,,,,,,,76.21527977442439,173.97917693689337,145.30666576459197,153.56212381486904,167.82024594252147,92.38908882658826,1.0,1.3,220,-260,480,-256,699,-258,213.24451875686646,213.24456024169922,213.2471845149994,213.25901079177856,213.40940690040588,213.40940690040588,213.40940690040588,213.40940690040588,213.40940690040588,213.40940690040588,213.40940690040588,214.4440143108368,3,1.182469367980957,None,,,,,,,,,,,,,,,,,,226,3,2025-03-10_13h25.03.802,comp,2024.2.4,61.22249274549988,2025-03-10 13h25.41.984271 -0400,
87,87,0,filler_square,None,None,None,None,None,None,None,None,None,None,1,1.3252673149108887,None,,,,,0,0,0,0,0,87,87,207,214.45927143096924,,,,,,,,,,,,,,,,,,,,,,,,,,,,,,,,,,,,,,,,,,,,,,,,,,,,,,,,,,,,,,,,,,,,,,,,,,,,,,,,,98.94790132244086,87.86987374139395,119.77746050774886,119.77746050774886,73.20096766963513,89.95956935847397,2.2,2.21,-200,-251,0,288,201,279,214.44507384300232,214.44513416290283,214.44730067253113,214.45927143096924,214.60915327072144,214.60915327072144,214.60915327072144,214.60915327072144,214.60915327072144,214.60915327072144,214.60915327072144,215.79374980926514,1,1.3252673149108887,None,,,,,,,,,,,,,,,,,,226,3,2025-03-10_13h25.03.802,comp,2024.2.4,61.22249274549988,2025-03-10 13h25.41.984271 -0400,
88,88,0,critical,wdh,35.0,4.0,lower,57.0,133.0,70.0,70.0,133.0,57.0,3,1.0324170589447021,None,,,,,0,0,0,0,0,88,88,76,215.80933499336243,,,,,,,,,,,,,,,,,,,,,,,,,,,,,,,,,,,,,,,,,,,,,,,,,,,,,,,,,,,,,,,,,,,,,,,,,,,,,,,,,57.0,133.0,70.0,70.0,133.0,57.0,4.0,4.2,-198,-13,0,-277,160,5,215.79449939727783,215.79453921318054,215.796950340271,215.80933499336243,215.95919966697693,215.95919966697693,215.95919966697693,215.95919966697693,215.95919966697693,215.95919966697693,215.95919966697693,216.8606128692627,3,1.0324170589447021,None,,,,,,,,,,,,,,,,,,226,3,2025-03-10_13h25.03.802,comp,2024.2.4,61.22249274549988,2025-03-10 13h25.41.984271 -0400,
89,89,0,filler_square,None,None,None,None,None,None,None,None,None,None,1,2.00331974029541,None,,,,,0,0,0,0,0,89,89,189,216.87577366828918,,,,,,,,,,,,,,,,,,,,,,,,,,,,,,,,,,,,,,,,,,,,,,,,,,,,,,,,,,,,,,,,,,,,,,,,,,,,,,,,,81.0936249849247,67.57951732299767,147.74890779522917,176.71759683575866,181.75434482407843,181.75434482407843,2.1,2.11,-218,264,0,257,275,-264,216.8617925643921,216.8618335723877,216.86399459838867,216.87577366828918,217.02617049217224,217.02617049217224,217.02617049217224,217.02617049217224,217.02617049217224,217.02617049217224,217.02617049217224,218.89373517036438,1,2.00331974029541,None,,,,,,,,,,,,,,,,,,226,3,2025-03-10_13h25.03.802,comp,2024.2.4,61.22249274549988,2025-03-10 13h25.41.984271 -0400,
90,90,0,critical,hwd,35.0,1.0,lower,133.0,57.0,57.0,133.0,70.0,70.0,2,2.1326847076416016,None,,,,,0,0,0,0,0,90,90,96,218.90901970863342,,,,,,,,,,,,,,,,,,,,,,,,,,,,,,,,,,,,,,,,,,,,,,,,,,,,,,,,,,,,,,,,,,,,,,,,,,,,,,,,,133.0,57.0,57.0,133.0,70.0,70.0,1.0,1.3,289,-274,480,-254,678,-258,218.8945541381836,218.89459490776062,218.89701581001282,218.90901970863342,219.0591163635254,219.0591163635254,219.0591163635254,219.0591163635254,219.0591163635254,219.0591163635254,219.0591163635254,221.04364919662476,2,2.1326847076416016,None,,,,,,,,,,,,,,,,,,226,3,2025-03-10_13h25.03.802,comp,2024.2.4,61.22249274549988,2025-03-10 13h25.41.984271 -0400,
91,91,0,critical,hwd,35.0,4.0,upper,200.0,125.0,125.0,200.0,127.0,127.0,1,2.58783221244812,None,,,,,0,0,0,0,0,91,91,101,221.05928897857666,,,,,,,,,,,,,,,,,,,,,,,,,,,,,,,,,,,,,,,,,,,,,,,,,,,,,,,,,,,,,,,,,,,,,,,,,,,,,,,,,200.0,125.0,125.0,200.0,127.0,127.0,4.0,4.1,-258,-284,0,-5,260,-262,221.04442167282104,221.0444631576538,221.04657983779907,221.05928897857666,221.2094988822937,221.2094988822937,221.2094988822937,221.2094988822937,221.2094988822937,221.2094988822937,221.2094988822937,223.66047501564026,1,2.58783221244812,None,,,,,,,,,,,,,,,,,,226,3,2025-03-10_13h25.03.802,comp,2024.2.4,61.22249274549988,2025-03-10 13h25.41.984271 -0400,
92,92,0,filler_random,None,None,None,None,None,None,None,None,None,None,3,1.4923019409179688,None,,,,,0,0,0,0,0,92,92,151,223.67565989494324,,,,,,,,,,,,,,,,,,,,,,,,,,,,,,,,,,,,,,,,,,,,,,,,,,,,,,,,,,,,,,,,,,,,,,,,,,,,,,,,,144.64808747228517,123.3094393294141,108.29606048637993,70.21584556369083,174.71505785318413,183.6530202388895,3.0,3.2,-193,-274,0,19,223,259,223.66135454177856,223.66139459609985,223.66373133659363,223.67565989494324,223.8259027004242,223.8259027004242,223.8259027004242,223.8259027004242,223.8259027004242,223.8259027004242,223.8259027004242,225.1770052909851,3,1.4923019409179688,None,,,,,,,,,,,,,,,,,,226,3,2025-03-10_13h25.03.802,comp,2024.2.4,61.22249274549988,2025-03-10 13h25.41.984271 -0400,
93,93,0,filler_square,None,None,None,None,None,None,None,None,None,None,2,1.8327937126159668,None,,,,,0,0,0,0,0,93,93,172,225.19263553619385,,,,,,,,,,,,,,,,,,,,,,,,,,,,,,,,,,,,,,,,,,,,,,,,,,,,,,,,,,,,,,,,,,,,,,,,,,,,,,,,,127.39397332460317,145.76990221167293,180.130786580002,180.130786580002,103.28739826666462,135.57654391920173,2.1,2.12,-259,-278,0,-280,254,286,225.17795991897583,225.17800092697144,225.18009614944458,225.19263553619385,225.34267711639404,225.34267711639404,225.34267711639404,225.34267711639404,225.34267711639404,225.34267711639404,225.34267711639404,227.02725958824158,2,1.8327937126159668,None,,,,,,,,,,,,,,,,,,226,3,2025-03-10_13h25.03.802,comp,2024.2.4,61.22249274549988,2025-03-10 13h25.41.984271 -0400,
94,94,0,critical,hwd,20.0,4.0,upper,200.0,125.0,125.0,200.0,141.0,141.0,2,2.668339967727661,None,,,,,0,0,0,0,0,94,94,107,227.04267239570618,,,,,,,,,,,,,,,,,,,,,,,,,,,,,,,,,,,,,,,,,,,,,,,,,,,,,,,,,,,,,,,,,,,,,,,,,,,,,,,,,200.0,125.0,125.0,200.0,141.0,141.0,4.0,4.2,-258,-12,0,-262,266,20,227.0280306339264,227.02806949615479,227.03017783164978,227.04267239570618,227.19274973869324,227.19274973869324,227.19274973869324,227.19274973869324,227.19274973869324,227.19274973869324,227.19274973869324,229.727130651474,2,2.668339967727661,None,,,,,,,,,,,,,,,,,,226,3,2025-03-10_13h25.03.802,comp,2024.2.4,61.22249274549988,2025-03-10 13h25.41.984271 -0400,
95,95,0,critical,dhw,20.0,2.1,lower,78.0,78.0,133.0,57.0,57.0,133.0,2,2.9046952724456787,None,,,,,0,0,0,0,0,95,95,26,229.742280960083,,,,,,,,,,,,,,,,,,,,,,,,,,,,,,,,,,,,,,,,,,,,,,,,,,,,,,,,,,,,,,,,,,,,,,,,,,,,,,,,,78.0,78.0,133.0,57.0,57.0,133.0,2.1,2.12,-164,-275,0,-258,191,259,229.72791290283203,229.7279510498047,229.7301743030548,229.742280960083,229.89230847358704,229.89230847358704,229.89230847358704,229.89230847358704,229.89230847358704,229.89230847358704,229.89230847358704,232.66010642051697,2,2.9046952724456787,None,,,,,,,,,,,,,,,,,,226,3,2025-03-10_13h25.03.802,comp,2024.2.4,61.22249274549988,2025-03-10 13h25.41.984271 -0400,
96,96,0,filler_square,None,None,None,None,None,None,None,None,None,None,2,4.083619117736816,None,,,,,0,0,0,0,0,96,96,206,232.67556476593018,,,,,,,,,,,,,,,,,,,,,,,,,,,,,,,,,,,,,,,,,,,,,,,,,,,,,,,,,,,,,,,,,,,,,,,,,,,,,,,,,58.910448554130866,60.60382465436214,63.909558727822656,63.909558727822656,63.83547884934021,62.49604881062941,1.0,1.3,322,-260,480,-287,639,-268,232.66105031967163,232.66110396385193,232.66346740722656,232.67556476593018,232.82573747634888,232.82573747634888,232.82573747634888,232.82573747634888,232.82573747634888,232.82573747634888,232.82573747634888,236.7767207622528,2,4.083619117736816,None,,,,,,,,,,,,,,,,,,226,3,2025-03-10_13h25.03.802,comp,2024.2.4,61.22249274549988,2025-03-10 13h25.41.984271 -0400,
97,97,0,critical,hdw,20.0,4.0,lower,133.0,57.0,78.0,78.0,57.0,133.0,3,1.9507653713226318,None,,,,,0,0,0,0,0,97,97,118,236.79217171669006,,,,,,,,,,,,,,,,,,,,,,,,,,,,,,,,,,,,,,,,,,,,,,,,,,,,,,,,,,,,,,,,,,,,,,,,,,,,,,,,,133.0,57.0,78.0,78.0,57.0,133.0,4.0,4.1,-164,-260,0,-12,202,-269,236.7775206565857,236.7775604724884,236.78005003929138,236.79217171669006,236.94226455688477,236.94226455688477,236.94226455688477,236.94226455688477,236.94226455688477,236.94226455688477,236.94226455688477,238.7599790096283,3,1.9507653713226318,None,,,,,,,,,,,,,,,,,,226,3,2025-03-10_13h25.03.802,comp,2024.2.4,61.22249274549988,2025-03-10 13h25.41.984271 -0400,
98,98,0,critical,dwh,35.0,4.0,upper,127.0,127.0,125.0,200.0,200.0,125.0,3,3.160306453704834,None,,,,,0,0,0,0,0,98,98,65,238.7754669189453,,,,,,,,,,,,,,,,,,,,,,,,,,,,,,,,,,,,,,,,,,,,,,,,,,,,,,,,,,,,,,,,,,,,,,,,,,,,,,,,,127.0,127.0,125.0,200.0,200.0,125.0,4.0,4.2,-260,-14,0,-262,258,5,238.76077437400818,238.76081371307373,238.76343536376953,238.7754669189453,238.92596554756165,238.92596554756165,238.92596554756165,238.92596554756165,238.92596554756165,238.92596554756165,238.92596554756165,241.9436333179474,3,3.160306453704834,None,,,,,,,,,,,,,,,,,,226,3,2025-03-10_13h25.03.802,comp,2024.2.4,61.22249274549988,2025-03-10 13h25.41.984271 -0400,
99,99,0,filler_square,None,None,None,None,None,None,None,None,None,None,1,0.9285593032836914,None,,,,,0,0,0,0,0,99,99,182,241.95920181274414,,,,,,,,,,,,,,,,,,,,,,,,,,,,,,,,,,,,,,,,,,,,,,,,,,,,,,,,,,,,,,,,,,,,,,,,,,,,,,,,,173.36924909925733,173.36924909925733,62.96418183153894,70.7684990776347,92.27881995742456,79.64528941727929,4.0,4.2,-218,-9,0,-266,171,16,241.9446804523468,241.94472193717957,241.94714045524597,241.95920181274414,242.1091604232788,242.1091604232788,242.1091604232788,242.1091604232788,242.1091604232788,242.1091604232788,242.1091604232788,242.8936309814453,1,0.9285593032836914,None,,,,,,,,,,,,,,,,,,226,3,2025-03-10_13h25.03.802,comp,2024.2.4,61.22249274549988,2025-03-10 13h25.41.984271 -0400,
100,100,0,critical,wdh,35.0,4.0,upper,125.0,200.0,127.0,127.0,200.0,125.0,3,0.963120698928833,None,,,,,0,0,0,0,0,100,100,77,242.90913033485413,,,,,,,,,,,,,,,,,,,,,,,,,,,,,,,,,,,,,,,,,,,,,,,,,,,,,,,,,,,,,,,,,,,,,,,,,,,,,,,,,125.0,200.0,127.0,127.0,200.0,125.0,4.0,4.1,-260,-251,0,10,222,-288,242.89443230628967,242.89447236061096,242.89681673049927,242.90913033485413,243.05903911590576,243.05903911590576,243.05903911590576,243.05903911590576,243.05903911590576,243.05903911590576,243.05903911590576,243.877037525177,3,0.963120698928833,None,,,,,,,,,,,,,,,,,,226,3,2025-03-10_13h25.03.802,comp,2024.2.4,61.22249274549988,2025-03-10 13h25.41.984271 -0400,
101,101,0,filler_square,None,None,None,None,None,None,None,None,None,None,2,1.6269536018371582,None,,,,,0,0,0,0,0,101,101,199,243.89264798164368,,,,,,,,,,,,,,,,,,,,,,,,,,,,,,,,,,,,,,,,,,,,,,,,,,,,,,,,,,,,,,,,,,,,,,,,,,,,,,,,,116.84873578763205,137.13850415173675,148.67243726232437,148.67243726232437,116.19355519064732,76.20276719689215,4.0,4.2,-239,0,0,-275,208,-12,243.8780255317688,243.87806725502014,243.88133263587952,243.89264798164368,244.0427885055542,244.0427885055542,244.0427885055542,244.0427885055542,244.0427885055542,244.0427885055542,244.0427885055542,245.526841878891,2,1.6269536018371582,None,,,,,,,,,,,,,,,,,,226,3,2025-03-10_13h25.03.802,comp,2024.2.4,61.22249274549988,2025-03-10 13h25.41.984271 -0400,
102,102,0,filler_square,None,None,None,None,None,None,None,None,None,None,2,1.18446946144104,None,,,,,0,0,0,0,0,102,102,174,245.5423800945282,,,,,,,,,,,,,,,,,,,,,,,,,,,,,,,,,,,,,,,,,,,,,,,,,,,,,,,,,,,,,,,,,,,,,,,,,,,,,,,,,86.28909729721265,160.694508085576,171.9489354887947,171.9489354887947,157.83265540014781,163.20546459366105,2.2,2.21,-262,-254,0,256,264,285,245.52777910232544,245.52781891822815,245.53040075302124,245.5423800945282,245.69250178337097,245.69250178337097,245.69250178337097,245.69250178337097,245.69250178337097,245.69250178337097,245.69250178337097,246.74353885650635,2,1.18446946144104,None,,,,,,,,,,,,,,,,,,226,3,2025-03-10_13h25.03.802,comp,2024.2.4,61.22249274549988,2025-03-10 13h25.41.984271 -0400,
103,103,0,critical,dwh,35.0,3.0,upper,127.0,127.0,125.0,200.0,200.0,125.0,3,2.098494052886963,None,,,,,0,0,0,0,0,103,103,63,246.75880026817322,,,,,,,,,,,,,,,,,,,,,,,,,,,,,,,,,,,,,,,,,,,,,,,,,,,,,,,,,,,,,,,,,,,,,,,,,,,,,,,,,127.0,127.0,125.0,200.0,200.0,125.0,3.0,3.1,-260,259,0,11,258,-264,246.74435377120972,246.74439191818237,246.74675154685974,246.75880026817322,246.90914583206177,246.90914583206177,246.90914583206177,246.90914583206177,246.90914583206177,246.90914583206177,246.90914583206177,248.8604838848114,3,2.098494052886963,None,,,,,,,,,,,,,,,,,,226,3,2025-03-10_13h25.03.802,comp,2024.2.4,61.22249274549988,2025-03-10 13h25.41.984271 -0400,
104,104,0,catch,None,None,None,None,None,None,None,None,None,None,1,0.8670980930328369,None,,,,,0,0,0,0,0,104,104,120,248.8758237361908,,,,,,,,,,,,,,,,,,,,,,,,,,,,,,,,,,,,,,,,,,,,,,,,,,,,,,,,,,,,,,,,,,,,,,,,,,,,,,,,,134,191,113,77,120,70,2.1,2.11,-230,274,0,254,170,-262,248.86151242256165,248.861554145813,248.8636326789856,248.8758237361908,249.02604174613953,249.02604174613953,249.02604174613953,249.02604174613953,249.02604174613953,249.02604174613953,249.02604174613953,249.76003313064575,1,0.8670980930328369,None,,,,,,,,,,,,,,,,,,226,3,2025-03-10_13h25.03.802,comp,2024.2.4,61.22249274549988,2025-03-10 13h25.41.984271 -0400,
105,105,0,critical,hdw,35.0,1.0,lower,133.0,57.0,70.0,70.0,57.0,133.0,1,2.6553032398223877,None,,,,,0,0,0,0,0,105,105,108,249.7754054069519,,,,,,,,,,,,,,,,,,,,,,,,,,,,,,,,,,,,,,,,,,,,,,,,,,,,,,,,,,,,,,,,,,,,,,,,,,,,,,,,,133.0,57.0,70.0,70.0,57.0,133.0,1.0,1.2,-160,-20,0,5,198,-15,249.76079416275024,249.76083278656006,249.7628207206726,249.7754054069519,249.92561316490173,249.92561316490173,249.92561316490173,249.92561316490173,249.92561316490173,249.92561316490173,249.92561316490173,252.4433946609497,1,2.6553032398223877,None,,,,,,,,,,,,,,,,,,226,3,2025-03-10_13h25.03.802,comp,2024.2.4,61.22249274549988,2025-03-10 13h25.41.984271 -0400,
106,106,0,critical,dwh,20.0,3.0,lower,78.0,78.0,57.0,133.0,133.0,57.0,3,1.7337565422058105,None,,,,,0,0,0,0,0,106,106,68,252.4587390422821,,,,,,,,,,,,,,,,,,,,,,,,,,,,,,,,,,,,,,,,,,,,,,,,,,,,,,,,,,,,,,,,,,,,,,,,,,,,,,,,,78.0,78.0,57.0,133.0,133.0,57.0,3.0,3.1,-202,253,0,-13,191,-280,252.44416093826294,252.4442000389099,252.44656229019165,252.4587390422821,252.60881328582764,252.60881328582764,252.60881328582764,252.60881328582764,252.60881328582764,252.60881328582764,252.60881328582764,254.21009707450867,3,1.7337565422058105,None,,,,,,,,,,,,,,,,,,226,3,2025-03-10_13h25.03.802,comp,2024.2.4,61.22249274549988,2025-03-10 13h25.41.984271 -0400,
107,107,0,filler_square,None,None,None,None,None,None,None,None,None,None,1,1.3834095001220703,None,,,,,0,0,0,0,0,107,107,204,254.22562098503113,,,,,,,,,,,,,,,,,,,,,,,,,,,,,,,,,,,,,,,,,,,,,,,,,,,,,,,,,,,,,,,,,,,,,,,,,,,,,,,,,128.10558151661192,128.10558151661192,72.92072032867578,82.76063949823032,68.63810939069383,73.75834867016427,2.2,2.21,-201,-264,0,268,174,257,254.21105432510376,254.21110606193542,254.21315336227417,254.22562098503113,254.37569904327393,254.37569904327393,254.37569904327393,254.37569904327393,254.37569904327393,254.37569904327393,254.37569904327393,255.61030983924866,1,1.3834095001220703,None,,,,,,,,,,,,,,,,,,226,3,2025-03-10_13h25.03.802,comp,2024.2.4,61.22249274549988,2025-03-10 13h25.41.984271 -0400,
108,108,0,filler_random,None,None,None,None,None,None,None,None,None,None,3,1.2690341472625732,None,,,,,0,0,0,0,0,108,108,154,255.62571454048157,,,,,,,,,,,,,,,,,,,,,,,,,,,,,,,,,,,,,,,,,,,,,,,,,,,,,,,,,,,,,,,,,,,,,,,,,,,,,,,,,87.678574492726,144.40599243587633,102.58004970260822,95.88977049537382,171.94662615074293,132.8308131865799,2.2,2.22,-216,261,0,-258,210,-257,255.61119198799133,255.61123037338257,255.61327815055847,255.62571454048157,255.77562046051025,255.77562046051025,255.77562046051025,255.77562046051025,255.77562046051025,255.77562046051025,255.77562046051025,256.9099659919739,3,1.2690341472625732,None,,,,,,,,,,,,,,,,,,226,3,2025-03-10_13h25.03.802,comp,2024.2.4,61.22249274549988,2025-03-10 13h25.41.984271 -0400,
109,109,0,filler_square,None,None,None,None,None,None,None,None,None,None,2,1.0264673233032227,None,,,,,0,0,0,0,0,109,109,184,256.92539978027344,,,,,,,,,,,,,,,,,,,,,,,,,,,,,,,,,,,,,,,,,,,,,,,,,,,,,,,,,,,,,,,,,,,,,,,,,,,,,,,,,78.70647382597183,66.29492463905112,173.07511002983827,173.07511002983827,113.92821826887092,107.93711619171128,1.0,1.2,-216,-1,0,-13,237,-15,256.9108967781067,256.91093730926514,256.9129674434662,256.92539978027344,257.07580947875977,257.07580947875977,257.07580947875977,257.07580947875977,257.07580947875977,257.07580947875977,257.07580947875977,257.9601535797119,2,1.0264673233032227,None,,,,,,,,,,,,,,,,,,226,3,2025-03-10_13h25.03.802,comp,2024.2.4,61.22249274549988,2025-03-10 13h25.41.984271 -0400,
110,110,0,filler_square,None,None,None,None,None,None,None,None,None,None,2,1.1279468536376953,None,,,,,0,0,0,0,0,110,110,176,257.9757454395294,,,,,,,,,,,,,,,,,,,,,,,,,,,,,,,,,,,,,,,,,,,,,,,,,,,,,,,,,,,,,,,,,,,,,,,,,,,,,,,,,72.8831535740598,91.28433949398715,151.87750598108383,151.87750598108383,109.565747101527,92.33163279633459,3.0,3.1,-218,281,0,-7,218,-252,257.96108746528625,257.9611294269562,257.9643828868866,257.9757454395294,258.1256694793701,258.1256694793701,258.1256694793701,258.1256694793701,258.1256694793701,258.1256694793701,258.1256694793701,259.1100733280182,2,1.1279468536376953,None,,,,,,,,,,,,,,,,,,226,3,2025-03-10_13h25.03.802,comp,2024.2.4,61.22249274549988,2025-03-10 13h25.41.984271 -0400,
111,111,0,filler_random,None,None,None,None,None,None,None,None,None,None,1,1.1378583908081055,None,,,,,0,0,0,0,0,111,111,144,259.1256775856018,,,,,,,,,,,,,,,,,,,,,,,,,,,,,,,,,,,,,,,,,,,,,,,,,,,,,,,,,,,,,,,,,,,,,,,,,,,,,,,,,76.63840146877408,177.71149911052345,97.88264863039203,83.31614284947813,57.99377576086145,114.46274206780464,3.0,3.2,-227,-288,0,7,195,285,259.1109890937805,259.11102867126465,259.1138870716095,259.1256775856018,259.2755105495453,259.2755105495453,259.2755105495453,259.2755105495453,259.2755105495453,259.2755105495453,259.2755105495453,260.27674436569214,1,1.1378583908081055,None,,,,,,,,,,,,,,,,,,226,3,2025-03-10_13h25.03.802,comp,2024.2.4,61.22249274549988,2025-03-10 13h25.41.984271 -0400,
112,112,0,filler_random,None,None,None,None,None,None,None,None,None,None,2,1.0837821960449219,None,,,,,0,0,0,0,0,112,112,164,260.2920067310333,,,,,,,,,,,,,,,,,,,,,,,,,,,,,,,,,,,,,,,,,,,,,,,,,,,,,,,,,,,,,,,,,,,,,,,,,,,,,,,,,88.81563925451329,66.82177135305636,94.16420377197613,151.84868523124362,85.87575194159527,104.82524470640192,1.0,1.2,-205,0,0,-5,224,3,260.277615070343,260.27765583992004,260.2801134586334,260.2920067310333,260.44229006767273,260.44229006767273,260.44229006767273,260.44229006767273,260.44229006767273,260.44229006767273,260.44229006767273,261.39331221580505,2,1.0837821960449219,None,,,,,,,,,,,,,,,,,,226,3,2025-03-10_13h25.03.802,comp,2024.2.4,61.22249274549988,2025-03-10 13h25.41.984271 -0400,
113,113,0,filler_random,None,None,None,None,None,None,None,None,None,None,3,1.2324752807617188,None,,,,,0,0,0,0,0,113,113,161,261.40869760513306,,,,,,,,,,,,,,,,,,,,,,,,,,,,,,,,,,,,,,,,,,,,,,,,,,,,,,,,,,,,,,,,,,,,,,,,,,,,,,,,,100.30918125074547,197.24195907299116,134.43822575926643,94.84392587889388,173.63273789212417,191.37232402393568,2.1,2.12,-242,-262,0,-267,239,261,261.39425683021545,261.3942971229553,261.39675092697144,261.40869760513306,261.55917739868164,261.55917739868164,261.55917739868164,261.55917739868164,261.55917739868164,261.55917739868164,261.55917739868164,262.64358496665955,3,1.2324752807617188,None,,,,,,,,,,,,,,,,,,226,3,2025-03-10_13h25.03.802,comp,2024.2.4,61.22249274549988,2025-03-10 13h25.41.984271 -0400,
114,114,0,filler_random,None,None,None,None,None,None,None,None,None,None,3,1.8131399154663086,None,,,,,0,0,0,0,0,114,114,132,262.6589479446411,,,,,,,,,,,,,,,,,,,,,,,,,,,,,,,,,,,,,,,,,,,,,,,,,,,,,,,,,,,,,,,,,,,,,,,,,,,,,,,,,116.48551736447817,140.71173038340882,79.70412797543341,166.4578075262726,145.71589777923634,113.00063732475904,3.0,3.1,-250,272,0,-2,236,-260,262.64445543289185,262.6444959640503,262.64662528038025,262.6589479446411,262.80893111228943,262.80893111228943,262.80893111228943,262.80893111228943,262.80893111228943,262.80893111228943,262.80893111228943,264.476989030838,3,1.8131399154663086,None,,,,,,,,,,,,,,,,,,226,3,2025-03-10_13h25.03.802,comp,2024.2.4,61.22249274549988,2025-03-10 13h25.41.984271 -0400,
115,115,0,critical,whd,35.0,3.0,upper,125.0,200.0,200.0,125.0,127.0,127.0,2,0.9796593189239502,None,,,,,0,0,0,0,0,115,115,87,264.492299079895,,,,,,,,,,,,,,,,,,,,,,,,,,,,,,,,,,,,,,,,,,,,,,,,,,,,,,,,,,,,,,,,,,,,,,,,,,,,,,,,,125.0,200.0,200.0,125.0,127.0,127.0,3.0,3.1,-258,281,0,5,222,-284,264.4777863025665,264.4778265953064,264.47989082336426,264.492299079895,264.64234709739685,264.64234709739685,264.64234709739685,264.64234709739685,264.64234709739685,264.64234709739685,264.64234709739685,265.4769480228424,2,0.9796593189239502,None,,,,,,,,,,,,,,,,,,226,3,2025-03-10_13h25.03.802,comp,2024.2.4,61.22249274549988,2025-03-10 13h25.41.984271 -0400,
116,116,0,filler_random,None,None,None,None,None,None,None,None,None,None,2,0.7488644123077393,None,,,,,0,0,0,0,0,116,116,134,265.4924986362457,,,,,,,,,,,,,,,,,,,,,,,,,,,,,,,,,,,,,,,,,,,,,,,,,,,,,,,,,,,,,,,,,,,,,,,,,,,,,,,,,140.32148931666507,140.03806116690987,180.82191419053441,111.61068957810932,114.05907421687905,115.55748293846163,1.0,1.2,-222,2,0,7,210,-8,265.4777979850769,265.47783875465393,265.4798529148102,265.4924986362457,265.6422770023346,265.6422770023346,265.6422770023346,265.6422770023346,265.6422770023346,265.6422770023346,265.6422770023346,266.2435896396637,2,0.7488644123077393,None,,,,,,,,,,,,,,,,,,226,3,2025-03-10_13h25.03.802,comp,2024.2.4,61.22249274549988,2025-03-10 13h25.41.984271 -0400,
117,117,0,critical,dwh,20.0,2.1,lower,78.0,78.0,57.0,133.0,133.0,57.0,3,1.044456958770752,None,,,,,0,0,0,0,0,117,117,30,266.25903129577637,,,,,,,,,,,,,,,,,,,,,,,,,,,,,,,,,,,,,,,,,,,,,,,,,,,,,,,,,,,,,,,,,,,,,,,,,,,,,,,,,78.0,78.0,57.0,133.0,133.0,57.0,2.1,2.11,-202,290,0,269,191,-282,266.24438548088074,266.2444260120392,266.2464997768402,266.25903129577637,266.4091589450836,266.4091589450836,266.4091589450836,266.4091589450836,266.4091589450836,266.4091589450836,266.4091589450836,267.3099477291107,3,1.044456958770752,None,,,,,,,,,,,,,,,,,,226,3,2025-03-10_13h25.03.802,comp,2024.2.4,61.22249274549988,2025-03-10 13h25.41.984271 -0400,
118,118,0,critical,whd,35.0,4.0,lower,57.0,133.0,133.0,57.0,70.0,70.0,2,1.1049931049346924,None,,,,,0,0,0,0,0,118,118,88,267.32564067840576,,,,,,,,,,,,,,,,,,,,,,,,,,,,,,,,,,,,,,,,,,,,,,,,,,,,,,,,,,,,,,,,,,,,,,,,,,,,,,,,,57.0,133.0,133.0,57.0,70.0,70.0,4.0,4.2,-191,-9,0,-282,160,2,267.3107304573059,267.31077218055725,267.3132915496826,267.32564067840576,267.47547602653503,267.47547602653503,267.47547602653503,267.47547602653503,267.47547602653503,267.47547602653503,267.47547602653503,268.44378876686096,2,1.1049931049346924,None,,,,,,,,,,,,,,,,,,226,3,2025-03-10_13h25.03.802,comp,2024.2.4,61.22249274549988,2025-03-10 13h25.41.984271 -0400,
119,119,0,critical,hdw,20.0,2.1,upper,200.0,125.0,141.0,141.0,125.0,200.0,1,1.6199798583984375,None,,,,,0,0,0,0,0,119,119,23,268.45884346961975,,,,,,,,,,,,,,,,,,,,,,,,,,,,,,,,,,,,,,,,,,,,,,,,,,,,,,,,,,,,,,,,,,,,,,,,,,,,,,,,,200.0,125.0,141.0,141.0,125.0,200.0,2.1,2.12,-229,-266,0,-260,266,273,268.44477558135986,268.4448182582855,268.4469676017761,268.45884346961975,268.6090364456177,268.6090364456177,268.6090364456177,268.6090364456177,268.6090364456177,268.6090364456177,268.6090364456177,270.09339928627014,1,1.6199798583984375,None,,,,,,,,,,,,,,,,,,226,3,2025-03-10_13h25.03.802,comp,2024.2.4,61.22249274549988,2025-03-10 13h25.41.984271 -0400,
120,120,0,critical,wdh,35.0,3.0,lower,57.0,133.0,70.0,70.0,133.0,57.0,3,2.4430949687957764,None,,,,,0,0,0,0,0,120,120,74,270.10863876342773,,,,,,,,,,,,,,,,,,,,,,,,,,,,,,,,,,,,,,,,,,,,,,,,,,,,,,,,,,,,,,,,,,,,,,,,,,,,,,,,,57.0,133.0,70.0,70.0,133.0,57.0,3.0,3.1,-198,263,0,18,160,-256,270.0942072868347,270.0942471027374,270.0966250896454,270.10863876342773,270.2589325904846,270.2589325904846,270.2589325904846,270.2589325904846,270.2589325904846,270.2589325904846,270.2589325904846,272.5599298477173,3,2.4430949687957764,None,,,,,,,,,,,,,,,,,,226,3,2025-03-10_13h25.03.802,comp,2024.2.4,61.22249274549988,2025-03-10 13h25.41.984271 -0400,
121,121,0,filler_square,None,None,None,None,None,None,None,None,None,None,1,1.2245094776153564,None,,,,,0,0,0,0,0,121,121,209,272.57565474510193,,,,,,,,,,,,,,,,,,,,,,,,,,,,,,,,,,,,,,,,,,,,,,,,,,,,,,,,,,,,,,,,,,,,,,,,,,,,,,,,,64.85416856419137,87.98851321634072,63.96901042484171,90.3555528510026,181.25037994445165,181.25037994445165,2.1,2.11,-185,273,0,263,232,-258,272.5609481334686,272.5609893798828,272.56361532211304,272.57565474510193,272.72565817832947,272.72565817832947,272.72565817832947,272.72565817832947,272.72565817832947,272.72565817832947,272.72565817832947,273.8100543022156,1,1.2245094776153564,None,,,,,,,,,,,,,,,,,,226,3,2025-03-10_13h25.03.802,comp,2024.2.4,61.22249274549988,2025-03-10 13h25.41.984271 -0400,
122,122,0,filler_square,None,None,None,None,None,None,None,None,None,None,1,1.0312330722808838,None,,,,,0,0,0,0,0,122,122,202,273.82559275627136,,,,,,,,,,,,,,,,,,,,,,,,,,,,,,,,,,,,,,,,,,,,,,,,,,,,,,,,,,,,,,,,,,,,,,,,,,,,,,,,,81.41865205169715,59.31665888812513,91.69164086854852,78.55410928149942,128.08763927202062,128.08763927202062,2.1,2.11,-165,268,0,280,199,-277,273.8110010623932,273.81104254722595,273.81321597099304,273.82559275627136,273.9757227897644,273.9757227897644,273.9757227897644,273.9757227897644,273.9757227897644,273.9757227897644,273.9757227897644,274.8600263595581,1,1.0312330722808838,None,,,,,,,,,,,,,,,,,,226,3,2025-03-10_13h25.03.802,comp,2024.2.4,61.22249274549988,2025-03-10 13h25.41.984271 -0400,
123,123,0,filler_random,None,None,None,None,None,None,None,None,None,None,1,0.9390785694122314,None,,,,,0,0,0,0,0,123,123,167,274.8755190372467,,,,,,,,,,,,,,,,,,,,,,,,,,,,,,,,,,,,,,,,,,,,,,,,,,,,,,,,,,,,,,,,,,,,,,,,,,,,,,,,,169.35381867614024,84.93623416592736,193.51056176818196,168.14034162913856,143.6698483281229,81.94562348232438,3.0,3.1,-223,284,0,0,221,-252,274.86105704307556,274.8611123561859,274.86335492134094,274.8755190372467,275.02561497688293,275.02561497688293,275.02561497688293,275.02561497688293,275.02561497688293,275.02561497688293,275.02561497688293,275.8265986442566,1,0.9390785694122314,None,,,,,,,,,,,,,,,,,,226,3,2025-03-10_13h25.03.802,comp,2024.2.4,61.22249274549988,2025-03-10 13h25.41.984271 -0400,
124,124,0,critical,dhw,35.0,2.1,upper,127.0,127.0,200.0,125.0,125.0,200.0,2,1.8297407627105713,None,,,,,0,0,0,0,0,124,124,25,275.84201192855835,,,,,,,,,,,,,,,,,,,,,,,,,,,,,,,,,,,,,,,,,,,,,,,,,,,,,,,,,,,,,,,,,,,,,,,,,,,,,,,,,127.0,127.0,200.0,125.0,125.0,200.0,2.1,2.12,-222,-278,0,-265,258,264,275.8276798725128,275.8277189731598,275.82973170280457,275.84201192855835,275.9925274848938,275.9925274848938,275.9925274848938,275.9925274848938,275.9925274848938,275.9925274848938,275.9925274848938,277.6767737865448,2,1.8297407627105713,None,,,,,,,,,,,,,,,,,,226,3,2025-03-10_13h25.03.802,comp,2024.2.4,61.22249274549988,2025-03-10 13h25.41.984271 -0400,
125,125,0,critical,dwh,20.0,1.0,lower,78.0,78.0,57.0,133.0,133.0,57.0,3,1.0593326091766357,None,,,,,0,0,0,0,0,125,125,66,277.69214153289795,,,,,,,,,,,,,,,,,,,,,,,,,,,,,,,,,,,,,,,,,,,,,,,,,,,,,,,,,,,,,,,,,,,,,,,,,,,,,,,,,78.0,78.0,57.0,133.0,133.0,57.0,1.0,1.3,278,-255,480,-258,671,-266,277.67757844924927,277.677618265152,277.6801679134369,277.69214153289795,277.8421528339386,277.8421528339386,277.8421528339386,277.8421528339386,277.8421528339386,277.8421528339386,277.8421528339386,278.7597246170044,3,1.0593326091766357,None,,,,,,,,,,,,,,,,,,226,3,2025-03-10_13h25.03.802,comp,2024.2.4,61.22249274549988,2025-03-10 13h25.41.984271 -0400,
126,126,0,critical,whd,35.0,4.0,upper,125.0,200.0,200.0,125.0,127.0,127.0,2,0.8498644828796387,None,,,,,0,0,0,0,0,126,126,89,278.7755308151245,,,,,,,,,,,,,,,,,,,,,,,,,,,,,,,,,,,,,,,,,,,,,,,,,,,,,,,,,,,,,,,,,,,,,,,,,,,,,,,,,125.0,200.0,200.0,125.0,127.0,127.0,4.0,4.1,-258,-275,0,-14,222,-273,278.76048040390015,278.7605197429657,278.7630064487457,278.7755308151245,278.9256248474121,278.9256248474121,278.9256248474121,278.9256248474121,278.9256248474121,278.9256248474121,278.9256248474121,279.6269257068634,2,0.8498644828796387,None,,,,,,,,,,,,,,,,,,226,3,2025-03-10_13h25.03.802,comp,2024.2.4,61.22249274549988,2025-03-10 13h25.41.984271 -0400,
127,127,0,filler_random,None,None,None,None,None,None,None,None,None,None,2,0.8685941696166992,None,,,,,0,0,0,0,0,127,127,140,279.64214396476746,,,,,,,,,,,,,,,,,,,,,,,,,,,,,,,,,,,,,,,,,,,,,,,,,,,,,,,,,,,,,,,,,,,,,,,,,,,,,,,,,72.3360839484539,121.47312752811006,182.92070924742313,73.94654801572112,65.01245826686566,165.97692567974863,3.0,3.2,-194,-274,0,-16,216,257,279.62785625457764,279.62789607048035,279.6305000782013,279.64214396476746,279.7920660972595,279.7920660972595,279.7920660972595,279.7920660972595,279.7920660972595,279.7920660972595,279.7920660972595,280.52647519111633,2,0.8685941696166992,None,,,,,,,,,,,,,,,,,,226,3,2025-03-10_13h25.03.802,comp,2024.2.4,61.22249274549988,2025-03-10 13h25.41.984271 -0400,
128,128,0,filler_square,None,None,None,None,None,None,None,None,None,None,2,3.384643316268921,None,,,,,0,0,0,0,0,128,128,191,280.54198837280273,,,,,,,,,,,,,,,,,,,,,,,,,,,,,,,,,,,,,,,,,,,,,,,,,,,,,,,,,,,,,,,,,,,,,,,,,,,,,,,,,82.69271496085418,78.24665455684564,85.83474791658729,85.83474791658729,84.54379843735404,78.05912037392035,4.0,4.1,-178,-281,0,-2,178,-269,280.5274155139923,280.52745509147644,280.5298418998718,280.54198837280273,280.69214129447937,280.69214129447937,280.69214129447937,280.69214129447937,280.69214129447937,280.69214129447937,280.69214129447937,283.94304752349854,2,3.384643316268921,None,,,,,,,,,,,,,,,,,,226,3,2025-03-10_13h25.03.802,comp,2024.2.4,61.22249274549988,2025-03-10 13h25.41.984271 -0400,
129,129,0,critical,dhw,35.0,4.0,lower,70.0,70.0,133.0,57.0,57.0,133.0,2,1.1200594902038574,None,,,,,0,0,0,0,0,129,129,52,283.9585762023926,,,,,,,,,,,,,,,,,,,,,,,,,,,,,,,,,,,,,,,,,,,,,,,,,,,,,,,,,,,,,,,,,,,,,,,,,,,,,,,,,70.0,70.0,133.0,57.0,57.0,133.0,4.0,4.2,-160,-11,0,-257,191,8,283.94383358955383,283.9438741207123,283.9462044239044,283.9585762023926,284.1086058616638,284.1086058616638,284.1086058616638,284.1086058616638,284.1086058616638,284.1086058616638,284.1086058616638,285.09317803382874,2,1.1200594902038574,None,,,,,,,,,,,,,,,,,,226,3,2025-03-10_13h25.03.802,comp,2024.2.4,61.22249274549988,2025-03-10 13h25.41.984271 -0400,
130,130,0,filler_random,None,None,None,None,None,None,None,None,None,None,3,0.932544469833374,None,,,,,0,0,0,0,0,130,130,137,285.1084613800049,,,,,,,,,,,,,,,,,,,,,,,,,,,,,,,,,,,,,,,,,,,,,,,,,,,,,,,,,,,,,,,,,,,,,,,,,,,,,,,,,92.01620039801011,186.9002078705041,99.46876627881221,107.5857630561367,187.18424532859794,112.61761404204776,2.1,2.12,-243,-278,0,-289,206,276,285.0940408706665,285.0940923690796,285.0964605808258,285.1084613800049,285.2588596343994,285.2588596343994,285.2588596343994,285.2588596343994,285.2588596343994,285.2588596343994,285.2588596343994,286.0433533191681,3,0.932544469833374,None,,,,,,,,,,,,,,,,,,226,3,2025-03-10_13h25.03.802,comp,2024.2.4,61.22249274549988,2025-03-10 13h25.41.984271 -0400,
131,131,0,critical,wdh,35.0,2.1,lower,57.0,133.0,70.0,70.0,133.0,57.0,3,1.2447197437286377,None,,,,,0,0,0,0,0,131,131,8,286.0587065219879,,,,,,,,,,,,,,,,,,,,,,,,,,,,,,,,,,,,,,,,,,,,,,,,,,,,,,,,,,,,,,,,,,,,,,,,,,,,,,,,,57.0,133.0,70.0,70.0,133.0,57.0,2.1,2.12,-198,-260,0,-285,160,262,286.04408955574036,286.04412865638733,286.04616832733154,286.0587065219879,286.2087013721466,286.2087013721466,286.2087013721466,286.2087013721466,286.2087013721466,286.2087013721466,286.2087013721466,287.3099308013916,3,1.2447197437286377,None,,,,,,,,,,,,,,,,,,226,3,2025-03-10_13h25.03.802,comp,2024.2.4,61.22249274549988,2025-03-10 13h25.41.984271 -0400,
132,132,0,filler_square,None,None,None,None,None,None,None,None,None,None,1,1.433539867401123,None,,,,,0,0,0,0,0,132,132,179,287.3255236148834,,,,,,,,,,,,,,,,,,,,,,,,,,,,,,,,,,,,,,,,,,,,,,,,,,,,,,,,,,,,,,,,,,,,,,,,,,,,,,,,,103.13500293948366,66.63504439513216,73.55727556741397,89.38857363280343,142.52048292073388,142.52048292073388,2.2,2.22,-174,278,0,-269,212,-270,287.31088280677795,287.3109230995178,287.31345653533936,287.3255236148834,287.47535824775696,287.47535824775696,287.47535824775696,287.47535824775696,287.47535824775696,287.47535824775696,287.47535824775696,288.7763934135437,1,1.433539867401123,None,,,,,,,,,,,,,,,,,,226,3,2025-03-10_13h25.03.802,comp,2024.2.4,61.22249274549988,2025-03-10 13h25.41.984271 -0400,
133,133,0,filler_square,None,None,None,None,None,None,None,None,None,None,2,1.0954818725585938,None,,,,,0,0,0,0,0,133,133,175,288.79187750816345,,,,,,,,,,,,,,,,,,,,,,,,,,,,,,,,,,,,,,,,,,,,,,,,,,,,,,,,,,,,,,,,,,,,,,,,,,,,,,,,,176.76957978112284,176.76957978112284,67.03977541529797,114.92007541949354,98.74519740902517,160.9733936094556,2.1,2.12,-242,-258,0,-285,234,277,288.7773160934448,288.7773530483246,288.77970361709595,288.79187750816345,288.94226908683777,288.94226908683777,288.94226908683777,288.94226908683777,288.94226908683777,288.94226908683777,288.94226908683777,289.89325523376465,2,1.0954818725585938,None,,,,,,,,,,,,,,,,,,226,3,2025-03-10_13h25.03.802,comp,2024.2.4,61.22249274549988,2025-03-10 13h25.41.984271 -0400,
134,134,0,critical,dwh,20.0,3.0,upper,141.0,141.0,125.0,200.0,200.0,125.0,3,1.8996031284332275,None,,,,,0,0,0,0,0,134,134,69,289.9090301990509,,,,,,,,,,,,,,,,,,,,,,,,,,,,,,,,,,,,,,,,,,,,,,,,,,,,,,,,,,,,,,,,,,,,,,,,,,,,,,,,,141.0,141.0,125.0,200.0,200.0,125.0,3.0,3.2,-266,-264,0,-4,258,286,289.8940181732178,289.8940579891205,289.896146774292,289.9090301990509,290.0588688850403,290.0588688850403,290.0588688850403,290.0588688850403,290.0588688850403,290.0588688850403,290.0588688850403,291.81020188331604,3,1.8996031284332275,None,,,,,,,,,,,,,,,,,,226,3,2025-03-10_13h25.03.802,comp,2024.2.4,61.22249274549988,2025-03-10 13h25.41.984271 -0400,
135,135,0,catch,None,None,None,None,None,None,None,None,None,None,3,1.2377324104309082,None,,,,,0,0,0,0,0,135,135,129,291.8254940509796,,,,,,,,,,,,,,,,,,,,,,,,,,,,,,,,,,,,,,,,,,,,,,,,,,,,,,,,,,,,,,,,,,,,,,,,,,,,,,,,,133,192,68,122,133,57,2.2,2.22,-253,278,0,-276,186,-288,291.8112049102783,291.81124353408813,291.8132474422455,291.8254940509796,291.9754989147186,291.9754989147186,291.9754989147186,291.9754989147186,291.9754989147186,291.9754989147186,291.9754989147186,293.07646131515503,3,1.2377324104309082,None,,,,,,,,,,,,,,,,,,226,3,2025-03-10_13h25.03.802,comp,2024.2.4,61.22249274549988,2025-03-10 13h25.41.984271 -0400,
136,136,0,filler_square,None,None,None,None,None,None,None,None,None,None,3,2.0275659561157227,None,,,,,0,0,0,0,0,136,136,190,293.09178280830383,,,,,,,,,,,,,,,,,,,,,,,,,,,,,,,,,,,,,,,,,,,,,,,,,,,,,,,,,,,,,,,,,,,,,,,,,,,,,,,,,129.9243500139724,112.87433637865081,122.42609972355743,69.87779057930351,132.6800047075909,132.6800047075909,1.0,1.3,293,-260,480,-262,677,-256,293.07737708091736,293.0774157047272,293.0797801017761,293.09178280830383,293.24250864982605,293.24250864982605,293.24250864982605,293.24250864982605,293.24250864982605,293.24250864982605,293.24250864982605,295.1266314983368,3,2.0275659561157227,None,,,,,,,,,,,,,,,,,,226,3,2025-03-10_13h25.03.802,comp,2024.2.4,61.22249274549988,2025-03-10 13h25.41.984271 -0400,
137,137,0,catch,None,None,None,None,None,None,None,None,None,None,2,1.000246286392212,None,,,,,0,0,0,0,0,137,137,125,295.1423587799072,,,,,,,,,,,,,,,,,,,,,,,,,,,,,,,,,,,,,,,,,,,,,,,,,,,,,,,,,,,,,,,,,,,,,,,,,,,,,,,,,84,106,189,136,77,113,2.2,2.21,-217,-260,0,254,220,253,295.1276972293854,295.12773966789246,295.13026189804077,295.1423587799072,295.2921462059021,295.2921462059021,295.2921462059021,295.2921462059021,295.2921462059021,295.2921462059021,295.2921462059021,296.1597566604614,2,1.000246286392212,None,,,,,,,,,,,,,,,,,,226,3,2025-03-10_13h25.03.802,comp,2024.2.4,61.22249274549988,2025-03-10 13h25.41.984271 -0400,
138,138,0,critical,whd,35.0,2.1,lower,57.0,133.0,133.0,57.0,70.0,70.0,2,1.1204025745391846,None,,,,,0,0,0,0,0,138,138,36,296.17513847351074,,,,,,,,,,,,,,,,,,,,,,,,,,,,,,,,,,,,,,,,,,,,,,,,,,,,,,,,,,,,,,,,,,,,,,,,,,,,,,,,,57.0,133.0,133.0,57.0,70.0,70.0,2.1,2.12,-191,-252,0,-264,160,263,296.16049695014954,296.1605348587036,296.1629581451416,296.17513847351074,296.3256757259369,296.3256757259369,296.3256757259369,296.3256757259369,296.3256757259369,296.3256757259369,296.3256757259369,297.30977392196655,2,1.1204025745391846,None,,,,,,,,,,,,,,,,,,226,3,2025-03-10_13h25.03.802,comp,2024.2.4,61.22249274549988,2025-03-10 13h25.41.984271 -0400,
139,139,0,critical,dhw,35.0,3.0,upper,127.0,127.0,200.0,125.0,125.0,200.0,3,1.4506804943084717,None,,,,,0,0,0,0,0,139,139,51,297.325101852417,,,,,,,,,,,,,,,,,,,,,,,,,,,,,,,,,,,,,,,,,,,,,,,,,,,,,,,,,,,,,,,,,,,,,,,,,,,,,,,,,127.0,127.0,200.0,125.0,125.0,200.0,3.0,3.1,-222,252,0,-11,258,-264,297.3105556964874,297.3105962276459,297.31307554244995,297.325101852417,297.4759759902954,297.4759759902954,297.4759759902954,297.4759759902954,297.4759759902954,297.4759759902954,297.4759759902954,298.77702951431274,3,1.4506804943084717,None,,,,,,,,,,,,,,,,,,226,3,2025-03-10_13h25.03.802,comp,2024.2.4,61.22249274549988,2025-03-10 13h25.41.984271 -0400,
