thisN,thisTrialN,thisRepN,effect,order,distance,config,diag,h_1,w_1,h_2,w_2,h_3,w_3,rect_choice.keys,rect_choice.rt,rect_choice.duration,instructions_loop.thisRepN,instructions_loop.thisTrialN,instructions_loop.thisN,instructions_loop.thisIndex,blocks.thisRepN,blocks.thisTrialN,blocks.thisN,blocks.thisIndex,trials.thisRepN,trials.thisTrialN,trials.thisN,trials.thisIndex,thisRow.t,notes,consent.started,agree_button.started,decline_button.started,consent_img.started,mouse.started,consent.stopped,agree_button.numClicks,agree_button.timesOn,agree_button.timesOff,decline_button.numClicks,decline_button.timesOn,decline_button.timesOff,mouse.x,mouse.y,mouse.leftButton,mouse.midButton,mouse.rightButton,mouse.time,mouse.clicked_name,exp_params.started,exp_params.stopped,welcome.started,welcome_text.started,welcome.stopped,instructions_1.started,instructions_1_text_1.started,instructions_1_text_2.started,key_resp.started,instructions_1.stopped,instructions_loop.key_resp.keys,instructions_loop.key_resp.rt,instructions_loop.key_resp.duration,instructions_2.started,instructions_2_text_1.started,instructions_2_text_2.started,key_resp_2.started,instructions_2.stopped,instructions_loop.key_resp_2.keys,instructions_loop.key_resp_2.rt,instructions_loop.key_resp_2.duration,instructions_3.started,instructions_3_text_1.started,r1_instr3.started,r2_instr3.started,r3_instr3.started,r1_instr3_label.started,r2_instr3_label.started,r3_instr3_label.started,instructions_3_text_3.started,instructions_3_text_4.started,key_resp_3.started,instructions_3.stopped,instructions_loop.key_resp_3.keys,instructions_loop.key_resp_3.rt,instructions_loop.key_resp_3.duration,instructions_4.started,instructions_4_text_1.started,instructions_4_text_3.started,instructions_4_text_2.started,key_resp_4.started,instructions_4.stopped,instructions_loop.key_resp_4.keys,instructions_loop.key_resp_4.rt,instructions_loop.key_resp_4.duration,instructions_5.started,instructions_5_text_1.started,instructions_5_text_2.started,key_resp_5.started,instructions_5.stopped,instructions_loop.key_resp_5.keys,instructions_loop.key_resp_5.rt,instructions_loop.key_resp_5.duration,start_exp.started,start_exp_text.started,key_resp_6.started,start_exp.stopped,key_resp_6.keys,key_resp_6.rt,key_resp_6.duration,h_1_tmp,w_1_tmp,h_2_tmp,w_2_tmp,h_3_tmp,w_3_tmp,config_tmp,config_tmp_1,r_1_x,r_1_y,r_2_x,r_2_y,r_3_x,r_3_y,pre_trial.started,pre_trial.stopped,choice_trial.started,rect_choice.started,r_1.started,r_2.started,r_3.started,r_1_label.started,r_2_label.started,r_3_label.started,prompt.started,choice_trial.stopped,trials.rect_choice.keys,trials.rect_choice.rt,trials.rect_choice.duration,end_block.started,end_block_text.started,end_block.stopped,end.started,end_text.started,key_resp_7.started,end.stopped,key_resp_7.keys,key_resp_7.rt,key_resp_7.duration,debriefing.started,debrief_form.started,end_debrief.started,debriefing.stopped,end_debrief.keys,end_debrief.rt,end_debrief.duration,participant,computer,date,expName,psychopyVersion,frameRate,expStart,
,,,,,,,,,,,,,,,,,,,,,,,,,,,,,,,0.019437313079833984,0.03945159912109375,0.03945159912109375,0.03945159912109375,0.019238710403442383,61.87103986740112,1,[61.82882905006409],[61.82885146141052],0,,,[-104.0],[-498.0],[1],[0],[0],[61.85116243362427],['agree_button'],,,,,,,,,,,,,,,,,,,,,,,,,,,,,,,,,,,,,,,,,,,,,,,,,,,,,,,,,,,,,,,,,,,,,,,,,,,,,,,,,,,,,,,,,,,,,,,,,,,,,,,,,,,227,1,2025-03-11_09h58.25.944,comp,2024.2.4,None,2025-03-11 09h58.41.342548 -0400,
,,,,,,,,,,,,,,,,,,,,,,,,,,,,,,,,,,,,,,,,,,,,,,,,,,61.87170600891113,61.8717782497406,,,,,,,,,,,,,,,,,,,,,,,,,,,,,,,,,,,,,,,,,,,,,,,,,,,,,,,,,,,,,,,,,,,,,,,,,,,,,,,,,,,,,,,,,,,,,,,,,,,,,,,,,227,1,2025-03-11_09h58.25.944,comp,2024.2.4,None,2025-03-11 09h58.41.342548 -0400,
,,,,,,,,,,,,,,,,,,,,,,,,,,,,,,,,,,,,,,,,,,,,,,,,,,,,61.871824502944946,61.88884711265564,63.88134694099426,,,,,,,,,,,,,,,,,,,,,,,,,,,,,,,,,,,,,,,,,,,,,,,,,,,,,,,,,,,,,,,,,,,,,,,,,,,,,,,,,,,,,,,,,,,,,,,,,,,,,,227,1,2025-03-11_09h58.25.944,comp,2024.2.4,None,2025-03-11 09h58.41.342548 -0400,
0,0,0,,,,,,,,,,,,,,,0,0,0,0,,,,,,,,,63.89814567565918,,,,,,,,,,,,,,,,,,,,,,,,,,63.882262229919434,63.89814567565918,63.89814567565918,65.38297653198242,70.11949515342712,space,4.727938652038574,None,70.11968445777893,70.13617539405823,70.13617539405823,71.6349663734436,82.09028196334839,space,10.451274156570435,None,82.09043288230896,82.1190710067749,82.1190710067749,82.1190710067749,82.1190710067749,82.1190710067749,82.1190710067749,82.1190710067749,82.1190710067749,82.1190710067749,83.59194040298462,87.53667569160461,space,3.926826000213623,None,87.53685092926025,87.55293035507202,87.55293035507202,87.55293035507202,89.04027199745178,93.87732195854187,space,4.830421686172485,None,93.87748694419861,93.89738249778748,93.89738249778748,95.39480948448181,96.478200674057,space,1.0758795738220215,None,96.47840523719788,96.49242615699768,96.49242615699768,98.37807440757751,space,1.8747875690460205,None,,,,,,,,,,,,,,,,,,,,,,,,,,,,,,,,,,,,,,,,,,,,,,,227,1,2025-03-11_09h58.25.944,comp,2024.2.4,None,2025-03-11 09h58.41.342548 -0400,
0,0,0,critical,hdw,35.0,2.1,upper,200.0,125.0,127.0,127.0,125.0,200.0,3,4.028128623962402,None,,,,,0,0,0,0,0,0,0,45,98.45935130119324,,,,,,,,,,,,,,,,,,,,,,,,,,,,,,,,,,,,,,,,,,,,,,,,,,,,,,,,,,,,,,,,,,,,,,,,,,,,,,,,,200.0,125.0,127.0,127.0,125.0,200.0,2.1,2.11,-222,284,0,269,260,-259,98.44191408157349,98.44199204444885,98.44370293617249,98.45935130119324,98.60634541511536,98.60634541511536,98.60634541511536,98.60634541511536,98.60634541511536,98.60634541511536,98.60634541511536,102.49679589271545,3,4.028128623962402,None,,,,,,,,,,,,,,,,,,227,1,2025-03-11_09h58.25.944,comp,2024.2.4,None,2025-03-11 09h58.41.342548 -0400,
1,1,0,critical,dhw,35.0,1.0,upper,127.0,127.0,200.0,125.0,125.0,200.0,2,3.33268404006958,None,,,,,0,0,0,0,0,1,1,49,102.51360607147217,,,,,,,,,,,,,,,,,,,,,,,,,,,,,,,,,,,,,,,,,,,,,,,,,,,,,,,,,,,,,,,,,,,,,,,,,,,,,,,,,127.0,127.0,200.0,125.0,125.0,200.0,1.0,1.2,-222,7,0,0,258,3,102.49848008155823,102.49856162071228,102.50237584114075,102.51360607147217,102.67081046104431,102.67081046104431,102.67081046104431,102.67081046104431,102.67081046104431,102.67081046104431,102.67081046104431,105.86363077163696,2,3.33268404006958,None,,,,,,,,,,,,,,,,,,227,1,2025-03-11_09h58.25.944,comp,2024.2.4,None,2025-03-11 09h58.41.342548 -0400,
2,2,0,filler_square,None,None,None,None,None,None,None,None,None,None,1,1.864126443862915,None,,,,,0,0,0,0,0,2,2,209,105.91030526161194,,,,,,,,,,,,,,,,,,,,,,,,,,,,,,,,,,,,,,,,,,,,,,,,,,,,,,,,,,,,,,,,,,,,,,,,,,,,,,,,,151.2655054340185,151.2655054340185,108.23111007194578,146.5892827573265,126.65437661131618,88.46273025852835,2.1,2.11,-245,274,0,282,214,-271,105.86586928367615,105.8659565448761,105.8696939945221,105.91030526161194,106.02866959571838,106.02866959571838,106.02866959571838,106.02866959571838,106.02866959571838,106.02866959571838,106.02866959571838,107.78813648223877,1,1.864126443862915,None,,,,,,,,,,,,,,,,,,227,1,2025-03-11_09h58.25.944,comp,2024.2.4,None,2025-03-11 09h58.41.342548 -0400,
3,3,0,critical,whd,35.0,4.0,upper,125.0,200.0,200.0,125.0,127.0,127.0,1,2.4966440200805664,None,,,,,0,0,0,0,0,3,3,89,107.80571413040161,,,,,,,,,,,,,,,,,,,,,,,,,,,,,,,,,,,,,,,,,,,,,,,,,,,,,,,,,,,,,,,,,,,,,,,,,,,,,,,,,125.0,200.0,200.0,125.0,127.0,127.0,4.0,4.2,-258,7,0,-260,222,4,107.7897253036499,107.78980255126953,107.79284119606018,107.80571413040161,107.94916009902954,107.94916009902954,107.94916009902954,107.94916009902954,107.94916009902954,107.94916009902954,107.94916009902954,110.31785202026367,1,2.4966440200805664,None,,,,,,,,,,,,,,,,,,227,1,2025-03-11_09h58.25.944,comp,2024.2.4,None,2025-03-11 09h58.41.342548 -0400,
4,4,0,critical,whd,20.0,3.0,lower,57.0,133.0,133.0,57.0,78.0,78.0,2,5.961765766143799,None,,,,,0,0,0,0,0,4,4,92,110.33335041999817,,,,,,,,,,,,,,,,,,,,,,,,,,,,,,,,,,,,,,,,,,,,,,,,,,,,,,,,,,,,,,,,,,,,,,,,,,,,,,,,,57.0,133.0,133.0,57.0,78.0,78.0,3.0,3.1,-191,264,0,6,164,-289,110.31953072547913,110.31966042518616,110.32299542427063,110.33335041999817,110.47001791000366,110.47001791000366,110.47001791000366,110.47001791000366,110.47001791000366,110.47001791000366,110.47001791000366,116.29867458343506,2,5.961765766143799,None,,,,,,,,,,,,,,,,,,227,1,2025-03-11_09h58.25.944,comp,2024.2.4,None,2025-03-11 09h58.41.342548 -0400,
5,5,0,critical,hdw,35.0,4.0,upper,200.0,125.0,127.0,127.0,125.0,200.0,1,3.4689273834228516,None,,,,,0,0,0,0,0,5,5,113,116.31441640853882,,,,,,,,,,,,,,,,,,,,,,,,,,,,,,,,,,,,,,,,,,,,,,,,,,,,,,,,,,,,,,,,,,,,,,,,,,,,,,,,,200.0,125.0,127.0,127.0,125.0,200.0,4.0,4.2,-222,-1,0,-253,260,-4,116.30023336410522,116.30031442642212,116.30335640907288,116.31441640853882,116.4563627243042,116.4563627243042,116.4563627243042,116.4563627243042,116.4563627243042,116.4563627243042,116.4563627243042,119.78972148895264,1,3.4689273834228516,None,,,,,,,,,,,,,,,,,,227,1,2025-03-11_09h58.25.944,comp,2024.2.4,None,2025-03-11 09h58.41.342548 -0400,
6,6,0,critical,dwh,20.0,1.0,lower,78.0,78.0,57.0,133.0,133.0,57.0,3,2.716029644012451,None,,,,,0,0,0,0,0,6,6,66,119.81022024154663,,,,,,,,,,,,,,,,,,,,,,,,,,,,,,,,,,,,,,,,,,,,,,,,,,,,,,,,,,,,,,,,,,,,,,,,,,,,,,,,,78.0,78.0,57.0,133.0,133.0,57.0,1.0,1.2,-202,5,0,-1,191,13,119.79127264022827,119.79135537147522,119.7944803237915,119.81022024154663,119.95168972015381,119.95168972015381,119.95168972015381,119.95168972015381,119.95168972015381,119.95168972015381,119.95168972015381,122.54154801368713,3,2.716029644012451,None,,,,,,,,,,,,,,,,,,227,1,2025-03-11_09h58.25.944,comp,2024.2.4,None,2025-03-11 09h58.41.342548 -0400,
7,7,0,critical,whd,35.0,2.1,upper,125.0,200.0,200.0,125.0,127.0,127.0,2,1.7812714576721191,None,,,,,0,0,0,0,0,7,7,13,122.56183576583862,,,,,,,,,,,,,,,,,,,,,,,,,,,,,,,,,,,,,,,,,,,,,,,,,,,,,,,,,,,,,,,,,,,,,,,,,,,,,,,,,125.0,200.0,200.0,125.0,127.0,127.0,2.1,2.12,-258,-267,0,-282,222,273,122.54325604438782,122.54334878921509,122.54684376716614,122.56183576583862,122.70379447937012,122.70379447937012,122.70379447937012,122.70379447937012,122.70379447937012,122.70379447937012,122.70379447937012,124.3514997959137,2,1.7812714576721191,None,,,,,,,,,,,,,,,,,,227,1,2025-03-11_09h58.25.944,comp,2024.2.4,None,2025-03-11 09h58.41.342548 -0400,
8,8,0,critical,wdh,20.0,1.0,lower,57.0,133.0,78.0,78.0,133.0,57.0,3,4.678940534591675,None,,,,,0,0,0,0,0,8,8,78,124.36737489700317,,,,,,,,,,,,,,,,,,,,,,,,,,,,,,,,,,,,,,,,,,,,,,,,,,,,,,,,,,,,,,,,,,,,,,,,,,,,,,,,,57.0,133.0,78.0,78.0,133.0,57.0,1.0,1.1,-682,254,-480,277,-316,278,124.35310363769531,124.35318660736084,124.35642957687378,124.36737489700317,124.51940631866455,124.51940631866455,124.51940631866455,124.51940631866455,124.51940631866455,124.51940631866455,124.51940631866455,129.0607569217682,3,4.678940534591675,None,,,,,,,,,,,,,,,,,,227,1,2025-03-11_09h58.25.944,comp,2024.2.4,None,2025-03-11 09h58.41.342548 -0400,
9,9,0,critical,whd,35.0,3.0,upper,125.0,200.0,200.0,125.0,127.0,127.0,1,2.183006763458252,None,,,,,0,0,0,0,0,9,9,87,129.08007621765137,,,,,,,,,,,,,,,,,,,,,,,,,,,,,,,,,,,,,,,,,,,,,,,,,,,,,,,,,,,,,,,,,,,,,,,,,,,,,,,,,125.0,200.0,200.0,125.0,127.0,127.0,3.0,3.1,-258,251,0,-5,222,-286,129.0623369216919,129.062420129776,129.06544256210327,129.08007621765137,129.22174215316772,129.22174215316772,129.22174215316772,129.22174215316772,129.22174215316772,129.22174215316772,129.22174215316772,131.2720181941986,1,2.183006763458252,None,,,,,,,,,,,,,,,,,,227,1,2025-03-11_09h58.25.944,comp,2024.2.4,None,2025-03-11 09h58.41.342548 -0400,
10,10,0,critical,wdh,20.0,2.1,lower,57.0,133.0,78.0,78.0,133.0,57.0,3,2.373788595199585,None,,,,,0,0,0,0,0,10,10,34,131.28854846954346,,,,,,,,,,,,,,,,,,,,,,,,,,,,,,,,,,,,,,,,,,,,,,,,,,,,,,,,,,,,,,,,,,,,,,,,,,,,,,,,,57.0,133.0,78.0,78.0,133.0,57.0,2.1,2.12,-202,-269,0,-278,164,285,131.2736461162567,131.27374696731567,131.2774121761322,131.28854846954346,131.43770122528076,131.43770122528076,131.43770122528076,131.43770122528076,131.43770122528076,131.43770122528076,131.43770122528076,133.6778347492218,3,2.373788595199585,None,,,,,,,,,,,,,,,,,,227,1,2025-03-11_09h58.25.944,comp,2024.2.4,None,2025-03-11 09h58.41.342548 -0400,
11,11,0,catch,None,None,None,None,None,None,None,None,None,None,3,2.074059009552002,None,,,,,0,0,0,0,0,11,11,120,133.69330382347107,,,,,,,,,,,,,,,,,,,,,,,,,,,,,,,,,,,,,,,,,,,,,,,,,,,,,,,,,,,,,,,,,,,,,,,,,,,,,,,,,112,78,85,105,170,155,1.0,1.1,-668,269,-480,252,-254,250,133.67985916137695,133.67994165420532,133.68297696113586,133.69330382347107,133.83868670463562,133.83868670463562,133.83868670463562,133.83868670463562,133.83868670463562,133.83868670463562,133.83868670463562,135.7720730304718,3,2.074059009552002,None,,,,,,,,,,,,,,,,,,227,1,2025-03-11_09h58.25.944,comp,2024.2.4,None,2025-03-11 09h58.41.342548 -0400,
12,12,0,filler_random,None,None,None,None,None,None,None,None,None,None,3,1.6419048309326172,None,,,,,0,0,0,0,0,12,12,146,135.7887086868286,,,,,,,,,,,,,,,,,,,,,,,,,,,,,,,,,,,,,,,,,,,,,,,,,,,,,,,,,,,,,,,,,,,,,,,,,,,,,,,,,72.47496590720729,159.54600424234502,86.83063582593765,186.63506310473707,191.506383671408,150.49122680022208,4.0,4.2,-269,4,0,-275,265,6,135.77383613586426,135.7739179134369,135.77720642089844,135.7887086868286,135.94230389595032,135.94230389595032,135.94230389595032,135.94230389595032,135.94230389595032,135.94230389595032,135.94230389595032,137.44918823242188,3,1.6419048309326172,None,,,,,,,,,,,,,,,,,,227,1,2025-03-11_09h58.25.944,comp,2024.2.4,None,2025-03-11 09h58.41.342548 -0400,
13,13,0,filler_random,None,None,None,None,None,None,None,None,None,None,3,1.8990130424499512,None,,,,,0,0,0,0,0,13,13,140,137.46943855285645,,,,,,,,,,,,,,,,,,,,,,,,,,,,,,,,,,,,,,,,,,,,,,,,,,,,,,,,,,,,,,,,,,,,,,,,,,,,,,,,,181.23353942287895,115.81903171634718,88.27531300637118,116.47353503041046,155.86833659416777,166.6893238576168,2.2,2.21,-212,-252,0,270,238,263,137.45101308822632,137.45109581947327,137.45416164398193,137.46943855285645,137.60924983024597,137.60924983024597,137.60924983024597,137.60924983024597,137.60924983024597,137.60924983024597,137.60924983024597,139.37342739105225,3,1.8990130424499512,None,,,,,,,,,,,,,,,,,,227,1,2025-03-11_09h58.25.944,comp,2024.2.4,None,2025-03-11 09h58.41.342548 -0400,
14,14,0,critical,dhw,35.0,2.1,lower,70.0,70.0,133.0,57.0,57.0,133.0,2,3.405210018157959,None,,,,,0,0,0,0,0,14,14,0,139.39372634887695,,,,,,,,,,,,,,,,,,,,,,,,,,,,,,,,,,,,,,,,,,,,,,,,,,,,,,,,,,,,,,,,,,,,,,,,,,,,,,,,,70.0,70.0,133.0,57.0,57.0,133.0,2.1,2.12,-160,-268,0,-265,191,258,139.37503337860107,139.37511444091797,139.37842226028442,139.39372634887695,139.5411274433136,139.5411274433136,139.5411274433136,139.5411274433136,139.5411274433136,139.5411274433136,139.5411274433136,142.8077254295349,2,3.405210018157959,None,,,,,,,,,,,,,,,,,,227,1,2025-03-11_09h58.25.944,comp,2024.2.4,None,2025-03-11 09h58.41.342548 -0400,
15,15,0,filler_square,None,None,None,None,None,None,None,None,None,None,2,3.5096700191497803,None,,,,,0,0,0,0,0,15,15,204,142.8246624469757,,,,,,,,,,,,,,,,,,,,,,,,,,,,,,,,,,,,,,,,,,,,,,,,,,,,,,,,,,,,,,,,,,,,,,,,,,,,,,,,,58.82130769684561,64.39307625908026,99.92895256835868,99.92895256835868,92.78975814368228,77.71012192448549,4.0,4.2,-178,7,0,-264,185,1,142.8095622062683,142.8096866607666,142.81304836273193,142.8246624469757,142.97429633140564,142.97429633140564,142.97429633140564,142.97429633140564,142.97429633140564,142.97429633140564,142.97429633140564,146.34730172157288,2,3.5096700191497803,None,,,,,,,,,,,,,,,,,,227,1,2025-03-11_09h58.25.944,comp,2024.2.4,None,2025-03-11 09h58.41.342548 -0400,
16,16,0,filler_random,None,None,None,None,None,None,None,None,None,None,2,1.8822507858276367,None,,,,,0,0,0,0,0,16,16,145,146.3641586303711,,,,,,,,,,,,,,,,,,,,,,,,,,,,,,,,,,,,,,,,,,,,,,,,,,,,,,,,,,,,,,,,,,,,,,,,,,,,,,,,,96.07625750744316,75.46740139854724,137.69567475096824,88.02324583424387,75.108719924596,152.96153666996713,2.1,2.12,-178,-272,0,-253,216,263,146.34937453269958,146.34945631027222,146.35292625427246,146.3641586303711,146.51545238494873,146.51545238494873,146.51545238494873,146.51545238494873,146.51545238494873,146.51545238494873,146.51545238494873,148.2613537311554,2,1.8822507858276367,None,,,,,,,,,,,,,,,,,,227,1,2025-03-11_09h58.25.944,comp,2024.2.4,None,2025-03-11 09h58.41.342548 -0400,
17,17,0,filler_square,None,None,None,None,None,None,None,None,None,None,3,3.464954137802124,None,,,,,0,0,0,0,0,17,17,179,148.2776656150818,,,,,,,,,,,,,,,,,,,,,,,,,,,,,,,,,,,,,,,,,,,,,,,,,,,,,,,,,,,,,,,,,,,,,,,,,,,,,,,,,175.1637038498946,146.7648394306285,113.9693244029406,158.43458402608155,177.03730582884143,177.03730582884143,2.1,2.12,-249,-252,0,-251,264,279,148.26332783699036,148.2634642124176,148.26712226867676,148.2776656150818,148.4256784915924,148.4256784915924,148.4256784915924,148.4256784915924,148.4256784915924,148.4256784915924,148.4256784915924,151.760977268219,3,3.464954137802124,None,,,,,,,,,,,,,,,,,,227,1,2025-03-11_09h58.25.944,comp,2024.2.4,None,2025-03-11 09h58.41.342548 -0400,
18,18,0,critical,dwh,20.0,4.0,lower,78.0,78.0,57.0,133.0,133.0,57.0,2,3.4456355571746826,None,,,,,0,0,0,0,0,18,18,70,151.77755761146545,,,,,,,,,,,,,,,,,,,,,,,,,,,,,,,,,,,,,,,,,,,,,,,,,,,,,,,,,,,,,,,,,,,,,,,,,,,,,,,,,78.0,78.0,57.0,133.0,133.0,57.0,4.0,4.2,-202,-19,0,-271,191,-9,151.76249933242798,151.76259779930115,151.76614022254944,151.77755761146545,151.92810726165771,151.92810726165771,151.92810726165771,151.92810726165771,151.92810726165771,151.92810726165771,151.92810726165771,155.22964572906494,2,3.4456355571746826,None,,,,,,,,,,,,,,,,,,227,1,2025-03-11_09h58.25.944,comp,2024.2.4,None,2025-03-11 09h58.41.342548 -0400,
19,19,0,filler_square,None,None,None,None,None,None,None,None,None,None,3,1.5361685752868652,None,,,,,0,0,0,0,0,19,19,199,155.24683594703674,,,,,,,,,,,,,,,,,,,,,,,,,,,,,,,,,,,,,,,,,,,,,,,,,,,,,,,,,,,,,,,,,,,,,,,,,,,,,,,,,99.92317256993593,156.76909792483457,100.63594954242632,74.03056875267538,198.66346083352406,198.66346083352406,3.0,3.1,-211,259,0,3,232,-268,155.2314488887787,155.23152828216553,155.2348129749298,155.24683594703674,155.39516615867615,155.39516615867615,155.39516615867615,155.39516615867615,155.39516615867615,155.39516615867615,155.39516615867615,156.80068969726562,3,1.5361685752868652,None,,,,,,,,,,,,,,,,,,227,1,2025-03-11_09h58.25.944,comp,2024.2.4,None,2025-03-11 09h58.41.342548 -0400,
20,20,0,filler_square,None,None,None,None,None,None,None,None,None,None,3,3.0933613777160645,None,,,,,0,0,0,0,0,20,20,173,156.81753158569336,,,,,,,,,,,,,,,,,,,,,,,,,,,,,,,,,,,,,,,,,,,,,,,,,,,,,,,,,,,,,,,,,,,,,,,,,,,,,,,,,90.64561404393993,58.95653766708393,74.29767842513914,105.31189609829136,110.42667455686487,110.42667455686487,2.2,2.22,-178,284,0,-283,204,-289,156.8027114868164,156.80279278755188,156.80625677108765,156.81753158569336,156.96165919303894,156.96165919303894,156.96165919303894,156.96165919303894,156.96165919303894,156.96165919303894,156.96165919303894,159.91338801383972,3,3.0933613777160645,None,,,,,,,,,,,,,,,,,,227,1,2025-03-11_09h58.25.944,comp,2024.2.4,None,2025-03-11 09h58.41.342548 -0400,
21,21,0,critical,hdw,20.0,3.0,upper,200.0,125.0,141.0,141.0,125.0,200.0,1,2.332247018814087,None,,,,,0,0,0,0,0,21,21,117,159.93065309524536,,,,,,,,,,,,,,,,,,,,,,,,,,,,,,,,,,,,,,,,,,,,,,,,,,,,,,,,,,,,,,,,,,,,,,,,,,,,,,,,,200.0,125.0,141.0,141.0,125.0,200.0,3.0,3.2,-229,-276,0,8,266,276,159.9150993824005,159.91519927978516,159.91874074935913,159.93065309524536,160.08064317703247,160.08064317703247,160.08064317703247,160.08064317703247,160.08064317703247,160.08064317703247,160.08064317703247,162.28018307685852,1,2.332247018814087,None,,,,,,,,,,,,,,,,,,227,1,2025-03-11_09h58.25.944,comp,2024.2.4,None,2025-03-11 09h58.41.342548 -0400,
22,22,0,critical,hwd,35.0,4.0,lower,133.0,57.0,57.0,133.0,70.0,70.0,1,1.5811119079589844,None,,,,,0,0,0,0,0,22,22,100,162.29672241210938,,,,,,,,,,,,,,,,,,,,,,,,,,,,,,,,,,,,,,,,,,,,,,,,,,,,,,,,,,,,,,,,,,,,,,,,,,,,,,,,,133.0,57.0,57.0,133.0,70.0,70.0,4.0,4.1,-191,-252,0,-8,198,-261,162.28188395500183,162.28197479248047,162.28545498847961,162.29672241210938,162.44900345802307,162.44900345802307,162.44900345802307,162.44900345802307,162.44900345802307,162.44900345802307,162.44900345802307,163.89780473709106,1,1.5811119079589844,None,,,,,,,,,,,,,,,,,,227,1,2025-03-11_09h58.25.944,comp,2024.2.4,None,2025-03-11 09h58.41.342548 -0400,
23,23,0,filler_square,None,None,None,None,None,None,None,None,None,None,1,1.7882680892944336,None,,,,,0,0,0,0,0,23,23,189,163.91414427757263,,,,,,,,,,,,,,,,,,,,,,,,,,,,,,,,,,,,,,,,,,,,,,,,,,,,,,,,,,,,,,,,,,,,,,,,,,,,,,,,,167.65943140358956,167.65943140358956,79.59002667484577,150.15805094479532,87.82385917493542,106.27218848244853,1.0,1.1,-735,288,-480,279,-256,279,163.8996889591217,163.89977169036865,163.90297961235046,163.91414427757263,164.0653100013733,164.0653100013733,164.0653100013733,164.0653100013733,164.0653100013733,164.0653100013733,164.0653100013733,165.71724200248718,1,1.7882680892944336,None,,,,,,,,,,,,,,,,,,227,1,2025-03-11_09h58.25.944,comp,2024.2.4,None,2025-03-11 09h58.41.342548 -0400,
24,24,0,catch,None,None,None,None,None,None,None,None,None,None,2,1.304717779159546,None,,,,,0,0,0,0,0,24,24,127,165.73401069641113,,,,,,,,,,,,,,,,,,,,,,,,,,,,,,,,,,,,,,,,,,,,,,,,,,,,,,,,,,,,,,,,,,,,,,,,,,,,,,,,,58,132,191,134,107,83,4.0,4.1,-229,-264,0,-14,204,-268,165.71952033042908,165.7196385860443,165.72368669509888,165.73401069641113,165.89211463928223,165.89211463928223,165.89211463928223,165.89211463928223,165.89211463928223,165.89211463928223,165.89211463928223,167.04086232185364,2,1.304717779159546,None,,,,,,,,,,,,,,,,,,227,1,2025-03-11_09h58.25.944,comp,2024.2.4,None,2025-03-11 09h58.41.342548 -0400,
25,25,0,critical,wdh,35.0,3.0,lower,57.0,133.0,70.0,70.0,133.0,57.0,3,2.317356586456299,None,,,,,0,0,0,0,0,25,25,74,167.0570113658905,,,,,,,,,,,,,,,,,,,,,,,,,,,,,,,,,,,,,,,,,,,,,,,,,,,,,,,,,,,,,,,,,,,,,,,,,,,,,,,,,57.0,133.0,70.0,70.0,133.0,57.0,3.0,3.2,-198,-269,0,-15,160,275,167.0427122116089,167.04284596443176,167.0461666584015,167.0570113658905,167.19928574562073,167.19928574562073,167.19928574562073,167.19928574562073,167.19928574562073,167.19928574562073,167.19928574562073,169.38415718078613,3,2.317356586456299,None,,,,,,,,,,,,,,,,,,227,1,2025-03-11_09h58.25.944,comp,2024.2.4,None,2025-03-11 09h58.41.342548 -0400,
26,26,0,critical,wdh,20.0,4.0,upper,125.0,200.0,141.0,141.0,200.0,125.0,3,2.549342632293701,None,,,,,0,0,0,0,0,26,26,83,169.40103363990784,,,,,,,,,,,,,,,,,,,,,,,,,,,,,,,,,,,,,,,,,,,,,,,,,,,,,,,,,,,,,,,,,,,,,,,,,,,,,,,,,125.0,200.0,141.0,141.0,200.0,125.0,4.0,4.1,-266,-274,0,-9,229,-286,169.38574981689453,169.38585305213928,169.39019536972046,169.40103363990784,169.5505018234253,169.5505018234253,169.5505018234253,169.5505018234253,169.5505018234253,169.5505018234253,169.5505018234253,171.96648526191711,3,2.549342632293701,None,,,,,,,,,,,,,,,,,,227,1,2025-03-11_09h58.25.944,comp,2024.2.4,None,2025-03-11 09h58.41.342548 -0400,
27,27,0,critical,dwh,20.0,3.0,upper,141.0,141.0,125.0,200.0,200.0,125.0,2,1.144850254058838,None,,,,,0,0,0,0,0,27,27,69,171.98221731185913,,,,,,,,,,,,,,,,,,,,,,,,,,,,,,,,,,,,,,,,,,,,,,,,,,,,,,,,,,,,,,,,,,,,,,,,,,,,,,,,,141.0,141.0,125.0,200.0,200.0,125.0,3.0,3.2,-266,-287,0,7,258,253,171.96808862686157,171.96817088127136,171.9714286327362,171.98221731185913,172.13348054885864,172.13348054885864,172.13348054885864,172.13348054885864,172.13348054885864,172.13348054885864,172.13348054885864,173.13504648208618,2,1.144850254058838,None,,,,,,,,,,,,,,,,,,227,1,2025-03-11_09h58.25.944,comp,2024.2.4,None,2025-03-11 09h58.41.342548 -0400,
28,28,0,critical,wdh,20.0,2.1,lower,57.0,133.0,78.0,78.0,133.0,57.0,1,2.2393929958343506,None,,,,,0,0,0,0,0,28,28,10,173.1509132385254,,,,,,,,,,,,,,,,,,,,,,,,,,,,,,,,,,,,,,,,,,,,,,,,,,,,,,,,,,,,,,,,,,,,,,,,,,,,,,,,,57.0,133.0,78.0,78.0,133.0,57.0,2.1,2.12,-202,-267,0,-278,164,252,173.13662314414978,173.1367108821869,173.1402406692505,173.1509132385254,173.2997007369995,173.2997007369995,173.2997007369995,173.2997007369995,173.2997007369995,173.2997007369995,173.2997007369995,175.4011037349701,1,2.2393929958343506,None,,,,,,,,,,,,,,,,,,227,1,2025-03-11_09h58.25.944,comp,2024.2.4,None,2025-03-11 09h58.41.342548 -0400,
29,29,0,filler_square,None,None,None,None,None,None,None,None,None,None,3,1.46714448928833,None,,,,,0,0,0,0,0,29,29,202,175.41918301582336,,,,,,,,,,,,,,,,,,,,,,,,,,,,,,,,,,,,,,,,,,,,,,,,,,,,,,,,,,,,,,,,,,,,,,,,,,,,,,,,,161.71406217723631,68.35926783395534,115.94310410283023,149.3618515562722,182.9677006147666,182.9677006147666,4.0,4.1,-205,-255,0,0,262,-290,175.4029598236084,175.4030420780182,175.4062249660492,175.41918301582336,175.57034373283386,175.57034373283386,175.57034373283386,175.57034373283386,175.57034373283386,175.57034373283386,175.57034373283386,176.90527987480164,3,1.46714448928833,None,,,,,,,,,,,,,,,,,,227,1,2025-03-11_09h58.25.944,comp,2024.2.4,None,2025-03-11 09h58.41.342548 -0400,
30,30,0,critical,hdw,35.0,3.0,upper,200.0,125.0,127.0,127.0,125.0,200.0,3,3.1950089931488037,None,,,,,0,0,0,0,0,30,30,111,176.92348384857178,,,,,,,,,,,,,,,,,,,,,,,,,,,,,,,,,,,,,,,,,,,,,,,,,,,,,,,,,,,,,,,,,,,,,,,,,,,,,,,,,200.0,125.0,127.0,127.0,125.0,200.0,3.0,3.1,-222,283,0,-16,260,-277,176.90702533721924,176.90713500976562,176.9107255935669,176.92348384857178,177.07444143295288,177.07444143295288,177.07444143295288,177.07444143295288,177.07444143295288,177.07444143295288,177.07444143295288,180.13654685020447,3,3.1950089931488037,None,,,,,,,,,,,,,,,,,,227,1,2025-03-11_09h58.25.944,comp,2024.2.4,None,2025-03-11 09h58.41.342548 -0400,
31,31,0,critical,hwd,20.0,2.1,upper,200.0,125.0,125.0,200.0,141.0,141.0,2,4.42674708366394,None,,,,,0,0,0,0,0,31,31,43,180.15601348876953,,,,,,,,,,,,,,,,,,,,,,,,,,,,,,,,,,,,,,,,,,,,,,,,,,,,,,,,,,,,,,,,,,,,,,,,,,,,,,,,,200.0,125.0,125.0,200.0,141.0,141.0,2.1,2.11,-258,285,0,273,266,-256,180.13814163208008,180.13822031021118,180.141419172287,180.15601348876953,180.30378651618958,180.30378651618958,180.30378651618958,180.30378651618958,180.30378651618958,180.30378651618958,180.30378651618958,184.58763360977173,2,4.42674708366394,None,,,,,,,,,,,,,,,,,,227,1,2025-03-11_09h58.25.944,comp,2024.2.4,None,2025-03-11 09h58.41.342548 -0400,
32,32,0,critical,dhw,20.0,1.0,lower,78.0,78.0,133.0,57.0,57.0,133.0,2,2.114414930343628,None,,,,,0,0,0,0,0,32,32,54,184.60464477539062,,,,,,,,,,,,,,,,,,,,,,,,,,,,,,,,,,,,,,,,,,,,,,,,,,,,,,,,,,,,,,,,,,,,,,,,,,,,,,,,,78.0,78.0,133.0,57.0,57.0,133.0,1.0,1.2,-164,-9,0,-20,191,9,184.58911538124084,184.5891978740692,184.59236216545105,184.60464477539062,184.7621190547943,184.7621190547943,184.7621190547943,184.7621190547943,184.7621190547943,184.7621190547943,184.7621190547943,186.73843264579773,2,2.114414930343628,None,,,,,,,,,,,,,,,,,,227,1,2025-03-11_09h58.25.944,comp,2024.2.4,None,2025-03-11 09h58.41.342548 -0400,
33,33,0,critical,whd,35.0,4.0,lower,57.0,133.0,133.0,57.0,70.0,70.0,2,2.538984775543213,None,,,,,0,0,0,0,0,33,33,88,186.75533843040466,,,,,,,,,,,,,,,,,,,,,,,,,,,,,,,,,,,,,,,,,,,,,,,,,,,,,,,,,,,,,,,,,,,,,,,,,,,,,,,,,57.0,133.0,133.0,57.0,70.0,70.0,4.0,4.2,-191,12,0,-285,160,19,186.73995065689087,186.74002957344055,186.74307799339294,186.75533843040466,186.9118709564209,186.9118709564209,186.9118709564209,186.9118709564209,186.9118709564209,186.9118709564209,186.9118709564209,189.3089897632599,2,2.538984775543213,None,,,,,,,,,,,,,,,,,,227,1,2025-03-11_09h58.25.944,comp,2024.2.4,None,2025-03-11 09h58.41.342548 -0400,
34,34,0,filler_random,None,None,None,None,None,None,None,None,None,None,3,1.8130371570587158,None,,,,,0,0,0,0,0,34,34,156,189.32940435409546,,,,,,,,,,,,,,,,,,,,,,,,,,,,,,,,,,,,,,,,,,,,,,,,,,,,,,,,,,,,,,,,,,,,,,,,,,,,,,,,,133.78081110720623,106.38280864894503,143.80317640577428,102.72938192773992,173.07641146581273,96.94982478314523,2.2,2.22,-201,268,0,-280,196,-255,189.31105709075928,189.31117510795593,189.3148341178894,189.32940435409546,189.4739055633545,189.4739055633545,189.4739055633545,189.4739055633545,189.4739055633545,189.4739055633545,189.4739055633545,191.1574239730835,3,1.8130371570587158,None,,,,,,,,,,,,,,,,,,227,1,2025-03-11_09h58.25.944,comp,2024.2.4,None,2025-03-11 09h58.41.342548 -0400,
35,35,0,critical,whd,20.0,1.0,lower,57.0,133.0,133.0,57.0,78.0,78.0,2,1.1281332969665527,None,,,,,0,0,0,0,0,35,35,90,191.17500758171082,,,,,,,,,,,,,,,,,,,,,,,,,,,,,,,,,,,,,,,,,,,,,,,,,,,,,,,,,,,,,,,,,,,,,,,,,,,,,,,,,57.0,133.0,133.0,57.0,78.0,78.0,1.0,1.1,-671,262,-480,280,-316,275,191.15896439552307,191.1590452194214,191.1623466014862,191.17500758171082,191.33098077774048,191.33098077774048,191.33098077774048,191.33098077774048,191.33098077774048,191.33098077774048,191.33098077774048,192.3090853691101,2,1.1281332969665527,None,,,,,,,,,,,,,,,,,,227,1,2025-03-11_09h58.25.944,comp,2024.2.4,None,2025-03-11 09h58.41.342548 -0400,
36,36,0,filler_random,None,None,None,None,None,None,None,None,None,None,1,1.0098447799682617,None,,,,,0,0,0,0,0,36,36,149,192.32575392723083,,,,,,,,,,,,,,,,,,,,,,,,,,,,,,,,,,,,,,,,,,,,,,,,,,,,,,,,,,,,,,,,,,,,,,,,,,,,,,,,,170.7581650248718,171.23478746498708,79.53336364698067,76.20876592154953,88.05969263922239,117.14669954081702,1.0,1.1,-700,259,-480,268,-287,256,192.31101608276367,192.311101436615,192.31506609916687,192.32575392723083,192.46625876426697,192.46625876426697,192.46625876426697,192.46625876426697,192.46625876426697,192.46625876426697,192.46625876426697,193.34450674057007,1,1.0098447799682617,None,,,,,,,,,,,,,,,,,,227,1,2025-03-11_09h58.25.944,comp,2024.2.4,None,2025-03-11 09h58.41.342548 -0400,
37,37,0,catch,None,None,None,None,None,None,None,None,None,None,2,1.190084457397461,None,,,,,0,0,0,0,0,37,37,125,193.3611123561859,,,,,,,,,,,,,,,,,,,,,,,,,,,,,,,,,,,,,,,,,,,,,,,,,,,,,,,,,,,,,,,,,,,,,,,,,,,,,,,,,91,99,177,148,110,80,1.0,1.2,-220,-7,0,-14,210,11,193.3467059135437,193.3468475341797,193.35047698020935,193.3611123561859,193.50760889053345,193.50760889053345,193.50760889053345,193.50760889053345,193.50760889053345,193.50760889053345,193.50760889053345,194.5591685771942,2,1.190084457397461,None,,,,,,,,,,,,,,,,,,227,1,2025-03-11_09h58.25.944,comp,2024.2.4,None,2025-03-11 09h58.41.342548 -0400,
38,38,0,critical,dwh,35.0,1.0,lower,70.0,70.0,57.0,133.0,133.0,57.0,3,1.2389559745788574,None,,,,,0,0,0,0,0,38,38,60,194.5755045413971,,,,,,,,,,,,,,,,,,,,,,,,,,,,,,,,,,,,,,,,,,,,,,,,,,,,,,,,,,,,,,,,,,,,,,,,,,,,,,,,,70.0,70.0,57.0,133.0,133.0,57.0,1.0,1.1,-678,269,-480,288,-289,279,194.5608389377594,194.56092143058777,194.5646424293518,194.5755045413971,194.7304904460907,194.7304904460907,194.7304904460907,194.7304904460907,194.7304904460907,194.7304904460907,194.7304904460907,195.82778358459473,3,1.2389559745788574,None,,,,,,,,,,,,,,,,,,227,1,2025-03-11_09h58.25.944,comp,2024.2.4,None,2025-03-11 09h58.41.342548 -0400,
39,39,0,filler_square,None,None,None,None,None,None,None,None,None,None,2,5.30374550819397,None,,,,,0,0,0,0,0,39,39,187,195.84685707092285,,,,,,,,,,,,,,,,,,,,,,,,,,,,,,,,,,,,,,,,,,,,,,,,,,,,,,,,,,,,,,,,,,,,,,,,,,,,,,,,,58.07484230547463,63.03797338400897,63.10125760132021,63.10125760132021,57.99833531620583,61.522038347493606,2.2,2.22,-159,268,0,-268,158,-263,195.82980370521545,195.82989287376404,195.83298254013062,195.84685707092285,195.9931788444519,195.9931788444519,195.9931788444519,195.9931788444519,195.9931788444519,195.9931788444519,195.9931788444519,201.15499067306519,2,5.30374550819397,None,,,,,,,,,,,,,,,,,,227,1,2025-03-11_09h58.25.944,comp,2024.2.4,None,2025-03-11 09h58.41.342548 -0400,
40,40,0,filler_square,None,None,None,None,None,None,None,None,None,None,1,1.2755365371704102,None,,,,,0,0,0,0,0,40,40,188,201.17089438438416,,,,,,,,,,,,,,,,,,,,,,,,,,,,,,,,,,,,,,,,,,,,,,,,,,,,,,,,,,,,,,,,,,,,,,,,,,,,,,,,,78.84082066004706,78.84082066004706,63.618238511403156,62.969486335484035,63.68964036379013,67.7536205023875,2.2,2.21,-167,-261,0,288,161,285,201.15682244300842,201.15690445899963,201.1598973274231,201.17089438438416,201.30800414085388,201.30800414085388,201.30800414085388,201.30800414085388,201.30800414085388,201.30800414085388,201.30800414085388,202.45894360542297,1,1.2755365371704102,None,,,,,,,,,,,,,,,,,,227,1,2025-03-11_09h58.25.944,comp,2024.2.4,None,2025-03-11 09h58.41.342548 -0400,
41,41,0,filler_random,None,None,None,None,None,None,None,None,None,None,3,1.3220112323760986,None,,,,,0,0,0,0,0,41,41,144,202.47630834579468,,,,,,,,,,,,,,,,,,,,,,,,,,,,,,,,,,,,,,,,,,,,,,,,,,,,,,,,,,,,,,,,,,,,,,,,,,,,,,,,,77.51898956081774,116.0387498835606,84.2364588612338,109.05910905628728,96.81169766190183,156.32047999043502,3.0,3.2,-209,-250,0,17,229,286,202.46095967292786,202.4610471725464,202.46479964256287,202.47630834579468,202.6282000541687,202.6282000541687,202.6282000541687,202.6282000541687,202.6282000541687,202.6282000541687,202.6282000541687,203.8117115497589,3,1.3220112323760986,None,,,,,,,,,,,,,,,,,,227,1,2025-03-11_09h58.25.944,comp,2024.2.4,None,2025-03-11 09h58.41.342548 -0400,
42,42,0,critical,dwh,20.0,3.0,lower,78.0,78.0,57.0,133.0,133.0,57.0,2,1.3868145942687988,None,,,,,0,0,0,0,0,42,42,68,203.82781744003296,,,,,,,,,,,,,,,,,,,,,,,,,,,,,,,,,,,,,,,,,,,,,,,,,,,,,,,,,,,,,,,,,,,,,,,,,,,,,,,,,78.0,78.0,57.0,133.0,133.0,57.0,3.0,3.1,-202,256,0,-8,191,-278,203.81329536437988,203.81337714195251,203.81749987602234,203.82781744003296,203.98263597488403,203.98263597488403,203.98263597488403,203.98263597488403,203.98263597488403,203.98263597488403,203.98263597488403,205.22572255134583,2,1.3868145942687988,None,,,,,,,,,,,,,,,,,,227,1,2025-03-11_09h58.25.944,comp,2024.2.4,None,2025-03-11 09h58.41.342548 -0400,
43,43,0,critical,dwh,35.0,4.0,lower,70.0,70.0,57.0,133.0,133.0,57.0,2,1.3561992645263672,None,,,,,0,0,0,0,0,43,43,64,205.24242448806763,,,,,,,,,,,,,,,,,,,,,,,,,,,,,,,,,,,,,,,,,,,,,,,,,,,,,,,,,,,,,,,,,,,,,,,,,,,,,,,,,70.0,70.0,57.0,133.0,133.0,57.0,4.0,4.1,-198,-253,0,-11,191,-263,205.22727346420288,205.22735333442688,205.23043084144592,205.24242448806763,205.39398288726807,205.39398288726807,205.39398288726807,205.39398288726807,205.39398288726807,205.39398288726807,205.39398288726807,206.6145269870758,2,1.3561992645263672,None,,,,,,,,,,,,,,,,,,227,1,2025-03-11_09h58.25.944,comp,2024.2.4,None,2025-03-11 09h58.41.342548 -0400,
44,44,0,filler_random,None,None,None,None,None,None,None,None,None,None,1,1.3495690822601318,None,,,,,0,0,0,0,0,44,44,161,206.63309168815613,,,,,,,,,,,,,,,,,,,,,,,,,,,,,,,,,,,,,,,,,,,,,,,,,,,,,,,,,,,,,,,,,,,,,,,,,,,,,,,,,187.41439268255223,61.742970423193384,178.55251276998558,70.67999478943253,104.1888342044652,117.69565098026717,4.0,4.1,-162,-262,0,3,190,-265,206.61647510528564,206.61655378341675,206.62039399147034,206.63309168815613,206.78336238861084,206.78336238861084,206.78336238861084,206.78336238861084,206.78336238861084,206.78336238861084,206.78336238861084,207.9955313205719,1,1.3495690822601318,None,,,,,,,,,,,,,,,,,,227,1,2025-03-11_09h58.25.944,comp,2024.2.4,None,2025-03-11 09h58.41.342548 -0400,
45,45,0,critical,hwd,20.0,2.1,upper,200.0,125.0,125.0,200.0,141.0,141.0,1,1.2755212783813477,None,,,,,0,0,0,0,0,45,45,19,208.01166820526123,,,,,,,,,,,,,,,,,,,,,,,,,,,,,,,,,,,,,,,,,,,,,,,,,,,,,,,,,,,,,,,,,,,,,,,,,,,,,,,,,200.0,125.0,125.0,200.0,141.0,141.0,2.1,2.11,-258,286,0,259,266,-280,207.9971535205841,207.99723172187805,208.00052285194397,208.01166820526123,208.1638536453247,208.1638536453247,208.1638536453247,208.1638536453247,208.1638536453247,208.1638536453247,208.1638536453247,209.29531121253967,1,1.2755212783813477,None,,,,,,,,,,,,,,,,,,227,1,2025-03-11_09h58.25.944,comp,2024.2.4,None,2025-03-11 09h58.41.342548 -0400,
46,46,0,critical,dhw,20.0,3.0,lower,78.0,78.0,133.0,57.0,57.0,133.0,3,1.9397566318511963,None,,,,,0,0,0,0,0,46,46,56,209.31597018241882,,,,,,,,,,,,,,,,,,,,,,,,,,,,,,,,,,,,,,,,,,,,,,,,,,,,,,,,,,,,,,,,,,,,,,,,,,,,,,,,,78.0,78.0,133.0,57.0,57.0,133.0,3.0,3.1,-164,266,0,-18,191,-267,209.2969195842743,209.2969994544983,209.30022478103638,209.31597018241882,209.4630002975464,209.4630002975464,209.4630002975464,209.4630002975464,209.4630002975464,209.4630002975464,209.4630002975464,211.2619345188141,3,1.9397566318511963,None,,,,,,,,,,,,,,,,,,227,1,2025-03-11_09h58.25.944,comp,2024.2.4,None,2025-03-11 09h58.41.342548 -0400,
47,47,0,critical,whd,20.0,4.0,upper,125.0,200.0,200.0,125.0,141.0,141.0,2,3.3354930877685547,None,,,,,0,0,0,0,0,47,47,95,211.27889823913574,,,,,,,,,,,,,,,,,,,,,,,,,,,,,,,,,,,,,,,,,,,,,,,,,,,,,,,,,,,,,,,,,,,,,,,,,,,,,,,,,125.0,200.0,200.0,125.0,141.0,141.0,4.0,4.2,-258,14,0,-280,229,10,211.26361775398254,211.26375460624695,211.26730346679688,211.27889823913574,211.41568732261658,211.41568732261658,211.41568732261658,211.41568732261658,211.41568732261658,211.41568732261658,211.41568732261658,214.62990736961365,2,3.3354930877685547,None,,,,,,,,,,,,,,,,,,227,1,2025-03-11_09h58.25.944,comp,2024.2.4,None,2025-03-11 09h58.41.342548 -0400,
48,48,0,critical,dwh,35.0,1.0,upper,127.0,127.0,125.0,200.0,200.0,125.0,2,4.5766236782073975,None,,,,,0,0,0,0,0,48,48,61,214.64575934410095,,,,,,,,,,,,,,,,,,,,,,,,,,,,,,,,,,,,,,,,,,,,,,,,,,,,,,,,,,,,,,,,,,,,,,,,,,,,,,,,,127.0,127.0,125.0,200.0,200.0,125.0,1.0,1.2,-260,-15,0,7,258,-15,214.63142919540405,214.63150835037231,214.63523054122925,214.64575934410095,214.79876399040222,214.79876399040222,214.79876399040222,214.79876399040222,214.79876399040222,214.79876399040222,214.79876399040222,219.23689675331116,2,4.5766236782073975,None,,,,,,,,,,,,,,,,,,227,1,2025-03-11_09h58.25.944,comp,2024.2.4,None,2025-03-11 09h58.41.342548 -0400,
49,49,0,filler_random,None,None,None,None,None,None,None,None,None,None,2,1.2012698650360107,None,,,,,0,0,0,0,0,49,49,154,219.2536222934723,,,,,,,,,,,,,,,,,,,,,,,,,,,,,,,,,,,,,,,,,,,,,,,,,,,,,,,,,,,,,,,,,,,,,,,,,,,,,,,,,98.21046217836239,96.98367996490362,79.87449173185007,195.03296675217487,99.93150931951573,113.20714822827549,3.0,3.1,-242,266,0,-18,250,-275,219.23887515068054,219.23895382881165,219.2423334121704,219.2536222934723,219.39971828460693,219.39971828460693,219.39971828460693,219.39971828460693,219.39971828460693,219.39971828460693,219.39971828460693,220.46623754501343,2,1.2012698650360107,None,,,,,,,,,,,,,,,,,,227,1,2025-03-11_09h58.25.944,comp,2024.2.4,None,2025-03-11 09h58.41.342548 -0400,
50,50,0,critical,hdw,20.0,2.1,upper,200.0,125.0,141.0,141.0,125.0,200.0,1,1.7399382591247559,None,,,,,0,0,0,0,0,50,50,47,220.48248171806335,,,,,,,,,,,,,,,,,,,,,,,,,,,,,,,,,,,,,,,,,,,,,,,,,,,,,,,,,,,,,,,,,,,,,,,,,,,,,,,,,200.0,125.0,141.0,141.0,125.0,200.0,2.1,2.12,-229,-252,0,-279,266,273,220.46780347824097,220.46788144111633,220.47130823135376,220.48248171806335,220.62971210479736,220.62971210479736,220.62971210479736,220.62971210479736,220.62971210479736,220.62971210479736,220.62971210479736,222.2328064441681,1,1.7399382591247559,None,,,,,,,,,,,,,,,,,,227,1,2025-03-11_09h58.25.944,comp,2024.2.4,None,2025-03-11 09h58.41.342548 -0400,
51,51,0,critical,dhw,35.0,2.1,upper,127.0,127.0,200.0,125.0,125.0,200.0,2,2.5053977966308594,None,,,,,0,0,0,0,0,51,51,25,222.2529513835907,,,,,,,,,,,,,,,,,,,,,,,,,,,,,,,,,,,,,,,,,,,,,,,,,,,,,,,,,,,,,,,,,,,,,,,,,,,,,,,,,127.0,127.0,200.0,125.0,125.0,200.0,2.1,2.12,-222,-255,0,-286,258,250,222.23447513580322,222.23455905914307,222.23830580711365,222.2529513835907,222.38639664649963,222.38639664649963,222.38639664649963,222.38639664649963,222.38639664649963,222.38639664649963,222.38639664649963,224.77676153182983,2,2.5053977966308594,None,,,,,,,,,,,,,,,,,,227,1,2025-03-11_09h58.25.944,comp,2024.2.4,None,2025-03-11 09h58.41.342548 -0400,
52,52,0,critical,wdh,20.0,2.1,upper,125.0,200.0,141.0,141.0,200.0,125.0,3,1.7477548122406006,None,,,,,0,0,0,0,0,52,52,35,224.79720973968506,,,,,,,,,,,,,,,,,,,,,,,,,,,,,,,,,,,,,,,,,,,,,,,,,,,,,,,,,,,,,,,,,,,,,,,,,,,,,,,,,125.0,200.0,141.0,141.0,200.0,125.0,2.1,2.12,-266,-262,0,-288,229,280,224.77840948104858,224.77854204177856,224.78190541267395,224.79720973968506,224.9356369972229,224.9356369972229,224.9356369972229,224.9356369972229,224.9356369972229,224.9356369972229,224.9356369972229,226.55175757408142,3,1.7477548122406006,None,,,,,,,,,,,,,,,,,,227,1,2025-03-11_09h58.25.944,comp,2024.2.4,None,2025-03-11 09h58.41.342548 -0400,
53,53,0,critical,dhw,20.0,2.1,upper,141.0,141.0,200.0,125.0,125.0,200.0,2,3.9651660919189453,None,,,,,0,0,0,0,0,53,53,27,226.56968879699707,,,,,,,,,,,,,,,,,,,,,,,,,,,,,,,,,,,,,,,,,,,,,,,,,,,,,,,,,,,,,,,,,,,,,,,,,,,,,,,,,141.0,141.0,200.0,125.0,125.0,200.0,2.1,2.12,-229,-276,0,-281,258,265,226.55332612991333,226.55340695381165,226.5566267967224,226.56968879699707,226.7193706035614,226.7193706035614,226.7193706035614,226.7193706035614,226.7193706035614,226.7193706035614,226.7193706035614,230.54197216033936,2,3.9651660919189453,None,,,,,,,,,,,,,,,,,,227,1,2025-03-11_09h58.25.944,comp,2024.2.4,None,2025-03-11 09h58.41.342548 -0400,
54,54,0,filler_square,None,None,None,None,None,None,None,None,None,None,1,5.582839012145996,None,,,,,0,0,0,0,0,54,54,175,230.55990505218506,,,,,,,,,,,,,,,,,,,,,,,,,,,,,,,,,,,,,,,,,,,,,,,,,,,,,,,,,,,,,,,,,,,,,,,,,,,,,,,,,65.39656075986717,65.39656075986717,62.54629676527085,62.868404106243915,57.738216922023256,60.39533342850586,2.1,2.11,-160,267,0,257,158,-279,230.5437982082367,230.543879032135,230.5468828678131,230.55990505218506,230.7022247314453,230.7022247314453,230.7022247314453,230.7022247314453,230.7022247314453,230.7022247314453,230.7022247314453,236.1460771560669,1,5.582839012145996,None,,,,,,,,,,,,,,,,,,227,1,2025-03-11_09h58.25.944,comp,2024.2.4,None,2025-03-11 09h58.41.342548 -0400,
55,55,0,critical,hwd,20.0,1.0,lower,133.0,57.0,57.0,133.0,78.0,78.0,1,5.132757663726807,None,,,,,0,0,0,0,0,55,55,102,236.16262984275818,,,,,,,,,,,,,,,,,,,,,,,,,,,,,,,,,,,,,,,,,,,,,,,,,,,,,,,,,,,,,,,,,,,,,,,,,,,,,,,,,133.0,57.0,57.0,133.0,78.0,78.0,1.0,1.3,289,-267,480,-258,682,-270,236.14772152900696,236.14780163764954,236.1509130001068,236.16262984275818,236.3054962158203,236.3054962158203,236.3054962158203,236.3054962158203,236.3054962158203,236.3054962158203,236.3054962158203,241.30306220054626,1,5.132757663726807,None,,,,,,,,,,,,,,,,,,227,1,2025-03-11_09h58.25.944,comp,2024.2.4,None,2025-03-11 09h58.41.342548 -0400,
56,56,0,filler_square,None,None,None,None,None,None,None,None,None,None,1,1.8865909576416016,None,,,,,0,0,0,0,0,56,56,172,241.31979870796204,,,,,,,,,,,,,,,,,,,,,,,,,,,,,,,,,,,,,,,,,,,,,,,,,,,,,,,,,,,,,,,,,,,,,,,,,,,,,,,,,167.22327338686637,167.22327338686637,160.93732571134836,127.53150122571193,93.49329835162081,125.02337388788652,2.2,2.21,-243,-257,0,275,222,264,241.30493259429932,241.30501413345337,241.30804705619812,241.31979870796204,241.47268652915955,241.47268652915955,241.47268652915955,241.47268652915955,241.47268652915955,241.47268652915955,241.47268652915955,243.22179341316223,1,1.8865909576416016,None,,,,,,,,,,,,,,,,,,227,1,2025-03-11_09h58.25.944,comp,2024.2.4,None,2025-03-11 09h58.41.342548 -0400,
57,57,0,critical,whd,35.0,2.1,lower,57.0,133.0,133.0,57.0,70.0,70.0,2,2.157008647918701,None,,,,,0,0,0,0,0,57,57,36,243.24244785308838,,,,,,,,,,,,,,,,,,,,,,,,,,,,,,,,,,,,,,,,,,,,,,,,,,,,,,,,,,,,,,,,,,,,,,,,,,,,,,,,,57.0,133.0,133.0,57.0,70.0,70.0,2.1,2.12,-191,-277,0,-285,160,284,243.22347927093506,243.22363996505737,243.22709465026855,243.24244785308838,243.39047384262085,243.39047384262085,243.39047384262085,243.39047384262085,243.39047384262085,243.39047384262085,243.39047384262085,245.40452337265015,2,2.157008647918701,None,,,,,,,,,,,,,,,,,,227,1,2025-03-11_09h58.25.944,comp,2024.2.4,None,2025-03-11 09h58.41.342548 -0400,
58,58,0,critical,dwh,20.0,2.1,upper,141.0,141.0,125.0,200.0,200.0,125.0,3,3.5127644538879395,None,,,,,0,0,0,0,0,58,58,31,245.4220654964447,,,,,,,,,,,,,,,,,,,,,,,,,,,,,,,,,,,,,,,,,,,,,,,,,,,,,,,,,,,,,,,,,,,,,,,,,,,,,,,,,141.0,141.0,125.0,200.0,200.0,125.0,2.1,2.12,-266,-265,0,-276,258,271,245.40611219406128,245.4061930179596,245.40918040275574,245.4220654964447,245.57743048667908,245.57743048667908,245.57743048667908,245.57743048667908,245.57743048667908,245.57743048667908,245.57743048667908,248.94667959213257,3,3.5127644538879395,None,,,,,,,,,,,,,,,,,,227,1,2025-03-11_09h58.25.944,comp,2024.2.4,None,2025-03-11 09h58.41.342548 -0400,
59,59,0,critical,hwd,35.0,3.0,upper,200.0,125.0,125.0,200.0,127.0,127.0,2,1.391963005065918,None,,,,,0,0,0,0,0,59,59,99,248.96780061721802,,,,,,,,,,,,,,,,,,,,,,,,,,,,,,,,,,,,,,,,,,,,,,,,,,,,,,,,,,,,,,,,,,,,,,,,,,,,,,,,,200.0,125.0,125.0,200.0,127.0,127.0,3.0,3.1,-258,278,0,-12,260,-269,248.94832634925842,248.94840717315674,248.95191073417664,248.96780061721802,249.1086549758911,249.1086549758911,249.1086549758911,249.1086549758911,249.1086549758911,249.1086549758911,249.1086549758911,250.3757164478302,2,1.391963005065918,None,,,,,,,,,,,,,,,,,,227,1,2025-03-11_09h58.25.944,comp,2024.2.4,None,2025-03-11 09h58.41.342548 -0400,
60,60,0,critical,whd,35.0,1.0,upper,125.0,200.0,200.0,125.0,127.0,127.0,2,1.6411442756652832,None,,,,,0,0,0,0,0,60,60,85,250.39121341705322,,,,,,,,,,,,,,,,,,,,,,,,,,,,,,,,,,,,,,,,,,,,,,,,,,,,,,,,,,,,,,,,,,,,,,,,,,,,,,,,,125.0,200.0,200.0,125.0,127.0,127.0,1.0,1.2,-258,6,0,2,222,0,250.37731909751892,250.3773968219757,250.38077116012573,250.39121341705322,250.54107308387756,250.54107308387756,250.54107308387756,250.54107308387756,250.54107308387756,250.54107308387756,250.54107308387756,252.04943132400513,2,1.6411442756652832,None,,,,,,,,,,,,,,,,,,227,1,2025-03-11_09h58.25.944,comp,2024.2.4,None,2025-03-11 09h58.41.342548 -0400,
61,61,0,critical,wdh,20.0,3.0,upper,125.0,200.0,141.0,141.0,200.0,125.0,1,2.7740368843078613,None,,,,,0,0,0,0,0,61,61,81,252.06517553329468,,,,,,,,,,,,,,,,,,,,,,,,,,,,,,,,,,,,,,,,,,,,,,,,,,,,,,,,,,,,,,,,,,,,,,,,,,,,,,,,,125.0,200.0,141.0,141.0,200.0,125.0,3.0,3.2,-266,-270,0,17,229,272,252.05112290382385,252.05120182037354,252.0546088218689,252.06517553329468,252.20972609519958,252.20972609519958,252.20972609519958,252.20972609519958,252.20972609519958,252.20972609519958,252.20972609519958,254.84433460235596,1,2.7740368843078613,None,,,,,,,,,,,,,,,,,,227,1,2025-03-11_09h58.25.944,comp,2024.2.4,None,2025-03-11 09h58.41.342548 -0400,
62,62,0,critical,hdw,20.0,2.1,lower,133.0,57.0,78.0,78.0,57.0,133.0,3,2.5215272903442383,None,,,,,0,0,0,0,0,62,62,46,254.86096334457397,,,,,,,,,,,,,,,,,,,,,,,,,,,,,,,,,,,,,,,,,,,,,,,,,,,,,,,,,,,,,,,,,,,,,,,,,,,,,,,,,133.0,57.0,78.0,78.0,57.0,133.0,2.1,2.11,-164,252,0,269,202,-270,254.8459050655365,254.84598636627197,254.8501420021057,254.86096334457397,255.01217341423035,255.01217341423035,255.01217341423035,255.01217341423035,255.01217341423035,255.01217341423035,255.01217341423035,257.3955662250519,3,2.5215272903442383,None,,,,,,,,,,,,,,,,,,227,1,2025-03-11_09h58.25.944,comp,2024.2.4,None,2025-03-11 09h58.41.342548 -0400,
63,63,0,filler_square,None,None,None,None,None,None,None,None,None,None,3,2.340245485305786,None,,,,,0,0,0,0,0,63,63,208,257.41117882728577,,,,,,,,,,,,,,,,,,,,,,,,,,,,,,,,,,,,,,,,,,,,,,,,,,,,,,,,,,,,,,,,,,,,,,,,,,,,,,,,,64.9575097147823,61.681089399656656,57.53359208171844,64.28985762560892,66.0937087869381,66.0937087869381,1.0,1.1,-639,260,-480,259,-319,264,257.3974494934082,257.3975360393524,257.40089321136475,257.41117882728577,257.561625957489,257.561625957489,257.561625957489,257.561625957489,257.561625957489,257.561625957489,257.561625957489,259.76299929618835,3,2.340245485305786,None,,,,,,,,,,,,,,,,,,227,1,2025-03-11_09h58.25.944,comp,2024.2.4,None,2025-03-11 09h58.41.342548 -0400,
64,64,0,critical,whd,20.0,2.1,lower,57.0,133.0,133.0,57.0,78.0,78.0,1,7.03507661819458,None,,,,,0,0,0,0,0,64,64,14,259.7796428203583,,,,,,,,,,,,,,,,,,,,,,,,,,,,,,,,,,,,,,,,,,,,,,,,,,,,,,,,,,,,,,,,,,,,,,,,,,,,,,,,,57.0,133.0,133.0,57.0,78.0,78.0,2.1,2.11,-191,273,0,284,164,-264,259.76467180252075,259.7647581100464,259.7688636779785,259.7796428203583,259.93265867233276,259.93265867233276,259.93265867233276,259.93265867233276,259.93265867233276,259.93265867233276,259.93265867233276,266.81710410118103,1,7.03507661819458,None,,,,,,,,,,,,,,,,,,227,1,2025-03-11_09h58.25.944,comp,2024.2.4,None,2025-03-11 09h58.41.342548 -0400,
65,65,0,critical,dwh,20.0,2.1,lower,78.0,78.0,57.0,133.0,133.0,57.0,3,1.8293712139129639,None,,,,,0,0,0,0,0,65,65,30,266.8334105014801,,,,,,,,,,,,,,,,,,,,,,,,,,,,,,,,,,,,,,,,,,,,,,,,,,,,,,,,,,,,,,,,,,,,,,,,,,,,,,,,,78.0,78.0,57.0,133.0,133.0,57.0,2.1,2.12,-202,-287,0,-289,191,258,266.81873321533203,266.8188190460205,266.822368144989,266.8334105014801,266.98655438423157,266.98655438423157,266.98655438423157,266.98655438423157,266.98655438423157,266.98655438423157,266.98655438423157,268.66749143600464,3,1.8293712139129639,None,,,,,,,,,,,,,,,,,,227,1,2025-03-11_09h58.25.944,comp,2024.2.4,None,2025-03-11 09h58.41.342548 -0400,
66,66,0,critical,hdw,20.0,4.0,lower,133.0,57.0,78.0,78.0,57.0,133.0,3,1.47318696975708,None,,,,,0,0,0,0,0,66,66,118,268.6863715648651,,,,,,,,,,,,,,,,,,,,,,,,,,,,,,,,,,,,,,,,,,,,,,,,,,,,,,,,,,,,,,,,,,,,,,,,,,,,,,,,,133.0,57.0,78.0,78.0,57.0,133.0,4.0,4.1,-164,-250,0,-10,202,-258,268.66922974586487,268.6693687438965,268.672917842865,268.6863715648651,268.8393220901489,268.8393220901489,268.8393220901489,268.8393220901489,268.8393220901489,268.8393220901489,268.8393220901489,270.168306350708,3,1.47318696975708,None,,,,,,,,,,,,,,,,,,227,1,2025-03-11_09h58.25.944,comp,2024.2.4,None,2025-03-11 09h58.41.342548 -0400,
67,67,0,filler_random,None,None,None,None,None,None,None,None,None,None,3,1.6225242614746094,None,,,,,0,0,0,0,0,67,67,168,270.18494629859924,,,,,,,,,,,,,,,,,,,,,,,,,,,,,,,,,,,,,,,,,,,,,,,,,,,,,,,,,,,,,,,,,,,,,,,,,,,,,,,,,70.67502893481515,89.18726739556584,178.85437057263835,67.16279076570369,140.32217405694308,103.73220102324203,3.0,3.2,-174,-258,0,7,181,250,270.17015409469604,270.170236825943,270.1741998195648,270.18494629859924,270.331157207489,270.331157207489,270.331157207489,270.331157207489,270.331157207489,270.331157207489,270.331157207489,271.81296730041504,3,1.6225242614746094,None,,,,,,,,,,,,,,,,,,227,1,2025-03-11_09h58.25.944,comp,2024.2.4,None,2025-03-11 09h58.41.342548 -0400,
68,68,0,critical,dwh,20.0,2.1,lower,78.0,78.0,57.0,133.0,133.0,57.0,1,2.761976480484009,None,,,,,0,0,0,0,0,68,68,6,271.829448223114,,,,,,,,,,,,,,,,,,,,,,,,,,,,,,,,,,,,,,,,,,,,,,,,,,,,,,,,,,,,,,,,,,,,,,,,,,,,,,,,,78.0,78.0,57.0,133.0,133.0,57.0,2.1,2.11,-202,272,0,251,191,-269,271.814528465271,271.81464648246765,271.8177011013031,271.829448223114,271.984069108963,271.984069108963,271.984069108963,271.984069108963,271.984069108963,271.984069108963,271.984069108963,274.6008961200714,1,2.761976480484009,None,,,,,,,,,,,,,,,,,,227,1,2025-03-11_09h58.25.944,comp,2024.2.4,None,2025-03-11 09h58.41.342548 -0400,
69,69,0,filler_square,None,None,None,None,None,None,None,None,None,None,1,1.9821271896362305,None,,,,,0,0,0,0,0,69,69,206,274.6171073913574,,,,,,,,,,,,,,,,,,,,,,,,,,,,,,,,,,,,,,,,,,,,,,,,,,,,,,,,,,,,,,,,,,,,,,,,,,,,,,,,,188.8041015248632,188.8041015248632,144.29144555197018,123.12623826504176,125.92966515064995,176.34106225808054,4.0,4.1,-252,-279,0,-1,246,-259,274.60285544395447,274.60294222831726,274.6063494682312,274.6171073913574,274.76838088035583,274.76838088035583,274.76838088035583,274.76838088035583,274.76838088035583,274.76838088035583,274.76838088035583,276.60441851615906,1,1.9821271896362305,None,,,,,,,,,,,,,,,,,,227,1,2025-03-11_09h58.25.944,comp,2024.2.4,None,2025-03-11 09h58.41.342548 -0400,
70,70,0,filler_random,None,None,None,None,None,None,None,None,None,None,3,1.983865737915039,None,,,,,0,0,0,0,0,70,70,164,276.62269377708435,,,,,,,,,,,,,,,,,,,,,,,,,,,,,,,,,,,,,,,,,,,,,,,,,,,,,,,,,,,,,,,,,,,,,,,,,,,,,,,,,97.82319331697175,72.84833392637536,68.66122203183798,119.72986329443019,121.6735195548032,126.35100276709944,2.2,2.22,-192,287,0,-262,219,-286,276.6064658164978,276.60655069351196,276.6097893714905,276.62269377708435,276.7683882713318,276.7683882713318,276.7683882713318,276.7683882713318,276.7683882713318,276.7683882713318,276.7683882713318,278.6253831386566,3,1.983865737915039,None,,,,,,,,,,,,,,,,,,227,1,2025-03-11_09h58.25.944,comp,2024.2.4,None,2025-03-11 09h58.41.342548 -0400,
71,71,0,filler_square,None,None,None,None,None,None,None,None,None,None,3,1.9530518054962158,None,,,,,0,0,0,0,0,71,71,170,278.64562153816223,,,,,,,,,,,,,,,,,,,,,,,,,,,,,,,,,,,,,,,,,,,,,,,,,,,,,,,,,,,,,,,,,,,,,,,,,,,,,,,,,59.75440303412117,79.49025989801729,78.14497241731651,60.77971090216224,82.27979179776099,82.27979179776099,1.0,1.1,-646,276,-480,282,-312,262,278.62726855278015,278.627347946167,278.63036370277405,278.64562153816223,278.7831254005432,278.7831254005432,278.7831254005432,278.7831254005432,278.7831254005432,278.7831254005432,278.7831254005432,280.6178135871887,3,1.9530518054962158,None,,,,,,,,,,,,,,,,,,227,1,2025-03-11_09h58.25.944,comp,2024.2.4,None,2025-03-11 09h58.41.342548 -0400,
72,72,0,filler_random,None,None,None,None,None,None,None,None,None,None,2,3.500575304031372,None,,,,,0,0,0,0,0,72,72,159,280.63390278816223,,,,,,,,,,,,,,,,,,,,,,,,,,,,,,,,,,,,,,,,,,,,,,,,,,,,,,,,,,,,,,,,,,,,,,,,,,,,,,,,,61.62882901694333,112.4737161416129,125.13478862940468,140.82592193240993,163.4759176438348,59.635062827798706,3.0,3.1,-223,275,0,-14,196,-276,280.61967158317566,280.6197760105133,280.6231026649475,280.63390278816223,280.79122400283813,280.79122400283813,280.79122400283813,280.79122400283813,280.79122400283813,280.79122400283813,280.79122400283813,284.1377947330475,2,3.500575304031372,None,,,,,,,,,,,,,,,,,,227,1,2025-03-11_09h58.25.944,comp,2024.2.4,None,2025-03-11 09h58.41.342548 -0400,
73,73,0,filler_random,None,None,None,None,None,None,None,None,None,None,2,10.5643150806427,None,,,,,0,0,0,0,0,73,73,163,284.15457010269165,,,,,,,,,,,,,,,,,,,,,,,,,,,,,,,,,,,,,,,,,,,,,,,,,,,,,,,,,,,,,,,,,,,,,,,,,,,,,,,,,81.97004288542894,138.38037221446257,126.4398987032027,84.45452047262283,159.48358119767147,65.67996894098812,1.0,1.1,-687,280,-480,286,-309,254,284.139919757843,284.1400022506714,284.14369797706604,284.15457010269165,284.30317187309265,284.30317187309265,284.30317187309265,284.30317187309265,284.30317187309265,284.30317187309265,284.30317187309265,294.72210216522217,2,10.5643150806427,None,,,,,,,,,,,,,,,,,,227,1,2025-03-11_09h58.25.944,comp,2024.2.4,None,2025-03-11 09h58.41.342548 -0400,
74,74,0,filler_square,None,None,None,None,None,None,None,None,None,None,2,1.4674451351165771,None,,,,,0,0,0,0,0,74,74,190,294.7392313480377,,,,,,,,,,,,,,,,,,,,,,,,,,,,,,,,,,,,,,,,,,,,,,,,,,,,,,,,,,,,,,,,,,,,,,,,,,,,,,,,,84.86718180565742,67.13721352171723,89.09217036066117,89.09217036066117,69.79498259562985,59.9541526279873,2.2,2.21,-174,-269,0,251,171,261,294.7241835594177,294.724267244339,294.7277021408081,294.7392313480377,294.89394664764404,294.89394664764404,294.89394664764404,294.89394664764404,294.89394664764404,294.89394664764404,294.89394664764404,296.22286224365234,2,1.4674451351165771,None,,,,,,,,,,,,,,,,,,227,1,2025-03-11_09h58.25.944,comp,2024.2.4,None,2025-03-11 09h58.41.342548 -0400,
75,75,0,filler_random,None,None,None,None,None,None,None,None,None,None,1,1.519355297088623,None,,,,,0,0,0,0,0,75,75,158,296.239191532135,,,,,,,,,,,,,,,,,,,,,,,,,,,,,,,,,,,,,,,,,,,,,,,,,,,,,,,,,,,,,,,,,,,,,,,,,,,,,,,,,106.97919016864728,169.4344815086935,87.08943919444158,111.72491774725174,97.78008440160174,83.75597104838297,2.1,2.11,-237,279,0,269,194,-286,296.2246198654175,296.2246992588043,296.2280168533325,296.239191532135,296.38654494285583,296.38654494285583,296.38654494285583,296.38654494285583,296.38654494285583,296.38654494285583,296.38654494285583,297.77326011657715,1,1.519355297088623,None,,,,,,,,,,,,,,,,,,227,1,2025-03-11_09h58.25.944,comp,2024.2.4,None,2025-03-11 09h58.41.342548 -0400,
76,76,0,critical,dhw,20.0,2.1,lower,78.0,78.0,133.0,57.0,57.0,133.0,3,1.8894538879394531,None,,,,,0,0,0,0,0,76,76,26,297.78922271728516,,,,,,,,,,,,,,,,,,,,,,,,,,,,,,,,,,,,,,,,,,,,,,,,,,,,,,,,,,,,,,,,,,,,,,,,,,,,,,,,,78.0,78.0,133.0,57.0,57.0,133.0,2.1,2.11,-164,260,0,262,191,-268,297.77484941482544,297.77492904663086,297.7782452106476,297.78922271728516,297.93960666656494,297.93960666656494,297.93960666656494,297.93960666656494,297.93960666656494,297.93960666656494,297.93960666656494,299.69154024124146,3,1.8894538879394531,None,,,,,,,,,,,,,,,,,,227,1,2025-03-11_09h58.25.944,comp,2024.2.4,None,2025-03-11 09h58.41.342548 -0400,
77,77,0,filler_square,None,None,None,None,None,None,None,None,None,None,3,2.0188324451446533,None,,,,,0,0,0,0,0,77,77,196,299.7076635360718,,,,,,,,,,,,,,,,,,,,,,,,,,,,,,,,,,,,,,,,,,,,,,,,,,,,,,,,,,,,,,,,,,,,,,,,,,,,,,,,,68.44150133811237,68.44150133811237,59.06687343779565,59.314249670587685,65.13771850025611,65.42632866772239,2.2,2.22,-160,257,0,-254,158,-271,299.69348549842834,299.69356632232666,299.6973316669464,299.7076635360718,299.8593521118164,299.8593521118164,299.8593521118164,299.8593521118164,299.8593521118164,299.8593521118164,299.8593521118164,301.7420299053192,3,2.0188324451446533,None,,,,,,,,,,,,,,,,,,227,1,2025-03-11_09h58.25.944,comp,2024.2.4,None,2025-03-11 09h58.41.342548 -0400,
78,78,0,critical,dwh,35.0,2.1,lower,70.0,70.0,57.0,133.0,133.0,57.0,3,6.952723026275635,None,,,,,0,0,0,0,0,78,78,4,301.75789642333984,,,,,,,,,,,,,,,,,,,,,,,,,,,,,,,,,,,,,,,,,,,,,,,,,,,,,,,,,,,,,,,,,,,,,,,,,,,,,,,,,70.0,70.0,57.0,133.0,133.0,57.0,2.1,2.11,-198,258,0,273,191,-286,301.7437982559204,301.7438802719116,301.74748277664185,301.75789642333984,301.9075536727905,301.9075536727905,301.9075536727905,301.9075536727905,301.9075536727905,301.9075536727905,301.9075536727905,308.7129240036011,3,6.952723026275635,None,,,,,,,,,,,,,,,,,,227,1,2025-03-11_09h58.25.944,comp,2024.2.4,None,2025-03-11 09h58.41.342548 -0400,
79,79,0,critical,wdh,20.0,4.0,lower,57.0,133.0,78.0,78.0,133.0,57.0,2,1.8373346328735352,None,,,,,0,0,0,0,0,79,79,82,308.7295141220093,,,,,,,,,,,,,,,,,,,,,,,,,,,,,,,,,,,,,,,,,,,,,,,,,,,,,,,,,,,,,,,,,,,,,,,,,,,,,,,,,57.0,133.0,78.0,78.0,133.0,57.0,4.0,4.2,-202,15,0,-256,164,-3,308.714715719223,308.71479868888855,308.718736410141,308.7295141220093,308.8812325000763,308.8812325000763,308.8812325000763,308.8812325000763,308.8812325000763,308.8812325000763,308.8812325000763,310.57621788978577,2,1.8373346328735352,None,,,,,,,,,,,,,,,,,,227,1,2025-03-11_09h58.25.944,comp,2024.2.4,None,2025-03-11 09h58.41.342548 -0400,
80,80,0,critical,wdh,20.0,2.1,upper,125.0,200.0,141.0,141.0,200.0,125.0,1,3.2479350566864014,None,,,,,0,0,0,0,0,80,80,11,310.59202671051025,,,,,,,,,,,,,,,,,,,,,,,,,,,,,,,,,,,,,,,,,,,,,,,,,,,,,,,,,,,,,,,,,,,,,,,,,,,,,,,,,125.0,200.0,141.0,141.0,200.0,125.0,2.1,2.12,-266,-272,0,-280,229,261,310.5777451992035,310.577823638916,310.58087158203125,310.59202671051025,310.74368119239807,310.74368119239807,310.74368119239807,310.74368119239807,310.74368119239807,310.74368119239807,310.74368119239807,313.84360671043396,1,3.2479350566864014,None,,,,,,,,,,,,,,,,,,227,1,2025-03-11_09h58.25.944,comp,2024.2.4,None,2025-03-11 09h58.41.342548 -0400,
81,81,0,filler_square,None,None,None,None,None,None,None,None,None,None,3,1.1542861461639404,None,,,,,0,0,0,0,0,81,81,184,313.86069345474243,,,,,,,,,,,,,,,,,,,,,,,,,,,,,,,,,,,,,,,,,,,,,,,,,,,,,,,,,,,,,,,,,,,,,,,,,,,,,,,,,87.12043636338758,59.03995313542736,100.81487370812017,128.6639486361119,183.7571328533462,183.7571328533462,4.0,4.1,-190,-280,0,10,252,-252,313.8454279899597,313.84550738334656,313.8486325740814,313.86069345474243,313.99920558929443,313.99920558929443,313.99920558929443,313.99920558929443,313.99920558929443,313.99920558929443,313.99920558929443,315.0173387527466,3,1.1542861461639404,None,,,,,,,,,,,,,,,,,,227,1,2025-03-11_09h58.25.944,comp,2024.2.4,None,2025-03-11 09h58.41.342548 -0400,
82,82,0,critical,wdh,35.0,2.1,lower,57.0,133.0,70.0,70.0,133.0,57.0,3,2.0129473209381104,None,,,,,0,0,0,0,0,82,82,8,315.03352975845337,,,,,,,,,,,,,,,,,,,,,,,,,,,,,,,,,,,,,,,,,,,,,,,,,,,,,,,,,,,,,,,,,,,,,,,,,,,,,,,,,57.0,133.0,70.0,70.0,133.0,57.0,2.1,2.12,-198,-257,0,-279,160,279,315.01906180381775,315.01914405822754,315.0226020812988,315.03352975845337,315.1791248321533,315.1791248321533,315.1791248321533,315.1791248321533,315.1791248321533,315.1791248321533,315.1791248321533,317.06242752075195,3,2.0129473209381104,None,,,,,,,,,,,,,,,,,,227,1,2025-03-11_09h58.25.944,comp,2024.2.4,None,2025-03-11 09h58.41.342548 -0400,
83,83,0,filler_square,None,None,None,None,None,None,None,None,None,None,2,1.7273688316345215,None,,,,,0,0,0,0,0,83,83,176,317.07926392555237,,,,,,,,,,,,,,,,,,,,,,,,,,,,,,,,,,,,,,,,,,,,,,,,,,,,,,,,,,,,,,,,,,,,,,,,,,,,,,,,,62.45495941202192,64.33533412189786,84.95543537533696,84.95543537533696,72.57575813212841,71.65211508493466,2.1,2.11,-171,280,0,267,174,-271,317.06442379951477,317.0645034313202,317.06808614730835,317.07926392555237,317.2305209636688,317.2305209636688,317.2305209636688,317.2305209636688,317.2305209636688,317.2305209636688,317.2305209636688,318.81968426704407,2,1.7273688316345215,None,,,,,,,,,,,,,,,,,,227,1,2025-03-11_09h58.25.944,comp,2024.2.4,None,2025-03-11 09h58.41.342548 -0400,
84,84,0,critical,hdw,20.0,2.1,lower,133.0,57.0,78.0,78.0,57.0,133.0,3,3.803755521774292,None,,,,,0,0,0,0,0,84,84,22,318.83588123321533,,,,,,,,,,,,,,,,,,,,,,,,,,,,,,,,,,,,,,,,,,,,,,,,,,,,,,,,,,,,,,,,,,,,,,,,,,,,,,,,,133.0,57.0,78.0,78.0,57.0,133.0,2.1,2.12,-164,-253,0,-271,202,273,318.82139921188354,318.82150316238403,318.8249452114105,318.83588123321533,318.98036074638367,318.98036074638367,318.98036074638367,318.98036074638367,318.98036074638367,318.98036074638367,318.98036074638367,322.647091627121,3,3.803755521774292,None,,,,,,,,,,,,,,,,,,227,1,2025-03-11_09h58.25.944,comp,2024.2.4,None,2025-03-11 09h58.41.342548 -0400,
85,85,0,critical,hwd,20.0,3.0,lower,133.0,57.0,57.0,133.0,78.0,78.0,3,1.7183866500854492,None,,,,,0,0,0,0,0,85,85,104,322.6641969680786,,,,,,,,,,,,,,,,,,,,,,,,,,,,,,,,,,,,,,,,,,,,,,,,,,,,,,,,,,,,,,,,,,,,,,,,,,,,,,,,,133.0,57.0,57.0,133.0,78.0,78.0,3.0,3.1,-191,260,0,-12,202,-280,322.64877700805664,322.6489074230194,322.65229654312134,322.6641969680786,322.80274987220764,322.80274987220764,322.80274987220764,322.80274987220764,322.80274987220764,322.80274987220764,322.80274987220764,324.3981647491455,3,1.7183866500854492,None,,,,,,,,,,,,,,,,,,227,1,2025-03-11_09h58.25.944,comp,2024.2.4,None,2025-03-11 09h58.41.342548 -0400,
86,86,0,critical,wdh,20.0,3.0,lower,57.0,133.0,78.0,78.0,133.0,57.0,2,6.137473106384277,None,,,,,0,0,0,0,0,86,86,80,324.4138731956482,,,,,,,,,,,,,,,,,,,,,,,,,,,,,,,,,,,,,,,,,,,,,,,,,,,,,,,,,,,,,,,,,,,,,,,,,,,,,,,,,57.0,133.0,78.0,78.0,133.0,57.0,3.0,3.1,-202,255,0,-19,164,-272,324.39972829818726,324.3998076915741,324.4031023979187,324.4138731956482,324.57108426094055,324.57108426094055,324.57108426094055,324.57108426094055,324.57108426094055,324.57108426094055,324.57108426094055,330.55578875541687,2,6.137473106384277,None,,,,,,,,,,,,,,,,,,227,1,2025-03-11_09h58.25.944,comp,2024.2.4,None,2025-03-11 09h58.41.342548 -0400,
87,87,0,critical,hdw,20.0,3.0,lower,133.0,57.0,78.0,78.0,57.0,133.0,2,2.1865296363830566,None,,,,,0,0,0,0,0,87,87,116,330.5720748901367,,,,,,,,,,,,,,,,,,,,,,,,,,,,,,,,,,,,,,,,,,,,,,,,,,,,,,,,,,,,,,,,,,,,,,,,,,,,,,,,,133.0,57.0,78.0,78.0,57.0,133.0,3.0,3.2,-164,-272,0,18,202,275,330.5573043823242,330.55738711357117,330.5604090690613,330.5720748901367,330.7178280353546,330.7178280353546,330.7178280353546,330.7178280353546,330.7178280353546,330.7178280353546,330.7178280353546,332.7727897167206,2,2.1865296363830566,None,,,,,,,,,,,,,,,,,,227,1,2025-03-11_09h58.25.944,comp,2024.2.4,None,2025-03-11 09h58.41.342548 -0400,
88,88,0,critical,hwd,35.0,4.0,upper,200.0,125.0,125.0,200.0,127.0,127.0,1,2.067380428314209,None,,,,,0,0,0,0,0,88,88,101,332.787428855896,,,,,,,,,,,,,,,,,,,,,,,,,,,,,,,,,,,,,,,,,,,,,,,,,,,,,,,,,,,,,,,,,,,,,,,,,,,,,,,,,200.0,125.0,125.0,200.0,127.0,127.0,4.0,4.1,-258,-276,0,-17,260,-275,332.7743592262268,332.7744448184967,332.77790904045105,332.787428855896,332.9333209991455,332.9333209991455,332.9333209991455,332.9333209991455,332.9333209991455,332.9333209991455,332.9333209991455,334.868905544281,1,2.067380428314209,None,,,,,,,,,,,,,,,,,,227,1,2025-03-11_09h58.25.944,comp,2024.2.4,None,2025-03-11 09h58.41.342548 -0400,
89,89,0,filler_square,None,None,None,None,None,None,None,None,None,None,3,1.3612360954284668,None,,,,,0,0,0,0,0,89,89,207,334.8857979774475,,,,,,,,,,,,,,,,,,,,,,,,,,,,,,,,,,,,,,,,,,,,,,,,,,,,,,,,,,,,,,,,,,,,,,,,,,,,,,,,,81.95713481840876,81.95713481840876,62.69321359026173,57.346890527344556,81.13495287376666,72.26071675343509,2.2,2.21,-166,-282,0,274,161,270,334.8709695339203,334.8710491657257,334.8749511241913,334.8857979774475,335.0334167480469,335.0334167480469,335.0334167480469,335.0334167480469,335.0334167480469,335.0334167480469,335.0334167480469,336.2516212463379,3,1.3612360954284668,None,,,,,,,,,,,,,,,,,,227,1,2025-03-11_09h58.25.944,comp,2024.2.4,None,2025-03-11 09h58.41.342548 -0400,
90,90,0,critical,dhw,35.0,3.0,upper,127.0,127.0,200.0,125.0,125.0,200.0,3,1.9633681774139404,None,,,,,0,0,0,0,0,90,90,51,336.2677409648895,,,,,,,,,,,,,,,,,,,,,,,,,,,,,,,,,,,,,,,,,,,,,,,,,,,,,,,,,,,,,,,,,,,,,,,,,,,,,,,,,127.0,127.0,200.0,125.0,125.0,200.0,3.0,3.1,-222,255,0,20,258,-258,336.25315260887146,336.25323152542114,336.2564215660095,336.2677409648895,336.4245491027832,336.4245491027832,336.4245491027832,336.4245491027832,336.4245491027832,336.4245491027832,336.4245491027832,338.2408072948456,3,1.9633681774139404,None,,,,,,,,,,,,,,,,,,227,1,2025-03-11_09h58.25.944,comp,2024.2.4,None,2025-03-11 09h58.41.342548 -0400,
91,91,0,critical,hdw,35.0,1.0,lower,133.0,57.0,70.0,70.0,57.0,133.0,3,2.650459051132202,None,,,,,0,0,0,0,0,91,91,108,338.2601315975189,,,,,,,,,,,,,,,,,,,,,,,,,,,,,,,,,,,,,,,,,,,,,,,,,,,,,,,,,,,,,,,,,,,,,,,,,,,,,,,,,133.0,57.0,70.0,70.0,57.0,133.0,1.0,1.1,-640,259,-480,269,-282,279,338.24245023727417,338.2425322532654,338.24555826187134,338.2601315975189,338.40338134765625,338.40338134765625,338.40338134765625,338.40338134765625,338.40338134765625,338.40338134765625,338.40338134765625,340.9293620586395,3,2.650459051132202,None,,,,,,,,,,,,,,,,,,227,1,2025-03-11_09h58.25.944,comp,2024.2.4,None,2025-03-11 09h58.41.342548 -0400,
92,92,0,filler_random,None,None,None,None,None,None,None,None,None,None,2,3.3979198932647705,None,,,,,0,0,0,0,0,92,92,151,340.947390794754,,,,,,,,,,,,,,,,,,,,,,,,,,,,,,,,,,,,,,,,,,,,,,,,,,,,,,,,,,,,,,,,,,,,,,,,,,,,,,,,,145.85671770623574,169.56324495553412,160.70234018565992,176.4126589276692,144.35275511129916,163.9134585997494,1.0,1.3,211,-275,480,-285,746,-285,340.9311304092407,340.93121242523193,340.9342255592346,340.947390794754,341.089670419693,341.089670419693,341.089670419693,341.089670419693,341.089670419693,341.089670419693,341.089670419693,344.3558225631714,2,3.3979198932647705,None,,,,,,,,,,,,,,,,,,227,1,2025-03-11_09h58.25.944,comp,2024.2.4,None,2025-03-11 09h58.41.342548 -0400,
93,93,0,critical,hdw,35.0,2.1,lower,133.0,57.0,70.0,70.0,57.0,133.0,3,2.090005397796631,None,,,,,0,0,0,0,0,93,93,44,344.3725497722626,,,,,,,,,,,,,,,,,,,,,,,,,,,,,,,,,,,,,,,,,,,,,,,,,,,,,,,,,,,,,,,,,,,,,,,,,,,,,,,,,133.0,57.0,70.0,70.0,57.0,133.0,2.1,2.12,-160,-271,0,-287,198,251,344.35747385025024,344.35755825042725,344.3617630004883,344.3725497722626,344.5260000228882,344.5260000228882,344.5260000228882,344.5260000228882,344.5260000228882,344.5260000228882,344.5260000228882,346.47732520103455,3,2.090005397796631,None,,,,,,,,,,,,,,,,,,227,1,2025-03-11_09h58.25.944,comp,2024.2.4,None,2025-03-11 09h58.41.342548 -0400,
94,94,0,critical,wdh,20.0,1.0,upper,125.0,200.0,141.0,141.0,200.0,125.0,3,2.7677488327026367,None,,,,,0,0,0,0,0,94,94,79,346.49473428726196,,,,,,,,,,,,,,,,,,,,,,,,,,,,,,,,,,,,,,,,,,,,,,,,,,,,,,,,,,,,,,,,,,,,,,,,,,,,,,,,,125.0,200.0,141.0,141.0,200.0,125.0,1.0,1.1,-746,276,-480,288,-251,284,346.4789092540741,346.4789893627167,346.48201608657837,346.49473428726196,346.63967204093933,346.63967204093933,346.63967204093933,346.63967204093933,346.63967204093933,346.63967204093933,346.63967204093933,349.2800097465515,3,2.7677488327026367,None,,,,,,,,,,,,,,,,,,227,1,2025-03-11_09h58.25.944,comp,2024.2.4,None,2025-03-11 09h58.41.342548 -0400,
95,95,0,catch,None,None,None,None,None,None,None,None,None,None,1,1.620884656906128,None,,,,,0,0,0,0,0,95,95,122,349.2980749607086,,,,,,,,,,,,,,,,,,,,,,,,,,,,,,,,,,,,,,,,,,,,,,,,,,,,,,,,,,,,,,,,,,,,,,,,,,,,,,,,,174,151,106,84,117,73,2.1,2.12,-214,-266,0,-271,174,286,349.2820928096771,349.2821707725525,349.28555154800415,349.2980749607086,349.44043469429016,349.44043469429016,349.44043469429016,349.44043469429016,349.44043469429016,349.44043469429016,349.44043469429016,350.9230172634125,1,1.620884656906128,None,,,,,,,,,,,,,,,,,,227,1,2025-03-11_09h58.25.944,comp,2024.2.4,None,2025-03-11 09h58.41.342548 -0400,
96,96,0,critical,hdw,20.0,1.0,lower,133.0,57.0,78.0,78.0,57.0,133.0,3,5.026076793670654,None,,,,,0,0,0,0,0,96,96,114,350.940545797348,,,,,,,,,,,,,,,,,,,,,,,,,,,,,,,,,,,,,,,,,,,,,,,,,,,,,,,,,,,,,,,,,,,,,,,,,,,,,,,,,133.0,57.0,78.0,78.0,57.0,133.0,1.0,1.3,316,-271,480,-264,682,-276,350.9247348308563,350.92481541633606,350.9282169342041,350.940545797348,351.09132051467896,351.09132051467896,351.09132051467896,351.09132051467896,351.09132051467896,351.09132051467896,351.09132051467896,355.9789185523987,3,5.026076793670654,None,,,,,,,,,,,,,,,,,,227,1,2025-03-11_09h58.25.944,comp,2024.2.4,None,2025-03-11 09h58.41.342548 -0400,
97,97,0,critical,hwd,35.0,2.1,lower,133.0,57.0,57.0,133.0,70.0,70.0,2,1.5155160427093506,None,,,,,0,0,0,0,0,97,97,40,355.99536323547363,,,,,,,,,,,,,,,,,,,,,,,,,,,,,,,,,,,,,,,,,,,,,,,,,,,,,,,,,,,,,,,,,,,,,,,,,,,,,,,,,133.0,57.0,57.0,133.0,70.0,70.0,2.1,2.11,-191,265,0,259,198,-277,355.98057532310486,355.9807343482971,355.9841220378876,355.99536323547363,356.14150643348694,356.14150643348694,356.14150643348694,356.14150643348694,356.14150643348694,356.14150643348694,356.14150643348694,357.5133783817291,2,1.5155160427093506,None,,,,,,,,,,,,,,,,,,227,1,2025-03-11_09h58.25.944,comp,2024.2.4,None,2025-03-11 09h58.41.342548 -0400,
98,98,0,critical,dwh,35.0,3.0,lower,70.0,70.0,57.0,133.0,133.0,57.0,3,1.2578015327453613,None,,,,,0,0,0,0,0,98,98,62,357.5331509113312,,,,,,,,,,,,,,,,,,,,,,,,,,,,,,,,,,,,,,,,,,,,,,,,,,,,,,,,,,,,,,,,,,,,,,,,,,,,,,,,,70.0,70.0,57.0,133.0,133.0,57.0,3.0,3.1,-198,258,0,-19,191,-265,357.5150468349457,357.51512694358826,357.5181288719177,357.5331509113312,357.6775541305542,357.6775541305542,357.6775541305542,357.6775541305542,357.6775541305542,357.6775541305542,357.6775541305542,358.7969264984131,3,1.2578015327453613,None,,,,,,,,,,,,,,,,,,227,1,2025-03-11_09h58.25.944,comp,2024.2.4,None,2025-03-11 09h58.41.342548 -0400,
99,99,0,critical,hdw,35.0,1.0,upper,200.0,125.0,127.0,127.0,125.0,200.0,1,2.109821081161499,None,,,,,0,0,0,0,0,99,99,109,358.81697940826416,,,,,,,,,,,,,,,,,,,,,,,,,,,,,,,,,,,,,,,,,,,,,,,,,,,,,,,,,,,,,,,,,,,,,,,,,,,,,,,,,200.0,125.0,127.0,127.0,125.0,200.0,1.0,1.1,-702,265,-480,266,-220,266,358.7986500263214,358.79878878593445,358.8023166656494,358.81697940826416,358.9611246585846,358.9611246585846,358.9611246585846,358.9611246585846,358.9611246585846,358.9611246585846,358.9611246585846,360.9307725429535,1,2.109821081161499,None,,,,,,,,,,,,,,,,,,227,1,2025-03-11_09h58.25.944,comp,2024.2.4,None,2025-03-11 09h58.41.342548 -0400,
100,100,0,critical,dhw,20.0,2.1,lower,78.0,78.0,133.0,57.0,57.0,133.0,3,1.4814610481262207,None,,,,,0,0,0,0,0,100,100,2,360.9491307735443,,,,,,,,,,,,,,,,,,,,,,,,,,,,,,,,,,,,,,,,,,,,,,,,,,,,,,,,,,,,,,,,,,,,,,,,,,,,,,,,,78.0,78.0,133.0,57.0,57.0,133.0,2.1,2.11,-164,278,0,254,191,-276,360.93245792388916,360.93261551856995,360.9361367225647,360.9491307735443,361.09436798095703,361.09436798095703,361.09436798095703,361.09436798095703,361.09436798095703,361.09436798095703,361.09436798095703,362.4481463432312,3,1.4814610481262207,None,,,,,,,,,,,,,,,,,,227,1,2025-03-11_09h58.25.944,comp,2024.2.4,None,2025-03-11 09h58.41.342548 -0400,
101,101,0,filler_random,None,None,None,None,None,None,None,None,None,None,2,1.0538990497589111,None,,,,,0,0,0,0,0,101,101,133,362.46453404426575,,,,,,,,,,,,,,,,,,,,,,,,,,,,,,,,,,,,,,,,,,,,,,,,,,,,,,,,,,,,,,,,,,,,,,,,,,,,,,,,,90.30910909292496,130.9237246937048,128.84022389692007,188.16233389228432,98.13125388796865,147.75537984557945,4.0,4.2,-256,-7,0,-260,264,9,362.4501953125,362.4503011703491,362.4533610343933,362.46453404426575,362.6086051464081,362.6086051464081,362.6086051464081,362.6086051464081,362.6086051464081,362.6086051464081,362.6086051464081,363.529137134552,2,1.0538990497589111,None,,,,,,,,,,,,,,,,,,227,1,2025-03-11_09h58.25.944,comp,2024.2.4,None,2025-03-11 09h58.41.342548 -0400,
102,102,0,catch,None,None,None,None,None,None,None,None,None,None,1,0.9327242374420166,None,,,,,0,0,0,0,0,102,102,121,363.546106338501,,,,,,,,,,,,,,,,,,,,,,,,,,,,,,,,,,,,,,,,,,,,,,,,,,,,,,,,,,,,,,,,,,,,,,,,,,,,,,,,,183,142,115,75,97,93,4.0,4.1,-204,-252,0,-6,180,-279,363.53135681152344,363.5314390659332,363.53540420532227,363.546106338501,363.69494223594666,363.69494223594666,363.69494223594666,363.69494223594666,363.69494223594666,363.69494223594666,363.69494223594666,364.4948093891144,1,0.9327242374420166,None,,,,,,,,,,,,,,,,,,227,1,2025-03-11_09h58.25.944,comp,2024.2.4,None,2025-03-11 09h58.41.342548 -0400,
103,103,0,filler_random,None,None,None,None,None,None,None,None,None,None,1,2.4558680057525635,None,,,,,0,0,0,0,0,103,103,131,364.51070284843445,,,,,,,,,,,,,,,,,,,,,,,,,,,,,,,,,,,,,,,,,,,,,,,,,,,,,,,,,,,,,,,,,,,,,,,,,,,,,,,,,194.37359994580123,87.92057718842244,92.33218820741999,65.54884664685342,124.20939115858215,95.17981091787757,4.0,4.1,-173,-264,0,7,176,-277,364.49666357040405,364.49680256843567,364.5003094673157,364.51070284843445,364.66712188720703,364.66712188720703,364.66712188720703,364.66712188720703,364.66712188720703,364.66712188720703,364.66712188720703,366.9816954135895,1,2.4558680057525635,None,,,,,,,,,,,,,,,,,,227,1,2025-03-11_09h58.25.944,comp,2024.2.4,None,2025-03-11 09h58.41.342548 -0400,
104,104,0,catch,None,None,None,None,None,None,None,None,None,None,2,1.0552067756652832,None,,,,,0,0,0,0,0,104,104,123,367.0004689693451,,,,,,,,,,,,,,,,,,,,,,,,,,,,,,,,,,,,,,,,,,,,,,,,,,,,,,,,,,,,,,,,,,,,,,,,,,,,,,,,,85,105,183,142,113,77,2.2,2.21,-220,-288,0,253,206,258,366.98379588127136,366.9838836193085,366.9869523048401,367.0004689693451,367.14516973495483,367.14516973495483,367.14516973495483,367.14516973495483,367.14516973495483,367.14516973495483,367.14516973495483,368.0607080459595,2,1.0552067756652832,None,,,,,,,,,,,,,,,,,,227,1,2025-03-11_09h58.25.944,comp,2024.2.4,None,2025-03-11 09h58.41.342548 -0400,
105,105,0,filler_random,None,None,None,None,None,None,None,None,None,None,3,1.2976231575012207,None,,,,,0,0,0,0,0,105,105,169,368.07693791389465,,,,,,,,,,,,,,,,,,,,,,,,,,,,,,,,,,,,,,,,,,,,,,,,,,,,,,,,,,,,,,,,,,,,,,,,,,,,,,,,,96.70398735485445,104.48446612537823,174.6246114643808,73.81270184769178,182.180726198456,80.49380302449498,4.0,4.2,-185,3,0,-265,173,-4,368.0626881122589,368.06276965141296,368.06624245643616,368.07693791389465,368.21747517585754,368.21747517585754,368.21747517585754,368.21747517585754,368.21747517585754,368.21747517585754,368.21747517585754,369.38905453681946,3,1.2976231575012207,None,,,,,,,,,,,,,,,,,,227,1,2025-03-11_09h58.25.944,comp,2024.2.4,None,2025-03-11 09h58.41.342548 -0400,
106,106,0,filler_square,None,None,None,None,None,None,None,None,None,None,2,1.1376276016235352,None,,,,,0,0,0,0,0,106,106,183,369.40505814552307,,,,,,,,,,,,,,,,,,,,,,,,,,,,,,,,,,,,,,,,,,,,,,,,,,,,,,,,,,,,,,,,,,,,,,,,,,,,,,,,,77.4232973592641,72.62689522300651,167.03977403399136,167.03977403399136,164.52095420177602,119.05089689150704,3.0,3.1,-216,251,0,12,239,-278,369.3911497592926,369.3912284374237,369.3946301937103,369.40505814552307,369.5506942272186,369.5506942272186,369.5506942272186,369.5506942272186,369.5506942272186,369.5506942272186,369.5506942272186,370.54683804512024,2,1.1376276016235352,None,,,,,,,,,,,,,,,,,,227,1,2025-03-11_09h58.25.944,comp,2024.2.4,None,2025-03-11 09h58.41.342548 -0400,
107,107,0,filler_square,None,None,None,None,None,None,None,None,None,None,2,1.4032509326934814,None,,,,,0,0,0,0,0,107,107,171,370.5639433860779,,,,,,,,,,,,,,,,,,,,,,,,,,,,,,,,,,,,,,,,,,,,,,,,,,,,,,,,,,,,,,,,,,,,,,,,,,,,,,,,,85.60493441733969,63.15045455168237,97.93674724250127,88.36087113716444,99.03858065311006,99.03858065311006,2.1,2.12,-172,-252,0,-271,190,269,370.54871344566345,370.54879689216614,370.55295491218567,370.5639433860779,370.7042350769043,370.7042350769043,370.7042350769043,370.7042350769043,370.7042350769043,370.7042350769043,370.7042350769043,371.9832890033722,2,1.4032509326934814,None,,,,,,,,,,,,,,,,,,227,1,2025-03-11_09h58.25.944,comp,2024.2.4,None,2025-03-11 09h58.41.342548 -0400,
108,108,0,filler_random,None,None,None,None,None,None,None,None,None,None,1,1.0229406356811523,None,,,,,0,0,0,0,0,108,108,150,371.9996700286865,,,,,,,,,,,,,,,,,,,,,,,,,,,,,,,,,,,,,,,,,,,,,,,,,,,,,,,,,,,,,,,,,,,,,,,,,,,,,,,,,145.03873292704944,178.05993722925803,62.2942560207359,112.18741172120329,93.47962872869793,87.89220894735712,3.0,3.1,-241,275,0,17,196,-260,371.9851996898651,371.985280752182,371.9893138408661,371.9996700286865,372.14756202697754,372.14756202697754,372.14756202697754,372.14756202697754,372.14756202697754,372.14756202697754,372.14756202697754,373.0383038520813,1,1.0229406356811523,None,,,,,,,,,,,,,,,,,,227,1,2025-03-11_09h58.25.944,comp,2024.2.4,None,2025-03-11 09h58.41.342548 -0400,
109,109,0,critical,dhw,20.0,4.0,upper,141.0,141.0,200.0,125.0,125.0,200.0,3,1.8247044086456299,None,,,,,0,0,0,0,0,109,109,59,373.0539855957031,,,,,,,,,,,,,,,,,,,,,,,,,,,,,,,,,,,,,,,,,,,,,,,,,,,,,,,,,,,,,,,,,,,,,,,,,,,,,,,,,141.0,141.0,200.0,125.0,125.0,200.0,4.0,4.1,-229,-272,0,-14,258,-266,373.03997707366943,373.0400960445404,373.0434489250183,373.0539855957031,373.1980257034302,373.1980257034302,373.1980257034302,373.1980257034302,373.1980257034302,373.1980257034302,373.1980257034302,374.88275837898254,3,1.8247044086456299,None,,,,,,,,,,,,,,,,,,227,1,2025-03-11_09h58.25.944,comp,2024.2.4,None,2025-03-11 09h58.41.342548 -0400,
110,110,0,filler_random,None,None,None,None,None,None,None,None,None,None,2,1.4066722393035889,None,,,,,0,0,0,0,0,110,110,152,374.90398812294006,,,,,,,,,,,,,,,,,,,,,,,,,,,,,,,,,,,,,,,,,,,,,,,,,,,,,,,,,,,,,,,,,,,,,,,,,,,,,,,,,65.6480706729624,142.3267730814439,183.52633967947673,129.89774945424608,197.36129717342948,118.047791385124,4.0,4.2,-232,3,0,-263,220,-20,374.8845570087433,374.8847246170044,374.8881299495697,374.90398812294006,375.0492489337921,375.0492489337921,375.0492489337921,375.0492489337921,375.0492489337921,375.0492489337921,375.0492489337921,376.31268334388733,2,1.4066722393035889,None,,,,,,,,,,,,,,,,,,227,1,2025-03-11_09h58.25.944,comp,2024.2.4,None,2025-03-11 09h58.41.342548 -0400,
111,111,0,catch,None,None,None,None,None,None,None,None,None,None,2,1.2489914894104004,None,,,,,0,0,0,0,0,111,111,126,376.3335015773773,,,,,,,,,,,,,,,,,,,,,,,,,,,,,,,,,,,,,,,,,,,,,,,,,,,,,,,,,,,,,,,,,,,,,,,,,,,,,,,,,85,105,189,136,93,97,2.2,2.22,-216,286,0,-267,212,-273,376.3147027492523,376.31478357315063,376.31778478622437,376.3335015773773,376.466454744339,376.466454744339,376.466454744339,376.466454744339,376.466454744339,376.466454744339,376.466454744339,377.60689425468445,2,1.2489914894104004,None,,,,,,,,,,,,,,,,,,227,1,2025-03-11_09h58.25.944,comp,2024.2.4,None,2025-03-11 09h58.41.342548 -0400,
112,112,0,critical,hdw,20.0,2.1,upper,200.0,125.0,141.0,141.0,125.0,200.0,3,1.2897155284881592,None,,,,,0,0,0,0,0,112,112,23,377.6216871738434,,,,,,,,,,,,,,,,,,,,,,,,,,,,,,,,,,,,,,,,,,,,,,,,,,,,,,,,,,,,,,,,,,,,,,,,,,,,,,,,,200.0,125.0,141.0,141.0,125.0,200.0,2.1,2.12,-229,-277,0,-253,266,270,377.6081156730652,377.60815024375916,377.6094243526459,377.6216871738434,377.7665638923645,377.7665638923645,377.7665638923645,377.7665638923645,377.7665638923645,377.7665638923645,377.7665638923645,378.91791439056396,3,1.2897155284881592,None,,,,,,,,,,,,,,,,,,227,1,2025-03-11_09h58.25.944,comp,2024.2.4,None,2025-03-11 09h58.41.342548 -0400,
113,113,0,filler_random,None,None,None,None,None,None,None,None,None,None,1,1.0266859531402588,None,,,,,0,0,0,0,0,113,113,138,378.932106256485,,,,,,,,,,,,,,,,,,,,,,,,,,,,,,,,,,,,,,,,,,,,,,,,,,,,,,,,,,,,,,,,,,,,,,,,,,,,,,,,,147.05495563852475,195.30509581142215,123.2124942472945,130.69659954291848,174.69190167821353,64.6380095366151,2.2,2.22,-259,257,0,-261,194,-287,378.9195399284363,378.91961002349854,378.921758890152,378.932106256485,379.07094645500183,379.07094645500183,379.07094645500183,379.07094645500183,379.07094645500183,379.07094645500183,379.07094645500183,379.9682912826538,1,1.0266859531402588,None,,,,,,,,,,,,,,,,,,227,1,2025-03-11_09h58.25.944,comp,2024.2.4,None,2025-03-11 09h58.41.342548 -0400,
114,114,0,catch,None,None,None,None,None,None,None,None,None,None,2,1.0370323657989502,None,,,,,0,0,0,0,0,114,114,129,379.9855465888977,,,,,,,,,,,,,,,,,,,,,,,,,,,,,,,,,,,,,,,,,,,,,,,,,,,,,,,,,,,,,,,,,,,,,,,,,,,,,,,,,115,75,186,139,120,70,1.0,1.1,-683,289,-480,287,-280,251,379.9708921909332,379.9710199832916,379.97408080101013,379.9855465888977,380.13322615623474,380.13322615623474,380.13322615623474,380.13322615623474,380.13322615623474,380.13322615623474,380.13322615623474,381.03437542915344,2,1.0370323657989502,None,,,,,,,,,,,,,,,,,,227,1,2025-03-11_09h58.25.944,comp,2024.2.4,None,2025-03-11 09h58.41.342548 -0400,
115,115,0,critical,wdh,35.0,2.1,upper,125.0,200.0,127.0,127.0,200.0,125.0,3,1.2039000988006592,None,,,,,0,0,0,0,0,115,115,9,381.05247259140015,,,,,,,,,,,,,,,,,,,,,,,,,,,,,,,,,,,,,,,,,,,,,,,,,,,,,,,,,,,,,,,,,,,,,,,,,,,,,,,,,125.0,200.0,127.0,127.0,200.0,125.0,2.1,2.11,-260,284,0,273,222,-264,381.03595757484436,381.0360367298126,381.03936529159546,381.05247259140015,381.20909094810486,381.20909094810486,381.20909094810486,381.20909094810486,381.20909094810486,381.20909094810486,381.20909094810486,382.2739005088806,3,1.2039000988006592,None,,,,,,,,,,,,,,,,,,227,1,2025-03-11_09h58.25.944,comp,2024.2.4,None,2025-03-11 09h58.41.342548 -0400,
116,116,0,filler_square,None,None,None,None,None,None,None,None,None,None,2,1.1069540977478027,None,,,,,0,0,0,0,0,116,116,182,382.2919566631317,,,,,,,,,,,,,,,,,,,,,,,,,,,,,,,,,,,,,,,,,,,,,,,,,,,,,,,,,,,,,,,,,,,,,,,,,,,,,,,,,103.72170423362803,128.35080325579045,138.15918608454544,138.15918608454544,76.25676128347243,106.07573566117836,2.1,2.12,-229,-256,0,-272,218,265,382.2757394313812,382.27581810951233,382.2788484096527,382.2919566631317,382.43349742889404,382.43349742889404,382.43349742889404,382.43349742889404,382.43349742889404,382.43349742889404,382.43349742889404,383.4189028739929,2,1.1069540977478027,None,,,,,,,,,,,,,,,,,,227,1,2025-03-11_09h58.25.944,comp,2024.2.4,None,2025-03-11 09h58.41.342548 -0400,
117,117,0,filler_square,None,None,None,None,None,None,None,None,None,None,1,1.6585021018981934,None,,,,,0,0,0,0,0,117,117,174,383.4370267391205,,,,,,,,,,,,,,,,,,,,,,,,,,,,,,,,,,,,,,,,,,,,,,,,,,,,,,,,,,,,,,,,,,,,,,,,,,,,,,,,,94.21182590637804,94.21182590637804,58.303160871269,64.74408113981193,63.73117349854269,84.4888222190205,1.0,1.2,-175,-9,0,-16,171,-6,383.4209554195404,383.4210352897644,383.42430996894836,383.4370267391205,383.58367705345154,383.58367705345154,383.58367705345154,383.58367705345154,383.58367705345154,383.58367705345154,383.58367705345154,385.10175371170044,1,1.6585021018981934,None,,,,,,,,,,,,,,,,,,227,1,2025-03-11_09h58.25.944,comp,2024.2.4,None,2025-03-11 09h58.41.342548 -0400,
118,118,0,critical,wdh,35.0,3.0,upper,125.0,200.0,127.0,127.0,200.0,125.0,3,1.680053949356079,None,,,,,0,0,0,0,0,118,118,75,385.118656873703,,,,,,,,,,,,,,,,,,,,,,,,,,,,,,,,,,,,,,,,,,,,,,,,,,,,,,,,,,,,,,,,,,,,,,,,,,,,,,,,,125.0,200.0,127.0,127.0,200.0,125.0,3.0,3.2,-260,-280,0,5,222,250,385.1033413410187,385.10342240333557,385.10704803466797,385.118656873703,385.269202709198,385.269202709198,385.269202709198,385.269202709198,385.269202709198,385.269202709198,385.269202709198,386.80480790138245,3,1.680053949356079,None,,,,,,,,,,,,,,,,,,227,1,2025-03-11_09h58.25.944,comp,2024.2.4,None,2025-03-11 09h58.41.342548 -0400,
119,119,0,critical,wdh,35.0,1.0,upper,125.0,200.0,127.0,127.0,200.0,125.0,3,1.8388688564300537,None,,,,,0,0,0,0,0,119,119,73,386.8247539997101,,,,,,,,,,,,,,,,,,,,,,,,,,,,,,,,,,,,,,,,,,,,,,,,,,,,,,,,,,,,,,,,,,,,,,,,,,,,,,,,,125.0,200.0,127.0,127.0,200.0,125.0,1.0,1.2,-260,-14,0,2,222,15,386.80668783187866,386.8068287372589,386.81002926826477,386.8247539997101,386.9676523208618,386.9676523208618,386.9676523208618,386.9676523208618,386.9676523208618,386.9676523208618,386.9676523208618,388.66949462890625,3,1.8388688564300537,None,,,,,,,,,,,,,,,,,,227,1,2025-03-11_09h58.25.944,comp,2024.2.4,None,2025-03-11 09h58.41.342548 -0400,
120,120,0,filler_square,None,None,None,None,None,None,None,None,None,None,2,2.6715166568756104,None,,,,,0,0,0,0,0,120,120,203,388.68709897994995,,,,,,,,,,,,,,,,,,,,,,,,,,,,,,,,,,,,,,,,,,,,,,,,,,,,,,,,,,,,,,,,,,,,,,,,,,,,,,,,,156.6237555928483,161.35180618876694,180.32713742168076,180.32713742168076,96.4957995570374,164.5044638695549,1.0,1.2,-267,9,0,-15,268,-1,388.6713409423828,388.67142605781555,388.6755530834198,388.68709897994995,388.83552646636963,388.83552646636963,388.83552646636963,388.83552646636963,388.83552646636963,388.83552646636963,388.83552646636963,391.3688793182373,2,2.6715166568756104,None,,,,,,,,,,,,,,,,,,227,1,2025-03-11_09h58.25.944,comp,2024.2.4,None,2025-03-11 09h58.41.342548 -0400,
121,121,0,filler_random,None,None,None,None,None,None,None,None,None,None,2,2.2370738983154297,None,,,,,0,0,0,0,0,121,121,132,391.38557386398315,,,,,,,,,,,,,,,,,,,,,,,,,,,,,,,,,,,,,,,,,,,,,,,,,,,,,,,,,,,,,,,,,,,,,,,,,,,,,,,,,155.20074774888258,70.85904809652341,189.4711640770322,153.79796128089592,194.58525437213527,91.03658083388297,4.0,4.1,-208,-280,0,5,218,-258,391.370548248291,391.37065029144287,391.3737859725952,391.38557386398315,391.53408575057983,391.53408575057983,391.53408575057983,391.53408575057983,391.53408575057983,391.53408575057983,391.53408575057983,393.63835096359253,2,2.2370738983154297,None,,,,,,,,,,,,,,,,,,227,1,2025-03-11_09h58.25.944,comp,2024.2.4,None,2025-03-11 09h58.41.342548 -0400,
122,122,0,filler_random,None,None,None,None,None,None,None,None,None,None,1,1.2140178680419922,None,,,,,0,0,0,0,0,122,122,153,393.6567199230194,,,,,,,,,,,,,,,,,,,,,,,,,,,,,,,,,,,,,,,,,,,,,,,,,,,,,,,,,,,,,,,,,,,,,,,,,,,,,,,,,111.20557872940097,189.82865736056377,190.748426734017,99.37732025747601,127.38761265989363,120.66558805081357,4.0,4.2,-241,14,0,-254,206,19,393.6400978565216,393.6402015686035,393.64332818984985,393.6567199230194,393.8109540939331,393.8109540939331,393.8109540939331,393.8109540939331,393.8109540939331,393.8109540939331,393.8109540939331,394.8906650543213,1,1.2140178680419922,None,,,,,,,,,,,,,,,,,,227,1,2025-03-11_09h58.25.944,comp,2024.2.4,None,2025-03-11 09h58.41.342548 -0400,
123,123,0,filler_random,None,None,None,None,None,None,None,None,None,None,3,1.0571849346160889,None,,,,,0,0,0,0,0,123,123,137,394.9097526073456,,,,,,,,,,,,,,,,,,,,,,,,,,,,,,,,,,,,,,,,,,,,,,,,,,,,,,,,,,,,,,,,,,,,,,,,,,,,,,,,,109.36932251924445,93.51142150022993,101.30903002200031,98.22218623651537,175.87456056332366,175.03864896869425,1.0,1.1,-672,279,-480,285,-247,275,394.8927376270294,394.89282488822937,394.89637184143066,394.9097526073456,395.0549223423004,395.0549223423004,395.0549223423004,395.0549223423004,395.0549223423004,395.0549223423004,395.0549223423004,395.972265958786,3,1.0571849346160889,None,,,,,,,,,,,,,,,,,,227,1,2025-03-11_09h58.25.944,comp,2024.2.4,None,2025-03-11 09h58.41.342548 -0400,
124,124,0,critical,hdw,20.0,1.0,upper,200.0,125.0,141.0,141.0,125.0,200.0,3,4.0023193359375,None,,,,,0,0,0,0,0,124,124,115,395.98884677886963,,,,,,,,,,,,,,,,,,,,,,,,,,,,,,,,,,,,,,,,,,,,,,,,,,,,,,,,,,,,,,,,,,,,,,,,,,,,,,,,,200.0,125.0,141.0,141.0,125.0,200.0,1.0,1.1,-709,254,-480,263,-214,289,395.97381138801575,395.97389245033264,395.97804069519043,395.98884677886963,396.14148354530334,396.14148354530334,396.14148354530334,396.14148354530334,396.14148354530334,396.14148354530334,396.14148354530334,399.9934253692627,3,4.0023193359375,None,,,,,,,,,,,,,,,,,,227,1,2025-03-11_09h58.25.944,comp,2024.2.4,None,2025-03-11 09h58.41.342548 -0400,
125,125,0,filler_random,None,None,None,None,None,None,None,None,None,None,2,1.347961187362671,None,,,,,0,0,0,0,0,125,125,130,400.0107660293579,,,,,,,,,,,,,,,,,,,,,,,,,,,,,,,,,,,,,,,,,,,,,,,,,,,,,,,,,,,,,,,,,,,,,,,,,,,,,,,,,125.23458196516464,143.94215514965927,175.1558713381654,116.92636270728475,133.4157831740307,156.987421406323,1.0,1.3,254,-252,480,-282,713,-283,399.99544739723206,399.99553084373474,399.99895095825195,400.0107660293579,400.15473341941833,400.15473341941833,400.15473341941833,400.15473341941833,400.15473341941833,400.15473341941833,400.15473341941833,401.37721252441406,2,1.347961187362671,None,,,,,,,,,,,,,,,,,,227,1,2025-03-11_09h58.25.944,comp,2024.2.4,None,2025-03-11 09h58.41.342548 -0400,
126,126,0,critical,hwd,20.0,4.0,lower,133.0,57.0,57.0,133.0,78.0,78.0,2,2.287635087966919,None,,,,,0,0,0,0,0,126,126,106,401.39296221733093,,,,,,,,,,,,,,,,,,,,,,,,,,,,,,,,,,,,,,,,,,,,,,,,,,,,,,,,,,,,,,,,,,,,,,,,,,,,,,,,,133.0,57.0,57.0,133.0,78.0,78.0,4.0,4.2,-191,10,0,-283,202,3,401.37891578674316,401.37903213500977,401.38251757621765,401.39296221733093,401.53984451293945,401.53984451293945,401.53984451293945,401.53984451293945,401.53984451293945,401.53984451293945,401.53984451293945,403.6908597946167,2,2.287635087966919,None,,,,,,,,,,,,,,,,,,227,1,2025-03-11_09h58.25.944,comp,2024.2.4,None,2025-03-11 09h58.41.342548 -0400,
127,127,0,critical,dhw,20.0,4.0,lower,78.0,78.0,133.0,57.0,57.0,133.0,3,2.4670050144195557,None,,,,,0,0,0,0,0,127,127,58,403.70762848854065,,,,,,,,,,,,,,,,,,,,,,,,,,,,,,,,,,,,,,,,,,,,,,,,,,,,,,,,,,,,,,,,,,,,,,,,,,,,,,,,,78.0,78.0,133.0,57.0,57.0,133.0,4.0,4.2,-164,-8,0,-275,191,0,403.6924297809601,403.6925103664398,403.696661233902,403.70762848854065,403.8583068847656,403.8583068847656,403.8583068847656,403.8583068847656,403.8583068847656,403.8583068847656,403.8583068847656,406.1909689903259,3,2.4670050144195557,None,,,,,,,,,,,,,,,,,,227,1,2025-03-11_09h58.25.944,comp,2024.2.4,None,2025-03-11 09h58.41.342548 -0400,
128,128,0,critical,dhw,20.0,3.0,upper,141.0,141.0,200.0,125.0,125.0,200.0,2,4.119714021682739,None,,,,,0,0,0,0,0,128,128,57,406.20644545555115,,,,,,,,,,,,,,,,,,,,,,,,,,,,,,,,,,,,,,,,,,,,,,,,,,,,,,,,,,,,,,,,,,,,,,,,,,,,,,,,,141.0,141.0,200.0,125.0,125.0,200.0,3.0,3.2,-229,-285,0,4,258,279,406.19262528419495,406.19270753860474,406.1961920261383,406.20644545555115,406.3561370372772,406.3561370372772,406.3561370372772,406.3561370372772,406.3561370372772,406.3561370372772,406.3561370372772,410.3453481197357,2,4.119714021682739,None,,,,,,,,,,,,,,,,,,227,1,2025-03-11_09h58.25.944,comp,2024.2.4,None,2025-03-11 09h58.41.342548 -0400,
129,129,0,critical,dhw,35.0,4.0,upper,127.0,127.0,200.0,125.0,125.0,200.0,3,1.2498822212219238,None,,,,,0,0,0,0,0,129,129,53,410.36492466926575,,,,,,,,,,,,,,,,,,,,,,,,,,,,,,,,,,,,,,,,,,,,,,,,,,,,,,,,,,,,,,,,,,,,,,,,,,,,,,,,,127.0,127.0,200.0,125.0,125.0,200.0,4.0,4.1,-222,-252,0,14,258,-262,410.34736728668213,410.347501039505,410.35075402259827,410.36492466926575,410.5101320743561,410.5101320743561,410.5101320743561,410.5101320743561,410.5101320743561,410.5101320743561,410.5101320743561,411.6316649913788,3,1.2498822212219238,None,,,,,,,,,,,,,,,,,,227,1,2025-03-11_09h58.25.944,comp,2024.2.4,None,2025-03-11 09h58.41.342548 -0400,
130,130,0,critical,whd,20.0,3.0,upper,125.0,200.0,200.0,125.0,141.0,141.0,1,1.3398065567016602,None,,,,,0,0,0,0,0,130,130,93,411.6511480808258,,,,,,,,,,,,,,,,,,,,,,,,,,,,,,,,,,,,,,,,,,,,,,,,,,,,,,,,,,,,,,,,,,,,,,,,,,,,,,,,,125.0,200.0,200.0,125.0,141.0,141.0,3.0,3.2,-258,-283,0,-19,229,250,411.6331434249878,411.6332223415375,411.6362318992615,411.6511480808258,411.79423928260803,411.79423928260803,411.79423928260803,411.79423928260803,411.79423928260803,411.79423928260803,411.79423928260803,412.99628138542175,1,1.3398065567016602,None,,,,,,,,,,,,,,,,,,227,1,2025-03-11_09h58.25.944,comp,2024.2.4,None,2025-03-11 09h58.41.342548 -0400,
131,131,0,filler_random,None,None,None,None,None,None,None,None,None,None,1,4.298110485076904,None,,,,,0,0,0,0,0,131,131,155,413.0125470161438,,,,,,,,,,,,,,,,,,,,,,,,,,,,,,,,,,,,,,,,,,,,,,,,,,,,,,,,,,,,,,,,,,,,,,,,,,,,,,,,,160.91235878973282,172.27169838549295,91.3554376043983,125.12118865175542,142.84009970038323,163.04648937972166,2.1,2.11,-245,284,0,255,240,-279,412.99801683425903,412.99809980392456,413.00168108940125,413.0125470161438,413.1639461517334,413.1639461517334,413.1639461517334,413.1639461517334,413.1639461517334,413.1639461517334,413.1639461517334,417.3279085159302,1,4.298110485076904,None,,,,,,,,,,,,,,,,,,227,1,2025-03-11_09h58.25.944,comp,2024.2.4,None,2025-03-11 09h58.41.342548 -0400,
132,132,0,critical,whd,20.0,2.1,upper,125.0,200.0,200.0,125.0,141.0,141.0,3,3.6687631607055664,None,,,,,0,0,0,0,0,132,132,15,417.3458442687988,,,,,,,,,,,,,,,,,,,,,,,,,,,,,,,,,,,,,,,,,,,,,,,,,,,,,,,,,,,,,,,,,,,,,,,,,,,,,,,,,125.0,200.0,200.0,125.0,141.0,141.0,2.1,2.11,-258,276,0,253,229,-268,417.3295135498047,417.3296661376953,417.3331153392792,417.3458442687988,417.48083424568176,417.48083424568176,417.48083424568176,417.48083424568176,417.48083424568176,417.48083424568176,417.48083424568176,421.03031826019287,3,3.6687631607055664,None,,,,,,,,,,,,,,,,,,227,1,2025-03-11_09h58.25.944,comp,2024.2.4,None,2025-03-11 09h58.41.342548 -0400,
133,133,0,critical,whd,20.0,1.0,upper,125.0,200.0,200.0,125.0,141.0,141.0,1,1.6098203659057617,None,,,,,0,0,0,0,0,133,133,91,421.0455274581909,,,,,,,,,,,,,,,,,,,,,,,,,,,,,,,,,,,,,,,,,,,,,,,,,,,,,,,,,,,,,,,,,,,,,,,,,,,,,,,,,125.0,200.0,200.0,125.0,141.0,141.0,1.0,1.1,-738,270,-480,283,-251,271,421.03187584877014,421.0319550037384,421.0352294445038,421.0455274581909,421.20038533210754,421.20038533210754,421.20038533210754,421.20038533210754,421.20038533210754,421.20038533210754,421.20038533210754,422.6639897823334,1,1.6098203659057617,None,,,,,,,,,,,,,,,,,,227,1,2025-03-11_09h58.25.944,comp,2024.2.4,None,2025-03-11 09h58.41.342548 -0400,
134,134,0,critical,dwh,35.0,2.1,upper,127.0,127.0,125.0,200.0,200.0,125.0,2,1.8467276096343994,None,,,,,0,0,0,0,0,134,134,5,422.68068075180054,,,,,,,,,,,,,,,,,,,,,,,,,,,,,,,,,,,,,,,,,,,,,,,,,,,,,,,,,,,,,,,,,,,,,,,,,,,,,,,,,127.0,127.0,125.0,200.0,200.0,125.0,2.1,2.11,-260,263,0,252,258,-268,422.66572403907776,422.6658625602722,422.6697623729706,422.68068075180054,422.8306550979614,422.8306550979614,422.8306550979614,422.8306550979614,422.8306550979614,422.8306550979614,422.8306550979614,424.5344383716583,2,1.8467276096343994,None,,,,,,,,,,,,,,,,,,227,1,2025-03-11_09h58.25.944,comp,2024.2.4,None,2025-03-11 09h58.41.342548 -0400,
135,135,0,filler_random,None,None,None,None,None,None,None,None,None,None,2,1.548537015914917,None,,,,,0,0,0,0,0,135,135,148,424.55414724349976,,,,,,,,,,,,,,,,,,,,,,,,,,,,,,,,,,,,,,,,,,,,,,,,,,,,,,,,,,,,,,,,,,,,,,,,,,,,,,,,,79.58635699265699,83.86691919009886,93.28326736367111,159.00606840910245,155.24137677091107,69.63900358004227,2.2,2.22,-217,271,0,-254,210,-284,424.53640842437744,424.5365135669708,424.54015278816223,424.55414724349976,424.6977243423462,424.6977243423462,424.6977243423462,424.6977243423462,424.6977243423462,424.6977243423462,424.6977243423462,426.11302423477173,2,1.548537015914917,None,,,,,,,,,,,,,,,,,,227,1,2025-03-11_09h58.25.944,comp,2024.2.4,None,2025-03-11 09h58.41.342548 -0400,
136,136,0,critical,dhw,35.0,3.0,lower,70.0,70.0,133.0,57.0,57.0,133.0,3,2.349330425262451,None,,,,,0,0,0,0,0,136,136,50,426.1293361186981,,,,,,,,,,,,,,,,,,,,,,,,,,,,,,,,,,,,,,,,,,,,,,,,,,,,,,,,,,,,,,,,,,,,,,,,,,,,,,,,,70.0,70.0,133.0,57.0,57.0,133.0,3.0,3.1,-160,288,0,13,191,-276,426.1146171092987,426.114697933197,426.11788964271545,426.1293361186981,426.28587794303894,426.28587794303894,426.28587794303894,426.28587794303894,426.28587794303894,426.28587794303894,426.28587794303894,428.48235607147217,3,2.349330425262451,None,,,,,,,,,,,,,,,,,,227,1,2025-03-11_09h58.25.944,comp,2024.2.4,None,2025-03-11 09h58.41.342548 -0400,
137,137,0,filler_random,None,None,None,None,None,None,None,None,None,None,2,1.6515069007873535,None,,,,,0,0,0,0,0,137,137,135,428.49918508529663,,,,,,,,,,,,,,,,,,,,,,,,,,,,,,,,,,,,,,,,,,,,,,,,,,,,,,,,,,,,,,,,,,,,,,,,,,,,,,,,,132.1932308970123,71.95327859388678,110.82167822291426,92.22201469783637,57.73872025463277,169.94590107778794,4.0,4.1,-178,-267,0,-4,227,-263,428.48403906822205,428.48411798477173,428.4884159564972,428.49918508529663,428.6499354839325,428.6499354839325,428.6499354839325,428.6499354839325,428.6499354839325,428.6499354839325,428.6499354839325,430.1657974720001,2,1.6515069007873535,None,,,,,,,,,,,,,,,,,,227,1,2025-03-11_09h58.25.944,comp,2024.2.4,None,2025-03-11 09h58.41.342548 -0400,
138,138,0,filler_random,None,None,None,None,None,None,None,None,None,None,3,3.6518161296844482,None,,,,,0,0,0,0,0,138,138,139,430.1799223423004,,,,,,,,,,,,,,,,,,,,,,,,,,,,,,,,,,,,,,,,,,,,,,,,,,,,,,,,,,,,,,,,,,,,,,,,,,,,,,,,,160.46857066417869,160.18698683009177,90.4847653352727,172.97248793950718,188.25751514440856,129.34988082071413,3.0,3.1,-263,283,0,13,247,-259,430.167512178421,430.1676278114319,430.17081689834595,430.1799223423004,430.33297848701477,430.33297848701477,430.33297848701477,430.33297848701477,430.33297848701477,430.33297848701477,430.33297848701477,433.83784437179565,3,3.6518161296844482,None,,,,,,,,,,,,,,,,,,227,1,2025-03-11_09h58.25.944,comp,2024.2.4,None,2025-03-11 09h58.41.342548 -0400,
139,139,0,filler_random,None,None,None,None,None,None,None,None,None,None,1,1.1854500770568848,None,,,,,0,0,0,0,0,139,139,141,433.85457587242126,,,,,,,,,,,,,,,,,,,,,,,,,,,,,,,,,,,,,,,,,,,,,,,,,,,,,,,,,,,,,,,,,,,,,,,,,,,,,,,,,199.11781768989323,125.65305635982378,191.99503963858535,88.281808702013,173.73846644264415,67.00104891723247,2.2,2.21,-203,-264,0,267,174,287,433.8396244049072,433.83970856666565,433.8427584171295,433.85457587242126,434.0017511844635,434.0017511844635,434.0017511844635,434.0017511844635,434.0017511844635,434.0017511844635,434.0017511844635,435.05144786834717,1,1.1854500770568848,None,,,,,,,,,,,,,,,,,,227,1,2025-03-11_09h58.25.944,comp,2024.2.4,None,2025-03-11 09h58.41.342548 -0400,
140,140,0,critical,dwh,35.0,3.0,upper,127.0,127.0,125.0,200.0,200.0,125.0,2,1.4201366901397705,None,,,,,0,0,0,0,0,140,140,63,435.0672981739044,,,,,,,,,,,,,,,,,,,,,,,,,,,,,,,,,,,,,,,,,,,,,,,,,,,,,,,,,,,,,,,,,,,,,,,,,,,,,,,,,127.0,127.0,125.0,200.0,200.0,125.0,3.0,3.1,-260,256,0,13,258,-255,435.0530140399933,435.0531373023987,435.0566415786743,435.0672981739044,435.21783328056335,435.21783328056335,435.21783328056335,435.21783328056335,435.21783328056335,435.21783328056335,435.21783328056335,436.4946348667145,2,1.4201366901397705,None,,,,,,,,,,,,,,,,,,227,1,2025-03-11_09h58.25.944,comp,2024.2.4,None,2025-03-11 09h58.41.342548 -0400,
141,141,0,filler_square,None,None,None,None,None,None,None,None,None,None,1,2.1560659408569336,None,,,,,0,0,0,0,0,141,141,195,436.51457381248474,,,,,,,,,,,,,,,,,,,,,,,,,,,,,,,,,,,,,,,,,,,,,,,,,,,,,,,,,,,,,,,,,,,,,,,,,,,,,,,,,77.2794928157509,77.2794928157509,72.85031735738296,63.67320635090938,62.672114853740936,59.22744097542205,2.1,2.12,-166,-259,0,-268,157,252,436.49642872810364,436.49650716781616,436.49952816963196,436.51457381248474,436.65092301368713,436.65092301368713,436.65092301368713,436.65092301368713,436.65092301368713,436.65092301368713,436.65092301368713,438.68599367141724,1,2.1560659408569336,None,,,,,,,,,,,,,,,,,,227,1,2025-03-11_09h58.25.944,comp,2024.2.4,None,2025-03-11 09h58.41.342548 -0400,
142,142,0,filler_square,None,None,None,None,None,None,None,None,None,None,2,3.7772791385650635,None,,,,,0,0,0,0,0,142,142,193,438.7020342350006,,,,,,,,,,,,,,,,,,,,,,,,,,,,,,,,,,,,,,,,,,,,,,,,,,,,,,,,,,,,,,,,,,,,,,,,,,,,,,,,,88.06031523425447,77.38975077281209,118.73789489085985,118.73789489085985,108.65976805519914,100.43829564797247,4.0,4.1,-194,-255,0,-1,206,-288,438.68788504600525,438.68799448013306,438.6911904811859,438.7020342350006,438.85195875167847,438.85195875167847,438.85195875167847,438.85195875167847,438.85195875167847,438.85195875167847,438.85195875167847,442.4860873222351,2,3.7772791385650635,None,,,,,,,,,,,,,,,,,,227,1,2025-03-11_09h58.25.944,comp,2024.2.4,None,2025-03-11 09h58.41.342548 -0400,
