thisN,thisTrialN,thisRepN,effect,order,distance,config,diag,h_1,w_1,h_2,w_2,h_3,w_3,rect_choice.keys,rect_choice.rt,rect_choice.duration,instructions_loop.thisRepN,instructions_loop.thisTrialN,instructions_loop.thisN,instructions_loop.thisIndex,blocks.thisRepN,blocks.thisTrialN,blocks.thisN,blocks.thisIndex,trials.thisRepN,trials.thisTrialN,trials.thisN,trials.thisIndex,thisRow.t,notes,consent.started,agree_button.started,decline_button.started,consent_img.started,mouse.started,consent.stopped,agree_button.numClicks,agree_button.timesOn,agree_button.timesOff,decline_button.numClicks,decline_button.timesOn,decline_button.timesOff,mouse.x,mouse.y,mouse.leftButton,mouse.midButton,mouse.rightButton,mouse.time,mouse.clicked_name,exp_params.started,exp_params.stopped,welcome.started,welcome_text.started,welcome.stopped,instructions_1.started,instructions_1_text_1.started,instructions_1_text_2.started,key_resp.started,instructions_1.stopped,instructions_loop.key_resp.keys,instructions_loop.key_resp.rt,instructions_loop.key_resp.duration,instructions_2.started,instructions_2_text_1.started,instructions_2_text_2.started,key_resp_2.started,instructions_2.stopped,instructions_loop.key_resp_2.keys,instructions_loop.key_resp_2.rt,instructions_loop.key_resp_2.duration,instructions_3.started,instructions_3_text_1.started,r1_instr3.started,r2_instr3.started,r3_instr3.started,r1_instr3_label.started,r2_instr3_label.started,r3_instr3_label.started,instructions_3_text_3.started,instructions_3_text_4.started,key_resp_3.started,instructions_3.stopped,instructions_loop.key_resp_3.keys,instructions_loop.key_resp_3.rt,instructions_loop.key_resp_3.duration,instructions_4.started,instructions_4_text_1.started,instructions_4_text_3.started,instructions_4_text_2.started,key_resp_4.started,instructions_4.stopped,instructions_loop.key_resp_4.keys,instructions_loop.key_resp_4.rt,instructions_loop.key_resp_4.duration,instructions_5.started,instructions_5_text_1.started,instructions_5_text_2.started,key_resp_5.started,instructions_5.stopped,instructions_loop.key_resp_5.keys,instructions_loop.key_resp_5.rt,instructions_loop.key_resp_5.duration,start_exp.started,start_exp_text.started,key_resp_6.started,start_exp.stopped,key_resp_6.keys,key_resp_6.rt,key_resp_6.duration,h_1_tmp,w_1_tmp,h_2_tmp,w_2_tmp,h_3_tmp,w_3_tmp,config_tmp,config_tmp_1,r_1_x,r_1_y,r_2_x,r_2_y,r_3_x,r_3_y,pre_trial.started,pre_trial.stopped,choice_trial.started,rect_choice.started,r_1.started,r_2.started,r_3.started,r_1_label.started,r_2_label.started,r_3_label.started,prompt.started,choice_trial.stopped,trials.rect_choice.keys,trials.rect_choice.rt,trials.rect_choice.duration,end_block.started,end_block_text.started,end_block.stopped,end.started,end_text.started,key_resp_7.started,end.stopped,key_resp_7.keys,key_resp_7.rt,key_resp_7.duration,debriefing.started,debrief_form.started,end_debrief.started,debriefing.stopped,end_debrief.keys,end_debrief.rt,end_debrief.duration,participant,computer,date,expName,psychopyVersion,frameRate,expStart,
,,,,,,,,,,,,,,,,,,,,,,,,,,,,,,,0.01545095443725586,0.041432857513427734,0.041432857513427734,0.041432857513427734,0.014994144439697266,15.51882004737854,1,[15.476263523101807],[15.476273775100708],0,,,[-65.0],[-520.0],[1],[0],[0],[15.5028395652771],['agree_button'],,,,,,,,,,,,,,,,,,,,,,,,,,,,,,,,,,,,,,,,,,,,,,,,,,,,,,,,,,,,,,,,,,,,,,,,,,,,,,,,,,,,,,,,,,,,,,,,,,,,,,,,,,,228,3,2025-03-11_10h03.55.836,comp,2024.2.4,62.951732998335515,2025-03-11 10h04.05.117409 -0400,
,,,,,,,,,,,,,,,,,,,,,,,,,,,,,,,,,,,,,,,,,,,,,,,,,,15.519071578979492,15.519102334976196,,,,,,,,,,,,,,,,,,,,,,,,,,,,,,,,,,,,,,,,,,,,,,,,,,,,,,,,,,,,,,,,,,,,,,,,,,,,,,,,,,,,,,,,,,,,,,,,,,,,,,,,,228,3,2025-03-11_10h03.55.836,comp,2024.2.4,62.951732998335515,2025-03-11 10h04.05.117409 -0400,
,,,,,,,,,,,,,,,,,,,,,,,,,,,,,,,,,,,,,,,,,,,,,,,,,,,,15.51912236213684,15.532454013824463,17.523272037506104,,,,,,,,,,,,,,,,,,,,,,,,,,,,,,,,,,,,,,,,,,,,,,,,,,,,,,,,,,,,,,,,,,,,,,,,,,,,,,,,,,,,,,,,,,,,,,,,,,,,,,228,3,2025-03-11_10h03.55.836,comp,2024.2.4,62.951732998335515,2025-03-11 10h04.05.117409 -0400,
0,0,0,,,,,,,,,,,,,,,0,0,0,0,,,,,,,,,17.539917945861816,,,,,,,,,,,,,,,,,,,,,,,,,,17.52383303642273,17.539917945861816,17.539917945861816,19.02315044403076,20.724602699279785,space,1.6925075054168701,None,20.724684953689575,20.74047827720642,20.74047827720642,22.239869117736816,30.69085717201233,space,8.434955358505249,None,30.69096088409424,30.712624073028564,30.712624073028564,30.712624073028564,30.712624073028564,30.712624073028564,30.712624073028564,30.712624073028564,30.712624073028564,30.712624073028564,32.19022488594055,36.52479910850525,space,4.317194700241089,None,36.52488708496094,36.540087938308716,36.540087938308716,36.540087938308716,38.040443897247314,43.52416920661926,space,5.466630458831787,None,43.524250507354736,43.5398313999176,43.5398313999176,45.03976559638977,45.64078450202942,space,0.5867800712585449,None,45.64089846611023,45.6563880443573,45.6563880443573,46.50735807418823,space,0.8348917961120605,None,,,,,,,,,,,,,,,,,,,,,,,,,,,,,,,,,,,,,,,,,,,,,,,228,3,2025-03-11_10h03.55.836,comp,2024.2.4,62.951732998335515,2025-03-11 10h04.05.117409 -0400,
0,0,0,critical,hdw,20.0,2.1,lower,133.0,57.0,78.0,78.0,57.0,133.0,1,5.812198877334595,None,,,,,0,0,0,0,0,0,0,46,46.5660765171051,,,,,,,,,,,,,,,,,,,,,,,,,,,,,,,,,,,,,,,,,,,,,,,,,,,,,,,,,,,,,,,,,,,,,,,,,,,,,,,,,133.0,57.0,78.0,78.0,57.0,133.0,2.1,2.12,-164,-259,0,-282,202,257,46.55259084701538,46.55263805389404,46.554638624191284,46.5660765171051,46.71260070800781,46.71260070800781,46.71260070800781,46.71260070800781,46.71260070800781,46.71260070800781,46.71260070800781,52.39095330238342,1,5.812198877334595,None,,,,,,,,,,,,,,,,,,228,3,2025-03-11_10h03.55.836,comp,2024.2.4,62.951732998335515,2025-03-11 10h04.05.117409 -0400,
1,1,0,catch,None,None,None,None,None,None,None,None,None,None,3,1.7981617450714111,None,,,,,0,0,0,0,0,1,1,124,52.40635967254639,,,,,,,,,,,,,,,,,,,,,,,,,,,,,,,,,,,,,,,,,,,,,,,,,,,,,,,,,,,,,,,,,,,,,,,,,,,,,,,,,94,96,80,110,188,137,3.0,3.1,-199,282,0,1,220,-267,52.39200520515442,52.39204525947571,52.39430642127991,52.40635967254639,52.556530714035034,52.556530714035034,52.556530714035034,52.556530714035034,52.556530714035034,52.556530714035034,52.556530714035034,54.207626819610596,3,1.7981617450714111,None,,,,,,,,,,,,,,,,,,228,3,2025-03-11_10h03.55.836,comp,2024.2.4,62.951732998335515,2025-03-11 10h04.05.117409 -0400,
2,2,0,filler_random,None,None,None,None,None,None,None,None,None,None,1,1.9971578121185303,None,,,,,0,0,0,0,0,2,2,155,54.22324085235596,,,,,,,,,,,,,,,,,,,,,,,,,,,,,,,,,,,,,,,,,,,,,,,,,,,,,,,,,,,,,,,,,,,,,,,,,,,,,,,,,188.1861388767708,108.10148214719663,118.7467976537472,93.89925597897229,135.73527384025968,136.44499686769274,2.1,2.12,-197,-278,0,-257,211,259,54.20857095718384,54.20861101150513,54.21103835105896,54.22324085235596,54.37321090698242,54.37321090698242,54.37321090698242,54.37321090698242,54.37321090698242,54.37321090698242,54.37321090698242,56.22442579269409,1,1.9971578121185303,None,,,,,,,,,,,,,,,,,,228,3,2025-03-11_10h03.55.836,comp,2024.2.4,62.951732998335515,2025-03-11 10h04.05.117409 -0400,
3,3,0,critical,dhw,35.0,1.0,lower,70.0,70.0,133.0,57.0,57.0,133.0,2,1.522374153137207,None,,,,,0,0,0,0,0,3,3,48,56.2398247718811,,,,,,,,,,,,,,,,,,,,,,,,,,,,,,,,,,,,,,,,,,,,,,,,,,,,,,,,,,,,,,,,,,,,,,,,,,,,,,,,,70.0,70.0,133.0,57.0,57.0,133.0,1.0,1.1,-640,259,-480,280,-289,258,56.225215911865234,56.22525453567505,56.2273154258728,56.2398247718811,56.38977932929993,56.38977932929993,56.38977932929993,56.38977932929993,56.38977932929993,56.38977932929993,56.38977932929993,57.77443027496338,2,1.522374153137207,None,,,,,,,,,,,,,,,,,,228,3,2025-03-11_10h03.55.836,comp,2024.2.4,62.951732998335515,2025-03-11 10h04.05.117409 -0400,
4,4,0,critical,wdh,20.0,1.0,lower,57.0,133.0,78.0,78.0,133.0,57.0,3,3.2048323154449463,None,,,,,0,0,0,0,0,4,4,78,57.7896089553833,,,,,,,,,,,,,,,,,,,,,,,,,,,,,,,,,,,,,,,,,,,,,,,,,,,,,,,,,,,,,,,,,,,,,,,,,,,,,,,,,57.0,133.0,78.0,78.0,133.0,57.0,1.0,1.1,-682,285,-480,270,-316,280,57.77525544166565,57.775296449661255,57.77766299247742,57.7896089553833,57.93976187705994,57.93976187705994,57.93976187705994,57.93976187705994,57.93976187705994,57.93976187705994,57.93976187705994,61.007498025894165,3,3.2048323154449463,None,,,,,,,,,,,,,,,,,,228,3,2025-03-11_10h03.55.836,comp,2024.2.4,62.951732998335515,2025-03-11 10h04.05.117409 -0400,
5,5,0,critical,wdh,35.0,2.1,upper,125.0,200.0,127.0,127.0,200.0,125.0,1,3.8843579292297363,None,,,,,0,0,0,0,0,5,5,9,61.02275848388672,,,,,,,,,,,,,,,,,,,,,,,,,,,,,,,,,,,,,,,,,,,,,,,,,,,,,,,,,,,,,,,,,,,,,,,,,,,,,,,,,125.0,200.0,127.0,127.0,200.0,125.0,2.1,2.11,-260,273,0,279,222,-285,61.00830125808716,61.00834107398987,61.01078391075134,61.02275848388672,61.1736478805542,61.1736478805542,61.1736478805542,61.1736478805542,61.1736478805542,61.1736478805542,61.1736478805542,64.9243426322937,1,3.8843579292297363,None,,,,,,,,,,,,,,,,,,228,3,2025-03-11_10h03.55.836,comp,2024.2.4,62.951732998335515,2025-03-11 10h04.05.117409 -0400,
6,6,0,critical,dwh,20.0,3.0,lower,78.0,78.0,57.0,133.0,133.0,57.0,3,10.01678204536438,None,,,,,0,0,0,0,0,6,6,68,64.93956470489502,,,,,,,,,,,,,,,,,,,,,,,,,,,,,,,,,,,,,,,,,,,,,,,,,,,,,,,,,,,,,,,,,,,,,,,,,,,,,,,,,78.0,78.0,57.0,133.0,133.0,57.0,3.0,3.1,-202,284,0,-15,191,-259,64.92512369155884,64.9251618385315,64.92747831344604,64.93956470489502,65.08972501754761,65.08972501754761,65.08972501754761,65.08972501754761,65.08972501754761,65.08972501754761,65.08972501754761,74.97430300712585,3,10.01678204536438,None,,,,,,,,,,,,,,,,,,228,3,2025-03-11_10h03.55.836,comp,2024.2.4,62.951732998335515,2025-03-11 10h04.05.117409 -0400,
7,7,0,critical,hwd,20.0,2.1,lower,133.0,57.0,57.0,133.0,78.0,78.0,3,4.445475101470947,None,,,,,0,0,0,0,0,7,7,18,74.98958349227905,,,,,,,,,,,,,,,,,,,,,,,,,,,,,,,,,,,,,,,,,,,,,,,,,,,,,,,,,,,,,,,,,,,,,,,,,,,,,,,,,133.0,57.0,57.0,133.0,78.0,78.0,2.1,2.12,-191,-284,0,-286,202,255,74.97511792182922,74.97515845298767,74.97723436355591,74.98958349227905,75.1398138999939,75.1398138999939,75.1398138999939,75.1398138999939,75.1398138999939,75.1398138999939,75.1398138999939,79.4407229423523,3,4.445475101470947,None,,,,,,,,,,,,,,,,,,228,3,2025-03-11_10h03.55.836,comp,2024.2.4,62.951732998335515,2025-03-11 10h04.05.117409 -0400,
8,8,0,catch,None,None,None,None,None,None,None,None,None,None,1,1.537843942642212,None,,,,,0,0,0,0,0,8,8,123,79.45640802383423,,,,,,,,,,,,,,,,,,,,,,,,,,,,,,,,,,,,,,,,,,,,,,,,,,,,,,,,,,,,,,,,,,,,,,,,,,,,,,,,,176,149,106,84,69,121,3.0,3.1,-212,277,0,-7,198,-254,79.4417142868042,79.44175338745117,79.44424223899841,79.45640802383423,79.60623478889465,79.60623478889465,79.60623478889465,79.60623478889465,79.60623478889465,79.60623478889465,79.60623478889465,81.0074234008789,1,1.537843942642212,None,,,,,,,,,,,,,,,,,,228,3,2025-03-11_10h03.55.836,comp,2024.2.4,62.951732998335515,2025-03-11 10h04.05.117409 -0400,
9,9,0,critical,hwd,35.0,1.0,lower,133.0,57.0,57.0,133.0,70.0,70.0,1,4.571579694747925,None,,,,,0,0,0,0,0,9,9,96,81.02270531654358,,,,,,,,,,,,,,,,,,,,,,,,,,,,,,,,,,,,,,,,,,,,,,,,,,,,,,,,,,,,,,,,,,,,,,,,,,,,,,,,,133.0,57.0,57.0,133.0,70.0,70.0,1.0,1.3,289,-277,480,-284,678,-281,81.0082437992096,81.00828289985657,81.01070523262024,81.02270531654358,81.17294836044312,81.17294836044312,81.17294836044312,81.17294836044312,81.17294836044312,81.17294836044312,81.17294836044312,85.60739207267761,1,4.571579694747925,None,,,,,,,,,,,,,,,,,,228,3,2025-03-11_10h03.55.836,comp,2024.2.4,62.951732998335515,2025-03-11 10h04.05.117409 -0400,
10,10,0,filler_random,None,None,None,None,None,None,None,None,None,None,1,2.0126001834869385,None,,,,,0,0,0,0,0,10,10,167,85.62263941764832,,,,,,,,,,,,,,,,,,,,,,,,,,,,,,,,,,,,,,,,,,,,,,,,,,,,,,,,,,,,,,,,,,,,,,,,,,,,,,,,,180.79317116107686,113.67348755236793,109.67665039805684,143.88050213405987,153.44256953726637,106.80884187369362,4.0,4.2,-225,-16,0,-255,221,10,85.60827422142029,85.60831546783447,85.61070609092712,85.62263941764832,85.7730221748352,85.7730221748352,85.7730221748352,85.7730221748352,85.7730221748352,85.7730221748352,85.7730221748352,87.64097785949707,1,2.0126001834869385,None,,,,,,,,,,,,,,,,,,228,3,2025-03-11_10h03.55.836,comp,2024.2.4,62.951732998335515,2025-03-11 10h04.05.117409 -0400,
11,11,0,critical,hdw,20.0,3.0,upper,200.0,125.0,141.0,141.0,125.0,200.0,3,1.7948288917541504,None,,,,,0,0,0,0,0,11,11,117,87.65638279914856,,,,,,,,,,,,,,,,,,,,,,,,,,,,,,,,,,,,,,,,,,,,,,,,,,,,,,,,,,,,,,,,,,,,,,,,,,,,,,,,,200.0,125.0,141.0,141.0,125.0,200.0,3.0,3.1,-229,267,0,7,266,-290,87.64173245429993,87.64177179336548,87.64386701583862,87.65638279914856,87.80659079551697,87.80659079551697,87.80659079551697,87.80659079551697,87.80659079551697,87.80659079551697,87.80659079551697,89.45745468139648,3,1.7948288917541504,None,,,,,,,,,,,,,,,,,,228,3,2025-03-11_10h03.55.836,comp,2024.2.4,62.951732998335515,2025-03-11 10h04.05.117409 -0400,
12,12,0,critical,wdh,20.0,3.0,upper,125.0,200.0,141.0,141.0,200.0,125.0,3,1.674804925918579,None,,,,,0,0,0,0,0,12,12,81,89.47286868095398,,,,,,,,,,,,,,,,,,,,,,,,,,,,,,,,,,,,,,,,,,,,,,,,,,,,,,,,,,,,,,,,,,,,,,,,,,,,,,,,,125.0,200.0,141.0,141.0,200.0,125.0,3.0,3.1,-266,268,0,-4,229,-283,89.45826292037964,89.45830416679382,89.4607002735138,89.47286868095398,89.62306642532349,89.62306642532349,89.62306642532349,89.62306642532349,89.62306642532349,89.62306642532349,89.62306642532349,91.15752673149109,3,1.674804925918579,None,,,,,,,,,,,,,,,,,,228,3,2025-03-11_10h03.55.836,comp,2024.2.4,62.951732998335515,2025-03-11 10h04.05.117409 -0400,
13,13,0,filler_square,None,None,None,None,None,None,None,None,None,None,3,1.4049804210662842,None,,,,,0,0,0,0,0,13,13,197,91.17303919792175,,,,,,,,,,,,,,,,,,,,,,,,,,,,,,,,,,,,,,,,,,,,,,,,,,,,,,,,,,,,,,,,,,,,,,,,,,,,,,,,,168.8601918813158,117.92573760183143,139.4460819309591,110.44579605522654,176.3186395532041,176.3186395532041,2.1,2.12,-210,-253,0,-262,239,260,91.15846037864685,91.15849995613098,91.1608738899231,91.17303919792175,91.3230311870575,91.3230311870575,91.3230311870575,91.3230311870575,91.3230311870575,91.3230311870575,91.3230311870575,92.5908408164978,3,1.4049804210662842,None,,,,,,,,,,,,,,,,,,228,3,2025-03-11_10h03.55.836,comp,2024.2.4,62.951732998335515,2025-03-11 10h04.05.117409 -0400,
14,14,0,critical,whd,20.0,3.0,lower,57.0,133.0,133.0,57.0,78.0,78.0,2,2.284198760986328,None,,,,,0,0,0,0,0,14,14,92,92.60595703125,,,,,,,,,,,,,,,,,,,,,,,,,,,,,,,,,,,,,,,,,,,,,,,,,,,,,,,,,,,,,,,,,,,,,,,,,,,,,,,,,57.0,133.0,133.0,57.0,78.0,78.0,3.0,3.1,-191,278,0,7,164,-255,92.59163355827332,92.59167265892029,92.59385871887207,92.60595703125,92.75630855560303,92.75630855560303,92.75630855560303,92.75630855560303,92.75630855560303,92.75630855560303,92.75630855560303,94.90730452537537,2,2.284198760986328,None,,,,,,,,,,,,,,,,,,228,3,2025-03-11_10h03.55.836,comp,2024.2.4,62.951732998335515,2025-03-11 10h04.05.117409 -0400,
15,15,0,catch,None,None,None,None,None,None,None,None,None,None,2,1.2085988521575928,None,,,,,0,0,0,0,0,15,15,125,94.92273736000061,,,,,,,,,,,,,,,,,,,,,,,,,,,,,,,,,,,,,,,,,,,,,,,,,,,,,,,,,,,,,,,,,,,,,,,,,,,,,,,,,103,87,181,144,110,80,1.0,1.3,268,-288,480,-277,688,-271,94.90835309028625,94.90839314460754,94.91079592704773,94.92273736000061,95.07295942306519,95.07295942306519,95.07295942306519,95.07295942306519,95.07295942306519,95.07295942306519,95.07295942306519,96.14077568054199,2,1.2085988521575928,None,,,,,,,,,,,,,,,,,,228,3,2025-03-11_10h03.55.836,comp,2024.2.4,62.951732998335515,2025-03-11 10h04.05.117409 -0400,
16,16,0,critical,whd,35.0,3.0,lower,57.0,133.0,133.0,57.0,70.0,70.0,1,1.5667099952697754,None,,,,,0,0,0,0,0,16,16,86,96.17298293113708,,,,,,,,,,,,,,,,,,,,,,,,,,,,,,,,,,,,,,,,,,,,,,,,,,,,,,,,,,,,,,,,,,,,,,,,,,,,,,,,,57.0,133.0,133.0,57.0,70.0,70.0,3.0,3.1,-191,262,0,14,160,-252,96.14156198501587,96.14160084724426,96.1440908908844,96.17298293113708,96.30608582496643,96.30608582496643,96.30608582496643,96.30608582496643,96.30608582496643,96.30608582496643,96.30608582496643,97.75727319717407,1,1.5667099952697754,None,,,,,,,,,,,,,,,,,,228,3,2025-03-11_10h03.55.836,comp,2024.2.4,62.951732998335515,2025-03-11 10h04.05.117409 -0400,
17,17,0,filler_random,None,None,None,None,None,None,None,None,None,None,3,1.583998680114746,None,,,,,0,0,0,0,0,17,17,132,97.77268552780151,,,,,,,,,,,,,,,,,,,,,,,,,,,,,,,,,,,,,,,,,,,,,,,,,,,,,,,,,,,,,,,,,,,,,,,,,,,,,,,,,94.76045024103166,147.08809918547985,90.7780904791553,188.9245659694881,192.82783549802568,122.29165648544395,3.0,3.1,-264,276,0,16,252,-256,97.7581615447998,97.75819993019104,97.76056575775146,97.77268552780151,97.92275381088257,97.92275381088257,97.92275381088257,97.92275381088257,97.92275381088257,97.92275381088257,97.92275381088257,99.37399363517761,3,1.583998680114746,None,,,,,,,,,,,,,,,,,,228,3,2025-03-11_10h03.55.836,comp,2024.2.4,62.951732998335515,2025-03-11 10h04.05.117409 -0400,
18,18,0,filler_square,None,None,None,None,None,None,None,None,None,None,3,1.5257577896118164,None,,,,,0,0,0,0,0,18,18,180,99.38935923576355,,,,,,,,,,,,,,,,,,,,,,,,,,,,,,,,,,,,,,,,,,,,,,,,,,,,,,,,,,,,,,,,,,,,,,,,,,,,,,,,,88.73129466547022,148.6460876672384,66.98025013162508,58.68396096337753,154.38051874407904,154.38051874407904,3.0,3.2,-200,-290,0,-6,203,289,99.37496733665466,99.375009059906,99.37825584411621,99.38935923576355,99.53943204879761,99.53943204879761,99.53943204879761,99.53943204879761,99.53943204879761,99.53943204879761,99.53943204879761,100.92385196685791,3,1.5257577896118164,None,,,,,,,,,,,,,,,,,,228,3,2025-03-11_10h03.55.836,comp,2024.2.4,62.951732998335515,2025-03-11 10h04.05.117409 -0400,
19,19,0,filler_square,None,None,None,None,None,None,None,None,None,None,3,1.265392780303955,None,,,,,0,0,0,0,0,19,19,183,100.93955159187317,,,,,,,,,,,,,,,,,,,,,,,,,,,,,,,,,,,,,,,,,,,,,,,,,,,,,,,,,,,,,,,,,,,,,,,,,,,,,,,,,82.39086385547452,95.96968576195994,77.55539532054925,59.81817652995971,120.89482965241268,120.89482965241268,1.0,1.1,-654,258,-480,255,-294,264,100.92480993270874,100.92485237121582,100.92693614959717,100.93955159187317,101.08954000473022,101.08954000473022,101.08954000473022,101.08954000473022,101.08954000473022,101.08954000473022,101.08954000473022,102.20725297927856,3,1.265392780303955,None,,,,,,,,,,,,,,,,,,228,3,2025-03-11_10h03.55.836,comp,2024.2.4,62.951732998335515,2025-03-11 10h04.05.117409 -0400,
20,20,0,filler_square,None,None,None,None,None,None,None,None,None,None,1,1.933528184890747,None,,,,,0,0,0,0,0,20,20,189,102.22285318374634,,,,,,,,,,,,,,,,,,,,,,,,,,,,,,,,,,,,,,,,,,,,,,,,,,,,,,,,,,,,,,,,,,,,,,,,,,,,,,,,,142.26642991631013,142.26642991631013,127.20746010307018,136.5220451811272,130.8876655274993,72.79997199648953,1.0,1.2,-235,5,0,15,201,7,102.20816326141357,102.20820426940918,102.21054410934448,102.22285318374634,102.37287473678589,102.37287473678589,102.37287473678589,102.37287473678589,102.37287473678589,102.37287473678589,102.37287473678589,104.17423176765442,1,1.933528184890747,None,,,,,,,,,,,,,,,,,,228,3,2025-03-11_10h03.55.836,comp,2024.2.4,62.951732998335515,2025-03-11 10h04.05.117409 -0400,
21,21,0,filler_square,None,None,None,None,None,None,None,None,None,None,3,1.3336741924285889,None,,,,,0,0,0,0,0,21,21,186,104.18934464454651,,,,,,,,,,,,,,,,,,,,,,,,,,,,,,,,,,,,,,,,,,,,,,,,,,,,,,,,,,,,,,,,,,,,,,,,,,,,,,,,,68.68233989869428,58.83732176126772,86.12908824027981,100.77488464547633,102.48421113863083,102.48421113863083,2.2,2.22,-176,275,0,-288,198,-251,104.1752097606659,104.17525100708008,104.17753744125366,104.18934464454651,104.33932828903198,104.33932828903198,104.33932828903198,104.33932828903198,104.33932828903198,104.33932828903198,104.33932828903198,105.54053974151611,3,1.3336741924285889,None,,,,,,,,,,,,,,,,,,228,3,2025-03-11_10h03.55.836,comp,2024.2.4,62.951732998335515,2025-03-11 10h04.05.117409 -0400,
22,22,0,filler_random,None,None,None,None,None,None,None,None,None,None,1,1.9268193244934082,None,,,,,0,0,0,0,0,22,22,130,105.55599761009216,,,,,,,,,,,,,,,,,,,,,,,,,,,,,,,,,,,,,,,,,,,,,,,,,,,,,,,,,,,,,,,,,,,,,,,,,,,,,,,,,199.9235794032851,163.11022145046155,196.9508283469374,143.11898149375455,133.96371997902813,57.72768312250105,2.1,2.11,-249,276,0,264,196,-258,105.54149556159973,105.54153776168823,105.5440571308136,105.55599761009216,105.70618605613708,105.70618605613708,105.70618605613708,105.70618605613708,105.70618605613708,105.70618605613708,105.70618605613708,107.49063062667847,1,1.9268193244934082,None,,,,,,,,,,,,,,,,,,228,3,2025-03-11_10h03.55.836,comp,2024.2.4,62.951732998335515,2025-03-11 10h04.05.117409 -0400,
23,23,0,critical,wdh,20.0,3.0,lower,57.0,133.0,78.0,78.0,133.0,57.0,1,3.0717062950134277,None,,,,,0,0,0,0,0,23,23,80,107.50618505477905,,,,,,,,,,,,,,,,,,,,,,,,,,,,,,,,,,,,,,,,,,,,,,,,,,,,,,,,,,,,,,,,,,,,,,,,,,,,,,,,,57.0,133.0,78.0,78.0,133.0,57.0,3.0,3.2,-202,-264,0,-13,164,290,107.49142622947693,107.49146699905396,107.49388074874878,107.50618505477905,107.65596342086792,107.65596342086792,107.65596342086792,107.65596342086792,107.65596342086792,107.65596342086792,107.65596342086792,110.59057259559631,1,3.0717062950134277,None,,,,,,,,,,,,,,,,,,228,3,2025-03-11_10h03.55.836,comp,2024.2.4,62.951732998335515,2025-03-11 10h04.05.117409 -0400,
24,24,0,filler_square,None,None,None,None,None,None,None,None,None,None,2,1.1413683891296387,None,,,,,0,0,0,0,0,24,24,199,110.60587358474731,,,,,,,,,,,,,,,,,,,,,,,,,,,,,,,,,,,,,,,,,,,,,,,,,,,,,,,,,,,,,,,,,,,,,,,,,,,,,,,,,88.98324312218844,115.41787023558598,143.12619289315313,143.12619289315313,110.77895146902304,98.65582336785204,1.0,1.3,255,-277,480,-264,697,-258,110.59154105186462,110.59158205986023,110.59423780441284,110.60587358474731,110.7560338973999,110.7560338973999,110.7560338973999,110.7560338973999,110.7560338973999,110.7560338973999,110.7560338973999,111.75713109970093,2,1.1413683891296387,None,,,,,,,,,,,,,,,,,,228,3,2025-03-11_10h03.55.836,comp,2024.2.4,62.951732998335515,2025-03-11 10h04.05.117409 -0400,
25,25,0,critical,hwd,35.0,3.0,upper,200.0,125.0,125.0,200.0,127.0,127.0,2,3.3890695571899414,None,,,,,0,0,0,0,0,25,25,99,111.77274250984192,,,,,,,,,,,,,,,,,,,,,,,,,,,,,,,,,,,,,,,,,,,,,,,,,,,,,,,,,,,,,,,,,,,,,,,,,,,,,,,,,200.0,125.0,125.0,200.0,127.0,127.0,3.0,3.1,-258,272,0,2,260,-288,111.75790405273438,111.75796103477478,111.7603006362915,111.77274250984192,111.9229748249054,111.9229748249054,111.9229748249054,111.9229748249054,111.9229748249054,111.9229748249054,111.9229748249054,115.17416834831238,2,3.3890695571899414,None,,,,,,,,,,,,,,,,,,228,3,2025-03-11_10h03.55.836,comp,2024.2.4,62.951732998335515,2025-03-11 10h04.05.117409 -0400,
26,26,0,filler_random,None,None,None,None,None,None,None,None,None,None,2,1.6775469779968262,None,,,,,0,0,0,0,0,26,26,165,115.18921422958374,,,,,,,,,,,,,,,,,,,,,,,,,,,,,,,,,,,,,,,,,,,,,,,,,,,,,,,,,,,,,,,,,,,,,,,,,,,,,,,,,109.92865634537246,196.617642903918,122.60257297731135,198.46344160109535,145.85264851542303,77.14901298857703,1.0,1.1,-774,265,-480,267,-246,274,115.17510461807251,115.17514657974243,115.1772346496582,115.18921422958374,115.33960604667664,115.33960604667664,115.33960604667664,115.33960604667664,115.33960604667664,115.33960604667664,115.33960604667664,116.87379145622253,2,1.6775469779968262,None,,,,,,,,,,,,,,,,,,228,3,2025-03-11_10h03.55.836,comp,2024.2.4,62.951732998335515,2025-03-11 10h04.05.117409 -0400,
27,27,0,critical,hdw,35.0,2.1,upper,200.0,125.0,127.0,127.0,125.0,200.0,1,2.1773858070373535,None,,,,,0,0,0,0,0,27,27,45,116.88943386077881,,,,,,,,,,,,,,,,,,,,,,,,,,,,,,,,,,,,,,,,,,,,,,,,,,,,,,,,,,,,,,,,,,,,,,,,,,,,,,,,,200.0,125.0,127.0,127.0,125.0,200.0,2.1,2.12,-222,-275,0,-260,260,255,116.8745903968811,116.87463092803955,116.87682700157166,116.88943386077881,117.03966903686523,117.03966903686523,117.03966903686523,117.03966903686523,117.03966903686523,117.03966903686523,117.03966903686523,119.07409477233887,1,2.1773858070373535,None,,,,,,,,,,,,,,,,,,228,3,2025-03-11_10h03.55.836,comp,2024.2.4,62.951732998335515,2025-03-11 10h04.05.117409 -0400,
28,28,0,critical,dhw,35.0,3.0,upper,127.0,127.0,200.0,125.0,125.0,200.0,3,1.2882137298583984,None,,,,,0,0,0,0,0,28,28,51,119.08968806266785,,,,,,,,,,,,,,,,,,,,,,,,,,,,,,,,,,,,,,,,,,,,,,,,,,,,,,,,,,,,,,,,,,,,,,,,,,,,,,,,,127.0,127.0,200.0,125.0,125.0,200.0,3.0,3.2,-222,-287,0,-10,258,252,119.07486963272095,119.07490944862366,119.0770001411438,119.08968806266785,119.23964095115662,119.23964095115662,119.23964095115662,119.23964095115662,119.23964095115662,119.23964095115662,119.23964095115662,120.39077019691467,3,1.2882137298583984,None,,,,,,,,,,,,,,,,,,228,3,2025-03-11_10h03.55.836,comp,2024.2.4,62.951732998335515,2025-03-11 10h04.05.117409 -0400,
29,29,0,critical,hwd,35.0,2.1,upper,200.0,125.0,125.0,200.0,127.0,127.0,1,1.5337703227996826,None,,,,,0,0,0,0,0,29,29,17,120.40591359138489,,,,,,,,,,,,,,,,,,,,,,,,,,,,,,,,,,,,,,,,,,,,,,,,,,,,,,,,,,,,,,,,,,,,,,,,,,,,,,,,,200.0,125.0,125.0,200.0,127.0,127.0,2.1,2.11,-258,286,0,284,260,-269,120.3916437625885,120.39168810844421,120.39366149902344,120.40591359138489,120.55620741844177,120.55620741844177,120.55620741844177,120.55620741844177,120.55620741844177,120.55620741844177,120.55620741844177,121.95726656913757,1,1.5337703227996826,None,,,,,,,,,,,,,,,,,,228,3,2025-03-11_10h03.55.836,comp,2024.2.4,62.951732998335515,2025-03-11 10h04.05.117409 -0400,
30,30,0,critical,wdh,20.0,4.0,upper,125.0,200.0,141.0,141.0,200.0,125.0,3,2.0781867504119873,None,,,,,0,0,0,0,0,30,30,83,121.97251605987549,,,,,,,,,,,,,,,,,,,,,,,,,,,,,,,,,,,,,,,,,,,,,,,,,,,,,,,,,,,,,,,,,,,,,,,,,,,,,,,,,125.0,200.0,141.0,141.0,200.0,125.0,4.0,4.1,-266,-272,0,9,229,-267,121.9580774307251,121.95811891555786,121.9604423046112,121.97251605987549,122.12285995483398,122.12285995483398,122.12285995483398,122.12285995483398,122.12285995483398,122.12285995483398,122.12285995483398,124.0572292804718,3,2.0781867504119873,None,,,,,,,,,,,,,,,,,,228,3,2025-03-11_10h03.55.836,comp,2024.2.4,62.951732998335515,2025-03-11 10h04.05.117409 -0400,
31,31,0,critical,whd,20.0,2.1,upper,125.0,200.0,200.0,125.0,141.0,141.0,2,2.9313676357269287,None,,,,,0,0,0,0,0,31,31,39,124.0727219581604,,,,,,,,,,,,,,,,,,,,,,,,,,,,,,,,,,,,,,,,,,,,,,,,,,,,,,,,,,,,,,,,,,,,,,,,,,,,,,,,,125.0,200.0,200.0,125.0,141.0,141.0,2.1,2.11,-258,275,0,250,229,-276,124.05803561210632,124.05807638168335,124.06044340133667,124.0727219581604,124.22311449050903,124.22311449050903,124.22311449050903,124.22311449050903,124.22311449050903,124.22311449050903,124.22311449050903,127.00741386413574,2,2.9313676357269287,None,,,,,,,,,,,,,,,,,,228,3,2025-03-11_10h03.55.836,comp,2024.2.4,62.951732998335515,2025-03-11 10h04.05.117409 -0400,
32,32,0,critical,whd,35.0,2.1,lower,57.0,133.0,133.0,57.0,70.0,70.0,2,2.5878183841705322,None,,,,,0,0,0,0,0,32,32,36,127.02278876304626,,,,,,,,,,,,,,,,,,,,,,,,,,,,,,,,,,,,,,,,,,,,,,,,,,,,,,,,,,,,,,,,,,,,,,,,,,,,,,,,,57.0,133.0,133.0,57.0,70.0,70.0,2.1,2.11,-191,274,0,264,160,-272,127.00821995735168,127.0082597732544,127.01034307479858,127.02278876304626,127.1727945804596,127.1727945804596,127.1727945804596,127.1727945804596,127.1727945804596,127.1727945804596,127.1727945804596,129.62361073493958,2,2.5878183841705322,None,,,,,,,,,,,,,,,,,,228,3,2025-03-11_10h03.55.836,comp,2024.2.4,62.951732998335515,2025-03-11 10h04.05.117409 -0400,
33,33,0,critical,hdw,20.0,2.1,upper,200.0,125.0,141.0,141.0,125.0,200.0,3,1.3800559043884277,None,,,,,0,0,0,0,0,33,33,23,129.63904333114624,,,,,,,,,,,,,,,,,,,,,,,,,,,,,,,,,,,,,,,,,,,,,,,,,,,,,,,,,,,,,,,,,,,,,,,,,,,,,,,,,200.0,125.0,141.0,141.0,125.0,200.0,2.1,2.12,-229,-263,0,-260,266,277,129.62441277503967,129.62445282936096,129.62696981430054,129.63904333114624,129.78934907913208,129.78934907913208,129.78934907913208,129.78934907913208,129.78934907913208,129.78934907913208,129.78934907913208,131.02401638031006,3,1.3800559043884277,None,,,,,,,,,,,,,,,,,,228,3,2025-03-11_10h03.55.836,comp,2024.2.4,62.951732998335515,2025-03-11 10h04.05.117409 -0400,
34,34,0,filler_random,None,None,None,None,None,None,None,None,None,None,1,2.027350902557373,None,,,,,0,0,0,0,0,34,34,146,131.0392665863037,,,,,,,,,,,,,,,,,,,,,,,,,,,,,,,,,,,,,,,,,,,,,,,,,,,,,,,,,,,,,,,,,,,,,,,,,,,,,,,,,187.60196233124444,173.2552055286406,172.9923198221338,168.87133551135406,88.81723765766141,192.42320476095836,2.2,2.21,-267,-257,0,289,277,259,131.02490210533142,131.02496075630188,131.02704000473022,131.0392665863037,131.189523935318,131.189523935318,131.189523935318,131.189523935318,131.189523935318,131.189523935318,131.189523935318,133.0738809108734,1,2.027350902557373,None,,,,,,,,,,,,,,,,,,228,3,2025-03-11_10h03.55.836,comp,2024.2.4,62.951732998335515,2025-03-11 10h04.05.117409 -0400,
35,35,0,critical,whd,35.0,1.0,lower,57.0,133.0,133.0,57.0,70.0,70.0,2,3.9298994541168213,None,,,,,0,0,0,0,0,35,35,84,133.08944535255432,,,,,,,,,,,,,,,,,,,,,,,,,,,,,,,,,,,,,,,,,,,,,,,,,,,,,,,,,,,,,,,,,,,,,,,,,,,,,,,,,57.0,133.0,133.0,57.0,70.0,70.0,1.0,1.2,-191,6,0,-15,160,-10,133.07463717460632,133.0746750831604,133.0765609741211,133.08944535255432,133.23905563354492,133.23905563354492,133.23905563354492,133.23905563354492,133.23905563354492,133.23905563354492,133.23905563354492,137.0236804485321,2,3.9298994541168213,None,,,,,,,,,,,,,,,,,,228,3,2025-03-11_10h03.55.836,comp,2024.2.4,62.951732998335515,2025-03-11 10h04.05.117409 -0400,
36,36,0,filler_square,None,None,None,None,None,None,None,None,None,None,1,1.3007850646972656,None,,,,,0,0,0,0,0,36,36,174,137.03919219970703,,,,,,,,,,,,,,,,,,,,,,,,,,,,,,,,,,,,,,,,,,,,,,,,,,,,,,,,,,,,,,,,,,,,,,,,,,,,,,,,,170.53354170889912,170.53354170889912,59.03511691746774,125.86570917297934,168.6878825825829,108.02354043459309,1.0,1.3,236,-285,480,-262,693,-267,137.0246250629425,137.02466535568237,137.02727556228638,137.03919219970703,137.189546585083,137.189546585083,137.189546585083,137.189546585083,137.189546585083,137.189546585083,137.189546585083,138.3570499420166,1,1.3007850646972656,None,,,,,,,,,,,,,,,,,,228,3,2025-03-11_10h03.55.836,comp,2024.2.4,62.951732998335515,2025-03-11 10h04.05.117409 -0400,
37,37,0,critical,wdh,35.0,2.1,lower,57.0,133.0,70.0,70.0,133.0,57.0,3,2.758709669113159,None,,,,,0,0,0,0,0,37,37,8,138.37240767478943,,,,,,,,,,,,,,,,,,,,,,,,,,,,,,,,,,,,,,,,,,,,,,,,,,,,,,,,,,,,,,,,,,,,,,,,,,,,,,,,,57.0,133.0,70.0,70.0,133.0,57.0,2.1,2.12,-198,-252,0,-274,160,259,138.35783624649048,138.3578748703003,138.35981273651123,138.37240767478943,138.52248668670654,138.52248668670654,138.52248668670654,138.52248668670654,138.52248668670654,138.52248668670654,138.52248668670654,141.14026761054993,3,2.758709669113159,None,,,,,,,,,,,,,,,,,,228,3,2025-03-11_10h03.55.836,comp,2024.2.4,62.951732998335515,2025-03-11 10h04.05.117409 -0400,
38,38,0,critical,dwh,35.0,2.1,lower,70.0,70.0,57.0,133.0,133.0,57.0,3,1.517951488494873,None,,,,,0,0,0,0,0,38,38,4,141.15584683418274,,,,,,,,,,,,,,,,,,,,,,,,,,,,,,,,,,,,,,,,,,,,,,,,,,,,,,,,,,,,,,,,,,,,,,,,,,,,,,,,,70.0,70.0,57.0,133.0,133.0,57.0,2.1,2.11,-198,288,0,260,191,-262,141.14104008674622,141.14107871055603,141.14340257644653,141.15584683418274,141.30577206611633,141.30577206611633,141.30577206611633,141.30577206611633,141.30577206611633,141.30577206611633,141.30577206611633,142.69023323059082,3,1.517951488494873,None,,,,,,,,,,,,,,,,,,228,3,2025-03-11_10h03.55.836,comp,2024.2.4,62.951732998335515,2025-03-11 10h04.05.117409 -0400,
39,39,0,critical,dwh,35.0,2.1,upper,127.0,127.0,125.0,200.0,200.0,125.0,3,1.425565481185913,None,,,,,0,0,0,0,0,39,39,5,142.7056429386139,,,,,,,,,,,,,,,,,,,,,,,,,,,,,,,,,,,,,,,,,,,,,,,,,,,,,,,,,,,,,,,,,,,,,,,,,,,,,,,,,127.0,127.0,125.0,200.0,200.0,125.0,2.1,2.11,-260,261,0,272,258,-257,142.69104957580566,142.69109106063843,142.69345593452454,142.7056429386139,142.85603642463684,142.85603642463684,142.85603642463684,142.85603642463684,142.85603642463684,142.85603642463684,142.85603642463684,144.14074993133545,3,1.425565481185913,None,,,,,,,,,,,,,,,,,,228,3,2025-03-11_10h03.55.836,comp,2024.2.4,62.951732998335515,2025-03-11 10h04.05.117409 -0400,
40,40,0,critical,hwd,20.0,1.0,lower,133.0,57.0,57.0,133.0,78.0,78.0,3,1.7337048053741455,None,,,,,0,0,0,0,0,40,40,102,144.15597009658813,,,,,,,,,,,,,,,,,,,,,,,,,,,,,,,,,,,,,,,,,,,,,,,,,,,,,,,,,,,,,,,,,,,,,,,,,,,,,,,,,133.0,57.0,57.0,133.0,78.0,78.0,1.0,1.1,-671,262,-480,273,-278,268,144.14158177375793,144.14162182807922,144.14416790008545,144.15597009658813,144.3056993484497,144.3056993484497,144.3056993484497,144.3056993484497,144.3056993484497,144.3056993484497,144.3056993484497,145.90690517425537,3,1.7337048053741455,None,,,,,,,,,,,,,,,,,,228,3,2025-03-11_10h03.55.836,comp,2024.2.4,62.951732998335515,2025-03-11 10h04.05.117409 -0400,
41,41,0,filler_random,None,None,None,None,None,None,None,None,None,None,3,2.039268970489502,None,,,,,0,0,0,0,0,41,41,142,145.92236518859863,,,,,,,,,,,,,,,,,,,,,,,,,,,,,,,,,,,,,,,,,,,,,,,,,,,,,,,,,,,,,,,,,,,,,,,,,,,,,,,,,95.21308842143142,179.10175413146877,100.80413452728344,149.50748460619153,123.36397911743619,144.4749133120436,1.0,1.2,-260,-11,0,-11,243,-15,145.9077854156494,145.90782475471497,145.90984416007996,145.92236518859863,146.07257604599,146.07257604599,146.07257604599,146.07257604599,146.07257604599,146.07257604599,146.07257604599,147.97364687919617,3,2.039268970489502,None,,,,,,,,,,,,,,,,,,228,3,2025-03-11_10h03.55.836,comp,2024.2.4,62.951732998335515,2025-03-11 10h04.05.117409 -0400,
42,42,0,filler_random,None,None,None,None,None,None,None,None,None,None,1,1.9255924224853516,None,,,,,0,0,0,0,0,42,42,163,147.98897624015808,,,,,,,,,,,,,,,,,,,,,,,,,,,,,,,,,,,,,,,,,,,,,,,,,,,,,,,,,,,,,,,,,,,,,,,,,,,,,,,,,64.86749122725747,192.9864753789079,175.8013365013902,81.64589122691045,58.307742095249054,128.6324502586714,2.1,2.11,-233,287,0,251,201,-273,147.97455286979675,147.9745945930481,147.97706651687622,147.98897624015808,148.1390950679779,148.1390950679779,148.1390950679779,148.1390950679779,148.1390950679779,148.1390950679779,148.1390950679779,149.92344403266907,1,1.9255924224853516,None,,,,,,,,,,,,,,,,,,228,3,2025-03-11_10h03.55.836,comp,2024.2.4,62.951732998335515,2025-03-11 10h04.05.117409 -0400,
43,43,0,filler_square,None,None,None,None,None,None,None,None,None,None,2,2.143254280090332,None,,,,,0,0,0,0,0,43,43,196,149.93917179107666,,,,,,,,,,,,,,,,,,,,,,,,,,,,,,,,,,,,,,,,,,,,,,,,,,,,,,,,,,,,,,,,,,,,,,,,,,,,,,,,,114.14418386015583,121.3992921332251,129.1377222257421,129.1377222257421,92.64990184508322,97.42502243891732,1.0,1.2,-221,-19,0,-8,209,-7,149.92442083358765,149.9244623184204,149.92683005332947,149.93917179107666,150.08924269676208,150.08924269676208,150.08924269676208,150.08924269676208,150.08924269676208,150.08924269676208,150.08924269676208,152.09041476249695,2,2.143254280090332,None,,,,,,,,,,,,,,,,,,228,3,2025-03-11_10h03.55.836,comp,2024.2.4,62.951732998335515,2025-03-11 10h04.05.117409 -0400,
44,44,0,critical,wdh,20.0,2.1,lower,57.0,133.0,78.0,78.0,133.0,57.0,3,5.216823101043701,None,,,,,0,0,0,0,0,44,44,10,152.10578608512878,,,,,,,,,,,,,,,,,,,,,,,,,,,,,,,,,,,,,,,,,,,,,,,,,,,,,,,,,,,,,,,,,,,,,,,,,,,,,,,,,57.0,133.0,78.0,78.0,133.0,57.0,2.1,2.11,-202,287,0,254,164,-265,152.0911729335785,152.09121322631836,152.09319162368774,152.10578608512878,152.25579595565796,152.25579595565796,152.25579595565796,152.25579595565796,152.25579595565796,152.25579595565796,152.25579595565796,157.3402760028839,3,5.216823101043701,None,,,,,,,,,,,,,,,,,,228,3,2025-03-11_10h03.55.836,comp,2024.2.4,62.951732998335515,2025-03-11 10h04.05.117409 -0400,
45,45,0,filler_square,None,None,None,None,None,None,None,None,None,None,2,1.8948988914489746,None,,,,,0,0,0,0,0,45,45,176,157.35562658309937,,,,,,,,,,,,,,,,,,,,,,,,,,,,,,,,,,,,,,,,,,,,,,,,,,,,,,,,,,,,,,,,,,,,,,,,,,,,,,,,,63.94481219883926,65.28469194653641,80.05157001941826,80.05157001941826,65.60746594282156,71.8816330374162,2.2,2.21,-169,-265,0,257,172,271,157.3412265777588,157.34126782417297,157.34365701675415,157.35562658309937,157.5056631565094,157.5056631565094,157.5056631565094,157.5056631565094,157.5056631565094,157.5056631565094,157.5056631565094,159.25671887397766,2,1.8948988914489746,None,,,,,,,,,,,,,,,,,,228,3,2025-03-11_10h03.55.836,comp,2024.2.4,62.951732998335515,2025-03-11 10h04.05.117409 -0400,
46,46,0,critical,dwh,35.0,1.0,upper,127.0,127.0,125.0,200.0,200.0,125.0,3,2.076322555541992,None,,,,,0,0,0,0,0,46,46,61,159.27250170707703,,,,,,,,,,,,,,,,,,,,,,,,,,,,,,,,,,,,,,,,,,,,,,,,,,,,,,,,,,,,,,,,,,,,,,,,,,,,,,,,,127.0,127.0,125.0,200.0,200.0,125.0,1.0,1.2,-260,-2,0,2,258,-11,159.25754380226135,159.25758385658264,159.26024532318115,159.27250170707703,159.42246913909912,159.42246913909912,159.42246913909912,159.42246913909912,159.42246913909912,159.42246913909912,159.42246913909912,161.35779905319214,3,2.076322555541992,None,,,,,,,,,,,,,,,,,,228,3,2025-03-11_10h03.55.836,comp,2024.2.4,62.951732998335515,2025-03-11 10h04.05.117409 -0400,
47,47,0,critical,whd,35.0,4.0,lower,57.0,133.0,133.0,57.0,70.0,70.0,1,3.8528800010681152,None,,,,,0,0,0,0,0,47,47,88,161.37295579910278,,,,,,,,,,,,,,,,,,,,,,,,,,,,,,,,,,,,,,,,,,,,,,,,,,,,,,,,,,,,,,,,,,,,,,,,,,,,,,,,,57.0,133.0,133.0,57.0,70.0,70.0,4.0,4.2,-191,-10,0,-259,160,-2,161.35860133171082,161.35864233970642,161.3605718612671,161.37295579910278,161.52267122268677,161.52267122268677,161.52267122268677,161.52267122268677,161.52267122268677,161.52267122268677,161.52267122268677,165.24009490013123,1,3.8528800010681152,None,,,,,,,,,,,,,,,,,,228,3,2025-03-11_10h03.55.836,comp,2024.2.4,62.951732998335515,2025-03-11 10h04.05.117409 -0400,
48,48,0,critical,dhw,20.0,2.1,lower,78.0,78.0,133.0,57.0,57.0,133.0,2,1.900613784790039,None,,,,,0,0,0,0,0,48,48,2,165.25546145439148,,,,,,,,,,,,,,,,,,,,,,,,,,,,,,,,,,,,,,,,,,,,,,,,,,,,,,,,,,,,,,,,,,,,,,,,,,,,,,,,,78.0,78.0,133.0,57.0,57.0,133.0,2.1,2.11,-164,258,0,264,191,-259,165.24086594581604,165.24090600013733,165.24319863319397,165.25546145439148,165.4057285785675,165.4057285785675,165.4057285785675,165.4057285785675,165.4057285785675,165.4057285785675,165.4057285785675,167.1733434200287,2,1.900613784790039,None,,,,,,,,,,,,,,,,,,228,3,2025-03-11_10h03.55.836,comp,2024.2.4,62.951732998335515,2025-03-11 10h04.05.117409 -0400,
49,49,0,critical,hwd,20.0,3.0,upper,200.0,125.0,125.0,200.0,141.0,141.0,2,2.7339417934417725,None,,,,,0,0,0,0,0,49,49,105,167.18891429901123,,,,,,,,,,,,,,,,,,,,,,,,,,,,,,,,,,,,,,,,,,,,,,,,,,,,,,,,,,,,,,,,,,,,,,,,,,,,,,,,,200.0,125.0,125.0,200.0,141.0,141.0,3.0,3.1,-258,258,0,3,266,-266,167.17413520812988,167.174174785614,167.1765706539154,167.18891429901123,167.3392767906189,167.3392767906189,167.3392767906189,167.3392767906189,167.3392767906189,167.3392767906189,167.3392767906189,169.9402391910553,2,2.7339417934417725,None,,,,,,,,,,,,,,,,,,228,3,2025-03-11_10h03.55.836,comp,2024.2.4,62.951732998335515,2025-03-11 10h04.05.117409 -0400,
50,50,0,filler_square,None,None,None,None,None,None,None,None,None,None,3,1.5341522693634033,None,,,,,0,0,0,0,0,50,50,194,169.95538783073425,,,,,,,,,,,,,,,,,,,,,,,,,,,,,,,,,,,,,,,,,,,,,,,,,,,,,,,,,,,,,,,,,,,,,,,,,,,,,,,,,69.58385632417645,69.00229174441608,111.2927419359448,69.6926522679982,112.44651548163998,112.44651548163998,2.2,2.22,-165,270,0,-261,187,-276,169.94119596481323,169.94123697280884,169.9436478614807,169.95538783073425,170.1055200099945,170.1055200099945,170.1055200099945,170.1055200099945,170.1055200099945,170.1055200099945,170.1055200099945,171.50673580169678,3,1.5341522693634033,None,,,,,,,,,,,,,,,,,,228,3,2025-03-11_10h03.55.836,comp,2024.2.4,62.951732998335515,2025-03-11 10h04.05.117409 -0400,
51,51,0,critical,dhw,35.0,2.1,lower,70.0,70.0,133.0,57.0,57.0,133.0,2,1.503615140914917,None,,,,,0,0,0,0,0,51,51,24,171.5221230983734,,,,,,,,,,,,,,,,,,,,,,,,,,,,,,,,,,,,,,,,,,,,,,,,,,,,,,,,,,,,,,,,,,,,,,,,,,,,,,,,,70.0,70.0,133.0,57.0,57.0,133.0,2.1,2.12,-160,-274,0,-265,191,274,171.5075228214264,171.50756335258484,171.51005363464355,171.5221230983734,171.6722183227539,171.6722183227539,171.6722183227539,171.6722183227539,171.6722183227539,171.6722183227539,171.6722183227539,173.04004383087158,2,1.503615140914917,None,,,,,,,,,,,,,,,,,,228,3,2025-03-11_10h03.55.836,comp,2024.2.4,62.951732998335515,2025-03-11 10h04.05.117409 -0400,
52,52,0,critical,wdh,35.0,4.0,upper,125.0,200.0,127.0,127.0,200.0,125.0,3,1.4913671016693115,None,,,,,0,0,0,0,0,52,52,77,173.05550360679626,,,,,,,,,,,,,,,,,,,,,,,,,,,,,,,,,,,,,,,,,,,,,,,,,,,,,,,,,,,,,,,,,,,,,,,,,,,,,,,,,125.0,200.0,127.0,127.0,200.0,125.0,4.0,4.2,-260,-6,0,-289,222,-14,173.04083132743835,173.04087257385254,173.0432093143463,173.05550360679626,173.20582556724548,173.20582556724548,173.20582556724548,173.20582556724548,173.20582556724548,173.20582556724548,173.20582556724548,174.5570468902588,3,1.4913671016693115,None,,,,,,,,,,,,,,,,,,228,3,2025-03-11_10h03.55.836,comp,2024.2.4,62.951732998335515,2025-03-11 10h04.05.117409 -0400,
53,53,0,filler_square,None,None,None,None,None,None,None,None,None,None,1,1.0692224502563477,None,,,,,0,0,0,0,0,53,53,178,174.5724048614502,,,,,,,,,,,,,,,,,,,,,,,,,,,,,,,,,,,,,,,,,,,,,,,,,,,,,,,,,,,,,,,,,,,,,,,,,,,,,,,,,135.99450326489386,135.99450326489386,100.20205680726396,58.550975846148916,122.87328674540699,66.54001295484987,2.2,2.21,-193,-288,0,258,159,251,174.55814409255981,174.5581865310669,174.5602514743805,174.5724048614502,174.7224154472351,174.7224154472351,174.7224154472351,174.7224154472351,174.7224154472351,174.7224154472351,174.7224154472351,175.6567029953003,1,1.0692224502563477,None,,,,,,,,,,,,,,,,,,228,3,2025-03-11_10h03.55.836,comp,2024.2.4,62.951732998335515,2025-03-11 10h04.05.117409 -0400,
54,54,0,critical,whd,20.0,3.0,upper,125.0,200.0,200.0,125.0,141.0,141.0,2,1.2176976203918457,None,,,,,0,0,0,0,0,54,54,93,175.67203068733215,,,,,,,,,,,,,,,,,,,,,,,,,,,,,,,,,,,,,,,,,,,,,,,,,,,,,,,,,,,,,,,,,,,,,,,,,,,,,,,,,125.0,200.0,200.0,125.0,141.0,141.0,3.0,3.1,-258,279,0,-18,229,-251,175.65748476982117,175.65752696990967,175.65950441360474,175.67203068733215,175.82250213623047,175.82250213623047,175.82250213623047,175.82250213623047,175.82250213623047,175.82250213623047,175.82250213623047,176.90674662590027,2,1.2176976203918457,None,,,,,,,,,,,,,,,,,,228,3,2025-03-11_10h03.55.836,comp,2024.2.4,62.951732998335515,2025-03-11 10h04.05.117409 -0400,
55,55,0,filler_random,None,None,None,None,None,None,None,None,None,None,1,1.7122204303741455,None,,,,,0,0,0,0,0,55,55,152,176.92206931114197,,,,,,,,,,,,,,,,,,,,,,,,,,,,,,,,,,,,,,,,,,,,,,,,,,,,,,,,,,,,,,,,,,,,,,,,,,,,,,,,,120.63334024237115,145.5601256709921,189.53291282461342,78.88279506923409,153.77829089575295,116.90765624038653,1.0,1.2,-208,-14,0,-1,194,4,176.907634973526,176.90767669677734,176.91054701805115,176.92206931114197,177.0723795890808,177.0723795890808,177.0723795890808,177.0723795890808,177.0723795890808,177.0723795890808,177.0723795890808,178.6402735710144,1,1.7122204303741455,None,,,,,,,,,,,,,,,,,,228,3,2025-03-11_10h03.55.836,comp,2024.2.4,62.951732998335515,2025-03-11 10h04.05.117409 -0400,
56,56,0,critical,hdw,20.0,4.0,upper,200.0,125.0,141.0,141.0,125.0,200.0,1,1.7545151710510254,None,,,,,0,0,0,0,0,56,56,119,178.65570163726807,,,,,,,,,,,,,,,,,,,,,,,,,,,,,,,,,,,,,,,,,,,,,,,,,,,,,,,,,,,,,,,,,,,,,,,,,,,,,,,,,200.0,125.0,141.0,141.0,125.0,200.0,4.0,4.1,-229,-288,0,-18,266,-281,178.641099691391,178.6411395072937,178.64321327209473,178.65570163726807,178.80563831329346,178.80563831329346,178.80563831329346,178.80563831329346,178.80563831329346,178.80563831329346,178.80563831329346,180.42351746559143,1,1.7545151710510254,None,,,,,,,,,,,,,,,,,,228,3,2025-03-11_10h03.55.836,comp,2024.2.4,62.951732998335515,2025-03-11 10h04.05.117409 -0400,
57,57,0,filler_square,None,None,None,None,None,None,None,None,None,None,3,1.0675952434539795,None,,,,,0,0,0,0,0,57,57,190,180.43874311447144,,,,,,,,,,,,,,,,,,,,,,,,,,,,,,,,,,,,,,,,,,,,,,,,,,,,,,,,,,,,,,,,,,,,,,,,,,,,,,,,,142.75174755600244,158.54089336946882,81.81756153049926,124.3928765033313,181.38505660121717,181.38505660121717,2.1,2.12,-237,-284,0,-268,249,264,180.42449283599854,180.42453336715698,180.42698860168457,180.43874311447144,180.58919143676758,180.58919143676758,180.58919143676758,180.58919143676758,180.58919143676758,180.58919143676758,180.58919143676758,181.52363419532776,3,1.0675952434539795,None,,,,,,,,,,,,,,,,,,228,3,2025-03-11_10h03.55.836,comp,2024.2.4,62.951732998335515,2025-03-11 10h04.05.117409 -0400,
58,58,0,critical,whd,35.0,2.1,upper,125.0,200.0,200.0,125.0,127.0,127.0,1,1.4714412689208984,None,,,,,0,0,0,0,0,58,58,37,181.5388216972351,,,,,,,,,,,,,,,,,,,,,,,,,,,,,,,,,,,,,,,,,,,,,,,,,,,,,,,,,,,,,,,,,,,,,,,,,,,,,,,,,125.0,200.0,200.0,125.0,127.0,127.0,2.1,2.12,-258,-289,0,-273,222,281,181.52444314956665,181.52448415756226,181.52692008018494,181.5388216972351,181.68898701667786,181.68898701667786,181.68898701667786,181.68898701667786,181.68898701667786,181.68898701667786,181.68898701667786,183.02344822883606,1,1.4714412689208984,None,,,,,,,,,,,,,,,,,,228,3,2025-03-11_10h03.55.836,comp,2024.2.4,62.951732998335515,2025-03-11 10h04.05.117409 -0400,
59,59,0,filler_square,None,None,None,None,None,None,None,None,None,None,3,3.2507076263427734,None,,,,,0,0,0,0,0,59,59,204,183.03874492645264,,,,,,,,,,,,,,,,,,,,,,,,,,,,,,,,,,,,,,,,,,,,,,,,,,,,,,,,,,,,,,,,,,,,,,,,,,,,,,,,,65.31193296976603,65.31193296976603,59.942697889725444,64.35750391700907,61.528890468584805,63.31483443238099,2.2,2.22,-161,287,0,-281,160,-253,183.02439975738525,183.02444052696228,183.02684903144836,183.03874492645264,183.188809633255,183.188809633255,183.188809633255,183.188809633255,183.188809633255,183.188809633255,183.188809633255,186.30658864974976,3,3.2507076263427734,None,,,,,,,,,,,,,,,,,,228,3,2025-03-11_10h03.55.836,comp,2024.2.4,62.951732998335515,2025-03-11 10h04.05.117409 -0400,
60,60,0,critical,dwh,35.0,2.1,lower,70.0,70.0,57.0,133.0,133.0,57.0,3,3.9034996032714844,None,,,,,0,0,0,0,0,60,60,28,186.32198286056519,,,,,,,,,,,,,,,,,,,,,,,,,,,,,,,,,,,,,,,,,,,,,,,,,,,,,,,,,,,,,,,,,,,,,,,,,,,,,,,,,70.0,70.0,57.0,133.0,133.0,57.0,2.1,2.11,-198,281,0,276,191,-253,186.30739903450012,186.30743885040283,186.30989933013916,186.32198286056519,186.47201681137085,186.47201681137085,186.47201681137085,186.47201681137085,186.47201681137085,186.47201681137085,186.47201681137085,190.24021077156067,3,3.9034996032714844,None,,,,,,,,,,,,,,,,,,228,3,2025-03-11_10h03.55.836,comp,2024.2.4,62.951732998335515,2025-03-11 10h04.05.117409 -0400,
61,61,0,critical,whd,35.0,1.0,upper,125.0,200.0,200.0,125.0,127.0,127.0,1,1.5327765941619873,None,,,,,0,0,0,0,0,61,61,85,190.25539588928223,,,,,,,,,,,,,,,,,,,,,,,,,,,,,,,,,,,,,,,,,,,,,,,,,,,,,,,,,,,,,,,,,,,,,,,,,,,,,,,,,125.0,200.0,200.0,125.0,127.0,127.0,1.0,1.3,222,-270,480,-256,702,-288,190.2410135269165,190.24105405807495,190.24317812919617,190.25539588928223,190.40554809570312,190.40554809570312,190.40554809570312,190.40554809570312,190.40554809570312,190.40554809570312,190.40554809570312,191.79037642478943,1,1.5327765941619873,None,,,,,,,,,,,,,,,,,,228,3,2025-03-11_10h03.55.836,comp,2024.2.4,62.951732998335515,2025-03-11 10h04.05.117409 -0400,
62,62,0,filler_square,None,None,None,None,None,None,None,None,None,None,2,2.004593849182129,None,,,,,0,0,0,0,0,62,62,207,191.80557370185852,,,,,,,,,,,,,,,,,,,,,,,,,,,,,,,,,,,,,,,,,,,,,,,,,,,,,,,,,,,,,,,,,,,,,,,,,,,,,,,,,60.58443107164615,68.57447651019064,70.54198350908622,70.54198350908622,69.78239581718981,57.302238195526506,2.1,2.12,-166,-285,0,-289,160,255,191.7912938594818,191.79133486747742,191.79332399368286,191.80557370185852,191.95556640625,191.95556640625,191.95556640625,191.95556640625,191.95556640625,191.95556640625,191.95556640625,193.8231279850006,2,2.004593849182129,None,,,,,,,,,,,,,,,,,,228,3,2025-03-11_10h03.55.836,comp,2024.2.4,62.951732998335515,2025-03-11 10h04.05.117409 -0400,
63,63,0,critical,whd,35.0,2.1,lower,57.0,133.0,133.0,57.0,70.0,70.0,2,3.5956225395202637,None,,,,,0,0,0,0,0,63,63,12,193.83868169784546,,,,,,,,,,,,,,,,,,,,,,,,,,,,,,,,,,,,,,,,,,,,,,,,,,,,,,,,,,,,,,,,,,,,,,,,,,,,,,,,,57.0,133.0,133.0,57.0,70.0,70.0,2.1,2.11,-191,269,0,268,160,-269,193.82389402389526,193.82394909858704,193.82622814178467,193.83868169784546,193.98887658119202,193.98887658119202,193.98887658119202,193.98887658119202,193.98887658119202,193.98887658119202,193.98887658119202,197.43981266021729,2,3.5956225395202637,None,,,,,,,,,,,,,,,,,,228,3,2025-03-11_10h03.55.836,comp,2024.2.4,62.951732998335515,2025-03-11 10h04.05.117409 -0400,
64,64,0,critical,dhw,35.0,1.0,upper,127.0,127.0,200.0,125.0,125.0,200.0,2,2.0503766536712646,None,,,,,0,0,0,0,0,64,64,49,197.4555459022522,,,,,,,,,,,,,,,,,,,,,,,,,,,,,,,,,,,,,,,,,,,,,,,,,,,,,,,,,,,,,,,,,,,,,,,,,,,,,,,,,127.0,127.0,200.0,125.0,125.0,200.0,1.0,1.2,-222,0,0,-19,258,-13,197.44063186645508,197.44067335128784,197.4432315826416,197.4555459022522,197.60558438301086,197.60558438301086,197.60558438301086,197.60558438301086,197.60558438301086,197.60558438301086,197.60558438301086,199.52342104911804,2,2.0503766536712646,None,,,,,,,,,,,,,,,,,,228,3,2025-03-11_10h03.55.836,comp,2024.2.4,62.951732998335515,2025-03-11 10h04.05.117409 -0400,
65,65,0,filler_random,None,None,None,None,None,None,None,None,None,None,1,1.0334765911102295,None,,,,,0,0,0,0,0,65,65,161,199.53870296478271,,,,,,,,,,,,,,,,,,,,,,,,,,,,,,,,,,,,,,,,,,,,,,,,,,,,,,,,,,,,,,,,,,,,,,,,,,,,,,,,,175.05985074954958,197.61361501467528,97.77684417783281,194.90914510457532,84.91490415453792,179.69669774080216,1.0,1.2,-292,12,0,19,283,5,199.52430701255798,199.52434754371643,199.52676391601562,199.53870296478271,199.6889898777008,199.6889898777008,199.6889898777008,199.6889898777008,199.6889898777008,199.6889898777008,199.6889898777008,200.57354617118835,1,1.0334765911102295,None,,,,,,,,,,,,,,,,,,228,3,2025-03-11_10h03.55.836,comp,2024.2.4,62.951732998335515,2025-03-11 10h04.05.117409 -0400,
66,66,0,filler_square,None,None,None,None,None,None,None,None,None,None,2,1.3013322353363037,None,,,,,0,0,0,0,0,66,66,177,200.5889389514923,,,,,,,,,,,,,,,,,,,,,,,,,,,,,,,,,,,,,,,,,,,,,,,,,,,,,,,,,,,,,,,,,,,,,,,,,,,,,,,,,67.91780906746023,63.06336892028192,70.84132170031936,70.84132170031936,66.65240899886848,62.23711268951382,2.2,2.22,-163,279,0,-275,163,-254,200.5745131969452,200.574551820755,200.57704615592957,200.5889389514923,200.7387342453003,200.7387342453003,200.7387342453003,200.7387342453003,200.7387342453003,200.7387342453003,200.7387342453003,201.90632009506226,2,1.3013322353363037,None,,,,,,,,,,,,,,,,,,228,3,2025-03-11_10h03.55.836,comp,2024.2.4,62.951732998335515,2025-03-11 10h04.05.117409 -0400,
67,67,0,filler_random,None,None,None,None,None,None,None,None,None,None,3,1.3122563362121582,None,,,,,0,0,0,0,0,67,67,169,201.9218785762787,,,,,,,,,,,,,,,,,,,,,,,,,,,,,,,,,,,,,,,,,,,,,,,,,,,,,,,,,,,,,,,,,,,,,,,,,,,,,,,,,193.7069136718132,100.27852519528795,189.11746390486033,75.82787752716804,110.2756687137524,196.4140655917887,1.0,1.2,-184,5,0,-13,232,3,201.90718936920166,201.90722846984863,201.90961122512817,201.9218785762787,202.07210087776184,202.07210087776184,202.07210087776184,202.07210087776184,202.07210087776184,202.07210087776184,202.07210087776184,203.23999762535095,3,1.3122563362121582,None,,,,,,,,,,,,,,,,,,228,3,2025-03-11_10h03.55.836,comp,2024.2.4,62.951732998335515,2025-03-11 10h04.05.117409 -0400,
68,68,0,filler_square,None,None,None,None,None,None,None,None,None,None,3,1.3214623928070068,None,,,,,0,0,0,0,0,68,68,205,203.2557897567749,,,,,,,,,,,,,,,,,,,,,,,,,,,,,,,,,,,,,,,,,,,,,,,,,,,,,,,,,,,,,,,,,,,,,,,,,,,,,,,,,100.6022037265938,65.14172605224306,70.20500008976632,100.89328014626622,106.65371731553245,106.65371731553245,2.1,2.12,-179,-267,0,-275,200,271,203.24096417427063,203.2410056591034,203.2430727481842,203.2557897567749,203.40537524223328,203.40537524223328,203.40537524223328,203.40537524223328,203.40537524223328,203.40537524223328,203.40537524223328,204.59001445770264,3,1.3214623928070068,None,,,,,,,,,,,,,,,,,,228,3,2025-03-11_10h03.55.836,comp,2024.2.4,62.951732998335515,2025-03-11 10h04.05.117409 -0400,
69,69,0,filler_square,None,None,None,None,None,None,None,None,None,None,2,1.3005406856536865,None,,,,,0,0,0,0,0,69,69,170,204.60526704788208,,,,,,,,,,,,,,,,,,,,,,,,,,,,,,,,,,,,,,,,,,,,,,,,,,,,,,,,,,,,,,,,,,,,,,,,,,,,,,,,,63.18700286916269,63.85442335964967,77.23662988938683,77.23662988938683,65.89402058070257,57.35584100054639,4.0,4.1,-167,-276,0,1,163,-260,204.59098267555237,204.59102416038513,204.59306383132935,204.60526704788208,204.75536966323853,204.75536966323853,204.75536966323853,204.75536966323853,204.75536966323853,204.75536966323853,204.75536966323853,205.9231173992157,2,1.3005406856536865,None,,,,,,,,,,,,,,,,,,228,3,2025-03-11_10h03.55.836,comp,2024.2.4,62.951732998335515,2025-03-11 10h04.05.117409 -0400,
70,70,0,filler_random,None,None,None,None,None,None,None,None,None,None,3,1.311594009399414,None,,,,,0,0,0,0,0,70,70,148,205.9385266304016,,,,,,,,,,,,,,,,,,,,,,,,,,,,,,,,,,,,,,,,,,,,,,,,,,,,,,,,,,,,,,,,,,,,,,,,,,,,,,,,,157.13039112178487,60.19169375743567,102.30475163772718,87.50492255275321,109.76741819874832,193.53134275194404,1.0,1.2,-170,8,0,1,237,-12,205.9241132736206,205.92415499687195,205.92627263069153,205.9385266304016,206.13901281356812,206.13901281356812,206.13901281356812,206.13901281356812,206.13901281356812,206.13901281356812,206.13901281356812,207.25655555725098,3,1.311594009399414,None,,,,,,,,,,,,,,,,,,228,3,2025-03-11_10h03.55.836,comp,2024.2.4,62.951732998335515,2025-03-11 10h04.05.117409 -0400,
71,71,0,filler_square,None,None,None,None,None,None,None,None,None,None,2,1.1692156791687012,None,,,,,0,0,0,0,0,71,71,208,207.27219438552856,,,,,,,,,,,,,,,,,,,,,,,,,,,,,,,,,,,,,,,,,,,,,,,,,,,,,,,,,,,,,,,,,,,,,,,,,,,,,,,,,74.28649438051508,64.76955076914282,82.27855435186629,82.27855435186629,63.76970358798547,61.01047805822991,2.1,2.11,-170,251,0,284,168,-287,207.25749707221985,207.25753831863403,207.26017832756042,207.27219438552856,207.42191815376282,207.42191815376282,207.42191815376282,207.42191815376282,207.42191815376282,207.42191815376282,207.42191815376282,208.45636987686157,2,1.1692156791687012,None,,,,,,,,,,,,,,,,,,228,3,2025-03-11_10h03.55.836,comp,2024.2.4,62.951732998335515,2025-03-11 10h04.05.117409 -0400,
72,72,0,critical,hdw,20.0,3.0,lower,133.0,57.0,78.0,78.0,57.0,133.0,1,2.2893569469451904,None,,,,,0,0,0,0,0,72,72,116,208.47182869911194,,,,,,,,,,,,,,,,,,,,,,,,,,,,,,,,,,,,,,,,,,,,,,,,,,,,,,,,,,,,,,,,,,,,,,,,,,,,,,,,,133.0,57.0,78.0,78.0,57.0,133.0,3.0,3.2,-164,-265,0,-12,202,288,208.4571635723114,208.4572033882141,208.45959758758545,208.47182869911194,208.62202429771423,208.62202429771423,208.62202429771423,208.62202429771423,208.62202429771423,208.62202429771423,208.62202429771423,210.7734305858612,1,2.2893569469451904,None,,,,,,,,,,,,,,,,,,228,3,2025-03-11_10h03.55.836,comp,2024.2.4,62.951732998335515,2025-03-11 10h04.05.117409 -0400,
73,73,0,critical,hwd,20.0,2.1,lower,133.0,57.0,57.0,133.0,78.0,78.0,1,1.7885639667510986,None,,,,,0,0,0,0,0,73,73,42,210.7885980606079,,,,,,,,,,,,,,,,,,,,,,,,,,,,,,,,,,,,,,,,,,,,,,,,,,,,,,,,,,,,,,,,,,,,,,,,,,,,,,,,,133.0,57.0,57.0,133.0,78.0,78.0,2.1,2.12,-191,-262,0,-259,202,276,210.77424454689026,210.77428603172302,210.7766399383545,210.7885980606079,210.93865942955017,210.93865942955017,210.93865942955017,210.93865942955017,210.93865942955017,210.93865942955017,210.93865942955017,212.5898621082306,1,1.7885639667510986,None,,,,,,,,,,,,,,,,,,228,3,2025-03-11_10h03.55.836,comp,2024.2.4,62.951732998335515,2025-03-11 10h04.05.117409 -0400,
74,74,0,critical,hdw,35.0,1.0,upper,200.0,125.0,127.0,127.0,125.0,200.0,1,2.021080732345581,None,,,,,0,0,0,0,0,74,74,109,212.60520315170288,,,,,,,,,,,,,,,,,,,,,,,,,,,,,,,,,,,,,,,,,,,,,,,,,,,,,,,,,,,,,,,,,,,,,,,,,,,,,,,,,200.0,125.0,127.0,127.0,125.0,200.0,1.0,1.3,258,-264,480,-283,740,-262,212.59067463874817,212.5907154083252,212.59326267242432,212.60520315170288,212.7555274963379,212.7555274963379,212.7555274963379,212.7555274963379,212.7555274963379,212.7555274963379,212.7555274963379,214.63996648788452,1,2.021080732345581,None,,,,,,,,,,,,,,,,,,228,3,2025-03-11_10h03.55.836,comp,2024.2.4,62.951732998335515,2025-03-11 10h04.05.117409 -0400,
75,75,0,critical,hwd,35.0,4.0,upper,200.0,125.0,125.0,200.0,127.0,127.0,1,1.9059641361236572,None,,,,,0,0,0,0,0,75,75,101,214.65512442588806,,,,,,,,,,,,,,,,,,,,,,,,,,,,,,,,,,,,,,,,,,,,,,,,,,,,,,,,,,,,,,,,,,,,,,,,,,,,,,,,,200.0,125.0,125.0,200.0,127.0,127.0,4.0,4.1,-258,-277,0,-1,260,-261,214.64074158668518,214.6407814025879,214.6428189277649,214.65512442588806,214.80560278892517,214.80560278892517,214.80560278892517,214.80560278892517,214.80560278892517,214.80560278892517,214.80560278892517,216.57336926460266,1,1.9059641361236572,None,,,,,,,,,,,,,,,,,,228,3,2025-03-11_10h03.55.836,comp,2024.2.4,62.951732998335515,2025-03-11 10h04.05.117409 -0400,
76,76,0,filler_square,None,None,None,None,None,None,None,None,None,None,2,0.9668140411376953,None,,,,,0,0,0,0,0,76,76,184,216.5885922908783,,,,,,,,,,,,,,,,,,,,,,,,,,,,,,,,,,,,,,,,,,,,,,,,,,,,,,,,,,,,,,,,,,,,,,,,,,,,,,,,,104.23162195820697,73.68663538281828,115.82469020368984,115.82469020368984,94.49351747405063,74.93536124523504,3.0,3.1,-191,264,0,19,191,-286,216.57427644729614,216.5743157863617,216.57665705680847,216.5885922908783,216.73857522010803,216.73857522010803,216.73857522010803,216.73857522010803,216.73857522010803,216.73857522010803,216.73857522010803,217.5566234588623,2,0.9668140411376953,None,,,,,,,,,,,,,,,,,,228,3,2025-03-11_10h03.55.836,comp,2024.2.4,62.951732998335515,2025-03-11 10h04.05.117409 -0400,
77,77,0,filler_square,None,None,None,None,None,None,None,None,None,None,2,1.1171059608459473,None,,,,,0,0,0,0,0,77,77,201,217.57215285301208,,,,,,,,,,,,,,,,,,,,,,,,,,,,,,,,,,,,,,,,,,,,,,,,,,,,,,,,,,,,,,,,,,,,,,,,,,,,,,,,,98.14012227290458,85.78546297283525,115.51740361377306,115.51740361377306,83.70165150795557,60.48183130054945,1.0,1.3,283,-276,480,-263,664,-283,217.55758905410767,217.5576295852661,217.5600779056549,217.57215285301208,217.7220606803894,217.7220606803894,217.7220606803894,217.7220606803894,217.7220606803894,217.7220606803894,217.7220606803894,218.7063536643982,2,1.1171059608459473,None,,,,,,,,,,,,,,,,,,228,3,2025-03-11_10h03.55.836,comp,2024.2.4,62.951732998335515,2025-03-11 10h04.05.117409 -0400,
78,78,0,critical,dhw,20.0,2.1,lower,78.0,78.0,133.0,57.0,57.0,133.0,2,3.0820600986480713,None,,,,,0,0,0,0,0,78,78,26,218.72176456451416,,,,,,,,,,,,,,,,,,,,,,,,,,,,,,,,,,,,,,,,,,,,,,,,,,,,,,,,,,,,,,,,,,,,,,,,,,,,,,,,,78.0,78.0,133.0,57.0,57.0,133.0,2.1,2.11,-164,264,0,284,191,-283,218.70713925361633,218.70718050003052,218.70957827568054,218.72176456451416,218.87197017669678,218.87197017669678,218.87197017669678,218.87197017669678,218.87197017669678,218.87197017669678,218.87197017669678,221.8066110610962,2,3.0820600986480713,None,,,,,,,,,,,,,,,,,,228,3,2025-03-11_10h03.55.836,comp,2024.2.4,62.951732998335515,2025-03-11 10h04.05.117409 -0400,
79,79,0,filler_square,None,None,None,None,None,None,None,None,None,None,3,1.25115966796875,None,,,,,0,0,0,0,0,79,79,195,221.82214045524597,,,,,,,,,,,,,,,,,,,,,,,,,,,,,,,,,,,,,,,,,,,,,,,,,,,,,,,,,,,,,,,,,,,,,,,,,,,,,,,,,112.62858027140072,84.04899387101437,139.38505293681703,123.85317756254662,177.78280918994508,177.78280918994508,3.0,3.1,-200,280,0,7,247,-266,221.80756783485413,221.80760955810547,221.8100459575653,221.82214045524597,221.97209548950195,221.97209548950195,221.97209548950195,221.97209548950195,221.97209548950195,221.97209548950195,221.97209548950195,223.08998084068298,3,1.25115966796875,None,,,,,,,,,,,,,,,,,,228,3,2025-03-11_10h03.55.836,comp,2024.2.4,62.951732998335515,2025-03-11 10h04.05.117409 -0400,
80,80,0,critical,dhw,20.0,4.0,lower,78.0,78.0,133.0,57.0,57.0,133.0,2,2.4881246089935303,None,,,,,0,0,0,0,0,80,80,58,223.10511541366577,,,,,,,,,,,,,,,,,,,,,,,,,,,,,,,,,,,,,,,,,,,,,,,,,,,,,,,,,,,,,,,,,,,,,,,,,,,,,,,,,78.0,78.0,133.0,57.0,57.0,133.0,4.0,4.1,-164,-276,0,7,191,-277,223.09076142311096,223.09080147743225,223.09283781051636,223.10511541366577,223.2551748752594,223.2551748752594,223.2551748752594,223.2551748752594,223.2551748752594,223.2551748752594,223.2551748752594,225.60641026496887,2,2.4881246089935303,None,,,,,,,,,,,,,,,,,,228,3,2025-03-11_10h03.55.836,comp,2024.2.4,62.951732998335515,2025-03-11 10h04.05.117409 -0400,
81,81,0,filler_square,None,None,None,None,None,None,None,None,None,None,1,1.0197174549102783,None,,,,,0,0,0,0,0,81,81,179,225.62177777290344,,,,,,,,,,,,,,,,,,,,,,,,,,,,,,,,,,,,,,,,,,,,,,,,,,,,,,,,,,,,,,,,,,,,,,,,,,,,,,,,,109.81010819116234,109.81010819116234,87.70370597794316,88.31603253106755,68.87316369922992,74.63570603067716,2.2,2.22,-195,267,0,-272,177,-254,225.60737895965576,225.60741877555847,225.60983967781067,225.62177777290344,225.77197813987732,225.77197813987732,225.77197813987732,225.77197813987732,225.77197813987732,225.77197813987732,225.77197813987732,226.65628623962402,1,1.0197174549102783,None,,,,,,,,,,,,,,,,,,228,3,2025-03-11_10h03.55.836,comp,2024.2.4,62.951732998335515,2025-03-11 10h04.05.117409 -0400,
82,82,0,critical,hwd,35.0,1.0,upper,200.0,125.0,125.0,200.0,127.0,127.0,1,2.4178450107574463,None,,,,,0,0,0,0,0,82,82,97,226.6716845035553,,,,,,,,,,,,,,,,,,,,,,,,,,,,,,,,,,,,,,,,,,,,,,,,,,,,,,,,,,,,,,,,,,,,,,,,,,,,,,,,,200.0,125.0,125.0,200.0,127.0,127.0,1.0,1.2,-258,18,0,-9,260,-13,226.6570749282837,226.65711498260498,226.65945386886597,226.6716845035553,226.82219791412354,226.82219791412354,226.82219791412354,226.82219791412354,226.82219791412354,226.82219791412354,226.82219791412354,229.10647702217102,1,2.4178450107574463,None,,,,,,,,,,,,,,,,,,228,3,2025-03-11_10h03.55.836,comp,2024.2.4,62.951732998335515,2025-03-11 10h04.05.117409 -0400,
83,83,0,catch,None,None,None,None,None,None,None,None,None,None,2,0.8335297107696533,None,,,,,0,0,0,0,0,83,83,128,229.13828706741333,,,,,,,,,,,,,,,,,,,,,,,,,,,,,,,,,,,,,,,,,,,,,,,,,,,,,,,,,,,,,,,,,,,,,,,,,,,,,,,,,91,99,132,193,60,130,2.2,2.22,-242,272,0,-283,258,-272,229.1075210571289,229.10756254196167,229.11006140708923,229.13828706741333,229.27200555801392,229.27200555801392,229.27200555801392,229.27200555801392,229.27200555801392,229.27200555801392,229.27200555801392,229.97326350212097,2,0.8335297107696533,None,,,,,,,,,,,,,,,,,,228,3,2025-03-11_10h03.55.836,comp,2024.2.4,62.951732998335515,2025-03-11 10h04.05.117409 -0400,
84,84,0,filler_random,None,None,None,None,None,None,None,None,None,None,1,1.133683204650879,None,,,,,0,0,0,0,0,84,84,153,229.98875212669373,,,,,,,,,,,,,,,,,,,,,,,,,,,,,,,,,,,,,,,,,,,,,,,,,,,,,,,,,,,,,,,,,,,,,,,,,,,,,,,,,176.08806419999377,198.1498452639208,177.76701875360015,161.20121390514458,191.75164147401549,58.622505309700436,4.0,4.1,-276,-276,0,0,206,-283,229.9741768836975,229.97421765327454,229.9763114452362,229.98875212669373,230.1387460231781,230.1387460231781,230.1387460231781,230.1387460231781,230.1387460231781,230.1387460231781,230.1387460231781,231.13987016677856,1,1.133683204650879,None,,,,,,,,,,,,,,,,,,228,3,2025-03-11_10h03.55.836,comp,2024.2.4,62.951732998335515,2025-03-11 10h04.05.117409 -0400,
85,85,0,filler_random,None,None,None,None,None,None,None,None,None,None,1,3.0003232955932617,None,,,,,0,0,0,0,0,85,85,168,231.1549870967865,,,,,,,,,,,,,,,,,,,,,,,,,,,,,,,,,,,,,,,,,,,,,,,,,,,,,,,,,,,,,,,,,,,,,,,,,,,,,,,,,67.98788418689696,188.61901798996442,138.94620150441037,82.0621225304014,85.00965471229094,117.49174531951512,4.0,4.1,-231,-273,0,-3,196,-258,231.14077711105347,231.14081740379333,231.14312887191772,231.1549870967865,231.30525374412537,231.30525374412537,231.30525374412537,231.30525374412537,231.30525374412537,231.30525374412537,231.30525374412537,234.15662813186646,1,3.0003232955932617,None,,,,,,,,,,,,,,,,,,228,3,2025-03-11_10h03.55.836,comp,2024.2.4,62.951732998335515,2025-03-11 10h04.05.117409 -0400,
86,86,0,critical,hdw,35.0,2.1,lower,133.0,57.0,70.0,70.0,57.0,133.0,1,1.677941083908081,None,,,,,0,0,0,0,0,86,86,44,234.1720368862152,,,,,,,,,,,,,,,,,,,,,,,,,,,,,,,,,,,,,,,,,,,,,,,,,,,,,,,,,,,,,,,,,,,,,,,,,,,,,,,,,133.0,57.0,70.0,70.0,57.0,133.0,2.1,2.11,-160,268,0,273,198,-276,234.15748929977417,234.1575310230255,234.15996146202087,234.1720368862152,234.32218027114868,234.32218027114868,234.32218027114868,234.32218027114868,234.32218027114868,234.32218027114868,234.32218027114868,235.85631585121155,1,1.677941083908081,None,,,,,,,,,,,,,,,,,,228,3,2025-03-11_10h03.55.836,comp,2024.2.4,62.951732998335515,2025-03-11 10h04.05.117409 -0400,
87,87,0,critical,hdw,35.0,3.0,upper,200.0,125.0,127.0,127.0,125.0,200.0,3,1.537506103515625,None,,,,,0,0,0,0,0,87,87,111,235.87195754051208,,,,,,,,,,,,,,,,,,,,,,,,,,,,,,,,,,,,,,,,,,,,,,,,,,,,,,,,,,,,,,,,,,,,,,,,,,,,,,,,,200.0,125.0,127.0,127.0,125.0,200.0,3.0,3.1,-222,253,0,5,260,-264,235.85710167884827,235.8571436405182,235.85964798927307,235.87195754051208,236.02203822135925,236.02203822135925,236.02203822135925,236.02203822135925,236.02203822135925,236.02203822135925,236.02203822135925,237.42319655418396,3,1.537506103515625,None,,,,,,,,,,,,,,,,,,228,3,2025-03-11_10h03.55.836,comp,2024.2.4,62.951732998335515,2025-03-11 10h04.05.117409 -0400,
88,88,0,critical,dhw,20.0,4.0,upper,141.0,141.0,200.0,125.0,125.0,200.0,3,1.267380714416504,None,,,,,0,0,0,0,0,88,88,59,237.4383840560913,,,,,,,,,,,,,,,,,,,,,,,,,,,,,,,,,,,,,,,,,,,,,,,,,,,,,,,,,,,,,,,,,,,,,,,,,,,,,,,,,141.0,141.0,200.0,125.0,125.0,200.0,4.0,4.2,-229,-2,0,-286,258,-16,237.42397713661194,237.4240164756775,237.42631816864014,237.4383840560913,237.58870816230774,237.58870816230774,237.58870816230774,237.58870816230774,237.58870816230774,237.58870816230774,237.58870816230774,238.72318291664124,3,1.267380714416504,None,,,,,,,,,,,,,,,,,,228,3,2025-03-11_10h03.55.836,comp,2024.2.4,62.951732998335515,2025-03-11 10h04.05.117409 -0400,
89,89,0,critical,dhw,35.0,2.1,lower,70.0,70.0,133.0,57.0,57.0,133.0,3,1.5671706199645996,None,,,,,0,0,0,0,0,89,89,0,238.73839592933655,,,,,,,,,,,,,,,,,,,,,,,,,,,,,,,,,,,,,,,,,,,,,,,,,,,,,,,,,,,,,,,,,,,,,,,,,,,,,,,,,70.0,70.0,133.0,57.0,57.0,133.0,2.1,2.11,-160,281,0,289,191,-253,238.72398471832275,238.72402501106262,238.72634649276733,238.73839592933655,238.88848543167114,238.88848543167114,238.88848543167114,238.88848543167114,238.88848543167114,238.88848543167114,238.88848543167114,240.32285165786743,3,1.5671706199645996,None,,,,,,,,,,,,,,,,,,228,3,2025-03-11_10h03.55.836,comp,2024.2.4,62.951732998335515,2025-03-11 10h04.05.117409 -0400,
90,90,0,critical,dhw,35.0,2.1,upper,127.0,127.0,200.0,125.0,125.0,200.0,2,1.0011277198791504,None,,,,,0,0,0,0,0,90,90,1,240.33828997612,,,,,,,,,,,,,,,,,,,,,,,,,,,,,,,,,,,,,,,,,,,,,,,,,,,,,,,,,,,,,,,,,,,,,,,,,,,,,,,,,127.0,127.0,200.0,125.0,125.0,200.0,2.1,2.11,-222,265,0,285,258,-271,240.32362055778503,240.32366180419922,240.3257942199707,240.33828997612,240.4885938167572,240.4885938167572,240.4885938167572,240.4885938167572,240.4885938167572,240.4885938167572,240.4885938167572,241.35786747932434,2,1.0011277198791504,None,,,,,,,,,,,,,,,,,,228,3,2025-03-11_10h03.55.836,comp,2024.2.4,62.951732998335515,2025-03-11 10h04.05.117409 -0400,
91,91,0,critical,hwd,20.0,3.0,lower,133.0,57.0,57.0,133.0,78.0,78.0,1,2.6363537311553955,None,,,,,0,0,0,0,0,91,91,104,241.37348198890686,,,,,,,,,,,,,,,,,,,,,,,,,,,,,,,,,,,,,,,,,,,,,,,,,,,,,,,,,,,,,,,,,,,,,,,,,,,,,,,,,133.0,57.0,57.0,133.0,78.0,78.0,3.0,3.2,-191,-284,0,-8,202,288,241.3599181175232,241.35998511314392,241.36224055290222,241.37348198890686,241.52167558670044,241.52167558670044,241.52167558670044,241.52167558670044,241.52167558670044,241.52167558670044,241.52167558670044,244.0231490135193,1,2.6363537311553955,None,,,,,,,,,,,,,,,,,,228,3,2025-03-11_10h03.55.836,comp,2024.2.4,62.951732998335515,2025-03-11 10h04.05.117409 -0400,
92,92,0,critical,hwd,35.0,2.1,lower,133.0,57.0,57.0,133.0,70.0,70.0,1,1.8758080005645752,None,,,,,0,0,0,0,0,92,92,40,244.03824710845947,,,,,,,,,,,,,,,,,,,,,,,,,,,,,,,,,,,,,,,,,,,,,,,,,,,,,,,,,,,,,,,,,,,,,,,,,,,,,,,,,133.0,57.0,57.0,133.0,70.0,70.0,2.1,2.12,-191,-257,0,-280,198,265,244.02393507957458,244.02397680282593,244.02608728408813,244.03824710845947,244.18867206573486,244.18867206573486,244.18867206573486,244.18867206573486,244.18867206573486,244.18867206573486,244.18867206573486,245.92282605171204,1,1.8758080005645752,None,,,,,,,,,,,,,,,,,,228,3,2025-03-11_10h03.55.836,comp,2024.2.4,62.951732998335515,2025-03-11 10h04.05.117409 -0400,
93,93,0,filler_square,None,None,None,None,None,None,None,None,None,None,1,1.0222995281219482,None,,,,,0,0,0,0,0,93,93,202,245.93860602378845,,,,,,,,,,,,,,,,,,,,,,,,,,,,,,,,,,,,,,,,,,,,,,,,,,,,,,,,,,,,,,,,,,,,,,,,,,,,,,,,,182.38881634043747,182.38881634043747,92.63527031820959,66.35761627963323,147.68553423084398,159.05428301929322,4.0,4.2,-220,12,0,-267,209,5,245.92378759384155,245.9238305091858,245.9260401725769,245.93860602378845,246.08899188041687,246.08899188041687,246.08899188041687,246.08899188041687,246.08899188041687,246.08899188041687,246.08899188041687,246.97317171096802,1,1.0222995281219482,None,,,,,,,,,,,,,,,,,,228,3,2025-03-11_10h03.55.836,comp,2024.2.4,62.951732998335515,2025-03-11 10h04.05.117409 -0400,
94,94,0,critical,wdh,20.0,2.1,upper,125.0,200.0,141.0,141.0,200.0,125.0,1,1.2156634330749512,None,,,,,0,0,0,0,0,94,94,35,246.98827600479126,,,,,,,,,,,,,,,,,,,,,,,,,,,,,,,,,,,,,,,,,,,,,,,,,,,,,,,,,,,,,,,,,,,,,,,,,,,,,,,,,125.0,200.0,141.0,141.0,200.0,125.0,2.1,2.12,-266,-278,0,-251,229,276,246.97396993637085,246.97400999069214,246.97606301307678,246.98827600479126,247.13864374160767,247.13864374160767,247.13864374160767,247.13864374160767,247.13864374160767,247.13864374160767,247.13864374160767,248.20664167404175,1,1.2156634330749512,None,,,,,,,,,,,,,,,,,,228,3,2025-03-11_10h03.55.836,comp,2024.2.4,62.951732998335515,2025-03-11 10h04.05.117409 -0400,
95,95,0,catch,None,None,None,None,None,None,None,None,None,None,3,1.0838143825531006,None,,,,,0,0,0,0,0,95,95,126,248.22185683250427,,,,,,,,,,,,,,,,,,,,,,,,,,,,,,,,,,,,,,,,,,,,,,,,,,,,,,,,,,,,,,,,,,,,,,,,,,,,,,,,,112,78,124,66,144,181,2.2,2.22,-168,280,0,-269,220,-256,248.20779275894165,248.20783400535583,248.21029138565063,248.22185683250427,248.3719198703766,248.3719198703766,248.3719198703766,248.3719198703766,248.3719198703766,248.3719198703766,248.3719198703766,249.32275915145874,3,1.0838143825531006,None,,,,,,,,,,,,,,,,,,228,3,2025-03-11_10h03.55.836,comp,2024.2.4,62.951732998335515,2025-03-11 10h04.05.117409 -0400,
96,96,0,critical,dwh,20.0,2.1,upper,141.0,141.0,125.0,200.0,200.0,125.0,2,1.7600996494293213,None,,,,,0,0,0,0,0,96,96,31,249.33826756477356,,,,,,,,,,,,,,,,,,,,,,,,,,,,,,,,,,,,,,,,,,,,,,,,,,,,,,,,,,,,,,,,,,,,,,,,,,,,,,,,,141.0,141.0,125.0,200.0,200.0,125.0,2.1,2.12,-266,-264,0,-258,258,265,249.3235743045807,249.32361507415771,249.3255763053894,249.33826756477356,249.488596200943,249.488596200943,249.488596200943,249.488596200943,249.488596200943,249.488596200943,249.488596200943,251.12599992752075,2,1.7600996494293213,None,,,,,,,,,,,,,,,,,,228,3,2025-03-11_10h03.55.836,comp,2024.2.4,62.951732998335515,2025-03-11 10h04.05.117409 -0400,
97,97,0,filler_random,None,None,None,None,None,None,None,None,None,None,3,1.0993616580963135,None,,,,,0,0,0,0,0,97,97,154,251.14245200157166,,,,,,,,,,,,,,,,,,,,,,,,,,,,,,,,,,,,,,,,,,,,,,,,,,,,,,,,,,,,,,,,,,,,,,,,,,,,,,,,,124.60636059481308,113.21599127172088,91.94926560738688,90.54439215261381,146.2733561330135,137.09042098752218,4.0,4.1,-198,-254,0,1,210,-274,251.1279799938202,251.12802243232727,251.13098049163818,251.14245200157166,251.28920364379883,251.28920364379883,251.28920364379883,251.28920364379883,251.28920364379883,251.28920364379883,251.28920364379883,252.25633454322815,3,1.0993616580963135,None,,,,,,,,,,,,,,,,,,228,3,2025-03-11_10h03.55.836,comp,2024.2.4,62.951732998335515,2025-03-11 10h04.05.117409 -0400,
98,98,0,filler_random,None,None,None,None,None,None,None,None,None,None,3,2.721472978591919,None,,,,,0,0,0,0,0,98,98,140,252.2715666294098,,,,,,,,,,,,,,,,,,,,,,,,,,,,,,,,,,,,,,,,,,,,,,,,,,,,,,,,,,,,,,,,,,,,,,,,,,,,,,,,,142.68668773811288,112.809085303986,82.14435057576375,85.11815620610155,141.38319608028974,116.68094056763206,3.0,3.1,-195,272,0,-5,197,-267,252.2572364807129,252.2572774887085,252.25965404510498,252.2715666294098,252.42174887657166,252.42174887657166,252.42174887657166,252.42174887657166,252.42174887657166,252.42174887657166,252.42174887657166,255.00618505477905,3,2.721472978591919,None,,,,,,,,,,,,,,,,,,228,3,2025-03-11_10h03.55.836,comp,2024.2.4,62.951732998335515,2025-03-11 10h04.05.117409 -0400,
99,99,0,critical,wdh,35.0,3.0,upper,125.0,200.0,127.0,127.0,200.0,125.0,1,1.9006195068359375,None,,,,,0,0,0,0,0,99,99,75,255.0214343070984,,,,,,,,,,,,,,,,,,,,,,,,,,,,,,,,,,,,,,,,,,,,,,,,,,,,,,,,,,,,,,,,,,,,,,,,,,,,,,,,,125.0,200.0,127.0,127.0,200.0,125.0,3.0,3.2,-260,-272,0,18,222,251,255.006982088089,255.00702238082886,255.00937628746033,255.0214343070984,255.17196822166443,255.17196822166443,255.17196822166443,255.17196822166443,255.17196822166443,255.17196822166443,255.17196822166443,256.9397609233856,1,1.9006195068359375,None,,,,,,,,,,,,,,,,,,228,3,2025-03-11_10h03.55.836,comp,2024.2.4,62.951732998335515,2025-03-11 10h04.05.117409 -0400,
100,100,0,filler_square,None,None,None,None,None,None,None,None,None,None,2,0.9268636703491211,None,,,,,0,0,0,0,0,100,100,171,256.9548280239105,,,,,,,,,,,,,,,,,,,,,,,,,,,,,,,,,,,,,,,,,,,,,,,,,,,,,,,,,,,,,,,,,,,,,,,,,,,,,,,,,90.43125880294562,112.82571603505306,196.52788195008188,196.52788195008188,116.86687716815857,144.89899205589046,2.1,2.11,-251,277,0,266,267,-268,256.9407277107239,256.9407684803009,256.9434142112732,256.9548280239105,257.105162858963,257.105162858963,257.105162858963,257.105162858963,257.105162858963,257.105162858963,257.105162858963,257.8896903991699,2,0.9268636703491211,None,,,,,,,,,,,,,,,,,,228,3,2025-03-11_10h03.55.836,comp,2024.2.4,62.951732998335515,2025-03-11 10h04.05.117409 -0400,
101,101,0,critical,hdw,35.0,4.0,upper,200.0,125.0,127.0,127.0,125.0,200.0,1,1.3446741104125977,None,,,,,0,0,0,0,0,101,101,113,257.90508484840393,,,,,,,,,,,,,,,,,,,,,,,,,,,,,,,,,,,,,,,,,,,,,,,,,,,,,,,,,,,,,,,,,,,,,,,,,,,,,,,,,200.0,125.0,127.0,127.0,125.0,200.0,4.0,4.2,-222,7,0,-288,260,-10,257.8904752731323,257.8905165195465,257.89290952682495,257.90508484840393,258.0552091598511,258.0552091598511,258.0552091598511,258.0552091598511,258.0552091598511,258.0552091598511,258.0552091598511,259.25622057914734,1,1.3446741104125977,None,,,,,,,,,,,,,,,,,,228,3,2025-03-11_10h03.55.836,comp,2024.2.4,62.951732998335515,2025-03-11 10h04.05.117409 -0400,
102,102,0,critical,dhw,35.0,4.0,lower,70.0,70.0,133.0,57.0,57.0,133.0,3,2.5940842628479004,None,,,,,0,0,0,0,0,102,102,52,259.27169942855835,,,,,,,,,,,,,,,,,,,,,,,,,,,,,,,,,,,,,,,,,,,,,,,,,,,,,,,,,,,,,,,,,,,,,,,,,,,,,,,,,70.0,70.0,133.0,57.0,57.0,133.0,4.0,4.1,-160,-255,0,-10,191,-290,259.25697684288025,259.25701451301575,259.25934982299805,259.27169942855835,259.42164874076843,259.42164874076843,259.42164874076843,259.42164874076843,259.42164874076843,259.42164874076843,259.42164874076843,261.8726873397827,3,2.5940842628479004,None,,,,,,,,,,,,,,,,,,228,3,2025-03-11_10h03.55.836,comp,2024.2.4,62.951732998335515,2025-03-11 10h04.05.117409 -0400,
103,103,0,catch,None,None,None,None,None,None,None,None,None,None,2,1.0254194736480713,None,,,,,0,0,0,0,0,103,103,122,261.8884205818176,,,,,,,,,,,,,,,,,,,,,,,,,,,,,,,,,,,,,,,,,,,,,,,,,,,,,,,,,,,,,,,,,,,,,,,,,,,,,,,,,71,119,135,190,71,119,1.0,1.1,-730,286,-480,251,-230,289,261.8737394809723,261.87378001213074,261.8764328956604,261.8884205818176,262.03854179382324,262.03854179382324,262.03854179382324,262.03854179382324,262.03854179382324,262.03854179382324,262.03854179382324,262.92285561561584,2,1.0254194736480713,None,,,,,,,,,,,,,,,,,,228,3,2025-03-11_10h03.55.836,comp,2024.2.4,62.951732998335515,2025-03-11 10h04.05.117409 -0400,
104,104,0,filler_square,None,None,None,None,None,None,None,None,None,None,3,1.311161994934082,None,,,,,0,0,0,0,0,104,104,173,262.9385335445404,,,,,,,,,,,,,,,,,,,,,,,,,,,,,,,,,,,,,,,,,,,,,,,,,,,,,,,,,,,,,,,,,,,,,,,,,,,,,,,,,181.6588423972856,99.66109110132743,157.07492699339798,165.02105776013315,199.09502926154195,199.09502926154195,2.1,2.12,-228,-279,0,-273,278,273,262.9238040447235,262.92384457588196,262.9259207248688,262.9385335445404,263.08856225013733,263.08856225013733,263.08856225013733,263.08856225013733,263.08856225013733,263.08856225013733,263.08856225013733,264.25636100769043,3,1.311161994934082,None,,,,,,,,,,,,,,,,,,228,3,2025-03-11_10h03.55.836,comp,2024.2.4,62.951732998335515,2025-03-11 10h04.05.117409 -0400,
105,105,0,critical,whd,20.0,1.0,lower,57.0,133.0,133.0,57.0,78.0,78.0,2,3.0996687412261963,None,,,,,0,0,0,0,0,105,105,90,264.271746635437,,,,,,,,,,,,,,,,,,,,,,,,,,,,,,,,,,,,,,,,,,,,,,,,,,,,,,,,,,,,,,,,,,,,,,,,,,,,,,,,,57.0,133.0,133.0,57.0,78.0,78.0,1.0,1.1,-671,265,-480,252,-316,286,264.25716185569763,264.25720167160034,264.2595672607422,264.271746635437,264.42153310775757,264.42153310775757,264.42153310775757,264.42153310775757,264.42153310775757,264.42153310775757,264.42153310775757,267.37287497520447,2,3.0996687412261963,None,,,,,,,,,,,,,,,,,,228,3,2025-03-11_10h03.55.836,comp,2024.2.4,62.951732998335515,2025-03-11 10h04.05.117409 -0400,
106,106,0,filler_random,None,None,None,None,None,None,None,None,None,None,2,1.3884925842285156,None,,,,,0,0,0,0,0,106,106,144,267.3882791996002,,,,,,,,,,,,,,,,,,,,,,,,,,,,,,,,,,,,,,,,,,,,,,,,,,,,,,,,,,,,,,,,,,,,,,,,,,,,,,,,,81.71294135513979,190.6087324792319,192.12443337298288,91.83137541651215,117.6123438416466,106.55777888476553,1.0,1.1,-717,256,-480,276,-285,252,267.3737761974335,267.3738169670105,267.3760943412781,267.3882791996002,267.53849959373474,267.53849959373474,267.53849959373474,267.53849959373474,267.53849959373474,267.53849959373474,267.53849959373474,268.7894756793976,2,1.3884925842285156,None,,,,,,,,,,,,,,,,,,228,3,2025-03-11_10h03.55.836,comp,2024.2.4,62.951732998335515,2025-03-11 10h04.05.117409 -0400,
107,107,0,critical,wdh,35.0,1.0,upper,125.0,200.0,127.0,127.0,200.0,125.0,3,2.7417125701904297,None,,,,,0,0,0,0,0,107,107,73,268.80476546287537,,,,,,,,,,,,,,,,,,,,,,,,,,,,,,,,,,,,,,,,,,,,,,,,,,,,,,,,,,,,,,,,,,,,,,,,,,,,,,,,,125.0,200.0,127.0,127.0,200.0,125.0,1.0,1.3,220,-276,480,-275,702,-255,268.79028058052063,268.7903218269348,268.7927052974701,268.80476546287537,268.95509934425354,268.95509934425354,268.95509934425354,268.95509934425354,268.95509934425354,268.95509934425354,268.95509934425354,271.5561442375183,3,2.7417125701904297,None,,,,,,,,,,,,,,,,,,228,3,2025-03-11_10h03.55.836,comp,2024.2.4,62.951732998335515,2025-03-11 10h04.05.117409 -0400,
108,108,0,critical,dwh,20.0,1.0,lower,78.0,78.0,57.0,133.0,133.0,57.0,2,1.974409580230713,None,,,,,0,0,0,0,0,108,108,66,271.5716440677643,,,,,,,,,,,,,,,,,,,,,,,,,,,,,,,,,,,,,,,,,,,,,,,,,,,,,,,,,,,,,,,,,,,,,,,,,,,,,,,,,78.0,78.0,57.0,133.0,133.0,57.0,1.0,1.3,278,-261,480,-285,671,-256,271.5569386482239,271.5569791793823,271.55925965309143,271.5716440677643,271.72150802612305,271.72150802612305,271.72150802612305,271.72150802612305,271.72150802612305,271.72150802612305,271.72150802612305,273.5559501647949,2,1.974409580230713,None,,,,,,,,,,,,,,,,,,228,3,2025-03-11_10h03.55.836,comp,2024.2.4,62.951732998335515,2025-03-11 10h04.05.117409 -0400,
109,109,0,critical,dwh,35.0,4.0,lower,70.0,70.0,57.0,133.0,133.0,57.0,3,1.966705083847046,None,,,,,0,0,0,0,0,109,109,64,273.5716300010681,,,,,,,,,,,,,,,,,,,,,,,,,,,,,,,,,,,,,,,,,,,,,,,,,,,,,,,,,,,,,,,,,,,,,,,,,,,,,,,,,70.0,70.0,57.0,133.0,133.0,57.0,4.0,4.1,-198,-281,0,-8,191,-258,273.5567216873169,273.5567626953125,273.558997631073,273.5716300010681,273.72150111198425,273.72150111198425,273.72150111198425,273.72150111198425,273.72150111198425,273.72150111198425,273.72150111198425,275.53950786590576,3,1.966705083847046,None,,,,,,,,,,,,,,,,,,228,3,2025-03-11_10h03.55.836,comp,2024.2.4,62.951732998335515,2025-03-11 10h04.05.117409 -0400,
110,110,0,catch,None,None,None,None,None,None,None,None,None,None,1,1.0378656387329102,None,,,,,0,0,0,0,0,110,110,129,275.555006980896,,,,,,,,,,,,,,,,,,,,,,,,,,,,,,,,,,,,,,,,,,,,,,,,,,,,,,,,,,,,,,,,,,,,,,,,,,,,,,,,,192,133,63,127,116,74,2.2,2.22,-226,282,0,-267,196,-282,275.5405445098877,275.5405852794647,275.5427212715149,275.555006980896,275.7050349712372,275.7050349712372,275.7050349712372,275.7050349712372,275.7050349712372,275.7050349712372,275.7050349712372,276.6060199737549,1,1.0378656387329102,None,,,,,,,,,,,,,,,,,,228,3,2025-03-11_10h03.55.836,comp,2024.2.4,62.951732998335515,2025-03-11 10h04.05.117409 -0400,
111,111,0,filler_random,None,None,None,None,None,None,None,None,None,None,2,1.1249771118164062,None,,,,,0,0,0,0,0,111,111,151,276.6214213371277,,,,,,,,,,,,,,,,,,,,,,,,,,,,,,,,,,,,,,,,,,,,,,,,,,,,,,,,,,,,,,,,,,,,,,,,,,,,,,,,,106.86721272273897,124.2903708575512,127.18528617520185,150.88634687199954,98.36093714892817,97.62114994184398,2.1,2.11,-234,264,0,262,220,-256,276.6070485115051,276.6070890426636,276.60947704315186,276.6214213371277,276.7715570926666,276.7715570926666,276.7715570926666,276.7715570926666,276.7715570926666,276.7715570926666,276.7715570926666,277.7561106681824,2,1.1249771118164062,None,,,,,,,,,,,,,,,,,,228,3,2025-03-11_10h03.55.836,comp,2024.2.4,62.951732998335515,2025-03-11 10h04.05.117409 -0400,
112,112,0,filler_random,None,None,None,None,None,None,None,None,None,None,1,1.189021110534668,None,,,,,0,0,0,0,0,112,112,157,277.77171874046326,,,,,,,,,,,,,,,,,,,,,,,,,,,,,,,,,,,,,,,,,,,,,,,,,,,,,,,,,,,,,,,,,,,,,,,,,,,,,,,,,113.92262480546484,104.06842543793258,74.65238853816054,107.24865251392283,86.66274474048473,96.42739727278828,4.0,4.2,-202,13,0,-280,198,3,277.75699496269226,277.75703525543213,277.7590937614441,277.77171874046326,277.9214551448822,277.9214551448822,277.9214551448822,277.9214551448822,277.9214551448822,277.9214551448822,277.9214551448822,278.97300457954407,1,1.189021110534668,None,,,,,,,,,,,,,,,,,,228,3,2025-03-11_10h03.55.836,comp,2024.2.4,62.951732998335515,2025-03-11 10h04.05.117409 -0400,
113,113,0,critical,hdw,20.0,1.0,upper,200.0,125.0,141.0,141.0,125.0,200.0,1,1.3832321166992188,None,,,,,0,0,0,0,0,113,113,115,278.98799657821655,,,,,,,,,,,,,,,,,,,,,,,,,,,,,,,,,,,,,,,,,,,,,,,,,,,,,,,,,,,,,,,,,,,,,,,,,,,,,,,,,200.0,125.0,141.0,141.0,125.0,200.0,1.0,1.2,-229,-18,0,15,266,-4,278.97374749183655,278.9737865924835,278.97705602645874,278.98799657821655,279.1383275985718,279.1383275985718,279.1383275985718,279.1383275985718,279.1383275985718,279.1383275985718,279.1383275985718,280.38951444625854,1,1.3832321166992188,None,,,,,,,,,,,,,,,,,,228,3,2025-03-11_10h03.55.836,comp,2024.2.4,62.951732998335515,2025-03-11 10h04.05.117409 -0400,
114,114,0,critical,dwh,35.0,3.0,upper,127.0,127.0,125.0,200.0,200.0,125.0,3,2.2361044883728027,None,,,,,0,0,0,0,0,114,114,63,280.40470266342163,,,,,,,,,,,,,,,,,,,,,,,,,,,,,,,,,,,,,,,,,,,,,,,,,,,,,,,,,,,,,,,,,,,,,,,,,,,,,,,,,127.0,127.0,125.0,200.0,200.0,125.0,3.0,3.2,-260,-272,0,-10,258,262,280.3902835845947,280.39032340049744,280.39268827438354,280.40470266342163,280.55532789230347,280.55532789230347,280.55532789230347,280.55532789230347,280.55532789230347,280.55532789230347,280.55532789230347,282.65630888938904,3,2.2361044883728027,None,,,,,,,,,,,,,,,,,,228,3,2025-03-11_10h03.55.836,comp,2024.2.4,62.951732998335515,2025-03-11 10h04.05.117409 -0400,
115,115,0,critical,wdh,35.0,1.0,lower,57.0,133.0,70.0,70.0,133.0,57.0,3,1.3381247520446777,None,,,,,0,0,0,0,0,115,115,72,282.6714346408844,,,,,,,,,,,,,,,,,,,,,,,,,,,,,,,,,,,,,,,,,,,,,,,,,,,,,,,,,,,,,,,,,,,,,,,,,,,,,,,,,57.0,133.0,70.0,70.0,133.0,57.0,1.0,1.3,282,-281,480,-268,640,-264,282.65708470344543,282.6571235656738,282.6594007015228,282.6714346408844,282.8213665485382,282.8213665485382,282.8213665485382,282.8213665485382,282.8213665485382,282.8213665485382,282.8213665485382,284.02266001701355,3,1.3381247520446777,None,,,,,,,,,,,,,,,,,,228,3,2025-03-11_10h03.55.836,comp,2024.2.4,62.951732998335515,2025-03-11 10h04.05.117409 -0400,
116,116,0,critical,dwh,35.0,1.0,lower,70.0,70.0,57.0,133.0,133.0,57.0,3,2.1168951988220215,None,,,,,0,0,0,0,0,116,116,60,284.0379786491394,,,,,,,,,,,,,,,,,,,,,,,,,,,,,,,,,,,,,,,,,,,,,,,,,,,,,,,,,,,,,,,,,,,,,,,,,,,,,,,,,70.0,70.0,57.0,133.0,133.0,57.0,1.0,1.3,282,-265,480,-254,671,-258,284.0234603881836,284.0234999656677,284.02594804763794,284.0379786491394,284.18813824653625,284.18813824653625,284.18813824653625,284.18813824653625,284.18813824653625,284.18813824653625,284.18813824653625,286.1727080345154,3,2.1168951988220215,None,,,,,,,,,,,,,,,,,,228,3,2025-03-11_10h03.55.836,comp,2024.2.4,62.951732998335515,2025-03-11 10h04.05.117409 -0400,
117,117,0,critical,hdw,35.0,2.1,lower,133.0,57.0,70.0,70.0,57.0,133.0,1,1.8687567710876465,None,,,,,0,0,0,0,0,117,117,20,286.1880052089691,,,,,,,,,,,,,,,,,,,,,,,,,,,,,,,,,,,,,,,,,,,,,,,,,,,,,,,,,,,,,,,,,,,,,,,,,,,,,,,,,133.0,57.0,70.0,70.0,57.0,133.0,2.1,2.12,-160,-281,0,-290,198,277,286.17350935935974,286.1735496520996,286.1760470867157,286.1880052089691,286.33816266059875,286.33816266059875,286.33816266059875,286.33816266059875,286.33816266059875,286.33816266059875,286.33816266059875,288.0724472999573,1,1.8687567710876465,None,,,,,,,,,,,,,,,,,,228,3,2025-03-11_10h03.55.836,comp,2024.2.4,62.951732998335515,2025-03-11 10h04.05.117409 -0400,
118,118,0,filler_random,None,None,None,None,None,None,None,None,None,None,3,1.1455881595611572,None,,,,,0,0,0,0,0,118,118,141,288.087984085083,,,,,,,,,,,,,,,,,,,,,,,,,,,,,,,,,,,,,,,,,,,,,,,,,,,,,,,,,,,,,,,,,,,,,,,,,,,,,,,,,149.78985216965395,70.74640626044547,173.26315698400256,121.38990491181309,188.61186382223107,184.90466915709828,2.1,2.12,-192,-282,0,-260,249,269,288.0733380317688,288.0733766555786,288.0758180618286,288.087984085083,288.2382583618164,288.2382583618164,288.2382583618164,288.2382583618164,288.2382583618164,288.2382583618164,288.2382583618164,289.23947620391846,3,1.1455881595611572,None,,,,,,,,,,,,,,,,,,228,3,2025-03-11_10h03.55.836,comp,2024.2.4,62.951732998335515,2025-03-11 10h04.05.117409 -0400,
119,119,0,filler_random,None,None,None,None,None,None,None,None,None,None,3,1.2019562721252441,None,,,,,0,0,0,0,0,119,119,143,289.25489115715027,,,,,,,,,,,,,,,,,,,,,,,,,,,,,,,,,,,,,,,,,,,,,,,,,,,,,,,,,,,,,,,,,,,,,,,,,,,,,,,,,86.00968175037872,158.19075743315312,113.81841596117697,82.01253450718052,168.325150218926,164.47489370133457,2.1,2.12,-216,-265,0,-279,219,280,289.24040961265564,289.2404501438141,289.2427954673767,289.25489115715027,289.4049355983734,289.4049355983734,289.4049355983734,289.4049355983734,289.4049355983734,289.4049355983734,289.4049355983734,290.47266912460327,3,1.2019562721252441,None,,,,,,,,,,,,,,,,,,228,3,2025-03-11_10h03.55.836,comp,2024.2.4,62.951732998335515,2025-03-11 10h04.05.117409 -0400,
120,120,0,critical,dhw,20.0,2.1,upper,141.0,141.0,200.0,125.0,125.0,200.0,2,1.2671732902526855,None,,,,,0,0,0,0,0,120,120,27,290.48794531822205,,,,,,,,,,,,,,,,,,,,,,,,,,,,,,,,,,,,,,,,,,,,,,,,,,,,,,,,,,,,,,,,,,,,,,,,,,,,,,,,,141.0,141.0,200.0,125.0,125.0,200.0,2.1,2.12,-229,-289,0,-273,258,264,290.4734663963318,290.473507642746,290.4759864807129,290.48794531822205,290.63832211494446,290.63832211494446,290.63832211494446,290.63832211494446,290.63832211494446,290.63832211494446,290.63832211494446,291.7565178871155,2,1.2671732902526855,None,,,,,,,,,,,,,,,,,,228,3,2025-03-11_10h03.55.836,comp,2024.2.4,62.951732998335515,2025-03-11 10h04.05.117409 -0400,
121,121,0,critical,dhw,20.0,1.0,upper,141.0,141.0,200.0,125.0,125.0,200.0,2,1.1010010242462158,None,,,,,0,0,0,0,0,121,121,55,291.7717695236206,,,,,,,,,,,,,,,,,,,,,,,,,,,,,,,,,,,,,,,,,,,,,,,,,,,,,,,,,,,,,,,,,,,,,,,,,,,,,,,,,141.0,141.0,200.0,125.0,125.0,200.0,1.0,1.1,-709,255,-480,285,-222,270,291.75730991363525,291.7573504447937,291.75940442085266,291.7717695236206,291.92170429229736,291.92170429229736,291.92170429229736,291.92170429229736,291.92170429229736,291.92170429229736,291.92170429229736,292.8894009590149,2,1.1010010242462158,None,,,,,,,,,,,,,,,,,,228,3,2025-03-11_10h03.55.836,comp,2024.2.4,62.951732998335515,2025-03-11 10h04.05.117409 -0400,
122,122,0,critical,whd,35.0,4.0,upper,125.0,200.0,200.0,125.0,127.0,127.0,1,2.8504388332366943,None,,,,,0,0,0,0,0,122,122,89,292.90456914901733,,,,,,,,,,,,,,,,,,,,,,,,,,,,,,,,,,,,,,,,,,,,,,,,,,,,,,,,,,,,,,,,,,,,,,,,,,,,,,,,,125.0,200.0,200.0,125.0,127.0,127.0,4.0,4.1,-258,-267,0,5,222,-267,292.8901731967926,292.8902122974396,292.8925099372864,292.90456914901733,293.0549120903015,293.0549120903015,293.0549120903015,293.0549120903015,293.0549120903015,293.0549120903015,293.0549120903015,295.77275681495667,1,2.8504388332366943,None,,,,,,,,,,,,,,,,,,228,3,2025-03-11_10h03.55.836,comp,2024.2.4,62.951732998335515,2025-03-11 10h04.05.117409 -0400,
123,123,0,critical,wdh,35.0,2.1,lower,57.0,133.0,70.0,70.0,133.0,57.0,1,1.6368012428283691,None,,,,,0,0,0,0,0,123,123,32,295.7879889011383,,,,,,,,,,,,,,,,,,,,,,,,,,,,,,,,,,,,,,,,,,,,,,,,,,,,,,,,,,,,,,,,,,,,,,,,,,,,,,,,,57.0,133.0,70.0,70.0,133.0,57.0,2.1,2.12,-198,-251,0,-257,160,262,295.7735574245453,295.77359890937805,295.7760901451111,295.7879889011383,295.9380130767822,295.9380130767822,295.9380130767822,295.9380130767822,295.9380130767822,295.9380130767822,295.9380130767822,297.439177274704,1,1.6368012428283691,None,,,,,,,,,,,,,,,,,,228,3,2025-03-11_10h03.55.836,comp,2024.2.4,62.951732998335515,2025-03-11 10h04.05.117409 -0400,
124,124,0,critical,wdh,20.0,4.0,lower,57.0,133.0,78.0,78.0,133.0,57.0,3,1.3060481548309326,None,,,,,0,0,0,0,0,124,124,82,297.45447850227356,,,,,,,,,,,,,,,,,,,,,,,,,,,,,,,,,,,,,,,,,,,,,,,,,,,,,,,,,,,,,,,,,,,,,,,,,,,,,,,,,57.0,133.0,78.0,78.0,133.0,57.0,4.0,4.1,-202,-256,0,6,164,-261,297.4399607181549,297.44000148773193,297.4420163631439,297.45447850227356,297.60469341278076,297.60469341278076,297.60469341278076,297.60469341278076,297.60469341278076,297.60469341278076,297.60469341278076,298.77289724349976,3,1.3060481548309326,None,,,,,,,,,,,,,,,,,,228,3,2025-03-11_10h03.55.836,comp,2024.2.4,62.951732998335515,2025-03-11 10h04.05.117409 -0400,
125,125,0,filler_random,None,None,None,None,None,None,None,None,None,None,3,1.317333698272705,None,,,,,0,0,0,0,0,125,125,158,298.7880804538727,,,,,,,,,,,,,,,,,,,,,,,,,,,,,,,,,,,,,,,,,,,,,,,,,,,,,,,,,,,,,,,,,,,,,,,,,,,,,,,,,132.83425293250536,87.21286911962412,85.20379824625658,110.27053014581513,199.9812624556378,106.50308592962463,4.0,4.1,-195,-285,0,-14,204,-259,298.77382349967957,298.7738642692566,298.7771375179291,298.7880804538727,298.9380102157593,298.9380102157593,298.9380102157593,298.9380102157593,298.9380102157593,298.9380102157593,298.9380102157593,300.12258672714233,3,1.317333698272705,None,,,,,,,,,,,,,,,,,,228,3,2025-03-11_10h03.55.836,comp,2024.2.4,62.951732998335515,2025-03-11 10h04.05.117409 -0400,
126,126,0,filler_random,None,None,None,None,None,None,None,None,None,None,1,0.8170998096466064,None,,,,,0,0,0,0,0,126,126,156,300.1378927230835,,,,,,,,,,,,,,,,,,,,,,,,,,,,,,,,,,,,,,,,,,,,,,,,,,,,,,,,,,,,,,,,,,,,,,,,,,,,,,,,,198.34836815484906,175.11713143987328,171.43400296878025,149.5294950530848,80.11020647838521,63.52951491926808,1.0,1.2,-258,5,0,-6,203,-15,300.1235008239746,300.1235411167145,300.1260266304016,300.1378927230835,300.28813791275024,300.28813791275024,300.28813791275024,300.28813791275024,300.28813791275024,300.28813791275024,300.28813791275024,300.97279596328735,1,0.8170998096466064,None,,,,,,,,,,,,,,,,,,228,3,2025-03-11_10h03.55.836,comp,2024.2.4,62.951732998335515,2025-03-11 10h04.05.117409 -0400,
127,127,0,critical,wdh,35.0,4.0,lower,57.0,133.0,70.0,70.0,133.0,57.0,3,1.8214631080627441,None,,,,,0,0,0,0,0,127,127,76,300.9879193305969,,,,,,,,,,,,,,,,,,,,,,,,,,,,,,,,,,,,,,,,,,,,,,,,,,,,,,,,,,,,,,,,,,,,,,,,,,,,,,,,,57.0,133.0,70.0,70.0,133.0,57.0,4.0,4.1,-198,-274,0,16,160,-265,300.9735929965973,300.9736328125,300.97610306739807,300.9879193305969,301.13798356056213,301.13798356056213,301.13798356056213,301.13798356056213,301.13798356056213,301.13798356056213,301.13798356056213,302.822851896286,3,1.8214631080627441,None,,,,,,,,,,,,,,,,,,228,3,2025-03-11_10h03.55.836,comp,2024.2.4,62.951732998335515,2025-03-11 10h04.05.117409 -0400,
128,128,0,filler_square,None,None,None,None,None,None,None,None,None,None,2,0.8594579696655273,None,,,,,0,0,0,0,0,128,128,193,302.8379588127136,,,,,,,,,,,,,,,,,,,,,,,,,,,,,,,,,,,,,,,,,,,,,,,,,,,,,,,,,,,,,,,,,,,,,,,,,,,,,,,,,59.033678680507734,107.65432140916566,147.79311724745054,147.79311724745054,111.98869840944246,93.08150504500435,2.2,2.22,-224,255,0,-254,216,-265,302.823805809021,302.823846578598,302.8259198665619,302.8379588127136,302.98801469802856,302.98801469802856,302.98801469802856,302.98801469802856,302.98801469802856,302.98801469802856,302.98801469802856,303.70575165748596,2,0.8594579696655273,None,,,,,,,,,,,,,,,,,,228,3,2025-03-11_10h03.55.836,comp,2024.2.4,62.951732998335515,2025-03-11 10h04.05.117409 -0400,
129,129,0,critical,hdw,20.0,1.0,lower,133.0,57.0,78.0,78.0,57.0,133.0,3,1.3672122955322266,None,,,,,0,0,0,0,0,129,129,114,303.7213706970215,,,,,,,,,,,,,,,,,,,,,,,,,,,,,,,,,,,,,,,,,,,,,,,,,,,,,,,,,,,,,,,,,,,,,,,,,,,,,,,,,133.0,57.0,78.0,78.0,57.0,133.0,1.0,1.1,-644,280,-480,268,-278,278,303.7065668106079,303.7066068649292,303.7091975212097,303.7213706970215,303.87137484550476,303.87137484550476,303.87137484550476,303.87137484550476,303.87137484550476,303.87137484550476,303.87137484550476,305.1057357788086,3,1.3672122955322266,None,,,,,,,,,,,,,,,,,,228,3,2025-03-11_10h03.55.836,comp,2024.2.4,62.951732998335515,2025-03-11 10h04.05.117409 -0400,
130,130,0,critical,hwd,35.0,3.0,lower,133.0,57.0,57.0,133.0,70.0,70.0,1,1.128361463546753,None,,,,,0,0,0,0,0,130,130,98,305.12120509147644,,,,,,,,,,,,,,,,,,,,,,,,,,,,,,,,,,,,,,,,,,,,,,,,,,,,,,,,,,,,,,,,,,,,,,,,,,,,,,,,,133.0,57.0,57.0,133.0,70.0,70.0,3.0,3.1,-191,283,0,17,198,-258,305.1065242290497,305.1065640449524,305.1091032028198,305.12120509147644,305.2713677883148,305.2713677883148,305.2713677883148,305.2713677883148,305.2713677883148,305.2713677883148,305.2713677883148,306.25591492652893,1,1.128361463546753,None,,,,,,,,,,,,,,,,,,228,3,2025-03-11_10h03.55.836,comp,2024.2.4,62.951732998335515,2025-03-11 10h04.05.117409 -0400,
131,131,0,critical,dwh,20.0,2.1,lower,78.0,78.0,57.0,133.0,133.0,57.0,2,1.433800458908081,None,,,,,0,0,0,0,0,131,131,6,306.27140736579895,,,,,,,,,,,,,,,,,,,,,,,,,,,,,,,,,,,,,,,,,,,,,,,,,,,,,,,,,,,,,,,,,,,,,,,,,,,,,,,,,78.0,78.0,57.0,133.0,133.0,57.0,2.1,2.11,-202,286,0,268,191,-275,306.25670313835144,306.2567443847656,306.2587549686432,306.27140736579895,306.42139983177185,306.42139983177185,306.42139983177185,306.42139983177185,306.42139983177185,306.42139983177185,306.42139983177185,307.722448348999,2,1.433800458908081,None,,,,,,,,,,,,,,,,,,228,3,2025-03-11_10h03.55.836,comp,2024.2.4,62.951732998335515,2025-03-11 10h04.05.117409 -0400,
132,132,0,critical,dwh,20.0,3.0,upper,141.0,141.0,125.0,200.0,200.0,125.0,3,1.095613718032837,None,,,,,0,0,0,0,0,132,132,69,307.7378282546997,,,,,,,,,,,,,,,,,,,,,,,,,,,,,,,,,,,,,,,,,,,,,,,,,,,,,,,,,,,,,,,,,,,,,,,,,,,,,,,,,141.0,141.0,125.0,200.0,200.0,125.0,3.0,3.1,-266,262,0,-10,258,-278,307.7232232093811,307.72326374053955,307.7257857322693,307.7378282546997,307.88819766044617,307.88819766044617,307.88819766044617,307.88819766044617,307.88819766044617,307.88819766044617,307.88819766044617,308.8394389152527,3,1.095613718032837,None,,,,,,,,,,,,,,,,,,228,3,2025-03-11_10h03.55.836,comp,2024.2.4,62.951732998335515,2025-03-11 10h04.05.117409 -0400,
133,133,0,critical,dhw,20.0,3.0,upper,141.0,141.0,200.0,125.0,125.0,200.0,3,1.426865816116333,None,,,,,0,0,0,0,0,133,133,57,308.8546953201294,,,,,,,,,,,,,,,,,,,,,,,,,,,,,,,,,,,,,,,,,,,,,,,,,,,,,,,,,,,,,,,,,,,,,,,,,,,,,,,,,141.0,141.0,200.0,125.0,125.0,200.0,3.0,3.1,-229,261,0,-8,258,-257,308.84024953842163,308.84029173851013,308.84236121177673,308.8546953201294,309.0053391456604,309.0053391456604,309.0053391456604,309.0053391456604,309.0053391456604,309.0053391456604,309.0053391456604,310.2892005443573,3,1.426865816116333,None,,,,,,,,,,,,,,,,,,228,3,2025-03-11_10h03.55.836,comp,2024.2.4,62.951732998335515,2025-03-11 10h04.05.117409 -0400,
134,134,0,filler_random,None,None,None,None,None,None,None,None,None,None,1,1.298020839691162,None,,,,,0,0,0,0,0,134,134,137,310.3047125339508,,,,,,,,,,,,,,,,,,,,,,,,,,,,,,,,,,,,,,,,,,,,,,,,,,,,,,,,,,,,,,,,,,,,,,,,,,,,,,,,,163.61899780165857,142.73639707946046,121.93123973794856,168.54152978721908,129.32261420987578,160.31915692714415,1.0,1.1,-732,277,-480,273,-220,263,310.2900855541229,310.29012537002563,310.29217982292175,310.3047125339508,310.4547989368439,310.4547989368439,310.4547989368439,310.4547989368439,310.4547989368439,310.4547989368439,310.4547989368439,311.60614347457886,1,1.298020839691162,None,,,,,,,,,,,,,,,,,,228,3,2025-03-11_10h03.55.836,comp,2024.2.4,62.951732998335515,2025-03-11 10h04.05.117409 -0400,
135,135,0,critical,whd,20.0,4.0,lower,57.0,133.0,133.0,57.0,78.0,78.0,2,3.8123178482055664,None,,,,,0,0,0,0,0,135,135,94,311.62145137786865,,,,,,,,,,,,,,,,,,,,,,,,,,,,,,,,,,,,,,,,,,,,,,,,,,,,,,,,,,,,,,,,,,,,,,,,,,,,,,,,,57.0,133.0,133.0,57.0,78.0,78.0,4.0,4.1,-191,-268,0,19,164,-250,311.607045173645,311.6070864200592,311.6092846393585,311.62145137786865,311.7712736129761,311.7712736129761,311.7712736129761,311.7712736129761,311.7712736129761,311.7712736129761,311.7712736129761,315.43900632858276,2,3.8123178482055664,None,,,,,,,,,,,,,,,,,,228,3,2025-03-11_10h03.55.836,comp,2024.2.4,62.951732998335515,2025-03-11 10h04.05.117409 -0400,
136,136,0,filler_random,None,None,None,None,None,None,None,None,None,None,2,1.0176806449890137,None,,,,,0,0,0,0,0,136,136,138,315.45490169525146,,,,,,,,,,,,,,,,,,,,,,,,,,,,,,,,,,,,,,,,,,,,,,,,,,,,,,,,,,,,,,,,,,,,,,,,,,,,,,,,,102.18407904987433,116.70416466348834,137.85283535847245,184.32571872320136,83.9164757840164,118.02714557118745,1.0,1.2,-247,-4,0,13,247,-17,315.4398739337921,315.4399137496948,315.4419708251953,315.45490169525146,315.60465121269226,315.60465121269226,315.60465121269226,315.60465121269226,315.60465121269226,315.60465121269226,315.60465121269226,316.48910307884216,2,1.0176806449890137,None,,,,,,,,,,,,,,,,,,228,3,2025-03-11_10h03.55.836,comp,2024.2.4,62.951732998335515,2025-03-11 10h04.05.117409 -0400,
137,137,0,critical,hdw,20.0,4.0,lower,133.0,57.0,78.0,78.0,57.0,133.0,1,1.976970911026001,None,,,,,0,0,0,0,0,137,137,118,316.5044631958008,,,,,,,,,,,,,,,,,,,,,,,,,,,,,,,,,,,,,,,,,,,,,,,,,,,,,,,,,,,,,,,,,,,,,,,,,,,,,,,,,133.0,57.0,78.0,78.0,57.0,133.0,4.0,4.1,-164,-261,0,18,202,-264,316.4899024963379,316.4899537563324,316.49229407310486,316.5044631958008,316.65447902679443,316.65447902679443,316.65447902679443,316.65447902679443,316.65447902679443,316.65447902679443,316.65447902679443,318.4890229701996,1,1.976970911026001,None,,,,,,,,,,,,,,,,,,228,3,2025-03-11_10h03.55.836,comp,2024.2.4,62.951732998335515,2025-03-11 10h04.05.117409 -0400,
138,138,0,filler_square,None,None,None,None,None,None,None,None,None,None,2,0.9519290924072266,None,,,,,0,0,0,0,0,138,138,200,318.50473642349243,,,,,,,,,,,,,,,,,,,,,,,,,,,,,,,,,,,,,,,,,,,,,,,,,,,,,,,,,,,,,,,,,,,,,,,,,,,,,,,,,110.39277069310987,146.5039471076347,182.81906668267686,182.81906668267686,117.52092600912448,138.40717280833985,2.1,2.12,-261,-289,0,-271,257,285,318.48996686935425,318.4900085926056,318.4920666217804,318.50473642349243,318.6547169685364,318.6547169685364,318.6547169685364,318.6547169685364,318.6547169685364,318.6547169685364,318.6547169685364,319.4726793766022,2,0.9519290924072266,None,,,,,,,,,,,,,,,,,,228,3,2025-03-11_10h03.55.836,comp,2024.2.4,62.951732998335515,2025-03-11 10h04.05.117409 -0400,
139,139,0,critical,wdh,20.0,2.1,lower,57.0,133.0,78.0,78.0,133.0,57.0,3,1.5047106742858887,None,,,,,0,0,0,0,0,139,139,34,319.4878394603729,,,,,,,,,,,,,,,,,,,,,,,,,,,,,,,,,,,,,,,,,,,,,,,,,,,,,,,,,,,,,,,,,,,,,,,,,,,,,,,,,57.0,133.0,78.0,78.0,133.0,57.0,2.1,2.11,-202,253,0,267,164,-281,319.4734764099121,319.47351717948914,319.4760980606079,319.4878394603729,319.63793420791626,319.63793420791626,319.63793420791626,319.63793420791626,319.63793420791626,319.63793420791626,319.63793420791626,321.00554871559143,3,1.5047106742858887,None,,,,,,,,,,,,,,,,,,228,3,2025-03-11_10h03.55.836,comp,2024.2.4,62.951732998335515,2025-03-11 10h04.05.117409 -0400,
