thisN,thisTrialN,thisRepN,effect,order,distance,config,diag,h_1,w_1,h_2,w_2,h_3,w_3,rect_choice.keys,rect_choice.rt,rect_choice.duration,instructions_loop.thisRepN,instructions_loop.thisTrialN,instructions_loop.thisN,instructions_loop.thisIndex,blocks.thisRepN,blocks.thisTrialN,blocks.thisN,blocks.thisIndex,trials.thisRepN,trials.thisTrialN,trials.thisN,trials.thisIndex,thisRow.t,notes,consent.started,agree_button.started,decline_button.started,consent_img.started,mouse.started,consent.stopped,agree_button.numClicks,agree_button.timesOn,agree_button.timesOff,decline_button.numClicks,decline_button.timesOn,decline_button.timesOff,mouse.x,mouse.y,mouse.leftButton,mouse.midButton,mouse.rightButton,mouse.time,mouse.clicked_name,exp_params.started,exp_params.stopped,welcome.started,welcome_text.started,welcome.stopped,instructions_1.started,instructions_1_text_1.started,instructions_1_text_2.started,key_resp.started,instructions_1.stopped,instructions_loop.key_resp.keys,instructions_loop.key_resp.rt,instructions_loop.key_resp.duration,instructions_2.started,instructions_2_text_1.started,instructions_2_text_2.started,key_resp_2.started,instructions_2.stopped,instructions_loop.key_resp_2.keys,instructions_loop.key_resp_2.rt,instructions_loop.key_resp_2.duration,instructions_3.started,instructions_3_text_1.started,r1_instr3.started,r2_instr3.started,r3_instr3.started,r1_instr3_label.started,r2_instr3_label.started,r3_instr3_label.started,instructions_3_text_3.started,instructions_3_text_4.started,key_resp_3.started,instructions_3.stopped,instructions_loop.key_resp_3.keys,instructions_loop.key_resp_3.rt,instructions_loop.key_resp_3.duration,instructions_4.started,instructions_4_text_1.started,instructions_4_text_3.started,instructions_4_text_2.started,key_resp_4.started,instructions_4.stopped,instructions_loop.key_resp_4.keys,instructions_loop.key_resp_4.rt,instructions_loop.key_resp_4.duration,instructions_5.started,instructions_5_text_1.started,instructions_5_text_2.started,key_resp_5.started,instructions_5.stopped,instructions_loop.key_resp_5.keys,instructions_loop.key_resp_5.rt,instructions_loop.key_resp_5.duration,start_exp.started,start_exp_text.started,key_resp_6.started,start_exp.stopped,key_resp_6.keys,key_resp_6.rt,key_resp_6.duration,h_1_tmp,w_1_tmp,h_2_tmp,w_2_tmp,h_3_tmp,w_3_tmp,config_tmp,config_tmp_1,r_1_x,r_1_y,r_2_x,r_2_y,r_3_x,r_3_y,pre_trial.started,pre_trial.stopped,choice_trial.started,rect_choice.started,r_1.started,r_2.started,r_3.started,r_1_label.started,r_2_label.started,r_3_label.started,prompt.started,choice_trial.stopped,trials.rect_choice.keys,trials.rect_choice.rt,trials.rect_choice.duration,end_block.started,end_block_text.started,end_block.stopped,end.started,end_text.started,key_resp_7.started,end.stopped,key_resp_7.keys,key_resp_7.rt,key_resp_7.duration,debriefing.started,debrief_form.started,end_debrief.started,debriefing.stopped,end_debrief.keys,end_debrief.rt,end_debrief.duration,participant,computer,date,expName,psychopyVersion,frameRate,expStart,
,,,,,,,,,,,,,,,,,,,,,,,,,,,,,,,0.015605926513671875,0.03897690773010254,0.03897690773010254,0.03897690773010254,0.015393257141113281,48.47554135322571,1,[48.43422603607178],[48.43424844741821],0,,,[-99.0],[-493.0],[1],[0],[0],[48.459532022476196],['agree_button'],,,,,,,,,,,,,,,,,,,,,,,,,,,,,,,,,,,,,,,,,,,,,,,,,,,,,,,,,,,,,,,,,,,,,,,,,,,,,,,,,,,,,,,,,,,,,,,,,,,,,,,,,,,229,1,2025-03-11_12h01.36.307,comp,2024.2.4,None,2025-03-11 12h02.28.830927 -0400,
,,,,,,,,,,,,,,,,,,,,,,,,,,,,,,,,,,,,,,,,,,,,,,,,,,48.476067304611206,48.476133584976196,,,,,,,,,,,,,,,,,,,,,,,,,,,,,,,,,,,,,,,,,,,,,,,,,,,,,,,,,,,,,,,,,,,,,,,,,,,,,,,,,,,,,,,,,,,,,,,,,,,,,,,,,229,1,2025-03-11_12h01.36.307,comp,2024.2.4,None,2025-03-11 12h02.28.830927 -0400,
,,,,,,,,,,,,,,,,,,,,,,,,,,,,,,,,,,,,,,,,,,,,,,,,,,,,48.4761757850647,48.49157476425171,50.48031234741211,,,,,,,,,,,,,,,,,,,,,,,,,,,,,,,,,,,,,,,,,,,,,,,,,,,,,,,,,,,,,,,,,,,,,,,,,,,,,,,,,,,,,,,,,,,,,,,,,,,,,,229,1,2025-03-11_12h01.36.307,comp,2024.2.4,None,2025-03-11 12h02.28.830927 -0400,
0,0,0,,,,,,,,,,,,,,,0,0,0,0,,,,,,,,,50.49893403053284,,,,,,,,,,,,,,,,,,,,,,,,,,50.481210470199585,50.49893403053284,50.49893403053284,51.98210668563843,53.96791195869446,space,1.9720103740692139,None,53.968061685562134,53.98322057723999,53.98322057723999,55.466054916381836,57.703869581222534,space,2.224550247192383,None,57.704020500183105,57.73908567428589,57.73908567428589,57.73908567428589,57.73908567428589,57.73908567428589,57.73908567428589,57.73908567428589,57.73908567428589,57.73908567428589,59.21628427505493,66.6079912185669,space,7.37781286239624,None,66.60814905166626,66.6250913143158,66.6250913143158,66.6250913143158,68.12134075164795,70.17200422286987,space,2.0413849353790283,None,70.17216181755066,70.1880235671997,70.1880235671997,71.68646550178528,72.1889820098877,space,0.49961161613464355,None,72.18920493125916,72.20433783531189,72.20433783531189,73.15611624717712,space,0.9341895580291748,None,,,,,,,,,,,,,,,,,,,,,,,,,,,,,,,,,,,,,,,,,,,,,,,229,1,2025-03-11_12h01.36.307,comp,2024.2.4,None,2025-03-11 12h02.28.830927 -0400,
0,0,0,critical,hwd,35.0,3.0,upper,200.0,125.0,125.0,200.0,127.0,127.0,2,8.546464443206787,None,,,,,0,0,0,0,0,0,0,99,73.23181962966919,,,,,,,,,,,,,,,,,,,,,,,,,,,,,,,,,,,,,,,,,,,,,,,,,,,,,,,,,,,,,,,,,,,,,,,,,,,,,,,,,200.0,125.0,125.0,200.0,127.0,127.0,3.0,3.2,-258,-263,0,-11,260,255,73.21577167510986,73.21580648422241,73.2170057296753,73.23181962966919,73.38087201118469,73.38087201118469,73.38087201118469,73.38087201118469,73.38087201118469,73.38087201118469,73.38087201118469,81.79117059707642,2,8.546464443206787,None,,,,,,,,,,,,,,,,,,229,1,2025-03-11_12h01.36.307,comp,2024.2.4,None,2025-03-11 12h02.28.830927 -0400,
1,1,0,critical,hdw,35.0,2.1,lower,133.0,57.0,70.0,70.0,57.0,133.0,3,4.147166967391968,None,,,,,0,0,0,0,0,1,1,20,81.8069977760315,,,,,,,,,,,,,,,,,,,,,,,,,,,,,,,,,,,,,,,,,,,,,,,,,,,,,,,,,,,,,,,,,,,,,,,,,,,,,,,,,133.0,57.0,70.0,70.0,57.0,133.0,2.1,2.11,-160,258,0,257,198,-289,81.7927885055542,81.79286193847656,81.79609513282776,81.8069977760315,81.9486985206604,81.9486985206604,81.9486985206604,81.9486985206604,81.9486985206604,81.9486985206604,81.9486985206604,85.96790885925293,3,4.147166967391968,None,,,,,,,,,,,,,,,,,,229,1,2025-03-11_12h01.36.307,comp,2024.2.4,None,2025-03-11 12h02.28.830927 -0400,
2,2,0,critical,hdw,20.0,2.1,upper,200.0,125.0,141.0,141.0,125.0,200.0,3,6.704430818557739,None,,,,,0,0,0,0,0,2,2,47,85.98656105995178,,,,,,,,,,,,,,,,,,,,,,,,,,,,,,,,,,,,,,,,,,,,,,,,,,,,,,,,,,,,,,,,,,,,,,,,,,,,,,,,,200.0,125.0,141.0,141.0,125.0,200.0,2.1,2.12,-229,-283,0,-277,266,256,85.96944379806519,85.96952509880066,85.97242331504822,85.98656105995178,86.12256813049316,86.12256813049316,86.12256813049316,86.12256813049316,86.12256813049316,86.12256813049316,86.12256813049316,92.69723725318909,3,6.704430818557739,None,,,,,,,,,,,,,,,,,,229,1,2025-03-11_12h01.36.307,comp,2024.2.4,None,2025-03-11 12h02.28.830927 -0400,
3,3,0,critical,hwd,20.0,4.0,lower,133.0,57.0,57.0,133.0,78.0,78.0,2,3.9192376136779785,None,,,,,0,0,0,0,0,3,3,106,92.71502161026001,,,,,,,,,,,,,,,,,,,,,,,,,,,,,,,,,,,,,,,,,,,,,,,,,,,,,,,,,,,,,,,,,,,,,,,,,,,,,,,,,133.0,57.0,57.0,133.0,78.0,78.0,4.0,4.1,-191,-265,0,-9,202,-256,92.69888520240784,92.69900941848755,92.70197343826294,92.71502161026001,92.86390161514282,92.86390161514282,92.86390161514282,92.86390161514282,92.86390161514282,92.86390161514282,92.86390161514282,96.63871622085571,2,3.9192376136779785,None,,,,,,,,,,,,,,,,,,229,1,2025-03-11_12h01.36.307,comp,2024.2.4,None,2025-03-11 12h02.28.830927 -0400,
4,4,0,filler_square,None,None,None,None,None,None,None,None,None,None,1,1.606168270111084,None,,,,,0,0,0,0,0,4,4,187,96.65984153747559,,,,,,,,,,,,,,,,,,,,,,,,,,,,,,,,,,,,,,,,,,,,,,,,,,,,,,,,,,,,,,,,,,,,,,,,,,,,,,,,,193.75832610890095,193.75832610890095,60.29308191293779,139.85040988911476,114.59523495346119,169.715086719113,3.0,3.1,-263,274,0,-19,251,-270,96.64072132110596,96.64081168174744,96.6439917087555,96.65984153747559,96.79844999313354,96.79844999313354,96.79844999313354,96.79844999313354,96.79844999313354,96.79844999313354,96.79844999313354,98.27579259872437,1,1.606168270111084,None,,,,,,,,,,,,,,,,,,229,1,2025-03-11_12h01.36.307,comp,2024.2.4,None,2025-03-11 12h02.28.830927 -0400,
5,5,0,filler_square,None,None,None,None,None,None,None,None,None,None,1,6.638413190841675,None,,,,,0,0,0,0,0,5,5,203,98.29216122627258,,,,,,,,,,,,,,,,,,,,,,,,,,,,,,,,,,,,,,,,,,,,,,,,,,,,,,,,,,,,,,,,,,,,,,,,,,,,,,,,,77.23183440144535,77.23183440144535,63.83621495729212,70.91766822979716,68.5334892421015,69.64571684515796,4.0,4.2,-170,-3,0,-263,166,15,98.2775502204895,98.27762699127197,98.2804262638092,98.29216122627258,98.43636322021484,98.43636322021484,98.43636322021484,98.43636322021484,98.43636322021484,98.43636322021484,98.43636322021484,104.94898796081543,1,6.638413190841675,None,,,,,,,,,,,,,,,,,,229,1,2025-03-11_12h01.36.307,comp,2024.2.4,None,2025-03-11 12h02.28.830927 -0400,
6,6,0,critical,whd,35.0,2.1,lower,57.0,133.0,133.0,57.0,70.0,70.0,3,16.907613039016724,None,,,,,0,0,0,0,0,6,6,36,104.96660780906677,,,,,,,,,,,,,,,,,,,,,,,,,,,,,,,,,,,,,,,,,,,,,,,,,,,,,,,,,,,,,,,,,,,,,,,,,,,,,,,,,57.0,133.0,133.0,57.0,70.0,70.0,2.1,2.12,-191,-283,0,-287,160,287,104.95054006576538,104.95061612129211,104.95376491546631,104.96660780906677,105.11673831939697,105.11673831939697,105.11673831939697,105.11673831939697,105.11673831939697,105.11673831939697,105.11673831939697,121.88786149024963,3,16.907613039016724,None,,,,,,,,,,,,,,,,,,229,1,2025-03-11_12h01.36.307,comp,2024.2.4,None,2025-03-11 12h02.28.830927 -0400,
7,7,0,critical,hwd,20.0,4.0,upper,200.0,125.0,125.0,200.0,141.0,141.0,3,4.042889833450317,None,,,,,0,0,0,0,0,7,7,107,121.9039421081543,,,,,,,,,,,,,,,,,,,,,,,,,,,,,,,,,,,,,,,,,,,,,,,,,,,,,,,,,,,,,,,,,,,,,,,,,,,,,,,,,200.0,125.0,125.0,200.0,141.0,141.0,4.0,4.1,-258,-265,0,0,266,-274,121.88928532600403,121.88935923576355,121.89246940612793,121.9039421081543,122.05468678474426,122.05468678474426,122.05468678474426,122.05468678474426,122.05468678474426,122.05468678474426,122.05468678474426,125.95547103881836,3,4.042889833450317,None,,,,,,,,,,,,,,,,,,229,1,2025-03-11_12h01.36.307,comp,2024.2.4,None,2025-03-11 12h02.28.830927 -0400,
8,8,0,critical,dwh,20.0,4.0,upper,141.0,141.0,125.0,200.0,200.0,125.0,3,5.004713773727417,None,,,,,0,0,0,0,0,8,8,71,125.9734754562378,,,,,,,,,,,,,,,,,,,,,,,,,,,,,,,,,,,,,,,,,,,,,,,,,,,,,,,,,,,,,,,,,,,,,,,,,,,,,,,,,141.0,141.0,125.0,200.0,200.0,125.0,4.0,4.1,-266,-269,0,16,258,-260,125.9568817615509,125.95695614814758,125.96003556251526,125.9734754562378,126.124094247818,126.124094247818,126.124094247818,126.124094247818,126.124094247818,126.124094247818,126.124094247818,130.98325538635254,3,5.004713773727417,None,,,,,,,,,,,,,,,,,,229,1,2025-03-11_12h01.36.307,comp,2024.2.4,None,2025-03-11 12h02.28.830927 -0400,
9,9,0,critical,dwh,20.0,2.1,upper,141.0,141.0,125.0,200.0,200.0,125.0,2,5.096640110015869,None,,,,,0,0,0,0,0,9,9,31,131.00153136253357,,,,,,,,,,,,,,,,,,,,,,,,,,,,,,,,,,,,,,,,,,,,,,,,,,,,,,,,,,,,,,,,,,,,,,,,,,,,,,,,,141.0,141.0,125.0,200.0,200.0,125.0,2.1,2.11,-266,260,0,287,258,-267,130.98488807678223,130.98498916625977,130.98826336860657,131.00153136253357,131.14823985099792,131.14823985099792,131.14823985099792,131.14823985099792,131.14823985099792,131.14823985099792,131.14823985099792,136.10306119918823,2,5.096640110015869,None,,,,,,,,,,,,,,,,,,229,1,2025-03-11_12h01.36.307,comp,2024.2.4,None,2025-03-11 12h02.28.830927 -0400,
10,10,0,filler_random,None,None,None,None,None,None,None,None,None,None,3,2.44730281829834,None,,,,,0,0,0,0,0,10,10,163,136.12346601486206,,,,,,,,,,,,,,,,,,,,,,,,,,,,,,,,,,,,,,,,,,,,,,,,,,,,,,,,,,,,,,,,,,,,,,,,,,,,,,,,,146.69626350101328,130.98990445343753,151.01457313051785,106.20836904477592,128.24649070758545,181.74261411473077,3.0,3.2,-215,-265,0,10,240,284,136.1047863960266,136.10486435890198,136.10766696929932,136.12346601486206,136.25908064842224,136.25908064842224,136.25908064842224,136.25908064842224,136.25908064842224,136.25908064842224,136.25908064842224,138.57578134536743,3,2.44730281829834,None,,,,,,,,,,,,,,,,,,229,1,2025-03-11_12h01.36.307,comp,2024.2.4,None,2025-03-11 12h02.28.830927 -0400,
11,11,0,filler_square,None,None,None,None,None,None,None,None,None,None,2,4.009161949157715,None,,,,,0,0,0,0,0,11,11,191,138.59390544891357,,,,,,,,,,,,,,,,,,,,,,,,,,,,,,,,,,,,,,,,,,,,,,,,,,,,,,,,,,,,,,,,,,,,,,,,,,,,,,,,,63.060156313999016,63.060156313999016,60.345872487538685,62.09387937060856,59.123329270691016,60.45015350369837,4.0,4.1,-159,-256,0,-2,157,-262,138.577481508255,138.57755637168884,138.58068680763245,138.59390544891357,138.74482893943787,138.74482893943787,138.74482893943787,138.74482893943787,138.74482893943787,138.74482893943787,138.74482893943787,142.61235570907593,2,4.009161949157715,None,,,,,,,,,,,,,,,,,,229,1,2025-03-11_12h01.36.307,comp,2024.2.4,None,2025-03-11 12h02.28.830927 -0400,
12,12,0,filler_random,None,None,None,None,None,None,None,None,None,None,1,3.235213041305542,None,,,,,0,0,0,0,0,12,12,166,142.63102865219116,,,,,,,,,,,,,,,,,,,,,,,,,,,,,,,,,,,,,,,,,,,,,,,,,,,,,,,,,,,,,,,,,,,,,,,,,,,,,,,,,83.11945087570808,130.8605073622408,156.0199098979818,82.15421938354686,149.51201174210144,67.55981078238351,4.0,4.2,-203,6,0,-290,171,-16,142.6140124797821,142.61409068107605,142.61786675453186,142.63102865219116,142.77816319465637,142.77816319465637,142.77816319465637,142.77816319465637,142.77816319465637,142.77816319465637,142.77816319465637,145.88080501556396,1,3.235213041305542,None,,,,,,,,,,,,,,,,,,229,1,2025-03-11_12h01.36.307,comp,2024.2.4,None,2025-03-11 12h02.28.830927 -0400,
13,13,0,catch,None,None,None,None,None,None,None,None,None,None,1,1.641505479812622,None,,,,,0,0,0,0,0,13,13,126,145.8970754146576,,,,,,,,,,,,,,,,,,,,,,,,,,,,,,,,,,,,,,,,,,,,,,,,,,,,,,,,,,,,,,,,,,,,,,,,,,,,,,,,,200,125,122,68,78,112,2.1,2.11,-192,255,0,287,186,-263,145.88294506072998,145.8830246925354,145.88644695281982,145.8970754146576,146.0468146800995,146.0468146800995,146.0468146800995,146.0468146800995,146.0468146800995,146.0468146800995,146.0468146800995,147.55561065673828,1,1.641505479812622,None,,,,,,,,,,,,,,,,,,229,1,2025-03-11_12h01.36.307,comp,2024.2.4,None,2025-03-11 12h02.28.830927 -0400,
14,14,0,critical,whd,35.0,2.1,lower,57.0,133.0,133.0,57.0,70.0,70.0,1,3.958646297454834,None,,,,,0,0,0,0,0,14,14,12,147.57207250595093,,,,,,,,,,,,,,,,,,,,,,,,,,,,,,,,,,,,,,,,,,,,,,,,,,,,,,,,,,,,,,,,,,,,,,,,,,,,,,,,,57.0,133.0,133.0,57.0,70.0,70.0,2.1,2.11,-191,287,0,251,160,-250,147.55721426010132,147.55729031562805,147.5606198310852,147.57207250595093,147.71261477470398,147.71261477470398,147.71261477470398,147.71261477470398,147.71261477470398,147.71261477470398,147.71261477470398,151.547709941864,1,3.958646297454834,None,,,,,,,,,,,,,,,,,,229,1,2025-03-11_12h01.36.307,comp,2024.2.4,None,2025-03-11 12h02.28.830927 -0400,
15,15,0,critical,hdw,20.0,2.1,lower,133.0,57.0,78.0,78.0,57.0,133.0,3,1.8470118045806885,None,,,,,0,0,0,0,0,15,15,22,151.56351518630981,,,,,,,,,,,,,,,,,,,,,,,,,,,,,,,,,,,,,,,,,,,,,,,,,,,,,,,,,,,,,,,,,,,,,,,,,,,,,,,,,133.0,57.0,78.0,78.0,57.0,133.0,2.1,2.11,-164,285,0,265,202,-250,151.54934644699097,151.54946970939636,151.55304551124573,151.56351518630981,151.71471452713013,151.71471452713013,151.71471452713013,151.71471452713013,151.71471452713013,151.71471452713013,151.71471452713013,153.41810536384583,3,1.8470118045806885,None,,,,,,,,,,,,,,,,,,229,1,2025-03-11_12h01.36.307,comp,2024.2.4,None,2025-03-11 12h02.28.830927 -0400,
16,16,0,filler_square,None,None,None,None,None,None,None,None,None,None,1,2.1409764289855957,None,,,,,0,0,0,0,0,16,16,193,153.4376151561737,,,,,,,,,,,,,,,,,,,,,,,,,,,,,,,,,,,,,,,,,,,,,,,,,,,,,,,,,,,,,,,,,,,,,,,,,,,,,,,,,83.61931443902184,83.61931443902184,63.61641446155144,77.35982087521184,58.83275719791999,69.64358101611705,2.2,2.22,-176,276,0,-263,170,-274,153.42003631591797,153.42014694213867,153.4231116771698,153.4376151561737,153.5817654132843,153.5817654132843,153.5817654132843,153.5817654132843,153.5817654132843,153.5817654132843,153.5817654132843,155.58382368087769,1,2.1409764289855957,None,,,,,,,,,,,,,,,,,,229,1,2025-03-11_12h01.36.307,comp,2024.2.4,None,2025-03-11 12h02.28.830927 -0400,
17,17,0,filler_square,None,None,None,None,None,None,None,None,None,None,2,1.5866620540618896,None,,,,,0,0,0,0,0,17,17,202,155.5998876094818,,,,,,,,,,,,,,,,,,,,,,,,,,,,,,,,,,,,,,,,,,,,,,,,,,,,,,,,,,,,,,,,,,,,,,,,,,,,,,,,,117.1197608332534,88.61839679535608,126.3427225130368,126.3427225130368,118.25101661917151,69.83072966683551,3.0,3.1,-203,272,0,-1,194,-263,155.58583855628967,155.58591771125793,155.58909845352173,155.5998876094818,155.7465944290161,155.7465944290161,155.7465944290161,155.7465944290161,155.7465944290161,155.7465944290161,155.7465944290161,157.20473384857178,2,1.5866620540618896,None,,,,,,,,,,,,,,,,,,229,1,2025-03-11_12h01.36.307,comp,2024.2.4,None,2025-03-11 12h02.28.830927 -0400,
18,18,0,critical,wdh,35.0,2.1,lower,57.0,133.0,70.0,70.0,133.0,57.0,1,3.514646530151367,None,,,,,0,0,0,0,0,18,18,8,157.2235143184662,,,,,,,,,,,,,,,,,,,,,,,,,,,,,,,,,,,,,,,,,,,,,,,,,,,,,,,,,,,,,,,,,,,,,,,,,,,,,,,,,57.0,133.0,70.0,70.0,133.0,57.0,2.1,2.12,-198,-261,0,-255,160,279,157.2062451839447,157.2063226699829,157.2097043991089,157.2235143184662,157.36627292633057,157.36627292633057,157.36627292633057,157.36627292633057,157.36627292633057,157.36627292633057,157.36627292633057,160.75129580497742,1,3.514646530151367,None,,,,,,,,,,,,,,,,,,229,1,2025-03-11_12h01.36.307,comp,2024.2.4,None,2025-03-11 12h02.28.830927 -0400,
19,19,0,critical,hdw,35.0,3.0,lower,133.0,57.0,70.0,70.0,57.0,133.0,3,6.360645532608032,None,,,,,0,0,0,0,0,19,19,110,160.77016353607178,,,,,,,,,,,,,,,,,,,,,,,,,,,,,,,,,,,,,,,,,,,,,,,,,,,,,,,,,,,,,,,,,,,,,,,,,,,,,,,,,133.0,57.0,70.0,70.0,57.0,133.0,3.0,3.1,-160,282,0,-19,198,-263,160.75293684005737,160.75301265716553,160.75698971748352,160.77016353607178,160.91800498962402,160.91800498962402,160.91800498962402,160.91800498962402,160.91800498962402,160.91800498962402,160.91800498962402,167.13680696487427,3,6.360645532608032,None,,,,,,,,,,,,,,,,,,229,1,2025-03-11_12h01.36.307,comp,2024.2.4,None,2025-03-11 12h02.28.830927 -0400,
20,20,0,critical,wdh,20.0,2.1,lower,57.0,133.0,78.0,78.0,133.0,57.0,2,1.975254774093628,None,,,,,0,0,0,0,0,20,20,34,167.1548707485199,,,,,,,,,,,,,,,,,,,,,,,,,,,,,,,,,,,,,,,,,,,,,,,,,,,,,,,,,,,,,,,,,,,,,,,,,,,,,,,,,57.0,133.0,78.0,78.0,133.0,57.0,2.1,2.11,-202,284,0,289,164,-289,167.13837838172913,167.1384928226471,167.1423532962799,167.1548707485199,167.30274510383606,167.30274510383606,167.30274510383606,167.30274510383606,167.30274510383606,167.30274510383606,167.30274510383606,169.14269638061523,2,1.975254774093628,None,,,,,,,,,,,,,,,,,,229,1,2025-03-11_12h01.36.307,comp,2024.2.4,None,2025-03-11 12h02.28.830927 -0400,
21,21,0,filler_square,None,None,None,None,None,None,None,None,None,None,1,1.4348337650299072,None,,,,,0,0,0,0,0,21,21,183,169.1592719554901,,,,,,,,,,,,,,,,,,,,,,,,,,,,,,,,,,,,,,,,,,,,,,,,,,,,,,,,,,,,,,,,,,,,,,,,,,,,,,,,,117.99827264000707,117.99827264000707,103.24031384413077,81.4339525508888,91.85196463584533,99.26465596651673,4.0,4.2,-196,-20,0,-275,186,-15,169.14461636543274,169.14473867416382,169.1479206085205,169.1592719554901,169.30112314224243,169.30112314224243,169.30112314224243,169.30112314224243,169.30112314224243,169.30112314224243,169.30112314224243,170.6050169467926,1,1.4348337650299072,None,,,,,,,,,,,,,,,,,,229,1,2025-03-11_12h01.36.307,comp,2024.2.4,None,2025-03-11 12h02.28.830927 -0400,
22,22,0,critical,dhw,20.0,4.0,upper,141.0,141.0,200.0,125.0,125.0,200.0,1,2.8132026195526123,None,,,,,0,0,0,0,0,22,22,59,170.6213448047638,,,,,,,,,,,,,,,,,,,,,,,,,,,,,,,,,,,,,,,,,,,,,,,,,,,,,,,,,,,,,,,,,,,,,,,,,,,,,,,,,141.0,141.0,200.0,125.0,125.0,200.0,4.0,4.2,-229,-18,0,-269,258,-9,170.60674214363098,170.6068365573883,170.60980415344238,170.6213448047638,170.77047777175903,170.77047777175903,170.77047777175903,170.77047777175903,170.77047777175903,170.77047777175903,170.77047777175903,173.43680453300476,1,2.8132026195526123,None,,,,,,,,,,,,,,,,,,229,1,2025-03-11_12h01.36.307,comp,2024.2.4,None,2025-03-11 12h02.28.830927 -0400,
23,23,0,critical,dhw,20.0,2.1,upper,141.0,141.0,200.0,125.0,125.0,200.0,2,1.5919215679168701,None,,,,,0,0,0,0,0,23,23,3,173.45348167419434,,,,,,,,,,,,,,,,,,,,,,,,,,,,,,,,,,,,,,,,,,,,,,,,,,,,,,,,,,,,,,,,,,,,,,,,,,,,,,,,,141.0,141.0,200.0,125.0,125.0,200.0,2.1,2.11,-229,267,0,282,258,-255,173.43838119506836,173.43854522705078,173.44169306755066,173.45348167419434,173.60611867904663,173.60611867904663,173.60611867904663,173.60611867904663,173.60611867904663,173.60611867904663,173.60611867904663,175.0619580745697,2,1.5919215679168701,None,,,,,,,,,,,,,,,,,,229,1,2025-03-11_12h01.36.307,comp,2024.2.4,None,2025-03-11 12h02.28.830927 -0400,
24,24,0,filler_square,None,None,None,None,None,None,None,None,None,None,3,1.6080687046051025,None,,,,,0,0,0,0,0,24,24,207,175.0820071697235,,,,,,,,,,,,,,,,,,,,,,,,,,,,,,,,,,,,,,,,,,,,,,,,,,,,,,,,,,,,,,,,,,,,,,,,,,,,,,,,,57.24814168478393,95.21079539103184,91.34426982718776,60.395754390693135,170.7965404542062,170.7965404542062,3.0,3.2,-174,-286,0,-10,212,287,175.0644314289093,175.06451678276062,175.06795501708984,175.0820071697235,175.2211139202118,175.2211139202118,175.2211139202118,175.2211139202118,175.2211139202118,175.2211139202118,175.2211139202118,176.71052932739258,3,1.6080687046051025,None,,,,,,,,,,,,,,,,,,229,1,2025-03-11_12h01.36.307,comp,2024.2.4,None,2025-03-11 12h02.28.830927 -0400,
25,25,0,critical,dwh,20.0,1.0,lower,78.0,78.0,57.0,133.0,133.0,57.0,1,6.090015411376953,None,,,,,0,0,0,0,0,25,25,66,176.72820854187012,,,,,,,,,,,,,,,,,,,,,,,,,,,,,,,,,,,,,,,,,,,,,,,,,,,,,,,,,,,,,,,,,,,,,,,,,,,,,,,,,78.0,78.0,57.0,133.0,133.0,57.0,1.0,1.2,-202,1,0,-5,191,9,176.71208310127258,176.71215867996216,176.71543431282043,176.72820854187012,176.8720042705536,176.8720042705536,176.8720042705536,176.8720042705536,176.8720042705536,176.8720042705536,176.8720042705536,182.8295497894287,1,6.090015411376953,None,,,,,,,,,,,,,,,,,,229,1,2025-03-11_12h01.36.307,comp,2024.2.4,None,2025-03-11 12h02.28.830927 -0400,
26,26,0,filler_random,None,None,None,None,None,None,None,None,None,None,1,3.2447545528411865,None,,,,,0,0,0,0,0,26,26,147,182.84567975997925,,,,,,,,,,,,,,,,,,,,,,,,,,,,,,,,,,,,,,,,,,,,,,,,,,,,,,,,,,,,,,,,,,,,,,,,,,,,,,,,,133.59433922758086,163.8994421876558,175.74124874596635,75.88814597517154,183.6994325115362,126.4751724939667,2.2,2.21,-216,-252,0,251,197,257,182.83123135566711,182.83130860328674,182.83409786224365,182.84567975997925,182.98737955093384,182.98737955093384,182.98737955093384,182.98737955093384,182.98737955093384,182.98737955093384,182.98737955093384,186.09631514549255,1,3.2447545528411865,None,,,,,,,,,,,,,,,,,,229,1,2025-03-11_12h01.36.307,comp,2024.2.4,None,2025-03-11 12h02.28.830927 -0400,
27,27,0,filler_random,None,None,None,None,None,None,None,None,None,None,2,1.840433120727539,None,,,,,0,0,0,0,0,27,27,146,186.11399102210999,,,,,,,,,,,,,,,,,,,,,,,,,,,,,,,,,,,,,,,,,,,,,,,,,,,,,,,,,,,,,,,,,,,,,,,,,,,,,,,,,89.34706627745032,131.43101110658912,188.8984070719743,173.0833408540604,127.91307979266435,195.6117371563935,1.0,1.3,232,-255,480,-257,760,-275,186.09797430038452,186.09804940223694,186.10087323188782,186.11399102210999,186.25915813446045,186.25915813446045,186.25915813446045,186.25915813446045,186.25915813446045,186.25915813446045,186.25915813446045,187.95890426635742,2,1.840433120727539,None,,,,,,,,,,,,,,,,,,229,1,2025-03-11_12h01.36.307,comp,2024.2.4,None,2025-03-11 12h02.28.830927 -0400,
28,28,0,filler_random,None,None,None,None,None,None,None,None,None,None,1,1.7213680744171143,None,,,,,0,0,0,0,0,28,28,154,187.9767107963562,,,,,,,,,,,,,,,,,,,,,,,,,,,,,,,,,,,,,,,,,,,,,,,,,,,,,,,,,,,,,,,,,,,,,,,,,,,,,,,,,140.28731947695417,180.6786348643276,65.05915282614855,142.8078622579971,80.59221163993087,175.46931259490123,2.2,2.21,-258,-252,0,264,255,252,187.96056938171387,187.96064472198486,187.96370100975037,187.9767107963562,188.12652015686035,188.12652015686035,188.12652015686035,188.12652015686035,188.12652015686035,188.12652015686035,188.12652015686035,189.70928597450256,1,1.7213680744171143,None,,,,,,,,,,,,,,,,,,229,1,2025-03-11_12h01.36.307,comp,2024.2.4,None,2025-03-11 12h02.28.830927 -0400,
29,29,0,critical,whd,20.0,2.1,lower,57.0,133.0,133.0,57.0,78.0,78.0,3,3.7497975826263428,None,,,,,0,0,0,0,0,29,29,14,189.72515559196472,,,,,,,,,,,,,,,,,,,,,,,,,,,,,,,,,,,,,,,,,,,,,,,,,,,,,,,,,,,,,,,,,,,,,,,,,,,,,,,,,57.0,133.0,133.0,57.0,78.0,78.0,2.1,2.11,-191,258,0,262,164,-267,189.71086359024048,189.71093940734863,189.71426033973694,189.72515559196472,189.87937903404236,189.87937903404236,189.87937903404236,189.87937903404236,189.87937903404236,189.87937903404236,189.87937903404236,193.48017191886902,3,3.7497975826263428,None,,,,,,,,,,,,,,,,,,229,1,2025-03-11_12h01.36.307,comp,2024.2.4,None,2025-03-11 12h02.28.830927 -0400,
30,30,0,critical,dhw,35.0,2.1,upper,127.0,127.0,200.0,125.0,125.0,200.0,2,2.139310836791992,None,,,,,0,0,0,0,0,30,30,1,193.49716687202454,,,,,,,,,,,,,,,,,,,,,,,,,,,,,,,,,,,,,,,,,,,,,,,,,,,,,,,,,,,,,,,,,,,,,,,,,,,,,,,,,127.0,127.0,200.0,125.0,125.0,200.0,2.1,2.12,-222,-253,0,-275,258,273,193.4819221496582,193.48205661773682,193.48553895950317,193.49716687202454,193.64449095726013,193.64449095726013,193.64449095726013,193.64449095726013,193.64449095726013,193.64449095726013,193.64449095726013,195.64323234558105,2,2.139310836791992,None,,,,,,,,,,,,,,,,,,229,1,2025-03-11_12h01.36.307,comp,2024.2.4,None,2025-03-11 12h02.28.830927 -0400,
31,31,0,critical,hwd,20.0,2.1,lower,133.0,57.0,57.0,133.0,78.0,78.0,2,5.223567247390747,None,,,,,0,0,0,0,0,31,31,18,195.65880417823792,,,,,,,,,,,,,,,,,,,,,,,,,,,,,,,,,,,,,,,,,,,,,,,,,,,,,,,,,,,,,,,,,,,,,,,,,,,,,,,,,133.0,57.0,57.0,133.0,78.0,78.0,2.1,2.11,-191,264,0,278,202,-277,195.6447958946228,195.64487600326538,195.64809656143188,195.65880417823792,195.81729674339294,195.81729674339294,195.81729674339294,195.81729674339294,195.81729674339294,195.81729674339294,195.81729674339294,200.89681792259216,2,5.223567247390747,None,,,,,,,,,,,,,,,,,,229,1,2025-03-11_12h01.36.307,comp,2024.2.4,None,2025-03-11 12h02.28.830927 -0400,
32,32,0,filler_random,None,None,None,None,None,None,None,None,None,None,1,4.298133850097656,None,,,,,0,0,0,0,0,32,32,144,200.91243362426758,,,,,,,,,,,,,,,,,,,,,,,,,,,,,,,,,,,,,,,,,,,,,,,,,,,,,,,,,,,,,,,,,,,,,,,,,,,,,,,,,151.7840100026795,78.62903047163144,85.79044520758049,59.83839727307347,74.7365650640198,170.2147397750363,2.1,2.12,-165,-271,0,-265,211,269,200.8986735343933,200.89874958992004,200.90212607383728,200.91243362426758,201.06274318695068,201.06274318695068,201.06274318695068,201.06274318695068,201.06274318695068,201.06274318695068,201.06274318695068,205.21338486671448,1,4.298133850097656,None,,,,,,,,,,,,,,,,,,229,1,2025-03-11_12h01.36.307,comp,2024.2.4,None,2025-03-11 12h02.28.830927 -0400,
33,33,0,catch,None,None,None,None,None,None,None,None,None,None,2,1.188281536102295,None,,,,,0,0,0,0,0,33,33,129,205.22984886169434,,,,,,,,,,,,,,,,,,,,,,,,,,,,,,,,,,,,,,,,,,,,,,,,,,,,,,,,,,,,,,,,,,,,,,,,,,,,,,,,,71,119,184,141,93,97,4.0,4.2,-226,-4,0,-259,215,-16,205.21527457237244,205.21535301208496,205.21840929985046,205.22984886169434,205.3695991039276,205.3695991039276,205.3695991039276,205.3695991039276,205.3695991039276,205.3695991039276,205.3695991039276,206.42781472206116,2,1.188281536102295,None,,,,,,,,,,,,,,,,,,229,1,2025-03-11_12h01.36.307,comp,2024.2.4,None,2025-03-11 12h02.28.830927 -0400,
34,34,0,critical,hdw,35.0,3.0,upper,200.0,125.0,127.0,127.0,125.0,200.0,1,1.6297314167022705,None,,,,,0,0,0,0,0,34,34,111,206.44441485404968,,,,,,,,,,,,,,,,,,,,,,,,,,,,,,,,,,,,,,,,,,,,,,,,,,,,,,,,,,,,,,,,,,,,,,,,,,,,,,,,,200.0,125.0,127.0,127.0,125.0,200.0,3.0,3.2,-222,-259,0,-1,260,277,206.4294536113739,206.42952942848206,206.43280673027039,206.44441485404968,206.5941925048828,206.5941925048828,206.5941925048828,206.5941925048828,206.5941925048828,206.5941925048828,206.5941925048828,208.08916759490967,1,1.6297314167022705,None,,,,,,,,,,,,,,,,,,229,1,2025-03-11_12h01.36.307,comp,2024.2.4,None,2025-03-11 12h02.28.830927 -0400,
35,35,0,critical,hdw,20.0,4.0,lower,133.0,57.0,78.0,78.0,57.0,133.0,3,4.577232122421265,None,,,,,0,0,0,0,0,35,35,118,208.1049563884735,,,,,,,,,,,,,,,,,,,,,,,,,,,,,,,,,,,,,,,,,,,,,,,,,,,,,,,,,,,,,,,,,,,,,,,,,,,,,,,,,133.0,57.0,78.0,78.0,57.0,133.0,4.0,4.2,-164,-1,0,-259,202,2,208.0906949043274,208.09077072143555,208.0937535762787,208.1049563884735,208.24941110610962,208.24941110610962,208.24941110610962,208.24941110610962,208.24941110610962,208.24941110610962,208.24941110610962,212.68513989448547,3,4.577232122421265,None,,,,,,,,,,,,,,,,,,229,1,2025-03-11_12h01.36.307,comp,2024.2.4,None,2025-03-11 12h02.28.830927 -0400,
36,36,0,critical,dhw,20.0,4.0,lower,78.0,78.0,133.0,57.0,57.0,133.0,3,5.621548891067505,None,,,,,0,0,0,0,0,36,36,58,212.7006812095642,,,,,,,,,,,,,,,,,,,,,,,,,,,,,,,,,,,,,,,,,,,,,,,,,,,,,,,,,,,,,,,,,,,,,,,,,,,,,,,,,78.0,78.0,133.0,57.0,57.0,133.0,4.0,4.1,-164,-283,0,-1,191,-252,212.68675446510315,212.68683195114136,212.68993997573853,212.7006812095642,212.84967613220215,212.84967613220215,212.84967613220215,212.84967613220215,212.84967613220215,212.84967613220215,212.84967613220215,218.33545184135437,3,5.621548891067505,None,,,,,,,,,,,,,,,,,,229,1,2025-03-11_12h01.36.307,comp,2024.2.4,None,2025-03-11 12h02.28.830927 -0400,
37,37,0,critical,dhw,20.0,2.1,lower,78.0,78.0,133.0,57.0,57.0,133.0,3,3.659667491912842,None,,,,,0,0,0,0,0,37,37,26,218.35146975517273,,,,,,,,,,,,,,,,,,,,,,,,,,,,,,,,,,,,,,,,,,,,,,,,,,,,,,,,,,,,,,,,,,,,,,,,,,,,,,,,,78.0,78.0,133.0,57.0,57.0,133.0,2.1,2.12,-164,-285,0,-271,191,270,218.3369655609131,218.3370430469513,218.34108686447144,218.35146975517273,218.5000605583191,218.5000605583191,218.5000605583191,218.5000605583191,218.5000605583191,218.5000605583191,218.5000605583191,222.01981830596924,3,3.659667491912842,None,,,,,,,,,,,,,,,,,,229,1,2025-03-11_12h01.36.307,comp,2024.2.4,None,2025-03-11 12h02.28.830927 -0400,
38,38,0,filler_square,None,None,None,None,None,None,None,None,None,None,1,1.4776983261108398,None,,,,,0,0,0,0,0,38,38,175,222.03679871559143,,,,,,,,,,,,,,,,,,,,,,,,,,,,,,,,,,,,,,,,,,,,,,,,,,,,,,,,,,,,,,,,,,,,,,,,,,,,,,,,,186.10949868317525,186.10949868317525,138.07077441835435,105.43619062527199,165.67725721913217,93.59547209073332,3.0,3.1,-242,256,0,14,196,-284,222.0216133594513,222.02169060707092,222.02471923828125,222.03679871559143,222.18928217887878,222.18928217887878,222.18928217887878,222.18928217887878,222.18928217887878,222.18928217887878,222.18928217887878,223.52284574508667,1,1.4776983261108398,None,,,,,,,,,,,,,,,,,,229,1,2025-03-11_12h01.36.307,comp,2024.2.4,None,2025-03-11 12h02.28.830927 -0400,
39,39,0,critical,dwh,35.0,3.0,upper,127.0,127.0,125.0,200.0,200.0,125.0,2,1.4481995105743408,None,,,,,0,0,0,0,0,39,39,63,223.53849864006042,,,,,,,,,,,,,,,,,,,,,,,,,,,,,,,,,,,,,,,,,,,,,,,,,,,,,,,,,,,,,,,,,,,,,,,,,,,,,,,,,127.0,127.0,125.0,200.0,200.0,125.0,3.0,3.1,-260,276,0,18,258,-252,223.52493143081665,223.52501225471497,223.52792358398438,223.53849864006042,223.69010996818542,223.69010996818542,223.69010996818542,223.69010996818542,223.69010996818542,223.69010996818542,223.69010996818542,224.98984146118164,2,1.4481995105743408,None,,,,,,,,,,,,,,,,,,229,1,2025-03-11_12h01.36.307,comp,2024.2.4,None,2025-03-11 12h02.28.830927 -0400,
40,40,0,critical,wdh,35.0,2.1,upper,125.0,200.0,127.0,127.0,200.0,125.0,1,1.9248204231262207,None,,,,,0,0,0,0,0,40,40,9,225.0060317516327,,,,,,,,,,,,,,,,,,,,,,,,,,,,,,,,,,,,,,,,,,,,,,,,,,,,,,,,,,,,,,,,,,,,,,,,,,,,,,,,,125.0,200.0,127.0,127.0,200.0,125.0,2.1,2.11,-260,277,0,266,222,-259,224.99153304100037,224.99165534973145,224.9945683479309,225.0060317516327,225.1552894115448,225.1552894115448,225.1552894115448,225.1552894115448,225.1552894115448,225.1552894115448,225.1552894115448,226.93918991088867,1,1.9248204231262207,None,,,,,,,,,,,,,,,,,,229,1,2025-03-11_12h01.36.307,comp,2024.2.4,None,2025-03-11 12h02.28.830927 -0400,
41,41,0,critical,hwd,35.0,1.0,upper,200.0,125.0,125.0,200.0,127.0,127.0,2,4.762181043624878,None,,,,,0,0,0,0,0,41,41,97,226.96008253097534,,,,,,,,,,,,,,,,,,,,,,,,,,,,,,,,,,,,,,,,,,,,,,,,,,,,,,,,,,,,,,,,,,,,,,,,,,,,,,,,,200.0,125.0,125.0,200.0,127.0,127.0,1.0,1.1,-738,261,-480,266,-220,276,226.94078755378723,226.9409101009369,226.94427919387817,226.96008253097534,227.0933427810669,227.0933427810669,227.0933427810669,227.0933427810669,227.0933427810669,227.0933427810669,227.0933427810669,231.73834943771362,2,4.762181043624878,None,,,,,,,,,,,,,,,,,,229,1,2025-03-11_12h01.36.307,comp,2024.2.4,None,2025-03-11 12h02.28.830927 -0400,
42,42,0,critical,hwd,20.0,3.0,lower,133.0,57.0,57.0,133.0,78.0,78.0,3,3.0082483291625977,None,,,,,0,0,0,0,0,42,42,104,231.75462985038757,,,,,,,,,,,,,,,,,,,,,,,,,,,,,,,,,,,,,,,,,,,,,,,,,,,,,,,,,,,,,,,,,,,,,,,,,,,,,,,,,133.0,57.0,57.0,133.0,78.0,78.0,3.0,3.1,-191,262,0,11,202,-289,231.7399411201477,231.74003767967224,231.74343156814575,231.75462985038757,231.9061896800995,231.9061896800995,231.9061896800995,231.9061896800995,231.9061896800995,231.9061896800995,231.9061896800995,234.77251410484314,3,3.0082483291625977,None,,,,,,,,,,,,,,,,,,229,1,2025-03-11_12h01.36.307,comp,2024.2.4,None,2025-03-11 12h02.28.830927 -0400,
43,43,0,critical,wdh,20.0,2.1,lower,57.0,133.0,78.0,78.0,133.0,57.0,2,1.7505075931549072,None,,,,,0,0,0,0,0,43,43,10,234.7957947254181,,,,,,,,,,,,,,,,,,,,,,,,,,,,,,,,,,,,,,,,,,,,,,,,,,,,,,,,,,,,,,,,,,,,,,,,,,,,,,,,,57.0,133.0,78.0,78.0,133.0,57.0,2.1,2.11,-202,265,0,259,164,-280,234.77388405799866,234.77395963668823,234.77703642845154,234.7957947254181,234.93954467773438,234.93954467773438,234.93954467773438,234.93954467773438,234.93954467773438,234.93954467773438,234.93954467773438,236.55614185333252,2,1.7505075931549072,None,,,,,,,,,,,,,,,,,,229,1,2025-03-11_12h01.36.307,comp,2024.2.4,None,2025-03-11 12h02.28.830927 -0400,
44,44,0,critical,dhw,35.0,4.0,upper,127.0,127.0,200.0,125.0,125.0,200.0,3,2.3660521507263184,None,,,,,0,0,0,0,0,44,44,53,236.57271718978882,,,,,,,,,,,,,,,,,,,,,,,,,,,,,,,,,,,,,,,,,,,,,,,,,,,,,,,,,,,,,,,,,,,,,,,,,,,,,,,,,127.0,127.0,200.0,125.0,125.0,200.0,4.0,4.2,-222,17,0,-256,258,-18,236.5577199459076,236.557799577713,236.56103777885437,236.57271718978882,236.72899556159973,236.72899556159973,236.72899556159973,236.72899556159973,236.72899556159973,236.72899556159973,236.72899556159973,238.94716048240662,3,2.3660521507263184,None,,,,,,,,,,,,,,,,,,229,1,2025-03-11_12h01.36.307,comp,2024.2.4,None,2025-03-11 12h02.28.830927 -0400,
45,45,0,critical,hdw,35.0,4.0,upper,200.0,125.0,127.0,127.0,125.0,200.0,3,2.662951707839966,None,,,,,0,0,0,0,0,45,45,113,238.96326446533203,,,,,,,,,,,,,,,,,,,,,,,,,,,,,,,,,,,,,,,,,,,,,,,,,,,,,,,,,,,,,,,,,,,,,,,,,,,,,,,,,200.0,125.0,127.0,127.0,125.0,200.0,4.0,4.1,-222,-271,0,7,260,-276,238.9488034248352,238.94887924194336,238.95211482048035,238.96326446533203,239.11264657974243,239.11264657974243,239.11264657974243,239.11264657974243,239.11264657974243,239.11264657974243,239.11264657974243,241.6419141292572,3,2.662951707839966,None,,,,,,,,,,,,,,,,,,229,1,2025-03-11_12h01.36.307,comp,2024.2.4,None,2025-03-11 12h02.28.830927 -0400,
46,46,0,critical,wdh,35.0,3.0,upper,125.0,200.0,127.0,127.0,200.0,125.0,1,1.8874800205230713,None,,,,,0,0,0,0,0,46,46,75,241.65881323814392,,,,,,,,,,,,,,,,,,,,,,,,,,,,,,,,,,,,,,,,,,,,,,,,,,,,,,,,,,,,,,,,,,,,,,,,,,,,,,,,,125.0,200.0,127.0,127.0,200.0,125.0,3.0,3.1,-260,278,0,-7,222,-279,241.643385887146,241.64348149299622,241.64643096923828,241.65881323814392,241.81014370918274,241.81014370918274,241.81014370918274,241.81014370918274,241.81014370918274,241.81014370918274,241.81014370918274,243.5617594718933,1,1.8874800205230713,None,,,,,,,,,,,,,,,,,,229,1,2025-03-11_12h01.36.307,comp,2024.2.4,None,2025-03-11 12h02.28.830927 -0400,
47,47,0,filler_square,None,None,None,None,None,None,None,None,None,None,3,1.825904130935669,None,,,,,0,0,0,0,0,47,47,194,243.5769238471985,,,,,,,,,,,,,,,,,,,,,,,,,,,,,,,,,,,,,,,,,,,,,,,,,,,,,,,,,,,,,,,,,,,,,,,,,,,,,,,,,173.19723127308498,123.62475662511552,183.627821620159,144.28970422178605,196.38172856437419,196.38172856437419,1.0,1.3,250,-257,480,-272,746,-266,243.56368827819824,243.56376576423645,243.56663274765015,243.5769238471985,243.7266583442688,243.7266583442688,243.7266583442688,243.7266583442688,243.7266583442688,243.7266583442688,243.7266583442688,245.40825176239014,3,1.825904130935669,None,,,,,,,,,,,,,,,,,,229,1,2025-03-11_12h01.36.307,comp,2024.2.4,None,2025-03-11 12h02.28.830927 -0400,
48,48,0,filler_random,None,None,None,None,None,None,None,None,None,None,1,1.650463342666626,None,,,,,0,0,0,0,0,48,48,136,245.4240972995758,,,,,,,,,,,,,,,,,,,,,,,,,,,,,,,,,,,,,,,,,,,,,,,,,,,,,,,,,,,,,,,,,,,,,,,,,,,,,,,,,163.13502817333745,158.64667285316975,153.17263358158868,83.74753202168496,74.82598565245046,173.72121165562385,2.2,2.22,-217,281,0,-257,225,-267,245.40994477272034,245.4100193977356,245.4132947921753,245.4240972995758,245.57731294631958,245.57731294631958,245.57731294631958,245.57731294631958,245.57731294631958,245.57731294631958,245.57731294631958,247.07681465148926,1,1.650463342666626,None,,,,,,,,,,,,,,,,,,229,1,2025-03-11_12h01.36.307,comp,2024.2.4,None,2025-03-11 12h02.28.830927 -0400,
49,49,0,filler_random,None,None,None,None,None,None,None,None,None,None,2,1.3804681301116943,None,,,,,0,0,0,0,0,49,49,165,247.09377527236938,,,,,,,,,,,,,,,,,,,,,,,,,,,,,,,,,,,,,,,,,,,,,,,,,,,,,,,,,,,,,,,,,,,,,,,,,,,,,,,,,170.87405483349858,72.85704825196605,183.772863363691,108.91056821845996,108.75972018045283,93.88549996822954,3.0,3.2,-187,-257,0,16,197,287,247.07858562469482,247.0787160396576,247.08195614814758,247.09377527236938,247.2496099472046,247.2496099472046,247.2496099472046,247.2496099472046,247.2496099472046,247.2496099472046,247.2496099472046,248.47781562805176,2,1.3804681301116943,None,,,,,,,,,,,,,,,,,,229,1,2025-03-11_12h01.36.307,comp,2024.2.4,None,2025-03-11 12h02.28.830927 -0400,
50,50,0,filler_random,None,None,None,None,None,None,None,None,None,None,1,1.3324174880981445,None,,,,,0,0,0,0,0,50,50,133,248.49447679519653,,,,,,,,,,,,,,,,,,,,,,,,,,,,,,,,,,,,,,,,,,,,,,,,,,,,,,,,,,,,,,,,,,,,,,,,,,,,,,,,,196.1467097474145,108.69857069877708,171.80144585801705,87.42742893232509,127.05043631333476,183.14530183807432,1.0,1.1,-674,287,-480,287,-249,260,248.4796645641327,248.4797432422638,248.48382186889648,248.49447679519653,248.64531326293945,248.64531326293945,248.64531326293945,248.64531326293945,248.64531326293945,248.64531326293945,248.64531326293945,249.8433632850647,1,1.3324174880981445,None,,,,,,,,,,,,,,,,,,229,1,2025-03-11_12h01.36.307,comp,2024.2.4,None,2025-03-11 12h02.28.830927 -0400,
51,51,0,critical,dwh,35.0,2.1,lower,70.0,70.0,57.0,133.0,133.0,57.0,2,6.790662527084351,None,,,,,0,0,0,0,0,51,51,4,249.8596351146698,,,,,,,,,,,,,,,,,,,,,,,,,,,,,,,,,,,,,,,,,,,,,,,,,,,,,,,,,,,,,,,,,,,,,,,,,,,,,,,,,70.0,70.0,57.0,133.0,133.0,57.0,2.1,2.12,-198,-268,0,-263,191,278,249.84496450424194,249.84504413604736,249.84828329086304,249.8596351146698,250.00982785224915,250.00982785224915,250.00982785224915,250.00982785224915,250.00982785224915,250.00982785224915,250.00982785224915,256.6700391769409,2,6.790662527084351,None,,,,,,,,,,,,,,,,,,229,1,2025-03-11_12h01.36.307,comp,2024.2.4,None,2025-03-11 12h02.28.830927 -0400,
52,52,0,catch,None,None,None,None,None,None,None,None,None,None,3,1.2910332679748535,None,,,,,0,0,0,0,0,52,52,121,256.68731451034546,,,,,,,,,,,,,,,,,,,,,,,,,,,,,,,,,,,,,,,,,,,,,,,,,,,,,,,,,,,,,,,,,,,,,,,,,,,,,,,,,118,72,120,70,189,136,3.0,3.1,-167,278,0,6,199,-266,256.6719300746918,256.6720051765442,256.6748671531677,256.68731451034546,256.8306405544281,256.8306405544281,256.8306405544281,256.8306405544281,256.8306405544281,256.8306405544281,256.8306405544281,257.98272705078125,3,1.2910332679748535,None,,,,,,,,,,,,,,,,,,229,1,2025-03-11_12h01.36.307,comp,2024.2.4,None,2025-03-11 12h02.28.830927 -0400,
53,53,0,critical,hwd,20.0,1.0,lower,133.0,57.0,57.0,133.0,78.0,78.0,2,4.503362417221069,None,,,,,0,0,0,0,0,53,53,102,258.00355887413025,,,,,,,,,,,,,,,,,,,,,,,,,,,,,,,,,,,,,,,,,,,,,,,,,,,,,,,,,,,,,,,,,,,,,,,,,,,,,,,,,133.0,57.0,57.0,133.0,78.0,78.0,1.0,1.2,-191,15,0,-5,202,10,257.9841754436493,257.9842674732208,257.98789048194885,258.00355887413025,258.1508090496063,258.1508090496063,258.1508090496063,258.1508090496063,258.1508090496063,258.1508090496063,258.1508090496063,262.51601243019104,2,4.503362417221069,None,,,,,,,,,,,,,,,,,,229,1,2025-03-11_12h01.36.307,comp,2024.2.4,None,2025-03-11 12h02.28.830927 -0400,
54,54,0,filler_random,None,None,None,None,None,None,None,None,None,None,2,1.7886898517608643,None,,,,,0,0,0,0,0,54,54,140,262.5334939956665,,,,,,,,,,,,,,,,,,,,,,,,,,,,,,,,,,,,,,,,,,,,,,,,,,,,,,,,,,,,,,,,,,,,,,,,,,,,,,,,,165.68455697717522,76.99770642615685,154.90870510419344,191.80699358621163,169.31281502266683,151.92684475125225,3.0,3.2,-230,-288,0,14,268,288,262.51777267456055,262.5178487300873,262.52133440971375,262.5334939956665,262.68535137176514,262.68535137176514,262.68535137176514,262.68535137176514,262.68535137176514,262.68535137176514,262.68535137176514,264.3328630924225,2,1.7886898517608643,None,,,,,,,,,,,,,,,,,,229,1,2025-03-11_12h01.36.307,comp,2024.2.4,None,2025-03-11 12h02.28.830927 -0400,
55,55,0,critical,hdw,20.0,4.0,upper,200.0,125.0,141.0,141.0,125.0,200.0,2,7.574832916259766,None,,,,,0,0,0,0,0,55,55,119,264.34770464897156,,,,,,,,,,,,,,,,,,,,,,,,,,,,,,,,,,,,,,,,,,,,,,,,,,,,,,,,,,,,,,,,,,,,,,,,,,,,,,,,,200.0,125.0,141.0,141.0,125.0,200.0,4.0,4.2,-229,-14,0,-252,266,-6,264.33456230163574,264.33469700813293,264.33814096450806,264.34770464897156,264.4988877773285,264.4988877773285,264.4988877773285,264.4988877773285,264.4988877773285,264.4988877773285,264.4988877773285,271.9365656375885,2,7.574832916259766,None,,,,,,,,,,,,,,,,,,229,1,2025-03-11_12h01.36.307,comp,2024.2.4,None,2025-03-11 12h02.28.830927 -0400,
56,56,0,critical,dhw,35.0,2.1,lower,70.0,70.0,133.0,57.0,57.0,133.0,3,7.3786280155181885,None,,,,,0,0,0,0,0,56,56,24,271.9525468349457,,,,,,,,,,,,,,,,,,,,,,,,,,,,,,,,,,,,,,,,,,,,,,,,,,,,,,,,,,,,,,,,,,,,,,,,,,,,,,,,,70.0,70.0,133.0,57.0,57.0,133.0,2.1,2.12,-160,-287,0,-259,191,276,271.93806982040405,271.93815302848816,271.9413220882416,271.9525468349457,272.10116600990295,272.10116600990295,272.10116600990295,272.10116600990295,272.10116600990295,272.10116600990295,272.10116600990295,279.3360457420349,3,7.3786280155181885,None,,,,,,,,,,,,,,,,,,229,1,2025-03-11_12h01.36.307,comp,2024.2.4,None,2025-03-11 12h02.28.830927 -0400,
57,57,0,critical,whd,20.0,3.0,lower,57.0,133.0,133.0,57.0,78.0,78.0,1,3.7456350326538086,None,,,,,0,0,0,0,0,57,57,92,279.3526175022125,,,,,,,,,,,,,,,,,,,,,,,,,,,,,,,,,,,,,,,,,,,,,,,,,,,,,,,,,,,,,,,,,,,,,,,,,,,,,,,,,57.0,133.0,133.0,57.0,78.0,78.0,3.0,3.2,-191,-255,0,-12,164,263,279.3375954627991,279.3376760482788,279.3407094478607,279.3526175022125,279.5055799484253,279.5055799484253,279.5055799484253,279.5055799484253,279.5055799484253,279.5055799484253,279.5055799484253,283.10906529426575,1,3.7456350326538086,None,,,,,,,,,,,,,,,,,,229,1,2025-03-11_12h01.36.307,comp,2024.2.4,None,2025-03-11 12h02.28.830927 -0400,
58,58,0,filler_square,None,None,None,None,None,None,None,None,None,None,2,2.1306378841400146,None,,,,,0,0,0,0,0,58,58,170,283.12831354141235,,,,,,,,,,,,,,,,,,,,,,,,,,,,,,,,,,,,,,,,,,,,,,,,,,,,,,,,,,,,,,,,,,,,,,,,,,,,,,,,,71.80797986072078,59.97751324579151,73.7838035604245,73.7838035604245,59.5337220077469,68.76090855312508,2.2,2.22,-163,287,0,-276,167,-279,283.11088395118713,283.1109619140625,283.1138286590576,283.12831354141235,283.2723319530487,283.2723319530487,283.2723319530487,283.2723319530487,283.2723319530487,283.2723319530487,283.2723319530487,285.26509714126587,2,2.1306378841400146,None,,,,,,,,,,,,,,,,,,229,1,2025-03-11_12h01.36.307,comp,2024.2.4,None,2025-03-11 12h02.28.830927 -0400,
59,59,0,filler_square,None,None,None,None,None,None,None,None,None,None,1,1.389051914215088,None,,,,,0,0,0,0,0,59,59,206,285.2852249145508,,,,,,,,,,,,,,,,,,,,,,,,,,,,,,,,,,,,,,,,,,,,,,,,,,,,,,,,,,,,,,,,,,,,,,,,,,,,,,,,,111.08609648364501,111.08609648364501,60.54590041751656,93.67495764648629,83.82073619495597,85.04808710685393,1.0,1.1,-678,250,-480,286,-295,254,285.26685404777527,285.26693058013916,285.2697494029999,285.2852249145508,285.4237735271454,285.4237735271454,285.4237735271454,285.4237735271454,285.4237735271454,285.4237735271454,285.4237735271454,286.68860363960266,1,1.389051914215088,None,,,,,,,,,,,,,,,,,,229,1,2025-03-11_12h01.36.307,comp,2024.2.4,None,2025-03-11 12h02.28.830927 -0400,
60,60,0,filler_random,None,None,None,None,None,None,None,None,None,None,1,1.0412943363189697,None,,,,,0,0,0,0,0,60,60,142,286.7049837112427,,,,,,,,,,,,,,,,,,,,,,,,,,,,,,,,,,,,,,,,,,,,,,,,,,,,,,,,,,,,,,,,,,,,,,,,,,,,,,,,,184.29149939502517,189.23679915403076,132.58141107329038,125.44439996938921,146.25238236731104,57.639823709921814,2.2,2.22,-253,284,0,-275,188,-277,286.6902332305908,286.6903097629547,286.69350361824036,286.7049837112427,286.8422112464905,286.8422112464905,286.8422112464905,286.8422112464905,286.8422112464905,286.8422112464905,286.8422112464905,287.7618372440338,1,1.0412943363189697,None,,,,,,,,,,,,,,,,,,229,1,2025-03-11_12h01.36.307,comp,2024.2.4,None,2025-03-11 12h02.28.830927 -0400,
61,61,0,filler_random,None,None,None,None,None,None,None,None,None,None,1,5.280704021453857,None,,,,,0,0,0,0,0,61,61,141,287.7786087989807,,,,,,,,,,,,,,,,,,,,,,,,,,,,,,,,,,,,,,,,,,,,,,,,,,,,,,,,,,,,,,,,,,,,,,,,,,,,,,,,,137.7676375848036,162.85373517204022,67.5915179274545,71.08596117985651,189.3770594585914,133.4319998368322,1.0,1.2,-213,-3,0,4,198,-4,287.7635955810547,287.7637240886688,287.76693773269653,287.7786087989807,287.92363595962524,287.92363595962524,287.92363595962524,287.92363595962524,287.92363595962524,287.92363595962524,287.92363595962524,293.06767892837524,1,5.280704021453857,None,,,,,,,,,,,,,,,,,,229,1,2025-03-11_12h01.36.307,comp,2024.2.4,None,2025-03-11 12h02.28.830927 -0400,
62,62,0,critical,wdh,35.0,4.0,lower,57.0,133.0,70.0,70.0,133.0,57.0,1,3.695071220397949,None,,,,,0,0,0,0,0,62,62,76,293.08334732055664,,,,,,,,,,,,,,,,,,,,,,,,,,,,,,,,,,,,,,,,,,,,,,,,,,,,,,,,,,,,,,,,,,,,,,,,,,,,,,,,,57.0,133.0,70.0,70.0,133.0,57.0,4.0,4.1,-198,-289,0,2,160,-265,293.069171667099,293.0692467689514,293.0720660686493,293.08334732055664,293.22580647468567,293.22580647468567,293.22580647468567,293.22580647468567,293.22580647468567,293.22580647468567,293.22580647468567,296.7817256450653,1,3.695071220397949,None,,,,,,,,,,,,,,,,,,229,1,2025-03-11_12h01.36.307,comp,2024.2.4,None,2025-03-11 12h02.28.830927 -0400,
63,63,0,filler_square,None,None,None,None,None,None,None,None,None,None,1,1.456587314605713,None,,,,,0,0,0,0,0,63,63,204,296.80221462249756,,,,,,,,,,,,,,,,,,,,,,,,,,,,,,,,,,,,,,,,,,,,,,,,,,,,,,,,,,,,,,,,,,,,,,,,,,,,,,,,,132.7862921726459,132.7862921726459,108.96614080500615,87.79473479040048,92.67857267069591,68.82399607235023,4.0,4.2,-206,-16,0,-283,174,-18,296.78354692459106,296.7836272716522,296.7865238189697,296.80221462249756,296.94063353538513,296.94063353538513,296.94063353538513,296.94063353538513,296.94063353538513,296.94063353538513,296.94063353538513,298.276198387146,1,1.456587314605713,None,,,,,,,,,,,,,,,,,,229,1,2025-03-11_12h01.36.307,comp,2024.2.4,None,2025-03-11 12h02.28.830927 -0400,
64,64,0,critical,dwh,20.0,3.0,lower,78.0,78.0,57.0,133.0,133.0,57.0,3,4.614358186721802,None,,,,,0,0,0,0,0,64,64,68,298.2924339771271,,,,,,,,,,,,,,,,,,,,,,,,,,,,,,,,,,,,,,,,,,,,,,,,,,,,,,,,,,,,,,,,,,,,,,,,,,,,,,,,,78.0,78.0,57.0,133.0,133.0,57.0,3.0,3.1,-202,284,0,7,191,-270,298.2777225971222,298.2777998447418,298.2809970378876,298.2924339771271,298.4495120048523,298.4495120048523,298.4495120048523,298.4495120048523,298.4495120048523,298.4495120048523,298.4495120048523,302.91267371177673,3,4.614358186721802,None,,,,,,,,,,,,,,,,,,229,1,2025-03-11_12h01.36.307,comp,2024.2.4,None,2025-03-11 12h02.28.830927 -0400,
65,65,0,filler_random,None,None,None,None,None,None,None,None,None,None,1,1.4092037677764893,None,,,,,0,0,0,0,0,65,65,162,302.9291019439697,,,,,,,,,,,,,,,,,,,,,,,,,,,,,,,,,,,,,,,,,,,,,,,,,,,,,,,,,,,,,,,,,,,,,,,,,,,,,,,,,191.6745761224194,97.46253324360515,69.28237340327163,152.26591711246658,67.52073089675632,147.9532611572398,3.0,3.2,-221,-274,0,-5,246,273,302.91441226005554,302.91452074050903,302.9183599948883,302.9291019439697,303.0772874355316,303.0772874355316,303.0772874355316,303.0772874355316,303.0772874355316,303.0772874355316,303.0772874355316,304.3425762653351,1,1.4092037677764893,None,,,,,,,,,,,,,,,,,,229,1,2025-03-11_12h01.36.307,comp,2024.2.4,None,2025-03-11 12h02.28.830927 -0400,
66,66,0,filler_square,None,None,None,None,None,None,None,None,None,None,1,0.9593818187713623,None,,,,,0,0,0,0,0,66,66,176,304.3635575771332,,,,,,,,,,,,,,,,,,,,,,,,,,,,,,,,,,,,,,,,,,,,,,,,,,,,,,,,,,,,,,,,,,,,,,,,,,,,,,,,,186.2774076468095,186.2774076468095,59.427729940853546,180.75925544826987,144.23924862798367,127.08398860286235,1.0,1.1,-760,283,-480,256,-230,255,304.3445234298706,304.34465050697327,304.3478751182556,304.3635575771332,304.49765062332153,304.49765062332153,304.49765062332153,304.49765062332153,304.49765062332153,304.49765062332153,304.49765062332153,305.3283715248108,1,0.9593818187713623,None,,,,,,,,,,,,,,,,,,229,1,2025-03-11_12h01.36.307,comp,2024.2.4,None,2025-03-11 12h02.28.830927 -0400,
67,67,0,critical,wdh,35.0,3.0,lower,57.0,133.0,70.0,70.0,133.0,57.0,1,10.71440076828003,None,,,,,0,0,0,0,0,67,67,74,305.3446295261383,,,,,,,,,,,,,,,,,,,,,,,,,,,,,,,,,,,,,,,,,,,,,,,,,,,,,,,,,,,,,,,,,,,,,,,,,,,,,,,,,57.0,133.0,70.0,70.0,133.0,57.0,3.0,3.2,-198,-265,0,-11,160,266,305.3298571109772,305.3299341201782,305.333030462265,305.3446295261383,305.49668169021606,305.49668169021606,305.49668169021606,305.49668169021606,305.49668169021606,305.49668169021606,305.49668169021606,316.0696818828583,1,10.71440076828003,None,,,,,,,,,,,,,,,,,,229,1,2025-03-11_12h01.36.307,comp,2024.2.4,None,2025-03-11 12h02.28.830927 -0400,
68,68,0,critical,hwd,20.0,1.0,upper,200.0,125.0,125.0,200.0,141.0,141.0,2,2.668471336364746,None,,,,,0,0,0,0,0,68,68,103,316.085896730423,,,,,,,,,,,,,,,,,,,,,,,,,,,,,,,,,,,,,,,,,,,,,,,,,,,,,,,,,,,,,,,,,,,,,,,,,,,,,,,,,200.0,125.0,125.0,200.0,141.0,141.0,1.0,1.3,222,-252,480,-256,746,-286,316.0712721347809,316.07134985923767,316.0751943588257,316.085896730423,316.23813700675964,316.23813700675964,316.23813700675964,316.23813700675964,316.23813700675964,316.23813700675964,316.23813700675964,318.7652380466461,2,2.668471336364746,None,,,,,,,,,,,,,,,,,,229,1,2025-03-11_12h01.36.307,comp,2024.2.4,None,2025-03-11 12h02.28.830927 -0400,
69,69,0,filler_random,None,None,None,None,None,None,None,None,None,None,3,2.573111057281494,None,,,,,0,0,0,0,0,69,69,137,318.78129982948303,,,,,,,,,,,,,,,,,,,,,,,,,,,,,,,,,,,,,,,,,,,,,,,,,,,,,,,,,,,,,,,,,,,,,,,,,,,,,,,,,116.01503154018633,181.60386847364717,147.779205814418,175.4794894816369,173.98727616473633,157.11433170698197,3.0,3.1,-275,277,0,9,262,-270,318.7669584751129,318.7670352458954,318.77026438713074,318.78129982948303,318.9389865398407,318.9389865398407,318.9389865398407,318.9389865398407,318.9389865398407,318.9389865398407,318.9389865398407,321.3695409297943,3,2.573111057281494,None,,,,,,,,,,,,,,,,,,229,1,2025-03-11_12h01.36.307,comp,2024.2.4,None,2025-03-11 12h02.28.830927 -0400,
70,70,0,filler_square,None,None,None,None,None,None,None,None,None,None,2,1.4072740077972412,None,,,,,0,0,0,0,0,70,70,179,321.38712644577026,,,,,,,,,,,,,,,,,,,,,,,,,,,,,,,,,,,,,,,,,,,,,,,,,,,,,,,,,,,,,,,,,,,,,,,,,,,,,,,,,174.1927996448706,91.77311821015067,195.20353827128974,195.20353827128974,131.63932458033224,149.56351307498434,3.0,3.1,-239,290,0,13,268,-288,321.37155055999756,321.3716461658478,321.37467551231384,321.38712644577026,321.5354824066162,321.5354824066162,321.5354824066162,321.5354824066162,321.5354824066162,321.5354824066162,321.5354824066162,322.80544352531433,2,1.4072740077972412,None,,,,,,,,,,,,,,,,,,229,1,2025-03-11_12h01.36.307,comp,2024.2.4,None,2025-03-11 12h02.28.830927 -0400,
71,71,0,critical,dhw,35.0,2.1,lower,70.0,70.0,133.0,57.0,57.0,133.0,3,7.061157941818237,None,,,,,0,0,0,0,0,71,71,0,322.8219983577728,,,,,,,,,,,,,,,,,,,,,,,,,,,,,,,,,,,,,,,,,,,,,,,,,,,,,,,,,,,,,,,,,,,,,,,,,,,,,,,,,70.0,70.0,133.0,57.0,57.0,133.0,2.1,2.12,-160,-287,0,-288,191,270,322.8070557117462,322.8071324825287,322.80996227264404,322.8219983577728,322.96881079673767,322.96881079673767,322.96881079673767,322.96881079673767,322.96881079673767,322.96881079673767,322.96881079673767,329.88986921310425,3,7.061157941818237,None,,,,,,,,,,,,,,,,,,229,1,2025-03-11_12h01.36.307,comp,2024.2.4,None,2025-03-11 12h02.28.830927 -0400,
72,72,0,critical,hwd,35.0,2.1,upper,200.0,125.0,125.0,200.0,127.0,127.0,2,2.7200710773468018,None,,,,,0,0,0,0,0,72,72,17,329.90619015693665,,,,,,,,,,,,,,,,,,,,,,,,,,,,,,,,,,,,,,,,,,,,,,,,,,,,,,,,,,,,,,,,,,,,,,,,,,,,,,,,,200.0,125.0,125.0,200.0,127.0,127.0,2.1,2.12,-258,-263,0,-274,260,272,329.8915846347809,329.89166593551636,329.89550137519836,329.90619015693665,330.0559506416321,330.0559506416321,330.0559506416321,330.0559506416321,330.0559506416321,330.0559506416321,330.0559506416321,332.6368148326874,2,2.7200710773468018,None,,,,,,,,,,,,,,,,,,229,1,2025-03-11_12h01.36.307,comp,2024.2.4,None,2025-03-11 12h02.28.830927 -0400,
73,73,0,critical,wdh,35.0,2.1,upper,125.0,200.0,127.0,127.0,200.0,125.0,3,2.6053483486175537,None,,,,,0,0,0,0,0,73,73,33,332.65330696105957,,,,,,,,,,,,,,,,,,,,,,,,,,,,,,,,,,,,,,,,,,,,,,,,,,,,,,,,,,,,,,,,,,,,,,,,,,,,,,,,,125.0,200.0,127.0,127.0,200.0,125.0,2.1,2.12,-260,-282,0,-268,222,253,332.63834142684937,332.63853430747986,332.6418523788452,332.65330696105957,332.8093328475952,332.8093328475952,332.8093328475952,332.8093328475952,332.8093328475952,332.8093328475952,332.8093328475952,335.26200342178345,3,2.6053483486175537,None,,,,,,,,,,,,,,,,,,229,1,2025-03-11_12h01.36.307,comp,2024.2.4,None,2025-03-11 12h02.28.830927 -0400,
74,74,0,filler_random,None,None,None,None,None,None,None,None,None,None,2,2.836956262588501,None,,,,,0,0,0,0,0,74,74,167,335.2775146961212,,,,,,,,,,,,,,,,,,,,,,,,,,,,,,,,,,,,,,,,,,,,,,,,,,,,,,,,,,,,,,,,,,,,,,,,,,,,,,,,,86.11794008268481,97.96773087944771,98.76479516497432,116.58185339118674,134.40208672383426,60.64368105621729,4.0,4.2,-203,-10,0,-252,185,-8,335.2636933326721,335.26377296447754,335.2666976451874,335.2775146961212,335.4199719429016,335.4199719429016,335.4199719429016,335.4199719429016,335.4199719429016,335.4199719429016,335.4199719429016,338.13112688064575,2,2.836956262588501,None,,,,,,,,,,,,,,,,,,229,1,2025-03-11_12h01.36.307,comp,2024.2.4,None,2025-03-11 12h02.28.830927 -0400,
75,75,0,filler_random,None,None,None,None,None,None,None,None,None,None,1,1.518634557723999,None,,,,,0,0,0,0,0,75,75,168,338.14773631095886,,,,,,,,,,,,,,,,,,,,,,,,,,,,,,,,,,,,,,,,,,,,,,,,,,,,,,,,,,,,,,,,,,,,,,,,,,,,,,,,,167.34136687708434,155.9322895294544,190.55536435662142,62.39975300029327,187.14794754399279,69.58456306552054,4.0,4.2,-205,18,0,-263,162,19,338.1329243183136,338.1330578327179,338.13626980781555,338.14773631095886,338.28700280189514,338.28700280189514,338.28700280189514,338.28700280189514,338.28700280189514,338.28700280189514,338.28700280189514,339.67650055885315,1,1.518634557723999,None,,,,,,,,,,,,,,,,,,229,1,2025-03-11_12h01.36.307,comp,2024.2.4,None,2025-03-11 12h02.28.830927 -0400,
76,76,0,filler_random,None,None,None,None,None,None,None,None,None,None,3,1.7013556957244873,None,,,,,0,0,0,0,0,76,76,131,339.6972117424011,,,,,,,,,,,,,,,,,,,,,,,,,,,,,,,,,,,,,,,,,,,,,,,,,,,,,,,,,,,,,,,,,,,,,,,,,,,,,,,,,74.08970575067558,145.5047680618114,119.36747227233221,124.80083673260044,159.6680247699316,156.47822442391055,1.0,1.3,249,-269,480,-263,717,-286,339.6782717704773,339.678377866745,339.6816825866699,339.6972117424011,339.8400936126709,339.8400936126709,339.8400936126709,339.8400936126709,339.8400936126709,339.8400936126709,339.8400936126709,341.41202330589294,3,1.7013556957244873,None,,,,,,,,,,,,,,,,,,229,1,2025-03-11_12h01.36.307,comp,2024.2.4,None,2025-03-11 12h02.28.830927 -0400,
77,77,0,critical,whd,20.0,3.0,upper,125.0,200.0,200.0,125.0,141.0,141.0,1,3.3182389736175537,None,,,,,0,0,0,0,0,77,77,93,341.4282546043396,,,,,,,,,,,,,,,,,,,,,,,,,,,,,,,,,,,,,,,,,,,,,,,,,,,,,,,,,,,,,,,,,,,,,,,,,,,,,,,,,125.0,200.0,200.0,125.0,141.0,141.0,3.0,3.2,-258,-256,0,13,229,253,341.41356801986694,341.41364192962646,341.41687631607056,341.4282546043396,341.5767560005188,341.5767560005188,341.5767560005188,341.5767560005188,341.5767560005188,341.5767560005188,341.5767560005188,344.759072303772,1,3.3182389736175537,None,,,,,,,,,,,,,,,,,,229,1,2025-03-11_12h01.36.307,comp,2024.2.4,None,2025-03-11 12h02.28.830927 -0400,
78,78,0,catch,None,None,None,None,None,None,None,None,None,None,3,1.8040518760681152,None,,,,,0,0,0,0,0,78,78,127,344.77434968948364,,,,,,,,,,,,,,,,,,,,,,,,,,,,,,,,,,,,,,,,,,,,,,,,,,,,,,,,,,,,,,,,,,,,,,,,,,,,,,,,,106,84,101,89,182,143,4.0,4.2,-182,-4,0,-272,212,-8,344.75962948799133,344.7596507072449,344.76071524620056,344.77434968948364,344.92508244514465,344.92508244514465,344.92508244514465,344.92508244514465,344.92508244514465,344.92508244514465,344.92508244514465,346.59096002578735,3,1.8040518760681152,None,,,,,,,,,,,,,,,,,,229,1,2025-03-11_12h01.36.307,comp,2024.2.4,None,2025-03-11 12h02.28.830927 -0400,
79,79,0,critical,dwh,35.0,4.0,lower,70.0,70.0,57.0,133.0,133.0,57.0,2,1.8915026187896729,None,,,,,0,0,0,0,0,79,79,64,346.6069338321686,,,,,,,,,,,,,,,,,,,,,,,,,,,,,,,,,,,,,,,,,,,,,,,,,,,,,,,,,,,,,,,,,,,,,,,,,,,,,,,,,70.0,70.0,57.0,133.0,133.0,57.0,4.0,4.2,-198,2,0,-287,191,-18,346.59253096580505,346.5926089286804,346.5956904888153,346.6069338321686,346.76665210723877,346.76665210723877,346.76665210723877,346.76665210723877,346.76665210723877,346.76665210723877,346.76665210723877,348.51169753074646,2,1.8915026187896729,None,,,,,,,,,,,,,,,,,,229,1,2025-03-11_12h01.36.307,comp,2024.2.4,None,2025-03-11 12h02.28.830927 -0400,
80,80,0,filler_random,None,None,None,None,None,None,None,None,None,None,1,1.6919057369232178,None,,,,,0,0,0,0,0,80,80,158,348.52784514427185,,,,,,,,,,,,,,,,,,,,,,,,,,,,,,,,,,,,,,,,,,,,,,,,,,,,,,,,,,,,,,,,,,,,,,,,,,,,,,,,,170.1124302857013,190.6473455817406,190.1083004524602,123.58199231952042,130.13020021318516,86.1376387893576,4.0,4.2,-253,-17,0,-285,201,-8,348.5135760307312,348.5136528015137,348.5174922943115,348.52784514427185,348.6757380962372,348.6757380962372,348.6757380962372,348.6757380962372,348.6757380962372,348.6757380962372,348.6757380962372,350.2293162345886,1,1.6919057369232178,None,,,,,,,,,,,,,,,,,,229,1,2025-03-11_12h01.36.307,comp,2024.2.4,None,2025-03-11 12h02.28.830927 -0400,
81,81,0,filler_square,None,None,None,None,None,None,None,None,None,None,1,0.7232141494750977,None,,,,,0,0,0,0,0,81,81,177,350.24783515930176,,,,,,,,,,,,,,,,,,,,,,,,,,,,,,,,,,,,,,,,,,,,,,,,,,,,,,,,,,,,,,,,,,,,,,,,,,,,,,,,,190.6599640806774,190.6599640806774,123.60917181849571,91.52678299468717,155.4903510409139,63.3809086697662,4.0,4.2,-237,10,0,-263,173,10,350.23113441467285,350.23121190071106,350.23446702957153,350.24783515930176,350.3947377204895,350.3947377204895,350.3947377204895,350.3947377204895,350.3947377204895,350.3947377204895,350.3947377204895,350.9759018421173,1,0.7232141494750977,None,,,,,,,,,,,,,,,,,,229,1,2025-03-11_12h01.36.307,comp,2024.2.4,None,2025-03-11 12h02.28.830927 -0400,
82,82,0,critical,hdw,20.0,3.0,upper,200.0,125.0,141.0,141.0,125.0,200.0,3,2.4318995475769043,None,,,,,0,0,0,0,0,82,82,117,350.99495124816895,,,,,,,,,,,,,,,,,,,,,,,,,,,,,,,,,,,,,,,,,,,,,,,,,,,,,,,,,,,,,,,,,,,,,,,,,,,,,,,,,200.0,125.0,141.0,141.0,125.0,200.0,3.0,3.1,-229,257,0,-9,266,-285,350.97732162475586,350.9774158000946,350.98038506507874,350.99495124816895,351.1431393623352,351.1431393623352,351.1431393623352,351.1431393623352,351.1431393623352,351.1431393623352,351.1431393623352,353.43158173561096,3,2.4318995475769043,None,,,,,,,,,,,,,,,,,,229,1,2025-03-11_12h01.36.307,comp,2024.2.4,None,2025-03-11 12h02.28.830927 -0400,
83,83,0,critical,whd,20.0,4.0,upper,125.0,200.0,200.0,125.0,141.0,141.0,1,2.9980223178863525,None,,,,,0,0,0,0,0,83,83,95,353.4527847766876,,,,,,,,,,,,,,,,,,,,,,,,,,,,,,,,,,,,,,,,,,,,,,,,,,,,,,,,,,,,,,,,,,,,,,,,,,,,,,,,,125.0,200.0,200.0,125.0,141.0,141.0,4.0,4.1,-258,-254,0,8,229,-268,353.43345856666565,353.4335913658142,353.4388179779053,353.4527847766876,353.5932252407074,353.5932252407074,353.5932252407074,353.5932252407074,353.5932252407074,353.5932252407074,353.5932252407074,356.4581091403961,1,2.9980223178863525,None,,,,,,,,,,,,,,,,,,229,1,2025-03-11_12h01.36.307,comp,2024.2.4,None,2025-03-11 12h02.28.830927 -0400,
84,84,0,filler_square,None,None,None,None,None,None,None,None,None,None,3,1.1041932106018066,None,,,,,0,0,0,0,0,84,84,196,356.4750545024872,,,,,,,,,,,,,,,,,,,,,,,,,,,,,,,,,,,,,,,,,,,,,,,,,,,,,,,,,,,,,,,,,,,,,,,,,,,,,,,,,100.69123486502053,79.72197979758599,116.01449240938693,91.2504948888874,140.95093133793688,140.95093133793688,3.0,3.1,-181,282,0,-9,212,-289,356.45960211753845,356.4596793651581,356.4625732898712,356.4750545024872,356.62292671203613,356.62292671203613,356.62292671203613,356.62292671203613,356.62292671203613,356.62292671203613,356.62292671203613,357.5819671154022,3,1.1041932106018066,None,,,,,,,,,,,,,,,,,,229,1,2025-03-11_12h01.36.307,comp,2024.2.4,None,2025-03-11 12h02.28.830927 -0400,
85,85,0,critical,whd,20.0,1.0,upper,125.0,200.0,200.0,125.0,141.0,141.0,1,7.5007288455963135,None,,,,,0,0,0,0,0,85,85,91,357.59825825691223,,,,,,,,,,,,,,,,,,,,,,,,,,,,,,,,,,,,,,,,,,,,,,,,,,,,,,,,,,,,,,,,,,,,,,,,,,,,,,,,,125.0,200.0,200.0,125.0,141.0,141.0,1.0,1.3,222,-270,480,-288,709,-278,357.58352971076965,357.5836253166199,357.5866012573242,357.59825825691223,357.74627161026,357.74627161026,357.74627161026,357.74627161026,357.74627161026,357.74627161026,357.74627161026,365.1057302951813,1,7.5007288455963135,None,,,,,,,,,,,,,,,,,,229,1,2025-03-11_12h01.36.307,comp,2024.2.4,None,2025-03-11 12h02.28.830927 -0400,
86,86,0,catch,None,None,None,None,None,None,None,None,None,None,1,1.86961030960083,None,,,,,0,0,0,0,0,86,86,125,365.1248297691345,,,,,,,,,,,,,,,,,,,,,,,,,,,,,,,,,,,,,,,,,,,,,,,,,,,,,,,,,,,,,,,,,,,,,,,,,,,,,,,,,176,149,124,66,109,81,4.0,4.2,-204,-7,0,-251,170,2,365.10754227638245,365.1076216697693,365.11049699783325,365.1248297691345,365.2648069858551,365.2648069858551,365.2648069858551,365.2648069858551,365.2648069858551,365.2648069858551,365.2648069858551,367.00861382484436,1,1.86961030960083,None,,,,,,,,,,,,,,,,,,229,1,2025-03-11_12h01.36.307,comp,2024.2.4,None,2025-03-11 12h02.28.830927 -0400,
87,87,0,critical,whd,20.0,2.1,upper,125.0,200.0,200.0,125.0,141.0,141.0,1,3.9944229125976562,None,,,,,0,0,0,0,0,87,87,39,367.0241541862488,,,,,,,,,,,,,,,,,,,,,,,,,,,,,,,,,,,,,,,,,,,,,,,,,,,,,,,,,,,,,,,,,,,,,,,,,,,,,,,,,125.0,200.0,200.0,125.0,141.0,141.0,2.1,2.11,-258,265,0,278,229,-275,367.0101583003998,367.0102388858795,367.0135464668274,367.0241541862488,367.16456484794617,367.16456484794617,367.16456484794617,367.16456484794617,367.16456484794617,367.16456484794617,367.16456484794617,371.0343153476715,1,3.9944229125976562,None,,,,,,,,,,,,,,,,,,229,1,2025-03-11_12h01.36.307,comp,2024.2.4,None,2025-03-11 12h02.28.830927 -0400,
88,88,0,critical,whd,20.0,1.0,lower,57.0,133.0,133.0,57.0,78.0,78.0,1,9.13158917427063,None,,,,,0,0,0,0,0,88,88,90,371.0548219680786,,,,,,,,,,,,,,,,,,,,,,,,,,,,,,,,,,,,,,,,,,,,,,,,,,,,,,,,,,,,,,,,,,,,,,,,,,,,,,,,,57.0,133.0,133.0,57.0,78.0,78.0,1.0,1.1,-671,276,-480,278,-316,288,371.03584361076355,371.03591871261597,371.03882026672363,371.0548219680786,371.19987869262695,371.19987869262695,371.19987869262695,371.19987869262695,371.19987869262695,371.19987869262695,371.19987869262695,380.1903142929077,1,9.13158917427063,None,,,,,,,,,,,,,,,,,,229,1,2025-03-11_12h01.36.307,comp,2024.2.4,None,2025-03-11 12h02.28.830927 -0400,
89,89,0,catch,None,None,None,None,None,None,None,None,None,None,2,1.1884088516235352,None,,,,,0,0,0,0,0,89,89,128,380.2067651748657,,,,,,,,,,,,,,,,,,,,,,,,,,,,,,,,,,,,,,,,,,,,,,,,,,,,,,,,,,,,,,,,,,,,,,,,,,,,,,,,,66,124,186,139,94,96,2.1,2.12,-228,-254,0,-252,214,289,380.19232392311096,380.1924765110016,380.1960234642029,380.2067651748657,380.3521273136139,380.3521273136139,380.3521273136139,380.3521273136139,380.3521273136139,380.3521273136139,380.3521273136139,381.41434717178345,2,1.1884088516235352,None,,,,,,,,,,,,,,,,,,229,1,2025-03-11_12h01.36.307,comp,2024.2.4,None,2025-03-11 12h02.28.830927 -0400,
90,90,0,catch,None,None,None,None,None,None,None,None,None,None,3,1.7723426818847656,None,,,,,0,0,0,0,0,90,90,124,381.4300527572632,,,,,,,,,,,,,,,,,,,,,,,,,,,,,,,,,,,,,,,,,,,,,,,,,,,,,,,,,,,,,,,,,,,,,,,,,,,,,,,,,111,79,123,67,163,162,2.2,2.22,-169,255,0,-254,210,-285,381.4162805080414,381.41634917259216,381.41927433013916,381.4300527572632,381.5748565196991,381.5748565196991,381.5748565196991,381.5748565196991,381.5748565196991,381.5748565196991,381.5748565196991,383.2056202888489,3,1.7723426818847656,None,,,,,,,,,,,,,,,,,,229,1,2025-03-11_12h01.36.307,comp,2024.2.4,None,2025-03-11 12h02.28.830927 -0400,
91,91,0,filler_square,None,None,None,None,None,None,None,None,None,None,3,2.0529675483703613,None,,,,,0,0,0,0,0,91,91,178,383.22131991386414,,,,,,,,,,,,,,,,,,,,,,,,,,,,,,,,,,,,,,,,,,,,,,,,,,,,,,,,,,,,,,,,,,,,,,,,,,,,,,,,,61.77439218734067,68.96380287328262,76.65966344295593,72.09573809825244,91.30051999149589,91.30051999149589,3.0,3.2,-167,-255,0,19,178,255,383.20746397972107,383.207542181015,383.2106192111969,383.22131991386414,383.37318229675293,383.37318229675293,383.37318229675293,383.37318229675293,383.37318229675293,383.37318229675293,383.37318229675293,385.2870466709137,3,2.0529675483703613,None,,,,,,,,,,,,,,,,,,229,1,2025-03-11_12h01.36.307,comp,2024.2.4,None,2025-03-11 12h02.28.830927 -0400,
92,92,0,filler_square,None,None,None,None,None,None,None,None,None,None,2,1.1951818466186523,None,,,,,0,0,0,0,0,92,92,182,385.30375123023987,,,,,,,,,,,,,,,,,,,,,,,,,,,,,,,,,,,,,,,,,,,,,,,,,,,,,,,,,,,,,,,,,,,,,,,,,,,,,,,,,118.61008882777608,105.6490989870691,136.48867540180987,136.48867540180987,101.4852188778377,118.59184368470031,1.0,1.3,263,-277,480,-256,704,-254,385.28898096084595,385.28905963897705,385.29244661331177,385.30375123023987,385.4621078968048,385.4621078968048,385.4621078968048,385.4621078968048,385.4621078968048,385.4621078968048,385.4621078968048,386.5069303512573,2,1.1951818466186523,None,,,,,,,,,,,,,,,,,,229,1,2025-03-11_12h01.36.307,comp,2024.2.4,None,2025-03-11 12h02.28.830927 -0400,
93,93,0,critical,wdh,35.0,4.0,upper,125.0,200.0,127.0,127.0,200.0,125.0,1,2.9280171394348145,None,,,,,0,0,0,0,0,93,93,77,386.5229630470276,,,,,,,,,,,,,,,,,,,,,,,,,,,,,,,,,,,,,,,,,,,,,,,,,,,,,,,,,,,,,,,,,,,,,,,,,,,,,,,,,125.0,200.0,127.0,127.0,200.0,125.0,4.0,4.2,-260,7,0,-268,222,-17,386.5085949897766,386.50871562957764,386.5121626853943,386.5229630470276,386.66011929512024,386.66011929512024,386.66011929512024,386.66011929512024,386.66011929512024,386.66011929512024,386.66011929512024,389.45464515686035,1,2.9280171394348145,None,,,,,,,,,,,,,,,,,,229,1,2025-03-11_12h01.36.307,comp,2024.2.4,None,2025-03-11 12h02.28.830927 -0400,
94,94,0,critical,hdw,20.0,2.1,lower,133.0,57.0,78.0,78.0,57.0,133.0,3,7.411242246627808,None,,,,,0,0,0,0,0,94,94,46,389.4712417125702,,,,,,,,,,,,,,,,,,,,,,,,,,,,,,,,,,,,,,,,,,,,,,,,,,,,,,,,,,,,,,,,,,,,,,,,,,,,,,,,,133.0,57.0,78.0,78.0,57.0,133.0,2.1,2.12,-164,-265,0,-284,202,289,389.4561650753021,389.456246137619,389.45944595336914,389.4712417125702,389.6200428009033,389.6200428009033,389.6200428009033,389.6200428009033,389.6200428009033,389.6200428009033,389.6200428009033,396.8921332359314,3,7.411242246627808,None,,,,,,,,,,,,,,,,,,229,1,2025-03-11_12h01.36.307,comp,2024.2.4,None,2025-03-11 12h02.28.830927 -0400,
95,95,0,critical,hdw,20.0,1.0,lower,133.0,57.0,78.0,78.0,57.0,133.0,2,2.6462676525115967,None,,,,,0,0,0,0,0,95,95,114,396.908189535141,,,,,,,,,,,,,,,,,,,,,,,,,,,,,,,,,,,,,,,,,,,,,,,,,,,,,,,,,,,,,,,,,,,,,,,,,,,,,,,,,133.0,57.0,78.0,78.0,57.0,133.0,1.0,1.3,316,-258,480,-290,682,-275,396.89360880851746,396.89368510246277,396.8965847492218,396.908189535141,397.0564260482788,397.0564260482788,397.0564260482788,397.0564260482788,397.0564260482788,397.0564260482788,397.0564260482788,399.5588765144348,2,2.6462676525115967,None,,,,,,,,,,,,,,,,,,229,1,2025-03-11_12h01.36.307,comp,2024.2.4,None,2025-03-11 12h02.28.830927 -0400,
96,96,0,filler_random,None,None,None,None,None,None,None,None,None,None,1,1.714879035949707,None,,,,,0,0,0,0,0,96,96,164,399.5755262374878,,,,,,,,,,,,,,,,,,,,,,,,,,,,,,,,,,,,,,,,,,,,,,,,,,,,,,,,,,,,,,,,,,,,,,,,,,,,,,,,,126.92116206428165,198.7709522342125,122.35555546946051,142.379193536682,181.89992800611577,94.93170584128119,2.2,2.21,-267,-257,0,257,215,252,399.5606961250305,399.5608217716217,399.5648455619812,399.5755262374878,399.72348141670227,399.72348141670227,399.72348141670227,399.72348141670227,399.72348141670227,399.72348141670227,399.72348141670227,401.29268884658813,1,1.714879035949707,None,,,,,,,,,,,,,,,,,,229,1,2025-03-11_12h01.36.307,comp,2024.2.4,None,2025-03-11 12h02.28.830927 -0400,
97,97,0,filler_random,None,None,None,None,None,None,None,None,None,None,1,1.6695456504821777,None,,,,,0,0,0,0,0,97,97,169,401.30901646614075,,,,,,,,,,,,,,,,,,,,,,,,,,,,,,,,,,,,,,,,,,,,,,,,,,,,,,,,,,,,,,,,,,,,,,,,,,,,,,,,,162.27795340723668,167.50400959437457,77.07614849653403,143.80258787206884,147.85928697322913,80.04106157739983,2.1,2.11,-252,290,0,261,208,-266,401.29461646080017,401.2946951389313,401.2981550693512,401.30901646614075,401.46047472953796,401.46047472953796,401.46047472953796,401.46047472953796,401.46047472953796,401.46047472953796,401.46047472953796,402.99667620658875,1,1.6695456504821777,None,,,,,,,,,,,,,,,,,,229,1,2025-03-11_12h01.36.307,comp,2024.2.4,None,2025-03-11 12h02.28.830927 -0400,
98,98,0,filler_square,None,None,None,None,None,None,None,None,None,None,1,1.3901088237762451,None,,,,,0,0,0,0,0,98,98,195,403.0126156806946,,,,,,,,,,,,,,,,,,,,,,,,,,,,,,,,,,,,,,,,,,,,,,,,,,,,,,,,,,,,,,,,,,,,,,,,,,,,,,,,,146.40163387554117,146.40163387554117,59.53544593103225,107.67875291242461,69.66327586190499,125.57007378292424,1.0,1.3,257,-288,480,-257,693,-279,402.99886775016785,402.99894523620605,403.0022060871124,403.0126156806946,403.16193199157715,403.16193199157715,403.16193199157715,403.16193199157715,403.16193199157715,403.16193199157715,403.16193199157715,404.4127070903778,1,1.3901088237762451,None,,,,,,,,,,,,,,,,,,229,1,2025-03-11_12h01.36.307,comp,2024.2.4,None,2025-03-11 12h02.28.830927 -0400,
99,99,0,filler_random,None,None,None,None,None,None,None,None,None,None,1,2.4035398960113525,None,,,,,0,0,0,0,0,99,99,135,404.4309551715851,,,,,,,,,,,,,,,,,,,,,,,,,,,,,,,,,,,,,,,,,,,,,,,,,,,,,,,,,,,,,,,,,,,,,,,,,,,,,,,,,151.70691677706012,97.17532085686547,163.5942666643336,90.91151306187146,136.1250607367244,60.97123259590668,4.0,4.1,-190,-285,0,-2,172,-289,404.41459703445435,404.41467547416687,404.41762471199036,404.4309551715851,404.57696175575256,404.57696175575256,404.57696175575256,404.57696175575256,404.57696175575256,404.57696175575256,404.57696175575256,406.83824014663696,1,2.4035398960113525,None,,,,,,,,,,,,,,,,,,229,1,2025-03-11_12h01.36.307,comp,2024.2.4,None,2025-03-11 12h02.28.830927 -0400,
100,100,0,critical,whd,35.0,2.1,upper,125.0,200.0,200.0,125.0,127.0,127.0,2,1.8527162075042725,None,,,,,0,0,0,0,0,100,100,37,406.85436487197876,,,,,,,,,,,,,,,,,,,,,,,,,,,,,,,,,,,,,,,,,,,,,,,,,,,,,,,,,,,,,,,,,,,,,,,,,,,,,,,,,125.0,200.0,200.0,125.0,127.0,127.0,2.1,2.11,-258,290,0,254,222,-280,406.83994364738464,406.84002232551575,406.84326004981995,406.85436487197876,406.99428486824036,406.99428486824036,406.99428486824036,406.99428486824036,406.99428486824036,406.99428486824036,406.99428486824036,408.7125473022461,2,1.8527162075042725,None,,,,,,,,,,,,,,,,,,229,1,2025-03-11_12h01.36.307,comp,2024.2.4,None,2025-03-11 12h02.28.830927 -0400,
101,101,0,critical,whd,35.0,4.0,upper,125.0,200.0,200.0,125.0,127.0,127.0,2,0.9383804798126221,None,,,,,0,0,0,0,0,101,101,89,408.72806119918823,,,,,,,,,,,,,,,,,,,,,,,,,,,,,,,,,,,,,,,,,,,,,,,,,,,,,,,,,,,,,,,,,,,,,,,,,,,,,,,,,125.0,200.0,200.0,125.0,127.0,127.0,4.0,4.2,-258,-4,0,-281,222,6,408.7140519618988,408.71413016319275,408.71746730804443,408.72806119918823,408.87769627571106,408.87769627571106,408.87769627571106,408.87769627571106,408.87769627571106,408.87769627571106,408.87769627571106,409.6798257827759,2,0.9383804798126221,None,,,,,,,,,,,,,,,,,,229,1,2025-03-11_12h01.36.307,comp,2024.2.4,None,2025-03-11 12h02.28.830927 -0400,
102,102,0,filler_random,None,None,None,None,None,None,None,None,None,None,1,3.5019078254699707,None,,,,,0,0,0,0,0,102,102,159,409.7005624771118,,,,,,,,,,,,,,,,,,,,,,,,,,,,,,,,,,,,,,,,,,,,,,,,,,,,,,,,,,,,,,,,,,,,,,,,,,,,,,,,,161.62701974096302,113.28233211925149,164.78731476635377,83.48132375517346,124.72402579253648,109.84601821408862,3.0,3.1,-194,280,0,17,193,-265,409.6815528869629,409.68168115615845,409.68488574028015,409.7005624771118,409.84568786621094,409.84568786621094,409.84568786621094,409.84568786621094,409.84568786621094,409.84568786621094,409.84568786621094,413.2203814983368,1,3.5019078254699707,None,,,,,,,,,,,,,,,,,,229,1,2025-03-11_12h01.36.307,comp,2024.2.4,None,2025-03-11 12h02.28.830927 -0400,
103,103,0,critical,wdh,20.0,2.1,upper,125.0,200.0,141.0,141.0,200.0,125.0,1,10.674940347671509,None,,,,,0,0,0,0,0,103,103,11,413.23974537849426,,,,,,,,,,,,,,,,,,,,,,,,,,,,,,,,,,,,,,,,,,,,,,,,,,,,,,,,,,,,,,,,,,,,,,,,,,,,,,,,,125.0,200.0,141.0,141.0,200.0,125.0,2.1,2.12,-266,-286,0,-265,229,271,413.2218437194824,413.2219181060791,413.22480845451355,413.23974537849426,413.38083148002625,413.38083148002625,413.38083148002625,413.38083148002625,413.38083148002625,413.38083148002625,413.38083148002625,423.9219651222229,1,10.674940347671509,None,,,,,,,,,,,,,,,,,,229,1,2025-03-11_12h01.36.307,comp,2024.2.4,None,2025-03-11 12h02.28.830927 -0400,
104,104,0,critical,whd,35.0,3.0,lower,57.0,133.0,133.0,57.0,70.0,70.0,2,8.64950704574585,None,,,,,0,0,0,0,0,104,104,86,423.93706130981445,,,,,,,,,,,,,,,,,,,,,,,,,,,,,,,,,,,,,,,,,,,,,,,,,,,,,,,,,,,,,,,,,,,,,,,,,,,,,,,,,57.0,133.0,133.0,57.0,70.0,70.0,3.0,3.2,-191,-263,0,-11,160,253,423.92345118522644,423.9235324859619,423.9263370037079,423.93706130981445,424.0825366973877,424.0825366973877,424.0825366973877,424.0825366973877,424.0825366973877,424.0825366973877,424.0825366973877,432.6034355163574,2,8.64950704574585,None,,,,,,,,,,,,,,,,,,229,1,2025-03-11_12h01.36.307,comp,2024.2.4,None,2025-03-11 12h02.28.830927 -0400,
105,105,0,critical,hwd,35.0,2.1,lower,133.0,57.0,57.0,133.0,70.0,70.0,2,5.728368043899536,None,,,,,0,0,0,0,0,105,105,16,432.61859488487244,,,,,,,,,,,,,,,,,,,,,,,,,,,,,,,,,,,,,,,,,,,,,,,,,,,,,,,,,,,,,,,,,,,,,,,,,,,,,,,,,133.0,57.0,57.0,133.0,70.0,70.0,2.1,2.12,-191,-252,0,-256,198,282,432.60464453697205,432.60468316078186,432.6062433719635,432.61859488487244,432.77150797843933,432.77150797843933,432.77150797843933,432.77150797843933,432.77150797843933,432.77150797843933,432.77150797843933,438.35841035842896,2,5.728368043899536,None,,,,,,,,,,,,,,,,,,229,1,2025-03-11_12h01.36.307,comp,2024.2.4,None,2025-03-11 12h02.28.830927 -0400,
106,106,0,critical,whd,35.0,2.1,upper,125.0,200.0,200.0,125.0,127.0,127.0,1,1.81657075881958,None,,,,,0,0,0,0,0,106,106,13,438.3786907196045,,,,,,,,,,,,,,,,,,,,,,,,,,,,,,,,,,,,,,,,,,,,,,,,,,,,,,,,,,,,,,,,,,,,,,,,,,,,,,,,,125.0,200.0,200.0,125.0,127.0,127.0,2.1,2.12,-258,-262,0,-289,222,269,438.3601031303406,438.360182762146,438.3630881309509,438.3786907196045,438.5233018398285,438.5233018398285,438.5233018398285,438.5233018398285,438.5233018398285,438.5233018398285,438.5233018398285,440.2059166431427,1,1.81657075881958,None,,,,,,,,,,,,,,,,,,229,1,2025-03-11_12h01.36.307,comp,2024.2.4,None,2025-03-11 12h02.28.830927 -0400,
107,107,0,critical,wdh,20.0,3.0,upper,125.0,200.0,141.0,141.0,200.0,125.0,1,2.220623016357422,None,,,,,0,0,0,0,0,107,107,81,440.22174882888794,,,,,,,,,,,,,,,,,,,,,,,,,,,,,,,,,,,,,,,,,,,,,,,,,,,,,,,,,,,,,,,,,,,,,,,,,,,,,,,,,125.0,200.0,141.0,141.0,200.0,125.0,3.0,3.1,-266,253,0,-17,229,-284,440.20741629600525,440.207496881485,440.2109909057617,440.22174882888794,440.36847400665283,440.36847400665283,440.36847400665283,440.36847400665283,440.36847400665283,440.36847400665283,440.36847400665283,442.4533634185791,1,2.220623016357422,None,,,,,,,,,,,,,,,,,,229,1,2025-03-11_12h01.36.307,comp,2024.2.4,None,2025-03-11 12h02.28.830927 -0400,
108,108,0,filler_square,None,None,None,None,None,None,None,None,None,None,3,1.863999605178833,None,,,,,0,0,0,0,0,108,108,192,442.46942806243896,,,,,,,,,,,,,,,,,,,,,,,,,,,,,,,,,,,,,,,,,,,,,,,,,,,,,,,,,,,,,,,,,,,,,,,,,,,,,,,,,63.78973834748685,98.06373656367293,81.10112296091707,76.09674871730401,132.55445913094155,132.55445913094155,2.2,2.22,-183,290,0,-271,200,-276,442.45547914505005,442.4555585384369,442.4589319229126,442.46942806243896,442.6068878173828,442.6068878173828,442.6068878173828,442.6068878173828,442.6068878173828,442.6068878173828,442.6068878173828,444.3382842540741,3,1.863999605178833,None,,,,,,,,,,,,,,,,,,229,1,2025-03-11_12h01.36.307,comp,2024.2.4,None,2025-03-11 12h02.28.830927 -0400,
109,109,0,filler_square,None,None,None,None,None,None,None,None,None,None,3,1.9516968727111816,None,,,,,0,0,0,0,0,109,109,190,444.35478377342224,,,,,,,,,,,,,,,,,,,,,,,,,,,,,,,,,,,,,,,,,,,,,,,,,,,,,,,,,,,,,,,,,,,,,,,,,,,,,,,,,109.22239284389667,106.01324841272601,119.5717626767997,63.90483528262686,137.6262455646487,137.6262455646487,3.0,3.1,-181,251,0,6,197,-255,444.3401303291321,444.3402509689331,444.3434250354767,444.35478377342224,444.51087403297424,444.51087403297424,444.51087403297424,444.51087403297424,444.51087403297424,444.51087403297424,444.51087403297424,446.31979751586914,3,1.9516968727111816,None,,,,,,,,,,,,,,,,,,229,1,2025-03-11_12h01.36.307,comp,2024.2.4,None,2025-03-11 12h02.28.830927 -0400,
110,110,0,critical,dwh,35.0,1.0,lower,70.0,70.0,57.0,133.0,133.0,57.0,2,3.000737190246582,None,,,,,0,0,0,0,0,110,110,60,446.33770751953125,,,,,,,,,,,,,,,,,,,,,,,,,,,,,,,,,,,,,,,,,,,,,,,,,,,,,,,,,,,,,,,,,,,,,,,,,,,,,,,,,70.0,70.0,57.0,133.0,133.0,57.0,1.0,1.1,-678,251,-480,265,-289,269,446.3213424682617,446.32144808769226,446.3246867656708,446.33770751953125,446.4728775024414,446.4728775024414,446.4728775024414,446.4728775024414,446.4728775024414,446.4728775024414,446.4728775024414,449.35617089271545,2,3.000737190246582,None,,,,,,,,,,,,,,,,,,229,1,2025-03-11_12h01.36.307,comp,2024.2.4,None,2025-03-11 12h02.28.830927 -0400,
111,111,0,critical,wdh,20.0,1.0,upper,125.0,200.0,141.0,141.0,200.0,125.0,1,2.0781095027923584,None,,,,,0,0,0,0,0,111,111,79,449.372355222702,,,,,,,,,,,,,,,,,,,,,,,,,,,,,,,,,,,,,,,,,,,,,,,,,,,,,,,,,,,,,,,,,,,,,,,,,,,,,,,,,125.0,200.0,141.0,141.0,200.0,125.0,1.0,1.2,-266,13,0,-14,229,12,449.35776138305664,449.3578407764435,449.3609004020691,449.372355222702,449.52397656440735,449.52397656440735,449.52397656440735,449.52397656440735,449.52397656440735,449.52397656440735,449.52397656440735,451.46357440948486,1,2.0781095027923584,None,,,,,,,,,,,,,,,,,,229,1,2025-03-11_12h01.36.307,comp,2024.2.4,None,2025-03-11 12h02.28.830927 -0400,
112,112,0,critical,wdh,20.0,1.0,lower,57.0,133.0,78.0,78.0,133.0,57.0,1,4.659996747970581,None,,,,,0,0,0,0,0,112,112,78,451.47837114334106,,,,,,,,,,,,,,,,,,,,,,,,,,,,,,,,,,,,,,,,,,,,,,,,,,,,,,,,,,,,,,,,,,,,,,,,,,,,,,,,,57.0,133.0,78.0,78.0,133.0,57.0,1.0,1.3,278,-270,480,-271,644,-260,451.46506524086,451.4651391506195,451.46802735328674,451.47837114334106,451.6229615211487,451.6229615211487,451.6229615211487,451.6229615211487,451.6229615211487,451.6229615211487,451.6229615211487,456.1522662639618,1,4.659996747970581,None,,,,,,,,,,,,,,,,,,229,1,2025-03-11_12h01.36.307,comp,2024.2.4,None,2025-03-11 12h02.28.830927 -0400,
113,113,0,filler_random,None,None,None,None,None,None,None,None,None,None,1,1.2757914066314697,None,,,,,0,0,0,0,0,113,113,132,456.1672797203064,,,,,,,,,,,,,,,,,,,,,,,,,,,,,,,,,,,,,,,,,,,,,,,,,,,,,,,,,,,,,,,,,,,,,,,,,,,,,,,,,185.0868216191543,171.5444332773837,99.79793940411379,167.19201012504834,88.46734960251307,182.31166496252007,3.0,3.2,-265,-275,0,-15,271,288,456.1539583206177,456.15403485298157,456.15687227249146,456.1672797203064,456.31107807159424,456.31107807159424,456.31107807159424,456.31107807159424,456.31107807159424,456.31107807159424,456.31107807159424,457.4517288208008,1,1.2757914066314697,None,,,,,,,,,,,,,,,,,,229,1,2025-03-11_12h01.36.307,comp,2024.2.4,None,2025-03-11 12h02.28.830927 -0400,
114,114,0,critical,wdh,20.0,2.1,upper,125.0,200.0,141.0,141.0,200.0,125.0,1,2.478727340698242,None,,,,,0,0,0,0,0,114,114,35,457.46776151657104,,,,,,,,,,,,,,,,,,,,,,,,,,,,,,,,,,,,,,,,,,,,,,,,,,,,,,,,,,,,,,,,,,,,,,,,,,,,,,,,,125.0,200.0,141.0,141.0,200.0,125.0,2.1,2.12,-266,-268,0,-287,229,257,457.45323371887207,457.45331048965454,457.4562222957611,457.46776151657104,457.6144859790802,457.6144859790802,457.6144859790802,457.6144859790802,457.6144859790802,457.6144859790802,457.6144859790802,459.95947313308716,1,2.478727340698242,None,,,,,,,,,,,,,,,,,,229,1,2025-03-11_12h01.36.307,comp,2024.2.4,None,2025-03-11 12h02.28.830927 -0400,
115,115,0,filler_square,None,None,None,None,None,None,None,None,None,None,3,1.3860752582550049,None,,,,,0,0,0,0,0,115,115,173,459.97704553604126,,,,,,,,,,,,,,,,,,,,,,,,,,,,,,,,,,,,,,,,,,,,,,,,,,,,,,,,,,,,,,,,,,,,,,,,,,,,,,,,,112.04871194232749,112.9054844873255,142.39967013668064,121.29695683790796,177.84002200957264,177.84002200957264,3.0,3.2,-213,-267,0,-15,246,254,459.96126985549927,459.9613456726074,459.9645082950592,459.97704553604126,460.12352561950684,460.12352561950684,460.12352561950684,460.12352561950684,460.12352561950684,460.12352561950684,460.12352561950684,461.3691260814667,3,1.3860752582550049,None,,,,,,,,,,,,,,,,,,229,1,2025-03-11_12h01.36.307,comp,2024.2.4,None,2025-03-11 12h02.28.830927 -0400,
116,116,0,filler_random,None,None,None,None,None,None,None,None,None,None,2,1.247922658920288,None,,,,,0,0,0,0,0,116,116,157,461.40300726890564,,,,,,,,,,,,,,,,,,,,,,,,,,,,,,,,,,,,,,,,,,,,,,,,,,,,,,,,,,,,,,,,,,,,,,,,,,,,,,,,,66.73032078590421,156.2029646926106,141.16986617614037,112.57302490216468,60.14330935738617,93.78077441243238,3.0,3.2,-230,-255,0,14,199,283,461.3709945678711,461.3710792064667,461.3741579055786,461.40300726890564,461.5303647518158,461.5303647518158,461.5303647518158,461.5303647518158,461.5303647518158,461.5303647518158,461.5303647518158,462.6606025695801,2,1.247922658920288,None,,,,,,,,,,,,,,,,,,229,1,2025-03-11_12h01.36.307,comp,2024.2.4,None,2025-03-11 12h02.28.830927 -0400,
117,117,0,critical,hdw,20.0,2.1,upper,200.0,125.0,141.0,141.0,125.0,200.0,3,2.5880019664764404,None,,,,,0,0,0,0,0,117,117,23,462.67841720581055,,,,,,,,,,,,,,,,,,,,,,,,,,,,,,,,,,,,,,,,,,,,,,,,,,,,,,,,,,,,,,,,,,,,,,,,,,,,,,,,,200.0,125.0,141.0,141.0,125.0,200.0,2.1,2.11,-229,288,0,258,266,-255,462.6620931625366,462.6621730327606,462.66533184051514,462.67841720581055,462.82669496536255,462.82669496536255,462.82669496536255,462.82669496536255,462.82669496536255,462.82669496536255,462.82669496536255,465.27643489837646,3,2.5880019664764404,None,,,,,,,,,,,,,,,,,,229,1,2025-03-11_12h01.36.307,comp,2024.2.4,None,2025-03-11 12h02.28.830927 -0400,
118,118,0,critical,dhw,35.0,3.0,lower,70.0,70.0,133.0,57.0,57.0,133.0,2,2.557710886001587,None,,,,,0,0,0,0,0,118,118,50,465.2926390171051,,,,,,,,,,,,,,,,,,,,,,,,,,,,,,,,,,,,,,,,,,,,,,,,,,,,,,,,,,,,,,,,,,,,,,,,,,,,,,,,,70.0,70.0,133.0,57.0,57.0,133.0,3.0,3.1,-160,274,0,18,191,-250,465.2779264450073,465.2780065536499,465.28087544441223,465.2926390171051,465.43162965774536,465.43162965774536,465.43162965774536,465.43162965774536,465.43162965774536,465.43162965774536,465.43162965774536,467.8620409965515,2,2.557710886001587,None,,,,,,,,,,,,,,,,,,229,1,2025-03-11_12h01.36.307,comp,2024.2.4,None,2025-03-11 12h02.28.830927 -0400,
119,119,0,critical,wdh,35.0,1.0,lower,57.0,133.0,70.0,70.0,133.0,57.0,3,4.95646858215332,None,,,,,0,0,0,0,0,119,119,72,467.8779819011688,,,,,,,,,,,,,,,,,,,,,,,,,,,,,,,,,,,,,,,,,,,,,,,,,,,,,,,,,,,,,,,,,,,,,,,,,,,,,,,,,57.0,133.0,70.0,70.0,133.0,57.0,1.0,1.2,-198,5,0,5,160,-17,467.86349654197693,467.8635697364807,467.86653757095337,467.8779819011688,468.0302565097809,468.0302565097809,468.0302565097809,468.0302565097809,468.0302565097809,468.0302565097809,468.0302565097809,472.85021233558655,3,4.95646858215332,None,,,,,,,,,,,,,,,,,,229,1,2025-03-11_12h01.36.307,comp,2024.2.4,None,2025-03-11 12h02.28.830927 -0400,
120,120,0,critical,dwh,35.0,1.0,upper,127.0,127.0,125.0,200.0,200.0,125.0,2,2.2631418704986572,None,,,,,0,0,0,0,0,120,120,61,472.86790585517883,,,,,,,,,,,,,,,,,,,,,,,,,,,,,,,,,,,,,,,,,,,,,,,,,,,,,,,,,,,,,,,,,,,,,,,,,,,,,,,,,127.0,127.0,125.0,200.0,200.0,125.0,1.0,1.3,220,-281,480,-254,738,-284,472.85203075408936,472.85216999053955,472.8553533554077,472.86790585517883,473.01537108421326,473.01537108421326,473.01537108421326,473.01537108421326,473.01537108421326,473.01537108421326,473.01537108421326,475.13473773002625,2,2.2631418704986572,None,,,,,,,,,,,,,,,,,,229,1,2025-03-11_12h01.36.307,comp,2024.2.4,None,2025-03-11 12h02.28.830927 -0400,
121,121,0,filler_random,None,None,None,None,None,None,None,None,None,None,2,1.2829957008361816,None,,,,,0,0,0,0,0,121,121,153,475.1515152454376,,,,,,,,,,,,,,,,,,,,,,,,,,,,,,,,,,,,,,,,,,,,,,,,,,,,,,,,,,,,,,,,,,,,,,,,,,,,,,,,,192.50057599381083,64.9554491142821,192.77014428091624,175.71528153050562,90.51205421653765,171.32692266311335,1.0,1.2,-216,-2,0,-20,270,-20,475.13666558265686,475.1367495059967,475.1406397819519,475.1515152454376,475.2995059490204,475.2995059490204,475.2995059490204,475.2995059490204,475.2995059490204,475.2995059490204,475.2995059490204,476.44944429397583,2,1.2829957008361816,None,,,,,,,,,,,,,,,,,,229,1,2025-03-11_12h01.36.307,comp,2024.2.4,None,2025-03-11 12h02.28.830927 -0400,
122,122,0,critical,dwh,20.0,2.1,lower,78.0,78.0,57.0,133.0,133.0,57.0,2,1.3070108890533447,None,,,,,0,0,0,0,0,122,122,6,476.4644765853882,,,,,,,,,,,,,,,,,,,,,,,,,,,,,,,,,,,,,,,,,,,,,,,,,,,,,,,,,,,,,,,,,,,,,,,,,,,,,,,,,78.0,78.0,57.0,133.0,133.0,57.0,2.1,2.11,-202,270,0,279,191,-262,476.45090651512146,476.4509816169739,476.45391035079956,476.4644765853882,476.6049304008484,476.6049304008484,476.6049304008484,476.6049304008484,476.6049304008484,476.6049304008484,476.6049304008484,477.7829005718231,2,1.3070108890533447,None,,,,,,,,,,,,,,,,,,229,1,2025-03-11_12h01.36.307,comp,2024.2.4,None,2025-03-11 12h02.28.830927 -0400,
123,123,0,critical,whd,35.0,4.0,lower,57.0,133.0,133.0,57.0,70.0,70.0,1,7.636099815368652,None,,,,,0,0,0,0,0,123,123,88,477.79843950271606,,,,,,,,,,,,,,,,,,,,,,,,,,,,,,,,,,,,,,,,,,,,,,,,,,,,,,,,,,,,,,,,,,,,,,,,,,,,,,,,,57.0,133.0,133.0,57.0,70.0,70.0,4.0,4.2,-191,-13,0,-255,160,20,477.78442120552063,477.7844970226288,477.7877948284149,477.79843950271606,477.94946217536926,477.94946217536926,477.94946217536926,477.94946217536926,477.94946217536926,477.94946217536926,477.94946217536926,485.43690252304077,1,7.636099815368652,None,,,,,,,,,,,,,,,,,,229,1,2025-03-11_12h01.36.307,comp,2024.2.4,None,2025-03-11 12h02.28.830927 -0400,
124,124,0,filler_square,None,None,None,None,None,None,None,None,None,None,1,1.3253040313720703,None,,,,,0,0,0,0,0,124,124,185,485.4537389278412,,,,,,,,,,,,,,,,,,,,,,,,,,,,,,,,,,,,,,,,,,,,,,,,,,,,,,,,,,,,,,,,,,,,,,,,,,,,,,,,,129.31544752262135,129.31544752262135,97.61012836549705,63.83725168485319,76.09114397701123,127.28566197127452,2.2,2.22,-193,277,0,-276,192,-259,485.43869376182556,485.43882513046265,485.44213461875916,485.4537389278412,485.6016721725464,485.6016721725464,485.6016721725464,485.6016721725464,485.6016721725464,485.6016721725464,485.6016721725464,486.7837038040161,1,1.3253040313720703,None,,,,,,,,,,,,,,,,,,229,1,2025-03-11_12h01.36.307,comp,2024.2.4,None,2025-03-11 12h02.28.830927 -0400,
125,125,0,critical,hwd,20.0,2.1,lower,133.0,57.0,57.0,133.0,78.0,78.0,2,3.538882255554199,None,,,,,0,0,0,0,0,125,125,42,486.79964327812195,,,,,,,,,,,,,,,,,,,,,,,,,,,,,,,,,,,,,,,,,,,,,,,,,,,,,,,,,,,,,,,,,,,,,,,,,,,,,,,,,133.0,57.0,57.0,133.0,78.0,78.0,2.1,2.12,-191,-264,0,-278,202,267,486.7851495742798,486.78522634506226,486.78807377815247,486.79964327812195,486.9553530216217,486.9553530216217,486.9553530216217,486.9553530216217,486.9553530216217,486.9553530216217,486.9553530216217,490.3538444042206,2,3.538882255554199,None,,,,,,,,,,,,,,,,,,229,1,2025-03-11_12h01.36.307,comp,2024.2.4,None,2025-03-11 12h02.28.830927 -0400,
126,126,0,critical,hwd,35.0,2.1,lower,133.0,57.0,57.0,133.0,70.0,70.0,2,3.2337281703948975,None,,,,,0,0,0,0,0,126,126,40,490.3688793182373,,,,,,,,,,,,,,,,,,,,,,,,,,,,,,,,,,,,,,,,,,,,,,,,,,,,,,,,,,,,,,,,,,,,,,,,,,,,,,,,,133.0,57.0,57.0,133.0,70.0,70.0,2.1,2.11,-191,275,0,253,198,-284,490.35529923439026,490.3553731441498,490.3584327697754,490.3688793182373,490.509286403656,490.509286403656,490.509286403656,490.509286403656,490.509286403656,490.509286403656,490.509286403656,493.615571975708,2,3.2337281703948975,None,,,,,,,,,,,,,,,,,,229,1,2025-03-11_12h01.36.307,comp,2024.2.4,None,2025-03-11 12h02.28.830927 -0400,
127,127,0,filler_random,None,None,None,None,None,None,None,None,None,None,1,1.4877116680145264,None,,,,,0,0,0,0,0,127,127,138,493.6348328590393,,,,,,,,,,,,,,,,,,,,,,,,,,,,,,,,,,,,,,,,,,,,,,,,,,,,,,,,,,,,,,,,,,,,,,,,,,,,,,,,,173.3183682957561,158.17159468808097,184.91688713990362,150.10384296626685,106.18121366321833,161.45835179629796,4.0,4.1,-250,-269,0,2,252,-262,493.61721777915955,493.61729860305786,493.62015748023987,493.6348328590393,493.77494621276855,493.77494621276855,493.77494621276855,493.77494621276855,493.77494621276855,493.77494621276855,493.77494621276855,495.13913559913635,1,1.4877116680145264,None,,,,,,,,,,,,,,,,,,229,1,2025-03-11_12h01.36.307,comp,2024.2.4,None,2025-03-11 12h02.28.830927 -0400,
128,128,0,filler_square,None,None,None,None,None,None,None,None,None,None,3,1.6559088230133057,None,,,,,0,0,0,0,0,128,128,197,495.1548089981079,,,,,,,,,,,,,,,,,,,,,,,,,,,,,,,,,,,,,,,,,,,,,,,,,,,,,,,,,,,,,,,,,,,,,,,,,,,,,,,,,67.69746852193578,81.4769081850543,60.456886243010445,68.89145708951551,98.16301604611408,98.16301604611408,3.0,3.1,-171,271,0,-12,180,-257,495.14099884033203,495.14112186431885,495.1445486545563,495.1548089981079,495.30498218536377,495.30498218536377,495.30498218536377,495.30498218536377,495.30498218536377,495.30498218536377,495.30498218536377,496.8220498561859,3,1.6559088230133057,None,,,,,,,,,,,,,,,,,,229,1,2025-03-11_12h01.36.307,comp,2024.2.4,None,2025-03-11 12h02.28.830927 -0400,
129,129,0,filler_square,None,None,None,None,None,None,None,None,None,None,3,1.2846202850341797,None,,,,,0,0,0,0,0,129,129,172,496.8381247520447,,,,,,,,,,,,,,,,,,,,,,,,,,,,,,,,,,,,,,,,,,,,,,,,,,,,,,,,,,,,,,,,,,,,,,,,,,,,,,,,,58.02759044321387,151.2943412583299,86.27661756509832,74.16711994275906,159.93188754186986,159.93188754186986,3.0,3.1,-209,286,0,19,213,-273,496.8237524032593,496.82382893562317,496.827032327652,496.8381247520447,496.9951045513153,496.9951045513153,496.9951045513153,496.9951045513153,496.9951045513153,496.9951045513153,496.9951045513153,498.1246464252472,3,1.2846202850341797,None,,,,,,,,,,,,,,,,,,229,1,2025-03-11_12h01.36.307,comp,2024.2.4,None,2025-03-11 12h02.28.830927 -0400,
130,130,0,critical,dwh,35.0,3.0,lower,70.0,70.0,57.0,133.0,133.0,57.0,2,2.670504570007324,None,,,,,0,0,0,0,0,130,130,62,498.14000844955444,,,,,,,,,,,,,,,,,,,,,,,,,,,,,,,,,,,,,,,,,,,,,,,,,,,,,,,,,,,,,,,,,,,,,,,,,,,,,,,,,70.0,70.0,57.0,133.0,133.0,57.0,3.0,3.1,-198,271,0,17,191,-286,498.1262323856354,498.12631154060364,498.1294364929199,498.14000844955444,498.2931504249573,498.2931504249573,498.2931504249573,498.2931504249573,498.2931504249573,498.2931504249573,498.2931504249573,500.8227252960205,2,2.670504570007324,None,,,,,,,,,,,,,,,,,,229,1,2025-03-11_12h01.36.307,comp,2024.2.4,None,2025-03-11 12h02.28.830927 -0400,
131,131,0,filler_square,None,None,None,None,None,None,None,None,None,None,2,1.382990837097168,None,,,,,0,0,0,0,0,131,131,188,500.84361815452576,,,,,,,,,,,,,,,,,,,,,,,,,,,,,,,,,,,,,,,,,,,,,,,,,,,,,,,,,,,,,,,,,,,,,,,,,,,,,,,,,105.89011494682757,57.713573853389576,107.68565702328229,107.68565702328229,80.04081469211368,97.05968277654921,2.2,2.22,-179,272,0,-272,198,-268,500.8246386051178,500.82474064826965,500.8282690048218,500.84361815452576,500.99060821533203,500.99060821533203,500.99060821533203,500.99060821533203,500.99060821533203,500.99060821533203,500.99060821533203,502.2406153678894,2,1.382990837097168,None,,,,,,,,,,,,,,,,,,229,1,2025-03-11_12h01.36.307,comp,2024.2.4,None,2025-03-11 12h02.28.830927 -0400,
132,132,0,critical,dhw,20.0,2.1,lower,78.0,78.0,133.0,57.0,57.0,133.0,3,3.8339524269104004,None,,,,,0,0,0,0,0,132,132,2,502.2565071582794,,,,,,,,,,,,,,,,,,,,,,,,,,,,,,,,,,,,,,,,,,,,,,,,,,,,,,,,,,,,,,,,,,,,,,,,,,,,,,,,,78.0,78.0,133.0,57.0,57.0,133.0,2.1,2.12,-164,-260,0,-271,191,252,502.24215602874756,502.24223136901855,502.24619817733765,502.2565071582794,502.41279101371765,502.41279101371765,502.41279101371765,502.41279101371765,502.41279101371765,502.41279101371765,502.41279101371765,506.107848405838,3,3.8339524269104004,None,,,,,,,,,,,,,,,,,,229,1,2025-03-11_12h01.36.307,comp,2024.2.4,None,2025-03-11 12h02.28.830927 -0400,
133,133,0,filler_square,None,None,None,None,None,None,None,None,None,None,2,1.2627794742584229,None,,,,,0,0,0,0,0,133,133,198,506.12450432777405,,,,,,,,,,,,,,,,,,,,,,,,,,,,,,,,,,,,,,,,,,,,,,,,,,,,,,,,,,,,,,,,,,,,,,,,,,,,,,,,,62.02470697368341,78.86050601149421,95.89633628861513,95.89633628861513,73.0794853747672,84.63538588162712,1.0,1.1,-663,263,-480,260,-294,287,506.1098418235779,506.10994386672974,506.11309123039246,506.12450432777405,506.2737822532654,506.2737822532654,506.2737822532654,506.2737822532654,506.2737822532654,506.2737822532654,506.2737822532654,507.39370226860046,2,1.2627794742584229,None,,,,,,,,,,,,,,,,,,229,1,2025-03-11_12h01.36.307,comp,2024.2.4,None,2025-03-11 12h02.28.830927 -0400,
134,134,0,critical,dwh,35.0,4.0,upper,127.0,127.0,125.0,200.0,200.0,125.0,2,1.5281059741973877,None,,,,,0,0,0,0,0,134,134,65,507.41060733795166,,,,,,,,,,,,,,,,,,,,,,,,,,,,,,,,,,,,,,,,,,,,,,,,,,,,,,,,,,,,,,,,,,,,,,,,,,,,,,,,,127.0,127.0,125.0,200.0,200.0,125.0,4.0,4.1,-260,-269,0,1,258,-270,507.39536023139954,507.39547395706177,507.3989882469177,507.41060733795166,507.55957865715027,507.55957865715027,507.55957865715027,507.55957865715027,507.55957865715027,507.55957865715027,507.55957865715027,508.9429214000702,2,1.5281059741973877,None,,,,,,,,,,,,,,,,,,229,1,2025-03-11_12h01.36.307,comp,2024.2.4,None,2025-03-11 12h02.28.830927 -0400,
135,135,0,critical,dhw,35.0,1.0,lower,70.0,70.0,133.0,57.0,57.0,133.0,2,2.4129230976104736,None,,,,,0,0,0,0,0,135,135,48,508.9585072994232,,,,,,,,,,,,,,,,,,,,,,,,,,,,,,,,,,,,,,,,,,,,,,,,,,,,,,,,,,,,,,,,,,,,,,,,,,,,,,,,,70.0,70.0,133.0,57.0,57.0,133.0,1.0,1.1,-640,263,-480,251,-289,250,508.9444603919983,508.94458389282227,508.9479305744171,508.9585072994232,509.1134469509125,509.1134469509125,509.1134469509125,509.1134469509125,509.1134469509125,509.1134469509125,509.1134469509125,511.38065481185913,2,2.4129230976104736,None,,,,,,,,,,,,,,,,,,229,1,2025-03-11_12h01.36.307,comp,2024.2.4,None,2025-03-11 12h02.28.830927 -0400,
136,136,0,critical,dwh,35.0,2.1,lower,70.0,70.0,57.0,133.0,133.0,57.0,2,4.874152183532715,None,,,,,0,0,0,0,0,136,136,28,511.4012939929962,,,,,,,,,,,,,,,,,,,,,,,,,,,,,,,,,,,,,,,,,,,,,,,,,,,,,,,,,,,,,,,,,,,,,,,,,,,,,,,,,70.0,70.0,57.0,133.0,133.0,57.0,2.1,2.12,-198,-285,0,-267,191,281,511.3825466632843,511.3826735019684,511.38567447662354,511.4012939929962,511.5432639122009,511.5432639122009,511.5432639122009,511.5432639122009,511.5432639122009,511.5432639122009,511.5432639122009,516.2800087928772,2,4.874152183532715,None,,,,,,,,,,,,,,,,,,229,1,2025-03-11_12h01.36.307,comp,2024.2.4,None,2025-03-11 12h02.28.830927 -0400,
137,137,0,filler_square,None,None,None,None,None,None,None,None,None,None,3,2.4818270206451416,None,,,,,0,0,0,0,0,137,137,189,516.2966673374176,,,,,,,,,,,,,,,,,,,,,,,,,,,,,,,,,,,,,,,,,,,,,,,,,,,,,,,,,,,,,,,,,,,,,,,,,,,,,,,,,73.21152041699781,61.4599395636302,64.98487713470507,63.2988678307536,81.40573358797398,81.40573358797398,2.1,2.12,-158,-274,0,-261,168,280,516.2819397449493,516.2820198535919,516.2858746051788,516.2966673374176,516.4463260173798,516.4463260173798,516.4463260173798,516.4463260173798,516.4463260173798,516.4463260173798,516.4463260173798,518.7953624725342,3,2.4818270206451416,None,,,,,,,,,,,,,,,,,,229,1,2025-03-11_12h01.36.307,comp,2024.2.4,None,2025-03-11 12h02.28.830927 -0400,
138,138,0,filler_random,None,None,None,None,None,None,None,None,None,None,2,5.518393516540527,None,,,,,0,0,0,0,0,138,138,155,518.8127241134644,,,,,,,,,,,,,,,,,,,,,,,,,,,,,,,,,,,,,,,,,,,,,,,,,,,,,,,,,,,,,,,,,,,,,,,,,,,,,,,,,58.331538388188264,76.48757589795241,130.75373551557078,95.58516792822199,87.43236534642203,136.57123964799317,3.0,3.2,-182,-280,0,4,212,289,518.7969987392426,518.7970743179321,518.800062417984,518.8127241134644,518.9655041694641,518.9655041694641,518.9655041694641,518.9655041694641,518.9655041694641,518.9655041694641,518.9655041694641,524.3395476341248,2,5.518393516540527,None,,,,,,,,,,,,,,,,,,229,1,2025-03-11_12h01.36.307,comp,2024.2.4,None,2025-03-11 12h02.28.830927 -0400,
139,139,0,critical,dwh,20.0,3.0,upper,141.0,141.0,125.0,200.0,200.0,125.0,2,2.5671355724334717,None,,,,,0,0,0,0,0,139,139,69,524.3564212322235,,,,,,,,,,,,,,,,,,,,,,,,,,,,,,,,,,,,,,,,,,,,,,,,,,,,,,,,,,,,,,,,,,,,,,,,,,,,,,,,,141.0,141.0,125.0,200.0,200.0,125.0,3.0,3.1,-266,276,0,-2,258,-276,524.3411350250244,524.3412511348724,524.3445315361023,524.3564212322235,524.5011401176453,524.5011401176453,524.5011401176453,524.5011401176453,524.5011401176453,524.5011401176453,524.5011401176453,526.9307203292847,2,2.5671355724334717,None,,,,,,,,,,,,,,,,,,229,1,2025-03-11_12h01.36.307,comp,2024.2.4,None,2025-03-11 12h02.28.830927 -0400,
140,140,0,critical,dwh,35.0,2.1,upper,127.0,127.0,125.0,200.0,200.0,125.0,2,2.712503671646118,None,,,,,0,0,0,0,0,140,140,29,526.9470708370209,,,,,,,,,,,,,,,,,,,,,,,,,,,,,,,,,,,,,,,,,,,,,,,,,,,,,,,,,,,,,,,,,,,,,,,,,,,,,,,,,127.0,127.0,125.0,200.0,200.0,125.0,2.1,2.11,-260,270,0,274,258,-272,526.9322428703308,526.9323205947876,526.9352474212646,526.9470708370209,527.0947759151459,527.0947759151459,527.0947759151459,527.0947759151459,527.0947759151459,527.0947759151459,527.0947759151459,529.6648097038269,2,2.712503671646118,None,,,,,,,,,,,,,,,,,,229,1,2025-03-11_12h01.36.307,comp,2024.2.4,None,2025-03-11 12h02.28.830927 -0400,
141,141,0,filler_random,None,None,None,None,None,None,None,None,None,None,2,1.2106406688690186,None,,,,,0,0,0,0,0,141,141,139,529.6812267303467,,,,,,,,,,,,,,,,,,,,,,,,,,,,,,,,,,,,,,,,,,,,,,,,,,,,,,,,,,,,,,,,,,,,,,,,,,,,,,,,,120.0539457009042,100.69226533194667,184.2916131958918,160.944680450485,63.8595365979279,137.40919077074238,1.0,1.3,253,-283,480,-283,725,-279,529.6663725376129,529.6664750576019,529.6695384979248,529.6812267303467,529.834860086441,529.834860086441,529.834860086441,529.834860086441,529.834860086441,529.834860086441,529.834860086441,530.8992147445679,2,1.2106406688690186,None,,,,,,,,,,,,,,,,,,229,1,2025-03-11_12h01.36.307,comp,2024.2.4,None,2025-03-11 12h02.28.830927 -0400,
142,142,0,filler_random,None,None,None,None,None,None,None,None,None,None,3,1.2605412006378174,None,,,,,0,0,0,0,0,142,142,130,530.9183807373047,,,,,,,,,,,,,,,,,,,,,,,,,,,,,,,,,,,,,,,,,,,,,,,,,,,,,,,,,,,,,,,,,,,,,,,,,,,,,,,,,78.05222637894286,125.83214789956264,156.29839236045257,123.67795317099885,142.06307023712452,169.9663988276168,3.0,3.2,-221,-269,0,0,243,288,530.900940656662,530.9010803699493,530.9043610095978,530.9183807373047,531.0676708221436,531.0676708221436,531.0676708221436,531.0676708221436,531.0676708221436,531.0676708221436,531.0676708221436,532.1823675632477,3,1.2605412006378174,None,,,,,,,,,,,,,,,,,,229,1,2025-03-11_12h01.36.307,comp,2024.2.4,None,2025-03-11 12h02.28.830927 -0400,
