thisN,thisTrialN,thisRepN,effect,order,distance,config,diag,h_1,w_1,h_2,w_2,h_3,w_3,rect_choice.keys,rect_choice.rt,rect_choice.duration,instructions_loop.thisRepN,instructions_loop.thisTrialN,instructions_loop.thisN,instructions_loop.thisIndex,blocks.thisRepN,blocks.thisTrialN,blocks.thisN,blocks.thisIndex,trials.thisRepN,trials.thisTrialN,trials.thisN,trials.thisIndex,thisRow.t,notes,consent.started,agree_button.started,decline_button.started,consent_img.started,mouse.started,consent.stopped,agree_button.numClicks,agree_button.timesOn,agree_button.timesOff,decline_button.numClicks,decline_button.timesOn,decline_button.timesOff,mouse.x,mouse.y,mouse.leftButton,mouse.midButton,mouse.rightButton,mouse.time,mouse.clicked_name,exp_params.started,exp_params.stopped,welcome.started,welcome_text.started,welcome.stopped,instructions_1.started,instructions_1_text_1.started,instructions_1_text_2.started,key_resp.started,instructions_1.stopped,instructions_loop.key_resp.keys,instructions_loop.key_resp.rt,instructions_loop.key_resp.duration,instructions_2.started,instructions_2_text_1.started,instructions_2_text_2.started,key_resp_2.started,instructions_2.stopped,instructions_loop.key_resp_2.keys,instructions_loop.key_resp_2.rt,instructions_loop.key_resp_2.duration,instructions_3.started,instructions_3_text_1.started,r1_instr3.started,r2_instr3.started,r3_instr3.started,r1_instr3_label.started,r2_instr3_label.started,r3_instr3_label.started,instructions_3_text_3.started,instructions_3_text_4.started,key_resp_3.started,instructions_3.stopped,instructions_loop.key_resp_3.keys,instructions_loop.key_resp_3.rt,instructions_loop.key_resp_3.duration,instructions_4.started,instructions_4_text_1.started,instructions_4_text_3.started,instructions_4_text_2.started,key_resp_4.started,instructions_4.stopped,instructions_loop.key_resp_4.keys,instructions_loop.key_resp_4.rt,instructions_loop.key_resp_4.duration,instructions_5.started,instructions_5_text_1.started,instructions_5_text_2.started,key_resp_5.started,instructions_5.stopped,instructions_loop.key_resp_5.keys,instructions_loop.key_resp_5.rt,instructions_loop.key_resp_5.duration,start_exp.started,start_exp_text.started,key_resp_6.started,start_exp.stopped,key_resp_6.keys,key_resp_6.rt,key_resp_6.duration,h_1_tmp,w_1_tmp,h_2_tmp,w_2_tmp,h_3_tmp,w_3_tmp,config_tmp,config_tmp_1,r_1_x,r_1_y,r_2_x,r_2_y,r_3_x,r_3_y,pre_trial.started,pre_trial.stopped,choice_trial.started,rect_choice.started,r_1.started,r_2.started,r_3.started,r_1_label.started,r_2_label.started,r_3_label.started,prompt.started,choice_trial.stopped,trials.rect_choice.keys,trials.rect_choice.rt,trials.rect_choice.duration,end_block.started,end_block_text.started,end_block.stopped,end.started,end_text.started,key_resp_7.started,end.stopped,key_resp_7.keys,key_resp_7.rt,key_resp_7.duration,debriefing.started,debrief_form.started,end_debrief.started,debriefing.stopped,end_debrief.keys,end_debrief.rt,end_debrief.duration,participant,computer,date,expName,psychopyVersion,frameRate,expStart,
,,,,,,,,,,,,,,,,,,,,,,,,,,,,,,,0.014950752258300781,0.03578519821166992,0.03578519821166992,0.03578519821166992,0.014758110046386719,42.969316720962524,1,[42.93096661567688],[42.93098974227905],0,,,[-62.0],[-492.0],[1],[0],[0],[42.95380640029907],['agree_button'],,,,,,,,,,,,,,,,,,,,,,,,,,,,,,,,,,,,,,,,,,,,,,,,,,,,,,,,,,,,,,,,,,,,,,,,,,,,,,,,,,,,,,,,,,,,,,,,,,,,,,,,,,,22,2,2025-02-18_16h03.56.415,comp,2024.2.4,56.591913366947814,2025-02-18 16h04.04.404447 -0500,
,,,,,,,,,,,,,,,,,,,,,,,,,,,,,,,,,,,,,,,,,,,,,,,,,,42.96989583969116,42.969961643218994,,,,,,,,,,,,,,,,,,,,,,,,,,,,,,,,,,,,,,,,,,,,,,,,,,,,,,,,,,,,,,,,,,,,,,,,,,,,,,,,,,,,,,,,,,,,,,,,,,,,,,,,,22,2,2025-02-18_16h03.56.415,comp,2024.2.4,56.591913366947814,2025-02-18 16h04.04.404447 -0500,
,,,,,,,,,,,,,,,,,,,,,,,,,,,,,,,,,,,,,,,,,,,,,,,,,,,,42.970006465911865,42.98698925971985,44.98545217514038,,,,,,,,,,,,,,,,,,,,,,,,,,,,,,,,,,,,,,,,,,,,,,,,,,,,,,,,,,,,,,,,,,,,,,,,,,,,,,,,,,,,,,,,,,,,,,,,,,,,,,22,2,2025-02-18_16h03.56.415,comp,2024.2.4,56.591913366947814,2025-02-18 16h04.04.404447 -0500,
0,0,0,,,,,,,,,,,,,,,0,0,0,0,,,,,,,,,45.00214338302612,,,,,,,,,,,,,,,,,,,,,,,,,,44.986671447753906,45.00214338302612,45.00214338302612,46.465681314468384,46.61805534362793,space,None,None,46.61819839477539,46.6336715221405,46.6336715221405,48.124969244003296,49.68794369697571,space,1.5486571788787842,None,49.688092947006226,49.71714782714844,49.71714782714844,49.71714782714844,49.71714782714844,49.71714782714844,49.71714782714844,49.71714782714844,49.71714782714844,49.71714782714844,51.20864009857178,60.20643424987793,space,8.993823051452637,None,60.206615924835205,60.22318649291992,60.22318649291992,60.22318649291992,61.707990407943726,64.34176182746887,space,2.621546745300293,None,64.34191751480103,64.35772037506104,64.35772037506104,65.83845019340515,67.92682361602783,space,2.0836262702941895,None,67.92701697349548,67.9431140422821,67.9431140422821,69.47634959220886,space,1.5304713249206543,None,,,,,,,,,,,,,,,,,,,,,,,,,,,,,,,,,,,,,,,,,,,,,,,22,2,2025-02-18_16h03.56.415,comp,2024.2.4,56.591913366947814,2025-02-18 16h04.04.404447 -0500,
0,0,0,filler_random,None,None,None,None,None,None,None,None,None,None,3,3.867129325866699,None,,,,,0,0,0,0,0,0,0,146,69.55894494056702,,,,,,,,,,,,,,,,,,,,,,,,,,,,,,,,,,,,,,,,,,,,,,,,,,,,,,,,,,,,,,,,,,,,,,,,,,,,,,,,,156.57167953094068,70.78177127883512,87.46823056050334,177.92029655858,196.8156340465595,94.0118144607182,2.1,2.12,-220,-274,0,-260,232,277,69.5417492389679,69.54179763793945,69.54378056526184,69.55894494056702,69.70383381843567,69.70383381843567,69.70383381843567,69.70383381843567,69.70383381843567,69.70383381843567,69.70383381843567,73.43143844604492,3,3.867129325866699,None,,,,,,,,,,,,,,,,,,22,2,2025-02-18_16h03.56.415,comp,2024.2.4,56.591913366947814,2025-02-18 16h04.04.404447 -0500,
1,1,0,critical,hwd,20.0,2.1,upper,200.0,125.0,125.0,200.0,141.0,141.0,1,3.9859960079193115,None,,,,,0,0,0,0,0,1,1,43,73.44765663146973,,,,,,,,,,,,,,,,,,,,,,,,,,,,,,,,,,,,,,,,,,,,,,,,,,,,,,,,,,,,,,,,,,,,,,,,,,,,,,,,,200.0,125.0,125.0,200.0,141.0,141.0,2.1,2.11,-258,271,0,258,266,-290,73.43308663368225,73.43316531181335,73.43677735328674,73.44765663146973,73.60513091087341,73.60513091087341,73.60513091087341,73.60513091087341,73.60513091087341,73.60513091087341,73.60513091087341,77.44448208808899,1,3.9859960079193115,None,,,,,,,,,,,,,,,,,,22,2,2025-02-18_16h03.56.415,comp,2024.2.4,56.591913366947814,2025-02-18 16h04.04.404447 -0500,
2,2,0,critical,dwh,35.0,1.0,lower,70.0,70.0,57.0,133.0,133.0,57.0,3,3.6765363216400146,None,,,,,0,0,0,0,0,2,2,60,77.46103572845459,,,,,,,,,,,,,,,,,,,,,,,,,,,,,,,,,,,,,,,,,,,,,,,,,,,,,,,,,,,,,,,,,,,,,,,,,,,,,,,,,70.0,70.0,57.0,133.0,133.0,57.0,1.0,1.3,282,-255,480,-267,671,-252,77.44612145423889,77.44620108604431,77.44967794418335,77.46103572845459,77.61627793312073,77.61627793312073,77.61627793312073,77.61627793312073,77.61627793312073,77.61627793312073,77.61627793312073,81.14828777313232,3,3.6765363216400146,None,,,,,,,,,,,,,,,,,,22,2,2025-02-18_16h03.56.415,comp,2024.2.4,56.591913366947814,2025-02-18 16h04.04.404447 -0500,
3,3,0,critical,dhw,20.0,2.1,upper,141.0,141.0,200.0,125.0,125.0,200.0,3,1.344886064529419,None,,,,,0,0,0,0,0,3,3,27,81.16935706138611,,,,,,,,,,,,,,,,,,,,,,,,,,,,,,,,,,,,,,,,,,,,,,,,,,,,,,,,,,,,,,,,,,,,,,,,,,,,,,,,,141.0,141.0,200.0,125.0,125.0,200.0,2.1,2.11,-229,253,0,276,258,-279,81.14994668960571,81.1500449180603,81.15343737602234,81.16935706138611,81.3154935836792,81.3154935836792,81.3154935836792,81.3154935836792,81.3154935836792,81.3154935836792,81.3154935836792,82.51783156394958,3,1.344886064529419,None,,,,,,,,,,,,,,,,,,22,2,2025-02-18_16h03.56.415,comp,2024.2.4,56.591913366947814,2025-02-18 16h04.04.404447 -0500,
4,4,0,critical,hwd,35.0,4.0,upper,200.0,125.0,125.0,200.0,127.0,127.0,1,3.263561248779297,None,,,,,0,0,0,0,0,4,4,101,82.53843069076538,,,,,,,,,,,,,,,,,,,,,,,,,,,,,,,,,,,,,,,,,,,,,,,,,,,,,,,,,,,,,,,,,,,,,,,,,,,,,,,,,200.0,125.0,125.0,200.0,127.0,127.0,4.0,4.2,-258,-1,0,-254,260,8,82.5196545124054,82.51973509788513,82.52279233932495,82.53843069076538,82.6892397403717,82.6892397403717,82.6892397403717,82.6892397403717,82.6892397403717,82.6892397403717,82.6892397403717,85.8195230960846,1,3.263561248779297,None,,,,,,,,,,,,,,,,,,22,2,2025-02-18_16h03.56.415,comp,2024.2.4,56.591913366947814,2025-02-18 16h04.04.404447 -0500,
5,5,0,filler_square,None,None,None,None,None,None,None,None,None,None,3,2.049095869064331,None,,,,,0,0,0,0,0,5,5,188,85.84049797058105,,,,,,,,,,,,,,,,,,,,,,,,,,,,,,,,,,,,,,,,,,,,,,,,,,,,,,,,,,,,,,,,,,,,,,,,,,,,,,,,,134.08728556994566,133.18592190476218,102.83006999469956,81.90539810646447,142.06682489278612,142.06682489278612,4.0,4.1,-204,-269,0,0,208,-263,85.82138419151306,85.8215057849884,85.82527089118958,85.84049797058105,85.98846244812012,85.98846244812012,85.98846244812012,85.98846244812012,85.98846244812012,85.98846244812012,85.98846244812012,87.9073600769043,3,2.049095869064331,None,,,,,,,,,,,,,,,,,,22,2,2025-02-18_16h03.56.415,comp,2024.2.4,56.591913366947814,2025-02-18 16h04.04.404447 -0500,
6,6,0,filler_random,None,None,None,None,None,None,None,None,None,None,3,1.198408603668213,None,,,,,0,0,0,0,0,6,6,148,87.92541241645813,,,,,,,,,,,,,,,,,,,,,,,,,,,,,,,,,,,,,,,,,,,,,,,,,,,,,,,,,,,,,,,,,,,,,,,,,,,,,,,,,146.43402272279224,153.34398806784571,108.04087067248571,68.63329228535065,177.47484316886244,157.04819634319927,2.1,2.12,-207,-265,0,-264,209,251,87.90927529335022,87.90935134887695,87.91268372535706,87.92541241645813,88.06915998458862,88.06915998458862,88.06915998458862,88.06915998458862,88.06915998458862,88.06915998458862,88.06915998458862,89.13467931747437,3,1.198408603668213,None,,,,,,,,,,,,,,,,,,22,2,2025-02-18_16h03.56.415,comp,2024.2.4,56.591913366947814,2025-02-18 16h04.04.404447 -0500,
7,7,0,critical,hdw,35.0,1.0,upper,200.0,125.0,127.0,127.0,125.0,200.0,3,2.155015230178833,None,,,,,0,0,0,0,0,7,7,109,89.15106630325317,,,,,,,,,,,,,,,,,,,,,,,,,,,,,,,,,,,,,,,,,,,,,,,,,,,,,,,,,,,,,,,,,,,,,,,,,,,,,,,,,200.0,125.0,127.0,127.0,125.0,200.0,1.0,1.1,-702,260,-480,256,-220,270,89.13625741004944,89.13633561134338,89.14042830467224,89.15106630325317,89.30497193336487,89.30497193336487,89.30497193336487,89.30497193336487,89.30497193336487,89.30497193336487,89.30497193336487,91.31454157829285,3,2.155015230178833,None,,,,,,,,,,,,,,,,,,22,2,2025-02-18_16h03.56.415,comp,2024.2.4,56.591913366947814,2025-02-18 16h04.04.404447 -0500,
8,8,0,catch,None,None,None,None,None,None,None,None,None,None,2,1.3976874351501465,None,,,,,0,0,0,0,0,8,8,127,91.33237624168396,,,,,,,,,,,,,,,,,,,,,,,,,,,,,,,,,,,,,,,,,,,,,,,,,,,,,,,,,,,,,,,,,,,,,,,,,,,,,,,,,98,92,132,193,69,121,4.0,4.1,-238,-280,0,-3,253,-287,91.3164656162262,91.3165431022644,91.31960582733154,91.33237624168396,91.48326826095581,91.48326826095581,91.48326826095581,91.48326826095581,91.48326826095581,91.48326826095581,91.48326826095581,92.73345422744751,2,1.3976874351501465,None,,,,,,,,,,,,,,,,,,22,2,2025-02-18_16h03.56.415,comp,2024.2.4,56.591913366947814,2025-02-18 16h04.04.404447 -0500,
9,9,0,critical,dwh,35.0,1.0,upper,127.0,127.0,125.0,200.0,200.0,125.0,3,2.6758317947387695,None,,,,,0,0,0,0,0,9,9,61,92.75040578842163,,,,,,,,,,,,,,,,,,,,,,,,,,,,,,,,,,,,,,,,,,,,,,,,,,,,,,,,,,,,,,,,,,,,,,,,,,,,,,,,,127.0,127.0,125.0,200.0,200.0,125.0,1.0,1.1,-740,267,-480,256,-222,281,92.73506236076355,92.7351405620575,92.73852849006653,92.75040578842163,92.90407466888428,92.90407466888428,92.90407466888428,92.90407466888428,92.90407466888428,92.90407466888428,92.90407466888428,95.43701982498169,3,2.6758317947387695,None,,,,,,,,,,,,,,,,,,22,2,2025-02-18_16h03.56.415,comp,2024.2.4,56.591913366947814,2025-02-18 16h04.04.404447 -0500,
10,10,0,filler_square,None,None,None,None,None,None,None,None,None,None,3,2.2684669494628906,None,,,,,0,0,0,0,0,10,10,189,95.45364665985107,,,,,,,,,,,,,,,,,,,,,,,,,,,,,,,,,,,,,,,,,,,,,,,,,,,,,,,,,,,,,,,,,,,,,,,,,,,,,,,,,62.560817101546284,75.53684249270377,70.9767684182784,93.71596075832308,123.63791774464585,123.63791774464585,3.0,3.2,-181,-269,0,-8,205,261,95.43909740447998,95.43917632102966,95.44278526306152,95.45364665985107,95.60075616836548,95.60075616836548,95.60075616836548,95.60075616836548,95.60075616836548,95.60075616836548,95.60075616836548,97.7398419380188,3,2.2684669494628906,None,,,,,,,,,,,,,,,,,,22,2,2025-02-18_16h03.56.415,comp,2024.2.4,56.591913366947814,2025-02-18 16h04.04.404447 -0500,
11,11,0,critical,dhw,35.0,2.1,lower,70.0,70.0,133.0,57.0,57.0,133.0,2,5.622789621353149,None,,,,,0,0,0,0,0,11,11,0,97.75553131103516,,,,,,,,,,,,,,,,,,,,,,,,,,,,,,,,,,,,,,,,,,,,,,,,,,,,,,,,,,,,,,,,,,,,,,,,,,,,,,,,,70.0,70.0,133.0,57.0,57.0,133.0,2.1,2.12,-160,-255,0,-274,191,286,97.7414767742157,97.74161124229431,97.74520373344421,97.75553131103516,97.90314602851868,97.90314602851868,97.90314602851868,97.90314602851868,97.90314602851868,97.90314602851868,97.90314602851868,103.38065195083618,2,5.622789621353149,None,,,,,,,,,,,,,,,,,,22,2,2025-02-18_16h03.56.415,comp,2024.2.4,56.591913366947814,2025-02-18 16h04.04.404447 -0500,
12,12,0,critical,hdw,35.0,2.1,lower,133.0,57.0,70.0,70.0,57.0,133.0,3,2.9413349628448486,None,,,,,0,0,0,0,0,12,12,44,103.39651799201965,,,,,,,,,,,,,,,,,,,,,,,,,,,,,,,,,,,,,,,,,,,,,,,,,,,,,,,,,,,,,,,,,,,,,,,,,,,,,,,,,133.0,57.0,70.0,70.0,57.0,133.0,2.1,2.11,-160,268,0,256,198,-263,103.38219046592712,103.38226795196533,103.38533210754395,103.39651799201965,103.53897023200989,103.53897023200989,103.53897023200989,103.53897023200989,103.53897023200989,103.53897023200989,103.53897023200989,106.33999538421631,3,2.9413349628448486,None,,,,,,,,,,,,,,,,,,22,2,2025-02-18_16h03.56.415,comp,2024.2.4,56.591913366947814,2025-02-18 16h04.04.404447 -0500,
13,13,0,filler_square,None,None,None,None,None,None,None,None,None,None,2,1.3011929988861084,None,,,,,0,0,0,0,0,13,13,195,106.3564932346344,,,,,,,,,,,,,,,,,,,,,,,,,,,,,,,,,,,,,,,,,,,,,,,,,,,,,,,,,,,,,,,,,,,,,,,,,,,,,,,,,97.69653520556268,96.3914078224696,185.7239362675631,185.7239362675631,154.12032934971882,78.80358311103446,2.2,2.21,-237,-289,0,263,228,251,106.3417022228241,106.34177947044373,106.34496068954468,106.3564932346344,106.50512051582336,106.50512051582336,106.50512051582336,106.50512051582336,106.50512051582336,106.50512051582336,106.50512051582336,107.67223119735718,2,1.3011929988861084,None,,,,,,,,,,,,,,,,,,22,2,2025-02-18_16h03.56.415,comp,2024.2.4,56.591913366947814,2025-02-18 16h04.04.404447 -0500,
14,14,0,critical,hdw,35.0,3.0,lower,133.0,57.0,70.0,70.0,57.0,133.0,3,2.2174696922302246,None,,,,,0,0,0,0,0,14,14,110,107.68819761276245,,,,,,,,,,,,,,,,,,,,,,,,,,,,,,,,,,,,,,,,,,,,,,,,,,,,,,,,,,,,,,,,,,,,,,,,,,,,,,,,,133.0,57.0,70.0,70.0,57.0,133.0,3.0,3.1,-160,264,0,1,198,-289,107.67370080947876,107.6737802028656,107.67704820632935,107.68819761276245,107.83743023872375,107.83743023872375,107.83743023872375,107.83743023872375,107.83743023872375,107.83743023872375,107.83743023872375,109.92305564880371,3,2.2174696922302246,None,,,,,,,,,,,,,,,,,,22,2,2025-02-18_16h03.56.415,comp,2024.2.4,56.591913366947814,2025-02-18 16h04.04.404447 -0500,
15,15,0,filler_random,None,None,None,None,None,None,None,None,None,None,2,0.9194235801696777,None,,,,,0,0,0,0,0,15,15,151,109.9386236667633,,,,,,,,,,,,,,,,,,,,,,,,,,,,,,,,,,,,,,,,,,,,,,,,,,,,,,,,,,,,,,,,,,,,,,,,,,,,,,,,,94.99304985121148,132.79906018602333,197.30111675514752,138.4065161960046,162.65598439738278,140.87944633018418,2.2,2.21,-232,-272,0,265,236,255,109.92477536201477,109.92485475540161,109.92828273773193,109.9386236667633,110.0797369480133,110.0797369480133,110.0797369480133,110.0797369480133,110.0797369480133,110.0797369480133,110.0797369480133,110.8600001335144,2,0.9194235801696777,None,,,,,,,,,,,,,,,,,,22,2,2025-02-18_16h03.56.415,comp,2024.2.4,56.591913366947814,2025-02-18 16h04.04.404447 -0500,
16,16,0,critical,wdh,35.0,2.1,upper,125.0,200.0,127.0,127.0,200.0,125.0,1,1.2868905067443848,None,,,,,0,0,0,0,0,16,16,33,110.87583422660828,,,,,,,,,,,,,,,,,,,,,,,,,,,,,,,,,,,,,,,,,,,,,,,,,,,,,,,,,,,,,,,,,,,,,,,,,,,,,,,,,125.0,200.0,127.0,127.0,200.0,125.0,2.1,2.12,-260,-275,0,-286,222,257,110.86192846298218,110.86203050613403,110.8651533126831,110.87583422660828,111.02416920661926,111.02416920661926,111.02416920661926,111.02416920661926,111.02416920661926,111.02416920661926,111.02416920661926,112.17449402809143,1,1.2868905067443848,None,,,,,,,,,,,,,,,,,,22,2,2025-02-18_16h03.56.415,comp,2024.2.4,56.591913366947814,2025-02-18 16h04.04.404447 -0500,
17,17,0,filler_random,None,None,None,None,None,None,None,None,None,None,3,1.1474030017852783,None,,,,,0,0,0,0,0,17,17,132,112.19101357460022,,,,,,,,,,,,,,,,,,,,,,,,,,,,,,,,,,,,,,,,,,,,,,,,,,,,,,,,,,,,,,,,,,,,,,,,,,,,,,,,,155.2909166776049,109.45824360796087,150.62398039598472,128.24096413320308,116.431299160115,182.1529311904495,2.1,2.11,-215,273,0,255,251,-282,112.17649674415588,112.17661118507385,112.18077278137207,112.19101357460022,112.33976912498474,112.33976912498474,112.33976912498474,112.33976912498474,112.33976912498474,112.33976912498474,112.33976912498474,113.34371399879456,3,1.1474030017852783,None,,,,,,,,,,,,,,,,,,22,2,2025-02-18_16h03.56.415,comp,2024.2.4,56.591913366947814,2025-02-18 16h04.04.404447 -0500,
18,18,0,filler_square,None,None,None,None,None,None,None,None,None,None,3,1.3617863655090332,None,,,,,0,0,0,0,0,18,18,199,113.3607485294342,,,,,,,,,,,,,,,,,,,,,,,,,,,,,,,,,,,,,,,,,,,,,,,,,,,,,,,,,,,,,,,,,,,,,,,,,,,,,,,,,139.85138393918066,175.07735755079537,112.62342040208412,178.85134380009904,180.73187363009805,180.73187363009805,4.0,4.2,-273,5,0,-252,276,-12,113.34587526321411,113.34600281715393,113.34915614128113,113.3607485294342,113.50791835784912,113.50791835784912,113.50791835784912,113.50791835784912,113.50791835784912,113.50791835784912,113.50791835784912,114.7263765335083,3,1.3617863655090332,None,,,,,,,,,,,,,,,,,,22,2,2025-02-18_16h03.56.415,comp,2024.2.4,56.591913366947814,2025-02-18 16h04.04.404447 -0500,
19,19,0,filler_random,None,None,None,None,None,None,None,None,None,None,3,1.1559667587280273,None,,,,,0,0,0,0,0,19,19,154,114.74306988716125,,,,,,,,,,,,,,,,,,,,,,,,,,,,,,,,,,,,,,,,,,,,,,,,,,,,,,,,,,,,,,,,,,,,,,,,,,,,,,,,,147.4388363944865,123.1583164338085,152.25597182278057,181.88500196235913,194.50416950242874,150.98463232797667,4.0,4.1,-249,-252,0,18,262,-257,114.72839665412903,114.72847723960876,114.73234605789185,114.74306988716125,114.8979377746582,114.8979377746582,114.8979377746582,114.8979377746582,114.8979377746582,114.8979377746582,114.8979377746582,115.91484594345093,3,1.1559667587280273,None,,,,,,,,,,,,,,,,,,22,2,2025-02-18_16h03.56.415,comp,2024.2.4,56.591913366947814,2025-02-18 16h04.04.404447 -0500,
20,20,0,filler_square,None,None,None,None,None,None,None,None,None,None,2,2.790074586868286,None,,,,,0,0,0,0,0,20,20,209,115.93183732032776,,,,,,,,,,,,,,,,,,,,,,,,,,,,,,,,,,,,,,,,,,,,,,,,,,,,,,,,,,,,,,,,,,,,,,,,,,,,,,,,,60.15714726645596,58.524190973991516,67.09091045951538,67.09091045951538,59.979941195862814,67.03542493393657,1.0,1.1,-639,278,-480,250,-317,283,115.91695499420166,115.91703295707703,115.92054224014282,115.93183732032776,116.08005857467651,116.08005857467651,116.08005857467651,116.08005857467651,116.08005857467651,116.08005857467651,116.08005857467651,118.72632169723511,2,2.790074586868286,None,,,,,,,,,,,,,,,,,,22,2,2025-02-18_16h03.56.415,comp,2024.2.4,56.591913366947814,2025-02-18 16h04.04.404447 -0500,
21,21,0,critical,hdw,20.0,4.0,upper,200.0,125.0,141.0,141.0,125.0,200.0,1,1.245037317276001,None,,,,,0,0,0,0,0,21,21,119,118.7421362400055,,,,,,,,,,,,,,,,,,,,,,,,,,,,,,,,,,,,,,,,,,,,,,,,,,,,,,,,,,,,,,,,,,,,,,,,,,,,,,,,,200.0,125.0,141.0,141.0,125.0,200.0,4.0,4.1,-229,-270,0,-7,266,-252,118.72786927223206,118.72794818878174,118.73144006729126,118.7421362400055,118.88220930099487,118.88220930099487,118.88220930099487,118.88220930099487,118.88220930099487,118.88220930099487,118.88220930099487,119.99096536636353,1,1.245037317276001,None,,,,,,,,,,,,,,,,,,22,2,2025-02-18_16h03.56.415,comp,2024.2.4,56.591913366947814,2025-02-18 16h04.04.404447 -0500,
22,22,0,filler_random,None,None,None,None,None,None,None,None,None,None,2,1.354513168334961,None,,,,,0,0,0,0,0,22,22,130,120.00777387619019,,,,,,,,,,,,,,,,,,,,,,,,,,,,,,,,,,,,,,,,,,,,,,,,,,,,,,,,,,,,,,,,,,,,,,,,,,,,,,,,,129.58487428971478,90.28604857827074,189.41252487926084,197.0197477192472,153.61857330439454,171.0071385698917,3.0,3.1,-240,273,0,-5,280,-264,119.99266719818115,119.99274396896362,119.99582862854004,120.00777387619019,120.1437075138092,120.1437075138092,120.1437075138092,120.1437075138092,120.1437075138092,120.1437075138092,120.1437075138092,121.36759686470032,2,1.354513168334961,None,,,,,,,,,,,,,,,,,,22,2,2025-02-18_16h03.56.415,comp,2024.2.4,56.591913366947814,2025-02-18 16h04.04.404447 -0500,
23,23,0,critical,wdh,20.0,4.0,upper,125.0,200.0,141.0,141.0,200.0,125.0,1,2.282512903213501,None,,,,,0,0,0,0,0,23,23,83,121.3831992149353,,,,,,,,,,,,,,,,,,,,,,,,,,,,,,,,,,,,,,,,,,,,,,,,,,,,,,,,,,,,,,,,,,,,,,,,,,,,,,,,,125.0,200.0,141.0,141.0,200.0,125.0,4.0,4.2,-266,-9,0,-266,229,-7,121.36905884742737,121.36913633346558,121.37219429016113,121.3831992149353,121.53284907341003,121.53284907341003,121.53284907341003,121.53284907341003,121.53284907341003,121.53284907341003,121.53284907341003,123.67695713043213,1,2.282512903213501,None,,,,,,,,,,,,,,,,,,22,2,2025-02-18_16h03.56.415,comp,2024.2.4,56.591913366947814,2025-02-18 16h04.04.404447 -0500,
24,24,0,critical,hdw,20.0,1.0,lower,133.0,57.0,78.0,78.0,57.0,133.0,3,1.6938204765319824,None,,,,,0,0,0,0,0,24,24,114,123.69283819198608,,,,,,,,,,,,,,,,,,,,,,,,,,,,,,,,,,,,,,,,,,,,,,,,,,,,,,,,,,,,,,,,,,,,,,,,,,,,,,,,,133.0,57.0,78.0,78.0,57.0,133.0,1.0,1.2,-164,5,0,6,202,-15,123.67839622497559,123.678471326828,123.68176817893982,123.69283819198608,123.8477714061737,123.8477714061737,123.8477714061737,123.8477714061737,123.8477714061737,123.8477714061737,123.8477714061737,125.39534544944763,3,1.6938204765319824,None,,,,,,,,,,,,,,,,,,22,2,2025-02-18_16h03.56.415,comp,2024.2.4,56.591913366947814,2025-02-18 16h04.04.404447 -0500,
25,25,0,critical,dwh,20.0,1.0,lower,78.0,78.0,57.0,133.0,133.0,57.0,3,1.1123640537261963,None,,,,,0,0,0,0,0,25,25,66,125.41108107566833,,,,,,,,,,,,,,,,,,,,,,,,,,,,,,,,,,,,,,,,,,,,,,,,,,,,,,,,,,,,,,,,,,,,,,,,,,,,,,,,,78.0,78.0,57.0,133.0,133.0,57.0,1.0,1.1,-682,274,-480,272,-289,272,125.39693212509155,125.39701128005981,125.40048336982727,125.41108107566833,125.56014251708984,125.56014251708984,125.56014251708984,125.56014251708984,125.56014251708984,125.56014251708984,125.56014251708984,126.53448152542114,3,1.1123640537261963,None,,,,,,,,,,,,,,,,,,22,2,2025-02-18_16h03.56.415,comp,2024.2.4,56.591913366947814,2025-02-18 16h04.04.404447 -0500,
26,26,0,critical,dwh,20.0,2.1,upper,141.0,141.0,125.0,200.0,200.0,125.0,1,2.2909789085388184,None,,,,,0,0,0,0,0,26,26,31,126.55084824562073,,,,,,,,,,,,,,,,,,,,,,,,,,,,,,,,,,,,,,,,,,,,,,,,,,,,,,,,,,,,,,,,,,,,,,,,,,,,,,,,,141.0,141.0,125.0,200.0,200.0,125.0,2.1,2.11,-266,251,0,271,258,-265,126.53601455688477,126.53613114356995,126.53996658325195,126.55084824562073,126.6928219795227,126.6928219795227,126.6928219795227,126.6928219795227,126.6928219795227,126.6928219795227,126.6928219795227,128.84625434875488,1,2.2909789085388184,None,,,,,,,,,,,,,,,,,,22,2,2025-02-18_16h03.56.415,comp,2024.2.4,56.591913366947814,2025-02-18 16h04.04.404447 -0500,
27,27,0,filler_square,None,None,None,None,None,None,None,None,None,None,1,1.0909786224365234,None,,,,,0,0,0,0,0,27,27,182,128.86265778541565,,,,,,,,,,,,,,,,,,,,,,,,,,,,,,,,,,,,,,,,,,,,,,,,,,,,,,,,,,,,,,,,,,,,,,,,,,,,,,,,,121.60881831233075,121.60881831233075,88.78836782725327,62.44983502426764,104.91779386829349,76.2016931753713,1.0,1.2,-188,6,0,19,165,10,128.84811758995056,128.8481993675232,128.85181427001953,128.86265778541565,129.01382088661194,129.01382088661194,129.01382088661194,129.01382088661194,129.01382088661194,129.01382088661194,129.01382088661194,129.96337842941284,1,1.0909786224365234,None,,,,,,,,,,,,,,,,,,22,2,2025-02-18_16h03.56.415,comp,2024.2.4,56.591913366947814,2025-02-18 16h04.04.404447 -0500,
28,28,0,filler_random,None,None,None,None,None,None,None,None,None,None,2,0.8614935874938965,None,,,,,0,0,0,0,0,28,28,158,129.98055958747864,,,,,,,,,,,,,,,,,,,,,,,,,,,,,,,,,,,,,,,,,,,,,,,,,,,,,,,,,,,,,,,,,,,,,,,,,,,,,,,,,115.40904700860484,189.43885880027673,170.9278080020688,115.53440002482621,66.81272836985819,110.38102390432515,4.0,4.1,-248,-251,0,-1,209,-277,129.96537899971008,129.96545934677124,129.96985292434692,129.98055958747864,130.12930917739868,130.12930917739868,130.12930917739868,130.12930917739868,130.12930917739868,130.12930917739868,130.12930917739868,130.84591484069824,2,0.8614935874938965,None,,,,,,,,,,,,,,,,,,22,2,2025-02-18_16h03.56.415,comp,2024.2.4,56.591913366947814,2025-02-18 16h04.04.404447 -0500,
29,29,0,filler_random,None,None,None,None,None,None,None,None,None,None,2,1.5589890480041504,None,,,,,0,0,0,0,0,29,29,157,130.867369890213,,,,,,,,,,,,,,,,,,,,,,,,,,,,,,,,,,,,,,,,,,,,,,,,,,,,,,,,,,,,,,,,,,,,,,,,,,,,,,,,,109.15590413175593,91.35382568872487,110.68758313045355,180.88323035176927,58.04731165013935,102.6674225501481,2.2,2.21,-232,-261,0,259,238,286,130.84773969650269,130.84787511825562,130.85170674324036,130.867369890213,131.0127944946289,131.0127944946289,131.0127944946289,131.0127944946289,131.0127944946289,131.0127944946289,131.0127944946289,132.42899131774902,2,1.5589890480041504,None,,,,,,,,,,,,,,,,,,22,2,2025-02-18_16h03.56.415,comp,2024.2.4,56.591913366947814,2025-02-18 16h04.04.404447 -0500,
30,30,0,filler_square,None,None,None,None,None,None,None,None,None,None,2,1.037877082824707,None,,,,,0,0,0,0,0,30,30,204,132.44385170936584,,,,,,,,,,,,,,,,,,,,,,,,,,,,,,,,,,,,,,,,,,,,,,,,,,,,,,,,,,,,,,,,,,,,,,,,,,,,,,,,,64.66530086779403,59.635170310113786,63.64469165389353,74.56627528101208,77.60598047068589,77.60598047068589,4.0,4.1,-163,-254,0,7,172,-263,132.4309151172638,132.43099904060364,132.43434143066406,132.44385170936584,132.5940158367157,132.5940158367157,132.5940158367157,132.5940158367157,132.5940158367157,132.5940158367157,132.5940158367157,133.48361992835999,2,1.037877082824707,None,,,,,,,,,,,,,,,,,,22,2,2025-02-18_16h03.56.415,comp,2024.2.4,56.591913366947814,2025-02-18 16h04.04.404447 -0500,
31,31,0,filler_square,None,None,None,None,None,None,None,None,None,None,3,1.1097979545593262,None,,,,,0,0,0,0,0,31,31,177,133.50054788589478,,,,,,,,,,,,,,,,,,,,,,,,,,,,,,,,,,,,,,,,,,,,,,,,,,,,,,,,,,,,,,,,,,,,,,,,,,,,,,,,,131.7143803358285,70.97346281309551,146.49079814990068,146.49079814990068,70.98993029064117,64.8379399472231,2.1,2.12,-205,-255,0,-277,202,281,133.48589944839478,133.48598217964172,133.48908495903015,133.50054788589478,133.64782905578613,133.64782905578613,133.64782905578613,133.64782905578613,133.64782905578613,133.64782905578613,133.64782905578613,134.61277318000793,3,1.1097979545593262,None,,,,,,,,,,,,,,,,,,22,2,2025-02-18_16h03.56.415,comp,2024.2.4,56.591913366947814,2025-02-18 16h04.04.404447 -0500,
32,32,0,filler_square,None,None,None,None,None,None,None,None,None,None,1,1.0275368690490723,None,,,,,0,0,0,0,0,32,32,178,134.63080596923828,,,,,,,,,,,,,,,,,,,,,,,,,,,,,,,,,,,,,,,,,,,,,,,,,,,,,,,,,,,,,,,,,,,,,,,,,,,,,,,,,184.63493634952863,184.63493634952863,151.6916829203392,141.5516593080175,79.3812986481973,72.83642505200753,2.1,2.11,-259,265,0,281,203,-276,134.61487674713135,134.61495804786682,134.61874651908875,134.63080596923828,134.7661702632904,134.7661702632904,134.7661702632904,134.7661702632904,134.7661702632904,134.7661702632904,134.7661702632904,135.66790986061096,1,1.0275368690490723,None,,,,,,,,,,,,,,,,,,22,2,2025-02-18_16h03.56.415,comp,2024.2.4,56.591913366947814,2025-02-18 16h04.04.404447 -0500,
33,33,0,critical,wdh,35.0,1.0,lower,57.0,133.0,70.0,70.0,133.0,57.0,3,1.4937610626220703,None,,,,,0,0,0,0,0,33,33,72,135.684184551239,,,,,,,,,,,,,,,,,,,,,,,,,,,,,,,,,,,,,,,,,,,,,,,,,,,,,,,,,,,,,,,,,,,,,,,,,,,,,,,,,57.0,133.0,70.0,70.0,133.0,57.0,1.0,1.1,-678,258,-480,255,-320,251,135.66965866088867,135.66980028152466,135.67339634895325,135.684184551239,135.83145928382874,135.83145928382874,135.83145928382874,135.83145928382874,135.83145928382874,135.83145928382874,135.83145928382874,137.18988347053528,3,1.4937610626220703,None,,,,,,,,,,,,,,,,,,22,2,2025-02-18_16h03.56.415,comp,2024.2.4,56.591913366947814,2025-02-18 16h04.04.404447 -0500,
34,34,0,critical,hwd,20.0,4.0,upper,200.0,125.0,125.0,200.0,141.0,141.0,1,1.178262710571289,None,,,,,0,0,0,0,0,34,34,107,137.207439661026,,,,,,,,,,,,,,,,,,,,,,,,,,,,,,,,,,,,,,,,,,,,,,,,,,,,,,,,,,,,,,,,,,,,,,,,,,,,,,,,,200.0,125.0,125.0,200.0,141.0,141.0,4.0,4.2,-258,8,0,-288,266,0,137.19137978553772,137.19146037101746,137.19455456733704,137.207439661026,137.35148096084595,137.35148096084595,137.35148096084595,137.35148096084595,137.35148096084595,137.35148096084595,137.35148096084595,138.4037070274353,1,1.178262710571289,None,,,,,,,,,,,,,,,,,,22,2,2025-02-18_16h03.56.415,comp,2024.2.4,56.591913366947814,2025-02-18 16h04.04.404447 -0500,
35,35,0,critical,whd,20.0,2.1,lower,57.0,133.0,133.0,57.0,78.0,78.0,1,3.2532663345336914,None,,,,,0,0,0,0,0,35,35,38,138.42149710655212,,,,,,,,,,,,,,,,,,,,,,,,,,,,,,,,,,,,,,,,,,,,,,,,,,,,,,,,,,,,,,,,,,,,,,,,,,,,,,,,,57.0,133.0,133.0,57.0,78.0,78.0,2.1,2.12,-191,-256,0,-255,164,259,138.4053509235382,138.40548825263977,138.40891242027283,138.42149710655212,138.56640481948853,138.56640481948853,138.56640481948853,138.56640481948853,138.56640481948853,138.56640481948853,138.56640481948853,141.68461537361145,1,3.2532663345336914,None,,,,,,,,,,,,,,,,,,22,2,2025-02-18_16h03.56.415,comp,2024.2.4,56.591913366947814,2025-02-18 16h04.04.404447 -0500,
36,36,0,critical,dwh,35.0,3.0,lower,70.0,70.0,57.0,133.0,133.0,57.0,2,1.2671804428100586,None,,,,,0,0,0,0,0,36,36,62,141.70285511016846,,,,,,,,,,,,,,,,,,,,,,,,,,,,,,,,,,,,,,,,,,,,,,,,,,,,,,,,,,,,,,,,,,,,,,,,,,,,,,,,,70.0,70.0,57.0,133.0,133.0,57.0,3.0,3.2,-198,-290,0,-19,191,270,141.686194896698,141.6862714290619,141.68972206115723,141.70285511016846,141.85035228729248,141.85035228729248,141.85035228729248,141.85035228729248,141.85035228729248,141.85035228729248,141.85035228729248,142.97271418571472,2,1.2671804428100586,None,,,,,,,,,,,,,,,,,,22,2,2025-02-18_16h03.56.415,comp,2024.2.4,56.591913366947814,2025-02-18 16h04.04.404447 -0500,
37,37,0,critical,whd,20.0,2.1,upper,125.0,200.0,200.0,125.0,141.0,141.0,2,3.3325963020324707,None,,,,,0,0,0,0,0,37,37,15,142.9891664981842,,,,,,,,,,,,,,,,,,,,,,,,,,,,,,,,,,,,,,,,,,,,,,,,,,,,,,,,,,,,,,,,,,,,,,,,,,,,,,,,,125.0,200.0,200.0,125.0,141.0,141.0,2.1,2.11,-258,289,0,250,229,-282,142.97434377670288,142.97442626953125,142.97755122184753,142.9891664981842,143.1300814151764,143.1300814151764,143.1300814151764,143.1300814151764,143.1300814151764,143.1300814151764,143.1300814151764,146.33513927459717,2,3.3325963020324707,None,,,,,,,,,,,,,,,,,,22,2,2025-02-18_16h03.56.415,comp,2024.2.4,56.591913366947814,2025-02-18 16h04.04.404447 -0500,
38,38,0,critical,hwd,20.0,1.0,lower,133.0,57.0,57.0,133.0,78.0,78.0,2,1.339188814163208,None,,,,,0,0,0,0,0,38,38,102,146.35052728652954,,,,,,,,,,,,,,,,,,,,,,,,,,,,,,,,,,,,,,,,,,,,,,,,,,,,,,,,,,,,,,,,,,,,,,,,,,,,,,,,,133.0,57.0,57.0,133.0,78.0,78.0,1.0,1.1,-671,260,-480,289,-278,271,146.33664298057556,146.3367178440094,146.34025287628174,146.35052728652954,146.50511622428894,146.50511622428894,146.50511622428894,146.50511622428894,146.50511622428894,146.50511622428894,146.50511622428894,147.70108819007874,2,1.339188814163208,None,,,,,,,,,,,,,,,,,,22,2,2025-02-18_16h03.56.415,comp,2024.2.4,56.591913366947814,2025-02-18 16h04.04.404447 -0500,
39,39,0,catch,None,None,None,None,None,None,None,None,None,None,1,0.8739407062530518,None,,,,,0,0,0,0,0,39,39,121,147.72003078460693,,,,,,,,,,,,,,,,,,,,,,,,,,,,,,,,,,,,,,,,,,,,,,,,,,,,,,,,,,,,,,,,,,,,,,,,,,,,,,,,,164,161,110,80,61,129,2.2,2.22,-216,274,0,-252,200,-257,147.70319414138794,147.7032699584961,147.70705890655518,147.72003078460693,147.86948823928833,147.86948823928833,147.86948823928833,147.86948823928833,147.86948823928833,147.86948823928833,147.86948823928833,148.60255026817322,1,0.8739407062530518,None,,,,,,,,,,,,,,,,,,22,2,2025-02-18_16h03.56.415,comp,2024.2.4,56.591913366947814,2025-02-18 16h04.04.404447 -0500,
40,40,0,filler_random,None,None,None,None,None,None,None,None,None,None,1,0.7751989364624023,None,,,,,0,0,0,0,0,40,40,142,148.6192536354065,,,,,,,,,,,,,,,,,,,,,,,,,,,,,,,,,,,,,,,,,,,,,,,,,,,,,,,,,,,,,,,,,,,,,,,,,,,,,,,,,124.54030154173715,76.10481363686054,150.42978655969898,80.33578557971678,104.75879687087382,78.4186046996001,3.0,3.1,-174,271,0,-13,175,-254,148.60428285598755,148.6044144630432,148.608051776886,148.6192536354065,148.76725554466248,148.76725554466248,148.76725554466248,148.76725554466248,148.76725554466248,148.76725554466248,148.76725554466248,149.4027647972107,1,0.7751989364624023,None,,,,,,,,,,,,,,,,,,22,2,2025-02-18_16h03.56.415,comp,2024.2.4,56.591913366947814,2025-02-18 16h04.04.404447 -0500,
41,41,0,critical,whd,35.0,1.0,lower,57.0,133.0,133.0,57.0,70.0,70.0,2,2.9671387672424316,None,,,,,0,0,0,0,0,41,41,84,149.41874241828918,,,,,,,,,,,,,,,,,,,,,,,,,,,,,,,,,,,,,,,,,,,,,,,,,,,,,,,,,,,,,,,,,,,,,,,,,,,,,,,,,57.0,133.0,133.0,57.0,70.0,70.0,1.0,1.1,-671,277,-480,251,-320,257,149.40426778793335,149.40434885025024,149.40792226791382,149.41874241828918,149.57001495361328,149.57001495361328,149.57001495361328,149.57001495361328,149.57001495361328,149.57001495361328,149.57001495361328,152.3903181552887,2,2.9671387672424316,None,,,,,,,,,,,,,,,,,,22,2,2025-02-18_16h03.56.415,comp,2024.2.4,56.591913366947814,2025-02-18 16h04.04.404447 -0500,
42,42,0,filler_square,None,None,None,None,None,None,None,None,None,None,1,3.4086108207702637,None,,,,,0,0,0,0,0,42,42,171,152.40961074829102,,,,,,,,,,,,,,,,,,,,,,,,,,,,,,,,,,,,,,,,,,,,,,,,,,,,,,,,,,,,,,,,,,,,,,,,,,,,,,,,,71.78152895343516,71.78152895343516,60.85008295082001,63.02063319167295,70.03242981629452,61.48762297761303,1.0,1.1,-643,290,-480,254,-322,264,152.39223527908325,152.3923168182373,152.39543318748474,152.40961074829102,152.55375933647156,152.55375933647156,152.55375933647156,152.55375933647156,152.55375933647156,152.55375933647156,152.55375933647156,155.82227420806885,1,3.4086108207702637,None,,,,,,,,,,,,,,,,,,22,2,2025-02-18_16h03.56.415,comp,2024.2.4,56.591913366947814,2025-02-18 16h04.04.404447 -0500,
43,43,0,critical,wdh,20.0,1.0,lower,57.0,133.0,78.0,78.0,133.0,57.0,1,1.683946132659912,None,,,,,0,0,0,0,0,43,43,78,155.83855724334717,,,,,,,,,,,,,,,,,,,,,,,,,,,,,,,,,,,,,,,,,,,,,,,,,,,,,,,,,,,,,,,,,,,,,,,,,,,,,,,,,57.0,133.0,78.0,78.0,133.0,57.0,1.0,1.3,278,-263,480,-264,644,-279,155.82388019561768,155.82395839691162,155.8276331424713,155.83855724334717,155.9882311820984,155.9882311820984,155.9882311820984,155.9882311820984,155.9882311820984,155.9882311820984,155.9882311820984,157.53892850875854,1,1.683946132659912,None,,,,,,,,,,,,,,,,,,22,2,2025-02-18_16h03.56.415,comp,2024.2.4,56.591913366947814,2025-02-18 16h04.04.404447 -0500,
44,44,0,filler_square,None,None,None,None,None,None,None,None,None,None,1,1.2627911567687988,None,,,,,0,0,0,0,0,44,44,186,157.55506110191345,,,,,,,,,,,,,,,,,,,,,,,,,,,,,,,,,,,,,,,,,,,,,,,,,,,,,,,,,,,,,,,,,,,,,,,,,,,,,,,,,145.1707511902186,145.1707511902186,126.77948234066602,137.36053246655877,126.74703369587337,131.35564171177782,2.2,2.21,-237,-253,0,270,230,263,157.54099798202515,157.54107570648193,157.54482889175415,157.55506110191345,157.7054398059845,157.7054398059845,157.7054398059845,157.7054398059845,157.7054398059845,157.7054398059845,157.7054398059845,158.83179354667664,1,1.2627911567687988,None,,,,,,,,,,,,,,,,,,22,2,2025-02-18_16h03.56.415,comp,2024.2.4,56.591913366947814,2025-02-18 16h04.04.404447 -0500,
45,45,0,filler_square,None,None,None,None,None,None,None,None,None,None,3,0.834303617477417,None,,,,,0,0,0,0,0,45,45,196,158.84818243980408,,,,,,,,,,,,,,,,,,,,,,,,,,,,,,,,,,,,,,,,,,,,,,,,,,,,,,,,,,,,,,,,,,,,,,,,,,,,,,,,,77.31658580271208,141.1822642602305,117.12653208283724,81.7870105023037,158.4566831243806,158.4566831243806,3.0,3.2,-207,-262,0,-6,216,268,158.83379411697388,158.8338692188263,158.83695197105408,158.84818243980408,158.98994517326355,158.98994517326355,158.98994517326355,158.98994517326355,158.98994517326355,158.98994517326355,158.98994517326355,159.69074177742004,3,0.834303617477417,None,,,,,,,,,,,,,,,,,,22,2,2025-02-18_16h03.56.415,comp,2024.2.4,56.591913366947814,2025-02-18 16h04.04.404447 -0500,
46,46,0,filler_random,None,None,None,None,None,None,None,None,None,None,3,1.3746616840362549,None,,,,,0,0,0,0,0,46,46,161,159.70701837539673,,,,,,,,,,,,,,,,,,,,,,,,,,,,,,,,,,,,,,,,,,,,,,,,,,,,,,,,,,,,,,,,,,,,,,,,,,,,,,,,,117.0134858156159,138.9318138198131,94.43678832740441,164.87580149423366,155.21306520726372,100.66603459087501,2.1,2.11,-248,283,0,284,229,-267,159.69242644309998,159.69250321388245,159.69553589820862,159.70701837539673,159.85673308372498,159.85673308372498,159.85673308372498,159.85673308372498,159.85673308372498,159.85673308372498,159.85673308372498,161.09421944618225,3,1.3746616840362549,None,,,,,,,,,,,,,,,,,,22,2,2025-02-18_16h03.56.415,comp,2024.2.4,56.591913366947814,2025-02-18 16h04.04.404447 -0500,
47,47,0,critical,hwd,20.0,1.0,upper,200.0,125.0,125.0,200.0,141.0,141.0,2,0.8831264972686768,None,,,,,0,0,0,0,0,47,47,103,161.1129162311554,,,,,,,,,,,,,,,,,,,,,,,,,,,,,,,,,,,,,,,,,,,,,,,,,,,,,,,,,,,,,,,,,,,,,,,,,,,,,,,,,200.0,125.0,125.0,200.0,141.0,141.0,1.0,1.2,-258,13,0,12,266,-18,161.09572005271912,161.0957989692688,161.09887623786926,161.1129162311554,161.25793862342834,161.25793862342834,161.25793862342834,161.25793862342834,161.25793862342834,161.25793862342834,161.25793862342834,162.00709676742554,2,0.8831264972686768,None,,,,,,,,,,,,,,,,,,22,2,2025-02-18_16h03.56.415,comp,2024.2.4,56.591913366947814,2025-02-18 16h04.04.404447 -0500,
48,48,0,filler_square,None,None,None,None,None,None,None,None,None,None,3,4.018336772918701,None,,,,,0,0,0,0,0,48,48,190,162.0237455368042,,,,,,,,,,,,,,,,,,,,,,,,,,,,,,,,,,,,,,,,,,,,,,,,,,,,,,,,,,,,,,,,,,,,,,,,,,,,,,,,,72.23611321021028,72.19470360668066,72.48331711627253,76.41804267730959,79.69340467467518,79.69340467467518,3.0,3.2,-170,-286,0,19,174,266,162.00921368598938,162.00929260253906,162.01304244995117,162.0237455368042,162.17325687408447,162.17325687408447,162.17325687408447,162.17325687408447,162.17325687408447,162.17325687408447,162.17325687408447,166.0474977493286,3,4.018336772918701,None,,,,,,,,,,,,,,,,,,22,2,2025-02-18_16h03.56.415,comp,2024.2.4,56.591913366947814,2025-02-18 16h04.04.404447 -0500,
49,49,0,filler_random,None,None,None,None,None,None,None,None,None,None,2,1.2893099784851074,None,,,,,0,0,0,0,0,49,49,150,166.06459021568298,,,,,,,,,,,,,,,,,,,,,,,,,,,,,,,,,,,,,,,,,,,,,,,,,,,,,,,,,,,,,,,,,,,,,,,,,,,,,,,,,102.55901853369302,97.04929283082942,124.22776758712529,136.07576981194762,99.52591960115218,123.83798845834662,4.0,4.1,-213,-283,0,-5,226,-263,166.0492503643036,166.0493462085724,166.0528404712677,166.06459021568298,166.20676183700562,166.20676183700562,166.20676183700562,166.20676183700562,166.20676183700562,166.20676183700562,166.20676183700562,167.3582010269165,2,1.2893099784851074,None,,,,,,,,,,,,,,,,,,22,2,2025-02-18_16h03.56.415,comp,2024.2.4,56.591913366947814,2025-02-18 16h04.04.404447 -0500,
50,50,0,critical,dwh,20.0,2.1,lower,78.0,78.0,57.0,133.0,133.0,57.0,3,1.419548749923706,None,,,,,0,0,0,0,0,50,50,30,167.37425446510315,,,,,,,,,,,,,,,,,,,,,,,,,,,,,,,,,,,,,,,,,,,,,,,,,,,,,,,,,,,,,,,,,,,,,,,,,,,,,,,,,78.0,78.0,57.0,133.0,133.0,57.0,2.1,2.11,-202,280,0,289,191,-263,167.35972929000854,167.35980653762817,167.3632960319519,167.37425446510315,167.52320432662964,167.52320432662964,167.52320432662964,167.52320432662964,167.52320432662964,167.52320432662964,167.52320432662964,168.80858945846558,3,1.419548749923706,None,,,,,,,,,,,,,,,,,,22,2,2025-02-18_16h03.56.415,comp,2024.2.4,56.591913366947814,2025-02-18 16h04.04.404447 -0500,
51,51,0,critical,dwh,20.0,1.0,upper,141.0,141.0,125.0,200.0,200.0,125.0,3,1.857292652130127,None,,,,,0,0,0,0,0,51,51,67,168.82440876960754,,,,,,,,,,,,,,,,,,,,,,,,,,,,,,,,,,,,,,,,,,,,,,,,,,,,,,,,,,,,,,,,,,,,,,,,,,,,,,,,,141.0,141.0,125.0,200.0,200.0,125.0,1.0,1.1,-746,283,-480,289,-222,258,168.8100974559784,168.81017422676086,168.81346106529236,168.82440876960754,168.97249746322632,168.97249746322632,168.97249746322632,168.97249746322632,168.97249746322632,168.97249746322632,168.97249746322632,170.6956708431244,3,1.857292652130127,None,,,,,,,,,,,,,,,,,,22,2,2025-02-18_16h03.56.415,comp,2024.2.4,56.591913366947814,2025-02-18 16h04.04.404447 -0500,
52,52,0,filler_random,None,None,None,None,None,None,None,None,None,None,2,0.8718438148498535,None,,,,,0,0,0,0,0,52,52,166,170.71421670913696,,,,,,,,,,,,,,,,,,,,,,,,,,,,,,,,,,,,,,,,,,,,,,,,,,,,,,,,,,,,,,,,,,,,,,,,,,,,,,,,,138.9851889597395,128.91128144959671,194.9349833673994,176.38995199337916,93.60586486315977,86.5207346833388,3.0,3.2,-249,-268,0,-17,227,268,170.69743180274963,170.69751572608948,170.7007040977478,170.71421670913696,170.85894441604614,170.85894441604614,170.85894441604614,170.85894441604614,170.85894441604614,170.85894441604614,170.85894441604614,171.594420671463,2,0.8718438148498535,None,,,,,,,,,,,,,,,,,,22,2,2025-02-18_16h03.56.415,comp,2024.2.4,56.591913366947814,2025-02-18 16h04.04.404447 -0500,
53,53,0,catch,None,None,None,None,None,None,None,None,None,None,2,1.215005874633789,None,,,,,0,0,0,0,0,53,53,128,171.61071276664734,,,,,,,,,,,,,,,,,,,,,,,,,,,,,,,,,,,,,,,,,,,,,,,,,,,,,,,,,,,,,,,,,,,,,,,,,,,,,,,,,59,131,161,164,113,77,4.0,4.1,-244,-279,0,-8,216,-289,171.59648966789246,171.59660172462463,171.59998965263367,171.61071276664734,171.75991892814636,171.75991892814636,171.75991892814636,171.75991892814636,171.75991892814636,171.75991892814636,171.75991892814636,172.8457624912262,2,1.215005874633789,None,,,,,,,,,,,,,,,,,,22,2,2025-02-18_16h03.56.415,comp,2024.2.4,56.591913366947814,2025-02-18 16h04.04.404447 -0500,
54,54,0,critical,hdw,20.0,4.0,lower,133.0,57.0,78.0,78.0,57.0,133.0,3,5.777524471282959,None,,,,,0,0,0,0,0,54,54,118,172.8641321659088,,,,,,,,,,,,,,,,,,,,,,,,,,,,,,,,,,,,,,,,,,,,,,,,,,,,,,,,,,,,,,,,,,,,,,,,,,,,,,,,,133.0,57.0,78.0,78.0,57.0,133.0,4.0,4.1,-164,-285,0,3,202,-266,172.8474977016449,172.8477065563202,172.85126042366028,172.8641321659088,173.00972867012024,173.00972867012024,173.00972867012024,173.00972867012024,173.00972867012024,173.00972867012024,173.00972867012024,178.64521884918213,3,5.777524471282959,None,,,,,,,,,,,,,,,,,,22,2,2025-02-18_16h03.56.415,comp,2024.2.4,56.591913366947814,2025-02-18 16h04.04.404447 -0500,
55,55,0,filler_random,None,None,None,None,None,None,None,None,None,None,2,1.971421241760254,None,,,,,0,0,0,0,0,55,55,163,178.66229152679443,,,,,,,,,,,,,,,,,,,,,,,,,,,,,,,,,,,,,,,,,,,,,,,,,,,,,,,,,,,,,,,,,,,,,,,,,,,,,,,,,102.18664625398361,169.10925615505988,197.42227913191928,85.44080513718991,80.38396685991765,178.03691346373438,2.1,2.12,-223,-258,0,-287,228,279,178.64709401130676,178.64723706245422,178.65148735046387,178.66229152679443,178.81072688102722,178.81072688102722,178.81072688102722,178.81072688102722,178.81072688102722,178.81072688102722,178.81072688102722,180.64435195922852,2,1.971421241760254,None,,,,,,,,,,,,,,,,,,22,2,2025-02-18_16h03.56.415,comp,2024.2.4,56.591913366947814,2025-02-18 16h04.04.404447 -0500,
56,56,0,filler_square,None,None,None,None,None,None,None,None,None,None,1,0.9810388088226318,None,,,,,0,0,0,0,0,56,56,184,180.66108179092407,,,,,,,,,,,,,,,,,,,,,,,,,,,,,,,,,,,,,,,,,,,,,,,,,,,,,,,,,,,,,,,,,,,,,,,,,,,,,,,,,173.4264321946129,173.4264321946129,144.0731746340757,98.61229788178304,90.5863081138134,143.83535421791748,2.2,2.21,-232,-276,0,281,217,267,180.64615178108215,180.646226644516,180.64930200576782,180.66108179092407,180.81559205055237,180.81559205055237,180.81559205055237,180.81559205055237,180.81559205055237,180.81559205055237,180.81559205055237,181.6613392829895,1,0.9810388088226318,None,,,,,,,,,,,,,,,,,,22,2,2025-02-18_16h03.56.415,comp,2024.2.4,56.591913366947814,2025-02-18 16h04.04.404447 -0500,
57,57,0,critical,dwh,35.0,3.0,upper,127.0,127.0,125.0,200.0,200.0,125.0,3,0.9880576133728027,None,,,,,0,0,0,0,0,57,57,63,181.6776487827301,,,,,,,,,,,,,,,,,,,,,,,,,,,,,,,,,,,,,,,,,,,,,,,,,,,,,,,,,,,,,,,,,,,,,,,,,,,,,,,,,127.0,127.0,125.0,200.0,200.0,125.0,3.0,3.2,-260,-262,0,6,258,280,181.66285133361816,181.66292667388916,181.66629362106323,181.6776487827301,181.8311984539032,181.8311984539032,181.8311984539032,181.8311984539032,181.8311984539032,181.8311984539032,181.8311984539032,182.67920970916748,3,0.9880576133728027,None,,,,,,,,,,,,,,,,,,22,2,2025-02-18_16h03.56.415,comp,2024.2.4,56.591913366947814,2025-02-18 16h04.04.404447 -0500,
58,58,0,critical,wdh,20.0,2.1,lower,57.0,133.0,78.0,78.0,133.0,57.0,1,1.2362589836120605,None,,,,,0,0,0,0,0,58,58,34,182.6944010257721,,,,,,,,,,,,,,,,,,,,,,,,,,,,,,,,,,,,,,,,,,,,,,,,,,,,,,,,,,,,,,,,,,,,,,,,,,,,,,,,,57.0,133.0,78.0,78.0,133.0,57.0,2.1,2.12,-202,-275,0,-280,164,267,182.6807610988617,182.6808352470398,182.68392372131348,182.6944010257721,182.84899473190308,182.84899473190308,182.84899473190308,182.84899473190308,182.84899473190308,182.84899473190308,182.84899473190308,183.93753504753113,1,1.2362589836120605,None,,,,,,,,,,,,,,,,,,22,2,2025-02-18_16h03.56.415,comp,2024.2.4,56.591913366947814,2025-02-18 16h04.04.404447 -0500,
59,59,0,critical,whd,35.0,3.0,upper,125.0,200.0,200.0,125.0,127.0,127.0,2,1.2480313777923584,None,,,,,0,0,0,0,0,59,59,87,183.95370483398438,,,,,,,,,,,,,,,,,,,,,,,,,,,,,,,,,,,,,,,,,,,,,,,,,,,,,,,,,,,,,,,,,,,,,,,,,,,,,,,,,125.0,200.0,200.0,125.0,127.0,127.0,3.0,3.1,-258,287,0,-5,222,-276,183.9390790462494,183.93918299674988,183.9423041343689,183.95370483398438,184.09585237503052,184.09585237503052,184.09585237503052,184.09585237503052,184.09585237503052,184.09585237503052,184.09585237503052,185.2122631072998,2,1.2480313777923584,None,,,,,,,,,,,,,,,,,,22,2,2025-02-18_16h03.56.415,comp,2024.2.4,56.591913366947814,2025-02-18 16h04.04.404447 -0500,
60,60,0,critical,hwd,35.0,2.1,lower,133.0,57.0,57.0,133.0,70.0,70.0,3,2.0636343955993652,None,,,,,0,0,0,0,0,60,60,16,185.22783064842224,,,,,,,,,,,,,,,,,,,,,,,,,,,,,,,,,,,,,,,,,,,,,,,,,,,,,,,,,,,,,,,,,,,,,,,,,,,,,,,,,133.0,57.0,57.0,133.0,70.0,70.0,2.1,2.11,-191,283,0,272,198,-262,185.21383810043335,185.21391916275024,185.2169849872589,185.22783064842224,185.37130737304688,185.37130737304688,185.37130737304688,185.37130737304688,185.37130737304688,185.37130737304688,185.37130737304688,187.29705381393433,3,2.0636343955993652,None,,,,,,,,,,,,,,,,,,22,2,2025-02-18_16h03.56.415,comp,2024.2.4,56.591913366947814,2025-02-18 16h04.04.404447 -0500,
61,61,0,filler_random,None,None,None,None,None,None,None,None,None,None,1,1.1367912292480469,None,,,,,0,0,0,0,0,61,61,131,187.3136146068573,,,,,,,,,,,,,,,,,,,,,,,,,,,,,,,,,,,,,,,,,,,,,,,,,,,,,,,,,,,,,,,,,,,,,,,,,,,,,,,,,198.91761887948422,130.5075362983482,156.28390769715202,101.52683592164661,73.4054691702101,60.114027987234635,2.1,2.12,-212,-262,0,-289,177,254,187.29874658584595,187.29882669448853,187.30209302902222,187.3136146068573,187.46451783180237,187.46451783180237,187.46451783180237,187.46451783180237,187.46451783180237,187.46451783180237,187.46451783180237,188.45566153526306,1,1.1367912292480469,None,,,,,,,,,,,,,,,,,,22,2,2025-02-18_16h03.56.415,comp,2024.2.4,56.591913366947814,2025-02-18 16h04.04.404447 -0500,
62,62,0,critical,hdw,35.0,4.0,lower,133.0,57.0,70.0,70.0,57.0,133.0,1,3.249892473220825,None,,,,,0,0,0,0,0,62,62,112,188.47182607650757,,,,,,,,,,,,,,,,,,,,,,,,,,,,,,,,,,,,,,,,,,,,,,,,,,,,,,,,,,,,,,,,,,,,,,,,,,,,,,,,,133.0,57.0,70.0,70.0,57.0,133.0,4.0,4.2,-160,15,0,-266,198,-13,188.45728754997253,188.4573690891266,188.46089458465576,188.47182607650757,188.612708568573,188.612708568573,188.612708568573,188.612708568573,188.612708568573,188.612708568573,188.612708568573,191.7329297065735,1,3.249892473220825,None,,,,,,,,,,,,,,,,,,22,2,2025-02-18_16h03.56.415,comp,2024.2.4,56.591913366947814,2025-02-18 16h04.04.404447 -0500,
63,63,0,filler_square,None,None,None,None,None,None,None,None,None,None,1,2.4317898750305176,None,,,,,0,0,0,0,0,63,63,187,191.75393080711365,,,,,,,,,,,,,,,,,,,,,,,,,,,,,,,,,,,,,,,,,,,,,,,,,,,,,,,,,,,,,,,,,,,,,,,,,,,,,,,,,80.91528636443023,80.91528636443023,61.688008057606936,58.3990012504811,79.88266237935923,65.66047950187662,2.1,2.11,-166,264,0,261,158,-274,191.73482131958008,191.7349021434784,191.73803806304932,191.75393080711365,191.89921975135803,191.89921975135803,191.89921975135803,191.89921975135803,191.89921975135803,191.89921975135803,191.89921975135803,194.19927287101746,1,2.4317898750305176,None,,,,,,,,,,,,,,,,,,22,2,2025-02-18_16h03.56.415,comp,2024.2.4,56.591913366947814,2025-02-18 16h04.04.404447 -0500,
64,64,0,critical,wdh,20.0,3.0,lower,57.0,133.0,78.0,78.0,133.0,57.0,3,3.002460241317749,None,,,,,0,0,0,0,0,64,64,80,194.21546530723572,,,,,,,,,,,,,,,,,,,,,,,,,,,,,,,,,,,,,,,,,,,,,,,,,,,,,,,,,,,,,,,,,,,,,,,,,,,,,,,,,57.0,133.0,78.0,78.0,133.0,57.0,3.0,3.1,-202,268,0,-1,164,-279,194.20083904266357,194.20091700553894,194.2042453289032,194.21546530723572,194.36353468894958,194.36353468894958,194.36353468894958,194.36353468894958,194.36353468894958,194.36353468894958,194.36353468894958,197.2341136932373,3,3.002460241317749,None,,,,,,,,,,,,,,,,,,22,2,2025-02-18_16h03.56.415,comp,2024.2.4,56.591913366947814,2025-02-18 16h04.04.404447 -0500,
65,65,0,critical,whd,20.0,3.0,upper,125.0,200.0,200.0,125.0,141.0,141.0,1,3.0795464515686035,None,,,,,0,0,0,0,0,65,65,93,197.25054049491882,,,,,,,,,,,,,,,,,,,,,,,,,,,,,,,,,,,,,,,,,,,,,,,,,,,,,,,,,,,,,,,,,,,,,,,,,,,,,,,,,125.0,200.0,200.0,125.0,141.0,141.0,3.0,3.2,-258,-261,0,14,229,264,197.23574709892273,197.23589372634888,197.2394893169403,197.25054049491882,197.4066572189331,197.4066572189331,197.4066572189331,197.4066572189331,197.4066572189331,197.4066572189331,197.4066572189331,200.33714866638184,1,3.0795464515686035,None,,,,,,,,,,,,,,,,,,22,2,2025-02-18_16h03.56.415,comp,2024.2.4,56.591913366947814,2025-02-18 16h04.04.404447 -0500,
66,66,0,critical,hwd,35.0,4.0,lower,133.0,57.0,57.0,133.0,70.0,70.0,2,2.4069950580596924,None,,,,,0,0,0,0,0,66,66,100,200.35563492774963,,,,,,,,,,,,,,,,,,,,,,,,,,,,,,,,,,,,,,,,,,,,,,,,,,,,,,,,,,,,,,,,,,,,,,,,,,,,,,,,,133.0,57.0,57.0,133.0,70.0,70.0,4.0,4.1,-191,-278,0,16,198,-252,200.33879208564758,200.33890080451965,200.3424117565155,200.35563492774963,200.5017430782318,200.5017430782318,200.5017430782318,200.5017430782318,200.5017430782318,200.5017430782318,200.5017430782318,202.76781558990479,2,2.4069950580596924,None,,,,,,,,,,,,,,,,,,22,2,2025-02-18_16h03.56.415,comp,2024.2.4,56.591913366947814,2025-02-18 16h04.04.404447 -0500,
67,67,0,critical,dhw,35.0,4.0,lower,70.0,70.0,133.0,57.0,57.0,133.0,1,1.3956727981567383,None,,,,,0,0,0,0,0,67,67,52,202.7846918106079,,,,,,,,,,,,,,,,,,,,,,,,,,,,,,,,,,,,,,,,,,,,,,,,,,,,,,,,,,,,,,,,,,,,,,,,,,,,,,,,,70.0,70.0,133.0,57.0,57.0,133.0,4.0,4.2,-160,-1,0,-265,191,17,202.76940488815308,202.76948356628418,202.7730221748352,202.7846918106079,202.94004130363464,202.94004130363464,202.94004130363464,202.94004130363464,202.94004130363464,202.94004130363464,202.94004130363464,204.18493700027466,1,1.3956727981567383,None,,,,,,,,,,,,,,,,,,22,2,2025-02-18_16h03.56.415,comp,2024.2.4,56.591913366947814,2025-02-18 16h04.04.404447 -0500,
68,68,0,critical,dwh,20.0,4.0,lower,78.0,78.0,57.0,133.0,133.0,57.0,2,0.960453987121582,None,,,,,0,0,0,0,0,68,68,70,204.20147132873535,,,,,,,,,,,,,,,,,,,,,,,,,,,,,,,,,,,,,,,,,,,,,,,,,,,,,,,,,,,,,,,,,,,,,,,,,,,,,,,,,78.0,78.0,57.0,133.0,133.0,57.0,4.0,4.1,-202,-276,0,-6,191,-290,204.18644666671753,204.1865246295929,204.18980860710144,204.20147132873535,204.35585713386536,204.35585713386536,204.35585713386536,204.35585713386536,204.35585713386536,204.35585713386536,204.35585713386536,205.171888589859,2,0.960453987121582,None,,,,,,,,,,,,,,,,,,22,2,2025-02-18_16h03.56.415,comp,2024.2.4,56.591913366947814,2025-02-18 16h04.04.404447 -0500,
69,69,0,critical,hwd,20.0,3.0,lower,133.0,57.0,57.0,133.0,78.0,78.0,2,1.3905761241912842,None,,,,,0,0,0,0,0,69,69,104,205.18790197372437,,,,,,,,,,,,,,,,,,,,,,,,,,,,,,,,,,,,,,,,,,,,,,,,,,,,,,,,,,,,,,,,,,,,,,,,,,,,,,,,,133.0,57.0,57.0,133.0,78.0,78.0,3.0,3.2,-191,-259,0,-1,202,278,205.17348170280457,205.17355728149414,205.17705988883972,205.18790197372437,205.33666467666626,205.33666467666626,205.33666467666626,205.33666467666626,205.33666467666626,205.33666467666626,205.33666467666626,206.58621907234192,2,1.3905761241912842,None,,,,,,,,,,,,,,,,,,22,2,2025-02-18_16h03.56.415,comp,2024.2.4,56.591913366947814,2025-02-18 16h04.04.404447 -0500,
70,70,0,filler_square,None,None,None,None,None,None,None,None,None,None,1,0.7866103649139404,None,,,,,0,0,0,0,0,70,70,202,206.60708236694336,,,,,,,,,,,,,,,,,,,,,,,,,,,,,,,,,,,,,,,,,,,,,,,,,,,,,,,,,,,,,,,,,,,,,,,,,,,,,,,,,60.30185013769905,60.30185013769905,58.923487681618454,58.72076675417175,58.7980675924141,59.917972446916465,2.2,2.22,-156,272,0,-267,155,-290,206.58817148208618,206.58827900886536,206.59162044525146,206.60708236694336,206.75293731689453,206.75293731689453,206.75293731689453,206.75293731689453,206.75293731689453,206.75293731689453,206.75293731689453,207.4079008102417,1,0.7866103649139404,None,,,,,,,,,,,,,,,,,,22,2,2025-02-18_16h03.56.415,comp,2024.2.4,56.591913366947814,2025-02-18 16h04.04.404447 -0500,
71,71,0,critical,hwd,20.0,4.0,lower,133.0,57.0,57.0,133.0,78.0,78.0,2,1.8711180686950684,None,,,,,0,0,0,0,0,71,71,106,207.42659783363342,,,,,,,,,,,,,,,,,,,,,,,,,,,,,,,,,,,,,,,,,,,,,,,,,,,,,,,,,,,,,,,,,,,,,,,,,,,,,,,,,133.0,57.0,57.0,133.0,78.0,78.0,4.0,4.1,-191,-257,0,18,202,-258,207.40950798988342,207.40963125228882,207.41317510604858,207.42659783363342,207.5712811946869,207.5712811946869,207.5712811946869,207.5712811946869,207.5712811946869,207.5712811946869,207.5712811946869,209.3113956451416,2,1.8711180686950684,None,,,,,,,,,,,,,,,,,,22,2,2025-02-18_16h03.56.415,comp,2024.2.4,56.591913366947814,2025-02-18 16h04.04.404447 -0500,
72,72,0,filler_square,None,None,None,None,None,None,None,None,None,None,3,0.8610608577728271,None,,,,,0,0,0,0,0,72,72,173,209.33271169662476,,,,,,,,,,,,,,,,,,,,,,,,,,,,,,,,,,,,,,,,,,,,,,,,,,,,,,,,,,,,,,,,,,,,,,,,,,,,,,,,,73.22679975082835,123.97041161412974,146.09059340356475,112.22008876707402,149.70172273490806,149.70172273490806,1.0,1.1,-694,273,-480,284,-253,256,209.31335282325745,209.3134322166443,209.3168179988861,209.33271169662476,209.47202563285828,209.47202563285828,209.47202563285828,209.47202563285828,209.47202563285828,209.47202563285828,209.47202563285828,210.2038323879242,3,0.8610608577728271,None,,,,,,,,,,,,,,,,,,22,2,2025-02-18_16h03.56.415,comp,2024.2.4,56.591913366947814,2025-02-18 16h04.04.404447 -0500,
73,73,0,filler_random,None,None,None,None,None,None,None,None,None,None,2,1.0610530376434326,None,,,,,0,0,0,0,0,73,73,138,210.22139859199524,,,,,,,,,,,,,,,,,,,,,,,,,,,,,,,,,,,,,,,,,,,,,,,,,,,,,,,,,,,,,,,,,,,,,,,,,,,,,,,,,136.6365805821834,192.67699881318097,121.52905232489692,181.3750801003794,72.55365806893356,117.11606065969077,4.0,4.2,-283,10,0,-279,245,-15,210.2055230140686,210.2056212425232,210.20884227752686,210.22139859199524,210.37862849235535,210.37862849235535,210.37862849235535,210.37862849235535,210.37862849235535,210.37862849235535,210.37862849235535,211.28991413116455,2,1.0610530376434326,None,,,,,,,,,,,,,,,,,,22,2,2025-02-18_16h03.56.415,comp,2024.2.4,56.591913366947814,2025-02-18 16h04.04.404447 -0500,
74,74,0,critical,hdw,35.0,4.0,upper,200.0,125.0,127.0,127.0,125.0,200.0,3,0.847712516784668,None,,,,,0,0,0,0,0,74,74,113,211.30630135536194,,,,,,,,,,,,,,,,,,,,,,,,,,,,,,,,,,,,,,,,,,,,,,,,,,,,,,,,,,,,,,,,,,,,,,,,,,,,,,,,,200.0,125.0,127.0,127.0,125.0,200.0,4.0,4.2,-222,-19,0,-253,260,-13,211.2916238307953,211.2917640209198,211.29539823532104,211.30630135536194,211.45541334152222,211.45541334152222,211.45541334152222,211.45541334152222,211.45541334152222,211.45541334152222,211.45541334152222,212.17165899276733,3,0.847712516784668,None,,,,,,,,,,,,,,,,,,22,2,2025-02-18_16h03.56.415,comp,2024.2.4,56.591913366947814,2025-02-18 16h04.04.404447 -0500,
75,75,0,filler_square,None,None,None,None,None,None,None,None,None,None,1,0.8909029960632324,None,,,,,0,0,0,0,0,75,75,207,212.1916847229004,,,,,,,,,,,,,,,,,,,,,,,,,,,,,,,,,,,,,,,,,,,,,,,,,,,,,,,,,,,,,,,,,,,,,,,,,,,,,,,,,120.58483018357646,120.58483018357646,62.10614863772972,70.45776479177663,60.66877658145382,68.66035373730017,1.0,1.3,288,-265,480,-266,646,-268,212.1734766960144,212.17355227470398,212.17698764801025,212.1916847229004,212.33924055099487,212.33924055099487,212.33924055099487,212.33924055099487,212.33924055099487,212.33924055099487,212.33924055099487,213.09037446975708,1,0.8909029960632324,None,,,,,,,,,,,,,,,,,,22,2,2025-02-18_16h03.56.415,comp,2024.2.4,56.591913366947814,2025-02-18 16h04.04.404447 -0500,
76,76,0,critical,dhw,35.0,1.0,upper,127.0,127.0,200.0,125.0,125.0,200.0,2,0.943995475769043,None,,,,,0,0,0,0,0,76,76,49,213.10673236846924,,,,,,,,,,,,,,,,,,,,,,,,,,,,,,,,,,,,,,,,,,,,,,,,,,,,,,,,,,,,,,,,,,,,,,,,,,,,,,,,,127.0,127.0,200.0,125.0,125.0,200.0,1.0,1.2,-222,7,0,11,258,-4,213.09206461906433,213.0921449661255,213.09588050842285,213.10673236846924,213.25555205345154,213.25555205345154,213.25555205345154,213.25555205345154,213.25555205345154,213.25555205345154,213.25555205345154,214.05667781829834,2,0.943995475769043,None,,,,,,,,,,,,,,,,,,22,2,2025-02-18_16h03.56.415,comp,2024.2.4,56.591913366947814,2025-02-18 16h04.04.404447 -0500,
77,77,0,critical,whd,35.0,4.0,lower,57.0,133.0,133.0,57.0,70.0,70.0,3,1.2336530685424805,None,,,,,0,0,0,0,0,77,77,88,214.0726809501648,,,,,,,,,,,,,,,,,,,,,,,,,,,,,,,,,,,,,,,,,,,,,,,,,,,,,,,,,,,,,,,,,,,,,,,,,,,,,,,,,57.0,133.0,133.0,57.0,70.0,70.0,4.0,4.1,-191,-269,0,-4,160,-278,214.05825304985046,214.05833530426025,214.06201267242432,214.0726809501648,214.22462034225464,214.22462034225464,214.22462034225464,214.22462034225464,214.22462034225464,214.22462034225464,214.22462034225464,215.32321190834045,3,1.2336530685424805,None,,,,,,,,,,,,,,,,,,22,2,2025-02-18_16h03.56.415,comp,2024.2.4,56.591913366947814,2025-02-18 16h04.04.404447 -0500,
78,78,0,critical,hdw,20.0,3.0,lower,133.0,57.0,78.0,78.0,57.0,133.0,2,0.7597596645355225,None,,,,,0,0,0,0,0,78,78,116,215.33894848823547,,,,,,,,,,,,,,,,,,,,,,,,,,,,,,,,,,,,,,,,,,,,,,,,,,,,,,,,,,,,,,,,,,,,,,,,,,,,,,,,,133.0,57.0,78.0,78.0,57.0,133.0,3.0,3.1,-164,254,0,-5,202,-287,215.32485580444336,215.32493233680725,215.32853865623474,215.33894848823547,215.49712705612183,215.49712705612183,215.49712705612183,215.49712705612183,215.49712705612183,215.49712705612183,215.49712705612183,216.1060402393341,2,0.7597596645355225,None,,,,,,,,,,,,,,,,,,22,2,2025-02-18_16h03.56.415,comp,2024.2.4,56.591913366947814,2025-02-18 16h04.04.404447 -0500,
79,79,0,critical,dhw,20.0,2.1,upper,141.0,141.0,200.0,125.0,125.0,200.0,2,0.8155419826507568,None,,,,,0,0,0,0,0,79,79,3,216.12269616127014,,,,,,,,,,,,,,,,,,,,,,,,,,,,,,,,,,,,,,,,,,,,,,,,,,,,,,,,,,,,,,,,,,,,,,,,,,,,,,,,,141.0,141.0,200.0,125.0,125.0,200.0,2.1,2.11,-229,266,0,250,258,-286,216.10764336585999,216.10771918296814,216.11122703552246,216.12269616127014,216.27379894256592,216.27379894256592,216.27379894256592,216.27379894256592,216.27379894256592,216.27379894256592,216.27379894256592,216.94129157066345,2,0.8155419826507568,None,,,,,,,,,,,,,,,,,,22,2,2025-02-18_16h03.56.415,comp,2024.2.4,56.591913366947814,2025-02-18 16h04.04.404447 -0500,
80,80,0,critical,hdw,20.0,3.0,upper,200.0,125.0,141.0,141.0,125.0,200.0,2,0.6609573364257812,None,,,,,0,0,0,0,0,80,80,117,216.95750832557678,,,,,,,,,,,,,,,,,,,,,,,,,,,,,,,,,,,,,,,,,,,,,,,,,,,,,,,,,,,,,,,,,,,,,,,,,,,,,,,,,200.0,125.0,141.0,141.0,125.0,200.0,3.0,3.1,-229,265,0,-16,266,-289,216.94292283058167,216.9430010318756,216.94677662849426,216.95750832557678,217.10684633255005,217.10684633255005,217.10684633255005,217.10684633255005,217.10684633255005,217.10684633255005,217.10684633255005,217.6232168674469,2,0.6609573364257812,None,,,,,,,,,,,,,,,,,,22,2,2025-02-18_16h03.56.415,comp,2024.2.4,56.591913366947814,2025-02-18 16h04.04.404447 -0500,
81,81,0,filler_square,None,None,None,None,None,None,None,None,None,None,1,1.6897327899932861,None,,,,,0,0,0,0,0,81,81,194,217.64153409004211,,,,,,,,,,,,,,,,,,,,,,,,,,,,,,,,,,,,,,,,,,,,,,,,,,,,,,,,,,,,,,,,,,,,,,,,,,,,,,,,,69.55805248276741,70.82391998108722,100.91325698391316,100.91325698391316,57.069675545684134,83.08870479163264,4.0,4.1,-182,-269,0,5,188,-276,217.62513613700867,217.62525916099548,217.6286060810089,217.64153409004211,217.79022431373596,217.79022431373596,217.79022431373596,217.79022431373596,217.79022431373596,217.79022431373596,217.79022431373596,219.34165978431702,1,1.6897327899932861,None,,,,,,,,,,,,,,,,,,22,2,2025-02-18_16h03.56.415,comp,2024.2.4,56.591913366947814,2025-02-18 16h04.04.404447 -0500,
82,82,0,critical,dhw,20.0,3.0,upper,141.0,141.0,200.0,125.0,125.0,200.0,2,1.660287857055664,None,,,,,0,0,0,0,0,82,82,57,219.35769319534302,,,,,,,,,,,,,,,,,,,,,,,,,,,,,,,,,,,,,,,,,,,,,,,,,,,,,,,,,,,,,,,,,,,,,,,,,,,,,,,,,141.0,141.0,200.0,125.0,125.0,200.0,3.0,3.1,-229,257,0,8,258,-284,219.34327721595764,219.34335279464722,219.3469729423523,219.35769319534302,219.50645470619202,219.50645470619202,219.50645470619202,219.50645470619202,219.50645470619202,219.50645470619202,219.50645470619202,221.0242040157318,2,1.660287857055664,None,,,,,,,,,,,,,,,,,,22,2,2025-02-18_16h03.56.415,comp,2024.2.4,56.591913366947814,2025-02-18 16h04.04.404447 -0500,
83,83,0,critical,whd,20.0,4.0,upper,125.0,200.0,200.0,125.0,141.0,141.0,3,0.5060539245605469,None,,,,,0,0,0,0,0,83,83,95,221.0397868156433,,,,,,,,,,,,,,,,,,,,,,,,,,,,,,,,,,,,,,,,,,,,,,,,,,,,,,,,,,,,,,,,,,,,,,,,,,,,,,,,,125.0,200.0,200.0,125.0,141.0,141.0,4.0,4.1,-258,-282,0,18,229,-251,221.02490210533142,221.02493357658386,221.02654695510864,221.0397868156433,221.1884114742279,221.1884114742279,221.1884114742279,221.1884114742279,221.1884114742279,221.1884114742279,221.1884114742279,221.5591311454773,3,0.5060539245605469,None,,,,,,,,,,,,,,,,,,22,2,2025-02-18_16h03.56.415,comp,2024.2.4,56.591913366947814,2025-02-18 16h04.04.404447 -0500,
84,84,0,critical,dwh,35.0,4.0,upper,127.0,127.0,125.0,200.0,200.0,125.0,2,0.8346140384674072,None,,,,,0,0,0,0,0,84,84,65,221.57516956329346,,,,,,,,,,,,,,,,,,,,,,,,,,,,,,,,,,,,,,,,,,,,,,,,,,,,,,,,,,,,,,,,,,,,,,,,,,,,,,,,,127.0,127.0,125.0,200.0,200.0,125.0,4.0,4.1,-260,-272,0,9,258,-261,221.56081295013428,221.5609414577484,221.56491470336914,221.57516956329346,221.7291898727417,221.7291898727417,221.7291898727417,221.7291898727417,221.7291898727417,221.7291898727417,221.7291898727417,222.4241898059845,2,0.8346140384674072,None,,,,,,,,,,,,,,,,,,22,2,2025-02-18_16h03.56.415,comp,2024.2.4,56.591913366947814,2025-02-18 16h04.04.404447 -0500,
85,85,0,critical,dhw,20.0,2.1,lower,78.0,78.0,133.0,57.0,57.0,133.0,3,1.497912883758545,None,,,,,0,0,0,0,0,85,85,2,222.44066095352173,,,,,,,,,,,,,,,,,,,,,,,,,,,,,,,,,,,,,,,,,,,,,,,,,,,,,,,,,,,,,,,,,,,,,,,,,,,,,,,,,78.0,78.0,133.0,57.0,57.0,133.0,2.1,2.11,-164,278,0,256,191,-257,222.42585277557373,222.42593240737915,222.42938995361328,222.44066095352173,222.5975432395935,222.5975432395935,222.5975432395935,222.5975432395935,222.5975432395935,222.5975432395935,222.5975432395935,223.94409203529358,3,1.497912883758545,None,,,,,,,,,,,,,,,,,,22,2,2025-02-18_16h03.56.415,comp,2024.2.4,56.591913366947814,2025-02-18 16h04.04.404447 -0500,
86,86,0,filler_random,None,None,None,None,None,None,None,None,None,None,3,1.2571547031402588,None,,,,,0,0,0,0,0,86,86,165,223.96065497398376,,,,,,,,,,,,,,,,,,,,,,,,,,,,,,,,,,,,,,,,,,,,,,,,,,,,,,,,,,,,,,,,,,,,,,,,,,,,,,,,,153.9083320169654,155.76513871238967,158.52349513314306,120.41796987210739,150.61605730148977,192.1708598850061,4.0,4.2,-234,-2,0,-265,252,-10,223.94604992866516,223.9461317062378,223.94983458518982,223.96065497398376,224.10982871055603,224.10982871055603,224.10982871055603,224.10982871055603,224.10982871055603,224.10982871055603,224.10982871055603,225.23040175437927,3,1.2571547031402588,None,,,,,,,,,,,,,,,,,,22,2,2025-02-18_16h03.56.415,comp,2024.2.4,56.591913366947814,2025-02-18 16h04.04.404447 -0500,
87,87,0,filler_square,None,None,None,None,None,None,None,None,None,None,2,1.1783967018127441,None,,,,,0,0,0,0,0,87,87,175,225.2473611831665,,,,,,,,,,,,,,,,,,,,,,,,,,,,,,,,,,,,,,,,,,,,,,,,,,,,,,,,,,,,,,,,,,,,,,,,,,,,,,,,,125.7506645296489,119.57017196046232,126.93641789601799,126.93641789601799,81.49072088028166,123.92626736454243,1.0,1.3,261,-268,480,-274,701,-250,225.23260831832886,225.2326900959015,225.2362461090088,225.2473611831665,225.3941352367401,225.3941352367401,225.3941352367401,225.3941352367401,225.3941352367401,225.3941352367401,225.3941352367401,226.4443998336792,2,1.1783967018127441,None,,,,,,,,,,,,,,,,,,22,2,2025-02-18_16h03.56.415,comp,2024.2.4,56.591913366947814,2025-02-18 16h04.04.404447 -0500,
88,88,0,filler_random,None,None,None,None,None,None,None,None,None,None,2,1.299633264541626,None,,,,,0,0,0,0,0,88,88,152,226.46219325065613,,,,,,,,,,,,,,,,,,,,,,,,,,,,,,,,,,,,,,,,,,,,,,,,,,,,,,,,,,,,,,,,,,,,,,,,,,,,,,,,,127.7913738333248,135.9322679124253,188.23741759886673,61.10092322087933,66.3066226995998,63.66992072946114,2.2,2.22,-195,284,0,-261,158,-276,226.44614624977112,226.44622325897217,226.4495885372162,226.46219325065613,226.61065888404846,226.61065888404846,226.61065888404846,226.61065888404846,226.61065888404846,226.61065888404846,226.61065888404846,227.77683544158936,2,1.299633264541626,None,,,,,,,,,,,,,,,,,,22,2,2025-02-18_16h03.56.415,comp,2024.2.4,56.591913366947814,2025-02-18 16h04.04.404447 -0500,
89,89,0,catch,None,None,None,None,None,None,None,None,None,None,1,1.0562217235565186,None,,,,,0,0,0,0,0,89,89,125,227.79350519180298,,,,,,,,,,,,,,,,,,,,,,,,,,,,,,,,,,,,,,,,,,,,,,,,,,,,,,,,,,,,,,,,,,,,,,,,,,,,,,,,,165,160,100,90,117,73,3.0,3.1,-221,282,0,8,178,-283,227.77893543243408,227.77901077270508,227.78266620635986,227.79350519180298,227.94296860694885,227.94296860694885,227.94296860694885,227.94296860694885,227.94296860694885,227.94296860694885,227.94296860694885,228.86371302604675,1,1.0562217235565186,None,,,,,,,,,,,,,,,,,,22,2,2025-02-18_16h03.56.415,comp,2024.2.4,56.591913366947814,2025-02-18 16h04.04.404447 -0500,
90,90,0,critical,dwh,20.0,4.0,upper,141.0,141.0,125.0,200.0,200.0,125.0,2,2.1992239952087402,None,,,,,0,0,0,0,0,90,90,71,228.88259649276733,,,,,,,,,,,,,,,,,,,,,,,,,,,,,,,,,,,,,,,,,,,,,,,,,,,,,,,,,,,,,,,,,,,,,,,,,,,,,,,,,141.0,141.0,125.0,200.0,200.0,125.0,4.0,4.1,-266,-277,0,-13,258,-255,228.8655502796173,228.8657102584839,228.86900901794434,228.88259649276733,229.02741050720215,229.02741050720215,229.02741050720215,229.02741050720215,229.02741050720215,229.02741050720215,229.02741050720215,231.0952067375183,2,2.1992239952087402,None,,,,,,,,,,,,,,,,,,22,2,2025-02-18_16h03.56.415,comp,2024.2.4,56.591913366947814,2025-02-18 16h04.04.404447 -0500,
91,91,0,critical,whd,35.0,3.0,lower,57.0,133.0,133.0,57.0,70.0,70.0,2,1.6513607501983643,None,,,,,0,0,0,0,0,91,91,86,231.11054801940918,,,,,,,,,,,,,,,,,,,,,,,,,,,,,,,,,,,,,,,,,,,,,,,,,,,,,,,,,,,,,,,,,,,,,,,,,,,,,,,,,57.0,133.0,133.0,57.0,70.0,70.0,3.0,3.2,-191,-283,0,11,160,261,231.0967788696289,231.09685921669006,231.10028505325317,231.11054801940918,231.2620027065277,231.2620027065277,231.2620027065277,231.2620027065277,231.2620027065277,231.2620027065277,231.2620027065277,232.7790219783783,2,1.6513607501983643,None,,,,,,,,,,,,,,,,,,22,2,2025-02-18_16h03.56.415,comp,2024.2.4,56.591913366947814,2025-02-18 16h04.04.404447 -0500,
92,92,0,critical,hwd,35.0,1.0,upper,200.0,125.0,125.0,200.0,127.0,127.0,2,1.2391064167022705,None,,,,,0,0,0,0,0,92,92,97,232.79466557502747,,,,,,,,,,,,,,,,,,,,,,,,,,,,,,,,,,,,,,,,,,,,,,,,,,,,,,,,,,,,,,,,,,,,,,,,,,,,,,,,,200.0,125.0,125.0,200.0,127.0,127.0,1.0,1.3,222,-258,480,-284,740,-257,232.7806761264801,232.7807536125183,232.7842140197754,232.79466557502747,232.9430205821991,232.9430205821991,232.9430205821991,232.9430205821991,232.9430205821991,232.9430205821991,232.9430205821991,234.04996180534363,2,1.2391064167022705,None,,,,,,,,,,,,,,,,,,22,2,2025-02-18_16h03.56.415,comp,2024.2.4,56.591913366947814,2025-02-18 16h04.04.404447 -0500,
93,93,0,critical,dhw,20.0,3.0,lower,78.0,78.0,133.0,57.0,57.0,133.0,1,3.155721426010132,None,,,,,0,0,0,0,0,93,93,56,234.07064986228943,,,,,,,,,,,,,,,,,,,,,,,,,,,,,,,,,,,,,,,,,,,,,,,,,,,,,,,,,,,,,,,,,,,,,,,,,,,,,,,,,78.0,78.0,133.0,57.0,57.0,133.0,3.0,3.2,-164,-267,0,-17,191,289,234.0517554283142,234.0518937110901,234.0553159713745,234.07064986228943,234.21387910842896,234.21387910842896,234.21387910842896,234.21387910842896,234.21387910842896,234.21387910842896,234.21387910842896,237.22932267189026,1,3.155721426010132,None,,,,,,,,,,,,,,,,,,22,2,2025-02-18_16h03.56.415,comp,2024.2.4,56.591913366947814,2025-02-18 16h04.04.404447 -0500,
94,94,0,critical,wdh,35.0,4.0,upper,125.0,200.0,127.0,127.0,200.0,125.0,1,0.8989744186401367,None,,,,,0,0,0,0,0,94,94,77,237.24702906608582,,,,,,,,,,,,,,,,,,,,,,,,,,,,,,,,,,,,,,,,,,,,,,,,,,,,,,,,,,,,,,,,,,,,,,,,,,,,,,,,,125.0,200.0,127.0,127.0,200.0,125.0,4.0,4.2,-260,-3,0,-269,222,6,237.2308533191681,237.23092913627625,237.2340385913849,237.24702906608582,237.40179252624512,237.40179252624512,237.40179252624512,237.40179252624512,237.40179252624512,237.40179252624512,237.40179252624512,238.14793920516968,1,0.8989744186401367,None,,,,,,,,,,,,,,,,,,22,2,2025-02-18_16h03.56.415,comp,2024.2.4,56.591913366947814,2025-02-18 16h04.04.404447 -0500,
95,95,0,critical,wdh,20.0,4.0,lower,57.0,133.0,78.0,78.0,133.0,57.0,1,1.0204048156738281,None,,,,,0,0,0,0,0,95,95,82,238.16536474227905,,,,,,,,,,,,,,,,,,,,,,,,,,,,,,,,,,,,,,,,,,,,,,,,,,,,,,,,,,,,,,,,,,,,,,,,,,,,,,,,,57.0,133.0,78.0,78.0,133.0,57.0,4.0,4.2,-202,-11,0,-260,164,15,238.14966106414795,238.1497712135315,238.15362095832825,238.16536474227905,238.32009768486023,238.32009768486023,238.32009768486023,238.32009768486023,238.32009768486023,238.32009768486023,238.32009768486023,239.19616174697876,1,1.0204048156738281,None,,,,,,,,,,,,,,,,,,22,2,2025-02-18_16h03.56.415,comp,2024.2.4,56.591913366947814,2025-02-18 16h04.04.404447 -0500,
96,96,0,filler_square,None,None,None,None,None,None,None,None,None,None,2,0.8050832748413086,None,,,,,0,0,0,0,0,96,96,174,239.21289944648743,,,,,,,,,,,,,,,,,,,,,,,,,,,,,,,,,,,,,,,,,,,,,,,,,,,,,,,,,,,,,,,,,,,,,,,,,,,,,,,,,97.60770054383502,116.7008082354935,139.65348742516494,139.65348742516494,62.8211923082403,119.79065734431836,3.0,3.2,-224,-250,0,13,226,270,239.19799542427063,239.19807839393616,239.2012300491333,239.21289944648743,239.3527603149414,239.3527603149414,239.3527603149414,239.3527603149414,239.3527603149414,239.3527603149414,239.3527603149414,240.03190159797668,2,0.8050832748413086,None,,,,,,,,,,,,,,,,,,22,2,2025-02-18_16h03.56.415,comp,2024.2.4,56.591913366947814,2025-02-18 16h04.04.404447 -0500,
97,97,0,critical,dhw,35.0,2.1,lower,70.0,70.0,133.0,57.0,57.0,133.0,2,1.4822487831115723,None,,,,,0,0,0,0,0,97,97,24,240.04816150665283,,,,,,,,,,,,,,,,,,,,,,,,,,,,,,,,,,,,,,,,,,,,,,,,,,,,,,,,,,,,,,,,,,,,,,,,,,,,,,,,,70.0,70.0,133.0,57.0,57.0,133.0,2.1,2.12,-160,-258,0,-275,191,257,240.0337393283844,240.03384351730347,240.03785181045532,240.04816150665283,240.1979684829712,240.1979684829712,240.1979684829712,240.1979684829712,240.1979684829712,240.1979684829712,240.1979684829712,241.53302335739136,2,1.4822487831115723,None,,,,,,,,,,,,,,,,,,22,2,2025-02-18_16h03.56.415,comp,2024.2.4,56.591913366947814,2025-02-18 16h04.04.404447 -0500,
98,98,0,filler_random,None,None,None,None,None,None,None,None,None,None,2,1.0363743305206299,None,,,,,0,0,0,0,0,98,98,162,241.54959774017334,,,,,,,,,,,,,,,,,,,,,,,,,,,,,,,,,,,,,,,,,,,,,,,,,,,,,,,,,,,,,,,,,,,,,,,,,,,,,,,,,98.57501399654996,154.22029822704872,133.4204260443549,164.79802545420017,171.6305062051842,70.9585816223486,3.0,3.2,-256,-252,0,5,214,286,241.53499794006348,241.535138130188,241.53883457183838,241.54959774017334,241.69703364372253,241.69703364372253,241.69703364372253,241.69703364372253,241.69703364372253,241.69703364372253,241.69703364372253,242.59732937812805,2,1.0363743305206299,None,,,,,,,,,,,,,,,,,,22,2,2025-02-18_16h03.56.415,comp,2024.2.4,56.591913366947814,2025-02-18 16h04.04.404447 -0500,
99,99,0,critical,dhw,20.0,4.0,upper,141.0,141.0,200.0,125.0,125.0,200.0,3,0.9557633399963379,None,,,,,0,0,0,0,0,99,99,59,242.6140251159668,,,,,,,,,,,,,,,,,,,,,,,,,,,,,,,,,,,,,,,,,,,,,,,,,,,,,,,,,,,,,,,,,,,,,,,,,,,,,,,,,141.0,141.0,200.0,125.0,125.0,200.0,4.0,4.1,-229,-276,0,0,258,-256,242.59880328178406,242.5988781452179,242.60214257240295,242.6140251159668,242.76187205314636,242.76187205314636,242.76187205314636,242.76187205314636,242.76187205314636,242.76187205314636,242.76187205314636,243.58135628700256,3,0.9557633399963379,None,,,,,,,,,,,,,,,,,,22,2,2025-02-18_16h03.56.415,comp,2024.2.4,56.591913366947814,2025-02-18 16h04.04.404447 -0500,
100,100,0,critical,hwd,20.0,2.1,upper,200.0,125.0,125.0,200.0,141.0,141.0,1,0.8555088043212891,None,,,,,0,0,0,0,0,100,100,19,243.6024272441864,,,,,,,,,,,,,,,,,,,,,,,,,,,,,,,,,,,,,,,,,,,,,,,,,,,,,,,,,,,,,,,,,,,,,,,,,,,,,,,,,200.0,125.0,125.0,200.0,141.0,141.0,2.1,2.11,-258,252,0,251,266,-271,243.58314657211304,243.58327841758728,243.58669543266296,243.6024272441864,243.7489149570465,243.7489149570465,243.7489149570465,243.7489149570465,243.7489149570465,243.7489149570465,243.7489149570465,244.46011662483215,1,0.8555088043212891,None,,,,,,,,,,,,,,,,,,22,2,2025-02-18_16h03.56.415,comp,2024.2.4,56.591913366947814,2025-02-18 16h04.04.404447 -0500,
101,101,0,catch,None,None,None,None,None,None,None,None,None,None,1,0.8614730834960938,None,,,,,0,0,0,0,0,101,101,126,244.47624802589417,,,,,,,,,,,,,,,,,,,,,,,,,,,,,,,,,,,,,,,,,,,,,,,,,,,,,,,,,,,,,,,,,,,,,,,,,,,,,,,,,156,169,76,114,80,110,1.0,1.2,-238,-13,0,16,208,-3,244.462064743042,244.462144613266,244.46526384353638,244.47624802589417,244.6152696609497,244.6152696609497,244.6152696609497,244.6152696609497,244.6152696609497,244.6152696609497,244.6152696609497,245.35617303848267,1,0.8614730834960938,None,,,,,,,,,,,,,,,,,,22,2,2025-02-18_16h03.56.415,comp,2024.2.4,56.591913366947814,2025-02-18 16h04.04.404447 -0500,
102,102,0,filler_square,None,None,None,None,None,None,None,None,None,None,1,1.054732084274292,None,,,,,0,0,0,0,0,102,102,180,245.37205529212952,,,,,,,,,,,,,,,,,,,,,,,,,,,,,,,,,,,,,,,,,,,,,,,,,,,,,,,,,,,,,,,,,,,,,,,,,,,,,,,,,71.80218973505302,71.80218973505302,57.32836195855143,58.97864602756162,62.95926759212033,68.98130012095284,1.0,1.1,-641,276,-480,256,-320,284,245.3581280708313,245.35822200775146,245.36160802841187,245.37205529212952,245.5162525177002,245.5162525177002,245.5162525177002,245.5162525177002,245.5162525177002,245.5162525177002,245.5162525177002,246.43346166610718,1,1.054732084274292,None,,,,,,,,,,,,,,,,,,22,2,2025-02-18_16h03.56.415,comp,2024.2.4,56.591913366947814,2025-02-18 16h04.04.404447 -0500,
103,103,0,filler_random,None,None,None,None,None,None,None,None,None,None,1,0.8404684066772461,None,,,,,0,0,0,0,0,103,103,143,246.44931435585022,,,,,,,,,,,,,,,,,,,,,,,,,,,,,,,,,,,,,,,,,,,,,,,,,,,,,,,,,,,,,,,,,,,,,,,,,,,,,,,,,190.36048282983757,101.45054370778186,100.02329548747166,104.97328832060526,75.6679346646935,175.24740040056093,4.0,4.2,-199,6,0,-285,236,20,246.4351875782013,246.4352684020996,246.43853449821472,246.44931435585022,246.60011196136475,246.60011196136475,246.60011196136475,246.60011196136475,246.60011196136475,246.60011196136475,246.60011196136475,247.30294394493103,1,0.8404684066772461,None,,,,,,,,,,,,,,,,,,22,2,2025-02-18_16h03.56.415,comp,2024.2.4,56.591913366947814,2025-02-18 16h04.04.404447 -0500,
104,104,0,critical,whd,35.0,2.1,lower,57.0,133.0,133.0,57.0,70.0,70.0,3,0.8724613189697266,None,,,,,0,0,0,0,0,104,104,36,247.32210731506348,,,,,,,,,,,,,,,,,,,,,,,,,,,,,,,,,,,,,,,,,,,,,,,,,,,,,,,,,,,,,,,,,,,,,,,,,,,,,,,,,57.0,133.0,133.0,57.0,70.0,70.0,2.1,2.12,-191,-255,0,-262,160,259,247.30466556549072,247.30474829673767,247.30796837806702,247.32210731506348,247.4652829170227,247.4652829170227,247.4652829170227,247.4652829170227,247.4652829170227,247.4652829170227,247.4652829170227,248.20042181015015,3,0.8724613189697266,None,,,,,,,,,,,,,,,,,,22,2,2025-02-18_16h03.56.415,comp,2024.2.4,56.591913366947814,2025-02-18 16h04.04.404447 -0500,
105,105,0,critical,whd,20.0,3.0,lower,57.0,133.0,133.0,57.0,78.0,78.0,2,0.8172314167022705,None,,,,,0,0,0,0,0,105,105,92,248.2165915966034,,,,,,,,,,,,,,,,,,,,,,,,,,,,,,,,,,,,,,,,,,,,,,,,,,,,,,,,,,,,,,,,,,,,,,,,,,,,,,,,,57.0,133.0,133.0,57.0,78.0,78.0,3.0,3.2,-191,-281,0,-3,164,275,248.20201206207275,248.20209407806396,248.20563983917236,248.2165915966034,248.36610770225525,248.36610770225525,248.36610770225525,248.36610770225525,248.36610770225525,248.36610770225525,248.36610770225525,249.05041456222534,2,0.8172314167022705,None,,,,,,,,,,,,,,,,,,22,2,2025-02-18_16h03.56.415,comp,2024.2.4,56.591913366947814,2025-02-18 16h04.04.404447 -0500,
106,106,0,filler_random,None,None,None,None,None,None,None,None,None,None,1,0.7780706882476807,None,,,,,0,0,0,0,0,106,106,164,249.06627106666565,,,,,,,,,,,,,,,,,,,,,,,,,,,,,,,,,,,,,,,,,,,,,,,,,,,,,,,,,,,,,,,,,,,,,,,,,,,,,,,,,107.3119610075359,168.0620551215932,181.23078951729553,96.62777178562197,71.27964806551863,124.6816548133532,3.0,3.2,-228,-282,0,13,207,289,249.05223512649536,249.05236339569092,249.0559663772583,249.06627106666565,249.21938610076904,249.21938610076904,249.21938610076904,249.21938610076904,249.21938610076904,249.21938610076904,249.21938610076904,249.84937191009521,1,0.7780706882476807,None,,,,,,,,,,,,,,,,,,22,2,2025-02-18_16h03.56.415,comp,2024.2.4,56.591913366947814,2025-02-18 16h04.04.404447 -0500,
107,107,0,critical,dhw,20.0,1.0,lower,78.0,78.0,133.0,57.0,57.0,133.0,2,0.7045149803161621,None,,,,,0,0,0,0,0,107,107,54,249.86530804634094,,,,,,,,,,,,,,,,,,,,,,,,,,,,,,,,,,,,,,,,,,,,,,,,,,,,,,,,,,,,,,,,,,,,,,,,,,,,,,,,,78.0,78.0,133.0,57.0,57.0,133.0,1.0,1.1,-644,279,-480,270,-289,280,249.8509600162506,249.85103583335876,249.85443949699402,249.86530804634094,250.00638556480408,250.00638556480408,250.00638556480408,250.00638556480408,250.00638556480408,250.00638556480408,250.00638556480408,250.58347821235657,2,0.7045149803161621,None,,,,,,,,,,,,,,,,,,22,2,2025-02-18_16h03.56.415,comp,2024.2.4,56.591913366947814,2025-02-18 16h04.04.404447 -0500,
108,108,0,critical,hwd,20.0,3.0,upper,200.0,125.0,125.0,200.0,141.0,141.0,3,0.47501564025878906,None,,,,,0,0,0,0,0,108,108,105,250.59973645210266,,,,,,,,,,,,,,,,,,,,,,,,,,,,,,,,,,,,,,,,,,,,,,,,,,,,,,,,,,,,,,,,,,,,,,,,,,,,,,,,,200.0,125.0,125.0,200.0,141.0,141.0,3.0,3.2,-258,-260,0,-15,266,278,250.58509397506714,250.58516836166382,250.5885889530182,250.59973645210266,250.75194573402405,250.75194573402405,250.75194573402405,250.75194573402405,250.75194573402405,250.75194573402405,250.75194573402405,251.08601570129395,3,0.47501564025878906,None,,,,,,,,,,,,,,,,,,22,2,2025-02-18_16h03.56.415,comp,2024.2.4,56.591913366947814,2025-02-18 16h04.04.404447 -0500,
109,109,0,filler_random,None,None,None,None,None,None,None,None,None,None,1,1.2673099040985107,None,,,,,0,0,0,0,0,109,109,139,251.10260558128357,,,,,,,,,,,,,,,,,,,,,,,,,,,,,,,,,,,,,,,,,,,,,,,,,,,,,,,,,,,,,,,,,,,,,,,,,,,,,,,,,129.47424749882504,150.17869710681765,127.72595308025969,106.36769818489174,153.5822417056946,125.32884897518679,3.0,3.2,-224,-277,0,7,212,279,251.0879316329956,251.08805584907532,251.09185481071472,251.10260558128357,251.25139713287354,251.25139713287354,251.25139713287354,251.25139713287354,251.25139713287354,251.25139713287354,251.25139713287354,252.3762948513031,1,1.2673099040985107,None,,,,,,,,,,,,,,,,,,22,2,2025-02-18_16h03.56.415,comp,2024.2.4,56.591913366947814,2025-02-18 16h04.04.404447 -0500,
110,110,0,catch,None,None,None,None,None,None,None,None,None,None,2,0.9006009101867676,None,,,,,0,0,0,0,0,110,110,123,252.3977963924408,,,,,,,,,,,,,,,,,,,,,,,,,,,,,,,,,,,,,,,,,,,,,,,,,,,,,,,,,,,,,,,,,,,,,,,,,,,,,,,,,126,64,154,171,90,100,2.1,2.12,-214,-250,0,-272,232,280,252.3784885406494,252.37859463691711,252.38216924667358,252.3977963924408,252.53466153144836,252.53466153144836,252.53466153144836,252.53466153144836,252.53466153144836,252.53466153144836,252.53466153144836,253.30754780769348,2,0.9006009101867676,None,,,,,,,,,,,,,,,,,,22,2,2025-02-18_16h03.56.415,comp,2024.2.4,56.591913366947814,2025-02-18 16h04.04.404447 -0500,
111,111,0,critical,dhw,35.0,1.0,lower,70.0,70.0,133.0,57.0,57.0,133.0,3,1.5561809539794922,None,,,,,0,0,0,0,0,111,111,48,253.32630133628845,,,,,,,,,,,,,,,,,,,,,,,,,,,,,,,,,,,,,,,,,,,,,,,,,,,,,,,,,,,,,,,,,,,,,,,,,,,,,,,,,70.0,70.0,133.0,57.0,57.0,133.0,1.0,1.2,-160,-1,0,-4,191,4,253.30905151367188,253.30913162231445,253.31220817565918,253.32630133628845,253.4664421081543,253.4664421081543,253.4664421081543,253.4664421081543,253.4664421081543,253.4664421081543,253.4664421081543,254.88568234443665,3,1.5561809539794922,None,,,,,,,,,,,,,,,,,,22,2,2025-02-18_16h03.56.415,comp,2024.2.4,56.591913366947814,2025-02-18 16h04.04.404447 -0500,
112,112,0,filler_square,None,None,None,None,None,None,None,None,None,None,3,0.7918410301208496,None,,,,,0,0,0,0,0,112,112,197,254.90618324279785,,,,,,,,,,,,,,,,,,,,,,,,,,,,,,,,,,,,,,,,,,,,,,,,,,,,,,,,,,,,,,,,,,,,,,,,,,,,,,,,,58.43420685472218,116.50364488988257,95.90552675972029,68.02861154409786,143.86020006197197,143.86020006197197,1.0,1.2,-188,-3,0,8,202,-9,254.88782024383545,254.8879029750824,254.89163088798523,254.90618324279785,255.05568718910217,255.05568718910217,255.05568718910217,255.05568718910217,255.05568718910217,255.05568718910217,255.05568718910217,255.70310759544373,3,0.7918410301208496,None,,,,,,,,,,,,,,,,,,22,2,2025-02-18_16h03.56.415,comp,2024.2.4,56.591913366947814,2025-02-18 16h04.04.404447 -0500,
113,113,0,critical,wdh,20.0,2.1,upper,125.0,200.0,141.0,141.0,200.0,125.0,1,0.9470324516296387,None,,,,,0,0,0,0,0,113,113,35,255.71933841705322,,,,,,,,,,,,,,,,,,,,,,,,,,,,,,,,,,,,,,,,,,,,,,,,,,,,,,,,,,,,,,,,,,,,,,,,,,,,,,,,,125.0,200.0,141.0,141.0,200.0,125.0,2.1,2.11,-266,284,0,289,229,-288,255.7047791481018,255.70490765571594,255.70854234695435,255.71933841705322,255.868793964386,255.868793964386,255.868793964386,255.868793964386,255.868793964386,255.868793964386,255.868793964386,256.67039012908936,1,0.9470324516296387,None,,,,,,,,,,,,,,,,,,22,2,2025-02-18_16h03.56.415,comp,2024.2.4,56.591913366947814,2025-02-18 16h04.04.404447 -0500,
114,114,0,critical,wdh,35.0,3.0,upper,125.0,200.0,127.0,127.0,200.0,125.0,2,1.364511251449585,None,,,,,0,0,0,0,0,114,114,75,256.68608140945435,,,,,,,,,,,,,,,,,,,,,,,,,,,,,,,,,,,,,,,,,,,,,,,,,,,,,,,,,,,,,,,,,,,,,,,,,,,,,,,,,125.0,200.0,127.0,127.0,200.0,125.0,3.0,3.1,-260,279,0,15,222,-261,256.67193603515625,256.67201495170593,256.6754472255707,256.68608140945435,256.8360188007355,256.8360188007355,256.8360188007355,256.8360188007355,256.8360188007355,256.8360188007355,256.8360188007355,258.05541038513184,2,1.364511251449585,None,,,,,,,,,,,,,,,,,,22,2,2025-02-18_16h03.56.415,comp,2024.2.4,56.591913366947814,2025-02-18 16h04.04.404447 -0500,
115,115,0,critical,dwh,20.0,3.0,lower,78.0,78.0,57.0,133.0,133.0,57.0,2,0.6818156242370605,None,,,,,0,0,0,0,0,115,115,68,258.07203245162964,,,,,,,,,,,,,,,,,,,,,,,,,,,,,,,,,,,,,,,,,,,,,,,,,,,,,,,,,,,,,,,,,,,,,,,,,,,,,,,,,78.0,78.0,57.0,133.0,133.0,57.0,3.0,3.1,-202,280,0,-5,191,-257,258.05709862709045,258.0571804046631,258.0612678527832,258.07203245162964,258.22000885009766,258.22000885009766,258.22000885009766,258.22000885009766,258.22000885009766,258.22000885009766,258.22000885009766,258.77034068107605,2,0.6818156242370605,None,,,,,,,,,,,,,,,,,,22,2,2025-02-18_16h03.56.415,comp,2024.2.4,56.591913366947814,2025-02-18 16h04.04.404447 -0500,
116,116,0,filler_random,None,None,None,None,None,None,None,None,None,None,1,1.2153048515319824,None,,,,,0,0,0,0,0,116,116,144,258.7871108055115,,,,,,,,,,,,,,,,,,,,,,,,,,,,,,,,,,,,,,,,,,,,,,,,,,,,,,,,,,,,,,,,,,,,,,,,,,,,,,,,,65.11736129766686,163.16441415559115,98.72723006070277,109.4852838177958,76.10922237595759,87.37098240685486,4.0,4.2,-232,-18,0,-257,194,-8,258.7721288204193,258.7722110748291,258.7764129638672,258.7871108055115,258.9379777908325,258.9379777908325,258.9379777908325,258.9379777908325,258.9379777908325,258.9379777908325,258.9379777908325,260.005774974823,1,1.2153048515319824,None,,,,,,,,,,,,,,,,,,22,2,2025-02-18_16h03.56.415,comp,2024.2.4,56.591913366947814,2025-02-18 16h04.04.404447 -0500,
117,117,0,critical,wdh,20.0,3.0,upper,125.0,200.0,141.0,141.0,200.0,125.0,2,0.7573840618133545,None,,,,,0,0,0,0,0,117,117,81,260.02147030830383,,,,,,,,,,,,,,,,,,,,,,,,,,,,,,,,,,,,,,,,,,,,,,,,,,,,,,,,,,,,,,,,,,,,,,,,,,,,,,,,,125.0,200.0,141.0,141.0,200.0,125.0,3.0,3.2,-266,-273,0,18,229,259,260.00740218162537,260.00748348236084,260.0107419490814,260.02147030830383,260.17248797416687,260.17248797416687,260.17248797416687,260.17248797416687,260.17248797416687,260.17248797416687,260.17248797416687,260.7889623641968,2,0.7573840618133545,None,,,,,,,,,,,,,,,,,,22,2,2025-02-18_16h03.56.415,comp,2024.2.4,56.591913366947814,2025-02-18 16h04.04.404447 -0500,
118,118,0,filler_random,None,None,None,None,None,None,None,None,None,None,2,0.7576708793640137,None,,,,,0,0,0,0,0,118,118,147,260.8052110671997,,,,,,,,,,,,,,,,,,,,,,,,,,,,,,,,,,,,,,,,,,,,,,,,,,,,,,,,,,,,,,,,,,,,,,,,,,,,,,,,,157.56737848626227,109.94466719967463,176.18972555283187,102.68096473883227,102.14618951398168,151.66936664717002,3.0,3.2,-202,-266,0,-5,223,265,260.79083275794983,260.7909541130066,260.79442977905273,260.8052110671997,260.9539864063263,260.9539864063263,260.9539864063263,260.9539864063263,260.9539864063263,260.9539864063263,260.9539864063263,261.5700261592865,2,0.7576708793640137,None,,,,,,,,,,,,,,,,,,22,2,2025-02-18_16h03.56.415,comp,2024.2.4,56.591913366947814,2025-02-18 16h04.04.404447 -0500,
119,119,0,critical,dwh,35.0,2.1,lower,70.0,70.0,57.0,133.0,133.0,57.0,3,0.8241913318634033,None,,,,,0,0,0,0,0,119,119,28,261.58689069747925,,,,,,,,,,,,,,,,,,,,,,,,,,,,,,,,,,,,,,,,,,,,,,,,,,,,,,,,,,,,,,,,,,,,,,,,,,,,,,,,,70.0,70.0,57.0,133.0,133.0,57.0,2.1,2.11,-198,285,0,282,191,-285,261.57164216041565,261.5717222690582,261.5752193927765,261.58689069747925,261.73780965805054,261.73780965805054,261.73780965805054,261.73780965805054,261.73780965805054,261.73780965805054,261.73780965805054,262.42195677757263,3,0.8241913318634033,None,,,,,,,,,,,,,,,,,,22,2,2025-02-18_16h03.56.415,comp,2024.2.4,56.591913366947814,2025-02-18 16h04.04.404447 -0500,
120,120,0,critical,hwd,35.0,2.1,lower,133.0,57.0,57.0,133.0,70.0,70.0,2,1.3641486167907715,None,,,,,0,0,0,0,0,120,120,40,262.4377987384796,,,,,,,,,,,,,,,,,,,,,,,,,,,,,,,,,,,,,,,,,,,,,,,,,,,,,,,,,,,,,,,,,,,,,,,,,,,,,,,,,133.0,57.0,57.0,133.0,70.0,70.0,2.1,2.11,-191,257,0,283,198,-284,262.4235076904297,262.4236114025116,262.42705059051514,262.4377987384796,262.5880477428436,262.5880477428436,262.5880477428436,262.5880477428436,262.5880477428436,262.5880477428436,262.5880477428436,263.8075532913208,2,1.3641486167907715,None,,,,,,,,,,,,,,,,,,22,2,2025-02-18_16h03.56.415,comp,2024.2.4,56.591913366947814,2025-02-18 16h04.04.404447 -0500,
121,121,0,catch,None,None,None,None,None,None,None,None,None,None,3,1.9193463325500488,None,,,,,0,0,0,0,0,121,121,129,263.8265244960785,,,,,,,,,,,,,,,,,,,,,,,,,,,,,,,,,,,,,,,,,,,,,,,,,,,,,,,,,,,,,,,,,,,,,,,,,,,,,,,,,113,77,114,76,185,140,3.0,3.1,-172,290,0,-5,204,-267,263.8097126483917,263.80984139442444,263.81295371055603,263.8265244960785,263.97179198265076,263.97179198265076,263.97179198265076,263.97179198265076,263.97179198265076,263.97179198265076,263.97179198265076,265.767404794693,3,1.9193463325500488,None,,,,,,,,,,,,,,,,,,22,2,2025-02-18_16h03.56.415,comp,2024.2.4,56.591913366947814,2025-02-18 16h04.04.404447 -0500,
122,122,0,filler_square,None,None,None,None,None,None,None,None,None,None,1,0.837761640548706,None,,,,,0,0,0,0,0,122,122,192,265.7882342338562,,,,,,,,,,,,,,,,,,,,,,,,,,,,,,,,,,,,,,,,,,,,,,,,,,,,,,,,,,,,,,,,,,,,,,,,,,,,,,,,,131.00946163882702,131.00946163882702,88.38631717573747,95.21869078071546,97.30840555035176,57.93103979905743,2.2,2.21,-209,-286,0,265,173,263,265.76941657066345,265.76949286460876,265.7729215621948,265.7882342338562,265.93753361701965,265.93753361701965,265.93753361701965,265.93753361701965,265.93753361701965,265.93753361701965,265.93753361701965,266.64164566993713,1,0.837761640548706,None,,,,,,,,,,,,,,,,,,22,2,2025-02-18_16h03.56.415,comp,2024.2.4,56.591913366947814,2025-02-18 16h04.04.404447 -0500,
123,123,0,critical,hdw,35.0,3.0,upper,200.0,125.0,127.0,127.0,125.0,200.0,1,1.2105000019073486,None,,,,,0,0,0,0,0,123,123,111,266.65740275382996,,,,,,,,,,,,,,,,,,,,,,,,,,,,,,,,,,,,,,,,,,,,,,,,,,,,,,,,,,,,,,,,,,,,,,,,,,,,,,,,,200.0,125.0,127.0,127.0,125.0,200.0,3.0,3.1,-222,284,0,13,260,-258,266.6433746814728,266.6434588432312,266.64673471450806,266.65740275382996,266.80753684043884,266.80753684043884,266.80753684043884,266.80753684043884,266.80753684043884,266.80753684043884,266.80753684043884,267.8714687824249,1,1.2105000019073486,None,,,,,,,,,,,,,,,,,,22,2,2025-02-18_16h03.56.415,comp,2024.2.4,56.591913366947814,2025-02-18 16h04.04.404447 -0500,
124,124,0,filler_square,None,None,None,None,None,None,None,None,None,None,3,0.8477683067321777,None,,,,,0,0,0,0,0,124,124,200,267.8903694152832,,,,,,,,,,,,,,,,,,,,,,,,,,,,,,,,,,,,,,,,,,,,,,,,,,,,,,,,,,,,,,,,,,,,,,,,,,,,,,,,,76.42441749152356,67.56099441592539,78.80371813032345,78.80354651913186,96.92720129405484,96.92720129405484,4.0,4.1,-169,-285,0,15,184,-280,267.87327575683594,267.8733546733856,267.87680315971375,267.8903694152832,268.0256669521332,268.0256669521332,268.0256669521332,268.0256669521332,268.0256669521332,268.0256669521332,268.0256669521332,268.7442171573639,3,0.8477683067321777,None,,,,,,,,,,,,,,,,,,22,2,2025-02-18_16h03.56.415,comp,2024.2.4,56.591913366947814,2025-02-18 16h04.04.404447 -0500,
125,125,0,critical,dhw,20.0,4.0,lower,78.0,78.0,133.0,57.0,57.0,133.0,3,0.7919650077819824,None,,,,,0,0,0,0,0,125,125,58,268.7618327140808,,,,,,,,,,,,,,,,,,,,,,,,,,,,,,,,,,,,,,,,,,,,,,,,,,,,,,,,,,,,,,,,,,,,,,,,,,,,,,,,,78.0,78.0,133.0,57.0,57.0,133.0,4.0,4.1,-164,-276,0,-19,191,-263,268.74577474594116,268.7458529472351,268.7488694190979,268.7618327140808,268.90967416763306,268.90967416763306,268.90967416763306,268.90967416763306,268.90967416763306,268.90967416763306,268.90967416763306,269.5574336051941,3,0.7919650077819824,None,,,,,,,,,,,,,,,,,,22,2,2025-02-18_16h03.56.415,comp,2024.2.4,56.591913366947814,2025-02-18 16h04.04.404447 -0500,
126,126,0,critical,hdw,35.0,2.1,upper,200.0,125.0,127.0,127.0,125.0,200.0,2,0.9963579177856445,None,,,,,0,0,0,0,0,126,126,21,269.5739076137543,,,,,,,,,,,,,,,,,,,,,,,,,,,,,,,,,,,,,,,,,,,,,,,,,,,,,,,,,,,,,,,,,,,,,,,,,,,,,,,,,200.0,125.0,127.0,127.0,125.0,200.0,2.1,2.11,-222,267,0,269,260,-252,269.55909752845764,269.559175491333,269.56303119659424,269.5739076137543,269.724969625473,269.724969625473,269.724969625473,269.724969625473,269.724969625473,269.724969625473,269.724969625473,270.57233452796936,2,0.9963579177856445,None,,,,,,,,,,,,,,,,,,22,2,2025-02-18_16h03.56.415,comp,2024.2.4,56.591913366947814,2025-02-18 16h04.04.404447 -0500,
127,127,0,critical,hwd,35.0,2.1,upper,200.0,125.0,125.0,200.0,127.0,127.0,1,0.9522686004638672,None,,,,,0,0,0,0,0,127,127,41,270.5934853553772,,,,,,,,,,,,,,,,,,,,,,,,,,,,,,,,,,,,,,,,,,,,,,,,,,,,,,,,,,,,,,,,,,,,,,,,,,,,,,,,,200.0,125.0,125.0,200.0,127.0,127.0,2.1,2.11,-258,287,0,273,260,-256,270.5739893913269,270.57408380508423,270.5775339603424,270.5934853553772,270.7241997718811,270.7241997718811,270.7241997718811,270.7241997718811,270.7241997718811,270.7241997718811,270.7241997718811,271.55670523643494,1,0.9522686004638672,None,,,,,,,,,,,,,,,,,,22,2,2025-02-18_16h03.56.415,comp,2024.2.4,56.591913366947814,2025-02-18 16h04.04.404447 -0500,
128,128,0,critical,hwd,35.0,3.0,upper,200.0,125.0,125.0,200.0,127.0,127.0,2,0.897179126739502,None,,,,,0,0,0,0,0,128,128,99,271.5766694545746,,,,,,,,,,,,,,,,,,,,,,,,,,,,,,,,,,,,,,,,,,,,,,,,,,,,,,,,,,,,,,,,,,,,,,,,,,,,,,,,,200.0,125.0,125.0,200.0,127.0,127.0,3.0,3.1,-258,255,0,-8,260,-252,271.5582854747772,271.5583646297455,271.56177496910095,271.5766694545746,271.72407507896423,271.72407507896423,271.72407507896423,271.72407507896423,271.72407507896423,271.72407507896423,271.72407507896423,272.49049949645996,2,0.897179126739502,None,,,,,,,,,,,,,,,,,,22,2,2025-02-18_16h03.56.415,comp,2024.2.4,56.591913366947814,2025-02-18 16h04.04.404447 -0500,
129,129,0,catch,None,None,None,None,None,None,None,None,None,None,1,0.7969920635223389,None,,,,,0,0,0,0,0,129,129,124,272.51717734336853,,,,,,,,,,,,,,,,,,,,,,,,,,,,,,,,,,,,,,,,,,,,,,,,,,,,,,,,,,,,,,,,,,,,,,,,,,,,,,,,,179,146,99,91,122,68,2.2,2.22,-214,288,0,-264,176,-252,272.4927179813385,272.492794752121,272.4962282180786,272.51717734336853,272.6577970981598,272.6577970981598,272.6577970981598,272.6577970981598,272.6577970981598,272.6577970981598,272.6577970981598,273.3237257003784,1,0.7969920635223389,None,,,,,,,,,,,,,,,,,,22,2,2025-02-18_16h03.56.415,comp,2024.2.4,56.591913366947814,2025-02-18 16h04.04.404447 -0500,
130,130,0,critical,hdw,35.0,1.0,lower,133.0,57.0,70.0,70.0,57.0,133.0,1,1.1304428577423096,None,,,,,0,0,0,0,0,130,130,108,273.34361243247986,,,,,,,,,,,,,,,,,,,,,,,,,,,,,,,,,,,,,,,,,,,,,,,,,,,,,,,,,,,,,,,,,,,,,,,,,,,,,,,,,133.0,57.0,70.0,70.0,57.0,133.0,1.0,1.3,320,-270,480,-277,678,-283,273.3252766132355,273.32535457611084,273.32863187789917,273.34361243247986,273.49077892303467,273.49077892303467,273.49077892303467,273.49077892303467,273.49077892303467,273.49077892303467,273.49077892303467,274.48993825912476,1,1.1304428577423096,None,,,,,,,,,,,,,,,,,,22,2,2025-02-18_16h03.56.415,comp,2024.2.4,56.591913366947814,2025-02-18 16h04.04.404447 -0500,
131,131,0,filler_random,None,None,None,None,None,None,None,None,None,None,3,0.7520592212677002,None,,,,,0,0,0,0,0,131,131,134,274.50628328323364,,,,,,,,,,,,,,,,,,,,,,,,,,,,,,,,,,,,,,,,,,,,,,,,,,,,,,,,,,,,,,,,,,,,,,,,,,,,,,,,,119.02341133987181,90.7842277243075,62.35833274759123,124.7301943207717,198.64477584912768,84.79190360473098,3.0,3.1,-204,277,0,-16,201,-274,274.4916307926178,274.49171018600464,274.49484729766846,274.50628328323364,274.66284584999084,274.66284584999084,274.66284584999084,274.66284584999084,274.66284584999084,274.66284584999084,274.66284584999084,275.2754695415497,3,0.7520592212677002,None,,,,,,,,,,,,,,,,,,22,2,2025-02-18_16h03.56.415,comp,2024.2.4,56.591913366947814,2025-02-18 16h04.04.404447 -0500,
132,132,0,filler_square,None,None,None,None,None,None,None,None,None,None,3,0.7503705024719238,None,,,,,0,0,0,0,0,132,132,205,275.29180693626404,,,,,,,,,,,,,,,,,,,,,,,,,,,,,,,,,,,,,,,,,,,,,,,,,,,,,,,,,,,,,,,,,,,,,,,,,,,,,,,,,120.05164603621563,85.35627567140808,129.6557585599835,129.6557585599835,121.03123876251706,63.996280010342204,2.2,2.22,-204,259,0,-268,193,-278,275.27759885787964,275.27768421173096,275.28143215179443,275.29180693626404,275.4409306049347,275.4409306049347,275.4409306049347,275.4409306049347,275.4409306049347,275.4409306049347,275.4409306049347,276.05991077423096,3,0.7503705024719238,None,,,,,,,,,,,,,,,,,,22,2,2025-02-18_16h03.56.415,comp,2024.2.4,56.591913366947814,2025-02-18 16h04.04.404447 -0500,
133,133,0,critical,wdh,35.0,4.0,lower,57.0,133.0,70.0,70.0,133.0,57.0,2,1.326747179031372,None,,,,,0,0,0,0,0,133,133,76,276.0756404399872,,,,,,,,,,,,,,,,,,,,,,,,,,,,,,,,,,,,,,,,,,,,,,,,,,,,,,,,,,,,,,,,,,,,,,,,,,,,,,,,,57.0,133.0,70.0,70.0,133.0,57.0,4.0,4.2,-198,19,0,-284,160,5,276.0615224838257,276.0616557598114,276.06529092788696,276.0756404399872,276.22562193870544,276.22562193870544,276.22562193870544,276.22562193870544,276.22562193870544,276.22562193870544,276.22562193870544,277.40830755233765,2,1.326747179031372,None,,,,,,,,,,,,,,,,,,22,2,2025-02-18_16h03.56.415,comp,2024.2.4,56.591913366947814,2025-02-18 16h04.04.404447 -0500,
134,134,0,critical,dwh,35.0,2.1,upper,127.0,127.0,125.0,200.0,200.0,125.0,2,2.1742665767669678,None,,,,,0,0,0,0,0,134,134,5,277.4282920360565,,,,,,,,,,,,,,,,,,,,,,,,,,,,,,,,,,,,,,,,,,,,,,,,,,,,,,,,,,,,,,,,,,,,,,,,,,,,,,,,,127.0,127.0,125.0,200.0,200.0,125.0,2.1,2.11,-260,267,0,276,258,-250,277.4098958969116,277.4099717140198,277.41336464881897,277.4282920360565,277.57622265815735,277.57622265815735,277.57622265815735,277.57622265815735,277.57622265815735,277.57622265815735,277.57622265815735,279.61150193214417,2,2.1742665767669678,None,,,,,,,,,,,,,,,,,,22,2,2025-02-18_16h03.56.415,comp,2024.2.4,56.591913366947814,2025-02-18 16h04.04.404447 -0500,
135,135,0,filler_square,None,None,None,None,None,None,None,None,None,None,2,1.5493309497833252,None,,,,,0,0,0,0,0,135,135,170,279.62849974632263,,,,,,,,,,,,,,,,,,,,,,,,,,,,,,,,,,,,,,,,,,,,,,,,,,,,,,,,,,,,,,,,,,,,,,,,,,,,,,,,,119.75140960909687,96.68643868733817,158.7024395640338,158.7024395640338,131.4921412938254,57.64999766252175,1.0,1.1,-704,254,-480,290,-276,286,279.6137297153473,279.6138129234314,279.61754059791565,279.62849974632263,279.7690908908844,279.7690908908844,279.7690908908844,279.7690908908844,279.7690908908844,279.7690908908844,279.7690908908844,281.1934196949005,2,1.5493309497833252,None,,,,,,,,,,,,,,,,,,22,2,2025-02-18_16h03.56.415,comp,2024.2.4,56.591913366947814,2025-02-18 16h04.04.404447 -0500,
136,136,0,filler_square,None,None,None,None,None,None,None,None,None,None,2,0.9969737529754639,None,,,,,0,0,0,0,0,136,136,193,281.2131290435791,,,,,,,,,,,,,,,,,,,,,,,,,,,,,,,,,,,,,,,,,,,,,,,,,,,,,,,,,,,,,,,,,,,,,,,,,,,,,,,,,85.56030999739156,85.56030999739156,81.43882685251599,84.94299442200955,60.29884541708953,78.00703402419362,3.0,3.2,-181,-250,0,-11,177,261,281.19515204429626,281.19522738456726,281.1983232498169,281.2131290435791,281.36065649986267,281.36065649986267,281.36065649986267,281.36065649986267,281.36065649986267,281.36065649986267,281.36065649986267,282.22771739959717,2,0.9969737529754639,None,,,,,,,,,,,,,,,,,,22,2,2025-02-18_16h03.56.415,comp,2024.2.4,56.591913366947814,2025-02-18 16h04.04.404447 -0500,
137,137,0,critical,hwd,20.0,2.1,lower,133.0,57.0,57.0,133.0,78.0,78.0,2,0.8409364223480225,None,,,,,0,0,0,0,0,137,137,42,282.2437298297882,,,,,,,,,,,,,,,,,,,,,,,,,,,,,,,,,,,,,,,,,,,,,,,,,,,,,,,,,,,,,,,,,,,,,,,,,,,,,,,,,133.0,57.0,57.0,133.0,78.0,78.0,2.1,2.12,-191,-256,0,-253,202,250,282.2292354106903,282.2293107509613,282.23348236083984,282.2437298297882,282.393830537796,282.393830537796,282.393830537796,282.393830537796,282.393830537796,282.393830537796,282.393830537796,283.0949766635895,2,0.8409364223480225,None,,,,,,,,,,,,,,,,,,22,2,2025-02-18_16h03.56.415,comp,2024.2.4,56.591913366947814,2025-02-18 16h04.04.404447 -0500,
138,138,0,critical,dhw,35.0,2.1,upper,127.0,127.0,200.0,125.0,125.0,200.0,2,0.953369140625,None,,,,,0,0,0,0,0,138,138,1,283.1130881309509,,,,,,,,,,,,,,,,,,,,,,,,,,,,,,,,,,,,,,,,,,,,,,,,,,,,,,,,,,,,,,,,,,,,,,,,,,,,,,,,,127.0,127.0,200.0,125.0,125.0,200.0,2.1,2.12,-222,-261,0,-260,258,276,283.096604347229,283.0966875553131,283.100150346756,283.1130881309509,283.26009345054626,283.26009345054626,283.26009345054626,283.26009345054626,283.26009345054626,283.26009345054626,283.26009345054626,284.0875279903412,2,0.953369140625,None,,,,,,,,,,,,,,,,,,22,2,2025-02-18_16h03.56.415,comp,2024.2.4,56.591913366947814,2025-02-18 16h04.04.404447 -0500,
139,139,0,critical,dwh,35.0,2.1,upper,127.0,127.0,125.0,200.0,200.0,125.0,2,0.7337627410888672,None,,,,,0,0,0,0,0,139,139,29,284.1080994606018,,,,,,,,,,,,,,,,,,,,,,,,,,,,,,,,,,,,,,,,,,,,,,,,,,,,,,,,,,,,,,,,,,,,,,,,,,,,,,,,,127.0,127.0,125.0,200.0,200.0,125.0,2.1,2.12,-260,-259,0,-281,258,287,284.0891811847687,284.0892674922943,284.09278535842896,284.1080994606018,284.24537897109985,284.24537897109985,284.24537897109985,284.24537897109985,284.24537897109985,284.24537897109985,284.24537897109985,284.84500789642334,2,0.7337627410888672,None,,,,,,,,,,,,,,,,,,22,2,2025-02-18_16h03.56.415,comp,2024.2.4,56.591913366947814,2025-02-18 16h04.04.404447 -0500,
