thisN,thisTrialN,thisRepN,effect,order,distance,config,diag,h_1,w_1,h_2,w_2,h_3,w_3,rect_choice.keys,rect_choice.rt,rect_choice.duration,instructions_loop.thisRepN,instructions_loop.thisTrialN,instructions_loop.thisN,instructions_loop.thisIndex,blocks.thisRepN,blocks.thisTrialN,blocks.thisN,blocks.thisIndex,trials.thisRepN,trials.thisTrialN,trials.thisN,trials.thisIndex,thisRow.t,notes,consent.started,agree_button.started,decline_button.started,consent_img.started,mouse.started,consent.stopped,agree_button.numClicks,agree_button.timesOn,agree_button.timesOff,decline_button.numClicks,decline_button.timesOn,decline_button.timesOff,mouse.x,mouse.y,mouse.leftButton,mouse.midButton,mouse.rightButton,mouse.time,mouse.clicked_name,exp_params.started,exp_params.stopped,welcome.started,welcome_text.started,welcome.stopped,instructions_1.started,instructions_1_text_1.started,instructions_1_text_2.started,key_resp.started,instructions_1.stopped,instructions_loop.key_resp.keys,instructions_loop.key_resp.rt,instructions_loop.key_resp.duration,instructions_2.started,instructions_2_text_1.started,instructions_2_text_2.started,key_resp_2.started,instructions_2.stopped,instructions_loop.key_resp_2.keys,instructions_loop.key_resp_2.rt,instructions_loop.key_resp_2.duration,instructions_3.started,instructions_3_text_1.started,r1_instr3.started,r2_instr3.started,r3_instr3.started,r1_instr3_label.started,r2_instr3_label.started,r3_instr3_label.started,instructions_3_text_3.started,instructions_3_text_4.started,key_resp_3.started,instructions_3.stopped,instructions_loop.key_resp_3.keys,instructions_loop.key_resp_3.rt,instructions_loop.key_resp_3.duration,instructions_4.started,instructions_4_text_1.started,instructions_4_text_3.started,instructions_4_text_2.started,key_resp_4.started,instructions_4.stopped,instructions_loop.key_resp_4.keys,instructions_loop.key_resp_4.rt,instructions_loop.key_resp_4.duration,instructions_5.started,instructions_5_text_1.started,instructions_5_text_2.started,key_resp_5.started,instructions_5.stopped,instructions_loop.key_resp_5.keys,instructions_loop.key_resp_5.rt,instructions_loop.key_resp_5.duration,start_exp.started,start_exp_text.started,key_resp_6.started,start_exp.stopped,key_resp_6.keys,key_resp_6.rt,key_resp_6.duration,h_1_tmp,w_1_tmp,h_2_tmp,w_2_tmp,h_3_tmp,w_3_tmp,config_tmp,config_tmp_1,r_1_x,r_1_y,r_2_x,r_2_y,r_3_x,r_3_y,pre_trial.started,pre_trial.stopped,choice_trial.started,rect_choice.started,r_1.started,r_2.started,r_3.started,r_1_label.started,r_2_label.started,r_3_label.started,prompt.started,choice_trial.stopped,trials.rect_choice.keys,trials.rect_choice.rt,trials.rect_choice.duration,end_block.started,end_block_text.started,end_block.stopped,end.started,end_text.started,key_resp_7.started,end.stopped,key_resp_7.keys,key_resp_7.rt,key_resp_7.duration,debriefing.started,debrief_form.started,end_debrief.started,debriefing.stopped,end_debrief.keys,end_debrief.rt,end_debrief.duration,participant,computer,date,expName,psychopyVersion,frameRate,expStart,
,,,,,,,,,,,,,,,,,,,,,,,,,,,,,,,0.015730857849121094,0.03951001167297363,0.03951001167297363,0.03951001167297363,0.015538215637207031,46.37034773826599,1,[46.32818627357483],[46.328208446502686],0,,,[-76.0],[-539.0],[1],[0],[0],[46.354201316833496],['agree_button'],,,,,,,,,,,,,,,,,,,,,,,,,,,,,,,,,,,,,,,,,,,,,,,,,,,,,,,,,,,,,,,,,,,,,,,,,,,,,,,,,,,,,,,,,,,,,,,,,,,,,,,,,,,230,1,2025-03-11_13h00.29.738,comp,2024.2.4,52.53676304806377,2025-03-11 13h00.40.408342 -0400,
,,,,,,,,,,,,,,,,,,,,,,,,,,,,,,,,,,,,,,,,,,,,,,,,,,46.37083196640015,46.370898962020874,,,,,,,,,,,,,,,,,,,,,,,,,,,,,,,,,,,,,,,,,,,,,,,,,,,,,,,,,,,,,,,,,,,,,,,,,,,,,,,,,,,,,,,,,,,,,,,,,,,,,,,,,230,1,2025-03-11_13h00.29.738,comp,2024.2.4,52.53676304806377,2025-03-11 13h00.40.408342 -0400,
,,,,,,,,,,,,,,,,,,,,,,,,,,,,,,,,,,,,,,,,,,,,,,,,,,,,46.37094259262085,46.3840217590332,48.381195068359375,,,,,,,,,,,,,,,,,,,,,,,,,,,,,,,,,,,,,,,,,,,,,,,,,,,,,,,,,,,,,,,,,,,,,,,,,,,,,,,,,,,,,,,,,,,,,,,,,,,,,,230,1,2025-03-11_13h00.29.738,comp,2024.2.4,52.53676304806377,2025-03-11 13h00.40.408342 -0400,
0,0,0,,,,,,,,,,,,,,,0,0,0,0,,,,,,,,,48.39866614341736,,,,,,,,,,,,,,,,,,,,,,,,,,48.3820538520813,48.39866614341736,48.39866614341736,49.88120794296265,52.60119414329529,space,2.7088980674743652,None,52.601337909698486,52.61733937263489,52.61733937263489,54.09616208076477,57.91774821281433,space,3.804314136505127,None,57.917898654937744,57.951350927352905,57.951350927352905,57.951350927352905,57.951350927352905,57.951350927352905,57.951350927352905,57.951350927352905,57.951350927352905,57.951350927352905,59.41974353790283,68.09717464447021,space,8.673704385757446,None,68.09733438491821,68.11720538139343,68.11720538139343,68.11720538139343,69.60413455963135,73.67438578605652,space,4.056509017944336,None,73.67453742027283,73.68985080718994,73.68985080718994,75.18960928916931,75.24089169502258,space,0.047220468521118164,None,75.24112749099731,75.25588750839233,75.25588750839233,76.3079731464386,space,1.0366120338439941,None,,,,,,,,,,,,,,,,,,,,,,,,,,,,,,,,,,,,,,,,,,,,,,,230,1,2025-03-11_13h00.29.738,comp,2024.2.4,52.53676304806377,2025-03-11 13h00.40.408342 -0400,
0,0,0,critical,whd,20.0,3.0,lower,57.0,133.0,133.0,57.0,78.0,78.0,1,7.877439260482788,None,,,,,0,0,0,0,0,0,0,92,76.38311290740967,,,,,,,,,,,,,,,,,,,,,,,,,,,,,,,,,,,,,,,,,,,,,,,,,,,,,,,,,,,,,,,,,,,,,,,,,,,,,,,,,57.0,133.0,133.0,57.0,78.0,78.0,3.0,3.2,-191,-289,0,6,164,285,76.36660575866699,76.36664962768555,76.36828422546387,76.38311290740967,76.53197479248047,76.53197479248047,76.53197479248047,76.53197479248047,76.53197479248047,76.53197479248047,76.53197479248047,84.27772068977356,1,7.877439260482788,None,,,,,,,,,,,,,,,,,,230,1,2025-03-11_13h00.29.738,comp,2024.2.4,52.53676304806377,2025-03-11 13h00.40.408342 -0400,
1,1,0,critical,wdh,35.0,3.0,upper,125.0,200.0,127.0,127.0,200.0,125.0,1,10.463897466659546,None,,,,,0,0,0,0,0,1,1,75,84.29336810112,,,,,,,,,,,,,,,,,,,,,,,,,,,,,,,,,,,,,,,,,,,,,,,,,,,,,,,,,,,,,,,,,,,,,,,,,,,,,,,,,125.0,200.0,127.0,127.0,200.0,125.0,3.0,3.2,-260,-282,0,18,222,283,84.27939295768738,84.27948808670044,84.2829864025116,84.29336810112,84.4464795589447,84.4464795589447,84.4464795589447,84.4464795589447,84.4464795589447,84.4464795589447,84.4464795589447,94.76250624656677,1,10.463897466659546,None,,,,,,,,,,,,,,,,,,230,1,2025-03-11_13h00.29.738,comp,2024.2.4,52.53676304806377,2025-03-11 13h00.40.408342 -0400,
2,2,0,critical,hwd,35.0,1.0,upper,200.0,125.0,125.0,200.0,127.0,127.0,2,4.030473709106445,None,,,,,0,0,0,0,0,2,2,97,94.78268122673035,,,,,,,,,,,,,,,,,,,,,,,,,,,,,,,,,,,,,,,,,,,,,,,,,,,,,,,,,,,,,,,,,,,,,,,,,,,,,,,,,200.0,125.0,125.0,200.0,127.0,127.0,1.0,1.3,222,-276,480,-260,740,-259,94.7640073299408,94.76410102844238,94.76730012893677,94.78268122673035,94.93053722381592,94.93053722381592,94.93053722381592,94.93053722381592,94.93053722381592,94.93053722381592,94.93053722381592,98.82136106491089,2,4.030473709106445,None,,,,,,,,,,,,,,,,,,230,1,2025-03-11_13h00.29.738,comp,2024.2.4,52.53676304806377,2025-03-11 13h00.40.408342 -0400,
3,3,0,critical,dhw,35.0,4.0,lower,70.0,70.0,133.0,57.0,57.0,133.0,3,3.573552131652832,None,,,,,0,0,0,0,0,3,3,52,98.83889055252075,,,,,,,,,,,,,,,,,,,,,,,,,,,,,,,,,,,,,,,,,,,,,,,,,,,,,,,,,,,,,,,,,,,,,,,,,,,,,,,,,70.0,70.0,133.0,57.0,57.0,133.0,4.0,4.1,-160,-261,0,15,191,-255,98.82281684875488,98.82289361953735,98.82582926750183,98.83889055252075,98.98256802558899,98.98256802558899,98.98256802558899,98.98256802558899,98.98256802558899,98.98256802558899,98.98256802558899,102.42296433448792,3,3.573552131652832,None,,,,,,,,,,,,,,,,,,230,1,2025-03-11_13h00.29.738,comp,2024.2.4,52.53676304806377,2025-03-11 13h00.40.408342 -0400,
4,4,0,critical,whd,35.0,3.0,lower,57.0,133.0,133.0,57.0,70.0,70.0,2,9.245972394943237,None,,,,,0,0,0,0,0,4,4,86,102.43925285339355,,,,,,,,,,,,,,,,,,,,,,,,,,,,,,,,,,,,,,,,,,,,,,,,,,,,,,,,,,,,,,,,,,,,,,,,,,,,,,,,,57.0,133.0,133.0,57.0,70.0,70.0,3.0,3.1,-191,275,0,-3,160,-289,102.42451429367065,102.42459011077881,102.42854309082031,102.43925285339355,102.58416533470154,102.58416533470154,102.58416533470154,102.58416533470154,102.58416533470154,102.58416533470154,102.58416533470154,111.68863844871521,2,9.245972394943237,None,,,,,,,,,,,,,,,,,,230,1,2025-03-11_13h00.29.738,comp,2024.2.4,52.53676304806377,2025-03-11 13h00.40.408342 -0400,
5,5,0,filler_random,None,None,None,None,None,None,None,None,None,None,2,1.811408281326294,None,,,,,0,0,0,0,0,5,5,136,111.70576906204224,,,,,,,,,,,,,,,,,,,,,,,,,,,,,,,,,,,,,,,,,,,,,,,,,,,,,,,,,,,,,,,,,,,,,,,,,,,,,,,,,58.14449777667065,74.97372778770848,101.23352244615458,134.86660903989704,68.82513439492098,149.5824415697894,1.0,1.3,279,-288,480,-270,718,-273,111.69065618515015,111.69075131416321,111.69405674934387,111.70576906204224,111.84896039962769,111.84896039962769,111.84896039962769,111.84896039962769,111.84896039962769,111.84896039962769,111.84896039962769,113.52063417434692,2,1.811408281326294,None,,,,,,,,,,,,,,,,,,230,1,2025-03-11_13h00.29.738,comp,2024.2.4,52.53676304806377,2025-03-11 13h00.40.408342 -0400,
6,6,0,critical,wdh,35.0,1.0,upper,125.0,200.0,127.0,127.0,200.0,125.0,1,3.3235204219818115,None,,,,,0,0,0,0,0,6,6,73,113.53705334663391,,,,,,,,,,,,,,,,,,,,,,,,,,,,,,,,,,,,,,,,,,,,,,,,,,,,,,,,,,,,,,,,,,,,,,,,,,,,,,,,,125.0,200.0,127.0,127.0,200.0,125.0,1.0,1.2,-260,-17,0,-6,222,-7,113.52212190628052,113.52219867706299,113.52634978294373,113.53705334663391,113.68647050857544,113.68647050857544,113.68647050857544,113.68647050857544,113.68647050857544,113.68647050857544,113.68647050857544,116.87564063072205,1,3.3235204219818115,None,,,,,,,,,,,,,,,,,,230,1,2025-03-11_13h00.29.738,comp,2024.2.4,52.53676304806377,2025-03-11 13h00.40.408342 -0400,
7,7,0,critical,dhw,35.0,4.0,upper,127.0,127.0,200.0,125.0,125.0,200.0,2,2.2980449199676514,None,,,,,0,0,0,0,0,7,7,53,116.8905394077301,,,,,,,,,,,,,,,,,,,,,,,,,,,,,,,,,,,,,,,,,,,,,,,,,,,,,,,,,,,,,,,,,,,,,,,,,,,,,,,,,127.0,127.0,200.0,125.0,125.0,200.0,4.0,4.2,-222,14,0,-268,258,6,116.87719583511353,116.87727236747742,116.88027787208557,116.8905394077301,117.03491568565369,117.03491568565369,117.03491568565369,117.03491568565369,117.03491568565369,117.03491568565369,117.03491568565369,119.20557355880737,2,2.2980449199676514,None,,,,,,,,,,,,,,,,,,230,1,2025-03-11_13h00.29.738,comp,2024.2.4,52.53676304806377,2025-03-11 13h00.40.408342 -0400,
8,8,0,critical,dwh,35.0,3.0,lower,70.0,70.0,57.0,133.0,133.0,57.0,3,3.039886236190796,None,,,,,0,0,0,0,0,8,8,62,119.22092604637146,,,,,,,,,,,,,,,,,,,,,,,,,,,,,,,,,,,,,,,,,,,,,,,,,,,,,,,,,,,,,,,,,,,,,,,,,,,,,,,,,70.0,70.0,57.0,133.0,133.0,57.0,3.0,3.2,-198,-278,0,16,191,256,119.20710515975952,119.2071840763092,119.21066403388977,119.22092604637146,119.36894369125366,119.36894369125366,119.36894369125366,119.36894369125366,119.36894369125366,119.36894369125366,119.36894369125366,122.27355241775513,3,3.039886236190796,None,,,,,,,,,,,,,,,,,,230,1,2025-03-11_13h00.29.738,comp,2024.2.4,52.53676304806377,2025-03-11 13h00.40.408342 -0400,
9,9,0,filler_random,None,None,None,None,None,None,None,None,None,None,2,1.4992060661315918,None,,,,,0,0,0,0,0,9,9,135,122.28944969177246,,,,,,,,,,,,,,,,,,,,,,,,,,,,,,,,,,,,,,,,,,,,,,,,,,,,,,,,,,,,,,,,,,,,,,,,,,,,,,,,,169.0446519331128,95.4888337592794,186.7623326089988,145.26194385182703,136.2673953018646,74.7954257211618,4.0,4.2,-216,-12,0,-276,206,-19,122.27533841133118,122.27547192573547,122.27905821800232,122.28944969177246,122.44191384315491,122.44191384315491,122.44191384315491,122.44191384315491,122.44191384315491,122.44191384315491,122.44191384315491,123.79790735244751,2,1.4992060661315918,None,,,,,,,,,,,,,,,,,,230,1,2025-03-11_13h00.29.738,comp,2024.2.4,52.53676304806377,2025-03-11 13h00.40.408342 -0400,
10,10,0,filler_square,None,None,None,None,None,None,None,None,None,None,2,1.733691930770874,None,,,,,0,0,0,0,0,10,10,174,123.81498622894287,,,,,,,,,,,,,,,,,,,,,,,,,,,,,,,,,,,,,,,,,,,,,,,,,,,,,,,,,,,,,,,,,,,,,,,,,,,,,,,,,114.69629312813902,121.67228983126704,136.92369096358522,136.92369096358522,76.63399684194441,103.75686873243524,4.0,4.1,-225,-266,0,19,216,-268,123.79974675178528,123.79987335205078,123.8031919002533,123.81498622894287,123.95696091651917,123.95696091651917,123.95696091651917,123.95696091651917,123.95696091651917,123.95696091651917,123.95696091651917,125.55750846862793,2,1.733691930770874,None,,,,,,,,,,,,,,,,,,230,1,2025-03-11_13h00.29.738,comp,2024.2.4,52.53676304806377,2025-03-11 13h00.40.408342 -0400,
11,11,0,critical,hwd,35.0,3.0,upper,200.0,125.0,125.0,200.0,127.0,127.0,2,4.638582944869995,None,,,,,0,0,0,0,0,11,11,99,125.57415080070496,,,,,,,,,,,,,,,,,,,,,,,,,,,,,,,,,,,,,,,,,,,,,,,,,,,,,,,,,,,,,,,,,,,,,,,,,,,,,,,,,200.0,125.0,125.0,200.0,127.0,127.0,3.0,3.2,-258,-259,0,-1,260,264,125.55908584594727,125.55916690826416,125.56282544136047,125.57415080070496,125.72263765335083,125.72263765335083,125.72263765335083,125.72263765335083,125.72263765335083,125.72263765335083,125.72263765335083,130.2227168083191,2,4.638582944869995,None,,,,,,,,,,,,,,,,,,230,1,2025-03-11_13h00.29.738,comp,2024.2.4,52.53676304806377,2025-03-11 13h00.40.408342 -0400,
12,12,0,critical,dhw,35.0,2.1,lower,70.0,70.0,133.0,57.0,57.0,133.0,1,6.829991102218628,None,,,,,0,0,0,0,0,12,12,0,130.23909783363342,,,,,,,,,,,,,,,,,,,,,,,,,,,,,,,,,,,,,,,,,,,,,,,,,,,,,,,,,,,,,,,,,,,,,,,,,,,,,,,,,70.0,70.0,133.0,57.0,57.0,133.0,2.1,2.12,-160,-288,0,-261,191,272,130.2242956161499,130.22436809539795,130.22741770744324,130.23909783363342,130.39485239982605,130.39485239982605,130.39485239982605,130.39485239982605,130.39485239982605,130.39485239982605,130.39485239982605,137.077574968338,1,6.829991102218628,None,,,,,,,,,,,,,,,,,,230,1,2025-03-11_13h00.29.738,comp,2024.2.4,52.53676304806377,2025-03-11 13h00.40.408342 -0400,
13,13,0,critical,dhw,35.0,2.1,lower,70.0,70.0,133.0,57.0,57.0,133.0,3,3.3017964363098145,None,,,,,0,0,0,0,0,13,13,24,137.09473299980164,,,,,,,,,,,,,,,,,,,,,,,,,,,,,,,,,,,,,,,,,,,,,,,,,,,,,,,,,,,,,,,,,,,,,,,,,,,,,,,,,70.0,70.0,133.0,57.0,57.0,133.0,2.1,2.12,-160,-263,0,-254,191,290,137.07916235923767,137.07923865318298,137.08319187164307,137.09473299980164,137.24285054206848,137.24285054206848,137.24285054206848,137.24285054206848,137.24285054206848,137.24285054206848,137.24285054206848,140.4096975326538,3,3.3017964363098145,None,,,,,,,,,,,,,,,,,,230,1,2025-03-11_13h00.29.738,comp,2024.2.4,52.53676304806377,2025-03-11 13h00.40.408342 -0400,
14,14,0,filler_square,None,None,None,None,None,None,None,None,None,None,1,1.635472059249878,None,,,,,0,0,0,0,0,14,14,176,140.4251744747162,,,,,,,,,,,,,,,,,,,,,,,,,,,,,,,,,,,,,,,,,,,,,,,,,,,,,,,,,,,,,,,,,,,,,,,,,,,,,,,,,192.19939115536937,192.19939115536937,97.51518123502713,145.75325325216465,185.87817439373444,89.25385284404098,2.2,2.22,-265,262,0,-270,214,-276,140.41146612167358,140.41154170036316,140.4147310256958,140.4251744747162,140.57689356803894,140.57689356803894,140.57689356803894,140.57689356803894,140.57689356803894,140.57689356803894,140.57689356803894,142.06481313705444,1,1.635472059249878,None,,,,,,,,,,,,,,,,,,230,1,2025-03-11_13h00.29.738,comp,2024.2.4,52.53676304806377,2025-03-11 13h00.40.408342 -0400,
15,15,0,filler_random,None,None,None,None,None,None,None,None,None,None,2,2.00831937789917,None,,,,,0,0,0,0,0,15,15,150,142.08460330963135,,,,,,,,,,,,,,,,,,,,,,,,,,,,,,,,,,,,,,,,,,,,,,,,,,,,,,,,,,,,,,,,,,,,,,,,,,,,,,,,,82.40090065549643,132.76260283182233,195.73004065273702,172.89130577960933,148.2443323626893,108.37864396563633,2.1,2.12,-249,-287,0,-269,237,289,142.06688165664673,142.06696343421936,142.07040452957153,142.08460330963135,142.22624802589417,142.22624802589417,142.22624802589417,142.22624802589417,142.22624802589417,142.22624802589417,142.22624802589417,144.09520602226257,2,2.00831937789917,None,,,,,,,,,,,,,,,,,,230,1,2025-03-11_13h00.29.738,comp,2024.2.4,52.53676304806377,2025-03-11 13h00.40.408342 -0400,
16,16,0,critical,wdh,20.0,3.0,upper,125.0,200.0,141.0,141.0,200.0,125.0,1,2.9689979553222656,None,,,,,0,0,0,0,0,16,16,81,144.1155514717102,,,,,,,,,,,,,,,,,,,,,,,,,,,,,,,,,,,,,,,,,,,,,,,,,,,,,,,,,,,,,,,,,,,,,,,,,,,,,,,,,125.0,200.0,141.0,141.0,200.0,125.0,3.0,3.1,-266,264,0,-12,229,-261,144.09669065475464,144.09676480293274,144.10012459754944,144.1155514717102,144.26214265823364,144.26214265823364,144.26214265823364,144.26214265823364,144.26214265823364,144.26214265823364,144.26214265823364,147.09527611732483,1,2.9689979553222656,None,,,,,,,,,,,,,,,,,,230,1,2025-03-11_13h00.29.738,comp,2024.2.4,52.53676304806377,2025-03-11 13h00.40.408342 -0400,
17,17,0,filler_random,None,None,None,None,None,None,None,None,None,None,3,2.4206576347351074,None,,,,,0,0,0,0,0,17,17,141,147.11187100410461,,,,,,,,,,,,,,,,,,,,,,,,,,,,,,,,,,,,,,,,,,,,,,,,,,,,,,,,,,,,,,,,,,,,,,,,,,,,,,,,,107.04695506034116,173.92774946409844,167.97274516476978,95.4923796695046,171.1612508246518,150.4826366018244,2.1,2.11,-231,280,0,277,219,-287,147.09699487686157,147.0970973968506,147.10013604164124,147.11187100410461,147.271164894104,147.271164894104,147.271164894104,147.271164894104,147.271164894104,147.271164894104,147.271164894104,149.55061769485474,3,2.4206576347351074,None,,,,,,,,,,,,,,,,,,230,1,2025-03-11_13h00.29.738,comp,2024.2.4,52.53676304806377,2025-03-11 13h00.40.408342 -0400,
18,18,0,critical,hdw,20.0,4.0,lower,133.0,57.0,78.0,78.0,57.0,133.0,3,7.371593713760376,None,,,,,0,0,0,0,0,18,18,118,149.56974816322327,,,,,,,,,,,,,,,,,,,,,,,,,,,,,,,,,,,,,,,,,,,,,,,,,,,,,,,,,,,,,,,,,,,,,,,,,,,,,,,,,133.0,57.0,78.0,78.0,57.0,133.0,4.0,4.2,-164,-4,0,-255,202,-1,149.5521583557129,149.55223560333252,149.5557291507721,149.56974816322327,149.71700406074524,149.71700406074524,149.71700406074524,149.71700406074524,149.71700406074524,149.71700406074524,149.71700406074524,156.94984531402588,3,7.371593713760376,None,,,,,,,,,,,,,,,,,,230,1,2025-03-11_13h00.29.738,comp,2024.2.4,52.53676304806377,2025-03-11 13h00.40.408342 -0400,
19,19,0,filler_square,None,None,None,None,None,None,None,None,None,None,2,3.8866207599639893,None,,,,,0,0,0,0,0,19,19,178,156.96594977378845,,,,,,,,,,,,,,,,,,,,,,,,,,,,,,,,,,,,,,,,,,,,,,,,,,,,,,,,,,,,,,,,,,,,,,,,,,,,,,,,,87.74689116610989,87.74689116610989,86.14749015229368,76.81301918150322,59.361622365873096,75.79475939158857,2.2,2.22,-178,282,0,-252,172,-290,156.95165586471558,156.95173358917236,156.95527625083923,156.96594977378845,157.11730933189392,157.11730933189392,157.11730933189392,157.11730933189392,157.11730933189392,157.11730933189392,157.11730933189392,160.86739540100098,2,3.8866207599639893,None,,,,,,,,,,,,,,,,,,230,1,2025-03-11_13h00.29.738,comp,2024.2.4,52.53676304806377,2025-03-11 13h00.40.408342 -0400,
20,20,0,critical,hdw,35.0,2.1,lower,133.0,57.0,70.0,70.0,57.0,133.0,1,1.9057860374450684,None,,,,,0,0,0,0,0,20,20,20,160.88270449638367,,,,,,,,,,,,,,,,,,,,,,,,,,,,,,,,,,,,,,,,,,,,,,,,,,,,,,,,,,,,,,,,,,,,,,,,,,,,,,,,,133.0,57.0,70.0,70.0,57.0,133.0,2.1,2.11,-160,264,0,270,198,-278,160.86892533302307,160.86899971961975,160.8724329471588,160.88270449638367,161.03628158569336,161.03628158569336,161.03628158569336,161.03628158569336,161.03628158569336,161.03628158569336,161.03628158569336,162.80329012870789,1,1.9057860374450684,None,,,,,,,,,,,,,,,,,,230,1,2025-03-11_13h00.29.738,comp,2024.2.4,52.53676304806377,2025-03-11 13h00.40.408342 -0400,
21,21,0,filler_square,None,None,None,None,None,None,None,None,None,None,3,1.199852705001831,None,,,,,0,0,0,0,0,21,21,172,162.82102298736572,,,,,,,,,,,,,,,,,,,,,,,,,,,,,,,,,,,,,,,,,,,,,,,,,,,,,,,,,,,,,,,,,,,,,,,,,,,,,,,,,75.56681484119218,72.1136676802167,63.3846214909294,109.53181383954117,128.9856089341233,128.9856089341233,1.0,1.3,293,-283,480,-256,695,-285,162.8052089214325,162.8052854537964,162.80828166007996,162.82102298736572,162.97063493728638,162.97063493728638,162.97063493728638,162.97063493728638,162.97063493728638,162.97063493728638,162.97063493728638,164.0232539176941,3,1.199852705001831,None,,,,,,,,,,,,,,,,,,230,1,2025-03-11_13h00.29.738,comp,2024.2.4,52.53676304806377,2025-03-11 13h00.40.408342 -0400,
22,22,0,critical,wdh,20.0,4.0,lower,57.0,133.0,78.0,78.0,133.0,57.0,3,4.133313894271851,None,,,,,0,0,0,0,0,22,22,82,164.03920078277588,,,,,,,,,,,,,,,,,,,,,,,,,,,,,,,,,,,,,,,,,,,,,,,,,,,,,,,,,,,,,,,,,,,,,,,,,,,,,,,,,57.0,133.0,78.0,78.0,133.0,57.0,4.0,4.1,-202,-259,0,1,164,-276,164.0247621536255,164.02483797073364,164.02777528762817,164.03920078277588,164.18428421020508,164.18428421020508,164.18428421020508,164.18428421020508,164.18428421020508,164.18428421020508,164.18428421020508,168.18425679206848,3,4.133313894271851,None,,,,,,,,,,,,,,,,,,230,1,2025-03-11_13h00.29.738,comp,2024.2.4,52.53676304806377,2025-03-11 13h00.40.408342 -0400,
23,23,0,filler_square,None,None,None,None,None,None,None,None,None,None,2,2.5800366401672363,None,,,,,0,0,0,0,0,23,23,201,168.20117330551147,,,,,,,,,,,,,,,,,,,,,,,,,,,,,,,,,,,,,,,,,,,,,,,,,,,,,,,,,,,,,,,,,,,,,,,,,,,,,,,,,61.54380424063419,61.55973249499117,67.33009673329333,67.33009673329333,66.89277493234714,61.492164472108,1.0,1.2,-160,-3,0,-14,160,13,168.18610835075378,168.18620491027832,168.1894896030426,168.20117330551147,168.33600640296936,168.33600640296936,168.33600640296936,168.33600640296936,168.33600640296936,168.33600640296936,168.33600640296936,170.78505778312683,2,2.5800366401672363,None,,,,,,,,,,,,,,,,,,230,1,2025-03-11_13h00.29.738,comp,2024.2.4,52.53676304806377,2025-03-11 13h00.40.408342 -0400,
24,24,0,critical,dwh,35.0,1.0,upper,127.0,127.0,125.0,200.0,200.0,125.0,3,3.5805935859680176,None,,,,,0,0,0,0,0,24,24,61,170.7999973297119,,,,,,,,,,,,,,,,,,,,,,,,,,,,,,,,,,,,,,,,,,,,,,,,,,,,,,,,,,,,,,,,,,,,,,,,,,,,,,,,,127.0,127.0,125.0,200.0,200.0,125.0,1.0,1.2,-260,-17,0,10,258,-1,170.78658771514893,170.78666281700134,170.79003500938416,170.7999973297119,170.93741631507874,170.93741631507874,170.93741631507874,170.93741631507874,170.93741631507874,170.93741631507874,170.93741631507874,174.39750909805298,3,3.5805935859680176,None,,,,,,,,,,,,,,,,,,230,1,2025-03-11_13h00.29.738,comp,2024.2.4,52.53676304806377,2025-03-11 13h00.40.408342 -0400,
25,25,0,critical,dhw,20.0,1.0,upper,141.0,141.0,200.0,125.0,125.0,200.0,2,3.7985122203826904,None,,,,,0,0,0,0,0,25,25,55,174.41466760635376,,,,,,,,,,,,,,,,,,,,,,,,,,,,,,,,,,,,,,,,,,,,,,,,,,,,,,,,,,,,,,,,,,,,,,,,,,,,,,,,,141.0,141.0,200.0,125.0,125.0,200.0,1.0,1.3,251,-285,480,-250,738,-261,174.39896273612976,174.39903783798218,174.4019854068756,174.41466760635376,174.55540299415588,174.55540299415588,174.55540299415588,174.55540299415588,174.55540299415588,174.55540299415588,174.55540299415588,178.2213327884674,2,3.7985122203826904,None,,,,,,,,,,,,,,,,,,230,1,2025-03-11_13h00.29.738,comp,2024.2.4,52.53676304806377,2025-03-11 13h00.40.408342 -0400,
26,26,0,filler_random,None,None,None,None,None,None,None,None,None,None,1,3.687605857849121,None,,,,,0,0,0,0,0,26,26,133,178.23717069625854,,,,,,,,,,,,,,,,,,,,,,,,,,,,,,,,,,,,,,,,,,,,,,,,,,,,,,,,,,,,,,,,,,,,,,,,,,,,,,,,,81.59261395201277,186.01256884555073,184.69608321215838,94.8969328210957,78.97191968790497,154.3273532584251,1.0,1.3,244,-289,480,-254,701,-260,178.2229835987091,178.22305870056152,178.22603726387024,178.23717069625854,178.38860297203064,178.38860297203064,178.38860297203064,178.38860297203064,178.38860297203064,178.38860297203064,178.38860297203064,181.92773413658142,1,3.687605857849121,None,,,,,,,,,,,,,,,,,,230,1,2025-03-11_13h00.29.738,comp,2024.2.4,52.53676304806377,2025-03-11 13h00.40.408342 -0400,
27,27,0,filler_square,None,None,None,None,None,None,None,None,None,None,2,5.969234228134155,None,,,,,0,0,0,0,0,27,27,173,181.94740796089172,,,,,,,,,,,,,,,,,,,,,,,,,,,,,,,,,,,,,,,,,,,,,,,,,,,,,,,,,,,,,,,,,,,,,,,,,,,,,,,,,57.75918726306753,57.34115595458312,57.449869633719196,58.29544905061923,63.42488484312194,63.42488484312194,2.1,2.12,-154,-281,0,-258,157,275,181.92962336540222,181.92969942092896,181.93266463279724,181.94740796089172,182.09234595298767,182.09234595298767,182.09234595298767,182.09234595298767,182.09234595298767,182.09234595298767,182.09234595298767,187.9339895248413,2,5.969234228134155,None,,,,,,,,,,,,,,,,,,230,1,2025-03-11_13h00.29.738,comp,2024.2.4,52.53676304806377,2025-03-11 13h00.40.408342 -0400,
28,28,0,critical,dwh,35.0,2.1,upper,127.0,127.0,125.0,200.0,200.0,125.0,3,4.315903663635254,None,,,,,0,0,0,0,0,28,28,5,187.9534614086151,,,,,,,,,,,,,,,,,,,,,,,,,,,,,,,,,,,,,,,,,,,,,,,,,,,,,,,,,,,,,,,,,,,,,,,,,,,,,,,,,127.0,127.0,125.0,200.0,200.0,125.0,2.1,2.11,-260,263,0,278,258,-285,187.93554377555847,187.93561911582947,187.93860602378845,187.9534614086151,188.09299516677856,188.09299516677856,188.09299516677856,188.09299516677856,188.09299516677856,188.09299516677856,188.09299516677856,192.27764892578125,3,4.315903663635254,None,,,,,,,,,,,,,,,,,,230,1,2025-03-11_13h00.29.738,comp,2024.2.4,52.53676304806377,2025-03-11 13h00.40.408342 -0400,
29,29,0,filler_square,None,None,None,None,None,None,None,None,None,None,3,1.7183701992034912,None,,,,,0,0,0,0,0,29,29,184,192.2942705154419,,,,,,,,,,,,,,,,,,,,,,,,,,,,,,,,,,,,,,,,,,,,,,,,,,,,,,,,,,,,,,,,,,,,,,,,,,,,,,,,,64.85049536152648,111.59188807800246,90.72289791392444,78.78276166579865,112.44410057691394,112.44410057691394,2.1,2.12,-191,-287,0,-261,192,264,192.27964186668396,192.27972078323364,192.28349232673645,192.2942705154419,192.44105982780457,192.44105982780457,192.44105982780457,192.44105982780457,192.44105982780457,192.44105982780457,192.44105982780457,194.01539826393127,3,1.7183701992034912,None,,,,,,,,,,,,,,,,,,230,1,2025-03-11_13h00.29.738,comp,2024.2.4,52.53676304806377,2025-03-11 13h00.40.408342 -0400,
30,30,0,critical,dwh,35.0,1.0,lower,70.0,70.0,57.0,133.0,133.0,57.0,2,3.0219316482543945,None,,,,,0,0,0,0,0,30,30,60,194.03156042099,,,,,,,,,,,,,,,,,,,,,,,,,,,,,,,,,,,,,,,,,,,,,,,,,,,,,,,,,,,,,,,,,,,,,,,,,,,,,,,,,70.0,70.0,57.0,133.0,133.0,57.0,1.0,1.2,-198,12,0,14,191,17,194.01702451705933,194.01712918281555,194.02069354057312,194.03156042099,194.1822326183319,194.1822326183319,194.1822326183319,194.1822326183319,194.1822326183319,194.1822326183319,194.1822326183319,197.06150674819946,2,3.0219316482543945,None,,,,,,,,,,,,,,,,,,230,1,2025-03-11_13h00.29.738,comp,2024.2.4,52.53676304806377,2025-03-11 13h00.40.408342 -0400,
31,31,0,filler_random,None,None,None,None,None,None,None,None,None,None,2,1.8749303817749023,None,,,,,0,0,0,0,0,31,31,157,197.08237171173096,,,,,,,,,,,,,,,,,,,,,,,,,,,,,,,,,,,,,,,,,,,,,,,,,,,,,,,,,,,,,,,,,,,,,,,,,,,,,,,,,69.0046008334333,173.8419671579948,150.7531714639224,174.44315177731121,137.64060448473865,116.56343298653356,4.0,4.2,-270,-8,0,-262,242,11,197.06320333480835,197.06328129768372,197.06665086746216,197.08237171173096,197.22940111160278,197.22940111160278,197.22940111160278,197.22940111160278,197.22940111160278,197.22940111160278,197.22940111160278,198.96143865585327,2,1.8749303817749023,None,,,,,,,,,,,,,,,,,,230,1,2025-03-11_13h00.29.738,comp,2024.2.4,52.53676304806377,2025-03-11 13h00.40.408342 -0400,
32,32,0,catch,None,None,None,None,None,None,None,None,None,None,1,1.1545994281768799,None,,,,,0,0,0,0,0,32,32,122,198.97797918319702,,,,,,,,,,,,,,,,,,,,,,,,,,,,,,,,,,,,,,,,,,,,,,,,,,,,,,,,,,,,,,,,,,,,,,,,,,,,,,,,,167,158,60,130,93,97,1.0,1.2,-240,-8,0,-16,210,-5,198.96324110031128,198.96331572532654,198.9663314819336,198.97797918319702,199.11480450630188,199.11480450630188,199.11480450630188,199.11480450630188,199.11480450630188,199.11480450630188,199.11480450630188,200.1458888053894,1,1.1545994281768799,None,,,,,,,,,,,,,,,,,,230,1,2025-03-11_13h00.29.738,comp,2024.2.4,52.53676304806377,2025-03-11 13h00.40.408342 -0400,
33,33,0,critical,wdh,35.0,2.1,lower,57.0,133.0,70.0,70.0,133.0,57.0,1,3.3311121463775635,None,,,,,0,0,0,0,0,33,33,32,200.16176199913025,,,,,,,,,,,,,,,,,,,,,,,,,,,,,,,,,,,,,,,,,,,,,,,,,,,,,,,,,,,,,,,,,,,,,,,,,,,,,,,,,57.0,133.0,70.0,70.0,133.0,57.0,2.1,2.11,-198,277,0,272,160,-265,200.14740324020386,200.1474757194519,200.15058374404907,200.16176199913025,200.31140160560608,200.31140160560608,200.31140160560608,200.31140160560608,200.31140160560608,200.31140160560608,200.31140160560608,203.49881219863892,1,3.3311121463775635,None,,,,,,,,,,,,,,,,,,230,1,2025-03-11_13h00.29.738,comp,2024.2.4,52.53676304806377,2025-03-11 13h00.40.408342 -0400,
34,34,0,critical,whd,35.0,1.0,upper,125.0,200.0,200.0,125.0,127.0,127.0,2,3.875789165496826,None,,,,,0,0,0,0,0,34,34,85,203.51486110687256,,,,,,,,,,,,,,,,,,,,,,,,,,,,,,,,,,,,,,,,,,,,,,,,,,,,,,,,,,,,,,,,,,,,,,,,,,,,,,,,,125.0,200.0,200.0,125.0,127.0,127.0,1.0,1.2,-258,-8,0,-13,222,-4,203.50045204162598,203.50052785873413,203.50398969650269,203.51486110687256,203.66442227363586,203.66442227363586,203.66442227363586,203.66442227363586,203.66442227363586,203.66442227363586,203.66442227363586,207.4009087085724,2,3.875789165496826,None,,,,,,,,,,,,,,,,,,230,1,2025-03-11_13h00.29.738,comp,2024.2.4,52.53676304806377,2025-03-11 13h00.40.408342 -0400,
35,35,0,filler_random,None,None,None,None,None,None,None,None,None,None,1,8.370158195495605,None,,,,,0,0,0,0,0,35,35,134,207.4184868335724,,,,,,,,,,,,,,,,,,,,,,,,,,,,,,,,,,,,,,,,,,,,,,,,,,,,,,,,,,,,,,,,,,,,,,,,,,,,,,,,,80.61869388588649,180.79801183621953,68.65639522812687,105.11712513891028,130.02686216671876,82.39120689723597,1.0,1.2,-239,2,0,19,190,-10,207.4027292728424,207.40280723571777,207.4058482646942,207.4184868335724,207.56556630134583,207.56556630134583,207.56556630134583,207.56556630134583,207.56556630134583,207.56556630134583,207.56556630134583,215.79824304580688,1,8.370158195495605,None,,,,,,,,,,,,,,,,,,230,1,2025-03-11_13h00.29.738,comp,2024.2.4,52.53676304806377,2025-03-11 13h00.40.408342 -0400,
36,36,0,critical,hwd,20.0,2.1,upper,200.0,125.0,125.0,200.0,141.0,141.0,1,5.309300899505615,None,,,,,0,0,0,0,0,36,36,19,215.81534481048584,,,,,,,,,,,,,,,,,,,,,,,,,,,,,,,,,,,,,,,,,,,,,,,,,,,,,,,,,,,,,,,,,,,,,,,,,,,,,,,,,200.0,125.0,125.0,200.0,141.0,141.0,2.1,2.11,-258,270,0,270,266,-273,215.79979467391968,215.79987144470215,215.8028597831726,215.81534481048584,215.9643018245697,215.9643018245697,215.9643018245697,215.9643018245697,215.9643018245697,215.9643018245697,215.9643018245697,221.135516166687,1,5.309300899505615,None,,,,,,,,,,,,,,,,,,230,1,2025-03-11_13h00.29.738,comp,2024.2.4,52.53676304806377,2025-03-11 13h00.40.408342 -0400,
37,37,0,critical,hdw,20.0,2.1,upper,200.0,125.0,141.0,141.0,125.0,200.0,1,1.172541856765747,None,,,,,0,0,0,0,0,37,37,47,221.1522388458252,,,,,,,,,,,,,,,,,,,,,,,,,,,,,,,,,,,,,,,,,,,,,,,,,,,,,,,,,,,,,,,,,,,,,,,,,,,,,,,,,200.0,125.0,141.0,141.0,125.0,200.0,2.1,2.11,-229,280,0,286,266,-262,221.13712620735168,221.13720297813416,221.1406090259552,221.1522388458252,221.3045015335083,221.3045015335083,221.3045015335083,221.3045015335083,221.3045015335083,221.3045015335083,221.3045015335083,222.33570408821106,1,1.172541856765747,None,,,,,,,,,,,,,,,,,,230,1,2025-03-11_13h00.29.738,comp,2024.2.4,52.53676304806377,2025-03-11 13h00.40.408342 -0400,
38,38,0,filler_random,None,None,None,None,None,None,None,None,None,None,1,1.9686119556427002,None,,,,,0,0,0,0,0,38,38,130,222.35589385032654,,,,,,,,,,,,,,,,,,,,,,,,,,,,,,,,,,,,,,,,,,,,,,,,,,,,,,,,,,,,,,,,,,,,,,,,,,,,,,,,,139.83924599146948,195.37114744192297,160.7404043596369,74.44597588982919,170.29210697108394,82.36279613111924,3.0,3.1,-231,277,0,17,174,-263,222.3374240398407,222.3375005722046,222.34067559242249,222.35589385032654,222.50369000434875,222.50369000434875,222.50369000434875,222.50369000434875,222.50369000434875,222.50369000434875,222.50369000434875,224.33843207359314,1,1.9686119556427002,None,,,,,,,,,,,,,,,,,,230,1,2025-03-11_13h00.29.738,comp,2024.2.4,52.53676304806377,2025-03-11 13h00.40.408342 -0400,
39,39,0,critical,dhw,35.0,3.0,upper,127.0,127.0,200.0,125.0,125.0,200.0,3,3.2492270469665527,None,,,,,0,0,0,0,0,39,39,51,224.3556730747223,,,,,,,,,,,,,,,,,,,,,,,,,,,,,,,,,,,,,,,,,,,,,,,,,,,,,,,,,,,,,,,,,,,,,,,,,,,,,,,,,127.0,127.0,200.0,125.0,125.0,200.0,3.0,3.1,-222,285,0,-9,258,-282,224.33988690376282,224.33996057510376,224.34301853179932,224.3556730747223,224.5046751499176,224.5046751499176,224.5046751499176,224.5046751499176,224.5046751499176,224.5046751499176,224.5046751499176,227.60912251472473,3,3.2492270469665527,None,,,,,,,,,,,,,,,,,,230,1,2025-03-11_13h00.29.738,comp,2024.2.4,52.53676304806377,2025-03-11 13h00.40.408342 -0400,
40,40,0,filler_random,None,None,None,None,None,None,None,None,None,None,3,1.0921506881713867,None,,,,,0,0,0,0,0,40,40,139,227.62482476234436,,,,,,,,,,,,,,,,,,,,,,,,,,,,,,,,,,,,,,,,,,,,,,,,,,,,,,,,,,,,,,,,,,,,,,,,,,,,,,,,,62.32393978099718,179.61863801097573,66.3840136107547,122.99220644961527,182.41050412283477,169.9634524828181,1.0,1.1,-727,272,-480,268,-238,285,227.61104559898376,227.61115789413452,227.61416244506836,227.62482476234436,227.7738242149353,227.7738242149353,227.7738242149353,227.7738242149353,227.7738242149353,227.7738242149353,227.7738242149353,228.72263622283936,3,1.0921506881713867,None,,,,,,,,,,,,,,,,,,230,1,2025-03-11_13h00.29.738,comp,2024.2.4,52.53676304806377,2025-03-11 13h00.40.408342 -0400,
41,41,0,critical,hwd,35.0,2.1,upper,200.0,125.0,125.0,200.0,127.0,127.0,2,5.565921306610107,None,,,,,0,0,0,0,0,41,41,17,228.7431836128235,,,,,,,,,,,,,,,,,,,,,,,,,,,,,,,,,,,,,,,,,,,,,,,,,,,,,,,,,,,,,,,,,,,,,,,,,,,,,,,,,200.0,125.0,125.0,200.0,127.0,127.0,2.1,2.11,-258,253,0,271,260,-266,228.72418856620789,228.724267244339,228.72828149795532,228.7431836128235,228.88194179534912,228.88194179534912,228.88194179534912,228.88194179534912,228.88194179534912,228.88194179534912,228.88194179534912,234.3113842010498,2,5.565921306610107,None,,,,,,,,,,,,,,,,,,230,1,2025-03-11_13h00.29.738,comp,2024.2.4,52.53676304806377,2025-03-11 13h00.40.408342 -0400,
42,42,0,critical,wdh,20.0,4.0,upper,125.0,200.0,141.0,141.0,200.0,125.0,1,1.8423550128936768,None,,,,,0,0,0,0,0,42,42,83,234.3303940296173,,,,,,,,,,,,,,,,,,,,,,,,,,,,,,,,,,,,,,,,,,,,,,,,,,,,,,,,,,,,,,,,,,,,,,,,,,,,,,,,,125.0,200.0,141.0,141.0,200.0,125.0,4.0,4.1,-266,-254,0,-12,229,-284,234.3129539489746,234.31303191184998,234.31632590293884,234.3303940296173,234.47249484062195,234.47249484062195,234.47249484062195,234.47249484062195,234.47249484062195,234.47249484062195,234.47249484062195,236.1751310825348,1,1.8423550128936768,None,,,,,,,,,,,,,,,,,,230,1,2025-03-11_13h00.29.738,comp,2024.2.4,52.53676304806377,2025-03-11 13h00.40.408342 -0400,
43,43,0,critical,hwd,35.0,4.0,lower,133.0,57.0,57.0,133.0,70.0,70.0,1,8.019735097885132,None,,,,,0,0,0,0,0,43,43,100,236.1930582523346,,,,,,,,,,,,,,,,,,,,,,,,,,,,,,,,,,,,,,,,,,,,,,,,,,,,,,,,,,,,,,,,,,,,,,,,,,,,,,,,,133.0,57.0,57.0,133.0,70.0,70.0,4.0,4.2,-191,2,0,-286,198,19,236.17669701576233,236.1767725944519,236.1801414489746,236.1930582523346,236.3467297554016,236.3467297554016,236.3467297554016,236.3467297554016,236.3467297554016,236.3467297554016,236.3467297554016,244.2309010028839,1,8.019735097885132,None,,,,,,,,,,,,,,,,,,230,1,2025-03-11_13h00.29.738,comp,2024.2.4,52.53676304806377,2025-03-11 13h00.40.408342 -0400,
44,44,0,critical,hwd,20.0,1.0,lower,133.0,57.0,57.0,133.0,78.0,78.0,1,7.73471212387085,None,,,,,0,0,0,0,0,44,44,102,244.24595189094543,,,,,,,,,,,,,,,,,,,,,,,,,,,,,,,,,,,,,,,,,,,,,,,,,,,,,,,,,,,,,,,,,,,,,,,,,,,,,,,,,133.0,57.0,57.0,133.0,78.0,78.0,1.0,1.3,289,-287,480,-289,682,-267,244.23252987861633,244.23264455795288,244.23568415641785,244.24595189094543,244.39396858215332,244.39396858215332,244.39396858215332,244.39396858215332,244.39396858215332,244.39396858215332,244.39396858215332,251.99671006202698,1,7.73471212387085,None,,,,,,,,,,,,,,,,,,230,1,2025-03-11_13h00.29.738,comp,2024.2.4,52.53676304806377,2025-03-11 13h00.40.408342 -0400,
45,45,0,catch,None,None,None,None,None,None,None,None,None,None,3,0.9361324310302734,None,,,,,0,0,0,0,0,45,45,128,252.01251935958862,,,,,,,,,,,,,,,,,,,,,,,,,,,,,,,,,,,,,,,,,,,,,,,,,,,,,,,,,,,,,,,,,,,,,,,,,,,,,,,,,96,94,91,99,161,164,3.0,3.1,-192,264,0,-11,228,-290,251.99870586395264,251.99878311157227,252.00216960906982,252.01251935958862,252.1632959842682,252.1632959842682,252.1632959842682,252.1632959842682,252.1632959842682,252.1632959842682,252.1632959842682,252.96275901794434,3,0.9361324310302734,None,,,,,,,,,,,,,,,,,,230,1,2025-03-11_13h00.29.738,comp,2024.2.4,52.53676304806377,2025-03-11 13h00.40.408342 -0400,
46,46,0,critical,dhw,20.0,2.1,upper,141.0,141.0,200.0,125.0,125.0,200.0,3,4.321601867675781,None,,,,,0,0,0,0,0,46,46,27,252.9793345928192,,,,,,,,,,,,,,,,,,,,,,,,,,,,,,,,,,,,,,,,,,,,,,,,,,,,,,,,,,,,,,,,,,,,,,,,,,,,,,,,,141.0,141.0,200.0,125.0,125.0,200.0,2.1,2.12,-229,-259,0,-268,258,276,252.96444082260132,252.96451783180237,252.96804642677307,252.9793345928192,253.13001561164856,253.13001561164856,253.13001561164856,253.13001561164856,253.13001561164856,253.13001561164856,253.13001561164856,257.31857109069824,3,4.321601867675781,None,,,,,,,,,,,,,,,,,,230,1,2025-03-11_13h00.29.738,comp,2024.2.4,52.53676304806377,2025-03-11 13h00.40.408342 -0400,
47,47,0,critical,wdh,20.0,2.1,lower,57.0,133.0,78.0,78.0,133.0,57.0,1,2.6695210933685303,None,,,,,0,0,0,0,0,47,47,34,257.33514165878296,,,,,,,,,,,,,,,,,,,,,,,,,,,,,,,,,,,,,,,,,,,,,,,,,,,,,,,,,,,,,,,,,,,,,,,,,,,,,,,,,57.0,133.0,78.0,78.0,133.0,57.0,2.1,2.11,-202,286,0,265,164,-263,257.32038283348083,257.3205134868622,257.3238790035248,257.33514165878296,257.481360912323,257.481360912323,257.481360912323,257.481360912323,257.481360912323,257.481360912323,257.481360912323,260.0150399208069,1,2.6695210933685303,None,,,,,,,,,,,,,,,,,,230,1,2025-03-11_13h00.29.738,comp,2024.2.4,52.53676304806377,2025-03-11 13h00.40.408342 -0400,
48,48,0,critical,dhw,20.0,3.0,lower,78.0,78.0,133.0,57.0,57.0,133.0,1,3.3500521183013916,None,,,,,0,0,0,0,0,48,48,56,260.0312728881836,,,,,,,,,,,,,,,,,,,,,,,,,,,,,,,,,,,,,,,,,,,,,,,,,,,,,,,,,,,,,,,,,,,,,,,,,,,,,,,,,78.0,78.0,133.0,57.0,57.0,133.0,3.0,3.2,-164,-269,0,-12,191,252,260.0166893005371,260.0168046951294,260.0204243659973,260.0312728881836,260.18939304351807,260.18939304351807,260.18939304351807,260.18939304351807,260.18939304351807,260.18939304351807,260.18939304351807,263.38426756858826,1,3.3500521183013916,None,,,,,,,,,,,,,,,,,,230,1,2025-03-11_13h00.29.738,comp,2024.2.4,52.53676304806377,2025-03-11 13h00.40.408342 -0400,
49,49,0,critical,hwd,20.0,3.0,lower,133.0,57.0,57.0,133.0,78.0,78.0,1,1.051262378692627,None,,,,,0,0,0,0,0,49,49,104,263.4015257358551,,,,,,,,,,,,,,,,,,,,,,,,,,,,,,,,,,,,,,,,,,,,,,,,,,,,,,,,,,,,,,,,,,,,,,,,,,,,,,,,,133.0,57.0,57.0,133.0,78.0,78.0,3.0,3.1,-191,260,0,11,202,-251,263.3858993053436,263.3860192298889,263.3897018432617,263.4015257358551,263.5498106479645,263.5498106479645,263.5498106479645,263.5498106479645,263.5498106479645,263.5498106479645,263.5498106479645,264.46688961982727,1,1.051262378692627,None,,,,,,,,,,,,,,,,,,230,1,2025-03-11_13h00.29.738,comp,2024.2.4,52.53676304806377,2025-03-11 13h00.40.408342 -0400,
50,50,0,critical,whd,35.0,1.0,lower,57.0,133.0,133.0,57.0,70.0,70.0,2,2.6095798015594482,None,,,,,0,0,0,0,0,50,50,84,264.4831585884094,,,,,,,,,,,,,,,,,,,,,,,,,,,,,,,,,,,,,,,,,,,,,,,,,,,,,,,,,,,,,,,,,,,,,,,,,,,,,,,,,57.0,133.0,133.0,57.0,70.0,70.0,1.0,1.2,-191,-9,0,14,160,2,264.4684853553772,264.46856474876404,264.4727056026459,264.4831585884094,264.63098645210266,264.63098645210266,264.63098645210266,264.63098645210266,264.63098645210266,264.63098645210266,264.63098645210266,267.102885723114,2,2.6095798015594482,None,,,,,,,,,,,,,,,,,,230,1,2025-03-11_13h00.29.738,comp,2024.2.4,52.53676304806377,2025-03-11 13h00.40.408342 -0400,
51,51,0,critical,wdh,20.0,2.1,lower,57.0,133.0,78.0,78.0,133.0,57.0,3,0.9578180313110352,None,,,,,0,0,0,0,0,51,51,10,267.11892342567444,,,,,,,,,,,,,,,,,,,,,,,,,,,,,,,,,,,,,,,,,,,,,,,,,,,,,,,,,,,,,,,,,,,,,,,,,,,,,,,,,57.0,133.0,78.0,78.0,133.0,57.0,2.1,2.12,-202,-253,0,-261,164,285,267.1045479774475,267.10462641716003,267.10793471336365,267.11892342567444,267.2742314338684,267.2742314338684,267.2742314338684,267.2742314338684,267.2742314338684,267.2742314338684,267.2742314338684,268.0941638946533,3,0.9578180313110352,None,,,,,,,,,,,,,,,,,,230,1,2025-03-11_13h00.29.738,comp,2024.2.4,52.53676304806377,2025-03-11 13h00.40.408342 -0400,
52,52,0,critical,dhw,20.0,2.1,lower,78.0,78.0,133.0,57.0,57.0,133.0,2,1.705587387084961,None,,,,,0,0,0,0,0,52,52,26,268.1113464832306,,,,,,,,,,,,,,,,,,,,,,,,,,,,,,,,,,,,,,,,,,,,,,,,,,,,,,,,,,,,,,,,,,,,,,,,,,,,,,,,,78.0,78.0,133.0,57.0,57.0,133.0,2.1,2.11,-164,258,0,263,191,-290,268.0956931114197,268.09577083587646,268.09881615638733,268.1113464832306,268.2509973049164,268.2509973049164,268.2509973049164,268.2509973049164,268.2509973049164,268.2509973049164,268.2509973049164,269.8276844024658,2,1.705587387084961,None,,,,,,,,,,,,,,,,,,230,1,2025-03-11_13h00.29.738,comp,2024.2.4,52.53676304806377,2025-03-11 13h00.40.408342 -0400,
53,53,0,critical,dhw,20.0,1.0,lower,78.0,78.0,133.0,57.0,57.0,133.0,1,1.9572887420654297,None,,,,,0,0,0,0,0,53,53,54,269.84784865379333,,,,,,,,,,,,,,,,,,,,,,,,,,,,,,,,,,,,,,,,,,,,,,,,,,,,,,,,,,,,,,,,,,,,,,,,,,,,,,,,,78.0,78.0,133.0,57.0,57.0,133.0,1.0,1.2,-164,-8,0,-4,191,-14,269.8291277885437,269.8292009830475,269.8321101665497,269.84784865379333,269.98401165008545,269.98401165008545,269.98401165008545,269.98401165008545,269.98401165008545,269.98401165008545,269.98401165008545,271.8141989707947,1,1.9572887420654297,None,,,,,,,,,,,,,,,,,,230,1,2025-03-11_13h00.29.738,comp,2024.2.4,52.53676304806377,2025-03-11 13h00.40.408342 -0400,
54,54,0,critical,whd,20.0,2.1,upper,125.0,200.0,200.0,125.0,141.0,141.0,3,2.1346116065979004,None,,,,,0,0,0,0,0,54,54,15,271.8305141925812,,,,,,,,,,,,,,,,,,,,,,,,,,,,,,,,,,,,,,,,,,,,,,,,,,,,,,,,,,,,,,,,,,,,,,,,,,,,,,,,,125.0,200.0,200.0,125.0,141.0,141.0,2.1,2.11,-258,263,0,256,229,-289,271.81572222709656,271.81580233573914,271.81883430480957,271.8305141925812,271.96950459480286,271.96950459480286,271.96950459480286,271.96950459480286,271.96950459480286,271.96950459480286,271.96950459480286,273.9697458744049,3,2.1346116065979004,None,,,,,,,,,,,,,,,,,,230,1,2025-03-11_13h00.29.738,comp,2024.2.4,52.53676304806377,2025-03-11 13h00.40.408342 -0400,
55,55,0,critical,whd,20.0,2.1,upper,125.0,200.0,200.0,125.0,141.0,141.0,3,1.123054027557373,None,,,,,0,0,0,0,0,55,55,39,273.98563027381897,,,,,,,,,,,,,,,,,,,,,,,,,,,,,,,,,,,,,,,,,,,,,,,,,,,,,,,,,,,,,,,,,,,,,,,,,,,,,,,,,125.0,200.0,200.0,125.0,141.0,141.0,2.1,2.12,-258,-271,0,-282,229,289,273.971328496933,273.9714078903198,273.97493600845337,273.98563027381897,274.1347887516022,274.1347887516022,274.1347887516022,274.1347887516022,274.1347887516022,274.1347887516022,274.1347887516022,275.12109637260437,3,1.123054027557373,None,,,,,,,,,,,,,,,,,,230,1,2025-03-11_13h00.29.738,comp,2024.2.4,52.53676304806377,2025-03-11 13h00.40.408342 -0400,
56,56,0,filler_square,None,None,None,None,None,None,None,None,None,None,3,2.6574301719665527,None,,,,,0,0,0,0,0,56,56,192,275.13982033729553,,,,,,,,,,,,,,,,,,,,,,,,,,,,,,,,,,,,,,,,,,,,,,,,,,,,,,,,,,,,,,,,,,,,,,,,,,,,,,,,,67.21085683289363,61.4599320736387,63.90918327622756,57.74131290090876,68.8928480838663,68.8928480838663,2.2,2.21,-156,-252,0,281,159,276,275.12316703796387,275.1232454776764,275.1266510486603,275.13982033729553,275.2859387397766,275.2859387397766,275.2859387397766,275.2859387397766,275.2859387397766,275.2859387397766,275.2859387397766,277.80595684051514,3,2.6574301719665527,None,,,,,,,,,,,,,,,,,,230,1,2025-03-11_13h00.29.738,comp,2024.2.4,52.53676304806377,2025-03-11 13h00.40.408342 -0400,
57,57,0,critical,wdh,35.0,1.0,lower,57.0,133.0,70.0,70.0,133.0,57.0,1,2.629990577697754,None,,,,,0,0,0,0,0,57,57,72,277.8232743740082,,,,,,,,,,,,,,,,,,,,,,,,,,,,,,,,,,,,,,,,,,,,,,,,,,,,,,,,,,,,,,,,,,,,,,,,,,,,,,,,,57.0,133.0,70.0,70.0,133.0,57.0,1.0,1.1,-678,281,-480,266,-320,276,277.8076913356781,277.80776715278625,277.811541557312,277.8232743740082,277.9623053073883,277.9623053073883,277.9623053073883,277.9623053073883,277.9623053073883,277.9623053073883,277.9623053073883,280.4613206386566,1,2.629990577697754,None,,,,,,,,,,,,,,,,,,230,1,2025-03-11_13h00.29.738,comp,2024.2.4,52.53676304806377,2025-03-11 13h00.40.408342 -0400,
58,58,0,critical,hdw,20.0,3.0,lower,133.0,57.0,78.0,78.0,57.0,133.0,3,4.664501190185547,None,,,,,0,0,0,0,0,58,58,116,280.47663855552673,,,,,,,,,,,,,,,,,,,,,,,,,,,,,,,,,,,,,,,,,,,,,,,,,,,,,,,,,,,,,,,,,,,,,,,,,,,,,,,,,133.0,57.0,78.0,78.0,57.0,133.0,3.0,3.1,-164,259,0,-3,202,-269,280.462774515152,280.4628496170044,280.4658362865448,280.47663855552673,280.6217966079712,280.6217966079712,280.6217966079712,280.6217966079712,280.6217966079712,280.6217966079712,280.6217966079712,285.1459107398987,3,4.664501190185547,None,,,,,,,,,,,,,,,,,,230,1,2025-03-11_13h00.29.738,comp,2024.2.4,52.53676304806377,2025-03-11 13h00.40.408342 -0400,
59,59,0,filler_random,None,None,None,None,None,None,None,None,None,None,1,1.1395714282989502,None,,,,,0,0,0,0,0,59,59,158,285.1615059375763,,,,,,,,,,,,,,,,,,,,,,,,,,,,,,,,,,,,,,,,,,,,,,,,,,,,,,,,,,,,,,,,,,,,,,,,,,,,,,,,,124.07204157590914,189.94517367602003,157.26083219618334,83.20649379647178,101.36745825947983,122.57662297536764,2.2,2.22,-233,255,0,-284,199,-280,285.14766573905945,285.1477406024933,285.15071868896484,285.1615059375763,285.3156852722168,285.3156852722168,285.3156852722168,285.3156852722168,285.3156852722168,285.3156852722168,285.3156852722168,286.3056592941284,1,1.1395714282989502,None,,,,,,,,,,,,,,,,,,230,1,2025-03-11_13h00.29.738,comp,2024.2.4,52.53676304806377,2025-03-11 13h00.40.408342 -0400,
60,60,0,critical,dwh,35.0,3.0,upper,127.0,127.0,125.0,200.0,200.0,125.0,3,5.202798128128052,None,,,,,0,0,0,0,0,60,60,63,286.32191586494446,,,,,,,,,,,,,,,,,,,,,,,,,,,,,,,,,,,,,,,,,,,,,,,,,,,,,,,,,,,,,,,,,,,,,,,,,,,,,,,,,127.0,127.0,125.0,200.0,200.0,125.0,3.0,3.1,-260,284,0,13,258,-271,286.3072319030762,286.30730652809143,286.3107430934906,286.32191586494446,286.4763569831848,286.4763569831848,286.4763569831848,286.4763569831848,286.4763569831848,286.4763569831848,286.4763569831848,291.5413513183594,3,5.202798128128052,None,,,,,,,,,,,,,,,,,,230,1,2025-03-11_13h00.29.738,comp,2024.2.4,52.53676304806377,2025-03-11 13h00.40.408342 -0400,
61,61,0,filler_square,None,None,None,None,None,None,None,None,None,None,2,1.5592646598815918,None,,,,,0,0,0,0,0,61,61,171,291.5581748485565,,,,,,,,,,,,,,,,,,,,,,,,,,,,,,,,,,,,,,,,,,,,,,,,,,,,,,,,,,,,,,,,,,,,,,,,,,,,,,,,,175.32908929744684,136.7292756271288,195.20171785538776,195.20171785538776,146.40128422194317,112.36334669618583,3.0,3.1,-262,283,0,-3,250,-288,291.5430865287781,291.54316568374634,291.5461881160736,291.5581748485565,291.7094941139221,291.7094941139221,291.7094941139221,291.7094941139221,291.7094941139221,291.7094941139221,291.7094941139221,293.12435698509216,2,1.5592646598815918,None,,,,,,,,,,,,,,,,,,230,1,2025-03-11_13h00.29.738,comp,2024.2.4,52.53676304806377,2025-03-11 13h00.40.408342 -0400,
62,62,0,filler_square,None,None,None,None,None,None,None,None,None,None,1,3.1836953163146973,None,,,,,0,0,0,0,0,62,62,179,293.14168667793274,,,,,,,,,,,,,,,,,,,,,,,,,,,,,,,,,,,,,,,,,,,,,,,,,,,,,,,,,,,,,,,,,,,,,,,,,,,,,,,,,111.8663249268711,112.66030666431624,115.05889777362358,115.05889777362358,77.9877109513554,59.44013845731225,4.0,4.1,-210,-265,0,20,183,-282,293.1261522769928,293.1262755393982,293.1297016143799,293.14168667793274,293.29288625717163,293.29288625717163,293.29288625717163,293.29288625717163,293.29288625717163,293.29288625717163,293.29288625717163,296.327707529068,1,3.1836953163146973,None,,,,,,,,,,,,,,,,,,230,1,2025-03-11_13h00.29.738,comp,2024.2.4,52.53676304806377,2025-03-11 13h00.40.408342 -0400,
63,63,0,filler_square,None,None,None,None,None,None,None,None,None,None,1,3.6199657917022705,None,,,,,0,0,0,0,0,63,63,198,296.3448603153229,,,,,,,,,,,,,,,,,,,,,,,,,,,,,,,,,,,,,,,,,,,,,,,,,,,,,,,,,,,,,,,,,,,,,,,,,,,,,,,,,107.55894934328543,107.55894934328543,80.03606753623747,106.30450642986153,102.65479182611675,79.48697342788539,4.0,4.1,-203,-282,0,-1,189,-252,296.3298451900482,296.32992696762085,296.3337752819061,296.3448603153229,296.4902274608612,296.4902274608612,296.4902274608612,296.4902274608612,296.4902274608612,296.4902274608612,296.4902274608612,299.97571325302124,1,3.6199657917022705,None,,,,,,,,,,,,,,,,,,230,1,2025-03-11_13h00.29.738,comp,2024.2.4,52.53676304806377,2025-03-11 13h00.40.408342 -0400,
64,64,0,filler_random,None,None,None,None,None,None,None,None,None,None,3,1.2366249561309814,None,,,,,0,0,0,0,0,64,64,165,299.9920961856842,,,,,,,,,,,,,,,,,,,,,,,,,,,,,,,,,,,,,,,,,,,,,,,,,,,,,,,,,,,,,,,,,,,,,,,,,,,,,,,,,77.21167654166047,75.64566425375628,169.70595964728807,104.9246359855307,177.15199169025163,169.690470615728,2.1,2.11,-186,287,0,267,233,-267,299.9774489402771,299.97752714157104,299.9804964065552,299.9920961856842,300.14700865745544,300.14700865745544,300.14700865745544,300.14700865745544,300.14700865745544,300.14700865745544,300.14700865745544,301.24566292762756,3,1.2366249561309814,None,,,,,,,,,,,,,,,,,,230,1,2025-03-11_13h00.29.738,comp,2024.2.4,52.53676304806377,2025-03-11 13h00.40.408342 -0400,
65,65,0,critical,dwh,20.0,1.0,upper,141.0,141.0,125.0,200.0,200.0,125.0,3,5.751327753067017,None,,,,,0,0,0,0,0,65,65,67,301.26219940185547,,,,,,,,,,,,,,,,,,,,,,,,,,,,,,,,,,,,,,,,,,,,,,,,,,,,,,,,,,,,,,,,,,,,,,,,,,,,,,,,,141.0,141.0,125.0,200.0,200.0,125.0,1.0,1.1,-746,250,-480,273,-222,262,301.24720644950867,301.24728059768677,301.2502863407135,301.26219940185547,301.4158217906952,301.4158217906952,301.4158217906952,301.4158217906952,301.4158217906952,301.4158217906952,301.4158217906952,307.01897144317627,3,5.751327753067017,None,,,,,,,,,,,,,,,,,,230,1,2025-03-11_13h00.29.738,comp,2024.2.4,52.53676304806377,2025-03-11 13h00.40.408342 -0400,
66,66,0,critical,whd,35.0,3.0,upper,125.0,200.0,200.0,125.0,127.0,127.0,1,1.7788543701171875,None,,,,,0,0,0,0,0,66,66,87,307.0341854095459,,,,,,,,,,,,,,,,,,,,,,,,,,,,,,,,,,,,,,,,,,,,,,,,,,,,,,,,,,,,,,,,,,,,,,,,,,,,,,,,,125.0,200.0,200.0,125.0,127.0,127.0,3.0,3.2,-258,-287,0,4,222,258,307.02045130729675,307.0205271244049,307.02345418930054,307.0341854095459,307.1826870441437,307.1826870441437,307.1826870441437,307.1826870441437,307.1826870441437,307.1826870441437,307.1826870441437,308.8152856826782,1,1.7788543701171875,None,,,,,,,,,,,,,,,,,,230,1,2025-03-11_13h00.29.738,comp,2024.2.4,52.53676304806377,2025-03-11 13h00.40.408342 -0400,
67,67,0,filler_random,None,None,None,None,None,None,None,None,None,None,1,2.49367094039917,None,,,,,0,0,0,0,0,67,67,159,308.8318464756012,,,,,,,,,,,,,,,,,,,,,,,,,,,,,,,,,,,,,,,,,,,,,,,,,,,,,,,,,,,,,,,,,,,,,,,,,,,,,,,,,126.73848052127384,94.20762910001373,112.79646875944987,92.72144502881719,75.49295430421601,125.79429294079054,2.2,2.21,-189,-272,0,287,205,279,308.81721591949463,308.817343711853,308.8210563659668,308.8318464756012,308.9812033176422,308.9812033176422,308.9812033176422,308.9812033176422,308.9812033176422,308.9812033176422,308.9812033176422,311.32841634750366,1,2.49367094039917,None,,,,,,,,,,,,,,,,,,230,1,2025-03-11_13h00.29.738,comp,2024.2.4,52.53676304806377,2025-03-11 13h00.40.408342 -0400,
68,68,0,critical,dwh,20.0,2.1,lower,78.0,78.0,57.0,133.0,133.0,57.0,1,2.4031875133514404,None,,,,,0,0,0,0,0,68,68,6,311.34548234939575,,,,,,,,,,,,,,,,,,,,,,,,,,,,,,,,,,,,,,,,,,,,,,,,,,,,,,,,,,,,,,,,,,,,,,,,,,,,,,,,,78.0,78.0,57.0,133.0,133.0,57.0,2.1,2.12,-202,-254,0,-270,191,274,311.32986783981323,311.3299424648285,311.3328664302826,311.34548234939575,311.48422598838806,311.48422598838806,311.48422598838806,311.48422598838806,311.48422598838806,311.48422598838806,311.48422598838806,313.7652394771576,1,2.4031875133514404,None,,,,,,,,,,,,,,,,,,230,1,2025-03-11_13h00.29.738,comp,2024.2.4,52.53676304806377,2025-03-11 13h00.40.408342 -0400,
69,69,0,critical,hdw,20.0,4.0,upper,200.0,125.0,141.0,141.0,125.0,200.0,3,5.59981894493103,None,,,,,0,0,0,0,0,69,69,119,313.7809178829193,,,,,,,,,,,,,,,,,,,,,,,,,,,,,,,,,,,,,,,,,,,,,,,,,,,,,,,,,,,,,,,,,,,,,,,,,,,,,,,,,200.0,125.0,141.0,141.0,125.0,200.0,4.0,4.2,-229,0,0,-266,266,-12,313.76681184768677,313.7668876647949,313.77051877975464,313.7809178829193,313.9331548213959,313.9331548213959,313.9331548213959,313.9331548213959,313.9331548213959,313.9331548213959,313.9331548213959,319.3944413661957,3,5.59981894493103,None,,,,,,,,,,,,,,,,,,230,1,2025-03-11_13h00.29.738,comp,2024.2.4,52.53676304806377,2025-03-11 13h00.40.408342 -0400,
70,70,0,filler_random,None,None,None,None,None,None,None,None,None,None,2,2.132333517074585,None,,,,,0,0,0,0,0,70,70,167,319.4101769924164,,,,,,,,,,,,,,,,,,,,,,,,,,,,,,,,,,,,,,,,,,,,,,,,,,,,,,,,,,,,,,,,,,,,,,,,,,,,,,,,,111.33908979901886,60.711670303674815,154.2945996639623,76.63834829492589,93.87256695936873,91.45596226028698,3.0,3.1,-165,274,0,11,180,-278,319.39612317085266,319.3962025642395,319.399126291275,319.4101769924164,319.56048560142517,319.56048560142517,319.56048560142517,319.56048560142517,319.56048560142517,319.56048560142517,319.56048560142517,321.5501503944397,2,2.132333517074585,None,,,,,,,,,,,,,,,,,,230,1,2025-03-11_13h00.29.738,comp,2024.2.4,52.53676304806377,2025-03-11 13h00.40.408342 -0400,
71,71,0,filler_square,None,None,None,None,None,None,None,None,None,None,2,1.3019862174987793,None,,,,,0,0,0,0,0,71,71,185,321.56675004959106,,,,,,,,,,,,,,,,,,,,,,,,,,,,,,,,,,,,,,,,,,,,,,,,,,,,,,,,,,,,,,,,,,,,,,,,,,,,,,,,,161.66504596373795,133.5172105671126,196.56911721849332,196.56911721849332,156.2013736712214,119.98233865276175,2.2,2.22,-261,253,0,-270,254,-261,321.55190205574036,321.55197954177856,321.5552017688751,321.56675004959106,321.71687960624695,321.71687960624695,321.71687960624695,321.71687960624695,321.71687960624695,321.71687960624695,321.71687960624695,322.8859143257141,2,1.3019862174987793,None,,,,,,,,,,,,,,,,,,230,1,2025-03-11_13h00.29.738,comp,2024.2.4,52.53676304806377,2025-03-11 13h00.40.408342 -0400,
72,72,0,filler_random,None,None,None,None,None,None,None,None,None,None,1,1.7548933029174805,None,,,,,0,0,0,0,0,72,72,168,322.90651416778564,,,,,,,,,,,,,,,,,,,,,,,,,,,,,,,,,,,,,,,,,,,,,,,,,,,,,,,,,,,,,,,,,,,,,,,,,,,,,,,,,119.99194466991987,179.76723447623328,186.02458958979398,108.73112889604566,106.70797675925053,179.98256400138695,1.0,1.2,-240,17,0,19,240,-10,322.8875894546509,322.88766288757324,322.8908681869507,322.90651416778564,323.05267333984375,323.05267333984375,323.05267333984375,323.05267333984375,323.05267333984375,323.05267333984375,323.05267333984375,324.6691749095917,1,1.7548933029174805,None,,,,,,,,,,,,,,,,,,230,1,2025-03-11_13h00.29.738,comp,2024.2.4,52.53676304806377,2025-03-11 13h00.40.408342 -0400,
73,73,0,critical,hdw,35.0,4.0,lower,133.0,57.0,70.0,70.0,57.0,133.0,3,1.2079155445098877,None,,,,,0,0,0,0,0,73,73,112,324.6856656074524,,,,,,,,,,,,,,,,,,,,,,,,,,,,,,,,,,,,,,,,,,,,,,,,,,,,,,,,,,,,,,,,,,,,,,,,,,,,,,,,,133.0,57.0,70.0,70.0,57.0,133.0,4.0,4.1,-160,-260,0,-4,198,-261,324.6707692146301,324.67084431648254,324.67495036125183,324.6856656074524,324.836373090744,324.836373090744,324.836373090744,324.836373090744,324.836373090744,324.836373090744,324.836373090744,325.90260672569275,3,1.2079155445098877,None,,,,,,,,,,,,,,,,,,230,1,2025-03-11_13h00.29.738,comp,2024.2.4,52.53676304806377,2025-03-11 13h00.40.408342 -0400,
74,74,0,critical,dhw,20.0,3.0,upper,141.0,141.0,200.0,125.0,125.0,200.0,3,1.8783531188964844,None,,,,,0,0,0,0,0,74,74,57,325.9183700084686,,,,,,,,,,,,,,,,,,,,,,,,,,,,,,,,,,,,,,,,,,,,,,,,,,,,,,,,,,,,,,,,,,,,,,,,,,,,,,,,,141.0,141.0,200.0,125.0,125.0,200.0,3.0,3.1,-229,264,0,14,258,-275,325.90410566329956,325.90418338775635,325.907591342926,325.9183700084686,326.0681495666504,326.0681495666504,326.0681495666504,326.0681495666504,326.0681495666504,326.0681495666504,326.0681495666504,327.8111717700958,3,1.8783531188964844,None,,,,,,,,,,,,,,,,,,230,1,2025-03-11_13h00.29.738,comp,2024.2.4,52.53676304806377,2025-03-11 13h00.40.408342 -0400,
75,75,0,critical,wdh,20.0,1.0,lower,57.0,133.0,78.0,78.0,133.0,57.0,1,4.3505494594573975,None,,,,,0,0,0,0,0,75,75,78,327.8311548233032,,,,,,,,,,,,,,,,,,,,,,,,,,,,,,,,,,,,,,,,,,,,,,,,,,,,,,,,,,,,,,,,,,,,,,,,,,,,,,,,,57.0,133.0,78.0,78.0,133.0,57.0,1.0,1.1,-682,266,-480,282,-316,270,327.81262707710266,327.81270265579224,327.81562423706055,327.8311548233032,327.97013092041016,327.97013092041016,327.97013092041016,327.97013092041016,327.97013092041016,327.97013092041016,327.97013092041016,332.18820214271545,1,4.3505494594573975,None,,,,,,,,,,,,,,,,,,230,1,2025-03-11_13h00.29.738,comp,2024.2.4,52.53676304806377,2025-03-11 13h00.40.408342 -0400,
76,76,0,critical,dhw,35.0,2.1,upper,127.0,127.0,200.0,125.0,125.0,200.0,3,1.0728490352630615,None,,,,,0,0,0,0,0,76,76,1,332.2048010826111,,,,,,,,,,,,,,,,,,,,,,,,,,,,,,,,,,,,,,,,,,,,,,,,,,,,,,,,,,,,,,,,,,,,,,,,,,,,,,,,,127.0,127.0,200.0,125.0,125.0,200.0,2.1,2.12,-222,-285,0,-278,258,288,332.18979048728943,332.1898658275604,332.1941068172455,332.2048010826111,332.3629710674286,332.3629710674286,332.3629710674286,332.3629710674286,332.3629710674286,332.3629710674286,332.3629710674286,333.2892291545868,3,1.0728490352630615,None,,,,,,,,,,,,,,,,,,230,1,2025-03-11_13h00.29.738,comp,2024.2.4,52.53676304806377,2025-03-11 13h00.40.408342 -0400,
77,77,0,critical,hdw,20.0,3.0,upper,200.0,125.0,141.0,141.0,125.0,200.0,3,1.2998616695404053,None,,,,,0,0,0,0,0,77,77,117,333.30494141578674,,,,,,,,,,,,,,,,,,,,,,,,,,,,,,,,,,,,,,,,,,,,,,,,,,,,,,,,,,,,,,,,,,,,,,,,,,,,,,,,,200.0,125.0,141.0,141.0,125.0,200.0,3.0,3.2,-229,-287,0,15,266,290,333.2908957004547,333.2910084724426,333.29459714889526,333.30494141578674,333.4628236293793,333.4628236293793,333.4628236293793,333.4628236293793,333.4628236293793,333.4628236293793,333.4628236293793,334.6067478656769,3,1.2998616695404053,None,,,,,,,,,,,,,,,,,,230,1,2025-03-11_13h00.29.738,comp,2024.2.4,52.53676304806377,2025-03-11 13h00.40.408342 -0400,
78,78,0,filler_square,None,None,None,None,None,None,None,None,None,None,1,2.3574249744415283,None,,,,,0,0,0,0,0,78,78,197,334.6233170032501,,,,,,,,,,,,,,,,,,,,,,,,,,,,,,,,,,,,,,,,,,,,,,,,,,,,,,,,,,,,,,,,,,,,,,,,,,,,,,,,,140.53097086559097,140.53097086559097,111.49103687691697,118.7291293873713,76.41400293855786,138.32395101755466,2.2,2.22,-226,270,0,-277,225,-259,334.60881876945496,334.6089012622833,334.61245012283325,334.6233170032501,334.7722861766815,334.7722861766815,334.7722861766815,334.7722861766815,334.7722861766815,334.7722861766815,334.7722861766815,336.994957447052,1,2.3574249744415283,None,,,,,,,,,,,,,,,,,,230,1,2025-03-11_13h00.29.738,comp,2024.2.4,52.53676304806377,2025-03-11 13h00.40.408342 -0400,
79,79,0,critical,dhw,20.0,4.0,lower,78.0,78.0,133.0,57.0,57.0,133.0,2,2.2663962841033936,None,,,,,0,0,0,0,0,79,79,58,337.01039004325867,,,,,,,,,,,,,,,,,,,,,,,,,,,,,,,,,,,,,,,,,,,,,,,,,,,,,,,,,,,,,,,,,,,,,,,,,,,,,,,,,78.0,78.0,133.0,57.0,57.0,133.0,4.0,4.1,-164,-255,0,-3,191,-257,336.9964647293091,336.9965410232544,336.99948239326477,337.01039004325867,337.1564643383026,337.1564643383026,337.1564643383026,337.1564643383026,337.1564643383026,337.1564643383026,337.1564643383026,339.2893900871277,2,2.2663962841033936,None,,,,,,,,,,,,,,,,,,230,1,2025-03-11_13h00.29.738,comp,2024.2.4,52.53676304806377,2025-03-11 13h00.40.408342 -0400,
80,80,0,critical,wdh,35.0,2.1,upper,125.0,200.0,127.0,127.0,200.0,125.0,1,2.746835708618164,None,,,,,0,0,0,0,0,80,80,9,339.3059151172638,,,,,,,,,,,,,,,,,,,,,,,,,,,,,,,,,,,,,,,,,,,,,,,,,,,,,,,,,,,,,,,,,,,,,,,,,,,,,,,,,125.0,200.0,127.0,127.0,200.0,125.0,2.1,2.11,-260,281,0,272,222,-259,339.29098320007324,339.2910587787628,339.2945554256439,339.3059151172638,339.45975399017334,339.45975399017334,339.45975399017334,339.45975399017334,339.45975399017334,339.45975399017334,339.45975399017334,342.0624554157257,1,2.746835708618164,None,,,,,,,,,,,,,,,,,,230,1,2025-03-11_13h00.29.738,comp,2024.2.4,52.53676304806377,2025-03-11 13h00.40.408342 -0400,
81,81,0,filler_square,None,None,None,None,None,None,None,None,None,None,3,1.7012526988983154,None,,,,,0,0,0,0,0,81,81,190,342.07967162132263,,,,,,,,,,,,,,,,,,,,,,,,,,,,,,,,,,,,,,,,,,,,,,,,,,,,,,,,,,,,,,,,,,,,,,,,,,,,,,,,,66.18262021509815,136.02689430454026,74.07458824233824,117.85736403557794,190.3467624721099,190.3467624721099,2.2,2.22,-223,289,0,-280,250,-262,342.0645706653595,342.0646529197693,342.0684254169464,342.07967162132263,342.22682309150696,342.22682309150696,342.22682309150696,342.22682309150696,342.22682309150696,342.22682309150696,342.22682309150696,343.7904715538025,3,1.7012526988983154,None,,,,,,,,,,,,,,,,,,230,1,2025-03-11_13h00.29.738,comp,2024.2.4,52.53676304806377,2025-03-11 13h00.40.408342 -0400,
82,82,0,filler_square,None,None,None,None,None,None,None,None,None,None,3,2.1019508838653564,None,,,,,0,0,0,0,0,82,82,203,343.80694699287415,,,,,,,,,,,,,,,,,,,,,,,,,,,,,,,,,,,,,,,,,,,,,,,,,,,,,,,,,,,,,,,,,,,,,,,,,,,,,,,,,107.62187040201431,79.44390015358474,134.55989777212233,117.96207009537216,141.31635026676798,141.31635026676798,2.1,2.11,-195,289,0,266,226,-279,343.7922022342682,343.792277097702,343.7954173088074,343.80694699287415,343.94804286956787,343.94804286956787,343.94804286956787,343.94804286956787,343.94804286956787,343.94804286956787,343.94804286956787,345.92517042160034,3,2.1019508838653564,None,,,,,,,,,,,,,,,,,,230,1,2025-03-11_13h00.29.738,comp,2024.2.4,52.53676304806377,2025-03-11 13h00.40.408342 -0400,
83,83,0,critical,hdw,35.0,2.1,upper,200.0,125.0,127.0,127.0,125.0,200.0,3,2.271439790725708,None,,,,,0,0,0,0,0,83,83,45,345.9415981769562,,,,,,,,,,,,,,,,,,,,,,,,,,,,,,,,,,,,,,,,,,,,,,,,,,,,,,,,,,,,,,,,,,,,,,,,,,,,,,,,,200.0,125.0,127.0,127.0,125.0,200.0,2.1,2.11,-222,269,0,252,260,-276,345.9268374443054,345.9269242286682,345.93037462234497,345.9415981769562,346.09165024757385,346.09165024757385,346.09165024757385,346.09165024757385,346.09165024757385,346.09165024757385,346.09165024757385,348.2263457775116,3,2.271439790725708,None,,,,,,,,,,,,,,,,,,230,1,2025-03-11_13h00.29.738,comp,2024.2.4,52.53676304806377,2025-03-11 13h00.40.408342 -0400,
84,84,0,filler_random,None,None,None,None,None,None,None,None,None,None,2,1.4187493324279785,None,,,,,0,0,0,0,0,84,84,142,348.24214935302734,,,,,,,,,,,,,,,,,,,,,,,,,,,,,,,,,,,,,,,,,,,,,,,,,,,,,,,,,,,,,,,,,,,,,,,,,,,,,,,,,191.32100802899444,85.23237812835714,142.7787541645355,159.8490850465412,109.87815900643331,78.0277376153913,2.2,2.21,-219,-252,0,269,215,268,348.2281951904297,348.22831773757935,348.23176860809326,348.24214935302734,348.3981702327728,348.3981702327728,348.3981702327728,348.3981702327728,348.3981702327728,348.3981702327728,348.3981702327728,349.66579508781433,2,1.4187493324279785,None,,,,,,,,,,,,,,,,,,230,1,2025-03-11_13h00.29.738,comp,2024.2.4,52.53676304806377,2025-03-11 13h00.40.408342 -0400,
85,85,0,critical,hwd,35.0,1.0,lower,133.0,57.0,57.0,133.0,70.0,70.0,1,2.223102331161499,None,,,,,0,0,0,0,0,85,85,96,349.6859931945801,,,,,,,,,,,,,,,,,,,,,,,,,,,,,,,,,,,,,,,,,,,,,,,,,,,,,,,,,,,,,,,,,,,,,,,,,,,,,,,,,133.0,57.0,57.0,133.0,70.0,70.0,1.0,1.3,289,-264,480,-261,678,-288,349.66730546951294,349.6673822402954,349.6703214645386,349.6859931945801,349.82799196243286,349.82799196243286,349.82799196243286,349.82799196243286,349.82799196243286,349.82799196243286,349.82799196243286,351.9114999771118,1,2.223102331161499,None,,,,,,,,,,,,,,,,,,230,1,2025-03-11_13h00.29.738,comp,2024.2.4,52.53676304806377,2025-03-11 13h00.40.408342 -0400,
86,86,0,filler_random,None,None,None,None,None,None,None,None,None,None,2,1.140608787536621,None,,,,,0,0,0,0,0,86,86,161,351.92811250686646,,,,,,,,,,,,,,,,,,,,,,,,,,,,,,,,,,,,,,,,,,,,,,,,,,,,,,,,,,,,,,,,,,,,,,,,,,,,,,,,,105.62124344102634,131.87340507115366,185.41595745057467,164.68646362988522,181.8271848990989,155.18994105520278,3.0,3.2,-244,-268,0,12,256,278,351.9131669998169,351.9132401943207,351.91654419898987,351.92811250686646,352.07630705833435,352.07630705833435,352.07630705833435,352.07630705833435,352.07630705833435,352.07630705833435,352.07630705833435,353.0825734138489,2,1.140608787536621,None,,,,,,,,,,,,,,,,,,230,1,2025-03-11_13h00.29.738,comp,2024.2.4,52.53676304806377,2025-03-11 13h00.40.408342 -0400,
87,87,0,critical,dhw,35.0,2.1,upper,127.0,127.0,200.0,125.0,125.0,200.0,2,1.094656229019165,None,,,,,0,0,0,0,0,87,87,25,353.10244727134705,,,,,,,,,,,,,,,,,,,,,,,,,,,,,,,,,,,,,,,,,,,,,,,,,,,,,,,,,,,,,,,,,,,,,,,,,,,,,,,,,127.0,127.0,200.0,125.0,125.0,200.0,2.1,2.11,-222,278,0,285,258,-285,353.0841941833496,353.08426880836487,353.0876684188843,353.10244727134705,353.2416253089905,353.2416253089905,353.2416253089905,353.2416253089905,353.2416253089905,353.2416253089905,353.2416253089905,354.2024190425873,2,1.094656229019165,None,,,,,,,,,,,,,,,,,,230,1,2025-03-11_13h00.29.738,comp,2024.2.4,52.53676304806377,2025-03-11 13h00.40.408342 -0400,
88,88,0,filler_square,None,None,None,None,None,None,None,None,None,None,1,0.9548854827880859,None,,,,,0,0,0,0,0,88,88,177,354.21843338012695,,,,,,,,,,,,,,,,,,,,,,,,,,,,,,,,,,,,,,,,,,,,,,,,,,,,,,,,,,,,,,,,,,,,,,,,,,,,,,,,,191.11118970843037,191.11118970843037,173.1787943167921,102.24053068978694,92.14949764345789,116.27361989802174,4.0,4.1,-243,-282,0,7,205,-253,354.2043011188507,354.20437955856323,354.2076244354248,354.21843338012695,354.36535692214966,354.36535692214966,354.36535692214966,354.36535692214966,354.36535692214966,354.36535692214966,354.36535692214966,355.1775004863739,1,0.9548854827880859,None,,,,,,,,,,,,,,,,,,230,1,2025-03-11_13h00.29.738,comp,2024.2.4,52.53676304806377,2025-03-11 13h00.40.408342 -0400,
89,89,0,filler_random,None,None,None,None,None,None,None,None,None,None,2,1.0147135257720947,None,,,,,0,0,0,0,0,89,89,154,355.1980519294739,,,,,,,,,,,,,,,,,,,,,,,,,,,,,,,,,,,,,,,,,,,,,,,,,,,,,,,,,,,,,,,,,,,,,,,,,,,,,,,,,67.184140285851,141.71096034630216,148.10521246581436,165.98637822712482,110.47410696493543,73.42812592313562,2.1,2.12,-250,-250,0,-255,216,250,355.1792674064636,355.1793932914734,355.18268871307373,355.1980519294739,355.34544229507446,355.34544229507446,355.34544229507446,355.34544229507446,355.34544229507446,355.34544229507446,355.34544229507446,356.2164363861084,2,1.0147135257720947,None,,,,,,,,,,,,,,,,,,230,1,2025-03-11_13h00.29.738,comp,2024.2.4,52.53676304806377,2025-03-11 13h00.40.408342 -0400,
90,90,0,filler_random,None,None,None,None,None,None,None,None,None,None,3,2.548380136489868,None,,,,,0,0,0,0,0,90,90,149,356.2325699329376,,,,,,,,,,,,,,,,,,,,,,,,,,,,,,,,,,,,,,,,,,,,,,,,,,,,,,,,,,,,,,,,,,,,,,,,,,,,,,,,,157.73958786388823,99.4612330800001,89.69470065696618,78.33622913410991,108.85473647491122,137.99857362910717,2.1,2.11,-185,276,0,254,204,-283,356.21836376190186,356.2185115814209,356.2218780517578,356.2325699329376,356.38001465797424,356.38001465797424,356.38001465797424,356.38001465797424,356.38001465797424,356.38001465797424,356.38001465797424,358.7994248867035,3,2.548380136489868,None,,,,,,,,,,,,,,,,,,230,1,2025-03-11_13h00.29.738,comp,2024.2.4,52.53676304806377,2025-03-11 13h00.40.408342 -0400,
91,91,0,critical,hwd,20.0,2.1,lower,133.0,57.0,57.0,133.0,78.0,78.0,2,2.2422170639038086,None,,,,,0,0,0,0,0,91,91,42,358.8186240196228,,,,,,,,,,,,,,,,,,,,,,,,,,,,,,,,,,,,,,,,,,,,,,,,,,,,,,,,,,,,,,,,,,,,,,,,,,,,,,,,,133.0,57.0,57.0,133.0,78.0,78.0,2.1,2.12,-191,-280,0,-264,202,258,358.8010239601135,358.80115246772766,358.80462551116943,358.8186240196228,358.96431827545166,358.96431827545166,358.96431827545166,358.96431827545166,358.96431827545166,358.96431827545166,358.96431827545166,361.0717649459839,2,2.2422170639038086,None,,,,,,,,,,,,,,,,,,230,1,2025-03-11_13h00.29.738,comp,2024.2.4,52.53676304806377,2025-03-11 13h00.40.408342 -0400,
92,92,0,filler_random,None,None,None,None,None,None,None,None,None,None,3,0.8537070751190186,None,,,,,0,0,0,0,0,92,92,146,361.08714389801025,,,,,,,,,,,,,,,,,,,,,,,,,,,,,,,,,,,,,,,,,,,,,,,,,,,,,,,,,,,,,,,,,,,,,,,,,,,,,,,,,57.073868865189596,171.71380741269857,174.96272836263827,72.69588058417538,175.74279337508943,178.86664200819703,3.0,3.2,-218,-286,0,-19,222,263,361.07335901260376,361.07343196868896,361.07635831832886,361.08714389801025,361.23291850090027,361.23291850090027,361.23291850090027,361.23291850090027,361.23291850090027,361.23291850090027,361.23291850090027,361.9496343135834,3,0.8537070751190186,None,,,,,,,,,,,,,,,,,,230,1,2025-03-11_13h00.29.738,comp,2024.2.4,52.53676304806377,2025-03-11 13h00.40.408342 -0400,
93,93,0,critical,whd,20.0,2.1,lower,57.0,133.0,133.0,57.0,78.0,78.0,2,2.0390491485595703,None,,,,,0,0,0,0,0,93,93,38,361.9665672779083,,,,,,,,,,,,,,,,,,,,,,,,,,,,,,,,,,,,,,,,,,,,,,,,,,,,,,,,,,,,,,,,,,,,,,,,,,,,,,,,,57.0,133.0,133.0,57.0,78.0,78.0,2.1,2.12,-191,-261,0,-268,164,268,361.9512457847595,361.9513211250305,361.95521664619446,361.9665672779083,362.11658930778503,362.11658930778503,362.11658930778503,362.11658930778503,362.11658930778503,362.11658930778503,362.11658930778503,364.0151150226593,2,2.0390491485595703,None,,,,,,,,,,,,,,,,,,230,1,2025-03-11_13h00.29.738,comp,2024.2.4,52.53676304806377,2025-03-11 13h00.40.408342 -0400,
94,94,0,critical,hwd,35.0,2.1,lower,133.0,57.0,57.0,133.0,70.0,70.0,1,2.093818187713623,None,,,,,0,0,0,0,0,94,94,16,364.0310957431793,,,,,,,,,,,,,,,,,,,,,,,,,,,,,,,,,,,,,,,,,,,,,,,,,,,,,,,,,,,,,,,,,,,,,,,,,,,,,,,,,133.0,57.0,57.0,133.0,70.0,70.0,2.1,2.11,-191,284,0,262,198,-285,364.0166726112366,364.01674818992615,364.020268201828,364.0310957431793,364.1834034919739,364.1834034919739,364.1834034919739,364.1834034919739,364.1834034919739,364.1834034919739,364.1834034919739,366.1353859901428,1,2.093818187713623,None,,,,,,,,,,,,,,,,,,230,1,2025-03-11_13h00.29.738,comp,2024.2.4,52.53676304806377,2025-03-11 13h00.40.408342 -0400,
95,95,0,filler_random,None,None,None,None,None,None,None,None,None,None,1,1.616617202758789,None,,,,,0,0,0,0,0,95,95,156,366.1562514305115,,,,,,,,,,,,,,,,,,,,,,,,,,,,,,,,,,,,,,,,,,,,,,,,,,,,,,,,,,,,,,,,,,,,,,,,,,,,,,,,,122.19817138904386,197.10651102549892,75.78405800632049,150.4688144602095,112.9626753711427,162.75574685581194,1.0,1.2,-270,17,0,13,253,15,366.13720178604126,366.13733077049255,366.1406843662262,366.1562514305115,366.2990529537201,366.2990529537201,366.2990529537201,366.2990529537201,366.2990529537201,366.2990529537201,366.2990529537201,367.7909457683563,1,1.616617202758789,None,,,,,,,,,,,,,,,,,,230,1,2025-03-11_13h00.29.738,comp,2024.2.4,52.53676304806377,2025-03-11 13h00.40.408342 -0400,
96,96,0,filler_square,None,None,None,None,None,None,None,None,None,None,2,1.019385576248169,None,,,,,0,0,0,0,0,96,96,205,367.8094093799591,,,,,,,,,,,,,,,,,,,,,,,,,,,,,,,,,,,,,,,,,,,,,,,,,,,,,,,,,,,,,,,,,,,,,,,,,,,,,,,,,73.02933005399865,163.7119924349771,187.1922678028665,187.1922678028665,183.26703693322736,171.24668777480878,2.1,2.12,-271,-258,0,-280,275,257,367.7926666736603,367.79274225234985,367.7956931591034,367.8094093799591,367.9492144584656,367.9492144584656,367.9492144584656,367.9492144584656,367.9492144584656,367.9492144584656,367.9492144584656,368.832640171051,2,1.019385576248169,None,,,,,,,,,,,,,,,,,,230,1,2025-03-11_13h00.29.738,comp,2024.2.4,52.53676304806377,2025-03-11 13h00.40.408342 -0400,
97,97,0,critical,whd,35.0,4.0,upper,125.0,200.0,200.0,125.0,127.0,127.0,2,2.2046656608581543,None,,,,,0,0,0,0,0,97,97,89,368.84825921058655,,,,,,,,,,,,,,,,,,,,,,,,,,,,,,,,,,,,,,,,,,,,,,,,,,,,,,,,,,,,,,,,,,,,,,,,,,,,,,,,,125.0,200.0,200.0,125.0,127.0,127.0,4.0,4.1,-258,-253,0,-15,222,-252,368.8341338634491,368.83420968055725,368.83764600753784,368.84825921058655,368.99797916412354,368.99797916412354,368.99797916412354,368.99797916412354,368.99797916412354,368.99797916412354,368.99797916412354,371.0572476387024,2,2.2046656608581543,None,,,,,,,,,,,,,,,,,,230,1,2025-03-11_13h00.29.738,comp,2024.2.4,52.53676304806377,2025-03-11 13h00.40.408342 -0400,
98,98,0,critical,whd,20.0,1.0,lower,57.0,133.0,133.0,57.0,78.0,78.0,1,3.3065102100372314,None,,,,,0,0,0,0,0,98,98,90,371.07492685317993,,,,,,,,,,,,,,,,,,,,,,,,,,,,,,,,,,,,,,,,,,,,,,,,,,,,,,,,,,,,,,,,,,,,,,,,,,,,,,,,,57.0,133.0,133.0,57.0,78.0,78.0,1.0,1.3,289,-263,480,-280,644,-255,371.0587537288666,371.0588278770447,371.06181931495667,371.07492685317993,371.2176730632782,371.2176730632782,371.2176730632782,371.2176730632782,371.2176730632782,371.2176730632782,371.2176730632782,374.3857538700104,1,3.3065102100372314,None,,,,,,,,,,,,,,,,,,230,1,2025-03-11_13h00.29.738,comp,2024.2.4,52.53676304806377,2025-03-11 13h00.40.408342 -0400,
99,99,0,filler_random,None,None,None,None,None,None,None,None,None,None,2,3.0182385444641113,None,,,,,0,0,0,0,0,99,99,153,374.40257358551025,,,,,,,,,,,,,,,,,,,,,,,,,,,,,,,,,,,,,,,,,,,,,,,,,,,,,,,,,,,,,,,,,,,,,,,,,,,,,,,,,151.93469479483696,81.28260540304142,184.18980913460112,144.40050392315902,109.96105753336055,178.01297625477505,3.0,3.1,-209,285,0,5,257,-278,374.3877663612366,374.38789677619934,374.3918037414551,374.40257358551025,374.54239416122437,374.54239416122437,374.54239416122437,374.54239416122437,374.54239416122437,374.54239416122437,374.54239416122437,377.44040179252625,2,3.0182385444641113,None,,,,,,,,,,,,,,,,,,230,1,2025-03-11_13h00.29.738,comp,2024.2.4,52.53676304806377,2025-03-11 13h00.40.408342 -0400,
100,100,0,filler_square,None,None,None,None,None,None,None,None,None,None,2,2.4044864177703857,None,,,,,0,0,0,0,0,100,100,194,377.4589624404907,,,,,,,,,,,,,,,,,,,,,,,,,,,,,,,,,,,,,,,,,,,,,,,,,,,,,,,,,,,,,,,,,,,,,,,,,,,,,,,,,76.19570967266803,75.32527210719768,81.1854865960739,81.1854865960739,68.28516200206705,72.51137583588269,3.0,3.2,-174,-250,0,18,173,261,377.4426980018616,377.44277477264404,377.44621300697327,377.4589624404907,377.604430437088,377.604430437088,377.604430437088,377.604430437088,377.604430437088,377.604430437088,377.604430437088,379.8685255050659,2,2.4044864177703857,None,,,,,,,,,,,,,,,,,,230,1,2025-03-11_13h00.29.738,comp,2024.2.4,52.53676304806377,2025-03-11 13h00.40.408342 -0400,
101,101,0,critical,hwd,35.0,2.1,lower,133.0,57.0,57.0,133.0,70.0,70.0,1,1.8622405529022217,None,,,,,0,0,0,0,0,101,101,40,379.88667392730713,,,,,,,,,,,,,,,,,,,,,,,,,,,,,,,,,,,,,,,,,,,,,,,,,,,,,,,,,,,,,,,,,,,,,,,,,,,,,,,,,133.0,57.0,57.0,133.0,70.0,70.0,2.1,2.12,-191,-285,0,-289,198,284,379.8700342178345,379.8701491355896,379.8733208179474,379.88667392730713,380.03851556777954,380.03851556777954,380.03851556777954,380.03851556777954,380.03851556777954,380.03851556777954,380.03851556777954,381.7513527870178,1,1.8622405529022217,None,,,,,,,,,,,,,,,,,,230,1,2025-03-11_13h00.29.738,comp,2024.2.4,52.53676304806377,2025-03-11 13h00.40.408342 -0400,
102,102,0,catch,None,None,None,None,None,None,None,None,None,None,2,0.8438155651092529,None,,,,,0,0,0,0,0,102,102,124,381.76937460899353,,,,,,,,,,,,,,,,,,,,,,,,,,,,,,,,,,,,,,,,,,,,,,,,,,,,,,,,,,,,,,,,,,,,,,,,,,,,,,,,,101,89,155,170,125,65,2.2,2.22,-226,254,0,-252,214,-281,381.75332713127136,381.7534034252167,381.756356716156,381.76937460899353,381.92017579078674,381.92017579078674,381.92017579078674,381.92017579078674,381.92017579078674,381.92017579078674,381.92017579078674,382.621515750885,2,0.8438155651092529,None,,,,,,,,,,,,,,,,,,230,1,2025-03-11_13h00.29.738,comp,2024.2.4,52.53676304806377,2025-03-11 13h00.40.408342 -0400,
103,103,0,critical,dwh,20.0,4.0,lower,78.0,78.0,57.0,133.0,133.0,57.0,2,5.591628074645996,None,,,,,0,0,0,0,0,103,103,70,382.63781094551086,,,,,,,,,,,,,,,,,,,,,,,,,,,,,,,,,,,,,,,,,,,,,,,,,,,,,,,,,,,,,,,,,,,,,,,,,,,,,,,,,78.0,78.0,57.0,133.0,133.0,57.0,4.0,4.1,-202,-263,0,11,191,-289,382.62302446365356,382.62312722206116,382.62711453437805,382.63781094551086,382.7851700782776,382.7851700782776,382.7851700782776,382.7851700782776,382.7851700782776,382.7851700782776,382.7851700782776,388.23960041999817,2,5.591628074645996,None,,,,,,,,,,,,,,,,,,230,1,2025-03-11_13h00.29.738,comp,2024.2.4,52.53676304806377,2025-03-11 13h00.40.408342 -0400,
104,104,0,critical,whd,20.0,4.0,lower,57.0,133.0,133.0,57.0,78.0,78.0,1,2.8773930072784424,None,,,,,0,0,0,0,0,104,104,94,388.25594449043274,,,,,,,,,,,,,,,,,,,,,,,,,,,,,,,,,,,,,,,,,,,,,,,,,,,,,,,,,,,,,,,,,,,,,,,,,,,,,,,,,57.0,133.0,133.0,57.0,78.0,78.0,4.0,4.1,-191,-273,0,-3,164,-287,388.24112582206726,388.24120235443115,388.2446744441986,388.25594449043274,388.4077515602112,388.4077515602112,388.4077515602112,388.4077515602112,388.4077515602112,388.4077515602112,388.4077515602112,391.1397314071655,1,2.8773930072784424,None,,,,,,,,,,,,,,,,,,230,1,2025-03-11_13h00.29.738,comp,2024.2.4,52.53676304806377,2025-03-11 13h00.40.408342 -0400,
105,105,0,filler_random,None,None,None,None,None,None,None,None,None,None,3,1.4650683403015137,None,,,,,0,0,0,0,0,105,105,144,391.1559958457947,,,,,,,,,,,,,,,,,,,,,,,,,,,,,,,,,,,,,,,,,,,,,,,,,,,,,,,,,,,,,,,,,,,,,,,,,,,,,,,,,146.2079776377704,163.50212659189413,181.7736033109177,81.82988211330556,191.9450868858274,191.82968467737425,2.1,2.11,-219,262,0,288,233,-277,391.1414968967438,391.1416199207306,391.1451189517975,391.1559958457947,391.3051335811615,391.3051335811615,391.3051335811615,391.3051335811615,391.3051335811615,391.3051335811615,391.3051335811615,392.64213848114014,3,1.4650683403015137,None,,,,,,,,,,,,,,,,,,230,1,2025-03-11_13h00.29.738,comp,2024.2.4,52.53676304806377,2025-03-11 13h00.40.408342 -0400,
106,106,0,filler_square,None,None,None,None,None,None,None,None,None,None,3,1.6577324867248535,None,,,,,0,0,0,0,0,106,106,200,392.6603682041168,,,,,,,,,,,,,,,,,,,,,,,,,,,,,,,,,,,,,,,,,,,,,,,,,,,,,,,,,,,,,,,,,,,,,,,,,,,,,,,,,117.76018231464917,126.7805570158807,111.47169537514651,131.37505563890642,150.30313546657618,150.30313546657618,2.1,2.12,-225,-288,0,-262,237,254,392.64420199394226,392.64427733421326,392.647625207901,392.6603682041168,392.8069577217102,392.8069577217102,392.8069577217102,392.8069577217102,392.8069577217102,392.8069577217102,392.8069577217102,394.3224256038666,3,1.6577324867248535,None,,,,,,,,,,,,,,,,,,230,1,2025-03-11_13h00.29.738,comp,2024.2.4,52.53676304806377,2025-03-11 13h00.40.408342 -0400,
107,107,0,critical,dwh,35.0,2.1,upper,127.0,127.0,125.0,200.0,200.0,125.0,2,2.211357355117798,None,,,,,0,0,0,0,0,107,107,29,394.3381736278534,,,,,,,,,,,,,,,,,,,,,,,,,,,,,,,,,,,,,,,,,,,,,,,,,,,,,,,,,,,,,,,,,,,,,,,,,,,,,,,,,127.0,127.0,125.0,200.0,200.0,125.0,2.1,2.12,-260,-257,0,-253,258,273,394.32390999794006,394.32398319244385,394.32690596580505,394.3381736278534,394.4877984523773,394.4877984523773,394.4877984523773,394.4877984523773,394.4877984523773,394.4877984523773,394.4877984523773,396.55933690071106,2,2.211357355117798,None,,,,,,,,,,,,,,,,,,230,1,2025-03-11_13h00.29.738,comp,2024.2.4,52.53676304806377,2025-03-11 13h00.40.408342 -0400,
108,108,0,filler_square,None,None,None,None,None,None,None,None,None,None,2,1.0215153694152832,None,,,,,0,0,0,0,0,108,108,189,396.577614068985,,,,,,,,,,,,,,,,,,,,,,,,,,,,,,,,,,,,,,,,,,,,,,,,,,,,,,,,,,,,,,,,,,,,,,,,,,,,,,,,,65.12735209105311,82.91878804617775,146.4985831340062,146.4985831340062,92.06670697241432,75.22186426976404,3.0,3.2,-211,-251,0,-17,207,273,396.56121277809143,396.56128764152527,396.56456565856934,396.577614068985,396.72332096099854,396.72332096099854,396.72332096099854,396.72332096099854,396.72332096099854,396.72332096099854,396.72332096099854,397.605676651001,2,1.0215153694152832,None,,,,,,,,,,,,,,,,,,230,1,2025-03-11_13h00.29.738,comp,2024.2.4,52.53676304806377,2025-03-11 13h00.40.408342 -0400,
109,109,0,filler_random,None,None,None,None,None,None,None,None,None,None,3,1.7269401550292969,None,,,,,0,0,0,0,0,109,109,145,397.622709274292,,,,,,,,,,,,,,,,,,,,,,,,,,,,,,,,,,,,,,,,,,,,,,,,,,,,,,,,,,,,,,,,,,,,,,,,,,,,,,,,,135.52740351628523,112.8109682089327,109.35492193405628,130.78683879099287,150.03046179423066,137.33687390593502,1.0,1.2,-218,10,0,15,230,8,397.6073479652405,397.60742259025574,397.61039757728577,397.622709274292,397.7595500946045,397.7595500946045,397.7595500946045,397.7595500946045,397.7595500946045,397.7595500946045,397.7595500946045,399.35918951034546,3,1.7269401550292969,None,,,,,,,,,,,,,,,,,,230,1,2025-03-11_13h00.29.738,comp,2024.2.4,52.53676304806377,2025-03-11 13h00.40.408342 -0400,
110,110,0,filler_random,None,None,None,None,None,None,None,None,None,None,3,1.7175180912017822,None,,,,,0,0,0,0,0,110,110,137,399.375417470932,,,,,,,,,,,,,,,,,,,,,,,,,,,,,,,,,,,,,,,,,,,,,,,,,,,,,,,,,,,,,,,,,,,,,,,,,,,,,,,,,71.57300113659302,88.42206298104192,163.57847621146783,79.4659797936203,159.15742531565772,128.36268805131,2.1,2.11,-180,284,0,258,200,-250,399.36088609695435,399.3609607219696,399.36460852622986,399.375417470932,399.5238845348358,399.5238845348358,399.5238845348358,399.5238845348358,399.5238845348358,399.5238845348358,399.5238845348358,401.10799908638,3,1.7175180912017822,None,,,,,,,,,,,,,,,,,,230,1,2025-03-11_13h00.29.738,comp,2024.2.4,52.53676304806377,2025-03-11 13h00.40.408342 -0400,
111,111,0,critical,whd,20.0,2.1,lower,57.0,133.0,133.0,57.0,78.0,78.0,3,2.2729837894439697,None,,,,,0,0,0,0,0,111,111,14,401.1238822937012,,,,,,,,,,,,,,,,,,,,,,,,,,,,,,,,,,,,,,,,,,,,,,,,,,,,,,,,,,,,,,,,,,,,,,,,,,,,,,,,,57.0,133.0,133.0,57.0,78.0,78.0,2.1,2.11,-191,262,0,282,164,-259,401.1095726490021,401.10964608192444,401.1126742362976,401.1238822937012,401.27308440208435,401.27308440208435,401.27308440208435,401.27308440208435,401.27308440208435,401.27308440208435,401.27308440208435,403.4138352870941,3,2.2729837894439697,None,,,,,,,,,,,,,,,,,,230,1,2025-03-11_13h00.29.738,comp,2024.2.4,52.53676304806377,2025-03-11 13h00.40.408342 -0400,
112,112,0,catch,None,None,None,None,None,None,None,None,None,None,1,0.9329352378845215,None,,,,,0,0,0,0,0,112,112,125,403.4335472583771,,,,,,,,,,,,,,,,,,,,,,,,,,,,,,,,,,,,,,,,,,,,,,,,,,,,,,,,,,,,,,,,,,,,,,,,,,,,,,,,,159,166,98,92,118,72,2.2,2.22,-225,265,0,-265,178,-258,403.41575932502747,403.4158365726471,403.4189078807831,403.4335472583771,403.58054184913635,403.58054184913635,403.58054184913635,403.58054184913635,403.58054184913635,403.58054184913635,403.58054184913635,404.3818860054016,1,0.9329352378845215,None,,,,,,,,,,,,,,,,,,230,1,2025-03-11_13h00.29.738,comp,2024.2.4,52.53676304806377,2025-03-11 13h00.40.408342 -0400,
113,113,0,catch,None,None,None,None,None,None,None,None,None,None,2,0.8307859897613525,None,,,,,0,0,0,0,0,113,113,121,404.3981430530548,,,,,,,,,,,,,,,,,,,,,,,,,,,,,,,,,,,,,,,,,,,,,,,,,,,,,,,,,,,,,,,,,,,,,,,,,,,,,,,,,67,123,180,145,88,102,1.0,1.1,-710,265,-480,253,-260,255,404.38386726379395,404.3839497566223,404.3869264125824,404.3981430530548,404.5417778491974,404.5417778491974,404.5417778491974,404.5417778491974,404.5417778491974,404.5417778491974,404.5417778491974,405.2381274700165,2,0.8307859897613525,None,,,,,,,,,,,,,,,,,,230,1,2025-03-11_13h00.29.738,comp,2024.2.4,52.53676304806377,2025-03-11 13h00.40.408342 -0400,
114,114,0,critical,hwd,35.0,2.1,upper,200.0,125.0,125.0,200.0,127.0,127.0,1,1.4699325561523438,None,,,,,0,0,0,0,0,114,114,41,405.2552115917206,,,,,,,,,,,,,,,,,,,,,,,,,,,,,,,,,,,,,,,,,,,,,,,,,,,,,,,,,,,,,,,,,,,,,,,,,,,,,,,,,200.0,125.0,125.0,200.0,127.0,127.0,2.1,2.12,-258,-289,0,-267,260,272,405.2396378517151,405.2397129535675,405.2430262565613,405.2552115917206,405.39389181137085,405.39389181137085,405.39389181137085,405.39389181137085,405.39389181137085,405.39389181137085,405.39389181137085,406.72736525535583,1,1.4699325561523438,None,,,,,,,,,,,,,,,,,,230,1,2025-03-11_13h00.29.738,comp,2024.2.4,52.53676304806377,2025-03-11 13h00.40.408342 -0400,
115,115,0,critical,whd,35.0,4.0,lower,57.0,133.0,133.0,57.0,70.0,70.0,3,3.1490867137908936,None,,,,,0,0,0,0,0,115,115,88,406.7437331676483,,,,,,,,,,,,,,,,,,,,,,,,,,,,,,,,,,,,,,,,,,,,,,,,,,,,,,,,,,,,,,,,,,,,,,,,,,,,,,,,,57.0,133.0,133.0,57.0,70.0,70.0,4.0,4.1,-191,-271,0,-20,160,-261,406.7288250923157,406.7288990020752,406.7320635318756,406.7437331676483,406.90135979652405,406.90135979652405,406.90135979652405,406.90135979652405,406.90135979652405,406.90135979652405,406.90135979652405,409.8956775665283,3,3.1490867137908936,None,,,,,,,,,,,,,,,,,,230,1,2025-03-11_13h00.29.738,comp,2024.2.4,52.53676304806377,2025-03-11 13h00.40.408342 -0400,
116,116,0,critical,dwh,35.0,2.1,lower,70.0,70.0,57.0,133.0,133.0,57.0,3,2.788928508758545,None,,,,,0,0,0,0,0,116,116,28,409.9121572971344,,,,,,,,,,,,,,,,,,,,,,,,,,,,,,,,,,,,,,,,,,,,,,,,,,,,,,,,,,,,,,,,,,,,,,,,,,,,,,,,,70.0,70.0,57.0,133.0,133.0,57.0,2.1,2.11,-198,285,0,252,191,-254,409.89718222618103,409.89727687835693,409.90130066871643,409.9121572971344,410.06388568878174,410.06388568878174,410.06388568878174,410.06388568878174,410.06388568878174,410.06388568878174,410.06388568878174,412.71024656295776,3,2.788928508758545,None,,,,,,,,,,,,,,,,,,230,1,2025-03-11_13h00.29.738,comp,2024.2.4,52.53676304806377,2025-03-11 13h00.40.408342 -0400,
117,117,0,filler_square,None,None,None,None,None,None,None,None,None,None,2,1.2378196716308594,None,,,,,0,0,0,0,0,117,117,187,412.7270324230194,,,,,,,,,,,,,,,,,,,,,,,,,,,,,,,,,,,,,,,,,,,,,,,,,,,,,,,,,,,,,,,,,,,,,,,,,,,,,,,,,89.8686501522146,110.69427697242514,114.12997350149442,114.12997350149442,65.3363534973819,73.4895230105254,4.0,4.2,-208,-9,0,-265,190,-18,412.71198201179504,412.7120568752289,412.7149884700775,412.7270324230194,412.8632369041443,412.8632369041443,412.8632369041443,412.8632369041443,412.8632369041443,412.8632369041443,412.8632369041443,413.98080587387085,2,1.2378196716308594,None,,,,,,,,,,,,,,,,,,230,1,2025-03-11_13h00.29.738,comp,2024.2.4,52.53676304806377,2025-03-11 13h00.40.408342 -0400,
118,118,0,filler_random,None,None,None,None,None,None,None,None,None,None,2,3.096813440322876,None,,,,,0,0,0,0,0,118,118,143,413.99749422073364,,,,,,,,,,,,,,,,,,,,,,,,,,,,,,,,,,,,,,,,,,,,,,,,,,,,,,,,,,,,,,,,,,,,,,,,,,,,,,,,,172.94779612315813,91.98669527817137,193.68329054533942,78.50720511145127,167.29251208484135,89.00745833045305,2.1,2.12,-181,-286,0,-276,180,260,413.9825265407562,413.98260140419006,413.9866394996643,413.99749422073364,414.1470503807068,414.1470503807068,414.1470503807068,414.1470503807068,414.1470503807068,414.1470503807068,414.1470503807068,417.1015040874481,2,3.096813440322876,None,,,,,,,,,,,,,,,,,,230,1,2025-03-11_13h00.29.738,comp,2024.2.4,52.53676304806377,2025-03-11 13h00.40.408342 -0400,
119,119,0,filler_square,None,None,None,None,None,None,None,None,None,None,2,1.6882755756378174,None,,,,,0,0,0,0,0,119,119,196,417.11739230155945,,,,,,,,,,,,,,,,,,,,,,,,,,,,,,,,,,,,,,,,,,,,,,,,,,,,,,,,,,,,,,,,,,,,,,,,,,,,,,,,,66.04611447258574,68.99023528579326,90.4007985394745,90.4007985394745,64.96983298638503,61.09750761679443,4.0,4.1,-176,-281,0,5,172,-253,417.1033854484558,417.10346150398254,417.10669136047363,417.11739230155945,417.26327633857727,417.26327633857727,417.26327633857727,417.26327633857727,417.26327633857727,417.26327633857727,417.26327633857727,418.8162031173706,2,1.6882755756378174,None,,,,,,,,,,,,,,,,,,230,1,2025-03-11_13h00.29.738,comp,2024.2.4,52.53676304806377,2025-03-11 13h00.40.408342 -0400,
120,120,0,critical,dwh,20.0,4.0,upper,141.0,141.0,125.0,200.0,200.0,125.0,3,1.0690314769744873,None,,,,,0,0,0,0,0,120,120,71,418.8320035934448,,,,,,,,,,,,,,,,,,,,,,,,,,,,,,,,,,,,,,,,,,,,,,,,,,,,,,,,,,,,,,,,,,,,,,,,,,,,,,,,,141.0,141.0,125.0,200.0,200.0,125.0,4.0,4.2,-266,-19,0,-271,258,2,418.8177342414856,418.8178129196167,418.821257352829,418.8320035934448,418.9695420265198,418.9695420265198,418.9695420265198,418.9695420265198,418.9695420265198,418.9695420265198,418.9695420265198,419.91649293899536,3,1.0690314769744873,None,,,,,,,,,,,,,,,,,,230,1,2025-03-11_13h00.29.738,comp,2024.2.4,52.53676304806377,2025-03-11 13h00.40.408342 -0400,
121,121,0,critical,dhw,35.0,3.0,lower,70.0,70.0,133.0,57.0,57.0,133.0,2,1.1691229343414307,None,,,,,0,0,0,0,0,121,121,50,419.93172335624695,,,,,,,,,,,,,,,,,,,,,,,,,,,,,,,,,,,,,,,,,,,,,,,,,,,,,,,,,,,,,,,,,,,,,,,,,,,,,,,,,70.0,70.0,133.0,57.0,57.0,133.0,3.0,3.2,-160,-250,0,-16,191,285,419.9179549217224,419.91802978515625,419.92129921913147,419.93172335624695,420.08417987823486,420.08417987823486,420.08417987823486,420.08417987823486,420.08417987823486,420.08417987823486,420.08417987823486,421.1152186393738,2,1.1691229343414307,None,,,,,,,,,,,,,,,,,,230,1,2025-03-11_13h00.29.738,comp,2024.2.4,52.53676304806377,2025-03-11 13h00.40.408342 -0400,
122,122,0,critical,dhw,20.0,2.1,lower,78.0,78.0,133.0,57.0,57.0,133.0,2,0.89076828956604,None,,,,,0,0,0,0,0,122,122,2,421.1316797733307,,,,,,,,,,,,,,,,,,,,,,,,,,,,,,,,,,,,,,,,,,,,,,,,,,,,,,,,,,,,,,,,,,,,,,,,,,,,,,,,,78.0,78.0,133.0,57.0,57.0,133.0,2.1,2.12,-164,-279,0,-279,191,271,421.1168375015259,421.11690950393677,421.1202778816223,421.1316797733307,421.2827126979828,421.2827126979828,421.2827126979828,421.2827126979828,421.2827126979828,421.2827126979828,421.2827126979828,422.03313183784485,2,0.89076828956604,None,,,,,,,,,,,,,,,,,,230,1,2025-03-11_13h00.29.738,comp,2024.2.4,52.53676304806377,2025-03-11 13h00.40.408342 -0400,
123,123,0,critical,dhw,20.0,4.0,upper,141.0,141.0,200.0,125.0,125.0,200.0,2,1.2833712100982666,None,,,,,0,0,0,0,0,123,123,59,422.0495135784149,,,,,,,,,,,,,,,,,,,,,,,,,,,,,,,,,,,,,,,,,,,,,,,,,,,,,,,,,,,,,,,,,,,,,,,,,,,,,,,,,141.0,141.0,200.0,125.0,125.0,200.0,4.0,4.1,-229,-253,0,18,258,-257,422.03463411331177,422.0347092151642,422.03879380226135,422.0495135784149,422.20326113700867,422.20326113700867,422.20326113700867,422.20326113700867,422.20326113700867,422.20326113700867,422.20326113700867,423.3534269332886,2,1.2833712100982666,None,,,,,,,,,,,,,,,,,,230,1,2025-03-11_13h00.29.738,comp,2024.2.4,52.53676304806377,2025-03-11 13h00.40.408342 -0400,
124,124,0,critical,wdh,20.0,2.1,upper,125.0,200.0,141.0,141.0,200.0,125.0,3,4.897538185119629,None,,,,,0,0,0,0,0,124,124,35,423.371675491333,,,,,,,,,,,,,,,,,,,,,,,,,,,,,,,,,,,,,,,,,,,,,,,,,,,,,,,,,,,,,,,,,,,,,,,,,,,,,,,,,125.0,200.0,141.0,141.0,200.0,125.0,2.1,2.11,-266,278,0,269,229,-290,423.3550262451172,423.3552448749542,423.3583114147186,423.371675491333,423.5166234970093,423.5166234970093,423.5166234970093,423.5166234970093,423.5166234970093,423.5166234970093,423.5166234970093,428.27940583229065,3,4.897538185119629,None,,,,,,,,,,,,,,,,,,230,1,2025-03-11_13h00.29.738,comp,2024.2.4,52.53676304806377,2025-03-11 13h00.40.408342 -0400,
125,125,0,filler_random,None,None,None,None,None,None,None,None,None,None,3,3.236353874206543,None,,,,,0,0,0,0,0,125,125,151,428.29733443260193,,,,,,,,,,,,,,,,,,,,,,,,,,,,,,,,,,,,,,,,,,,,,,,,,,,,,,,,,,,,,,,,,,,,,,,,,,,,,,,,,95.04489609633032,69.67438796459652,65.96798490463124,108.49253125057083,103.70278746587326,113.53929547816844,2.2,2.21,-185,-273,0,259,207,268,428.28115725517273,428.2812373638153,428.28423857688904,428.29733443260193,428.438036441803,428.438036441803,428.438036441803,428.438036441803,428.438036441803,428.438036441803,428.438036441803,431.5394687652588,3,3.236353874206543,None,,,,,,,,,,,,,,,,,,230,1,2025-03-11_13h00.29.738,comp,2024.2.4,52.53676304806377,2025-03-11 13h00.40.408342 -0400,
126,126,0,filler_square,None,None,None,None,None,None,None,None,None,None,1,0.9298281669616699,None,,,,,0,0,0,0,0,126,126,193,431.5556044578552,,,,,,,,,,,,,,,,,,,,,,,,,,,,,,,,,,,,,,,,,,,,,,,,,,,,,,,,,,,,,,,,,,,,,,,,,,,,,,,,,178.266657623482,178.266657623482,59.674421951707956,175.7611412530489,131.04163944070095,82.90064249808061,2.2,2.22,-273,269,0,-287,225,-265,431.54135489463806,431.54148387908936,431.54478335380554,431.5556044578552,431.7023537158966,431.7023537158966,431.7023537158966,431.7023537158966,431.7023537158966,431.7023537158966,431.7023537158966,432.4935884475708,1,0.9298281669616699,None,,,,,,,,,,,,,,,,,,230,1,2025-03-11_13h00.29.738,comp,2024.2.4,52.53676304806377,2025-03-11 13h00.40.408342 -0400,
127,127,0,catch,None,None,None,None,None,None,None,None,None,None,2,0.6935422420501709,None,,,,,0,0,0,0,0,127,127,129,432.51131653785706,,,,,,,,,,,,,,,,,,,,,,,,,,,,,,,,,,,,,,,,,,,,,,,,,,,,,,,,,,,,,,,,,,,,,,,,,,,,,,,,,129,61,158,167,72,118,4.0,4.1,-210,-266,0,-4,238,-288,432.4955005645752,432.4955770969391,432.49852657318115,432.51131653785706,432.654265165329,432.654265165329,432.654265165329,432.654265165329,432.654265165329,432.654265165329,432.654265165329,433.22079730033875,2,0.6935422420501709,None,,,,,,,,,,,,,,,,,,230,1,2025-03-11_13h00.29.738,comp,2024.2.4,52.53676304806377,2025-03-11 13h00.40.408342 -0400,
128,128,0,filler_square,None,None,None,None,None,None,None,None,None,None,3,0.9458260536193848,None,,,,,0,0,0,0,0,128,128,182,433.23538613319397,,,,,,,,,,,,,,,,,,,,,,,,,,,,,,,,,,,,,,,,,,,,,,,,,,,,,,,,,,,,,,,,,,,,,,,,,,,,,,,,,126.05502844120785,126.05502844120785,66.14154214614923,99.72846408058544,116.7510668341882,117.06181898289975,3.0,3.1,-209,278,0,-4,204,-286,433.22275280952454,433.22287774086,433.2259702682495,433.23538613319397,433.3865051269531,433.3865051269531,433.3865051269531,433.3865051269531,433.3865051269531,433.3865051269531,433.3865051269531,434.1856207847595,3,0.9458260536193848,None,,,,,,,,,,,,,,,,,,230,1,2025-03-11_13h00.29.738,comp,2024.2.4,52.53676304806377,2025-03-11 13h00.40.408342 -0400,
129,129,0,critical,hdw,35.0,1.0,upper,200.0,125.0,127.0,127.0,125.0,200.0,1,0.7757079601287842,None,,,,,0,0,0,0,0,129,129,109,434.206179857254,,,,,,,,,,,,,,,,,,,,,,,,,,,,,,,,,,,,,,,,,,,,,,,,,,,,,,,,,,,,,,,,,,,,,,,,,,,,,,,,,200.0,125.0,127.0,127.0,125.0,200.0,1.0,1.1,-702,276,-480,279,-220,271,434.1872704029083,434.1873450279236,434.1906614303589,434.206179857254,434.35338735580444,434.35338735580444,434.35338735580444,434.35338735580444,434.35338735580444,434.35338735580444,434.35338735580444,434.98696398735046,1,0.7757079601287842,None,,,,,,,,,,,,,,,,,,230,1,2025-03-11_13h00.29.738,comp,2024.2.4,52.53676304806377,2025-03-11 13h00.40.408342 -0400,
130,130,0,filler_random,None,None,None,None,None,None,None,None,None,None,2,0.7455253601074219,None,,,,,0,0,0,0,0,130,130,148,435.0037274360657,,,,,,,,,,,,,,,,,,,,,,,,,,,,,,,,,,,,,,,,,,,,,,,,,,,,,,,,,,,,,,,,,,,,,,,,,,,,,,,,,125.37810135196652,91.50591029577686,94.40810342144346,126.17863860778893,76.65923344301576,168.21391884416914,3.0,3.1,-205,284,0,2,243,-281,434.98872351646423,434.98880195617676,434.9923756122589,435.0037274360657,435.1530396938324,435.1530396938324,435.1530396938324,435.1530396938324,435.1530396938324,435.1530396938324,435.1530396938324,435.7689905166626,2,0.7455253601074219,None,,,,,,,,,,,,,,,,,,230,1,2025-03-11_13h00.29.738,comp,2024.2.4,52.53676304806377,2025-03-11 13h00.40.408342 -0400,
131,131,0,critical,wdh,35.0,2.1,lower,57.0,133.0,70.0,70.0,133.0,57.0,3,1.8117132186889648,None,,,,,0,0,0,0,0,131,131,8,435.78514194488525,,,,,,,,,,,,,,,,,,,,,,,,,,,,,,,,,,,,,,,,,,,,,,,,,,,,,,,,,,,,,,,,,,,,,,,,,,,,,,,,,57.0,133.0,70.0,70.0,133.0,57.0,2.1,2.12,-198,-274,0,-259,160,286,435.77052116394043,435.7705988883972,435.7738220691681,435.78514194488525,435.9236092567444,435.9236092567444,435.9236092567444,435.9236092567444,435.9236092567444,435.9236092567444,435.9236092567444,437.61149764060974,3,1.8117132186889648,None,,,,,,,,,,,,,,,,,,230,1,2025-03-11_13h00.29.738,comp,2024.2.4,52.53676304806377,2025-03-11 13h00.40.408342 -0400,
132,132,0,critical,hdw,35.0,3.0,upper,200.0,125.0,127.0,127.0,125.0,200.0,1,1.2238233089447021,None,,,,,0,0,0,0,0,132,132,111,437.6291275024414,,,,,,,,,,,,,,,,,,,,,,,,,,,,,,,,,,,,,,,,,,,,,,,,,,,,,,,,,,,,,,,,,,,,,,,,,,,,,,,,,200.0,125.0,127.0,127.0,125.0,200.0,3.0,3.2,-222,-267,0,-10,260,285,437.61292576789856,437.6130003929138,437.6159405708313,437.6291275024414,437.7716016769409,437.7716016769409,437.7716016769409,437.7716016769409,437.7716016769409,437.7716016769409,437.7716016769409,438.85504245758057,1,1.2238233089447021,None,,,,,,,,,,,,,,,,,,230,1,2025-03-11_13h00.29.738,comp,2024.2.4,52.53676304806377,2025-03-11 13h00.40.408342 -0400,
133,133,0,catch,None,None,None,None,None,None,None,None,None,None,2,0.9400637149810791,None,,,,,0,0,0,0,0,133,133,127,438.8740441799164,,,,,,,,,,,,,,,,,,,,,,,,,,,,,,,,,,,,,,,,,,,,,,,,,,,,,,,,,,,,,,,,,,,,,,,,,,,,,,,,,89,101,190,135,132,58,2.1,2.12,-214,-265,0,-252,192,277,438.8572700023651,438.85735058784485,438.860826253891,438.8740441799164,439.0228695869446,439.0228695869446,439.0228695869446,439.0228695869446,439.0228695869446,439.0228695869446,439.0228695869446,439.82168078422546,2,0.9400637149810791,None,,,,,,,,,,,,,,,,,,230,1,2025-03-11_13h00.29.738,comp,2024.2.4,52.53676304806377,2025-03-11 13h00.40.408342 -0400,
134,134,0,filler_random,None,None,None,None,None,None,None,None,None,None,1,1.5911099910736084,None,,,,,0,0,0,0,0,134,134,152,439.83820629119873,,,,,,,,,,,,,,,,,,,,,,,,,,,,,,,,,,,,,,,,,,,,,,,,,,,,,,,,,,,,,,,,,,,,,,,,,,,,,,,,,118.21489612739356,151.3764522938136,73.78309929140283,174.14157633907354,158.6509871980342,102.94216091135613,3.0,3.2,-259,-258,0,-13,235,284,439.82339549064636,439.8234705924988,439.82674384117126,439.83820629119873,439.9885606765747,439.9885606765747,439.9885606765747,439.9885606765747,439.9885606765747,439.9885606765747,439.9885606765747,441.4420094490051,1,1.5911099910736084,None,,,,,,,,,,,,,,,,,,230,1,2025-03-11_13h00.29.738,comp,2024.2.4,52.53676304806377,2025-03-11 13h00.40.408342 -0400,
135,135,0,filler_random,None,None,None,None,None,None,None,None,None,None,1,1.4275093078613281,None,,,,,0,0,0,0,0,135,135,162,441.45757150650024,,,,,,,,,,,,,,,,,,,,,,,,,,,,,,,,,,,,,,,,,,,,,,,,,,,,,,,,,,,,,,,,,,,,,,,,,,,,,,,,,80.37603650849726,154.6056803836837,152.2570644789193,64.8456589869479,64.08089493075079,149.83247980935363,1.0,1.1,-686,258,-480,252,-277,259,441.44369864463806,441.4437720775604,441.4468264579773,441.45757150650024,441.60650992393494,441.60650992393494,441.60650992393494,441.60650992393494,441.60650992393494,441.60650992393494,441.60650992393494,442.8905191421509,1,1.4275093078613281,None,,,,,,,,,,,,,,,,,,230,1,2025-03-11_13h00.29.738,comp,2024.2.4,52.53676304806377,2025-03-11 13h00.40.408342 -0400,
136,136,0,filler_random,None,None,None,None,None,None,None,None,None,None,2,0.9024393558502197,None,,,,,0,0,0,0,0,136,136,166,442.91124176979065,,,,,,,,,,,,,,,,,,,,,,,,,,,,,,,,,,,,,,,,,,,,,,,,,,,,,,,,,,,,,,,,,,,,,,,,,,,,,,,,,134.42024609958116,76.68626157567766,183.07275244192948,189.81434025159547,142.36762896079506,73.63921108373195,1.0,1.2,-229,-11,0,-19,228,9,442.89225125312805,442.8923842906952,442.895711183548,442.91124176979065,443.05538630485535,443.05538630485535,443.05538630485535,443.05538630485535,443.05538630485535,443.05538630485535,443.05538630485535,443.8303439617157,2,0.9024393558502197,None,,,,,,,,,,,,,,,,,,230,1,2025-03-11_13h00.29.738,comp,2024.2.4,52.53676304806377,2025-03-11 13h00.40.408342 -0400,
137,137,0,critical,hdw,35.0,3.0,lower,133.0,57.0,70.0,70.0,57.0,133.0,3,1.287710189819336,None,,,,,0,0,0,0,0,137,137,110,443.84555649757385,,,,,,,,,,,,,,,,,,,,,,,,,,,,,,,,,,,,,,,,,,,,,,,,,,,,,,,,,,,,,,,,,,,,,,,,,,,,,,,,,133.0,57.0,70.0,70.0,57.0,133.0,3.0,3.2,-160,-279,0,-15,198,290,443.83181166648865,443.83188819885254,443.8348479270935,443.84555649757385,443.9878206253052,443.9878206253052,443.9878206253052,443.9878206253052,443.9878206253052,443.9878206253052,443.9878206253052,445.14147901535034,3,1.287710189819336,None,,,,,,,,,,,,,,,,,,230,1,2025-03-11_13h00.29.738,comp,2024.2.4,52.53676304806377,2025-03-11 13h00.40.408342 -0400,
138,138,0,filler_square,None,None,None,None,None,None,None,None,None,None,1,0.8145570755004883,None,,,,,0,0,0,0,0,138,138,195,445.1582510471344,,,,,,,,,,,,,,,,,,,,,,,,,,,,,,,,,,,,,,,,,,,,,,,,,,,,,,,,,,,,,,,,,,,,,,,,,,,,,,,,,160.15111334719856,160.15111334719856,118.9295321853622,67.14861596903494,157.66307358289592,72.04557339434571,3.0,3.2,-210,-263,0,2,166,288,445.1435036659241,445.14358496665955,445.14754152297974,445.1582510471344,445.3064851760864,445.3064851760864,445.3064851760864,445.3064851760864,445.3064851760864,445.3064851760864,445.3064851760864,445.9923343658447,1,0.8145570755004883,None,,,,,,,,,,,,,,,,,,230,1,2025-03-11_13h00.29.738,comp,2024.2.4,52.53676304806377,2025-03-11 13h00.40.408342 -0400,
139,139,0,filler_square,None,None,None,None,None,None,None,None,None,None,3,1.027651071548462,None,,,,,0,0,0,0,0,139,139,191,446.00982427597046,,,,,,,,,,,,,,,,,,,,,,,,,,,,,,,,,,,,,,,,,,,,,,,,,,,,,,,,,,,,,,,,,,,,,,,,,,,,,,,,,66.22980775663382,106.33774356708656,136.48936023876882,66.07117219148705,143.79688715505108,143.79688715505108,2.1,2.11,-182,259,0,273,201,-251,445.9941816329956,445.9942569732666,445.997309923172,446.00982427597046,446.15661334991455,446.15661334991455,446.15661334991455,446.15661334991455,446.15661334991455,446.15661334991455,446.15661334991455,447.04317021369934,3,1.027651071548462,None,,,,,,,,,,,,,,,,,,230,1,2025-03-11_13h00.29.738,comp,2024.2.4,52.53676304806377,2025-03-11 13h00.40.408342 -0400,
