thisN,thisTrialN,thisRepN,effect,order,distance,config,diag,h_1,w_1,h_2,w_2,h_3,w_3,rect_choice.keys,rect_choice.rt,rect_choice.duration,instructions_loop.thisRepN,instructions_loop.thisTrialN,instructions_loop.thisN,instructions_loop.thisIndex,blocks.thisRepN,blocks.thisTrialN,blocks.thisN,blocks.thisIndex,trials.thisRepN,trials.thisTrialN,trials.thisN,trials.thisIndex,thisRow.t,notes,consent.started,agree_button.started,decline_button.started,consent_img.started,mouse.started,consent.stopped,agree_button.numClicks,agree_button.timesOn,agree_button.timesOff,decline_button.numClicks,decline_button.timesOn,decline_button.timesOff,mouse.x,mouse.y,mouse.leftButton,mouse.midButton,mouse.rightButton,mouse.time,mouse.clicked_name,exp_params.started,exp_params.stopped,welcome.started,welcome_text.started,welcome.stopped,instructions_1.started,instructions_1_text_1.started,instructions_1_text_2.started,key_resp.started,instructions_1.stopped,instructions_loop.key_resp.keys,instructions_loop.key_resp.rt,instructions_loop.key_resp.duration,instructions_2.started,instructions_2_text_1.started,instructions_2_text_2.started,key_resp_2.started,instructions_2.stopped,instructions_loop.key_resp_2.keys,instructions_loop.key_resp_2.rt,instructions_loop.key_resp_2.duration,instructions_3.started,instructions_3_text_1.started,r1_instr3.started,r2_instr3.started,r3_instr3.started,r1_instr3_label.started,r2_instr3_label.started,r3_instr3_label.started,instructions_3_text_3.started,instructions_3_text_4.started,key_resp_3.started,instructions_3.stopped,instructions_loop.key_resp_3.keys,instructions_loop.key_resp_3.rt,instructions_loop.key_resp_3.duration,instructions_4.started,instructions_4_text_1.started,instructions_4_text_3.started,instructions_4_text_2.started,key_resp_4.started,instructions_4.stopped,instructions_loop.key_resp_4.keys,instructions_loop.key_resp_4.rt,instructions_loop.key_resp_4.duration,instructions_5.started,instructions_5_text_1.started,instructions_5_text_2.started,key_resp_5.started,instructions_5.stopped,instructions_loop.key_resp_5.keys,instructions_loop.key_resp_5.rt,instructions_loop.key_resp_5.duration,start_exp.started,start_exp_text.started,key_resp_6.started,start_exp.stopped,key_resp_6.keys,key_resp_6.rt,key_resp_6.duration,h_1_tmp,w_1_tmp,h_2_tmp,w_2_tmp,h_3_tmp,w_3_tmp,config_tmp,config_tmp_1,r_1_x,r_1_y,r_2_x,r_2_y,r_3_x,r_3_y,pre_trial.started,pre_trial.stopped,choice_trial.started,rect_choice.started,r_1.started,r_2.started,r_3.started,r_1_label.started,r_2_label.started,r_3_label.started,prompt.started,choice_trial.stopped,trials.rect_choice.keys,trials.rect_choice.rt,trials.rect_choice.duration,end_block.started,end_block_text.started,end_block.stopped,end.started,end_text.started,key_resp_7.started,end.stopped,key_resp_7.keys,key_resp_7.rt,key_resp_7.duration,debriefing.started,debrief_form.started,end_debrief.started,debriefing.stopped,end_debrief.keys,end_debrief.rt,end_debrief.duration,participant,computer,date,expName,psychopyVersion,frameRate,expStart,
,,,,,,,,,,,,,,,,,,,,,,,,,,,,,,,0.019550800323486328,0.03545856475830078,0.03545856475830078,0.03545856475830078,0.01936030387878418,58.233959913253784,1,[58.19589424133301],[58.19591760635376],0,,,[-96.0],[-540.0],[1],[0],[0],[58.213828563690186],['agree_button'],,,,,,,,,,,,,,,,,,,,,,,,,,,,,,,,,,,,,,,,,,,,,,,,,,,,,,,,,,,,,,,,,,,,,,,,,,,,,,,,,,,,,,,,,,,,,,,,,,,,,,,,,,,231,1,2025-03-11_14h47.10.378,comp,2024.2.4,58.077167524006676,2025-03-11 14h47.18.710413 -0400,
,,,,,,,,,,,,,,,,,,,,,,,,,,,,,,,,,,,,,,,,,,,,,,,,,,58.2344651222229,58.23453164100647,,,,,,,,,,,,,,,,,,,,,,,,,,,,,,,,,,,,,,,,,,,,,,,,,,,,,,,,,,,,,,,,,,,,,,,,,,,,,,,,,,,,,,,,,,,,,,,,,,,,,,,,,231,1,2025-03-11_14h47.10.378,comp,2024.2.4,58.077167524006676,2025-03-11 14h47.18.710413 -0400,
,,,,,,,,,,,,,,,,,,,,,,,,,,,,,,,,,,,,,,,,,,,,,,,,,,,,58.234575510025024,58.24994516372681,60.24118638038635,,,,,,,,,,,,,,,,,,,,,,,,,,,,,,,,,,,,,,,,,,,,,,,,,,,,,,,,,,,,,,,,,,,,,,,,,,,,,,,,,,,,,,,,,,,,,,,,,,,,,,231,1,2025-03-11_14h47.10.378,comp,2024.2.4,58.077167524006676,2025-03-11 14h47.18.710413 -0400,
0,0,0,,,,,,,,,,,,,,,0,0,0,0,,,,,,,,,60.25801205635071,,,,,,,,,,,,,,,,,,,,,,,,,,60.2420859336853,60.25801205635071,60.25801205635071,61.74245262145996,66.39509892463684,space,4.6347856521606445,None,66.39525270462036,66.40977573394775,66.40977573394775,67.8948802947998,73.66330432891846,space,5.754207134246826,None,73.66346335411072,73.69188785552979,73.69188785552979,73.69188785552979,73.69188785552979,73.69188785552979,73.69188785552979,73.69188785552979,73.69188785552979,73.69188785552979,75.16012573242188,80.12253403663635,space,4.952956676483154,None,80.12269711494446,80.14001202583313,80.14001202583313,80.14001202583313,81.62845826148987,87.38418483734131,space,5.749446153640747,None,87.38433766365051,87.4037618637085,87.4037618637085,88.88455986976624,90.68641495704651,space,1.7887024879455566,None,90.68660593032837,90.70234107971191,90.70234107971191,92.45344495773315,space,1.746781826019287,None,,,,,,,,,,,,,,,,,,,,,,,,,,,,,,,,,,,,,,,,,,,,,,,231,1,2025-03-11_14h47.10.378,comp,2024.2.4,58.077167524006676,2025-03-11 14h47.18.710413 -0400,
0,0,0,critical,hwd,20.0,1.0,upper,200.0,125.0,125.0,200.0,141.0,141.0,1,13.757553815841675,None,,,,,0,0,0,0,0,0,0,103,92.53197455406189,,,,,,,,,,,,,,,,,,,,,,,,,,,,,,,,,,,,,,,,,,,,,,,,,,,,,,,,,,,,,,,,,,,,,,,,,,,,,,,,,200.0,125.0,125.0,200.0,141.0,141.0,1.0,1.2,-258,-18,0,17,266,-17,92.5152542591095,92.51529049873352,92.51672434806824,92.53197455406189,92.6796817779541,92.6796817779541,92.6796817779541,92.6796817779541,92.6796817779541,92.6796817779541,92.6796817779541,106.29187965393066,1,13.757553815841675,None,,,,,,,,,,,,,,,,,,231,1,2025-03-11_14h47.10.378,comp,2024.2.4,58.077167524006676,2025-03-11 14h47.18.710413 -0400,
1,1,0,filler_square,None,None,None,None,None,None,None,None,None,None,1,1.5794625282287598,None,,,,,0,0,0,0,0,1,1,181,106.31000447273254,,,,,,,,,,,,,,,,,,,,,,,,,,,,,,,,,,,,,,,,,,,,,,,,,,,,,,,,,,,,,,,,,,,,,,,,,,,,,,,,,184.17795435967878,184.17795435967878,130.48904477320917,75.04535610377688,65.75721065447232,149.03965741866423,4.0,4.2,-226,15,0,-251,208,5,106.29354810714722,106.29360580444336,106.29759168624878,106.31000447273254,106.4608826637268,106.4608826637268,106.4608826637268,106.4608826637268,106.4608826637268,106.4608826637268,106.4608826637268,107.89146375656128,1,1.5794625282287598,None,,,,,,,,,,,,,,,,,,231,1,2025-03-11_14h47.10.378,comp,2024.2.4,58.077167524006676,2025-03-11 14h47.18.710413 -0400,
2,2,0,filler_square,None,None,None,None,None,None,None,None,None,None,3,5.839320659637451,None,,,,,0,0,0,0,0,2,2,177,107.91459536552429,,,,,,,,,,,,,,,,,,,,,,,,,,,,,,,,,,,,,,,,,,,,,,,,,,,,,,,,,,,,,,,,,,,,,,,,,,,,,,,,,60.62508031181608,67.13138621732294,70.61038510678864,63.78621750972269,73.64073140995215,73.64073140995215,1.0,1.1,-641,284,-480,286,-315,269,107.89359331130981,107.89367246627808,107.89709997177124,107.91459536552429,108.04924654960632,108.04924654960632,108.04924654960632,108.04924654960632,108.04924654960632,108.04924654960632,108.04924654960632,113.75890159606934,3,5.839320659637451,None,,,,,,,,,,,,,,,,,,231,1,2025-03-11_14h47.10.378,comp,2024.2.4,58.077167524006676,2025-03-11 14h47.18.710413 -0400,
3,3,0,filler_random,None,None,None,None,None,None,None,None,None,None,1,5.79362678527832,None,,,,,0,0,0,0,0,3,3,130,113.77587652206421,,,,,,,,,,,,,,,,,,,,,,,,,,,,,,,,,,,,,,,,,,,,,,,,,,,,,,,,,,,,,,,,,,,,,,,,,,,,,,,,,87.90838052741225,185.73751991711268,131.04926001873983,96.17746202126736,122.90359466568741,83.0808264637942,2.1,2.12,-237,-250,0,-251,186,285,113.76067852973938,113.76075649261475,113.76414561271667,113.77587652206421,113.92374897003174,113.92374897003174,113.92374897003174,113.92374897003174,113.92374897003174,113.92374897003174,113.92374897003174,119.58119821548462,1,5.79362678527832,None,,,,,,,,,,,,,,,,,,231,1,2025-03-11_14h47.10.378,comp,2024.2.4,58.077167524006676,2025-03-11 14h47.18.710413 -0400,
4,4,0,critical,hdw,35.0,2.1,lower,133.0,57.0,70.0,70.0,57.0,133.0,3,10.386459589004517,None,,,,,0,0,0,0,0,4,4,44,119.6073477268219,,,,,,,,,,,,,,,,,,,,,,,,,,,,,,,,,,,,,,,,,,,,,,,,,,,,,,,,,,,,,,,,,,,,,,,,,,,,,,,,,133.0,57.0,70.0,70.0,57.0,133.0,2.1,2.11,-160,271,0,275,198,-255,119.58285355567932,119.58298325538635,119.58616805076599,119.6073477268219,119.74488401412964,119.74488401412964,119.74488401412964,119.74488401412964,119.74488401412964,119.74488401412964,119.74488401412964,130.0034739971161,3,10.386459589004517,None,,,,,,,,,,,,,,,,,,231,1,2025-03-11_14h47.10.378,comp,2024.2.4,58.077167524006676,2025-03-11 14h47.18.710413 -0400,
5,5,0,critical,dhw,20.0,3.0,lower,78.0,78.0,133.0,57.0,57.0,133.0,3,3.4522271156311035,None,,,,,0,0,0,0,0,5,5,56,130.02135586738586,,,,,,,,,,,,,,,,,,,,,,,,,,,,,,,,,,,,,,,,,,,,,,,,,,,,,,,,,,,,,,,,,,,,,,,,,,,,,,,,,78.0,78.0,133.0,57.0,57.0,133.0,3.0,3.2,-164,-255,0,-8,191,262,130.0050826072693,130.0051612854004,130.00819063186646,130.02135586738586,130.16477298736572,130.16477298736572,130.16477298736572,130.16477298736572,130.16477298736572,130.16477298736572,130.16477298736572,133.47916412353516,3,3.4522271156311035,None,,,,,,,,,,,,,,,,,,231,1,2025-03-11_14h47.10.378,comp,2024.2.4,58.077167524006676,2025-03-11 14h47.18.710413 -0400,
6,6,0,critical,hwd,20.0,4.0,lower,133.0,57.0,57.0,133.0,78.0,78.0,2,5.528071641921997,None,,,,,0,0,0,0,0,6,6,106,133.497088432312,,,,,,,,,,,,,,,,,,,,,,,,,,,,,,,,,,,,,,,,,,,,,,,,,,,,,,,,,,,,,,,,,,,,,,,,,,,,,,,,,133.0,57.0,57.0,133.0,78.0,78.0,4.0,4.2,-191,6,0,-260,202,16,133.48069500923157,133.48077130317688,133.48381638526917,133.497088432312,133.6322727203369,133.6322727203369,133.6322727203369,133.6322727203369,133.6322727203369,133.6322727203369,133.6322727203369,139.03861212730408,2,5.528071641921997,None,,,,,,,,,,,,,,,,,,231,1,2025-03-11_14h47.10.378,comp,2024.2.4,58.077167524006676,2025-03-11 14h47.18.710413 -0400,
7,7,0,catch,None,None,None,None,None,None,None,None,None,None,1,3.3252112865448,None,,,,,0,0,0,0,0,7,7,128,139.0550491809845,,,,,,,,,,,,,,,,,,,,,,,,,,,,,,,,,,,,,,,,,,,,,,,,,,,,,,,,,,,,,,,,,,,,,,,,,,,,,,,,,140,185,113,77,89,101,3.0,3.2,-227,-288,0,9,185,253,139.04052329063416,139.04060339927673,139.04468727111816,139.0550491809845,139.20593523979187,139.20593523979187,139.20593523979187,139.20593523979187,139.20593523979187,139.20593523979187,139.20593523979187,142.38429856300354,1,3.3252112865448,None,,,,,,,,,,,,,,,,,,231,1,2025-03-11_14h47.10.378,comp,2024.2.4,58.077167524006676,2025-03-11 14h47.18.710413 -0400,
8,8,0,critical,hwd,20.0,4.0,upper,200.0,125.0,125.0,200.0,141.0,141.0,1,9.320446968078613,None,,,,,0,0,0,0,0,8,8,107,142.40077829360962,,,,,,,,,,,,,,,,,,,,,,,,,,,,,,,,,,,,,,,,,,,,,,,,,,,,,,,,,,,,,,,,,,,,,,,,,,,,,,,,,200.0,125.0,125.0,200.0,141.0,141.0,4.0,4.2,-258,13,0,-259,266,11,142.3858926296234,142.38596963882446,142.3895387649536,142.40077829360962,142.54191398620605,142.54191398620605,142.54191398620605,142.54191398620605,142.54191398620605,142.54191398620605,142.54191398620605,151.72403287887573,1,9.320446968078613,None,,,,,,,,,,,,,,,,,,231,1,2025-03-11_14h47.10.378,comp,2024.2.4,58.077167524006676,2025-03-11 14h47.18.710413 -0400,
9,9,0,critical,dwh,35.0,4.0,upper,127.0,127.0,125.0,200.0,200.0,125.0,3,2.5275723934173584,None,,,,,0,0,0,0,0,9,9,65,151.74557256698608,,,,,,,,,,,,,,,,,,,,,,,,,,,,,,,,,,,,,,,,,,,,,,,,,,,,,,,,,,,,,,,,,,,,,,,,,,,,,,,,,127.0,127.0,125.0,200.0,200.0,125.0,4.0,4.1,-260,-282,0,0,258,-286,151.72582006454468,151.72590446472168,151.72985887527466,151.74557256698608,151.8921401500702,151.8921401500702,151.8921401500702,151.8921401500702,151.8921401500702,151.8921401500702,151.8921401500702,154.28959202766418,3,2.5275723934173584,None,,,,,,,,,,,,,,,,,,231,1,2025-03-11_14h47.10.378,comp,2024.2.4,58.077167524006676,2025-03-11 14h47.18.710413 -0400,
10,10,0,catch,None,None,None,None,None,None,None,None,None,None,1,2.760164976119995,None,,,,,0,0,0,0,0,10,10,126,154.30550026893616,,,,,,,,,,,,,,,,,,,,,,,,,,,,,,,,,,,,,,,,,,,,,,,,,,,,,,,,,,,,,,,,,,,,,,,,,,,,,,,,,158,167,111,79,130,60,2.1,2.11,-219,256,0,282,166,-273,154.29174065589905,154.29185366630554,154.2952423095703,154.30550026893616,154.45500445365906,154.45500445365906,154.45500445365906,154.45500445365906,154.45500445365906,154.45500445365906,154.45500445365906,157.07410335540771,1,2.760164976119995,None,,,,,,,,,,,,,,,,,,231,1,2025-03-11_14h47.10.378,comp,2024.2.4,58.077167524006676,2025-03-11 14h47.18.710413 -0400,
11,11,0,critical,dwh,35.0,1.0,upper,127.0,127.0,125.0,200.0,200.0,125.0,3,2.7130134105682373,None,,,,,0,0,0,0,0,11,11,61,157.08899211883545,,,,,,,,,,,,,,,,,,,,,,,,,,,,,,,,,,,,,,,,,,,,,,,,,,,,,,,,,,,,,,,,,,,,,,,,,,,,,,,,,127.0,127.0,125.0,200.0,200.0,125.0,1.0,1.2,-260,-3,0,10,258,-11,157.07566213607788,157.07574224472046,157.0790195465088,157.08899211883545,157.24517607688904,157.24517607688904,157.24517607688904,157.24517607688904,157.24517607688904,157.24517607688904,157.24517607688904,159.80818438529968,3,2.7130134105682373,None,,,,,,,,,,,,,,,,,,231,1,2025-03-11_14h47.10.378,comp,2024.2.4,58.077167524006676,2025-03-11 14h47.18.710413 -0400,
12,12,0,critical,whd,35.0,3.0,upper,125.0,200.0,200.0,125.0,127.0,127.0,2,4.92989182472229,None,,,,,0,0,0,0,0,12,12,87,159.8241322040558,,,,,,,,,,,,,,,,,,,,,,,,,,,,,,,,,,,,,,,,,,,,,,,,,,,,,,,,,,,,,,,,,,,,,,,,,,,,,,,,,125.0,200.0,200.0,125.0,127.0,127.0,3.0,3.2,-258,-272,0,4,222,261,159.80976915359497,159.80987358093262,159.81330847740173,159.8241322040558,159.97162795066833,159.97162795066833,159.97162795066833,159.97162795066833,159.97162795066833,159.97162795066833,159.97162795066833,164.75992703437805,2,4.92989182472229,None,,,,,,,,,,,,,,,,,,231,1,2025-03-11_14h47.10.378,comp,2024.2.4,58.077167524006676,2025-03-11 14h47.18.710413 -0400,
13,13,0,critical,dhw,20.0,2.1,lower,78.0,78.0,133.0,57.0,57.0,133.0,3,4.3059892654418945,None,,,,,0,0,0,0,0,13,13,2,164.775230884552,,,,,,,,,,,,,,,,,,,,,,,,,,,,,,,,,,,,,,,,,,,,,,,,,,,,,,,,,,,,,,,,,,,,,,,,,,,,,,,,,78.0,78.0,133.0,57.0,57.0,133.0,2.1,2.12,-164,-252,0,-260,191,269,164.76166939735413,164.76184463500977,164.76566195487976,164.775230884552,164.9312868118286,164.9312868118286,164.9312868118286,164.9312868118286,164.9312868118286,164.9312868118286,164.9312868118286,169.09959769248962,3,4.3059892654418945,None,,,,,,,,,,,,,,,,,,231,1,2025-03-11_14h47.10.378,comp,2024.2.4,58.077167524006676,2025-03-11 14h47.18.710413 -0400,
14,14,0,catch,None,None,None,None,None,None,None,None,None,None,1,1.8344106674194336,None,,,,,0,0,0,0,0,14,14,129,169.1200349330902,,,,,,,,,,,,,,,,,,,,,,,,,,,,,,,,,,,,,,,,,,,,,,,,,,,,,,,,,,,,,,,,,,,,,,,,,,,,,,,,,193,132,78,112,102,88,1.0,1.1,-698,273,-480,287,-284,265,169.1016240119934,169.10170578956604,169.10477566719055,169.1200349330902,169.26515412330627,169.26515412330627,169.26515412330627,169.26515412330627,169.26515412330627,169.26515412330627,169.26515412330627,170.96025800704956,1,1.8344106674194336,None,,,,,,,,,,,,,,,,,,231,1,2025-03-11_14h47.10.378,comp,2024.2.4,58.077167524006676,2025-03-11 14h47.18.710413 -0400,
15,15,0,critical,hwd,35.0,2.1,upper,200.0,125.0,125.0,200.0,127.0,127.0,1,10.680403709411621,None,,,,,0,0,0,0,0,15,15,41,170.97705626487732,,,,,,,,,,,,,,,,,,,,,,,,,,,,,,,,,,,,,,,,,,,,,,,,,,,,,,,,,,,,,,,,,,,,,,,,,,,,,,,,,200.0,125.0,125.0,200.0,127.0,127.0,2.1,2.11,-258,281,0,265,260,-263,170.96187090873718,170.96195101737976,170.96540665626526,170.97705626487732,171.1120445728302,171.1120445728302,171.1120445728302,171.1120445728302,171.1120445728302,171.1120445728302,171.1120445728302,181.67153191566467,1,10.680403709411621,None,,,,,,,,,,,,,,,,,,231,1,2025-03-11_14h47.10.378,comp,2024.2.4,58.077167524006676,2025-03-11 14h47.18.710413 -0400,
16,16,0,filler_square,None,None,None,None,None,None,None,None,None,None,2,3.4974682331085205,None,,,,,0,0,0,0,0,16,16,180,181.6877155303955,,,,,,,,,,,,,,,,,,,,,,,,,,,,,,,,,,,,,,,,,,,,,,,,,,,,,,,,,,,,,,,,,,,,,,,,,,,,,,,,,100.47812222319322,93.21702582444101,103.26694538467807,103.26694538467807,79.19592506440965,100.91819106097522,1.0,1.2,-194,-12,0,10,198,3,181.67350149154663,181.6735806465149,181.67701506614685,181.6877155303955,181.83532404899597,181.83532404899597,181.83532404899597,181.83532404899597,181.83532404899597,181.83532404899597,181.83532404899597,185.2006585597992,2,3.4974682331085205,None,,,,,,,,,,,,,,,,,,231,1,2025-03-11_14h47.10.378,comp,2024.2.4,58.077167524006676,2025-03-11 14h47.18.710413 -0400,
17,17,0,critical,whd,20.0,2.1,lower,57.0,133.0,133.0,57.0,78.0,78.0,2,8.498023271560669,None,,,,,0,0,0,0,0,17,17,38,185.21622109413147,,,,,,,,,,,,,,,,,,,,,,,,,,,,,,,,,,,,,,,,,,,,,,,,,,,,,,,,,,,,,,,,,,,,,,,,,,,,,,,,,57.0,133.0,133.0,57.0,78.0,78.0,2.1,2.12,-191,-271,0,-286,164,279,185.20238137245178,185.20251893997192,185.20594787597656,185.21622109413147,185.36551475524902,185.36551475524902,185.36551475524902,185.36551475524902,185.36551475524902,185.36551475524902,185.36551475524902,193.72124314308167,2,8.498023271560669,None,,,,,,,,,,,,,,,,,,231,1,2025-03-11_14h47.10.378,comp,2024.2.4,58.077167524006676,2025-03-11 14h47.18.710413 -0400,
18,18,0,critical,dwh,20.0,1.0,upper,141.0,141.0,125.0,200.0,200.0,125.0,2,9.46255373954773,None,,,,,0,0,0,0,0,18,18,67,193.7388710975647,,,,,,,,,,,,,,,,,,,,,,,,,,,,,,,,,,,,,,,,,,,,,,,,,,,,,,,,,,,,,,,,,,,,,,,,,,,,,,,,,141.0,141.0,125.0,200.0,200.0,125.0,1.0,1.3,214,-260,480,-282,738,-263,193.72312831878662,193.72322177886963,193.72715878486633,193.7388710975647,193.890118598938,193.890118598938,193.890118598938,193.890118598938,193.890118598938,193.890118598938,193.890118598938,203.20621848106384,2,9.46255373954773,None,,,,,,,,,,,,,,,,,,231,1,2025-03-11_14h47.10.378,comp,2024.2.4,58.077167524006676,2025-03-11 14h47.18.710413 -0400,
19,19,0,filler_square,None,None,None,None,None,None,None,None,None,None,1,2.6981446743011475,None,,,,,0,0,0,0,0,19,19,178,203.22304153442383,,,,,,,,,,,,,,,,,,,,,,,,,,,,,,,,,,,,,,,,,,,,,,,,,,,,,,,,,,,,,,,,,,,,,,,,,,,,,,,,,136.90513427784418,136.90513427784418,110.64928892782619,126.37031609530457,76.84257045994495,71.55420485981428,4.0,4.2,-228,7,0,-269,195,8,203.20832896232605,203.20840978622437,203.21217823028564,203.22304153442383,203.37257313728333,203.37257313728333,203.37257313728333,203.37257313728333,203.37257313728333,203.37257313728333,203.37257313728333,205.9401776790619,1,2.6981446743011475,None,,,,,,,,,,,,,,,,,,231,1,2025-03-11_14h47.10.378,comp,2024.2.4,58.077167524006676,2025-03-11 14h47.18.710413 -0400,
20,20,0,critical,hdw,35.0,1.0,upper,200.0,125.0,127.0,127.0,125.0,200.0,3,3.2030773162841797,None,,,,,0,0,0,0,0,20,20,109,205.95825266838074,,,,,,,,,,,,,,,,,,,,,,,,,,,,,,,,,,,,,,,,,,,,,,,,,,,,,,,,,,,,,,,,,,,,,,,,,,,,,,,,,200.0,125.0,127.0,127.0,125.0,200.0,1.0,1.3,258,-278,480,-272,740,-285,205.9418318271637,205.94196796417236,205.9454653263092,205.95825266838074,206.10537219047546,206.10537219047546,206.10537219047546,206.10537219047546,206.10537219047546,206.10537219047546,206.10537219047546,209.18336009979248,3,3.2030773162841797,None,,,,,,,,,,,,,,,,,,231,1,2025-03-11_14h47.10.378,comp,2024.2.4,58.077167524006676,2025-03-11 14h47.18.710413 -0400,
21,21,0,filler_random,None,None,None,None,None,None,None,None,None,None,1,3.104091167449951,None,,,,,0,0,0,0,0,21,21,169,209.2015209197998,,,,,,,,,,,,,,,,,,,,,,,,,,,,,,,,,,,,,,,,,,,,,,,,,,,,,,,,,,,,,,,,,,,,,,,,,,,,,,,,,170.79173536832897,125.06177983046223,76.22531722651726,81.12044120658548,140.08017867260918,79.2322686944241,2.1,2.11,-199,269,0,279,176,-267,209.18527388572693,209.18540573120117,209.18872141838074,209.2015209197998,209.3399634361267,209.3399634361267,209.3399634361267,209.3399634361267,209.3399634361267,209.3399634361267,209.3399634361267,212.3083598613739,1,3.104091167449951,None,,,,,,,,,,,,,,,,,,231,1,2025-03-11_14h47.10.378,comp,2024.2.4,58.077167524006676,2025-03-11 14h47.18.710413 -0400,
22,22,0,critical,wdh,35.0,1.0,upper,125.0,200.0,127.0,127.0,200.0,125.0,3,3.412370443344116,None,,,,,0,0,0,0,0,22,22,73,212.33289551734924,,,,,,,,,,,,,,,,,,,,,,,,,,,,,,,,,,,,,,,,,,,,,,,,,,,,,,,,,,,,,,,,,,,,,,,,,,,,,,,,,125.0,200.0,127.0,127.0,200.0,125.0,1.0,1.1,-740,260,-480,264,-258,282,212.30994391441345,212.31002283096313,212.31326746940613,212.33289551734924,212.47506475448608,212.47506475448608,212.47506475448608,212.47506475448608,212.47506475448608,212.47506475448608,212.47506475448608,215.7609624862671,3,3.412370443344116,None,,,,,,,,,,,,,,,,,,231,1,2025-03-11_14h47.10.378,comp,2024.2.4,58.077167524006676,2025-03-11 14h47.18.710413 -0400,
23,23,0,critical,hdw,35.0,1.0,lower,133.0,57.0,70.0,70.0,57.0,133.0,3,5.131257057189941,None,,,,,0,0,0,0,0,23,23,108,215.78196358680725,,,,,,,,,,,,,,,,,,,,,,,,,,,,,,,,,,,,,,,,,,,,,,,,,,,,,,,,,,,,,,,,,,,,,,,,,,,,,,,,,133.0,57.0,70.0,70.0,57.0,133.0,1.0,1.1,-640,251,-480,261,-282,284,215.76270723342896,215.7629086971283,215.76661276817322,215.78196358680725,215.92575764656067,215.92575764656067,215.92575764656067,215.92575764656067,215.92575764656067,215.92575764656067,215.92575764656067,220.9276888370514,3,5.131257057189941,None,,,,,,,,,,,,,,,,,,231,1,2025-03-11_14h47.10.378,comp,2024.2.4,58.077167524006676,2025-03-11 14h47.18.710413 -0400,
24,24,0,catch,None,None,None,None,None,None,None,None,None,None,1,2.5797667503356934,None,,,,,0,0,0,0,0,24,24,120,220.94239282608032,,,,,,,,,,,,,,,,,,,,,,,,,,,,,,,,,,,,,,,,,,,,,,,,,,,,,,,,,,,,,,,,,,,,,,,,,,,,,,,,,127,198,91,99,61,129,2.1,2.12,-244,-266,0,-255,210,273,220.929701089859,220.9298014640808,220.93327522277832,220.94239282608032,221.09163308143616,221.09163308143616,221.09163308143616,221.09163308143616,221.09163308143616,221.09163308143616,221.09163308143616,223.52823615074158,1,2.5797667503356934,None,,,,,,,,,,,,,,,,,,231,1,2025-03-11_14h47.10.378,comp,2024.2.4,58.077167524006676,2025-03-11 14h47.18.710413 -0400,
25,25,0,critical,dhw,35.0,3.0,upper,127.0,127.0,200.0,125.0,125.0,200.0,3,2.625432014465332,None,,,,,0,0,0,0,0,25,25,51,223.54496264457703,,,,,,,,,,,,,,,,,,,,,,,,,,,,,,,,,,,,,,,,,,,,,,,,,,,,,,,,,,,,,,,,,,,,,,,,,,,,,,,,,127.0,127.0,200.0,125.0,125.0,200.0,3.0,3.1,-222,260,0,-3,258,-284,223.52978110313416,223.52990078926086,223.53333139419556,223.54496264457703,223.69481754302979,223.69481754302979,223.69481754302979,223.69481754302979,223.69481754302979,223.69481754302979,223.69481754302979,226.17718887329102,3,2.625432014465332,None,,,,,,,,,,,,,,,,,,231,1,2025-03-11_14h47.10.378,comp,2024.2.4,58.077167524006676,2025-03-11 14h47.18.710413 -0400,
26,26,0,critical,hwd,20.0,3.0,upper,200.0,125.0,125.0,200.0,141.0,141.0,1,4.83977198600769,None,,,,,0,0,0,0,0,26,26,105,226.19355154037476,,,,,,,,,,,,,,,,,,,,,,,,,,,,,,,,,,,,,,,,,,,,,,,,,,,,,,,,,,,,,,,,,,,,,,,,,,,,,,,,,200.0,125.0,125.0,200.0,141.0,141.0,3.0,3.2,-258,-283,0,-4,266,256,226.17884731292725,226.1789629459381,226.18243169784546,226.19355154037476,226.35143566131592,226.35143566131592,226.35143566131592,226.35143566131592,226.35143566131592,226.35143566131592,226.35143566131592,231.05199313163757,1,4.83977198600769,None,,,,,,,,,,,,,,,,,,231,1,2025-03-11_14h47.10.378,comp,2024.2.4,58.077167524006676,2025-03-11 14h47.18.710413 -0400,
27,27,0,critical,whd,35.0,2.1,lower,57.0,133.0,133.0,57.0,70.0,70.0,2,5.10029149055481,None,,,,,0,0,0,0,0,27,27,36,231.0693337917328,,,,,,,,,,,,,,,,,,,,,,,,,,,,,,,,,,,,,,,,,,,,,,,,,,,,,,,,,,,,,,,,,,,,,,,,,,,,,,,,,57.0,133.0,133.0,57.0,70.0,70.0,2.1,2.11,-191,267,0,274,160,-275,231.053555727005,231.0536332130432,231.0566701889038,231.0693337917328,231.2135214805603,231.2135214805603,231.2135214805603,231.2135214805603,231.2135214805603,231.2135214805603,231.2135214805603,236.1735508441925,2,5.10029149055481,None,,,,,,,,,,,,,,,,,,231,1,2025-03-11_14h47.10.378,comp,2024.2.4,58.077167524006676,2025-03-11 14h47.18.710413 -0400,
28,28,0,filler_random,None,None,None,None,None,None,None,None,None,None,3,3.138115167617798,None,,,,,0,0,0,0,0,28,28,165,236.19233417510986,,,,,,,,,,,,,,,,,,,,,,,,,,,,,,,,,,,,,,,,,,,,,,,,,,,,,,,,,,,,,,,,,,,,,,,,,,,,,,,,,165.37385898625797,191.87918751845166,158.7074447655478,65.90150595867242,170.47727185245316,164.61832505252687,2.2,2.22,-225,274,0,-251,211,-253,236.17550802230835,236.17559337615967,236.17901802062988,236.19233417510986,236.33193397521973,236.33193397521973,236.33193397521973,236.33193397521973,236.33193397521973,236.33193397521973,236.33193397521973,239.33603072166443,3,3.138115167617798,None,,,,,,,,,,,,,,,,,,231,1,2025-03-11_14h47.10.378,comp,2024.2.4,58.077167524006676,2025-03-11 14h47.18.710413 -0400,
29,29,0,critical,whd,35.0,3.0,lower,57.0,133.0,133.0,57.0,70.0,70.0,1,2.0321311950683594,None,,,,,0,0,0,0,0,29,29,86,239.35307693481445,,,,,,,,,,,,,,,,,,,,,,,,,,,,,,,,,,,,,,,,,,,,,,,,,,,,,,,,,,,,,,,,,,,,,,,,,,,,,,,,,57.0,133.0,133.0,57.0,70.0,70.0,3.0,3.2,-191,-256,0,17,160,253,239.33789014816284,239.33802580833435,239.34151196479797,239.35307693481445,239.50044798851013,239.50044798851013,239.50044798851013,239.50044798851013,239.50044798851013,239.50044798851013,239.50044798851013,241.40319919586182,1,2.0321311950683594,None,,,,,,,,,,,,,,,,,,231,1,2025-03-11_14h47.10.378,comp,2024.2.4,58.077167524006676,2025-03-11 14h47.18.710413 -0400,
30,30,0,filler_random,None,None,None,None,None,None,None,None,None,None,3,2.2461369037628174,None,,,,,0,0,0,0,0,30,30,141,241.4191529750824,,,,,,,,,,,,,,,,,,,,,,,,,,,,,,,,,,,,,,,,,,,,,,,,,,,,,,,,,,,,,,,,,,,,,,,,,,,,,,,,,110.82930801376082,130.78243266324603,89.15470882405252,166.13851765553088,97.0952157856332,172.22415416867858,2.2,2.21,-244,-266,0,260,265,269,241.4051616191864,241.40523719787598,241.40874910354614,241.4191529750824,241.56627583503723,241.56627583503723,241.56627583503723,241.56627583503723,241.56627583503723,241.56627583503723,241.56627583503723,243.66771006584167,3,2.2461369037628174,None,,,,,,,,,,,,,,,,,,231,1,2025-03-11_14h47.10.378,comp,2024.2.4,58.077167524006676,2025-03-11 14h47.18.710413 -0400,
31,31,0,critical,hdw,35.0,2.1,upper,200.0,125.0,127.0,127.0,125.0,200.0,3,3.246100425720215,None,,,,,0,0,0,0,0,31,31,45,243.68365788459778,,,,,,,,,,,,,,,,,,,,,,,,,,,,,,,,,,,,,,,,,,,,,,,,,,,,,,,,,,,,,,,,,,,,,,,,,,,,,,,,,200.0,125.0,127.0,127.0,125.0,200.0,2.1,2.11,-222,267,0,262,260,-259,243.6693549156189,243.6694347858429,243.67293286323547,243.68365788459778,243.83498811721802,243.83498811721802,243.83498811721802,243.83498811721802,243.83498811721802,243.83498811721802,243.83498811721802,246.9383420944214,3,3.246100425720215,None,,,,,,,,,,,,,,,,,,231,1,2025-03-11_14h47.10.378,comp,2024.2.4,58.077167524006676,2025-03-11 14h47.18.710413 -0400,
32,32,0,filler_random,None,None,None,None,None,None,None,None,None,None,2,3.2593836784362793,None,,,,,0,0,0,0,0,32,32,160,246.9583842754364,,,,,,,,,,,,,,,,,,,,,,,,,,,,,,,,,,,,,,,,,,,,,,,,,,,,,,,,,,,,,,,,,,,,,,,,,,,,,,,,,154.70415656777942,115.6146882714709,193.61164514371222,113.18960269501832,114.38508763012102,145.2040702685669,1.0,1.2,-210,-15,0,-11,225,7,246.94011759757996,246.94019770622253,246.94341158866882,246.9583842754364,247.0928852558136,247.0928852558136,247.0928852558136,247.0928852558136,247.0928852558136,247.0928852558136,247.0928852558136,250.22365880012512,2,3.2593836784362793,None,,,,,,,,,,,,,,,,,,231,1,2025-03-11_14h47.10.378,comp,2024.2.4,58.077167524006676,2025-03-11 14h47.18.710413 -0400,
33,33,0,critical,whd,20.0,2.1,upper,125.0,200.0,200.0,125.0,141.0,141.0,2,2.185833215713501,None,,,,,0,0,0,0,0,33,33,39,250.23935079574585,,,,,,,,,,,,,,,,,,,,,,,,,,,,,,,,,,,,,,,,,,,,,,,,,,,,,,,,,,,,,,,,,,,,,,,,,,,,,,,,,125.0,200.0,200.0,125.0,141.0,141.0,2.1,2.12,-258,-278,0,-255,229,267,250.2255117893219,250.22559261322021,250.22862577438354,250.23935079574585,250.38491582870483,250.38491582870483,250.38491582870483,250.38491582870483,250.38491582870483,250.38491582870483,250.38491582870483,252.43790435791016,2,2.185833215713501,None,,,,,,,,,,,,,,,,,,231,1,2025-03-11_14h47.10.378,comp,2024.2.4,58.077167524006676,2025-03-11 14h47.18.710413 -0400,
34,34,0,critical,dwh,35.0,2.1,upper,127.0,127.0,125.0,200.0,200.0,125.0,2,4.363050222396851,None,,,,,0,0,0,0,0,34,34,5,252.4541347026825,,,,,,,,,,,,,,,,,,,,,,,,,,,,,,,,,,,,,,,,,,,,,,,,,,,,,,,,,,,,,,,,,,,,,,,,,,,,,,,,,127.0,127.0,125.0,200.0,200.0,125.0,2.1,2.12,-260,-270,0,-275,258,270,252.43944811820984,252.4395248889923,252.44274830818176,252.4541347026825,252.6070213317871,252.6070213317871,252.6070213317871,252.6070213317871,252.6070213317871,252.6070213317871,252.6070213317871,256.8277659416199,2,4.363050222396851,None,,,,,,,,,,,,,,,,,,231,1,2025-03-11_14h47.10.378,comp,2024.2.4,58.077167524006676,2025-03-11 14h47.18.710413 -0400,
35,35,0,catch,None,None,None,None,None,None,None,None,None,None,2,1.8778069019317627,None,,,,,0,0,0,0,0,35,35,123,256.84405875205994,,,,,,,,,,,,,,,,,,,,,,,,,,,,,,,,,,,,,,,,,,,,,,,,,,,,,,,,,,,,,,,,,,,,,,,,,,,,,,,,,98,92,160,165,71,119,2.2,2.21,-224,-288,0,266,238,252,256.8297734260559,256.8298888206482,256.8329701423645,256.84405875205994,256.98588275909424,256.98588275909424,256.98588275909424,256.98588275909424,256.98588275909424,256.98588275909424,256.98588275909424,258.7248504161835,2,1.8778069019317627,None,,,,,,,,,,,,,,,,,,231,1,2025-03-11_14h47.10.378,comp,2024.2.4,58.077167524006676,2025-03-11 14h47.18.710413 -0400,
36,36,0,filler_random,None,None,None,None,None,None,None,None,None,None,2,2.123213768005371,None,,,,,0,0,0,0,0,36,36,156,258.7421691417694,,,,,,,,,,,,,,,,,,,,,,,,,,,,,,,,,,,,,,,,,,,,,,,,,,,,,,,,,,,,,,,,,,,,,,,,,,,,,,,,,97.90073006200146,148.8130400350596,199.43416175408257,117.97838616213687,131.43203132464672,148.69291997405747,2.1,2.12,-229,-258,0,-257,229,273,258.72684621810913,258.7269287109375,258.7306878566742,258.7421691417694,258.8902986049652,258.8902986049652,258.8902986049652,258.8902986049652,258.8902986049652,258.8902986049652,258.8902986049652,260.881151676178,2,2.123213768005371,None,,,,,,,,,,,,,,,,,,231,1,2025-03-11_14h47.10.378,comp,2024.2.4,58.077167524006676,2025-03-11 14h47.18.710413 -0400,
37,37,0,critical,dwh,35.0,2.1,lower,70.0,70.0,57.0,133.0,133.0,57.0,3,1.9329242706298828,None,,,,,0,0,0,0,0,37,37,4,260.9011356830597,,,,,,,,,,,,,,,,,,,,,,,,,,,,,,,,,,,,,,,,,,,,,,,,,,,,,,,,,,,,,,,,,,,,,,,,,,,,,,,,,70.0,70.0,57.0,133.0,133.0,57.0,2.1,2.11,-198,277,0,284,191,-256,260.88270354270935,260.88278126716614,260.8858222961426,260.9011356830597,261.03839778900146,261.03839778900146,261.03839778900146,261.03839778900146,261.03839778900146,261.03839778900146,261.03839778900146,262.841668844223,3,1.9329242706298828,None,,,,,,,,,,,,,,,,,,231,1,2025-03-11_14h47.10.378,comp,2024.2.4,58.077167524006676,2025-03-11 14h47.18.710413 -0400,
38,38,0,filler_square,None,None,None,None,None,None,None,None,None,None,2,2.238657236099243,None,,,,,0,0,0,0,0,38,38,200,262.858601808548,,,,,,,,,,,,,,,,,,,,,,,,,,,,,,,,,,,,,,,,,,,,,,,,,,,,,,,,,,,,,,,,,,,,,,,,,,,,,,,,,127.41567008975574,121.10310229044713,142.57854977129625,142.57854977129625,121.91301200200536,58.533737286991254,2.2,2.21,-228,-278,0,257,197,273,262.84386944770813,262.84394884109497,262.84770798683167,262.858601808548,263.0114817619324,263.0114817619324,263.0114817619324,263.0114817619324,263.0114817619324,263.0114817619324,263.0114817619324,265.1081349849701,2,2.238657236099243,None,,,,,,,,,,,,,,,,,,231,1,2025-03-11_14h47.10.378,comp,2024.2.4,58.077167524006676,2025-03-11 14h47.18.710413 -0400,
39,39,0,critical,dhw,20.0,4.0,lower,78.0,78.0,133.0,57.0,57.0,133.0,3,3.47995662689209,None,,,,,0,0,0,0,0,39,39,58,265.1294195652008,,,,,,,,,,,,,,,,,,,,,,,,,,,,,,,,,,,,,,,,,,,,,,,,,,,,,,,,,,,,,,,,,,,,,,,,,,,,,,,,,78.0,78.0,133.0,57.0,57.0,133.0,4.0,4.1,-164,-265,0,13,191,-270,265.10974955558777,265.1098849773407,265.11331248283386,265.1294195652008,265.2753539085388,265.2753539085388,265.2753539085388,265.2753539085388,265.2753539085388,265.2753539085388,265.2753539085388,268.6219267845154,3,3.47995662689209,None,,,,,,,,,,,,,,,,,,231,1,2025-03-11_14h47.10.378,comp,2024.2.4,58.077167524006676,2025-03-11 14h47.18.710413 -0400,
40,40,0,critical,hdw,20.0,3.0,upper,200.0,125.0,141.0,141.0,125.0,200.0,1,2.9395205974578857,None,,,,,0,0,0,0,0,40,40,117,268.6381850242615,,,,,,,,,,,,,,,,,,,,,,,,,,,,,,,,,,,,,,,,,,,,,,,,,,,,,,,,,,,,,,,,,,,,,,,,,,,,,,,,,200.0,125.0,141.0,141.0,125.0,200.0,3.0,3.2,-229,-289,0,-19,266,255,268.62337589263916,268.6234521865845,268.6264736652374,268.6381850242615,268.77653217315674,268.77653217315674,268.77653217315674,268.77653217315674,268.77653217315674,268.77653217315674,268.77653217315674,271.5833179950714,1,2.9395205974578857,None,,,,,,,,,,,,,,,,,,231,1,2025-03-11_14h47.10.378,comp,2024.2.4,58.077167524006676,2025-03-11 14h47.18.710413 -0400,
41,41,0,critical,wdh,20.0,4.0,lower,57.0,133.0,78.0,78.0,133.0,57.0,3,4.042480945587158,None,,,,,0,0,0,0,0,41,41,82,271.5987730026245,,,,,,,,,,,,,,,,,,,,,,,,,,,,,,,,,,,,,,,,,,,,,,,,,,,,,,,,,,,,,,,,,,,,,,,,,,,,,,,,,57.0,133.0,78.0,78.0,133.0,57.0,4.0,4.2,-202,-11,0,-289,164,-19,271.58484506607056,271.58492398262024,271.5879864692688,271.5987730026245,271.7436547279358,271.7436547279358,271.7436547279358,271.7436547279358,271.7436547279358,271.7436547279358,271.7436547279358,275.64451456069946,3,4.042480945587158,None,,,,,,,,,,,,,,,,,,231,1,2025-03-11_14h47.10.378,comp,2024.2.4,58.077167524006676,2025-03-11 14h47.18.710413 -0400,
42,42,0,critical,whd,20.0,3.0,lower,57.0,133.0,133.0,57.0,78.0,78.0,1,4.748402118682861,None,,,,,0,0,0,0,0,42,42,92,275.6613059043884,,,,,,,,,,,,,,,,,,,,,,,,,,,,,,,,,,,,,,,,,,,,,,,,,,,,,,,,,,,,,,,,,,,,,,,,,,,,,,,,,57.0,133.0,133.0,57.0,78.0,78.0,3.0,3.1,-191,275,0,7,164,-275,275.64606618881226,275.64614486694336,275.65040397644043,275.6613059043884,275.8095335960388,275.8095335960388,275.8095335960388,275.8095335960388,275.8095335960388,275.8095335960388,275.8095335960388,280.41214632987976,1,4.748402118682861,None,,,,,,,,,,,,,,,,,,231,1,2025-03-11_14h47.10.378,comp,2024.2.4,58.077167524006676,2025-03-11 14h47.18.710413 -0400,
43,43,0,filler_random,None,None,None,None,None,None,None,None,None,None,2,3.483450412750244,None,,,,,0,0,0,0,0,43,43,163,280.43010115623474,,,,,,,,,,,,,,,,,,,,,,,,,,,,,,,,,,,,,,,,,,,,,,,,,,,,,,,,,,,,,,,,,,,,,,,,,,,,,,,,,150.07471395669432,152.73488459562873,182.58477308598748,101.73056991086115,98.21243840140458,144.61990084086625,2.1,2.12,-223,-282,0,-279,219,279,280.4138813018799,280.4139609336853,280.41704177856445,280.43010115623474,280.5805068016052,280.5805068016052,280.5805068016052,280.5805068016052,280.5805068016052,280.5805068016052,280.5805068016052,283.9179718494415,2,3.483450412750244,None,,,,,,,,,,,,,,,,,,231,1,2025-03-11_14h47.10.378,comp,2024.2.4,58.077167524006676,2025-03-11 14h47.18.710413 -0400,
44,44,0,critical,hdw,20.0,1.0,lower,133.0,57.0,78.0,78.0,57.0,133.0,1,2.8097145557403564,None,,,,,0,0,0,0,0,44,44,114,283.9356851577759,,,,,,,,,,,,,,,,,,,,,,,,,,,,,,,,,,,,,,,,,,,,,,,,,,,,,,,,,,,,,,,,,,,,,,,,,,,,,,,,,133.0,57.0,78.0,78.0,57.0,133.0,1.0,1.1,-644,267,-480,288,-278,287,283.9195785522461,283.919659614563,283.9227182865143,283.9356851577759,284.0800428390503,284.0800428390503,284.0800428390503,284.0800428390503,284.0800428390503,284.0800428390503,284.0800428390503,286.7639944553375,1,2.8097145557403564,None,,,,,,,,,,,,,,,,,,231,1,2025-03-11_14h47.10.378,comp,2024.2.4,58.077167524006676,2025-03-11 14h47.18.710413 -0400,
45,45,0,critical,wdh,20.0,2.1,upper,125.0,200.0,141.0,141.0,200.0,125.0,1,4.389147758483887,None,,,,,0,0,0,0,0,45,45,11,286.78031611442566,,,,,,,,,,,,,,,,,,,,,,,,,,,,,,,,,,,,,,,,,,,,,,,,,,,,,,,,,,,,,,,,,,,,,,,,,,,,,,,,,125.0,200.0,141.0,141.0,200.0,125.0,2.1,2.12,-266,-269,0,-260,229,261,286.76571917533875,286.7658312320709,286.7692394256592,286.78031611442566,286.93093037605286,286.93093037605286,286.93093037605286,286.93093037605286,286.93093037605286,286.93093037605286,286.93093037605286,291.1834638118744,1,4.389147758483887,None,,,,,,,,,,,,,,,,,,231,1,2025-03-11_14h47.10.378,comp,2024.2.4,58.077167524006676,2025-03-11 14h47.18.710413 -0400,
46,46,0,filler_square,None,None,None,None,None,None,None,None,None,None,3,3.0891623497009277,None,,,,,0,0,0,0,0,46,46,192,291.20022201538086,,,,,,,,,,,,,,,,,,,,,,,,,,,,,,,,,,,,,,,,,,,,,,,,,,,,,,,,,,,,,,,,,,,,,,,,,,,,,,,,,108.35799701688572,96.52950039748708,108.40962074890112,75.73939428332199,110.53332821647699,110.53332821647699,4.0,4.1,-182,-283,0,-13,189,-281,291.18530344963074,291.1853804588318,291.18865180015564,291.20022201538086,291.3487195968628,291.3487195968628,291.3487195968628,291.3487195968628,291.3487195968628,291.3487195968628,291.3487195968628,294.3023045063019,3,3.0891623497009277,None,,,,,,,,,,,,,,,,,,231,1,2025-03-11_14h47.10.378,comp,2024.2.4,58.077167524006676,2025-03-11 14h47.18.710413 -0400,
47,47,0,critical,hwd,20.0,1.0,lower,133.0,57.0,57.0,133.0,78.0,78.0,1,3.5245916843414307,None,,,,,0,0,0,0,0,47,47,102,294.3176028728485,,,,,,,,,,,,,,,,,,,,,,,,,,,,,,,,,,,,,,,,,,,,,,,,,,,,,,,,,,,,,,,,,,,,,,,,,,,,,,,,,133.0,57.0,57.0,133.0,78.0,78.0,1.0,1.3,289,-272,480,-286,682,-260,294.3039288520813,294.30402851104736,294.3073196411133,294.3176028728485,294.46885776519775,294.46885776519775,294.46885776519775,294.46885776519775,294.46885776519775,294.46885776519775,294.46885776519775,297.85184264183044,1,3.5245916843414307,None,,,,,,,,,,,,,,,,,,231,1,2025-03-11_14h47.10.378,comp,2024.2.4,58.077167524006676,2025-03-11 14h47.18.710413 -0400,
48,48,0,filler_square,None,None,None,None,None,None,None,None,None,None,3,3.077033281326294,None,,,,,0,0,0,0,0,48,48,201,297.8693816661835,,,,,,,,,,,,,,,,,,,,,,,,,,,,,,,,,,,,,,,,,,,,,,,,,,,,,,,,,,,,,,,,,,,,,,,,,,,,,,,,,129.21876610907015,115.53749975465095,66.72022222176449,149.0126984208061,156.19200668899884,156.19200668899884,2.2,2.21,-228,-254,0,268,249,280,297.85376715660095,297.85387206077576,297.85801553726196,297.8693816661835,298.02237844467163,298.02237844467163,298.02237844467163,298.02237844467163,298.02237844467163,298.02237844467163,298.02237844467163,300.95298886299133,3,3.077033281326294,None,,,,,,,,,,,,,,,,,,231,1,2025-03-11_14h47.10.378,comp,2024.2.4,58.077167524006676,2025-03-11 14h47.18.710413 -0400,
49,49,0,catch,None,None,None,None,None,None,None,None,None,None,2,1.5440936088562012,None,,,,,0,0,0,0,0,49,49,121,300.9696111679077,,,,,,,,,,,,,,,,,,,,,,,,,,,,,,,,,,,,,,,,,,,,,,,,,,,,,,,,,,,,,,,,,,,,,,,,,,,,,,,,,103,87,132,193,99,91,3.0,3.1,-236,252,0,-3,238,-271,300.95492243766785,300.9550025463104,300.9580457210541,300.9696111679077,301.1221959590912,301.1221959590912,301.1221959590912,301.1221959590912,301.1221959590912,301.1221959590912,301.1221959590912,302.51823830604553,2,1.5440936088562012,None,,,,,,,,,,,,,,,,,,231,1,2025-03-11_14h47.10.378,comp,2024.2.4,58.077167524006676,2025-03-11 14h47.18.710413 -0400,
50,50,0,critical,hdw,20.0,2.1,upper,200.0,125.0,141.0,141.0,125.0,200.0,3,5.882280349731445,None,,,,,0,0,0,0,0,50,50,47,302.53501772880554,,,,,,,,,,,,,,,,,,,,,,,,,,,,,,,,,,,,,,,,,,,,,,,,,,,,,,,,,,,,,,,,,,,,,,,,,,,,,,,,,200.0,125.0,141.0,141.0,125.0,200.0,2.1,2.11,-229,255,0,271,266,-276,302.5197641849518,302.51986503601074,302.5231087207794,302.53501772880554,302.6888544559479,302.6888544559479,302.6888544559479,302.6888544559479,302.6888544559479,302.6888544559479,302.6888544559479,308.42923402786255,3,5.882280349731445,None,,,,,,,,,,,,,,,,,,231,1,2025-03-11_14h47.10.378,comp,2024.2.4,58.077167524006676,2025-03-11 14h47.18.710413 -0400,
51,51,0,critical,hwd,35.0,3.0,lower,133.0,57.0,57.0,133.0,70.0,70.0,2,2.009549140930176,None,,,,,0,0,0,0,0,51,51,98,308.44785594940186,,,,,,,,,,,,,,,,,,,,,,,,,,,,,,,,,,,,,,,,,,,,,,,,,,,,,,,,,,,,,,,,,,,,,,,,,,,,,,,,,133.0,57.0,57.0,133.0,70.0,70.0,3.0,3.1,-191,276,0,6,198,-262,308.43101382255554,308.43109345436096,308.43461322784424,308.44785594940186,308.5896029472351,308.5896029472351,308.5896029472351,308.5896029472351,308.5896029472351,308.5896029472351,308.5896029472351,310.47210454940796,2,2.009549140930176,None,,,,,,,,,,,,,,,,,,231,1,2025-03-11_14h47.10.378,comp,2024.2.4,58.077167524006676,2025-03-11 14h47.18.710413 -0400,
52,52,0,critical,dwh,35.0,1.0,lower,70.0,70.0,57.0,133.0,133.0,57.0,2,2.9048681259155273,None,,,,,0,0,0,0,0,52,52,60,310.48830914497375,,,,,,,,,,,,,,,,,,,,,,,,,,,,,,,,,,,,,,,,,,,,,,,,,,,,,,,,,,,,,,,,,,,,,,,,,,,,,,,,,70.0,70.0,57.0,133.0,133.0,57.0,1.0,1.1,-678,261,-480,261,-289,265,310.47370171546936,310.47377943992615,310.47800731658936,310.48830914497375,310.63777470588684,310.63777470588684,310.63777470588684,310.63777470588684,310.63777470588684,310.63777470588684,310.63777470588684,313.40549302101135,2,2.9048681259155273,None,,,,,,,,,,,,,,,,,,231,1,2025-03-11_14h47.10.378,comp,2024.2.4,58.077167524006676,2025-03-11 14h47.18.710413 -0400,
53,53,0,critical,wdh,35.0,4.0,upper,125.0,200.0,127.0,127.0,200.0,125.0,3,3.17160701751709,None,,,,,0,0,0,0,0,53,53,77,313.4216947555542,,,,,,,,,,,,,,,,,,,,,,,,,,,,,,,,,,,,,,,,,,,,,,,,,,,,,,,,,,,,,,,,,,,,,,,,,,,,,,,,,125.0,200.0,127.0,127.0,200.0,125.0,4.0,4.2,-260,12,0,-261,222,-20,313.4070723056793,313.40714955329895,313.4103755950928,313.4216947555542,313.5773856639862,313.5773856639862,313.5773856639862,313.5773856639862,313.5773856639862,313.5773856639862,313.5773856639862,316.6095325946808,3,3.17160701751709,None,,,,,,,,,,,,,,,,,,231,1,2025-03-11_14h47.10.378,comp,2024.2.4,58.077167524006676,2025-03-11 14h47.18.710413 -0400,
54,54,0,filler_square,None,None,None,None,None,None,None,None,None,None,1,4.688642740249634,None,,,,,0,0,0,0,0,54,54,193,316.62520122528076,,,,,,,,,,,,,,,,,,,,,,,,,,,,,,,,,,,,,,,,,,,,,,,,,,,,,,,,,,,,,,,,,,,,,,,,,,,,,,,,,66.9287139697852,57.42059085951972,67.54069022816891,67.54069022816891,64.18817377238014,59.37919192832538,2.1,2.12,-158,-263,0,-269,159,257,316.6114168167114,316.61149621009827,316.6149106025696,316.62520122528076,316.7700831890106,316.7700831890106,316.7700831890106,316.7700831890106,316.7700831890106,316.7700831890106,316.7700831890106,321.32529616355896,1,4.688642740249634,None,,,,,,,,,,,,,,,,,,231,1,2025-03-11_14h47.10.378,comp,2024.2.4,58.077167524006676,2025-03-11 14h47.18.710413 -0400,
55,55,0,filler_random,None,None,None,None,None,None,None,None,None,None,2,3.379253387451172,None,,,,,0,0,0,0,0,55,55,161,321.3429870605469,,,,,,,,,,,,,,,,,,,,,,,,,,,,,,,,,,,,,,,,,,,,,,,,,,,,,,,,,,,,,,,,,,,,,,,,,,,,,,,,,57.24520154362667,159.7054794364695,97.627570996962,130.29657555386538,82.09060898690609,57.09044828445841,2.1,2.12,-241,-261,0,-261,190,278,321.32701539993286,321.3270962238312,321.33137917518616,321.3429870605469,321.49094247817993,321.49094247817993,321.49094247817993,321.49094247817993,321.49094247817993,321.49094247817993,321.49094247817993,324.7292950153351,2,3.379253387451172,None,,,,,,,,,,,,,,,,,,231,1,2025-03-11_14h47.10.378,comp,2024.2.4,58.077167524006676,2025-03-11 14h47.18.710413 -0400,
56,56,0,critical,wdh,35.0,4.0,lower,57.0,133.0,70.0,70.0,133.0,57.0,3,2.1630795001983643,None,,,,,0,0,0,0,0,56,56,76,324.7504835128784,,,,,,,,,,,,,,,,,,,,,,,,,,,,,,,,,,,,,,,,,,,,,,,,,,,,,,,,,,,,,,,,,,,,,,,,,,,,,,,,,57.0,133.0,70.0,70.0,133.0,57.0,4.0,4.1,-198,-266,0,3,160,-252,324.73106122016907,324.73120188713074,324.73464727401733,324.7504835128784,324.8980839252472,324.8980839252472,324.8980839252472,324.8980839252472,324.8980839252472,324.8980839252472,324.8980839252472,326.9275658130646,3,2.1630795001983643,None,,,,,,,,,,,,,,,,,,231,1,2025-03-11_14h47.10.378,comp,2024.2.4,58.077167524006676,2025-03-11 14h47.18.710413 -0400,
57,57,0,filler_random,None,None,None,None,None,None,None,None,None,None,2,5.3074867725372314,None,,,,,0,0,0,0,0,57,57,143,326.94305205345154,,,,,,,,,,,,,,,,,,,,,,,,,,,,,,,,,,,,,,,,,,,,,,,,,,,,,,,,,,,,,,,,,,,,,,,,,,,,,,,,,125.37976565980678,114.05446596124972,150.56133999517442,85.01826024331646,131.05172169482114,124.5812887814022,1.0,1.1,-676,267,-480,279,-279,283,326.929247379303,326.92932891845703,326.93276500701904,326.94305205345154,327.0963101387024,327.0963101387024,327.0963101387024,327.0963101387024,327.0963101387024,327.0963101387024,327.0963101387024,332.27196311950684,2,5.3074867725372314,None,,,,,,,,,,,,,,,,,,231,1,2025-03-11_14h47.10.378,comp,2024.2.4,58.077167524006676,2025-03-11 14h47.18.710413 -0400,
58,58,0,critical,wdh,20.0,1.0,upper,125.0,200.0,141.0,141.0,200.0,125.0,1,6.438192129135132,None,,,,,0,0,0,0,0,58,58,79,332.291880607605,,,,,,,,,,,,,,,,,,,,,,,,,,,,,,,,,,,,,,,,,,,,,,,,,,,,,,,,,,,,,,,,,,,,,,,,,,,,,,,,,125.0,200.0,141.0,141.0,200.0,125.0,1.0,1.1,-746,276,-480,258,-251,272,332.27346873283386,332.273544549942,332.27658343315125,332.291880607605,332.4282944202423,332.4282944202423,332.4282944202423,332.4282944202423,332.4282944202423,332.4282944202423,332.4282944202423,338.7331233024597,1,6.438192129135132,None,,,,,,,,,,,,,,,,,,231,1,2025-03-11_14h47.10.378,comp,2024.2.4,58.077167524006676,2025-03-11 14h47.18.710413 -0400,
59,59,0,filler_random,None,None,None,None,None,None,None,None,None,None,1,1.2370493412017822,None,,,,,0,0,0,0,0,59,59,132,338.75077724456787,,,,,,,,,,,,,,,,,,,,,,,,,,,,,,,,,,,,,,,,,,,,,,,,,,,,,,,,,,,,,,,,,,,,,,,,,,,,,,,,,175.78290037006343,192.41821729717827,124.42909416851295,67.98080870007448,181.9425035209698,123.59996046339619,3.0,3.1,-226,256,0,2,192,-282,338.7351920604706,338.7352731227875,338.739061832428,338.75077724456787,338.89669370651245,338.89669370651245,338.89669370651245,338.89669370651245,338.89669370651245,338.89669370651245,338.89669370651245,339.99898409843445,1,1.2370493412017822,None,,,,,,,,,,,,,,,,,,231,1,2025-03-11_14h47.10.378,comp,2024.2.4,58.077167524006676,2025-03-11 14h47.18.710413 -0400,
60,60,0,filler_random,None,None,None,None,None,None,None,None,None,None,1,1.4503517150878906,None,,,,,0,0,0,0,0,60,60,155,340.0156419277191,,,,,,,,,,,,,,,,,,,,,,,,,,,,,,,,,,,,,,,,,,,,,,,,,,,,,,,,,,,,,,,,,,,,,,,,,,,,,,,,,164.42140054911647,180.99291791484382,174.48521295201186,154.95353223577303,177.7977111816224,147.2936307984264,4.0,4.1,-264,-252,0,14,247,-283,340.00073170661926,340.0008933544159,340.00490164756775,340.0156419277191,340.1680209636688,340.1680209636688,340.1680209636688,340.1680209636688,340.1680209636688,340.1680209636688,340.1680209636688,341.4826033115387,1,1.4503517150878906,None,,,,,,,,,,,,,,,,,,231,1,2025-03-11_14h47.10.378,comp,2024.2.4,58.077167524006676,2025-03-11 14h47.18.710413 -0400,
61,61,0,filler_square,None,None,None,None,None,None,None,None,None,None,2,1.6775121688842773,None,,,,,0,0,0,0,0,61,61,183,341.499963760376,,,,,,,,,,,,,,,,,,,,,,,,,,,,,,,,,,,,,,,,,,,,,,,,,,,,,,,,,,,,,,,,,,,,,,,,,,,,,,,,,102.25682148138878,110.51195928881953,134.9529177209007,134.9529177209007,68.03818963343919,85.91343246498118,2.1,2.12,-219,-257,0,-273,206,275,341.48470544815063,341.4848153591156,341.4885494709015,341.499963760376,341.6482675075531,341.6482675075531,341.6482675075531,341.6482675075531,341.6482675075531,341.6482675075531,341.6482675075531,343.18373465538025,2,1.6775121688842773,None,,,,,,,,,,,,,,,,,,231,1,2025-03-11_14h47.10.378,comp,2024.2.4,58.077167524006676,2025-03-11 14h47.18.710413 -0400,
62,62,0,critical,whd,20.0,2.1,upper,125.0,200.0,200.0,125.0,141.0,141.0,2,2.5115811824798584,None,,,,,0,0,0,0,0,62,62,15,343.2022635936737,,,,,,,,,,,,,,,,,,,,,,,,,,,,,,,,,,,,,,,,,,,,,,,,,,,,,,,,,,,,,,,,,,,,,,,,,,,,,,,,,125.0,200.0,200.0,125.0,141.0,141.0,2.1,2.12,-258,-269,0,-271,229,268,343.1855103969574,343.18559193611145,343.18875312805176,343.2022635936737,343.349081993103,343.349081993103,343.349081993103,343.349081993103,343.349081993103,343.349081993103,343.349081993103,345.7225935459137,2,2.5115811824798584,None,,,,,,,,,,,,,,,,,,231,1,2025-03-11_14h47.10.378,comp,2024.2.4,58.077167524006676,2025-03-11 14h47.18.710413 -0400,
63,63,0,filler_square,None,None,None,None,None,None,None,None,None,None,3,2.0389013290405273,None,,,,,0,0,0,0,0,63,63,202,345.7392978668213,,,,,,,,,,,,,,,,,,,,,,,,,,,,,,,,,,,,,,,,,,,,,,,,,,,,,,,,,,,,,,,,,,,,,,,,,,,,,,,,,70.02669767511475,58.01421200210777,89.7658921949413,89.7658921949413,78.05547118779953,88.22616205402738,2.1,2.11,-170,255,0,273,185,-274,345.72447872161865,345.72455763816833,345.72762298583984,345.7392978668213,345.8842120170593,345.8842120170593,345.8842120170593,345.8842120170593,345.8842120170593,345.8842120170593,345.8842120170593,347.7840518951416,3,2.0389013290405273,None,,,,,,,,,,,,,,,,,,231,1,2025-03-11_14h47.10.378,comp,2024.2.4,58.077167524006676,2025-03-11 14h47.18.710413 -0400,
64,64,0,filler_square,None,None,None,None,None,None,None,None,None,None,2,1.3844738006591797,None,,,,,0,0,0,0,0,64,64,196,347.8009526729584,,,,,,,,,,,,,,,,,,,,,,,,,,,,,,,,,,,,,,,,,,,,,,,,,,,,,,,,,,,,,,,,,,,,,,,,,,,,,,,,,72.28097379351408,58.544803656995335,123.82392545139761,123.82392545139761,96.2523246698167,73.64595047976678,1.0,1.3,293,-270,480,-285,675,-260,347.7859420776367,347.7860231399536,347.7901465892792,347.8009526729584,347.9498977661133,347.9498977661133,347.9498977661133,347.9498977661133,347.9498977661133,347.9498977661133,347.9498977661133,349.2004816532135,2,1.3844738006591797,None,,,,,,,,,,,,,,,,,,231,1,2025-03-11_14h47.10.378,comp,2024.2.4,58.077167524006676,2025-03-11 14h47.18.710413 -0400,
65,65,0,filler_random,None,None,None,None,None,None,None,None,None,None,2,5.6110053062438965,None,,,,,0,0,0,0,0,65,65,168,349.21504187583923,,,,,,,,,,,,,,,,,,,,,,,,,,,,,,,,,,,,,,,,,,,,,,,,,,,,,,,,,,,,,,,,,,,,,,,,,,,,,,,,,128.7622742590538,67.56215520823397,145.34253427312058,137.15852791378063,74.63784557695816,148.83049142457605,2.1,2.11,-198,271,0,274,239,-252,349.2021930217743,349.2022705078125,349.2055802345276,349.21504187583923,349.3662085533142,349.3662085533142,349.3662085533142,349.3662085533142,349.3662085533142,349.3662085533142,349.3662085533142,354.836865901947,2,5.6110053062438965,None,,,,,,,,,,,,,,,,,,231,1,2025-03-11_14h47.10.378,comp,2024.2.4,58.077167524006676,2025-03-11 14h47.18.710413 -0400,
66,66,0,filler_square,None,None,None,None,None,None,None,None,None,None,2,4.819806337356567,None,,,,,0,0,0,0,0,66,66,203,354.8535759449005,,,,,,,,,,,,,,,,,,,,,,,,,,,,,,,,,,,,,,,,,,,,,,,,,,,,,,,,,,,,,,,,,,,,,,,,,,,,,,,,,66.70306911707215,89.1741487920697,91.5901823495485,91.5901823495485,89.37719620786986,79.96484698396358,1.0,1.3,294,-253,480,-274,662,-276,354.8387053012848,354.83885645866394,354.84282898902893,354.8535759449005,355.00191831588745,355.00191831588745,355.00191831588745,355.00191831588745,355.00191831588745,355.00191831588745,355.00191831588745,359.6931526660919,2,4.819806337356567,None,,,,,,,,,,,,,,,,,,231,1,2025-03-11_14h47.10.378,comp,2024.2.4,58.077167524006676,2025-03-11 14h47.18.710413 -0400,
67,67,0,critical,whd,20.0,4.0,upper,125.0,200.0,200.0,125.0,141.0,141.0,1,2.362891435623169,None,,,,,0,0,0,0,0,67,67,95,359.710568189621,,,,,,,,,,,,,,,,,,,,,,,,,,,,,,,,,,,,,,,,,,,,,,,,,,,,,,,,,,,,,,,,,,,,,,,,,,,,,,,,,125.0,200.0,200.0,125.0,141.0,141.0,4.0,4.1,-258,-269,0,18,229,-256,359.6946678161621,359.6947445869446,359.69788551330566,359.710568189621,359.8551959991455,359.8551959991455,359.8551959991455,359.8551959991455,359.8551959991455,359.8551959991455,359.8551959991455,362.0892479419708,1,2.362891435623169,None,,,,,,,,,,,,,,,,,,231,1,2025-03-11_14h47.10.378,comp,2024.2.4,58.077167524006676,2025-03-11 14h47.18.710413 -0400,
68,68,0,critical,dhw,20.0,2.1,lower,78.0,78.0,133.0,57.0,57.0,133.0,2,2.0971713066101074,None,,,,,0,0,0,0,0,68,68,26,362.10460567474365,,,,,,,,,,,,,,,,,,,,,,,,,,,,,,,,,,,,,,,,,,,,,,,,,,,,,,,,,,,,,,,,,,,,,,,,,,,,,,,,,78.0,78.0,133.0,57.0,57.0,133.0,2.1,2.11,-164,289,0,281,191,-250,362.09074807167053,362.090842962265,362.0943293571472,362.10460567474365,362.2506139278412,362.2506139278412,362.2506139278412,362.2506139278412,362.2506139278412,362.2506139278412,362.2506139278412,364.20719933509827,2,2.0971713066101074,None,,,,,,,,,,,,,,,,,,231,1,2025-03-11_14h47.10.378,comp,2024.2.4,58.077167524006676,2025-03-11 14h47.18.710413 -0400,
69,69,0,critical,wdh,35.0,2.1,upper,125.0,200.0,127.0,127.0,200.0,125.0,3,6.498109817504883,None,,,,,0,0,0,0,0,69,69,33,364.2237477302551,,,,,,,,,,,,,,,,,,,,,,,,,,,,,,,,,,,,,,,,,,,,,,,,,,,,,,,,,,,,,,,,,,,,,,,,,,,,,,,,,125.0,200.0,127.0,127.0,200.0,125.0,2.1,2.12,-260,-252,0,-254,222,268,364.20882844924927,364.20890831947327,364.2121102809906,364.2237477302551,364.371529340744,364.371529340744,364.371529340744,364.371529340744,364.371529340744,364.371529340744,364.371529340744,370.73992943763733,3,6.498109817504883,None,,,,,,,,,,,,,,,,,,231,1,2025-03-11_14h47.10.378,comp,2024.2.4,58.077167524006676,2025-03-11 14h47.18.710413 -0400,
70,70,0,filler_random,None,None,None,None,None,None,None,None,None,None,2,3.045799970626831,None,,,,,0,0,0,0,0,70,70,139,370.75634717941284,,,,,,,,,,,,,,,,,,,,,,,,,,,,,,,,,,,,,,,,,,,,,,,,,,,,,,,,,,,,,,,,,,,,,,,,,,,,,,,,,80.65857284826991,135.678874777342,188.8489318937056,140.831903976189,57.336770125907265,65.49624559318414,3.0,3.1,-234,263,0,10,199,-289,370.7416548728943,370.7417345046997,370.7449815273285,370.75634717941284,370.8976192474365,370.8976192474365,370.8976192474365,370.8976192474365,370.8976192474365,370.8976192474365,370.8976192474365,373.8094837665558,2,3.045799970626831,None,,,,,,,,,,,,,,,,,,231,1,2025-03-11_14h47.10.378,comp,2024.2.4,58.077167524006676,2025-03-11 14h47.18.710413 -0400,
71,71,0,critical,whd,35.0,4.0,lower,57.0,133.0,133.0,57.0,70.0,70.0,1,2.4475581645965576,None,,,,,0,0,0,0,0,71,71,88,373.825888633728,,,,,,,,,,,,,,,,,,,,,,,,,,,,,,,,,,,,,,,,,,,,,,,,,,,,,,,,,,,,,,,,,,,,,,,,,,,,,,,,,57.0,133.0,133.0,57.0,70.0,70.0,4.0,4.1,-191,-264,0,-12,160,-279,373.8111798763275,373.8113145828247,373.8149631023407,373.825888633728,373.98045563697815,373.98045563697815,373.98045563697815,373.98045563697815,373.98045563697815,373.98045563697815,373.98045563697815,376.29029965400696,1,2.4475581645965576,None,,,,,,,,,,,,,,,,,,231,1,2025-03-11_14h47.10.378,comp,2024.2.4,58.077167524006676,2025-03-11 14h47.18.710413 -0400,
72,72,0,filler_random,None,None,None,None,None,None,None,None,None,None,1,5.446145296096802,None,,,,,0,0,0,0,0,72,72,146,376.30789589881897,,,,,,,,,,,,,,,,,,,,,,,,,,,,,,,,,,,,,,,,,,,,,,,,,,,,,,,,,,,,,,,,,,,,,,,,,,,,,,,,,176.68737305115428,156.17394832471052,97.53674048477782,99.06823467905828,142.9801760648092,168.7547108048608,1.0,1.1,-704,288,-480,287,-250,253,376.29204392433167,376.29212069511414,376.29516768455505,376.30789589881897,376.4459505081177,376.4459505081177,376.4459505081177,376.4459505081177,376.4459505081177,376.4459505081177,376.4459505081177,381.75912404060364,1,5.446145296096802,None,,,,,,,,,,,,,,,,,,231,1,2025-03-11_14h47.10.378,comp,2024.2.4,58.077167524006676,2025-03-11 14h47.18.710413 -0400,
73,73,0,critical,dwh,35.0,3.0,lower,70.0,70.0,57.0,133.0,133.0,57.0,2,2.506988286972046,None,,,,,0,0,0,0,0,73,73,62,381.77466678619385,,,,,,,,,,,,,,,,,,,,,,,,,,,,,,,,,,,,,,,,,,,,,,,,,,,,,,,,,,,,,,,,,,,,,,,,,,,,,,,,,70.0,70.0,57.0,133.0,133.0,57.0,3.0,3.2,-198,-275,0,17,191,266,381.76061820983887,381.7606966495514,381.7637152671814,381.77466678619385,381.92027950286865,381.92027950286865,381.92027950286865,381.92027950286865,381.92027950286865,381.92027950286865,381.92027950286865,384.2837197780609,2,2.506988286972046,None,,,,,,,,,,,,,,,,,,231,1,2025-03-11_14h47.10.378,comp,2024.2.4,58.077167524006676,2025-03-11 14h47.18.710413 -0400,
74,74,0,filler_square,None,None,None,None,None,None,None,None,None,None,3,2.2808220386505127,None,,,,,0,0,0,0,0,74,74,174,384.30543637275696,,,,,,,,,,,,,,,,,,,,,,,,,,,,,,,,,,,,,,,,,,,,,,,,,,,,,,,,,,,,,,,,,,,,,,,,,,,,,,,,,132.6626375119616,108.01597273384965,121.45404978836201,115.57160467705991,171.60839018434177,171.60839018434177,4.0,4.1,-208,-272,0,-11,240,-286,384.28586649894714,384.28594613075256,384.28952193260193,384.30543637275696,384.4456708431244,384.4456708431244,384.4456708431244,384.4456708431244,384.4456708431244,384.4456708431244,384.4456708431244,386.5943467617035,3,2.2808220386505127,None,,,,,,,,,,,,,,,,,,231,1,2025-03-11_14h47.10.378,comp,2024.2.4,58.077167524006676,2025-03-11 14h47.18.710413 -0400,
75,75,0,critical,dwh,20.0,4.0,lower,78.0,78.0,57.0,133.0,133.0,57.0,3,1.6866798400878906,None,,,,,0,0,0,0,0,75,75,70,386.6109848022461,,,,,,,,,,,,,,,,,,,,,,,,,,,,,,,,,,,,,,,,,,,,,,,,,,,,,,,,,,,,,,,,,,,,,,,,,,,,,,,,,78.0,78.0,57.0,133.0,133.0,57.0,4.0,4.1,-202,-259,0,-17,191,-283,386.59593296051025,386.596063375473,386.59943318367004,386.6109848022461,386.76376128196716,386.76376128196716,386.76376128196716,386.76376128196716,386.76376128196716,386.76376128196716,386.76376128196716,388.29995799064636,3,1.6866798400878906,None,,,,,,,,,,,,,,,,,,231,1,2025-03-11_14h47.10.378,comp,2024.2.4,58.077167524006676,2025-03-11 14h47.18.710413 -0400,
76,76,0,filler_random,None,None,None,None,None,None,None,None,None,None,3,0.8994045257568359,None,,,,,0,0,0,0,0,76,76,150,388.31809425354004,,,,,,,,,,,,,,,,,,,,,,,,,,,,,,,,,,,,,,,,,,,,,,,,,,,,,,,,,,,,,,,,,,,,,,,,,,,,,,,,,104.65797927678697,89.54285420731537,108.36731162715344,90.58178235315873,151.842779942211,167.0786247306553,3.0,3.1,-186,271,0,16,225,-265,388.30184674263,388.30192852020264,388.30496859550476,388.31809425354004,388.4629318714142,388.4629318714142,388.4629318714142,388.4629318714142,388.4629318714142,388.4629318714142,388.4629318714142,389.2319269180298,3,0.8994045257568359,None,,,,,,,,,,,,,,,,,,231,1,2025-03-11_14h47.10.378,comp,2024.2.4,58.077167524006676,2025-03-11 14h47.18.710413 -0400,
77,77,0,filler_square,None,None,None,None,None,None,None,None,None,None,2,1.4802653789520264,None,,,,,0,0,0,0,0,77,77,173,389.24960112571716,,,,,,,,,,,,,,,,,,,,,,,,,,,,,,,,,,,,,,,,,,,,,,,,,,,,,,,,,,,,,,,,,,,,,,,,,,,,,,,,,59.15035683230689,68.27348247727384,76.9192441120281,76.9192441120281,67.72636461068404,70.01580547904716,4.0,4.1,-169,-287,0,18,169,-273,389.23391795158386,389.23399591445923,389.2371599674225,389.24960112571716,389.39784955978394,389.39784955978394,389.39784955978394,389.39784955978394,389.39784955978394,389.39784955978394,389.39784955978394,390.74731159210205,2,1.4802653789520264,None,,,,,,,,,,,,,,,,,,231,1,2025-03-11_14h47.10.378,comp,2024.2.4,58.077167524006676,2025-03-11 14h47.18.710413 -0400,
78,78,0,filler_square,None,None,None,None,None,None,None,None,None,None,3,8.77389669418335,None,,,,,0,0,0,0,0,78,78,184,390.7634356021881,,,,,,,,,,,,,,,,,,,,,,,,,,,,,,,,,,,,,,,,,,,,,,,,,,,,,,,,,,,,,,,,,,,,,,,,,,,,,,,,,81.22601950789253,130.41163283989653,180.3405047035189,180.3405047035189,179.9513733722063,170.21361336750968,1.0,1.1,-731,258,-480,272,-209,258,390.74922037124634,390.749299287796,390.7530744075775,390.7634356021881,390.90263271331787,390.90263271331787,390.90263271331787,390.90263271331787,390.90263271331787,390.90263271331787,390.90263271331787,399.54857540130615,3,8.77389669418335,None,,,,,,,,,,,,,,,,,,231,1,2025-03-11_14h47.10.378,comp,2024.2.4,58.077167524006676,2025-03-11 14h47.18.710413 -0400,
79,79,0,critical,dhw,35.0,2.1,upper,127.0,127.0,200.0,125.0,125.0,200.0,2,5.028210163116455,None,,,,,0,0,0,0,0,79,79,1,399.5653474330902,,,,,,,,,,,,,,,,,,,,,,,,,,,,,,,,,,,,,,,,,,,,,,,,,,,,,,,,,,,,,,,,,,,,,,,,,,,,,,,,,127.0,127.0,200.0,125.0,125.0,200.0,2.1,2.11,-222,269,0,287,258,-263,399.5501892566681,399.55026936531067,399.5535123348236,399.5653474330902,399.7169020175934,399.7169020175934,399.7169020175934,399.7169020175934,399.7169020175934,399.7169020175934,399.7169020175934,404.6099762916565,2,5.028210163116455,None,,,,,,,,,,,,,,,,,,231,1,2025-03-11_14h47.10.378,comp,2024.2.4,58.077167524006676,2025-03-11 14h47.18.710413 -0400,
80,80,0,critical,dhw,20.0,1.0,upper,141.0,141.0,200.0,125.0,125.0,200.0,3,4.427066802978516,None,,,,,0,0,0,0,0,80,80,55,404.630389213562,,,,,,,,,,,,,,,,,,,,,,,,,,,,,,,,,,,,,,,,,,,,,,,,,,,,,,,,,,,,,,,,,,,,,,,,,,,,,,,,,141.0,141.0,200.0,125.0,125.0,200.0,1.0,1.1,-709,285,-480,255,-222,262,404.61151337623596,404.6115927696228,404.61466932296753,404.630389213562,404.7689862251282,404.7689862251282,404.7689862251282,404.7689862251282,404.7689862251282,404.7689862251282,404.7689862251282,409.0686252117157,3,4.427066802978516,None,,,,,,,,,,,,,,,,,,231,1,2025-03-11_14h47.10.378,comp,2024.2.4,58.077167524006676,2025-03-11 14h47.18.710413 -0400,
81,81,0,critical,hwd,35.0,1.0,lower,133.0,57.0,57.0,133.0,70.0,70.0,1,6.218582630157471,None,,,,,0,0,0,0,0,81,81,96,409.08765983581543,,,,,,,,,,,,,,,,,,,,,,,,,,,,,,,,,,,,,,,,,,,,,,,,,,,,,,,,,,,,,,,,,,,,,,,,,,,,,,,,,133.0,57.0,57.0,133.0,70.0,70.0,1.0,1.2,-191,17,0,-7,198,0,409.0701410770416,409.0702199935913,409.0735251903534,409.08765983581543,409.2372031211853,409.2372031211853,409.2372031211853,409.2372031211853,409.2372031211853,409.2372031211853,409.2372031211853,415.3134009838104,1,6.218582630157471,None,,,,,,,,,,,,,,,,,,231,1,2025-03-11_14h47.10.378,comp,2024.2.4,58.077167524006676,2025-03-11 14h47.18.710413 -0400,
82,82,0,critical,hdw,35.0,2.1,upper,200.0,125.0,127.0,127.0,125.0,200.0,1,3.2009634971618652,None,,,,,0,0,0,0,0,82,82,21,415.32965421676636,,,,,,,,,,,,,,,,,,,,,,,,,,,,,,,,,,,,,,,,,,,,,,,,,,,,,,,,,,,,,,,,,,,,,,,,,,,,,,,,,200.0,125.0,127.0,127.0,125.0,200.0,2.1,2.12,-222,-274,0,-287,260,266,415.3150374889374,415.3151717185974,415.31859612464905,415.32965421676636,415.4729890823364,415.4729890823364,415.4729890823364,415.4729890823364,415.4729890823364,415.4729890823364,415.4729890823364,418.53842878341675,1,3.2009634971618652,None,,,,,,,,,,,,,,,,,,231,1,2025-03-11_14h47.10.378,comp,2024.2.4,58.077167524006676,2025-03-11 14h47.18.710413 -0400,
83,83,0,critical,hdw,20.0,4.0,upper,200.0,125.0,141.0,141.0,125.0,200.0,1,1.6319217681884766,None,,,,,0,0,0,0,0,83,83,119,418.55448508262634,,,,,,,,,,,,,,,,,,,,,,,,,,,,,,,,,,,,,,,,,,,,,,,,,,,,,,,,,,,,,,,,,,,,,,,,,,,,,,,,,200.0,125.0,141.0,141.0,125.0,200.0,4.0,4.1,-229,-278,0,-1,266,-282,418.5398919582367,418.53997015953064,418.54326939582825,418.55448508262634,418.70758843421936,418.70758843421936,418.70758843421936,418.70758843421936,418.70758843421936,418.70758843421936,418.70758843421936,420.1944167613983,1,1.6319217681884766,None,,,,,,,,,,,,,,,,,,231,1,2025-03-11_14h47.10.378,comp,2024.2.4,58.077167524006676,2025-03-11 14h47.18.710413 -0400,
84,84,0,critical,hdw,20.0,2.1,lower,133.0,57.0,78.0,78.0,57.0,133.0,3,2.085883140563965,None,,,,,0,0,0,0,0,84,84,46,420.21236419677734,,,,,,,,,,,,,,,,,,,,,,,,,,,,,,,,,,,,,,,,,,,,,,,,,,,,,,,,,,,,,,,,,,,,,,,,,,,,,,,,,133.0,57.0,78.0,78.0,57.0,133.0,2.1,2.12,-164,-250,0,-266,202,271,420.19604206085205,420.1961233615875,420.1992094516754,420.21236419677734,420.356440782547,420.356440782547,420.356440782547,420.356440782547,420.356440782547,420.356440782547,420.356440782547,422.3063473701477,3,2.085883140563965,None,,,,,,,,,,,,,,,,,,231,1,2025-03-11_14h47.10.378,comp,2024.2.4,58.077167524006676,2025-03-11 14h47.18.710413 -0400,
85,85,0,filler_random,None,None,None,None,None,None,None,None,None,None,3,1.8472907543182373,None,,,,,0,0,0,0,0,85,85,151,422.3231632709503,,,,,,,,,,,,,,,,,,,,,,,,,,,,,,,,,,,,,,,,,,,,,,,,,,,,,,,,,,,,,,,,,,,,,,,,,,,,,,,,,155.3090509595849,197.7141674911247,118.15596441185119,146.46060587546296,183.9056353006111,188.26904245071538,1.0,1.2,-268,14,0,6,263,4,422.3080439567566,422.3081238269806,422.3114540576935,422.3231632709503,422.47752833366394,422.47752833366394,422.47752833366394,422.47752833366394,422.47752833366394,422.47752833366394,422.47752833366394,424.17538046836853,3,1.8472907543182373,None,,,,,,,,,,,,,,,,,,231,1,2025-03-11_14h47.10.378,comp,2024.2.4,58.077167524006676,2025-03-11 14h47.18.710413 -0400,
86,86,0,filler_square,None,None,None,None,None,None,None,None,None,None,2,1.554290533065796,None,,,,,0,0,0,0,0,86,86,189,424.1911954879761,,,,,,,,,,,,,,,,,,,,,,,,,,,,,,,,,,,,,,,,,,,,,,,,,,,,,,,,,,,,,,,,,,,,,,,,,,,,,,,,,64.9546407775625,87.00356331604878,145.9449534894282,145.9449534894282,108.96264657873625,107.77032527066517,1.0,1.2,-212,-12,0,0,223,-2,424.17715883255005,424.17729115486145,424.18040442466736,424.1911954879761,424.34144496917725,424.34144496917725,424.34144496917725,424.34144496917725,424.34144496917725,424.34144496917725,424.34144496917725,425.7608723640442,2,1.554290533065796,None,,,,,,,,,,,,,,,,,,231,1,2025-03-11_14h47.10.378,comp,2024.2.4,58.077167524006676,2025-03-11 14h47.18.710413 -0400,
87,87,0,filler_random,None,None,None,None,None,None,None,None,None,None,1,2.448302745819092,None,,,,,0,0,0,0,0,87,87,145,425.7771453857422,,,,,,,,,,,,,,,,,,,,,,,,,,,,,,,,,,,,,,,,,,,,,,,,,,,,,,,,,,,,,,,,,,,,,,,,,,,,,,,,,194.98343150206142,134.70677026049003,77.96490178693809,96.42370457142678,163.89080187874535,145.56192833031926,1.0,1.3,268,-276,480,-274,697,-276,425.7629084587097,425.7629885673523,425.76680731773376,425.7771453857422,425.9218907356262,425.9218907356262,425.9218907356262,425.9218907356262,425.9218907356262,425.9218907356262,425.9218907356262,428.24373292922974,1,2.448302745819092,None,,,,,,,,,,,,,,,,,,231,1,2025-03-11_14h47.10.378,comp,2024.2.4,58.077167524006676,2025-03-11 14h47.18.710413 -0400,
88,88,0,filler_square,None,None,None,None,None,None,None,None,None,None,2,1.4614851474761963,None,,,,,0,0,0,0,0,88,88,207,428.2606556415558,,,,,,,,,,,,,,,,,,,,,,,,,,,,,,,,,,,,,,,,,,,,,,,,,,,,,,,,,,,,,,,,,,,,,,,,,,,,,,,,,68.17980295762334,81.05003023975917,179.97793823292906,179.97793823292906,162.04350911322052,153.95510901063676,1.0,1.1,-707,274,-480,289,-217,265,428.24587416648865,428.2459535598755,428.249751329422,428.2606556415558,428.40971755981445,428.40971755981445,428.40971755981445,428.40971755981445,428.40971755981445,428.40971755981445,428.40971755981445,429.7265274524689,2,1.4614851474761963,None,,,,,,,,,,,,,,,,,,231,1,2025-03-11_14h47.10.378,comp,2024.2.4,58.077167524006676,2025-03-11 14h47.18.710413 -0400,
89,89,0,filler_random,None,None,None,None,None,None,None,None,None,None,3,6.842212915420532,None,,,,,0,0,0,0,0,89,89,144,429.74323320388794,,,,,,,,,,,,,,,,,,,,,,,,,,,,,,,,,,,,,,,,,,,,,,,,,,,,,,,,,,,,,,,,,,,,,,,,,,,,,,,,,122.67703011317415,184.66861165852436,156.66675684123658,199.09456162814612,169.47237806530512,79.78171884752601,4.0,4.1,-288,-285,0,14,235,-273,429.72827911376953,429.7283594608307,429.7324695587158,429.74323320388794,429.89207577705383,429.89207577705383,429.89207577705383,429.89207577705383,429.89207577705383,429.89207577705383,429.89207577705383,436.59476590156555,3,6.842212915420532,None,,,,,,,,,,,,,,,,,,231,1,2025-03-11_14h47.10.378,comp,2024.2.4,58.077167524006676,2025-03-11 14h47.18.710413 -0400,
90,90,0,critical,hdw,20.0,1.0,upper,200.0,125.0,141.0,141.0,125.0,200.0,1,1.0625183582305908,None,,,,,0,0,0,0,0,90,90,115,436.61107659339905,,,,,,,,,,,,,,,,,,,,,,,,,,,,,,,,,,,,,,,,,,,,,,,,,,,,,,,,,,,,,,,,,,,,,,,,,,,,,,,,,200.0,125.0,141.0,141.0,125.0,200.0,1.0,1.2,-229,-17,0,-12,266,-3,436.59623622894287,436.5963134765625,436.5998320579529,436.61107659339905,436.76095962524414,436.76095962524414,436.76095962524414,436.76095962524414,436.76095962524414,436.76095962524414,436.76095962524414,437.68292713165283,1,1.0625183582305908,None,,,,,,,,,,,,,,,,,,231,1,2025-03-11_14h47.10.378,comp,2024.2.4,58.077167524006676,2025-03-11 14h47.18.710413 -0400,
91,91,0,critical,wdh,35.0,2.1,lower,57.0,133.0,70.0,70.0,133.0,57.0,3,6.3757569789886475,None,,,,,0,0,0,0,0,91,91,8,437.69917845726013,,,,,,,,,,,,,,,,,,,,,,,,,,,,,,,,,,,,,,,,,,,,,,,,,,,,,,,,,,,,,,,,,,,,,,,,,,,,,,,,,57.0,133.0,70.0,70.0,133.0,57.0,2.1,2.11,-198,265,0,288,160,-258,437.68475556373596,437.68495202064514,437.6883497238159,437.69917845726013,437.84564328193665,437.84564328193665,437.84564328193665,437.84564328193665,437.84564328193665,437.84564328193665,437.84564328193665,444.08148217201233,3,6.3757569789886475,None,,,,,,,,,,,,,,,,,,231,1,2025-03-11_14h47.10.378,comp,2024.2.4,58.077167524006676,2025-03-11 14h47.18.710413 -0400,
92,92,0,filler_random,None,None,None,None,None,None,None,None,None,None,2,3.2622625827789307,None,,,,,0,0,0,0,0,92,92,166,444.09920263290405,,,,,,,,,,,,,,,,,,,,,,,,,,,,,,,,,,,,,,,,,,,,,,,,,,,,,,,,,,,,,,,,,,,,,,,,,,,,,,,,,155.54765650762806,197.5707024969096,157.27685874621267,199.17256999922554,144.07965000423192,75.37485396098668,1.0,1.1,-774,255,-480,279,-247,283,444.0831904411316,444.0832688808441,444.0865499973297,444.09920263290405,444.2521138191223,444.2521138191223,444.2521138191223,444.2521138191223,444.2521138191223,444.2521138191223,444.2521138191223,447.36514472961426,2,3.2622625827789307,None,,,,,,,,,,,,,,,,,,231,1,2025-03-11_14h47.10.378,comp,2024.2.4,58.077167524006676,2025-03-11 14h47.18.710413 -0400,
93,93,0,catch,None,None,None,None,None,None,None,None,None,None,2,1.3638038635253906,None,,,,,0,0,0,0,0,93,93,122,447.382036447525,,,,,,,,,,,,,,,,,,,,,,,,,,,,,,,,,,,,,,,,,,,,,,,,,,,,,,,,,,,,,,,,,,,,,,,,,,,,,,,,,132,58,136,189,77,113,2.1,2.11,-220,284,0,282,247,-264,447.3671147823334,447.3671932220459,447.3713529109955,447.382036447525,447.53027606010437,447.53027606010437,447.53027606010437,447.53027606010437,447.53027606010437,447.53027606010437,447.53027606010437,448.7479364871979,2,1.3638038635253906,None,,,,,,,,,,,,,,,,,,231,1,2025-03-11_14h47.10.378,comp,2024.2.4,58.077167524006676,2025-03-11 14h47.18.710413 -0400,
94,94,0,filler_square,None,None,None,None,None,None,None,None,None,None,1,4.058068752288818,None,,,,,0,0,0,0,0,94,94,209,448.7681224346161,,,,,,,,,,,,,,,,,,,,,,,,,,,,,,,,,,,,,,,,,,,,,,,,,,,,,,,,,,,,,,,,,,,,,,,,,,,,,,,,,79.0466095804528,79.0466095804528,62.55918589448982,70.24252143948664,61.1934434990944,74.43920194590522,3.0,3.1,-171,290,0,20,168,-284,448.74972772598267,448.7498571872711,448.75298142433167,448.7681224346161,448.9213447570801,448.9213447570801,448.9213447570801,448.9213447570801,448.9213447570801,448.9213447570801,448.9213447570801,452.83252930641174,1,4.058068752288818,None,,,,,,,,,,,,,,,,,,231,1,2025-03-11_14h47.10.378,comp,2024.2.4,58.077167524006676,2025-03-11 14h47.18.710413 -0400,
95,95,0,filler_square,None,None,None,None,None,None,None,None,None,None,3,1.561551809310913,None,,,,,0,0,0,0,0,95,95,175,452.848739862442,,,,,,,,,,,,,,,,,,,,,,,,,,,,,,,,,,,,,,,,,,,,,,,,,,,,,,,,,,,,,,,,,,,,,,,,,,,,,,,,,116.71181922994063,104.87635452706697,67.05022562373044,96.3446665070096,142.02972729665032,142.02972729665032,1.0,1.1,-677,271,-480,281,-265,282,452.8343517780304,452.83443093299866,452.8380379676819,452.848739862442,452.9995610713959,452.9995610713959,452.9995610713959,452.9995610713959,452.9995610713959,452.9995610713959,452.9995610713959,454.4162600040436,3,1.561551809310913,None,,,,,,,,,,,,,,,,,,231,1,2025-03-11_14h47.10.378,comp,2024.2.4,58.077167524006676,2025-03-11 14h47.18.710413 -0400,
96,96,0,critical,dhw,35.0,2.1,lower,70.0,70.0,133.0,57.0,57.0,133.0,2,1.8240327835083008,None,,,,,0,0,0,0,0,96,96,0,454.4334352016449,,,,,,,,,,,,,,,,,,,,,,,,,,,,,,,,,,,,,,,,,,,,,,,,,,,,,,,,,,,,,,,,,,,,,,,,,,,,,,,,,70.0,70.0,133.0,57.0,57.0,133.0,2.1,2.11,-160,288,0,276,191,-264,454.41773104667664,454.41782903671265,454.4209568500519,454.4334352016449,454.5864441394806,454.5864441394806,454.5864441394806,454.5864441394806,454.5864441394806,454.5864441394806,454.5864441394806,456.26965618133545,2,1.8240327835083008,None,,,,,,,,,,,,,,,,,,231,1,2025-03-11_14h47.10.378,comp,2024.2.4,58.077167524006676,2025-03-11 14h47.18.710413 -0400,
97,97,0,critical,whd,35.0,4.0,upper,125.0,200.0,200.0,125.0,127.0,127.0,1,2.8876993656158447,None,,,,,0,0,0,0,0,97,97,89,456.2905275821686,,,,,,,,,,,,,,,,,,,,,,,,,,,,,,,,,,,,,,,,,,,,,,,,,,,,,,,,,,,,,,,,,,,,,,,,,,,,,,,,,125.0,200.0,200.0,125.0,127.0,127.0,4.0,4.2,-258,2,0,-257,222,-3,456.27129459381104,456.27142119407654,456.27469992637634,456.2905275821686,456.4343557357788,456.4343557357788,456.4343557357788,456.4343557357788,456.4343557357788,456.4343557357788,456.4343557357788,459.18542742729187,1,2.8876993656158447,None,,,,,,,,,,,,,,,,,,231,1,2025-03-11_14h47.10.378,comp,2024.2.4,58.077167524006676,2025-03-11 14h47.18.710413 -0400,
98,98,0,filler_random,None,None,None,None,None,None,None,None,None,None,3,2.6754770278930664,None,,,,,0,0,0,0,0,98,98,157,459.20036005973816,,,,,,,,,,,,,,,,,,,,,,,,,,,,,,,,,,,,,,,,,,,,,,,,,,,,,,,,,,,,,,,,,,,,,,,,,,,,,,,,,165.64040049656438,68.56307214192566,121.14212583298259,98.68392228951996,121.11184438180963,187.73512138408643,1.0,1.3,300,-277,480,-278,719,-276,459.1872570514679,459.1873359680176,459.1908142566681,459.20036005973816,459.3534252643585,459.3534252643585,459.3534252643585,459.3534252643585,459.3534252643585,459.3534252643585,459.3534252643585,461.88687562942505,3,2.6754770278930664,None,,,,,,,,,,,,,,,,,,231,1,2025-03-11_14h47.10.378,comp,2024.2.4,58.077167524006676,2025-03-11 14h47.18.710413 -0400,
99,99,0,critical,dhw,35.0,1.0,lower,70.0,70.0,133.0,57.0,57.0,133.0,3,2.4505884647369385,None,,,,,0,0,0,0,0,99,99,48,461.9032142162323,,,,,,,,,,,,,,,,,,,,,,,,,,,,,,,,,,,,,,,,,,,,,,,,,,,,,,,,,,,,,,,,,,,,,,,,,,,,,,,,,70.0,70.0,133.0,57.0,57.0,133.0,1.0,1.3,320,-289,480,-279,671,-251,461.88853096961975,461.8886640071869,461.8923063278198,461.9032142162323,462.0580687522888,462.0580687522888,462.0580687522888,462.0580687522888,462.0580687522888,462.0580687522888,462.0580687522888,464.3574364185333,3,2.4505884647369385,None,,,,,,,,,,,,,,,,,,231,1,2025-03-11_14h47.10.378,comp,2024.2.4,58.077167524006676,2025-03-11 14h47.18.710413 -0400,
100,100,0,critical,whd,35.0,2.1,lower,57.0,133.0,133.0,57.0,70.0,70.0,2,7.216085195541382,None,,,,,0,0,0,0,0,100,100,12,464.3773307800293,,,,,,,,,,,,,,,,,,,,,,,,,,,,,,,,,,,,,,,,,,,,,,,,,,,,,,,,,,,,,,,,,,,,,,,,,,,,,,,,,57.0,133.0,133.0,57.0,70.0,70.0,2.1,2.11,-191,253,0,262,160,-262,464.35915637016296,464.35923528671265,464.36234736442566,464.3773307800293,464.52006316185,464.52006316185,464.52006316185,464.52006316185,464.52006316185,464.52006316185,464.52006316185,471.60638546943665,2,7.216085195541382,None,,,,,,,,,,,,,,,,,,231,1,2025-03-11_14h47.10.378,comp,2024.2.4,58.077167524006676,2025-03-11 14h47.18.710413 -0400,
101,101,0,filler_random,None,None,None,None,None,None,None,None,None,None,1,3.2828502655029297,None,,,,,0,0,0,0,0,101,101,149,471.62295389175415,,,,,,,,,,,,,,,,,,,,,,,,,,,,,,,,,,,,,,,,,,,,,,,,,,,,,,,,,,,,,,,,,,,,,,,,,,,,,,,,,193.7794791226294,143.2170883746988,148.01002264304378,172.20398712198948,113.18065276143423,185.88858949382654,2.2,2.22,-254,277,0,-281,275,-274,471.6081302165985,471.60821056365967,471.6114423274994,471.62295389175415,471.7724657058716,471.7724657058716,471.7724657058716,471.7724657058716,471.7724657058716,471.7724657058716,471.7724657058716,474.9237096309662,1,3.2828502655029297,None,,,,,,,,,,,,,,,,,,231,1,2025-03-11_14h47.10.378,comp,2024.2.4,58.077167524006676,2025-03-11 14h47.18.710413 -0400,
102,102,0,critical,whd,20.0,4.0,lower,57.0,133.0,133.0,57.0,78.0,78.0,2,4.501901149749756,None,,,,,0,0,0,0,0,102,102,94,474.9398760795593,,,,,,,,,,,,,,,,,,,,,,,,,,,,,,,,,,,,,,,,,,,,,,,,,,,,,,,,,,,,,,,,,,,,,,,,,,,,,,,,,57.0,133.0,133.0,57.0,78.0,78.0,4.0,4.2,-191,17,0,-284,164,12,474.9252893924713,474.92536902427673,474.9295582771301,474.9398760795593,475.08754777908325,475.08754777908325,475.08754777908325,475.08754777908325,475.08754777908325,475.08754777908325,475.08754777908325,479.4583787918091,2,4.501901149749756,None,,,,,,,,,,,,,,,,,,231,1,2025-03-11_14h47.10.378,comp,2024.2.4,58.077167524006676,2025-03-11 14h47.18.710413 -0400,
103,103,0,filler_random,None,None,None,None,None,None,None,None,None,None,1,3.11896014213562,None,,,,,0,0,0,0,0,103,103,154,479.47463035583496,,,,,,,,,,,,,,,,,,,,,,,,,,,,,,,,,,,,,,,,,,,,,,,,,,,,,,,,,,,,,,,,,,,,,,,,,,,,,,,,,159.82198355037323,104.15439122790642,93.15942177694363,70.57067361162765,112.39979029925198,73.29065681203757,3.0,3.2,-183,-285,0,-17,168,263,479.4602930545807,479.4603714942932,479.46429419517517,479.47463035583496,479.624281167984,479.624281167984,479.624281167984,479.624281167984,479.624281167984,479.624281167984,479.624281167984,482.6098608970642,1,3.11896014213562,None,,,,,,,,,,,,,,,,,,231,1,2025-03-11_14h47.10.378,comp,2024.2.4,58.077167524006676,2025-03-11 14h47.18.710413 -0400,
104,104,0,filler_square,None,None,None,None,None,None,None,None,None,None,3,1.8639817237854004,None,,,,,0,0,0,0,0,104,104,194,482.6262900829315,,,,,,,,,,,,,,,,,,,,,,,,,,,,,,,,,,,,,,,,,,,,,,,,,,,,,,,,,,,,,,,,,,,,,,,,,,,,,,,,,85.90899269675317,121.38814062755773,64.40491185659705,105.32430588856577,140.6543110947468,140.6543110947468,4.0,4.2,-209,10,0,-258,219,-2,482.61198329925537,482.61208176612854,482.61595368385315,482.6262900829315,482.7742018699646,482.7742018699646,482.7742018699646,482.7742018699646,482.7742018699646,482.7742018699646,482.7742018699646,484.49773931503296,3,1.8639817237854004,None,,,,,,,,,,,,,,,,,,231,1,2025-03-11_14h47.10.378,comp,2024.2.4,58.077167524006676,2025-03-11 14h47.18.710413 -0400,
105,105,0,filler_random,None,None,None,None,None,None,None,None,None,None,2,1.0214660167694092,None,,,,,0,0,0,0,0,105,105,140,484.51682019233704,,,,,,,,,,,,,,,,,,,,,,,,,,,,,,,,,,,,,,,,,,,,,,,,,,,,,,,,,,,,,,,,,,,,,,,,,,,,,,,,,149.25103242607446,104.25138516677173,194.08960038095665,152.532281556889,76.91381682978259,63.62829954836679,1.0,1.2,-224,-17,0,-8,204,18,484.49969959259033,484.49977946281433,484.5034945011139,484.51682019233704,484.66127347946167,484.66127347946167,484.66127347946167,484.66127347946167,484.66127347946167,484.66127347946167,484.66127347946167,485.5453989505768,2,1.0214660167694092,None,,,,,,,,,,,,,,,,,,231,1,2025-03-11_14h47.10.378,comp,2024.2.4,58.077167524006676,2025-03-11 14h47.18.710413 -0400,
106,106,0,filler_random,None,None,None,None,None,None,None,None,None,None,2,1.1031770706176758,None,,,,,0,0,0,0,0,106,106,147,485.56231713294983,,,,,,,,,,,,,,,,,,,,,,,,,,,,,,,,,,,,,,,,,,,,,,,,,,,,,,,,,,,,,,,,,,,,,,,,,,,,,,,,,88.59697190485932,63.117152169486914,140.30193643794297,124.05125719847791,108.53524845664947,93.35199828948697,4.0,4.2,-190,17,0,-283,205,2,485.54743361473083,485.5475733280182,485.5510182380676,485.56231713294983,485.7092981338501,485.7092981338501,485.7092981338501,485.7092981338501,485.7092981338501,485.7092981338501,485.7092981338501,486.6753692626953,2,1.1031770706176758,None,,,,,,,,,,,,,,,,,,231,1,2025-03-11_14h47.10.378,comp,2024.2.4,58.077167524006676,2025-03-11 14h47.18.710413 -0400,
107,107,0,critical,wdh,20.0,2.1,lower,57.0,133.0,78.0,78.0,133.0,57.0,3,2.500748634338379,None,,,,,0,0,0,0,0,107,107,34,486.69327187538147,,,,,,,,,,,,,,,,,,,,,,,,,,,,,,,,,,,,,,,,,,,,,,,,,,,,,,,,,,,,,,,,,,,,,,,,,,,,,,,,,57.0,133.0,78.0,78.0,133.0,57.0,2.1,2.11,-202,257,0,277,164,-271,486.6768789291382,486.67695784568787,486.68013644218445,486.69327187538147,486.8325660228729,486.8325660228729,486.8325660228729,486.8325660228729,486.8325660228729,486.8325660228729,486.8325660228729,489.1961762905121,3,2.500748634338379,None,,,,,,,,,,,,,,,,,,231,1,2025-03-11_14h47.10.378,comp,2024.2.4,58.077167524006676,2025-03-11 14h47.18.710413 -0400,
108,108,0,critical,wdh,20.0,2.1,upper,125.0,200.0,141.0,141.0,200.0,125.0,3,2.0463569164276123,None,,,,,0,0,0,0,0,108,108,35,489.21204900741577,,,,,,,,,,,,,,,,,,,,,,,,,,,,,,,,,,,,,,,,,,,,,,,,,,,,,,,,,,,,,,,,,,,,,,,,,,,,,,,,,125.0,200.0,141.0,141.0,200.0,125.0,2.1,2.11,-266,279,0,252,229,-279,489.19777607917786,489.19794845581055,489.2012822628021,489.21204900741577,489.3617596626282,489.3617596626282,489.3617596626282,489.3617596626282,489.3617596626282,489.3617596626282,489.3617596626282,491.2620704174042,3,2.0463569164276123,None,,,,,,,,,,,,,,,,,,231,1,2025-03-11_14h47.10.378,comp,2024.2.4,58.077167524006676,2025-03-11 14h47.18.710413 -0400,
109,109,0,filler_square,None,None,None,None,None,None,None,None,None,None,2,4.044363737106323,None,,,,,0,0,0,0,0,109,109,190,491.2791759967804,,,,,,,,,,,,,,,,,,,,,,,,,,,,,,,,,,,,,,,,,,,,,,,,,,,,,,,,,,,,,,,,,,,,,,,,,,,,,,,,,65.08998299536182,58.216693469574075,76.81516699781291,76.81516699781291,69.85054653826325,60.02480591827953,2.2,2.21,-164,-271,0,270,164,260,491.2642431259155,491.26432490348816,491.2678406238556,491.2791759967804,491.42648673057556,491.42648673057556,491.42648673057556,491.42648673057556,491.42648673057556,491.42648673057556,491.42648673057556,495.3325424194336,2,4.044363737106323,None,,,,,,,,,,,,,,,,,,231,1,2025-03-11_14h47.10.378,comp,2024.2.4,58.077167524006676,2025-03-11 14h47.18.710413 -0400,
110,110,0,critical,hwd,20.0,2.1,upper,200.0,125.0,125.0,200.0,141.0,141.0,1,2.8114216327667236,None,,,,,0,0,0,0,0,110,110,43,495.3505115509033,,,,,,,,,,,,,,,,,,,,,,,,,,,,,,,,,,,,,,,,,,,,,,,,,,,,,,,,,,,,,,,,,,,,,,,,,,,,,,,,,200.0,125.0,125.0,200.0,141.0,141.0,2.1,2.12,-258,-288,0,-289,266,272,495.33416724205017,495.3342447280884,495.3373236656189,495.3505115509033,495.50195026397705,495.50195026397705,495.50195026397705,495.50195026397705,495.50195026397705,495.50195026397705,495.50195026397705,498.17292404174805,1,2.8114216327667236,None,,,,,,,,,,,,,,,,,,231,1,2025-03-11_14h47.10.378,comp,2024.2.4,58.077167524006676,2025-03-11 14h47.18.710413 -0400,
111,111,0,critical,hwd,35.0,2.1,upper,200.0,125.0,125.0,200.0,127.0,127.0,1,1.648963451385498,None,,,,,0,0,0,0,0,111,111,17,498.1933057308197,,,,,,,,,,,,,,,,,,,,,,,,,,,,,,,,,,,,,,,,,,,,,,,,,,,,,,,,,,,,,,,,,,,,,,,,,,,,,,,,,200.0,125.0,125.0,200.0,127.0,127.0,2.1,2.11,-258,257,0,280,260,-255,498.1744225025177,498.1745128631592,498.1775703430176,498.1933057308197,498.3314938545227,498.3314938545227,498.3314938545227,498.3314938545227,498.3314938545227,498.3314938545227,498.3314938545227,499.84826016426086,1,1.648963451385498,None,,,,,,,,,,,,,,,,,,231,1,2025-03-11_14h47.10.378,comp,2024.2.4,58.077167524006676,2025-03-11 14h47.18.710413 -0400,
112,112,0,catch,None,None,None,None,None,None,None,None,None,None,3,2.576312303543091,None,,,,,0,0,0,0,0,112,112,125,499.8651797771454,,,,,,,,,,,,,,,,,,,,,,,,,,,,,,,,,,,,,,,,,,,,,,,,,,,,,,,,,,,,,,,,,,,,,,,,,,,,,,,,,131,59,105,85,128,197,2.2,2.21,-168,-275,0,255,237,285,499.85010957717896,499.8501856327057,499.8544411659241,499.8651797771454,500.0004324913025,500.0004324913025,500.0004324913025,500.0004324913025,500.0004324913025,500.0004324913025,500.0004324913025,502.4529116153717,3,2.576312303543091,None,,,,,,,,,,,,,,,,,,231,1,2025-03-11_14h47.10.378,comp,2024.2.4,58.077167524006676,2025-03-11 14h47.18.710413 -0400,
113,113,0,filler_random,None,None,None,None,None,None,None,None,None,None,2,3.7836132049560547,None,,,,,0,0,0,0,0,113,113,133,502.47386837005615,,,,,,,,,,,,,,,,,,,,,,,,,,,,,,,,,,,,,,,,,,,,,,,,,,,,,,,,,,,,,,,,,,,,,,,,,,,,,,,,,191.6613853193115,98.72873878681469,190.16411851458668,173.03707560193158,170.39203267021023,90.7095125479625,4.0,4.1,-232,-282,0,-3,228,-284,502.45477294921875,502.4549367427826,502.45828557014465,502.47386837005615,502.61607551574707,502.61607551574707,502.61607551574707,502.61607551574707,502.61607551574707,502.61607551574707,502.61607551574707,506.2692611217499,2,3.7836132049560547,None,,,,,,,,,,,,,,,,,,231,1,2025-03-11_14h47.10.378,comp,2024.2.4,58.077167524006676,2025-03-11 14h47.18.710413 -0400,
114,114,0,critical,hwd,35.0,3.0,upper,200.0,125.0,125.0,200.0,127.0,127.0,2,2.627579927444458,None,,,,,0,0,0,0,0,114,114,99,506.28625202178955,,,,,,,,,,,,,,,,,,,,,,,,,,,,,,,,,,,,,,,,,,,,,,,,,,,,,,,,,,,,,,,,,,,,,,,,,,,,,,,,,200.0,125.0,125.0,200.0,127.0,127.0,3.0,3.1,-258,257,0,12,260,-269,506.27150082588196,506.2715811729431,506.2746455669403,506.28625202178955,506.4331941604614,506.4331941604614,506.4331941604614,506.4331941604614,506.4331941604614,506.4331941604614,506.4331941604614,508.9330415725708,2,2.627579927444458,None,,,,,,,,,,,,,,,,,,231,1,2025-03-11_14h47.10.378,comp,2024.2.4,58.077167524006676,2025-03-11 14h47.18.710413 -0400,
115,115,0,filler_square,None,None,None,None,None,None,None,None,None,None,3,3.324632406234741,None,,,,,0,0,0,0,0,115,115,197,508.948855638504,,,,,,,,,,,,,,,,,,,,,,,,,,,,,,,,,,,,,,,,,,,,,,,,,,,,,,,,,,,,,,,,,,,,,,,,,,,,,,,,,58.9412425352868,58.7476420983805,57.5592886050233,58.3889692018788,59.625540109558614,59.625540109558614,1.0,1.1,-635,277,-480,259,-325,260,508.93475341796875,508.9348883628845,508.93830585479736,508.948855638504,509.1072208881378,509.1072208881378,509.1072208881378,509.1072208881378,509.1072208881378,509.1072208881378,509.1072208881378,512.2835886478424,3,3.324632406234741,None,,,,,,,,,,,,,,,,,,231,1,2025-03-11_14h47.10.378,comp,2024.2.4,58.077167524006676,2025-03-11 14h47.18.710413 -0400,
116,116,0,critical,wdh,20.0,1.0,lower,57.0,133.0,78.0,78.0,133.0,57.0,1,5.205214500427246,None,,,,,0,0,0,0,0,116,116,78,512.3007593154907,,,,,,,,,,,,,,,,,,,,,,,,,,,,,,,,,,,,,,,,,,,,,,,,,,,,,,,,,,,,,,,,,,,,,,,,,,,,,,,,,57.0,133.0,78.0,78.0,133.0,57.0,1.0,1.2,-202,-1,0,-14,164,16,512.2852349281311,512.2853319644928,512.2889575958252,512.3007593154907,512.4535162448883,512.4535162448883,512.4535162448883,512.4535162448883,512.4535162448883,512.4535162448883,512.4535162448883,517.5116529464722,1,5.205214500427246,None,,,,,,,,,,,,,,,,,,231,1,2025-03-11_14h47.10.378,comp,2024.2.4,58.077167524006676,2025-03-11 14h47.18.710413 -0400,
117,117,0,filler_square,None,None,None,None,None,None,None,None,None,None,1,1.0656697750091553,None,,,,,0,0,0,0,0,117,117,179,517.5277810096741,,,,,,,,,,,,,,,,,,,,,,,,,,,,,,,,,,,,,,,,,,,,,,,,,,,,,,,,,,,,,,,,,,,,,,,,,,,,,,,,,92.66302658152044,92.66302658152044,73.34636162797085,57.95977838996867,75.81008587056603,79.16081049876229,3.0,3.2,-171,-289,0,-3,165,288,517.5135028362274,517.5135817527771,517.5169086456299,517.5277810096741,517.6694459915161,517.6694459915161,517.6694459915161,517.6694459915161,517.6694459915161,517.6694459915161,517.6694459915161,518.6071574687958,1,1.0656697750091553,None,,,,,,,,,,,,,,,,,,231,1,2025-03-11_14h47.10.378,comp,2024.2.4,58.077167524006676,2025-03-11 14h47.18.710413 -0400,
118,118,0,filler_random,None,None,None,None,None,None,None,None,None,None,1,1.9781074523925781,None,,,,,0,0,0,0,0,118,118,167,518.6235687732697,,,,,,,,,,,,,,,,,,,,,,,,,,,,,,,,,,,,,,,,,,,,,,,,,,,,,,,,,,,,,,,,,,,,,,,,,,,,,,,,,170.81842334937573,110.00917958134511,58.43261141743804,176.95608434225647,100.28434726193447,87.24752308723976,1.0,1.2,-239,-1,0,4,228,-4,518.6092615127563,518.6093447208405,518.6127698421478,518.6235687732697,518.7749736309052,518.7749736309052,518.7749736309052,518.7749736309052,518.7749736309052,518.7749736309052,518.7749736309052,520.6063961982727,1,1.9781074523925781,None,,,,,,,,,,,,,,,,,,231,1,2025-03-11_14h47.10.378,comp,2024.2.4,58.077167524006676,2025-03-11 14h47.18.710413 -0400,
119,119,0,critical,dhw,20.0,1.0,lower,78.0,78.0,133.0,57.0,57.0,133.0,3,4.562902927398682,None,,,,,0,0,0,0,0,119,119,54,520.6233105659485,,,,,,,,,,,,,,,,,,,,,,,,,,,,,,,,,,,,,,,,,,,,,,,,,,,,,,,,,,,,,,,,,,,,,,,,,,,,,,,,,78.0,78.0,133.0,57.0,57.0,133.0,1.0,1.1,-644,262,-480,259,-289,280,520.60839676857,520.6085300445557,520.6124923229218,520.6233105659485,520.7703812122345,520.7703812122345,520.7703812122345,520.7703812122345,520.7703812122345,520.7703812122345,520.7703812122345,525.1903672218323,3,4.562902927398682,None,,,,,,,,,,,,,,,,,,231,1,2025-03-11_14h47.10.378,comp,2024.2.4,58.077167524006676,2025-03-11 14h47.18.710413 -0400,
120,120,0,critical,hwd,35.0,4.0,upper,200.0,125.0,125.0,200.0,127.0,127.0,2,4.1191565990448,None,,,,,0,0,0,0,0,120,120,101,525.211186170578,,,,,,,,,,,,,,,,,,,,,,,,,,,,,,,,,,,,,,,,,,,,,,,,,,,,,,,,,,,,,,,,,,,,,,,,,,,,,,,,,200.0,125.0,125.0,200.0,127.0,127.0,4.0,4.2,-258,-8,0,-267,260,19,525.1919503211975,525.1920294761658,525.1954894065857,525.211186170578,525.3568096160889,525.3568096160889,525.3568096160889,525.3568096160889,525.3568096160889,525.3568096160889,525.3568096160889,529.341602563858,2,4.1191565990448,None,,,,,,,,,,,,,,,,,,231,1,2025-03-11_14h47.10.378,comp,2024.2.4,58.077167524006676,2025-03-11 14h47.18.710413 -0400,
121,121,0,filler_random,None,None,None,None,None,None,None,None,None,None,1,7.4677653312683105,None,,,,,0,0,0,0,0,121,121,138,529.3583467006683,,,,,,,,,,,,,,,,,,,,,,,,,,,,,,,,,,,,,,,,,,,,,,,,,,,,,,,,,,,,,,,,,,,,,,,,,,,,,,,,,184.74587514867807,89.47696856043105,83.03974884738744,184.8986759827868,154.60471626832162,77.92880607103781,2.1,2.12,-233,-286,0,-286,227,289,529.3436181545258,529.3437132835388,529.3474998474121,529.3583467006683,529.5048961639404,529.5048961639404,529.5048961639404,529.5048961639404,529.5048961639404,529.5048961639404,529.5048961639404,536.8286089897156,1,7.4677653312683105,None,,,,,,,,,,,,,,,,,,231,1,2025-03-11_14h47.10.378,comp,2024.2.4,58.077167524006676,2025-03-11 14h47.18.710413 -0400,
122,122,0,critical,whd,20.0,1.0,lower,57.0,133.0,133.0,57.0,78.0,78.0,2,9.981502056121826,None,,,,,0,0,0,0,0,122,122,90,536.8448441028595,,,,,,,,,,,,,,,,,,,,,,,,,,,,,,,,,,,,,,,,,,,,,,,,,,,,,,,,,,,,,,,,,,,,,,,,,,,,,,,,,57.0,133.0,133.0,57.0,78.0,78.0,1.0,1.2,-191,2,0,19,164,-12,536.8303303718567,536.830445766449,536.8340249061584,536.8448441028595,536.9925734996796,536.9925734996796,536.9925734996796,536.9925734996796,536.9925734996796,536.9925734996796,536.9925734996796,546.8293282985687,2,9.981502056121826,None,,,,,,,,,,,,,,,,,,231,1,2025-03-11_14h47.10.378,comp,2024.2.4,58.077167524006676,2025-03-11 14h47.18.710413 -0400,
123,123,0,filler_square,None,None,None,None,None,None,None,None,None,None,1,1.2750942707061768,None,,,,,0,0,0,0,0,123,123,187,546.8473272323608,,,,,,,,,,,,,,,,,,,,,,,,,,,,,,,,,,,,,,,,,,,,,,,,,,,,,,,,,,,,,,,,,,,,,,,,,,,,,,,,,184.20548746248926,184.20548746248926,64.40496583871594,95.58499451733508,166.06015796943362,168.15242913533538,3.0,3.2,-236,-262,0,-17,228,276,546.8313450813293,546.831428527832,546.8357183933258,546.8473272323608,546.9978137016296,546.9978137016296,546.9978137016296,546.9978137016296,546.9978137016296,546.9978137016296,546.9978137016296,548.128406047821,1,1.2750942707061768,None,,,,,,,,,,,,,,,,,,231,1,2025-03-11_14h47.10.378,comp,2024.2.4,58.077167524006676,2025-03-11 14h47.18.710413 -0400,
124,124,0,critical,hdw,35.0,4.0,lower,133.0,57.0,70.0,70.0,57.0,133.0,3,2.0088698863983154,None,,,,,0,0,0,0,0,124,124,112,548.1451959609985,,,,,,,,,,,,,,,,,,,,,,,,,,,,,,,,,,,,,,,,,,,,,,,,,,,,,,,,,,,,,,,,,,,,,,,,,,,,,,,,,133.0,57.0,70.0,70.0,57.0,133.0,4.0,4.1,-160,-271,0,-17,198,-271,548.129997253418,548.1300992965698,548.1335783004761,548.1451959609985,548.2966630458832,548.2966630458832,548.2966630458832,548.2966630458832,548.2966630458832,548.2966630458832,548.2966630458832,550.1626691818237,3,2.0088698863983154,None,,,,,,,,,,,,,,,,,,231,1,2025-03-11_14h47.10.378,comp,2024.2.4,58.077167524006676,2025-03-11 14h47.18.710413 -0400,
125,125,0,critical,whd,20.0,1.0,upper,125.0,200.0,200.0,125.0,141.0,141.0,2,1.590212106704712,None,,,,,0,0,0,0,0,125,125,91,550.1805455684662,,,,,,,,,,,,,,,,,,,,,,,,,,,,,,,,,,,,,,,,,,,,,,,,,,,,,,,,,,,,,,,,,,,,,,,,,,,,,,,,,125.0,200.0,200.0,125.0,141.0,141.0,1.0,1.3,222,-256,480,-282,709,-256,550.1642632484436,550.1643435955048,550.1677396297455,550.1805455684662,550.3181731700897,550.3181731700897,550.3181731700897,550.3181731700897,550.3181731700897,550.3181731700897,550.3181731700897,551.7822227478027,2,1.590212106704712,None,,,,,,,,,,,,,,,,,,231,1,2025-03-11_14h47.10.378,comp,2024.2.4,58.077167524006676,2025-03-11 14h47.18.710413 -0400,
126,126,0,critical,dhw,20.0,3.0,upper,141.0,141.0,200.0,125.0,125.0,200.0,2,3.339830160140991,None,,,,,0,0,0,0,0,126,126,57,551.7983908653259,,,,,,,,,,,,,,,,,,,,,,,,,,,,,,,,,,,,,,,,,,,,,,,,,,,,,,,,,,,,,,,,,,,,,,,,,,,,,,,,,141.0,141.0,200.0,125.0,125.0,200.0,3.0,3.2,-229,-283,0,-3,258,251,551.7837710380554,551.7838747501373,551.7875199317932,551.7983908653259,551.9480006694794,551.9480006694794,551.9480006694794,551.9480006694794,551.9480006694794,551.9480006694794,551.9480006694794,555.140741109848,2,3.339830160140991,None,,,,,,,,,,,,,,,,,,231,1,2025-03-11_14h47.10.378,comp,2024.2.4,58.077167524006676,2025-03-11 14h47.18.710413 -0400,
127,127,0,critical,dwh,35.0,4.0,lower,70.0,70.0,57.0,133.0,133.0,57.0,3,1.9141604900360107,None,,,,,0,0,0,0,0,127,127,64,555.1593697071075,,,,,,,,,,,,,,,,,,,,,,,,,,,,,,,,,,,,,,,,,,,,,,,,,,,,,,,,,,,,,,,,,,,,,,,,,,,,,,,,,70.0,70.0,57.0,133.0,133.0,57.0,4.0,4.2,-198,13,0,-281,191,-9,555.1422398090363,555.1423180103302,555.1453294754028,555.1593697071075,555.2954511642456,555.2954511642456,555.2954511642456,555.2954511642456,555.2954511642456,555.2954511642456,555.2954511642456,557.0903952121735,3,1.9141604900360107,None,,,,,,,,,,,,,,,,,,231,1,2025-03-11_14h47.10.378,comp,2024.2.4,58.077167524006676,2025-03-11 14h47.18.710413 -0400,
128,128,0,critical,wdh,35.0,2.1,lower,57.0,133.0,70.0,70.0,133.0,57.0,3,2.9186317920684814,None,,,,,0,0,0,0,0,128,128,32,557.1076519489288,,,,,,,,,,,,,,,,,,,,,,,,,,,,,,,,,,,,,,,,,,,,,,,,,,,,,,,,,,,,,,,,,,,,,,,,,,,,,,,,,57.0,133.0,70.0,70.0,133.0,57.0,2.1,2.11,-198,278,0,257,160,-284,557.0919532775879,557.0920295715332,557.0950379371643,557.1076519489288,557.2473106384277,557.2473106384277,557.2473106384277,557.2473106384277,557.2473106384277,557.2473106384277,557.2473106384277,560.0323717594147,3,2.9186317920684814,None,,,,,,,,,,,,,,,,,,231,1,2025-03-11_14h47.10.378,comp,2024.2.4,58.077167524006676,2025-03-11 14h47.18.710413 -0400,
129,129,0,filler_square,None,None,None,None,None,None,None,None,None,None,3,1.9586670398712158,None,,,,,0,0,0,0,0,129,129,205,560.0593485832214,,,,,,,,,,,,,,,,,,,,,,,,,,,,,,,,,,,,,,,,,,,,,,,,,,,,,,,,,,,,,,,,,,,,,,,,,,,,,,,,,61.74749599898145,60.02874318225542,59.206651863527775,78.43387926906685,83.82791100527768,83.82791100527768,2.2,2.22,-165,285,0,-285,177,-289,560.0342440605164,560.0343327522278,560.0376963615417,560.0593485832214,560.2003283500671,560.2003283500671,560.2003283500671,560.2003283500671,560.2003283500671,560.2003283500671,560.2003283500671,562.0350549221039,3,1.9586670398712158,None,,,,,,,,,,,,,,,,,,231,1,2025-03-11_14h47.10.378,comp,2024.2.4,58.077167524006676,2025-03-11 14h47.18.710413 -0400,
130,130,0,filler_square,None,None,None,None,None,None,None,None,None,None,1,1.1186823844909668,None,,,,,0,0,0,0,0,130,130,191,562.0508241653442,,,,,,,,,,,,,,,,,,,,,,,,,,,,,,,,,,,,,,,,,,,,,,,,,,,,,,,,,,,,,,,,,,,,,,,,,,,,,,,,,166.9595774811825,166.9595774811825,125.57094007654759,119.28830381651085,93.46306469414755,98.94244153827549,1.0,1.2,-239,9,0,20,205,-18,562.0368678569794,562.0369436740875,562.0404481887817,562.0508241653442,562.2041974067688,562.2041974067688,562.2041974067688,562.2041974067688,562.2041974067688,562.2041974067688,562.2041974067688,563.1854863166809,1,1.1186823844909668,None,,,,,,,,,,,,,,,,,,231,1,2025-03-11_14h47.10.378,comp,2024.2.4,58.077167524006676,2025-03-11 14h47.18.710413 -0400,
131,131,0,filler_square,None,None,None,None,None,None,None,None,None,None,1,3.120509147644043,None,,,,,0,0,0,0,0,131,131,188,563.2016339302063,,,,,,,,,,,,,,,,,,,,,,,,,,,,,,,,,,,,,,,,,,,,,,,,,,,,,,,,,,,,,,,,,,,,,,,,,,,,,,,,,98.33996197060056,98.33996197060056,73.60554262242779,66.48911024793225,72.30167701752623,74.62472093569517,2.1,2.11,-178,277,0,253,167,-265,563.187488079071,563.1875650882721,563.1913216114044,563.2016339302063,563.3519396781921,563.3519396781921,563.3519396781921,563.3519396781921,563.3519396781921,563.3519396781921,563.3519396781921,566.3409218788147,1,3.120509147644043,None,,,,,,,,,,,,,,,,,,231,1,2025-03-11_14h47.10.378,comp,2024.2.4,58.077167524006676,2025-03-11 14h47.18.710413 -0400,
132,132,0,critical,hdw,35.0,3.0,lower,133.0,57.0,70.0,70.0,57.0,133.0,3,2.860947847366333,None,,,,,0,0,0,0,0,132,132,110,566.3566002845764,,,,,,,,,,,,,,,,,,,,,,,,,,,,,,,,,,,,,,,,,,,,,,,,,,,,,,,,,,,,,,,,,,,,,,,,,,,,,,,,,133.0,57.0,70.0,70.0,57.0,133.0,3.0,3.1,-160,275,0,7,198,-267,566.3424489498138,566.3425283432007,566.3461182117462,566.3566002845764,566.5072169303894,566.5072169303894,566.5072169303894,566.5072169303894,566.5072169303894,566.5072169303894,566.5072169303894,569.2196815013885,3,2.860947847366333,None,,,,,,,,,,,,,,,,,,231,1,2025-03-11_14h47.10.378,comp,2024.2.4,58.077167524006676,2025-03-11 14h47.18.710413 -0400,
133,133,0,critical,hwd,20.0,2.1,upper,200.0,125.0,125.0,200.0,141.0,141.0,1,2.4544026851654053,None,,,,,0,0,0,0,0,133,133,19,569.2356424331665,,,,,,,,,,,,,,,,,,,,,,,,,,,,,,,,,,,,,,,,,,,,,,,,,,,,,,,,,,,,,,,,,,,,,,,,,,,,,,,,,200.0,125.0,125.0,200.0,141.0,141.0,2.1,2.12,-258,-253,0,-287,266,289,569.2212135791779,569.2212891578674,569.2248065471649,569.2356424331665,569.3867502212524,569.3867502212524,569.3867502212524,569.3867502212524,569.3867502212524,569.3867502212524,569.3867502212524,571.7114865779877,1,2.4544026851654053,None,,,,,,,,,,,,,,,,,,231,1,2025-03-11_14h47.10.378,comp,2024.2.4,58.077167524006676,2025-03-11 14h47.18.710413 -0400,
134,134,0,critical,dwh,20.0,3.0,upper,141.0,141.0,125.0,200.0,200.0,125.0,2,1.6572556495666504,None,,,,,0,0,0,0,0,134,134,69,571.7293088436127,,,,,,,,,,,,,,,,,,,,,,,,,,,,,,,,,,,,,,,,,,,,,,,,,,,,,,,,,,,,,,,,,,,,,,,,,,,,,,,,,141.0,141.0,125.0,200.0,200.0,125.0,3.0,3.2,-266,-282,0,7,258,272,571.7130281925201,571.7131059169769,571.7161817550659,571.7293088436127,571.870306968689,571.870306968689,571.870306968689,571.870306968689,571.870306968689,571.870306968689,571.870306968689,573.3926620483398,2,1.6572556495666504,None,,,,,,,,,,,,,,,,,,231,1,2025-03-11_14h47.10.378,comp,2024.2.4,58.077167524006676,2025-03-11 14h47.18.710413 -0400,
135,135,0,filler_random,None,None,None,None,None,None,None,None,None,None,1,1.5679717063903809,None,,,,,0,0,0,0,0,135,135,137,573.4098901748657,,,,,,,,,,,,,,,,,,,,,,,,,,,,,,,,,,,,,,,,,,,,,,,,,,,,,,,,,,,,,,,,,,,,,,,,,,,,,,,,,182.47840873503358,140.00263225962124,100.12866156575691,89.77625103098183,161.4347443861397,153.84207517841622,4.0,4.2,-211,10,0,-281,218,-4,573.3946990966797,573.3948130607605,573.3981721401215,573.4098901748657,573.5529139041901,573.5529139041901,573.5529139041901,573.5529139041901,573.5529139041901,573.5529139041901,573.5529139041901,574.9875481128693,1,1.5679717063903809,None,,,,,,,,,,,,,,,,,,231,1,2025-03-11_14h47.10.378,comp,2024.2.4,58.077167524006676,2025-03-11 14h47.18.710413 -0400,
136,136,0,critical,whd,35.0,1.0,lower,57.0,133.0,133.0,57.0,70.0,70.0,1,6.2366626262664795,None,,,,,0,0,0,0,0,136,136,84,575.0050384998322,,,,,,,,,,,,,,,,,,,,,,,,,,,,,,,,,,,,,,,,,,,,,,,,,,,,,,,,,,,,,,,,,,,,,,,,,,,,,,,,,57.0,133.0,133.0,57.0,70.0,70.0,1.0,1.1,-671,287,-480,276,-320,264,574.9892234802246,574.9893054962158,574.9927446842194,575.0050384998322,575.1551656723022,575.1551656723022,575.1551656723022,575.1551656723022,575.1551656723022,575.1551656723022,575.1551656723022,581.2562136650085,1,6.2366626262664795,None,,,,,,,,,,,,,,,,,,231,1,2025-03-11_14h47.10.378,comp,2024.2.4,58.077167524006676,2025-03-11 14h47.18.710413 -0400,
137,137,0,critical,hdw,20.0,2.1,upper,200.0,125.0,141.0,141.0,125.0,200.0,1,3.2713444232940674,None,,,,,0,0,0,0,0,137,137,23,581.2747292518616,,,,,,,,,,,,,,,,,,,,,,,,,,,,,,,,,,,,,,,,,,,,,,,,,,,,,,,,,,,,,,,,,,,,,,,,,,,,,,,,,200.0,125.0,141.0,141.0,125.0,200.0,2.1,2.12,-229,-270,0,-264,266,273,581.2577750682831,581.2578890323639,581.2613773345947,581.2747292518616,581.4235472679138,581.4235472679138,581.4235472679138,581.4235472679138,581.4235472679138,581.4235472679138,581.4235472679138,584.5663168430328,1,3.2713444232940674,None,,,,,,,,,,,,,,,,,,231,1,2025-03-11_14h47.10.378,comp,2024.2.4,58.077167524006676,2025-03-11 14h47.18.710413 -0400,
138,138,0,critical,whd,20.0,3.0,upper,125.0,200.0,200.0,125.0,141.0,141.0,1,1.4792594909667969,None,,,,,0,0,0,0,0,138,138,93,584.5869784355164,,,,,,,,,,,,,,,,,,,,,,,,,,,,,,,,,,,,,,,,,,,,,,,,,,,,,,,,,,,,,,,,,,,,,,,,,,,,,,,,,125.0,200.0,200.0,125.0,141.0,141.0,3.0,3.2,-258,-274,0,-16,229,265,584.5679581165314,584.5680701732635,584.5717668533325,584.5869784355164,584.72505235672,584.72505235672,584.72505235672,584.72505235672,584.72505235672,584.72505235672,584.72505235672,586.0760979652405,1,1.4792594909667969,None,,,,,,,,,,,,,,,,,,231,1,2025-03-11_14h47.10.378,comp,2024.2.4,58.077167524006676,2025-03-11 14h47.18.710413 -0400,
139,139,0,critical,hdw,35.0,4.0,upper,200.0,125.0,127.0,127.0,125.0,200.0,3,1.7371912002563477,None,,,,,0,0,0,0,0,139,139,113,586.0965576171875,,,,,,,,,,,,,,,,,,,,,,,,,,,,,,,,,,,,,,,,,,,,,,,,,,,,,,,,,,,,,,,,,,,,,,,,,,,,,,,,,200.0,125.0,127.0,127.0,125.0,200.0,4.0,4.2,-222,17,0,-263,260,-15,586.0776207447052,586.0776996612549,586.0811150074005,586.0965576171875,586.240540266037,586.240540266037,586.240540266037,586.240540266037,586.240540266037,586.240540266037,586.240540266037,587.8442459106445,3,1.7371912002563477,None,,,,,,,,,,,,,,,,,,231,1,2025-03-11_14h47.10.378,comp,2024.2.4,58.077167524006676,2025-03-11 14h47.18.710413 -0400,
