thisN,thisTrialN,thisRepN,effect,order,distance,config,diag,h_1,w_1,h_2,w_2,h_3,w_3,rect_choice.keys,rect_choice.rt,rect_choice.duration,instructions_loop.thisRepN,instructions_loop.thisTrialN,instructions_loop.thisN,instructions_loop.thisIndex,blocks.thisRepN,blocks.thisTrialN,blocks.thisN,blocks.thisIndex,trials.thisRepN,trials.thisTrialN,trials.thisN,trials.thisIndex,thisRow.t,notes,consent.started,agree_button.started,decline_button.started,consent_img.started,mouse.started,consent.stopped,agree_button.numClicks,agree_button.timesOn,agree_button.timesOff,decline_button.numClicks,decline_button.timesOn,decline_button.timesOff,mouse.x,mouse.y,mouse.leftButton,mouse.midButton,mouse.rightButton,mouse.time,mouse.clicked_name,exp_params.started,exp_params.stopped,welcome.started,welcome_text.started,welcome.stopped,instructions_1.started,instructions_1_text_1.started,instructions_1_text_2.started,key_resp.started,instructions_1.stopped,instructions_loop.key_resp.keys,instructions_loop.key_resp.rt,instructions_loop.key_resp.duration,instructions_2.started,instructions_2_text_1.started,instructions_2_text_2.started,key_resp_2.started,instructions_2.stopped,instructions_loop.key_resp_2.keys,instructions_loop.key_resp_2.rt,instructions_loop.key_resp_2.duration,instructions_3.started,instructions_3_text_1.started,r1_instr3.started,r2_instr3.started,r3_instr3.started,r1_instr3_label.started,r2_instr3_label.started,r3_instr3_label.started,instructions_3_text_3.started,instructions_3_text_4.started,key_resp_3.started,instructions_3.stopped,instructions_loop.key_resp_3.keys,instructions_loop.key_resp_3.rt,instructions_loop.key_resp_3.duration,instructions_4.started,instructions_4_text_1.started,instructions_4_text_3.started,instructions_4_text_2.started,key_resp_4.started,instructions_4.stopped,instructions_loop.key_resp_4.keys,instructions_loop.key_resp_4.rt,instructions_loop.key_resp_4.duration,instructions_5.started,instructions_5_text_1.started,instructions_5_text_2.started,key_resp_5.started,instructions_5.stopped,instructions_loop.key_resp_5.keys,instructions_loop.key_resp_5.rt,instructions_loop.key_resp_5.duration,start_exp.started,start_exp_text.started,key_resp_6.started,start_exp.stopped,key_resp_6.keys,key_resp_6.rt,key_resp_6.duration,h_1_tmp,w_1_tmp,h_2_tmp,w_2_tmp,h_3_tmp,w_3_tmp,config_tmp,config_tmp_1,r_1_x,r_1_y,r_2_x,r_2_y,r_3_x,r_3_y,pre_trial.started,pre_trial.stopped,choice_trial.started,rect_choice.started,r_1.started,r_2.started,r_3.started,r_1_label.started,r_2_label.started,r_3_label.started,prompt.started,choice_trial.stopped,trials.rect_choice.keys,trials.rect_choice.rt,trials.rect_choice.duration,end_block.started,end_block_text.started,end_block.stopped,end.started,end_text.started,key_resp_7.started,end.stopped,key_resp_7.keys,key_resp_7.rt,key_resp_7.duration,debriefing.started,debrief_form.started,end_debrief.started,debriefing.stopped,end_debrief.keys,end_debrief.rt,end_debrief.duration,participant,computer,date,expName,psychopyVersion,frameRate,expStart,
,,,,,,,,,,,,,,,,,,,,,,,,,,,,,,,0.015735387802124023,0.0376431941986084,0.0376431941986084,0.0376431941986084,0.015506744384765625,22.41637349128723,1,[22.376286268234253],[22.37631058692932],0,,,[-80.0],[-491.0],[1],[0],[0],[22.40005898475647],['agree_button'],,,,,,,,,,,,,,,,,,,,,,,,,,,,,,,,,,,,,,,,,,,,,,,,,,,,,,,,,,,,,,,,,,,,,,,,,,,,,,,,,,,,,,,,,,,,,,,,,,,,,,,,,,,232,1,2025-03-11_16h04.01.226,comp,2024.2.4,57.26176450109833,2025-03-11 16h04.42.244321 -0400,
,,,,,,,,,,,,,,,,,,,,,,,,,,,,,,,,,,,,,,,,,,,,,,,,,,22.41690468788147,22.416972875595093,,,,,,,,,,,,,,,,,,,,,,,,,,,,,,,,,,,,,,,,,,,,,,,,,,,,,,,,,,,,,,,,,,,,,,,,,,,,,,,,,,,,,,,,,,,,,,,,,,,,,,,,,232,1,2025-03-11_16h04.01.226,comp,2024.2.4,57.26176450109833,2025-03-11 16h04.42.244321 -0400,
,,,,,,,,,,,,,,,,,,,,,,,,,,,,,,,,,,,,,,,,,,,,,,,,,,,,22.417017936706543,22.435187101364136,24.430550813674927,,,,,,,,,,,,,,,,,,,,,,,,,,,,,,,,,,,,,,,,,,,,,,,,,,,,,,,,,,,,,,,,,,,,,,,,,,,,,,,,,,,,,,,,,,,,,,,,,,,,,,232,1,2025-03-11_16h04.01.226,comp,2024.2.4,57.26176450109833,2025-03-11 16h04.42.244321 -0400,
0,0,0,,,,,,,,,,,,,,,0,0,0,0,,,,,,,,,24.447441339492798,,,,,,,,,,,,,,,,,,,,,,,,,,24.431464672088623,24.447441339492798,24.447441339492798,25.931764841079712,29.385551929473877,space,3.4405322074890137,None,29.385701894760132,29.400415658950806,29.400415658950806,30.884212017059326,35.71769332885742,space,4.824670314788818,None,35.71784472465515,35.74838423728943,35.74838423728943,35.74838423728943,35.74838423728943,35.74838423728943,35.74838423728943,35.74838423728943,35.74838423728943,35.74838423728943,37.22075295448303,42.77372336387634,space,5.543701410293579,None,42.77388787269592,42.79577970504761,42.79577970504761,42.79577970504761,44.289294958114624,51.3420627117157,space,7.043868780136108,None,51.342262268066406,51.35818672180176,51.35818672180176,52.856523752212524,54.65968418121338,space,1.7963438034057617,None,54.65988230705261,54.67476463317871,54.67476463317871,56.04354786872864,space,1.362255573272705,None,,,,,,,,,,,,,,,,,,,,,,,,,,,,,,,,,,,,,,,,,,,,,,,232,1,2025-03-11_16h04.01.226,comp,2024.2.4,57.26176450109833,2025-03-11 16h04.42.244321 -0400,
0,0,0,filler_square,None,None,None,None,None,None,None,None,None,None,1,3.067753553390503,None,,,,,0,0,0,0,0,0,0,203,56.12149906158447,,,,,,,,,,,,,,,,,,,,,,,,,,,,,,,,,,,,,,,,,,,,,,,,,,,,,,,,,,,,,,,,,,,,,,,,,,,,,,,,,109.08355617142271,109.08355617142271,79.17873793150846,108.05636032628608,107.981435144543,78.40077299302686,4.0,4.2,-205,4,0,-256,189,5,56.10486316680908,56.1049017906189,56.106003761291504,56.12149906158447,56.26890754699707,56.26890754699707,56.26890754699707,56.26890754699707,56.26890754699707,56.26890754699707,56.26890754699707,59.192240715026855,1,3.067753553390503,None,,,,,,,,,,,,,,,,,,232,1,2025-03-11_16h04.01.226,comp,2024.2.4,57.26176450109833,2025-03-11 16h04.42.244321 -0400,
1,1,0,critical,hdw,35.0,1.0,upper,200.0,125.0,127.0,127.0,125.0,200.0,1,2.8890585899353027,None,,,,,0,0,0,0,0,1,1,109,59.21275758743286,,,,,,,,,,,,,,,,,,,,,,,,,,,,,,,,,,,,,,,,,,,,,,,,,,,,,,,,,,,,,,,,,,,,,,,,,,,,,,,,,200.0,125.0,127.0,127.0,125.0,200.0,1.0,1.2,-222,12,0,14,260,6,59.19372820854187,59.193793296813965,59.19649386405945,59.21275758743286,59.34571433067322,59.34571433067322,59.34571433067322,59.34571433067322,59.34571433067322,59.34571433067322,59.34571433067322,62.11242079734802,1,2.8890585899353027,None,,,,,,,,,,,,,,,,,,232,1,2025-03-11_16h04.01.226,comp,2024.2.4,57.26176450109833,2025-03-11 16h04.42.244321 -0400,
2,2,0,critical,dwh,20.0,1.0,upper,141.0,141.0,125.0,200.0,200.0,125.0,3,5.156034469604492,None,,,,,0,0,0,0,0,2,2,67,62.12838912010193,,,,,,,,,,,,,,,,,,,,,,,,,,,,,,,,,,,,,,,,,,,,,,,,,,,,,,,,,,,,,,,,,,,,,,,,,,,,,,,,,141.0,141.0,125.0,200.0,200.0,125.0,1.0,1.1,-746,286,-480,267,-222,288,62.11400747299194,62.11408996582031,62.11762499809265,62.12838912010193,62.27856731414795,62.27856731414795,62.27856731414795,62.27856731414795,62.27856731414795,62.27856731414795,62.27856731414795,67.29633927345276,3,5.156034469604492,None,,,,,,,,,,,,,,,,,,232,1,2025-03-11_16h04.01.226,comp,2024.2.4,57.26176450109833,2025-03-11 16h04.42.244321 -0400,
3,3,0,critical,hdw,20.0,3.0,lower,133.0,57.0,78.0,78.0,57.0,133.0,3,3.5399467945098877,None,,,,,0,0,0,0,0,3,3,116,67.31278491020203,,,,,,,,,,,,,,,,,,,,,,,,,,,,,,,,,,,,,,,,,,,,,,,,,,,,,,,,,,,,,,,,,,,,,,,,,,,,,,,,,133.0,57.0,78.0,78.0,57.0,133.0,3.0,3.1,-164,263,0,13,202,-273,67.29789233207703,67.29797315597534,67.30120015144348,67.31278491020203,67.46350145339966,67.46350145339966,67.46350145339966,67.46350145339966,67.46350145339966,67.46350145339966,67.46350145339966,70.87366318702698,3,3.5399467945098877,None,,,,,,,,,,,,,,,,,,232,1,2025-03-11_16h04.01.226,comp,2024.2.4,57.26176450109833,2025-03-11 16h04.42.244321 -0400,
4,4,0,critical,wdh,20.0,1.0,lower,57.0,133.0,78.0,78.0,133.0,57.0,3,4.303116798400879,None,,,,,0,0,0,0,0,4,4,78,70.8933846950531,,,,,,,,,,,,,,,,,,,,,,,,,,,,,,,,,,,,,,,,,,,,,,,,,,,,,,,,,,,,,,,,,,,,,,,,,,,,,,,,,57.0,133.0,78.0,78.0,133.0,57.0,1.0,1.1,-682,265,-480,289,-316,252,70.87527775764465,70.87535738945007,70.87826609611511,70.8933846950531,71.03387951850891,71.03387951850891,71.03387951850891,71.03387951850891,71.03387951850891,71.03387951850891,71.03387951850891,75.20179581642151,3,4.303116798400879,None,,,,,,,,,,,,,,,,,,232,1,2025-03-11_16h04.01.226,comp,2024.2.4,57.26176450109833,2025-03-11 16h04.42.244321 -0400,
5,5,0,filler_random,None,None,None,None,None,None,None,None,None,None,3,4.462745904922485,None,,,,,0,0,0,0,0,5,5,134,75.22187399864197,,,,,,,,,,,,,,,,,,,,,,,,,,,,,,,,,,,,,,,,,,,,,,,,,,,,,,,,,,,,,,,,,,,,,,,,,,,,,,,,,84.83650694382276,60.22560350932629,57.79307383197027,154.47545865325105,117.67313050481637,95.44701457967983,2.1,2.11,-203,283,0,277,221,-288,75.20386481285095,75.20394945144653,75.20749306678772,75.22187399864197,75.36771249771118,75.36771249771118,75.36771249771118,75.36771249771118,75.36771249771118,75.36771249771118,75.36771249771118,79.68824481964111,3,4.462745904922485,None,,,,,,,,,,,,,,,,,,232,1,2025-03-11_16h04.01.226,comp,2024.2.4,57.26176450109833,2025-03-11 16h04.42.244321 -0400,
6,6,0,critical,dhw,35.0,3.0,upper,127.0,127.0,200.0,125.0,125.0,200.0,2,4.596027135848999,None,,,,,0,0,0,0,0,6,6,51,79.70447564125061,,,,,,,,,,,,,,,,,,,,,,,,,,,,,,,,,,,,,,,,,,,,,,,,,,,,,,,,,,,,,,,,,,,,,,,,,,,,,,,,,127.0,127.0,200.0,125.0,125.0,200.0,3.0,3.2,-222,-257,0,13,258,278,79.6900999546051,79.69023513793945,79.69361519813538,79.70447564125061,79.8553352355957,79.8553352355957,79.8553352355957,79.8553352355957,79.8553352355957,79.8553352355957,79.8553352355957,84.3040132522583,2,4.596027135848999,None,,,,,,,,,,,,,,,,,,232,1,2025-03-11_16h04.01.226,comp,2024.2.4,57.26176450109833,2025-03-11 16h04.42.244321 -0400,
7,7,0,critical,hdw,35.0,2.1,upper,200.0,125.0,127.0,127.0,125.0,200.0,3,2.69096302986145,None,,,,,0,0,0,0,0,7,7,21,84.32157278060913,,,,,,,,,,,,,,,,,,,,,,,,,,,,,,,,,,,,,,,,,,,,,,,,,,,,,,,,,,,,,,,,,,,,,,,,,,,,,,,,,200.0,125.0,127.0,127.0,125.0,200.0,2.1,2.12,-222,-263,0,-283,260,276,84.30561995506287,84.3057017326355,84.30863380432129,84.32157278060913,84.46741771697998,84.46741771697998,84.46741771697998,84.46741771697998,84.46741771697998,84.46741771697998,84.46741771697998,87.01907277107239,3,2.69096302986145,None,,,,,,,,,,,,,,,,,,232,1,2025-03-11_16h04.01.226,comp,2024.2.4,57.26176450109833,2025-03-11 16h04.42.244321 -0400,
8,8,0,critical,dhw,20.0,2.1,lower,78.0,78.0,133.0,57.0,57.0,133.0,2,3.6020445823669434,None,,,,,0,0,0,0,0,8,8,26,87.03461527824402,,,,,,,,,,,,,,,,,,,,,,,,,,,,,,,,,,,,,,,,,,,,,,,,,,,,,,,,,,,,,,,,,,,,,,,,,,,,,,,,,78.0,78.0,133.0,57.0,57.0,133.0,2.1,2.11,-164,262,0,273,191,-269,87.01997709274292,87.02002191543579,87.02161192893982,87.03461527824402,87.18409705162048,87.18409705162048,87.18409705162048,87.18409705162048,87.18409705162048,87.18409705162048,87.18409705162048,90.64333176612854,2,3.6020445823669434,None,,,,,,,,,,,,,,,,,,232,1,2025-03-11_16h04.01.226,comp,2024.2.4,57.26176450109833,2025-03-11 16h04.42.244321 -0400,
9,9,0,critical,dhw,20.0,2.1,upper,141.0,141.0,200.0,125.0,125.0,200.0,3,1.4794700145721436,None,,,,,0,0,0,0,0,9,9,27,90.66098523139954,,,,,,,,,,,,,,,,,,,,,,,,,,,,,,,,,,,,,,,,,,,,,,,,,,,,,,,,,,,,,,,,,,,,,,,,,,,,,,,,,141.0,141.0,200.0,125.0,125.0,200.0,2.1,2.12,-229,-274,0,-287,258,251,90.64489984512329,90.64497900009155,90.64787030220032,90.66098523139954,90.81314969062805,90.81314969062805,90.81314969062805,90.81314969062805,90.81314969062805,90.81314969062805,90.81314969062805,92.1550178527832,3,1.4794700145721436,None,,,,,,,,,,,,,,,,,,232,1,2025-03-11_16h04.01.226,comp,2024.2.4,57.26176450109833,2025-03-11 16h04.42.244321 -0400,
10,10,0,filler_random,None,None,None,None,None,None,None,None,None,None,1,5.081840515136719,None,,,,,0,0,0,0,0,10,10,155,92.17130851745605,,,,,,,,,,,,,,,,,,,,,,,,,,,,,,,,,,,,,,,,,,,,,,,,,,,,,,,,,,,,,,,,,,,,,,,,,,,,,,,,,169.04828126138602,191.09265608976406,130.73659286314097,79.68685843947387,195.47546250574413,139.5843627713407,4.0,4.1,-231,-290,0,-3,206,-272,92.15679717063904,92.15687823295593,92.16097402572632,92.17130851745605,92.31953358650208,92.31953358650208,92.31953358650208,92.31953358650208,92.31953358650208,92.31953358650208,92.31953358650208,97.26320004463196,1,5.081840515136719,None,,,,,,,,,,,,,,,,,,232,1,2025-03-11_16h04.01.226,comp,2024.2.4,57.26176450109833,2025-03-11 16h04.42.244321 -0400,
11,11,0,filler_random,None,None,None,None,None,None,None,None,None,None,3,2.0647921562194824,None,,,,,0,0,0,0,0,11,11,158,97.28359532356262,,,,,,,,,,,,,,,,,,,,,,,,,,,,,,,,,,,,,,,,,,,,,,,,,,,,,,,,,,,,,,,,,,,,,,,,,,,,,,,,,71.42943808841561,147.07844640750255,97.4416970787739,68.37279480674297,82.06128884416401,140.02049939724694,3.0,3.2,-204,-271,0,-9,200,274,97.26489925384521,97.26498174667358,97.26790142059326,97.28359532356262,97.4213638305664,97.4213638305664,97.4213638305664,97.4213638305664,97.4213638305664,97.4213638305664,97.4213638305664,99.3606903553009,3,2.0647921562194824,None,,,,,,,,,,,,,,,,,,232,1,2025-03-11_16h04.01.226,comp,2024.2.4,57.26176450109833,2025-03-11 16h04.42.244321 -0400,
12,12,0,critical,dhw,20.0,3.0,upper,141.0,141.0,200.0,125.0,125.0,200.0,3,2.747894287109375,None,,,,,0,0,0,0,0,12,12,57,99.37722826004028,,,,,,,,,,,,,,,,,,,,,,,,,,,,,,,,,,,,,,,,,,,,,,,,,,,,,,,,,,,,,,,,,,,,,,,,,,,,,,,,,141.0,141.0,200.0,125.0,125.0,200.0,3.0,3.2,-229,-251,0,9,258,266,99.3623058795929,99.36238694190979,99.36620163917542,99.37722826004028,99.52082061767578,99.52082061767578,99.52082061767578,99.52082061767578,99.52082061767578,99.52082061767578,99.52082061767578,102.13978409767151,3,2.747894287109375,None,,,,,,,,,,,,,,,,,,232,1,2025-03-11_16h04.01.226,comp,2024.2.4,57.26176450109833,2025-03-11 16h04.42.244321 -0400,
13,13,0,critical,wdh,20.0,3.0,upper,125.0,200.0,141.0,141.0,200.0,125.0,3,3.424654483795166,None,,,,,0,0,0,0,0,13,13,81,102.15569806098938,,,,,,,,,,,,,,,,,,,,,,,,,,,,,,,,,,,,,,,,,,,,,,,,,,,,,,,,,,,,,,,,,,,,,,,,,,,,,,,,,125.0,200.0,141.0,141.0,200.0,125.0,3.0,3.1,-266,252,0,-11,229,-274,102.14136409759521,102.14144730567932,102.14441585540771,102.15569806098938,102.30689191818237,102.30689191818237,102.30689191818237,102.30689191818237,102.30689191818237,102.30689191818237,102.30689191818237,105.59139800071716,3,3.424654483795166,None,,,,,,,,,,,,,,,,,,232,1,2025-03-11_16h04.01.226,comp,2024.2.4,57.26176450109833,2025-03-11 16h04.42.244321 -0400,
14,14,0,catch,None,None,None,None,None,None,None,None,None,None,2,2.100245475769043,None,,,,,0,0,0,0,0,14,14,121,105.60887813568115,,,,,,,,,,,,,,,,,,,,,,,,,,,,,,,,,,,,,,,,,,,,,,,,,,,,,,,,,,,,,,,,,,,,,,,,,,,,,,,,,124,66,166,159,72,118,2.1,2.12,-208,-261,0,-253,234,273,105.59354448318481,105.5936291217804,105.59712386131287,105.60887813568115,105.76479649543762,105.76479649543762,105.76479649543762,105.76479649543762,105.76479649543762,105.76479649543762,105.76479649543762,107.72683644294739,2,2.100245475769043,None,,,,,,,,,,,,,,,,,,232,1,2025-03-11_16h04.01.226,comp,2024.2.4,57.26176450109833,2025-03-11 16h04.42.244321 -0400,
15,15,0,critical,hwd,20.0,3.0,upper,200.0,125.0,125.0,200.0,141.0,141.0,2,3.534234046936035,None,,,,,0,0,0,0,0,15,15,105,107.74297976493835,,,,,,,,,,,,,,,,,,,,,,,,,,,,,,,,,,,,,,,,,,,,,,,,,,,,,,,,,,,,,,,,,,,,,,,,,,,,,,,,,200.0,125.0,125.0,200.0,141.0,141.0,3.0,3.1,-258,264,0,1,266,-266,107.72856521606445,107.72864699363708,107.7327013015747,107.74297976493835,107.89314460754395,107.89314460754395,107.89314460754395,107.89314460754395,107.89314460754395,107.89314460754395,107.89314460754395,111.28382229804993,2,3.534234046936035,None,,,,,,,,,,,,,,,,,,232,1,2025-03-11_16h04.01.226,comp,2024.2.4,57.26176450109833,2025-03-11 16h04.42.244321 -0400,
16,16,0,critical,whd,20.0,2.1,upper,125.0,200.0,200.0,125.0,141.0,141.0,1,3.657212734222412,None,,,,,0,0,0,0,0,16,16,39,111.29994893074036,,,,,,,,,,,,,,,,,,,,,,,,,,,,,,,,,,,,,,,,,,,,,,,,,,,,,,,,,,,,,,,,,,,,,,,,,,,,,,,,,125.0,200.0,200.0,125.0,141.0,141.0,2.1,2.11,-258,263,0,256,229,-287,111.28556728363037,111.28568840026855,111.28896880149841,111.29994893074036,111.44385170936584,111.44385170936584,111.44385170936584,111.44385170936584,111.44385170936584,111.44385170936584,111.44385170936584,114.96243023872375,1,3.657212734222412,None,,,,,,,,,,,,,,,,,,232,1,2025-03-11_16h04.01.226,comp,2024.2.4,57.26176450109833,2025-03-11 16h04.42.244321 -0400,
17,17,0,filler_square,None,None,None,None,None,None,None,None,None,None,3,2.4900615215301514,None,,,,,0,0,0,0,0,17,17,207,114.97887969017029,,,,,,,,,,,,,,,,,,,,,,,,,,,,,,,,,,,,,,,,,,,,,,,,,,,,,,,,,,,,,,,,,,,,,,,,,,,,,,,,,126.65659207602975,121.37423400334245,68.12924269757913,116.24947988175893,134.83962436007278,134.83962436007278,2.2,2.21,-215,-266,0,251,222,283,114.96429014205933,114.96437311172485,114.96780490875244,114.97887969017029,115.12733674049377,115.12733674049377,115.12733674049377,115.12733674049377,115.12733674049377,115.12733674049377,115.12733674049377,117.48485136032104,3,2.4900615215301514,None,,,,,,,,,,,,,,,,,,232,1,2025-03-11_16h04.01.226,comp,2024.2.4,57.26176450109833,2025-03-11 16h04.42.244321 -0400,
18,18,0,critical,dhw,20.0,2.1,upper,141.0,141.0,200.0,125.0,125.0,200.0,2,2.0143494606018066,None,,,,,0,0,0,0,0,18,18,3,117.50232267379761,,,,,,,,,,,,,,,,,,,,,,,,,,,,,,,,,,,,,,,,,,,,,,,,,,,,,,,,,,,,,,,,,,,,,,,,,,,,,,,,,141.0,141.0,200.0,125.0,125.0,200.0,2.1,2.11,-229,280,0,288,258,-270,117.48658466339111,117.48666572570801,117.4895932674408,117.50232267379761,117.64857363700867,117.64857363700867,117.64857363700867,117.64857363700867,117.64857363700867,117.64857363700867,117.64857363700867,119.53493690490723,2,2.0143494606018066,None,,,,,,,,,,,,,,,,,,232,1,2025-03-11_16h04.01.226,comp,2024.2.4,57.26176450109833,2025-03-11 16h04.42.244321 -0400,
19,19,0,filler_random,None,None,None,None,None,None,None,None,None,None,1,4.269653558731079,None,,,,,0,0,0,0,0,19,19,142,119.55147528648376,,,,,,,,,,,,,,,,,,,,,,,,,,,,,,,,,,,,,,,,,,,,,,,,,,,,,,,,,,,,,,,,,,,,,,,,,,,,,,,,,152.73835140619738,140.74412380203626,185.0348499684822,119.11776486623691,86.78138439768286,87.0772142185458,3.0,3.2,-226,-267,0,-16,199,286,119.53682446479797,119.5369176864624,119.54015874862671,119.55147528648376,119.69663429260254,119.69663429260254,119.69663429260254,119.69663429260254,119.69663429260254,119.69663429260254,119.69663429260254,123.83963084220886,1,4.269653558731079,None,,,,,,,,,,,,,,,,,,232,1,2025-03-11_16h04.01.226,comp,2024.2.4,57.26176450109833,2025-03-11 16h04.42.244321 -0400,
20,20,0,critical,hdw,20.0,2.1,lower,133.0,57.0,78.0,78.0,57.0,133.0,3,3.1402747631073,None,,,,,0,0,0,0,0,20,20,22,123.8568069934845,,,,,,,,,,,,,,,,,,,,,,,,,,,,,,,,,,,,,,,,,,,,,,,,,,,,,,,,,,,,,,,,,,,,,,,,,,,,,,,,,133.0,57.0,78.0,78.0,57.0,133.0,2.1,2.11,-164,286,0,269,202,-287,123.84112811088562,123.84120988845825,123.84407567977905,123.8568069934845,124.00246953964233,124.00246953964233,124.00246953964233,124.00246953964233,124.00246953964233,124.00246953964233,124.00246953964233,127.01517605781555,3,3.1402747631073,None,,,,,,,,,,,,,,,,,,232,1,2025-03-11_16h04.01.226,comp,2024.2.4,57.26176450109833,2025-03-11 16h04.42.244321 -0400,
21,21,0,critical,dwh,35.0,2.1,upper,127.0,127.0,125.0,200.0,200.0,125.0,2,2.7853803634643555,None,,,,,0,0,0,0,0,21,21,29,127.03502917289734,,,,,,,,,,,,,,,,,,,,,,,,,,,,,,,,,,,,,,,,,,,,,,,,,,,,,,,,,,,,,,,,,,,,,,,,,,,,,,,,,127.0,127.0,125.0,200.0,200.0,125.0,2.1,2.12,-260,-274,0,-276,258,277,127.01671504974365,127.0167944431305,127.01987624168396,127.03502917289734,127.18277597427368,127.18277597427368,127.18277597427368,127.18277597427368,127.18277597427368,127.18277597427368,127.18277597427368,129.8358473777771,2,2.7853803634643555,None,,,,,,,,,,,,,,,,,,232,1,2025-03-11_16h04.01.226,comp,2024.2.4,57.26176450109833,2025-03-11 16h04.42.244321 -0400,
22,22,0,critical,hdw,35.0,4.0,upper,200.0,125.0,127.0,127.0,125.0,200.0,1,1.9129934310913086,None,,,,,0,0,0,0,0,22,22,113,129.85219264030457,,,,,,,,,,,,,,,,,,,,,,,,,,,,,,,,,,,,,,,,,,,,,,,,,,,,,,,,,,,,,,,,,,,,,,,,,,,,,,,,,200.0,125.0,127.0,127.0,125.0,200.0,4.0,4.2,-222,-7,0,-261,260,-10,129.83761930465698,129.8377013206482,129.84160113334656,129.85219264030457,130.00441575050354,130.00441575050354,130.00441575050354,130.00441575050354,130.00441575050354,130.00441575050354,130.00441575050354,131.77034378051758,1,1.9129934310913086,None,,,,,,,,,,,,,,,,,,232,1,2025-03-11_16h04.01.226,comp,2024.2.4,57.26176450109833,2025-03-11 16h04.42.244321 -0400,
23,23,0,critical,whd,35.0,2.1,lower,57.0,133.0,133.0,57.0,70.0,70.0,2,4.1427998542785645,None,,,,,0,0,0,0,0,23,23,12,131.79082942008972,,,,,,,,,,,,,,,,,,,,,,,,,,,,,,,,,,,,,,,,,,,,,,,,,,,,,,,,,,,,,,,,,,,,,,,,,,,,,,,,,57.0,133.0,133.0,57.0,70.0,70.0,2.1,2.11,-191,262,0,261,160,-274,131.77213430404663,131.77225542068481,131.77560758590698,131.79082942008972,131.93181490898132,131.93181490898132,131.93181490898132,131.93181490898132,131.93181490898132,131.93181490898132,131.93181490898132,135.9434711933136,2,4.1427998542785645,None,,,,,,,,,,,,,,,,,,232,1,2025-03-11_16h04.01.226,comp,2024.2.4,57.26176450109833,2025-03-11 16h04.42.244321 -0400,
24,24,0,critical,dwh,20.0,2.1,lower,78.0,78.0,57.0,133.0,133.0,57.0,3,2.827646493911743,None,,,,,0,0,0,0,0,24,24,30,135.96075963974,,,,,,,,,,,,,,,,,,,,,,,,,,,,,,,,,,,,,,,,,,,,,,,,,,,,,,,,,,,,,,,,,,,,,,,,,,,,,,,,,78.0,78.0,57.0,133.0,133.0,57.0,2.1,2.11,-202,269,0,256,191,-270,135.94505286216736,135.9451823234558,135.94840049743652,135.96075963974,136.10128450393677,136.10128450393677,136.10128450393677,136.10128450393677,136.10128450393677,136.10128450393677,136.10128450393677,138.80189728736877,3,2.827646493911743,None,,,,,,,,,,,,,,,,,,232,1,2025-03-11_16h04.01.226,comp,2024.2.4,57.26176450109833,2025-03-11 16h04.42.244321 -0400,
25,25,0,catch,None,None,None,None,None,None,None,None,None,None,3,2.0302274227142334,None,,,,,0,0,0,0,0,25,25,127,138.8227789402008,,,,,,,,,,,,,,,,,,,,,,,,,,,,,,,,,,,,,,,,,,,,,,,,,,,,,,,,,,,,,,,,,,,,,,,,,,,,,,,,,84,106,101,89,138,187,2.1,2.11,-194,274,0,272,234,-268,138.80383944511414,138.80391907691956,138.8073480129242,138.8227789402008,138.96956181526184,138.96956181526184,138.96956181526184,138.96956181526184,138.96956181526184,138.96956181526184,138.96956181526184,140.8705039024353,3,2.0302274227142334,None,,,,,,,,,,,,,,,,,,232,1,2025-03-11_16h04.01.226,comp,2024.2.4,57.26176450109833,2025-03-11 16h04.42.244321 -0400,
26,26,0,filler_random,None,None,None,None,None,None,None,None,None,None,1,3.2297706604003906,None,,,,,0,0,0,0,0,26,26,165,140.8867208957672,,,,,,,,,,,,,,,,,,,,,,,,,,,,,,,,,,,,,,,,,,,,,,,,,,,,,,,,,,,,,,,,,,,,,,,,,,,,,,,,,150.61679547776976,145.59361951716662,110.01579224087061,135.0102560277591,151.80314834696992,177.05963115460594,1.0,1.3,244,-283,480,-268,732,-273,140.87230324745178,140.872385263443,140.8764250278473,140.8867208957672,141.0355405807495,141.0355405807495,141.0355405807495,141.0355405807495,141.0355405807495,141.0355405807495,141.0355405807495,144.1198856830597,1,3.2297706604003906,None,,,,,,,,,,,,,,,,,,232,1,2025-03-11_16h04.01.226,comp,2024.2.4,57.26176450109833,2025-03-11 16h04.42.244321 -0400,
27,27,0,filler_square,None,None,None,None,None,None,None,None,None,None,2,2.19555401802063,None,,,,,0,0,0,0,0,27,27,188,144.13734936714172,,,,,,,,,,,,,,,,,,,,,,,,,,,,,,,,,,,,,,,,,,,,,,,,,,,,,,,,,,,,,,,,,,,,,,,,,,,,,,,,,58.47813433000515,104.09480362427631,108.30469743771178,108.30469743771178,94.12618065070697,93.53631227993313,4.0,4.1,-202,-256,0,5,197,-265,144.1216642856598,144.12174582481384,144.1248915195465,144.13734936714172,144.29294729232788,144.29294729232788,144.29294729232788,144.29294729232788,144.29294729232788,144.29294729232788,144.29294729232788,146.3354103565216,2,2.19555401802063,None,,,,,,,,,,,,,,,,,,232,1,2025-03-11_16h04.01.226,comp,2024.2.4,57.26176450109833,2025-03-11 16h04.42.244321 -0400,
28,28,0,catch,None,None,None,None,None,None,None,None,None,None,1,1.677300214767456,None,,,,,0,0,0,0,0,28,28,122,146.35223364830017,,,,,,,,,,,,,,,,,,,,,,,,,,,,,,,,,,,,,,,,,,,,,,,,,,,,,,,,,,,,,,,,,,,,,,,,,,,,,,,,,141,184,96,94,97,93,4.0,4.2,-235,-17,0,-260,190,-13,146.337247133255,146.337327003479,146.3402349948883,146.35223364830017,146.49425601959229,146.49425601959229,146.49425601959229,146.49425601959229,146.49425601959229,146.49425601959229,146.49425601959229,148.0371596813202,1,1.677300214767456,None,,,,,,,,,,,,,,,,,,232,1,2025-03-11_16h04.01.226,comp,2024.2.4,57.26176450109833,2025-03-11 16h04.42.244321 -0400,
29,29,0,critical,wdh,35.0,2.1,lower,57.0,133.0,70.0,70.0,133.0,57.0,3,1.8314785957336426,None,,,,,0,0,0,0,0,29,29,32,148.0533549785614,,,,,,,,,,,,,,,,,,,,,,,,,,,,,,,,,,,,,,,,,,,,,,,,,,,,,,,,,,,,,,,,,,,,,,,,,,,,,,,,,57.0,133.0,70.0,70.0,133.0,57.0,2.1,2.12,-198,-285,0,-261,160,287,148.03885436058044,148.038987159729,148.0423195362091,148.0533549785614,148.21152091026306,148.21152091026306,148.21152091026306,148.21152091026306,148.21152091026306,148.21152091026306,148.21152091026306,149.88954782485962,3,1.8314785957336426,None,,,,,,,,,,,,,,,,,,232,1,2025-03-11_16h04.01.226,comp,2024.2.4,57.26176450109833,2025-03-11 16h04.42.244321 -0400,
30,30,0,filler_square,None,None,None,None,None,None,None,None,None,None,2,3.028752565383911,None,,,,,0,0,0,0,0,30,30,192,149.90449929237366,,,,,,,,,,,,,,,,,,,,,,,,,,,,,,,,,,,,,,,,,,,,,,,,,,,,,,,,,,,,,,,,,,,,,,,,,,,,,,,,,80.79911119861676,72.41372458979069,86.73517081416273,86.73517081416273,59.52195432812137,84.57320582523737,4.0,4.1,-176,-287,0,12,182,-275,149.89141011238098,149.89149236679077,149.89485144615173,149.90449929237366,150.05717134475708,150.05717134475708,150.05717134475708,150.05717134475708,150.05717134475708,150.05717134475708,150.05717134475708,152.94062733650208,2,3.028752565383911,None,,,,,,,,,,,,,,,,,,232,1,2025-03-11_16h04.01.226,comp,2024.2.4,57.26176450109833,2025-03-11 16h04.42.244321 -0400,
31,31,0,filler_random,None,None,None,None,None,None,None,None,None,None,3,2.736147880554199,None,,,,,0,0,0,0,0,31,31,156,152.95709943771362,,,,,,,,,,,,,,,,,,,,,,,,,,,,,,,,,,,,,,,,,,,,,,,,,,,,,,,,,,,,,,,,,,,,,,,,,,,,,,,,,94.38529768711186,153.93259399136957,63.70838356636008,110.59807779640832,194.96436443392417,75.53337876615743,3.0,3.1,-228,275,0,11,189,-274,152.94261980056763,152.94270277023315,152.94639706611633,152.95709943771362,153.1079273223877,153.1079273223877,153.1079273223877,153.1079273223877,153.1079273223877,153.1079273223877,153.1079273223877,155.69593834877014,3,2.736147880554199,None,,,,,,,,,,,,,,,,,,232,1,2025-03-11_16h04.01.226,comp,2024.2.4,57.26176450109833,2025-03-11 16h04.42.244321 -0400,
32,32,0,critical,hdw,20.0,1.0,lower,133.0,57.0,78.0,78.0,57.0,133.0,1,2.2207753658294678,None,,,,,0,0,0,0,0,32,32,114,155.712229013443,,,,,,,,,,,,,,,,,,,,,,,,,,,,,,,,,,,,,,,,,,,,,,,,,,,,,,,,,,,,,,,,,,,,,,,,,,,,,,,,,133.0,57.0,78.0,78.0,57.0,133.0,1.0,1.1,-644,272,-480,289,-278,268,155.697491645813,155.69757199287415,155.7008318901062,155.712229013443,155.85562348365784,155.85562348365784,155.85562348365784,155.85562348365784,155.85562348365784,155.85562348365784,155.85562348365784,157.94440698623657,1,2.2207753658294678,None,,,,,,,,,,,,,,,,,,232,1,2025-03-11_16h04.01.226,comp,2024.2.4,57.26176450109833,2025-03-11 16h04.42.244321 -0400,
33,33,0,critical,hwd,20.0,4.0,lower,133.0,57.0,57.0,133.0,78.0,78.0,2,5.426881790161133,None,,,,,0,0,0,0,0,33,33,106,157.96155500411987,,,,,,,,,,,,,,,,,,,,,,,,,,,,,,,,,,,,,,,,,,,,,,,,,,,,,,,,,,,,,,,,,,,,,,,,,,,,,,,,,133.0,57.0,57.0,133.0,78.0,78.0,4.0,4.1,-191,-255,0,4,202,-271,157.94608879089355,157.9461965560913,157.95003724098206,157.96155500411987,158.096342086792,158.096342086792,158.096342086792,158.096342086792,158.096342086792,158.096342086792,158.096342086792,163.40243482589722,2,5.426881790161133,None,,,,,,,,,,,,,,,,,,232,1,2025-03-11_16h04.01.226,comp,2024.2.4,57.26176450109833,2025-03-11 16h04.42.244321 -0400,
34,34,0,filler_random,None,None,None,None,None,None,None,None,None,None,1,1.8318819999694824,None,,,,,0,0,0,0,0,34,34,153,163.42166829109192,,,,,,,,,,,,,,,,,,,,,,,,,,,,,,,,,,,,,,,,,,,,,,,,,,,,,,,,,,,,,,,,,,,,,,,,,,,,,,,,,181.530709778493,147.72803018891688,139.27525003295096,158.70730964584953,73.9084783052829,123.93003646547403,2.1,2.11,-249,267,0,263,237,-261,163.4041872024536,163.40426898002625,163.40715646743774,163.42166829109192,163.55818247795105,163.55818247795105,163.55818247795105,163.55818247795105,163.55818247795105,163.55818247795105,163.55818247795105,165.25862789154053,1,1.8318819999694824,None,,,,,,,,,,,,,,,,,,232,1,2025-03-11_16h04.01.226,comp,2024.2.4,57.26176450109833,2025-03-11 16h04.42.244321 -0400,
35,35,0,critical,dhw,35.0,1.0,lower,70.0,70.0,133.0,57.0,57.0,133.0,2,4.499199867248535,None,,,,,0,0,0,0,0,35,35,48,165.2740728855133,,,,,,,,,,,,,,,,,,,,,,,,,,,,,,,,,,,,,,,,,,,,,,,,,,,,,,,,,,,,,,,,,,,,,,,,,,,,,,,,,70.0,70.0,133.0,57.0,57.0,133.0,1.0,1.2,-160,14,0,20,191,-5,165.26017332077026,165.26025485992432,165.2631435394287,165.2740728855133,165.41170930862427,165.41170930862427,165.41170930862427,165.41170930862427,165.41170930862427,165.41170930862427,165.41170930862427,169.78208351135254,2,4.499199867248535,None,,,,,,,,,,,,,,,,,,232,1,2025-03-11_16h04.01.226,comp,2024.2.4,57.26176450109833,2025-03-11 16h04.42.244321 -0400,
36,36,0,critical,hwd,35.0,2.1,upper,200.0,125.0,125.0,200.0,127.0,127.0,1,1.6234502792358398,None,,,,,0,0,0,0,0,36,36,41,169.79756212234497,,,,,,,,,,,,,,,,,,,,,,,,,,,,,,,,,,,,,,,,,,,,,,,,,,,,,,,,,,,,,,,,,,,,,,,,,,,,,,,,,200.0,125.0,125.0,200.0,127.0,127.0,2.1,2.11,-258,251,0,289,260,-274,169.78365755081177,169.78374218940735,169.78675174713135,169.79756212234497,169.94594860076904,169.94594860076904,169.94594860076904,169.94594860076904,169.94594860076904,169.94594860076904,169.94594860076904,171.43099856376648,1,1.6234502792358398,None,,,,,,,,,,,,,,,,,,232,1,2025-03-11_16h04.01.226,comp,2024.2.4,57.26176450109833,2025-03-11 16h04.42.244321 -0400,
37,37,0,filler_random,None,None,None,None,None,None,None,None,None,None,2,1.6255226135253906,None,,,,,0,0,0,0,0,37,37,162,171.45143342018127,,,,,,,,,,,,,,,,,,,,,,,,,,,,,,,,,,,,,,,,,,,,,,,,,,,,,,,,,,,,,,,,,,,,,,,,,,,,,,,,,186.6371487328879,79.24527361236254,153.2090634217486,177.5126207767772,131.8439840710754,173.01872781356144,2.1,2.11,-224,262,0,269,271,-250,171.43287062644958,171.43299889564514,171.43634963035583,171.45143342018127,171.5972068309784,171.5972068309784,171.5972068309784,171.5972068309784,171.5972068309784,171.5972068309784,171.5972068309784,173.09764051437378,2,1.6255226135253906,None,,,,,,,,,,,,,,,,,,232,1,2025-03-11_16h04.01.226,comp,2024.2.4,57.26176450109833,2025-03-11 16h04.42.244321 -0400,
38,38,0,filler_square,None,None,None,None,None,None,None,None,None,None,1,7.018285751342773,None,,,,,0,0,0,0,0,38,38,175,173.11433935165405,,,,,,,,,,,,,,,,,,,,,,,,,,,,,,,,,,,,,,,,,,,,,,,,,,,,,,,,,,,,,,,,,,,,,,,,,,,,,,,,,63.71757952979904,63.71757952979904,60.87312205583634,59.81757053188804,59.21272450959944,58.52510961124236,1.0,1.2,-158,-1,0,9,155,12,173.09952020645142,173.09959959983826,173.10276794433594,173.11433935165405,173.26719212532043,173.26719212532043,173.26719212532043,173.26719212532043,173.26719212532043,173.26719212532043,173.26719212532043,180.15164494514465,1,7.018285751342773,None,,,,,,,,,,,,,,,,,,232,1,2025-03-11_16h04.01.226,comp,2024.2.4,57.26176450109833,2025-03-11 16h04.42.244321 -0400,
39,39,0,catch,None,None,None,None,None,None,None,None,None,None,2,1.4637413024902344,None,,,,,0,0,0,0,0,39,39,123,180.17282128334045,,,,,,,,,,,,,,,,,,,,,,,,,,,,,,,,,,,,,,,,,,,,,,,,,,,,,,,,,,,,,,,,,,,,,,,,,,,,,,,,,94,96,189,136,123,67,2.2,2.22,-212,285,0,-286,198,-272,180.15384602546692,180.15393257141113,180.1575129032135,180.17282128334045,180.31661319732666,180.31661319732666,180.31661319732666,180.31661319732666,180.31661319732666,180.31661319732666,180.31661319732666,181.65117573738098,2,1.4637413024902344,None,,,,,,,,,,,,,,,,,,232,1,2025-03-11_16h04.01.226,comp,2024.2.4,57.26176450109833,2025-03-11 16h04.42.244321 -0400,
40,40,0,filler_square,None,None,None,None,None,None,None,None,None,None,1,1.7776036262512207,None,,,,,0,0,0,0,0,40,40,183,181.6677098274231,,,,,,,,,,,,,,,,,,,,,,,,,,,,,,,,,,,,,,,,,,,,,,,,,,,,,,,,,,,,,,,,,,,,,,,,,,,,,,,,,142.64040855468699,142.64040855468699,73.8382631754408,88.80804453864019,101.8256768019881,117.6188154590825,2.1,2.11,-212,279,0,269,199,-282,181.65331172943115,181.65339612960815,181.65650582313538,181.6677098274231,181.8152892589569,181.8152892589569,181.8152892589569,181.8152892589569,181.8152892589569,181.8152892589569,181.8152892589569,183.44853687286377,1,1.7776036262512207,None,,,,,,,,,,,,,,,,,,232,1,2025-03-11_16h04.01.226,comp,2024.2.4,57.26176450109833,2025-03-11 16h04.42.244321 -0400,
41,41,0,critical,whd,35.0,2.1,lower,57.0,133.0,133.0,57.0,70.0,70.0,2,2.020415782928467,None,,,,,0,0,0,0,0,41,41,36,183.46478390693665,,,,,,,,,,,,,,,,,,,,,,,,,,,,,,,,,,,,,,,,,,,,,,,,,,,,,,,,,,,,,,,,,,,,,,,,,,,,,,,,,57.0,133.0,133.0,57.0,70.0,70.0,2.1,2.12,-191,-286,0,-266,160,282,183.45006465911865,183.4501714706421,183.4530644416809,183.46478390693665,183.6165623664856,183.6165623664856,183.6165623664856,183.6165623664856,183.6165623664856,183.6165623664856,183.6165623664856,185.49256038665771,2,2.020415782928467,None,,,,,,,,,,,,,,,,,,232,1,2025-03-11_16h04.01.226,comp,2024.2.4,57.26176450109833,2025-03-11 16h04.42.244321 -0400,
42,42,0,filler_square,None,None,None,None,None,None,None,None,None,None,3,1.249561071395874,None,,,,,0,0,0,0,0,42,42,184,185.50820875167847,,,,,,,,,,,,,,,,,,,,,,,,,,,,,,,,,,,,,,,,,,,,,,,,,,,,,,,,,,,,,,,,,,,,,,,,,,,,,,,,,91.11251330439566,130.9656554950762,111.91225515076599,136.39647492350218,179.30710122320295,179.30710122320295,2.2,2.21,-230,-261,0,260,254,269,185.49438452720642,185.49446511268616,185.4973542690277,185.50820875167847,185.65253949165344,185.65253949165344,185.65253949165344,185.65253949165344,185.65253949165344,185.65253949165344,185.65253949165344,186.76884031295776,3,1.249561071395874,None,,,,,,,,,,,,,,,,,,232,1,2025-03-11_16h04.01.226,comp,2024.2.4,57.26176450109833,2025-03-11 16h04.42.244321 -0400,
43,43,0,critical,hdw,35.0,2.1,lower,133.0,57.0,70.0,70.0,57.0,133.0,3,2.7238452434539795,None,,,,,0,0,0,0,0,43,43,20,186.78459668159485,,,,,,,,,,,,,,,,,,,,,,,,,,,,,,,,,,,,,,,,,,,,,,,,,,,,,,,,,,,,,,,,,,,,,,,,,,,,,,,,,133.0,57.0,70.0,70.0,57.0,133.0,2.1,2.12,-160,-255,0,-284,198,287,186.7703936100006,186.77047324180603,186.77385306358337,186.78459668159485,186.93718218803406,186.93718218803406,186.93718218803406,186.93718218803406,186.93718218803406,186.93718218803406,186.93718218803406,189.5196213722229,3,2.7238452434539795,None,,,,,,,,,,,,,,,,,,232,1,2025-03-11_16h04.01.226,comp,2024.2.4,57.26176450109833,2025-03-11 16h04.42.244321 -0400,
44,44,0,filler_random,None,None,None,None,None,None,None,None,None,None,2,1.8473832607269287,None,,,,,0,0,0,0,0,44,44,144,189.54114151000977,,,,,,,,,,,,,,,,,,,,,,,,,,,,,,,,,,,,,,,,,,,,,,,,,,,,,,,,,,,,,,,,,,,,,,,,,,,,,,,,,188.95883104076242,58.476749159598796,140.48109166009795,170.18094499630882,160.45076577367223,69.47962962571849,2.2,2.21,-210,-257,0,268,216,268,189.52135825157166,189.52143549919128,189.5253529548645,189.54114151000977,189.68215417861938,189.68215417861938,189.68215417861938,189.68215417861938,189.68215417861938,189.68215417861938,189.68215417861938,191.4021954536438,2,1.8473832607269287,None,,,,,,,,,,,,,,,,,,232,1,2025-03-11_16h04.01.226,comp,2024.2.4,57.26176450109833,2025-03-11 16h04.42.244321 -0400,
45,45,0,filler_random,None,None,None,None,None,None,None,None,None,None,3,1.7544407844543457,None,,,,,0,0,0,0,0,45,45,143,191.41827392578125,,,,,,,,,,,,,,,,,,,,,,,,,,,,,,,,,,,,,,,,,,,,,,,,,,,,,,,,,,,,,,,,,,,,,,,,,,,,,,,,,101.19706394115474,66.3566631212621,150.07757505884803,193.44360062692002,171.48919079478733,195.31637927216673,2.1,2.11,-226,259,0,283,290,-273,191.40390944480896,191.40398693084717,191.40701293945312,191.41827392578125,191.56892728805542,191.56892728805542,191.56892728805542,191.56892728805542,191.56892728805542,191.56892728805542,191.56892728805542,193.19273281097412,3,1.7544407844543457,None,,,,,,,,,,,,,,,,,,232,1,2025-03-11_16h04.01.226,comp,2024.2.4,57.26176450109833,2025-03-11 16h04.42.244321 -0400,
46,46,0,critical,wdh,35.0,3.0,upper,125.0,200.0,127.0,127.0,200.0,125.0,3,5.378836154937744,None,,,,,0,0,0,0,0,46,46,75,193.20996761322021,,,,,,,,,,,,,,,,,,,,,,,,,,,,,,,,,,,,,,,,,,,,,,,,,,,,,,,,,,,,,,,,,,,,,,,,,,,,,,,,,125.0,200.0,127.0,127.0,200.0,125.0,3.0,3.1,-260,268,0,11,222,-285,193.19428825378418,193.19436693191528,193.1972620487213,193.20996761322021,193.35370683670044,193.35370683670044,193.35370683670044,193.35370683670044,193.35370683670044,193.35370683670044,193.35370683670044,198.60587882995605,3,5.378836154937744,None,,,,,,,,,,,,,,,,,,232,1,2025-03-11_16h04.01.226,comp,2024.2.4,57.26176450109833,2025-03-11 16h04.42.244321 -0400,
47,47,0,critical,dhw,35.0,2.1,lower,70.0,70.0,133.0,57.0,57.0,133.0,3,1.5984539985656738,None,,,,,0,0,0,0,0,47,47,0,198.62269258499146,,,,,,,,,,,,,,,,,,,,,,,,,,,,,,,,,,,,,,,,,,,,,,,,,,,,,,,,,,,,,,,,,,,,,,,,,,,,,,,,,70.0,70.0,133.0,57.0,57.0,133.0,2.1,2.12,-160,-256,0,-260,191,284,198.60768055915833,198.60781693458557,198.61143612861633,198.62269258499146,198.7750780582428,198.7750780582428,198.7750780582428,198.7750780582428,198.7750780582428,198.7750780582428,198.7750780582428,200.2258825302124,3,1.5984539985656738,None,,,,,,,,,,,,,,,,,,232,1,2025-03-11_16h04.01.226,comp,2024.2.4,57.26176450109833,2025-03-11 16h04.42.244321 -0400,
48,48,0,critical,hdw,20.0,4.0,lower,133.0,57.0,78.0,78.0,57.0,133.0,1,2.658264636993408,None,,,,,0,0,0,0,0,48,48,118,200.2428274154663,,,,,,,,,,,,,,,,,,,,,,,,,,,,,,,,,,,,,,,,,,,,,,,,,,,,,,,,,,,,,,,,,,,,,,,,,,,,,,,,,133.0,57.0,78.0,78.0,57.0,133.0,4.0,4.1,-164,-257,0,9,202,-287,200.22764945030212,200.22776818275452,200.23106622695923,200.2428274154663,200.38917350769043,200.38917350769043,200.38917350769043,200.38917350769043,200.38917350769043,200.38917350769043,200.38917350769043,202.90453696250916,1,2.658264636993408,None,,,,,,,,,,,,,,,,,,232,1,2025-03-11_16h04.01.226,comp,2024.2.4,57.26176450109833,2025-03-11 16h04.42.244321 -0400,
49,49,0,filler_random,None,None,None,None,None,None,None,None,None,None,1,3.0675976276397705,None,,,,,0,0,0,0,0,49,49,164,202.921484708786,,,,,,,,,,,,,,,,,,,,,,,,,,,,,,,,,,,,,,,,,,,,,,,,,,,,,,,,,,,,,,,,,,,,,,,,,,,,,,,,,70.95321004382713,143.28507995690765,126.75197751061445,62.79959541637954,84.62141661028735,64.54540276585593,3.0,3.2,-199,-287,0,18,160,283,202.90626502037048,202.90634536743164,202.90946006774902,202.921484708786,203.07219338417053,203.07219338417053,203.07219338417053,203.07219338417053,203.07219338417053,203.07219338417053,203.07219338417053,206.00596070289612,1,3.0675976276397705,None,,,,,,,,,,,,,,,,,,232,1,2025-03-11_16h04.01.226,comp,2024.2.4,57.26176450109833,2025-03-11 16h04.42.244321 -0400,
50,50,0,catch,None,None,None,None,None,None,None,None,None,None,3,1.8776793479919434,None,,,,,0,0,0,0,0,50,50,120,206.02310132980347,,,,,,,,,,,,,,,,,,,,,,,,,,,,,,,,,,,,,,,,,,,,,,,,,,,,,,,,,,,,,,,,,,,,,,,,,,,,,,,,,117,73,98,92,138,187,2.1,2.12,-178,-261,0,-254,236,268,206.00822758674622,206.00830841064453,206.01162886619568,206.02310132980347,206.16279554367065,206.16279554367065,206.16279554367065,206.16279554367065,206.16279554367065,206.16279554367065,206.16279554367065,207.9060435295105,3,1.8776793479919434,None,,,,,,,,,,,,,,,,,,232,1,2025-03-11_16h04.01.226,comp,2024.2.4,57.26176450109833,2025-03-11 16h04.42.244321 -0400,
51,51,0,filler_square,None,None,None,None,None,None,None,None,None,None,2,3.5956926345825195,None,,,,,0,0,0,0,0,51,51,187,207.92160630226135,,,,,,,,,,,,,,,,,,,,,,,,,,,,,,,,,,,,,,,,,,,,,,,,,,,,,,,,,,,,,,,,,,,,,,,,,,,,,,,,,75.5994348044155,75.5994348044155,73.59877332721685,64.64899669881736,61.696199121776175,74.75682678548537,3.0,3.2,-166,-275,0,15,166,256,207.90786695480347,207.9079475402832,207.91092777252197,207.92160630226135,208.074036359787,208.074036359787,208.074036359787,208.074036359787,208.074036359787,208.074036359787,208.074036359787,211.52579927444458,2,3.5956926345825195,None,,,,,,,,,,,,,,,,,,232,1,2025-03-11_16h04.01.226,comp,2024.2.4,57.26176450109833,2025-03-11 16h04.42.244321 -0400,
52,52,0,critical,hdw,20.0,2.1,upper,200.0,125.0,141.0,141.0,125.0,200.0,1,1.8788087368011475,None,,,,,0,0,0,0,0,52,52,23,211.54190158843994,,,,,,,,,,,,,,,,,,,,,,,,,,,,,,,,,,,,,,,,,,,,,,,,,,,,,,,,,,,,,,,,,,,,,,,,,,,,,,,,,200.0,125.0,141.0,141.0,125.0,200.0,2.1,2.12,-229,-260,0,-283,266,252,211.5274636745453,211.5275912284851,211.53108978271484,211.54190158843994,211.69465899467468,211.69465899467468,211.69465899467468,211.69465899467468,211.69465899467468,211.69465899467468,211.69465899467468,213.42646551132202,1,1.8788087368011475,None,,,,,,,,,,,,,,,,,,232,1,2025-03-11_16h04.01.226,comp,2024.2.4,57.26176450109833,2025-03-11 16h04.42.244321 -0400,
53,53,0,critical,dwh,20.0,2.1,upper,141.0,141.0,125.0,200.0,200.0,125.0,1,5.565245866775513,None,,,,,0,0,0,0,0,53,53,31,213.44740986824036,,,,,,,,,,,,,,,,,,,,,,,,,,,,,,,,,,,,,,,,,,,,,,,,,,,,,,,,,,,,,,,,,,,,,,,,,,,,,,,,,141.0,141.0,125.0,200.0,200.0,125.0,2.1,2.12,-266,-278,0,-259,258,272,213.42809319496155,213.42824125289917,213.43173813819885,213.44740986824036,213.5943341255188,213.5943341255188,213.5943341255188,213.5943341255188,213.5943341255188,213.5943341255188,213.5943341255188,219.02539682388306,1,5.565245866775513,None,,,,,,,,,,,,,,,,,,232,1,2025-03-11_16h04.01.226,comp,2024.2.4,57.26176450109833,2025-03-11 16h04.42.244321 -0400,
54,54,0,filler_random,None,None,None,None,None,None,None,None,None,None,3,10.411196947097778,None,,,,,0,0,0,0,0,54,54,135,219.0413522720337,,,,,,,,,,,,,,,,,,,,,,,,,,,,,,,,,,,,,,,,,,,,,,,,,,,,,,,,,,,,,,,,,,,,,,,,,,,,,,,,,60.33481312742822,83.45570420432526,94.8933219221801,120.88057570191938,133.29670284677866,86.80433465044864,3.0,3.2,-198,-263,0,20,200,284,219.02732181549072,219.02740359306335,219.0306203365326,219.0413522720337,219.17918062210083,219.17918062210083,219.17918062210083,219.17918062210083,219.17918062210083,219.17918062210083,219.17918062210083,229.46494245529175,3,10.411196947097778,None,,,,,,,,,,,,,,,,,,232,1,2025-03-11_16h04.01.226,comp,2024.2.4,57.26176450109833,2025-03-11 16h04.42.244321 -0400,
55,55,0,filler_square,None,None,None,None,None,None,None,None,None,None,3,1.8159708976745605,None,,,,,0,0,0,0,0,55,55,179,229.48452615737915,,,,,,,,,,,,,,,,,,,,,,,,,,,,,,,,,,,,,,,,,,,,,,,,,,,,,,,,,,,,,,,,,,,,,,,,,,,,,,,,,105.04871476358022,135.28747583926304,137.14301737283586,123.56041422480745,145.41505301225823,145.41505301225823,3.0,3.2,-225,-274,0,-18,230,269,229.46696138381958,229.46705675125122,229.47041773796082,229.48452615737915,229.63179874420166,229.63179874420166,229.63179874420166,229.63179874420166,229.63179874420166,229.63179874420166,229.63179874420166,231.3163709640503,3,1.8159708976745605,None,,,,,,,,,,,,,,,,,,232,1,2025-03-11_16h04.01.226,comp,2024.2.4,57.26176450109833,2025-03-11 16h04.42.244321 -0400,
56,56,0,filler_random,None,None,None,None,None,None,None,None,None,None,3,1.8881032466888428,None,,,,,0,0,0,0,0,56,56,130,231.33250665664673,,,,,,,,,,,,,,,,,,,,,,,,,,,,,,,,,,,,,,,,,,,,,,,,,,,,,,,,,,,,,,,,,,,,,,,,,,,,,,,,,100.64559586227065,199.5905600049926,163.18498775551097,102.12749317668901,182.43702441028768,187.0952609964644,2.2,2.22,-247,258,0,-259,241,-255,231.31821727752686,231.3183078765869,231.3215012550354,231.33250665664673,231.48059010505676,231.48059010505676,231.48059010505676,231.48059010505676,231.48059010505676,231.48059010505676,231.48059010505676,233.2338469028473,3,1.8881032466888428,None,,,,,,,,,,,,,,,,,,232,1,2025-03-11_16h04.01.226,comp,2024.2.4,57.26176450109833,2025-03-11 16h04.42.244321 -0400,
57,57,0,critical,whd,35.0,2.1,upper,125.0,200.0,200.0,125.0,127.0,127.0,2,2.098966360092163,None,,,,,0,0,0,0,0,57,57,13,233.25035786628723,,,,,,,,,,,,,,,,,,,,,,,,,,,,,,,,,,,,,,,,,,,,,,,,,,,,,,,,,,,,,,,,,,,,,,,,,,,,,,,,,125.0,200.0,200.0,125.0,127.0,127.0,2.1,2.12,-258,-278,0,-271,222,284,233.23545813560486,233.2355375289917,233.23910093307495,233.25035786628723,233.3978123664856,233.3978123664856,233.3978123664856,233.3978123664856,233.3978123664856,233.3978123664856,233.3978123664856,235.3513638973236,2,2.098966360092163,None,,,,,,,,,,,,,,,,,,232,1,2025-03-11_16h04.01.226,comp,2024.2.4,57.26176450109833,2025-03-11 16h04.42.244321 -0400,
58,58,0,critical,hwd,20.0,2.1,lower,133.0,57.0,57.0,133.0,78.0,78.0,1,2.812697410583496,None,,,,,0,0,0,0,0,58,58,42,235.36801099777222,,,,,,,,,,,,,,,,,,,,,,,,,,,,,,,,,,,,,,,,,,,,,,,,,,,,,,,,,,,,,,,,,,,,,,,,,,,,,,,,,133.0,57.0,57.0,133.0,78.0,78.0,2.1,2.12,-191,-289,0,-263,202,269,235.3530490398407,235.35317206382751,235.35640025138855,235.36801099777222,235.51569986343384,235.51569986343384,235.51569986343384,235.51569986343384,235.51569986343384,235.51569986343384,235.51569986343384,238.1837854385376,1,2.812697410583496,None,,,,,,,,,,,,,,,,,,232,1,2025-03-11_16h04.01.226,comp,2024.2.4,57.26176450109833,2025-03-11 16h04.42.244321 -0400,
59,59,0,critical,whd,35.0,4.0,lower,57.0,133.0,133.0,57.0,70.0,70.0,2,2.4528799057006836,None,,,,,0,0,0,0,0,59,59,88,238.1997094154358,,,,,,,,,,,,,,,,,,,,,,,,,,,,,,,,,,,,,,,,,,,,,,,,,,,,,,,,,,,,,,,,,,,,,,,,,,,,,,,,,57.0,133.0,133.0,57.0,70.0,70.0,4.0,4.1,-191,-262,0,4,160,-261,238.18540382385254,238.1854841709137,238.1888816356659,238.1997094154358,238.3513572216034,238.3513572216034,238.3513572216034,238.3513572216034,238.3513572216034,238.3513572216034,238.3513572216034,240.6685917377472,2,2.4528799057006836,None,,,,,,,,,,,,,,,,,,232,1,2025-03-11_16h04.01.226,comp,2024.2.4,57.26176450109833,2025-03-11 16h04.42.244321 -0400,
60,60,0,filler_square,None,None,None,None,None,None,None,None,None,None,3,3.7687630653381348,None,,,,,0,0,0,0,0,60,60,200,240.68400144577026,,,,,,,,,,,,,,,,,,,,,,,,,,,,,,,,,,,,,,,,,,,,,,,,,,,,,,,,,,,,,,,,,,,,,,,,,,,,,,,,,68.15502259188811,79.46468223699489,99.72032770356972,88.33304979251837,106.2012668155065,106.2012668155065,1.0,1.2,-180,-1,0,-3,193,0,240.67049503326416,240.6705720424652,240.67371582984924,240.68400144577026,240.83664298057556,240.83664298057556,240.83664298057556,240.83664298057556,240.83664298057556,240.83664298057556,240.83664298057556,244.46859860420227,3,3.7687630653381348,None,,,,,,,,,,,,,,,,,,232,1,2025-03-11_16h04.01.226,comp,2024.2.4,57.26176450109833,2025-03-11 16h04.42.244321 -0400,
61,61,0,filler_random,None,None,None,None,None,None,None,None,None,None,1,1.9295310974121094,None,,,,,0,0,0,0,0,61,61,132,244.48488640785217,,,,,,,,,,,,,,,,,,,,,,,,,,,,,,,,,,,,,,,,,,,,,,,,,,,,,,,,,,,,,,,,,,,,,,,,,,,,,,,,,139.28580319458868,127.71559305457797,86.21450609087496,90.3762478453393,100.29073433428081,139.54087186206615,1.0,1.3,275,-287,480,-262,691,-280,244.47040009498596,244.47052025794983,244.47380900382996,244.48488640785217,244.6379849910736,244.6379849910736,244.6379849910736,244.6379849910736,244.6379849910736,244.6379849910736,244.6379849910736,246.41833639144897,1,1.9295310974121094,None,,,,,,,,,,,,,,,,,,232,1,2025-03-11_16h04.01.226,comp,2024.2.4,57.26176450109833,2025-03-11 16h04.42.244321 -0400,
62,62,0,critical,wdh,35.0,1.0,upper,125.0,200.0,127.0,127.0,200.0,125.0,3,2.8346354961395264,None,,,,,0,0,0,0,0,62,62,73,246.43387603759766,,,,,,,,,,,,,,,,,,,,,,,,,,,,,,,,,,,,,,,,,,,,,,,,,,,,,,,,,,,,,,,,,,,,,,,,,,,,,,,,,125.0,200.0,127.0,127.0,200.0,125.0,1.0,1.2,-260,9,0,13,222,0,246.41980361938477,246.4198830127716,246.42280077934265,246.43387603759766,246.58754062652588,246.58754062652588,246.58754062652588,246.58754062652588,246.58754062652588,246.58754062652588,246.58754062652588,249.27313709259033,3,2.8346354961395264,None,,,,,,,,,,,,,,,,,,232,1,2025-03-11_16h04.01.226,comp,2024.2.4,57.26176450109833,2025-03-11 16h04.42.244321 -0400,
63,63,0,critical,hdw,35.0,4.0,lower,133.0,57.0,70.0,70.0,57.0,133.0,1,2.076871633529663,None,,,,,0,0,0,0,0,63,63,112,249.2889060974121,,,,,,,,,,,,,,,,,,,,,,,,,,,,,,,,,,,,,,,,,,,,,,,,,,,,,,,,,,,,,,,,,,,,,,,,,,,,,,,,,133.0,57.0,70.0,70.0,57.0,133.0,4.0,4.2,-160,19,0,-286,198,3,249.27480959892273,249.27489018440247,249.27816081047058,249.2889060974121,249.44498896598816,249.44498896598816,249.44498896598816,249.44498896598816,249.44498896598816,249.44498896598816,249.44498896598816,251.36816453933716,1,2.076871633529663,None,,,,,,,,,,,,,,,,,,232,1,2025-03-11_16h04.01.226,comp,2024.2.4,57.26176450109833,2025-03-11 16h04.42.244321 -0400,
64,64,0,filler_square,None,None,None,None,None,None,None,None,None,None,2,2.251504898071289,None,,,,,0,0,0,0,0,64,64,198,251.38519740104675,,,,,,,,,,,,,,,,,,,,,,,,,,,,,,,,,,,,,,,,,,,,,,,,,,,,,,,,,,,,,,,,,,,,,,,,,,,,,,,,,116.88317549918858,141.52144431110395,148.0224977558723,148.0224977558723,87.84586584556175,137.61291641682885,2.2,2.21,-241,-250,0,263,239,280,251.36999988555908,251.37007904052734,251.37295722961426,251.38519740104675,251.5399956703186,251.5399956703186,251.5399956703186,251.5399956703186,251.5399956703186,251.5399956703186,251.5399956703186,253.6504421234131,2,2.251504898071289,None,,,,,,,,,,,,,,,,,,232,1,2025-03-11_16h04.01.226,comp,2024.2.4,57.26176450109833,2025-03-11 16h04.42.244321 -0400,
65,65,0,critical,wdh,35.0,4.0,lower,57.0,133.0,70.0,70.0,133.0,57.0,3,1.4590702056884766,None,,,,,0,0,0,0,0,65,65,76,253.66559481620789,,,,,,,,,,,,,,,,,,,,,,,,,,,,,,,,,,,,,,,,,,,,,,,,,,,,,,,,,,,,,,,,,,,,,,,,,,,,,,,,,57.0,133.0,70.0,70.0,133.0,57.0,4.0,4.1,-198,-269,0,9,160,-284,253.65195679664612,253.65203499794006,253.65496850013733,253.66559481620789,253.80800342559814,253.80800342559814,253.80800342559814,253.80800342559814,253.80800342559814,253.80800342559814,253.80800342559814,255.138911485672,3,1.4590702056884766,None,,,,,,,,,,,,,,,,,,232,1,2025-03-11_16h04.01.226,comp,2024.2.4,57.26176450109833,2025-03-11 16h04.42.244321 -0400,
66,66,0,critical,hdw,20.0,1.0,upper,200.0,125.0,141.0,141.0,125.0,200.0,1,3.898543119430542,None,,,,,0,0,0,0,0,66,66,115,255.15481972694397,,,,,,,,,,,,,,,,,,,,,,,,,,,,,,,,,,,,,,,,,,,,,,,,,,,,,,,,,,,,,,,,,,,,,,,,,,,,,,,,,200.0,125.0,141.0,141.0,125.0,200.0,1.0,1.3,251,-270,480,-279,746,-253,255.1406192779541,255.14075207710266,255.14441657066345,255.15481972694397,255.31142807006836,255.31142807006836,255.31142807006836,255.31142807006836,255.31142807006836,255.31142807006836,255.31142807006836,259.0572543144226,1,3.898543119430542,None,,,,,,,,,,,,,,,,,,232,1,2025-03-11_16h04.01.226,comp,2024.2.4,57.26176450109833,2025-03-11 16h04.42.244321 -0400,
67,67,0,critical,dhw,20.0,2.1,lower,78.0,78.0,133.0,57.0,57.0,133.0,2,2.898817300796509,None,,,,,0,0,0,0,0,67,67,2,259.0737204551697,,,,,,,,,,,,,,,,,,,,,,,,,,,,,,,,,,,,,,,,,,,,,,,,,,,,,,,,,,,,,,,,,,,,,,,,,,,,,,,,,78.0,78.0,133.0,57.0,57.0,133.0,2.1,2.11,-164,251,0,270,191,-266,259.05894565582275,259.05905747413635,259.06276512145996,259.0737204551697,259.22272968292236,259.22272968292236,259.22272968292236,259.22272968292236,259.22272968292236,259.22272968292236,259.22272968292236,261.9765772819519,2,2.898817300796509,None,,,,,,,,,,,,,,,,,,232,1,2025-03-11_16h04.01.226,comp,2024.2.4,57.26176450109833,2025-03-11 16h04.42.244321 -0400,
68,68,0,critical,wdh,35.0,2.1,upper,125.0,200.0,127.0,127.0,200.0,125.0,3,3.307633876800537,None,,,,,0,0,0,0,0,68,68,33,261.9937403202057,,,,,,,,,,,,,,,,,,,,,,,,,,,,,,,,,,,,,,,,,,,,,,,,,,,,,,,,,,,,,,,,,,,,,,,,,,,,,,,,,125.0,200.0,127.0,127.0,200.0,125.0,2.1,2.12,-260,-257,0,-260,222,271,261.97835326194763,261.9784891605377,261.9819118976593,261.9937403202057,262.1467704772949,262.1467704772949,262.1467704772949,262.1467704772949,262.1467704772949,262.1467704772949,262.1467704772949,265.30957794189453,3,3.307633876800537,None,,,,,,,,,,,,,,,,,,232,1,2025-03-11_16h04.01.226,comp,2024.2.4,57.26176450109833,2025-03-11 16h04.42.244321 -0400,
69,69,0,critical,wdh,35.0,4.0,upper,125.0,200.0,127.0,127.0,200.0,125.0,3,4.74835991859436,None,,,,,0,0,0,0,0,69,69,77,265.32818937301636,,,,,,,,,,,,,,,,,,,,,,,,,,,,,,,,,,,,,,,,,,,,,,,,,,,,,,,,,,,,,,,,,,,,,,,,,,,,,,,,,125.0,200.0,127.0,127.0,200.0,125.0,4.0,4.1,-260,-260,0,-4,222,-285,265.31107473373413,265.3111822605133,265.3142514228821,265.32818937301636,265.476450920105,265.476450920105,265.476450920105,265.476450920105,265.476450920105,265.476450920105,265.476450920105,270.09329986572266,3,4.74835991859436,None,,,,,,,,,,,,,,,,,,232,1,2025-03-11_16h04.01.226,comp,2024.2.4,57.26176450109833,2025-03-11 16h04.42.244321 -0400,
70,70,0,filler_random,None,None,None,None,None,None,None,None,None,None,2,1.9357433319091797,None,,,,,0,0,0,0,0,70,70,145,270.10897421836853,,,,,,,,,,,,,,,,,,,,,,,,,,,,,,,,,,,,,,,,,,,,,,,,,,,,,,,,,,,,,,,,,,,,,,,,,,,,,,,,,72.63747313286878,196.82720985223136,103.17638601347866,179.9876453797093,115.43024174096402,139.66542017720067,3.0,3.1,-284,271,0,0,256,-285,270.09509778022766,270.095253944397,270.098530292511,270.10897421836853,270.2618291378021,270.2618291378021,270.2618291378021,270.2618291378021,270.2618291378021,270.2618291378021,270.2618291378021,272.0503387451172,2,1.9357433319091797,None,,,,,,,,,,,,,,,,,,232,1,2025-03-11_16h04.01.226,comp,2024.2.4,57.26176450109833,2025-03-11 16h04.42.244321 -0400,
71,71,0,critical,wdh,20.0,3.0,lower,57.0,133.0,78.0,78.0,133.0,57.0,1,11.744309663772583,None,,,,,0,0,0,0,0,71,71,80,272.06863355636597,,,,,,,,,,,,,,,,,,,,,,,,,,,,,,,,,,,,,,,,,,,,,,,,,,,,,,,,,,,,,,,,,,,,,,,,,,,,,,,,,57.0,133.0,78.0,78.0,133.0,57.0,3.0,3.2,-202,-272,0,6,164,267,272.05196380615234,272.05204343795776,272.0553894042969,272.06863355636597,272.21062111854553,272.21062111854553,272.21062111854553,272.21062111854553,272.21062111854553,272.21062111854553,272.21062111854553,283.81538939476013,1,11.744309663772583,None,,,,,,,,,,,,,,,,,,232,1,2025-03-11_16h04.01.226,comp,2024.2.4,57.26176450109833,2025-03-11 16h04.42.244321 -0400,
72,72,0,filler_square,None,None,None,None,None,None,None,None,None,None,2,1.2359561920166016,None,,,,,0,0,0,0,0,72,72,197,283.83284306526184,,,,,,,,,,,,,,,,,,,,,,,,,,,,,,,,,,,,,,,,,,,,,,,,,,,,,,,,,,,,,,,,,,,,,,,,,,,,,,,,,61.39626782216635,81.39809289943743,145.64708259769054,145.64708259769054,123.03730179118698,103.4587846183095,3.0,3.2,-210,-284,0,-18,221,268,283.817223072052,283.8173050880432,283.82021713256836,283.83284306526184,283.98437690734863,283.98437690734863,283.98437690734863,283.98437690734863,283.98437690734863,283.98437690734863,283.98437690734863,285.07926058769226,2,1.2359561920166016,None,,,,,,,,,,,,,,,,,,232,1,2025-03-11_16h04.01.226,comp,2024.2.4,57.26176450109833,2025-03-11 16h04.42.244321 -0400,
73,73,0,critical,hwd,35.0,2.1,lower,133.0,57.0,57.0,133.0,70.0,70.0,1,3.2205898761749268,None,,,,,0,0,0,0,0,73,73,16,285.09602880477905,,,,,,,,,,,,,,,,,,,,,,,,,,,,,,,,,,,,,,,,,,,,,,,,,,,,,,,,,,,,,,,,,,,,,,,,,,,,,,,,,133.0,57.0,57.0,133.0,70.0,70.0,2.1,2.12,-191,-283,0,-275,198,262,285.0808894634247,285.08099579811096,285.08436703681946,285.09602880477905,285.2474949359894,285.2474949359894,285.2474949359894,285.2474949359894,285.2474949359894,285.2474949359894,285.2474949359894,288.33390712738037,1,3.2205898761749268,None,,,,,,,,,,,,,,,,,,232,1,2025-03-11_16h04.01.226,comp,2024.2.4,57.26176450109833,2025-03-11 16h04.42.244321 -0400,
74,74,0,critical,hdw,35.0,2.1,lower,133.0,57.0,70.0,70.0,57.0,133.0,3,8.008618831634521,None,,,,,0,0,0,0,0,74,74,44,288.3497385978699,,,,,,,,,,,,,,,,,,,,,,,,,,,,,,,,,,,,,,,,,,,,,,,,,,,,,,,,,,,,,,,,,,,,,,,,,,,,,,,,,133.0,57.0,70.0,70.0,57.0,133.0,2.1,2.11,-160,273,0,256,198,-273,288.3355634212494,288.3356418609619,288.3393454551697,288.3497385978699,288.50701880455017,288.50701880455017,288.50701880455017,288.50701880455017,288.50701880455017,288.50701880455017,288.50701880455017,296.369304895401,3,8.008618831634521,None,,,,,,,,,,,,,,,,,,232,1,2025-03-11_16h04.01.226,comp,2024.2.4,57.26176450109833,2025-03-11 16h04.42.244321 -0400,
75,75,0,filler_square,None,None,None,None,None,None,None,None,None,None,2,1.9550285339355469,None,,,,,0,0,0,0,0,75,75,181,296.3856191635132,,,,,,,,,,,,,,,,,,,,,,,,,,,,,,,,,,,,,,,,,,,,,,,,,,,,,,,,,,,,,,,,,,,,,,,,,,,,,,,,,136.75275486576186,109.7106524510261,181.22549875152168,181.22549875152168,155.36488904293594,126.83855663109587,2.2,2.21,-241,-256,0,264,250,285,296.371129989624,296.37121391296387,296.37465167045593,296.3856191635132,296.53517603874207,296.53517603874207,296.53517603874207,296.53517603874207,296.53517603874207,296.53517603874207,296.53517603874207,298.35317516326904,2,1.9550285339355469,None,,,,,,,,,,,,,,,,,,232,1,2025-03-11_16h04.01.226,comp,2024.2.4,57.26176450109833,2025-03-11 16h04.42.244321 -0400,
76,76,0,critical,whd,35.0,3.0,lower,57.0,133.0,133.0,57.0,70.0,70.0,1,1.4584240913391113,None,,,,,0,0,0,0,0,76,76,86,298.37103962898254,,,,,,,,,,,,,,,,,,,,,,,,,,,,,,,,,,,,,,,,,,,,,,,,,,,,,,,,,,,,,,,,,,,,,,,,,,,,,,,,,57.0,133.0,133.0,57.0,70.0,70.0,3.0,3.2,-191,-263,0,8,160,255,298.3547282218933,298.35480761528015,298.35781383514404,298.37103962898254,298.5206871032715,298.5206871032715,298.5206871032715,298.5206871032715,298.5206871032715,298.5206871032715,298.5206871032715,299.83747577667236,1,1.4584240913391113,None,,,,,,,,,,,,,,,,,,232,1,2025-03-11_16h04.01.226,comp,2024.2.4,57.26176450109833,2025-03-11 16h04.42.244321 -0400,
77,77,0,filler_random,None,None,None,None,None,None,None,None,None,None,3,7.279440641403198,None,,,,,0,0,0,0,0,77,77,169,299.85373425483704,,,,,,,,,,,,,,,,,,,,,,,,,,,,,,,,,,,,,,,,,,,,,,,,,,,,,,,,,,,,,,,,,,,,,,,,,,,,,,,,,137.78450519232285,98.52510389410094,68.23329081467435,76.15500489945481,177.89048784356015,118.38028513852126,2.2,2.21,-183,-287,0,260,193,279,299.8392732143402,299.83935379981995,299.8427577018738,299.85373425483704,300.00557804107666,300.00557804107666,300.00557804107666,300.00557804107666,300.00557804107666,300.00557804107666,300.00557804107666,307.1378791332245,3,7.279440641403198,None,,,,,,,,,,,,,,,,,,232,1,2025-03-11_16h04.01.226,comp,2024.2.4,57.26176450109833,2025-03-11 16h04.42.244321 -0400,
78,78,0,critical,hwd,20.0,2.1,upper,200.0,125.0,125.0,200.0,141.0,141.0,1,2.5351529121398926,None,,,,,0,0,0,0,0,78,78,19,307.1577169895172,,,,,,,,,,,,,,,,,,,,,,,,,,,,,,,,,,,,,,,,,,,,,,,,,,,,,,,,,,,,,,,,,,,,,,,,,,,,,,,,,200.0,125.0,125.0,200.0,141.0,141.0,2.1,2.12,-258,-261,0,-256,266,290,307.1394386291504,307.1395173072815,307.1426520347595,307.1577169895172,307.3056890964508,307.3056890964508,307.3056890964508,307.3056890964508,307.3056890964508,307.3056890964508,307.3056890964508,309.7079749107361,1,2.5351529121398926,None,,,,,,,,,,,,,,,,,,232,1,2025-03-11_16h04.01.226,comp,2024.2.4,57.26176450109833,2025-03-11 16h04.42.244321 -0400,
79,79,0,filler_square,None,None,None,None,None,None,None,None,None,None,2,3.5612473487854004,None,,,,,0,0,0,0,0,79,79,180,309.7241313457489,,,,,,,,,,,,,,,,,,,,,,,,,,,,,,,,,,,,,,,,,,,,,,,,,,,,,,,,,,,,,,,,,,,,,,,,,,,,,,,,,60.45818207096262,59.654817522515124,59.94452907771401,57.02322976889883,62.24668419214607,62.24668419214607,2.1,2.11,-154,288,0,262,156,-289,309.71018242836,309.7102997303009,309.7137496471405,309.7241313457489,309.88147735595703,309.88147735595703,309.88147735595703,309.88147735595703,309.88147735595703,309.88147735595703,309.88147735595703,313.2907898426056,2,3.5612473487854004,None,,,,,,,,,,,,,,,,,,232,1,2025-03-11_16h04.01.226,comp,2024.2.4,57.26176450109833,2025-03-11 16h04.42.244321 -0400,
80,80,0,catch,None,None,None,None,None,None,None,None,None,None,1,1.4891083240509033,None,,,,,0,0,0,0,0,80,80,128,313.30771708488464,,,,,,,,,,,,,,,,,,,,,,,,,,,,,,,,,,,,,,,,,,,,,,,,,,,,,,,,,,,,,,,,,,,,,,,,,,,,,,,,,196,129,70,120,91,99,3.0,3.1,-220,270,0,6,206,-258,313.29278349876404,313.2928657531738,313.2969596385956,313.30771708488464,313.4466304779053,313.4466304779053,313.4466304779053,313.4466304779053,313.4466304779053,313.4466304779053,313.4466304779053,314.8108208179474,1,1.4891083240509033,None,,,,,,,,,,,,,,,,,,232,1,2025-03-11_16h04.01.226,comp,2024.2.4,57.26176450109833,2025-03-11 16h04.42.244321 -0400,
81,81,0,critical,whd,35.0,1.0,lower,57.0,133.0,133.0,57.0,70.0,70.0,2,4.410855054855347,None,,,,,0,0,0,0,0,81,81,84,314.8265266418457,,,,,,,,,,,,,,,,,,,,,,,,,,,,,,,,,,,,,,,,,,,,,,,,,,,,,,,,,,,,,,,,,,,,,,,,,,,,,,,,,57.0,133.0,133.0,57.0,70.0,70.0,1.0,1.1,-671,276,-480,286,-320,283,314.8125190734863,314.8126516342163,314.8160500526428,314.8265266418457,314.9742691516876,314.9742691516876,314.9742691516876,314.9742691516876,314.9742691516876,314.9742691516876,314.9742691516876,319.24489641189575,2,4.410855054855347,None,,,,,,,,,,,,,,,,,,232,1,2025-03-11_16h04.01.226,comp,2024.2.4,57.26176450109833,2025-03-11 16h04.42.244321 -0400,
82,82,0,critical,whd,35.0,3.0,upper,125.0,200.0,200.0,125.0,127.0,127.0,2,2.80761981010437,None,,,,,0,0,0,0,0,82,82,87,319.2618405818939,,,,,,,,,,,,,,,,,,,,,,,,,,,,,,,,,,,,,,,,,,,,,,,,,,,,,,,,,,,,,,,,,,,,,,,,,,,,,,,,,125.0,200.0,200.0,125.0,127.0,127.0,3.0,3.2,-258,-258,0,-9,222,280,319.2465262413025,319.2466206550598,319.25012826919556,319.2618405818939,319.4087471961975,319.4087471961975,319.4087471961975,319.4087471961975,319.4087471961975,319.4087471961975,319.4087471961975,322.0770721435547,2,2.80761981010437,None,,,,,,,,,,,,,,,,,,232,1,2025-03-11_16h04.01.226,comp,2024.2.4,57.26176450109833,2025-03-11 16h04.42.244321 -0400,
83,83,0,critical,hwd,20.0,1.0,upper,200.0,125.0,125.0,200.0,141.0,141.0,1,2.1828231811523438,None,,,,,0,0,0,0,0,83,83,103,322.09393644332886,,,,,,,,,,,,,,,,,,,,,,,,,,,,,,,,,,,,,,,,,,,,,,,,,,,,,,,,,,,,,,,,,,,,,,,,,,,,,,,,,200.0,125.0,125.0,200.0,141.0,141.0,1.0,1.3,222,-258,480,-277,746,-253,322.0786519050598,322.07873368263245,322.0820481777191,322.09393644332886,322.24597334861755,322.24597334861755,322.24597334861755,322.24597334861755,322.24597334861755,322.24597334861755,322.24597334861755,324.2948350906372,1,2.1828231811523438,None,,,,,,,,,,,,,,,,,,232,1,2025-03-11_16h04.01.226,comp,2024.2.4,57.26176450109833,2025-03-11 16h04.42.244321 -0400,
84,84,0,filler_random,None,None,None,None,None,None,None,None,None,None,2,1.717834711074829,None,,,,,0,0,0,0,0,84,84,147,324.3107829093933,,,,,,,,,,,,,,,,,,,,,,,,,,,,,,,,,,,,,,,,,,,,,,,,,,,,,,,,,,,,,,,,,,,,,,,,,,,,,,,,,134.45572286463192,135.4765804367176,197.86003905550345,89.5003437004571,106.87564433915301,66.1523586487794,1.0,1.2,-208,-17,0,-9,174,-7,324.2966859340668,324.29676818847656,324.30042719841003,324.3107829093933,324.45899176597595,324.45899176597595,324.45899176597595,324.45899176597595,324.45899176597595,324.45899176597595,324.45899176597595,326.0446481704712,2,1.717834711074829,None,,,,,,,,,,,,,,,,,,232,1,2025-03-11_16h04.01.226,comp,2024.2.4,57.26176450109833,2025-03-11 16h04.42.244321 -0400,
85,85,0,critical,hwd,35.0,3.0,upper,200.0,125.0,125.0,200.0,127.0,127.0,2,7.1369757652282715,None,,,,,0,0,0,0,0,85,85,99,326.0601668357849,,,,,,,,,,,,,,,,,,,,,,,,,,,,,,,,,,,,,,,,,,,,,,,,,,,,,,,,,,,,,,,,,,,,,,,,,,,,,,,,,200.0,125.0,125.0,200.0,127.0,127.0,3.0,3.2,-258,-261,0,13,260,277,326.0462408065796,326.0463387966156,326.04970359802246,326.0601668357849,326.2018623352051,326.2018623352051,326.2018623352051,326.2018623352051,326.2018623352051,326.2018623352051,326.2018623352051,333.20037937164307,2,7.1369757652282715,None,,,,,,,,,,,,,,,,,,232,1,2025-03-11_16h04.01.226,comp,2024.2.4,57.26176450109833,2025-03-11 16h04.42.244321 -0400,
86,86,0,critical,dhw,35.0,4.0,upper,127.0,127.0,200.0,125.0,125.0,200.0,2,3.2357420921325684,None,,,,,0,0,0,0,0,86,86,53,333.21729469299316,,,,,,,,,,,,,,,,,,,,,,,,,,,,,,,,,,,,,,,,,,,,,,,,,,,,,,,,,,,,,,,,,,,,,,,,,,,,,,,,,127.0,127.0,200.0,125.0,125.0,200.0,4.0,4.2,-222,-6,0,-288,258,1,333.20214438438416,333.20228457450867,333.2055938243866,333.21729469299316,333.3616192340851,333.3616192340851,333.3616192340851,333.3616192340851,333.3616192340851,333.3616192340851,333.3616192340851,336.4565496444702,2,3.2357420921325684,None,,,,,,,,,,,,,,,,,,232,1,2025-03-11_16h04.01.226,comp,2024.2.4,57.26176450109833,2025-03-11 16h04.42.244321 -0400,
87,87,0,filler_random,None,None,None,None,None,None,None,None,None,None,1,2.679762840270996,None,,,,,0,0,0,0,0,87,87,163,336.4769694805145,,,,,,,,,,,,,,,,,,,,,,,,,,,,,,,,,,,,,,,,,,,,,,,,,,,,,,,,,,,,,,,,,,,,,,,,,,,,,,,,,129.29596706734566,159.84931309724112,95.22710349703215,187.47252927984567,98.6667065689011,178.07475065612263,4.0,4.2,-270,5,0,-256,279,-4,336.45827746391296,336.45835852622986,336.46126794815063,336.4769694805145,336.61530351638794,336.61530351638794,336.61530351638794,336.61530351638794,336.61530351638794,336.61530351638794,336.61530351638794,339.1760663986206,1,2.679762840270996,None,,,,,,,,,,,,,,,,,,232,1,2025-03-11_16h04.01.226,comp,2024.2.4,57.26176450109833,2025-03-11 16h04.42.244321 -0400,
88,88,0,filler_random,None,None,None,None,None,None,None,None,None,None,2,3.6507387161254883,None,,,,,0,0,0,0,0,88,88,131,339.19435262680054,,,,,,,,,,,,,,,,,,,,,,,,,,,,,,,,,,,,,,,,,,,,,,,,,,,,,,,,,,,,,,,,,,,,,,,,,,,,,,,,,162.65486897707638,59.61041495769272,121.71936294643831,116.35898232728255,68.13484751703103,164.55494059158082,3.0,3.1,-184,282,0,-12,236,-281,339.17792987823486,339.17806029319763,339.1813814640045,339.19435262680054,339.3334593772888,339.3334593772888,339.3334593772888,339.3334593772888,339.3334593772888,339.3334593772888,339.3334593772888,342.8489842414856,2,3.6507387161254883,None,,,,,,,,,,,,,,,,,,232,1,2025-03-11_16h04.01.226,comp,2024.2.4,57.26176450109833,2025-03-11 16h04.42.244321 -0400,
89,89,0,critical,dwh,35.0,4.0,upper,127.0,127.0,125.0,200.0,200.0,125.0,3,2.563157558441162,None,,,,,0,0,0,0,0,89,89,65,342.8657371997833,,,,,,,,,,,,,,,,,,,,,,,,,,,,,,,,,,,,,,,,,,,,,,,,,,,,,,,,,,,,,,,,,,,,,,,,,,,,,,,,,127.0,127.0,125.0,200.0,200.0,125.0,4.0,4.2,-260,-11,0,-289,258,-5,342.850590467453,342.8506712913513,342.85402178764343,342.8657371997833,343.02213501930237,343.02213501930237,343.02213501930237,343.02213501930237,343.02213501930237,343.02213501930237,343.02213501930237,345.44295358657837,3,2.563157558441162,None,,,,,,,,,,,,,,,,,,232,1,2025-03-11_16h04.01.226,comp,2024.2.4,57.26176450109833,2025-03-11 16h04.42.244321 -0400,
90,90,0,critical,hwd,20.0,3.0,lower,133.0,57.0,57.0,133.0,78.0,78.0,2,2.3713910579681396,None,,,,,0,0,0,0,0,90,90,104,345.45796823501587,,,,,,,,,,,,,,,,,,,,,,,,,,,,,,,,,,,,,,,,,,,,,,,,,,,,,,,,,,,,,,,,,,,,,,,,,,,,,,,,,133.0,57.0,57.0,133.0,78.0,78.0,3.0,3.2,-191,-267,0,17,202,253,345.4445118904114,345.444589138031,345.4474604129791,345.45796823501587,345.6006271839142,345.6006271839142,345.6006271839142,345.6006271839142,345.6006271839142,345.6006271839142,345.6006271839142,347.83707880973816,2,2.3713910579681396,None,,,,,,,,,,,,,,,,,,232,1,2025-03-11_16h04.01.226,comp,2024.2.4,57.26176450109833,2025-03-11 16h04.42.244321 -0400,
91,91,0,critical,hdw,20.0,4.0,upper,200.0,125.0,141.0,141.0,125.0,200.0,3,3.4239871501922607,None,,,,,0,0,0,0,0,91,91,119,347.85352182388306,,,,,,,,,,,,,,,,,,,,,,,,,,,,,,,,,,,,,,,,,,,,,,,,,,,,,,,,,,,,,,,,,,,,,,,,,,,,,,,,,200.0,125.0,141.0,141.0,125.0,200.0,4.0,4.2,-229,15,0,-287,266,-13,347.8387236595154,347.8388068675995,347.84270215034485,347.85352182388306,348.0021402835846,348.0021402835846,348.0021402835846,348.0021402835846,348.0021402835846,348.0021402835846,348.0021402835846,351.28619170188904,3,3.4239871501922607,None,,,,,,,,,,,,,,,,,,232,1,2025-03-11_16h04.01.226,comp,2024.2.4,57.26176450109833,2025-03-11 16h04.42.244321 -0400,
92,92,0,critical,wdh,35.0,2.1,lower,57.0,133.0,70.0,70.0,133.0,57.0,3,4.670360088348389,None,,,,,0,0,0,0,0,92,92,8,351.3023171424866,,,,,,,,,,,,,,,,,,,,,,,,,,,,,,,,,,,,,,,,,,,,,,,,,,,,,,,,,,,,,,,,,,,,,,,,,,,,,,,,,57.0,133.0,70.0,70.0,133.0,57.0,2.1,2.11,-198,260,0,263,160,-258,351.28781151771545,351.2879207134247,351.291378736496,351.3023171424866,351.45368480682373,351.45368480682373,351.45368480682373,351.45368480682373,351.45368480682373,351.45368480682373,351.45368480682373,355.9872260093689,3,4.670360088348389,None,,,,,,,,,,,,,,,,,,232,1,2025-03-11_16h04.01.226,comp,2024.2.4,57.26176450109833,2025-03-11 16h04.42.244321 -0400,
93,93,0,critical,dhw,20.0,1.0,lower,78.0,78.0,133.0,57.0,57.0,133.0,2,1.38596773147583,None,,,,,0,0,0,0,0,93,93,54,356.00294947624207,,,,,,,,,,,,,,,,,,,,,,,,,,,,,,,,,,,,,,,,,,,,,,,,,,,,,,,,,,,,,,,,,,,,,,,,,,,,,,,,,78.0,78.0,133.0,57.0,57.0,133.0,1.0,1.1,-644,271,-480,262,-289,263,355.98894238471985,355.98907256126404,355.99256587028503,356.00294947624207,356.1541795730591,356.1541795730591,356.1541795730591,356.1541795730591,356.1541795730591,356.1541795730591,356.1541795730591,357.3924994468689,2,1.38596773147583,None,,,,,,,,,,,,,,,,,,232,1,2025-03-11_16h04.01.226,comp,2024.2.4,57.26176450109833,2025-03-11 16h04.42.244321 -0400,
94,94,0,catch,None,None,None,None,None,None,None,None,None,None,1,1.1850173473358154,None,,,,,0,0,0,0,0,94,94,126,357.4117040634155,,,,,,,,,,,,,,,,,,,,,,,,,,,,,,,,,,,,,,,,,,,,,,,,,,,,,,,,,,,,,,,,,,,,,,,,,,,,,,,,,137,188,89,101,73,117,1.0,1.2,-240,8,0,17,205,3,357.3944206237793,357.39450192451477,357.3974120616913,357.4117040634155,357.5546712875366,357.5546712875366,357.5546712875366,357.5546712875366,357.5546712875366,357.5546712875366,357.5546712875366,358.6096148490906,1,1.1850173473358154,None,,,,,,,,,,,,,,,,,,232,1,2025-03-11_16h04.01.226,comp,2024.2.4,57.26176450109833,2025-03-11 16h04.42.244321 -0400,
95,95,0,critical,hdw,20.0,2.1,lower,133.0,57.0,78.0,78.0,57.0,133.0,1,1.6514692306518555,None,,,,,0,0,0,0,0,95,95,46,358.6255626678467,,,,,,,,,,,,,,,,,,,,,,,,,,,,,,,,,,,,,,,,,,,,,,,,,,,,,,,,,,,,,,,,,,,,,,,,,,,,,,,,,133.0,57.0,78.0,78.0,57.0,133.0,2.1,2.12,-164,-252,0,-275,202,267,358.61122846603394,358.6113109588623,358.6142010688782,358.6255626678467,358.77104806900024,358.77104806900024,358.77104806900024,358.77104806900024,358.77104806900024,358.77104806900024,358.77104806900024,360.2893829345703,1,1.6514692306518555,None,,,,,,,,,,,,,,,,,,232,1,2025-03-11_16h04.01.226,comp,2024.2.4,57.26176450109833,2025-03-11 16h04.42.244321 -0400,
96,96,0,critical,whd,20.0,4.0,lower,57.0,133.0,133.0,57.0,78.0,78.0,2,2.7114579677581787,None,,,,,0,0,0,0,0,96,96,94,360.3099639415741,,,,,,,,,,,,,,,,,,,,,,,,,,,,,,,,,,,,,,,,,,,,,,,,,,,,,,,,,,,,,,,,,,,,,,,,,,,,,,,,,57.0,133.0,133.0,57.0,78.0,78.0,4.0,4.1,-191,-263,0,-10,164,-283,360.29093956947327,360.2910187244415,360.29449701309204,360.3099639415741,360.4551966190338,360.4551966190338,360.4551966190338,360.4551966190338,360.4551966190338,360.4551966190338,360.4551966190338,363.02347207069397,2,2.7114579677581787,None,,,,,,,,,,,,,,,,,,232,1,2025-03-11_16h04.01.226,comp,2024.2.4,57.26176450109833,2025-03-11 16h04.42.244321 -0400,
97,97,0,critical,wdh,35.0,1.0,lower,57.0,133.0,70.0,70.0,133.0,57.0,3,4.493032693862915,None,,,,,0,0,0,0,0,97,97,72,363.0398986339569,,,,,,,,,,,,,,,,,,,,,,,,,,,,,,,,,,,,,,,,,,,,,,,,,,,,,,,,,,,,,,,,,,,,,,,,,,,,,,,,,57.0,133.0,70.0,70.0,133.0,57.0,1.0,1.1,-678,252,-480,276,-320,288,363.02506613731384,363.02518033981323,363.0289182662964,363.0398986339569,363.18757128715515,363.18757128715515,363.18757128715515,363.18757128715515,363.18757128715515,363.18757128715515,363.18757128715515,367.54428219795227,3,4.493032693862915,None,,,,,,,,,,,,,,,,,,232,1,2025-03-11_16h04.01.226,comp,2024.2.4,57.26176450109833,2025-03-11 16h04.42.244321 -0400,
98,98,0,filler_square,None,None,None,None,None,None,None,None,None,None,1,1.232593059539795,None,,,,,0,0,0,0,0,98,98,194,367.5642111301422,,,,,,,,,,,,,,,,,,,,,,,,,,,,,,,,,,,,,,,,,,,,,,,,,,,,,,,,,,,,,,,,,,,,,,,,,,,,,,,,,136.32582481009464,136.32582481009464,127.71913325763785,67.5710933989377,65.1658142179063,131.85872613233818,2.1,2.11,-198,279,0,282,196,-256,367.5461781024933,367.54628109931946,367.5493314266205,367.5642111301422,367.70825934410095,367.70825934410095,367.70825934410095,367.70825934410095,367.70825934410095,367.70825934410095,367.70825934410095,368.810733795166,1,1.232593059539795,None,,,,,,,,,,,,,,,,,,232,1,2025-03-11_16h04.01.226,comp,2024.2.4,57.26176450109833,2025-03-11 16h04.42.244321 -0400,
99,99,0,filler_square,None,None,None,None,None,None,None,None,None,None,2,0.8183789253234863,None,,,,,0,0,0,0,0,99,99,202,368.82645058631897,,,,,,,,,,,,,,,,,,,,,,,,,,,,,,,,,,,,,,,,,,,,,,,,,,,,,,,,,,,,,,,,,,,,,,,,,,,,,,,,,85.58822277279212,148.72160977941246,159.43521776217844,159.43521776217844,82.7492649346711,98.86814570178025,2.2,2.21,-250,-277,0,285,225,251,368.8127872943878,368.8128709793091,368.8160870075226,368.82645058631897,368.9844002723694,368.9844002723694,368.9844002723694,368.9844002723694,368.9844002723694,368.9844002723694,368.9844002723694,369.6585428714752,2,0.8183789253234863,None,,,,,,,,,,,,,,,,,,232,1,2025-03-11_16h04.01.226,comp,2024.2.4,57.26176450109833,2025-03-11 16h04.42.244321 -0400,
100,100,0,filler_random,None,None,None,None,None,None,None,None,None,None,2,1.3142976760864258,None,,,,,0,0,0,0,0,100,100,160,369.67438530921936,,,,,,,,,,,,,,,,,,,,,,,,,,,,,,,,,,,,,,,,,,,,,,,,,,,,,,,,,,,,,,,,,,,,,,,,,,,,,,,,,188.0835025208651,136.24558952450025,189.35462517384912,199.3179556384853,159.9585427714086,171.327423544765,4.0,4.1,-264,-284,0,-12,281,-251,369.6603364944458,369.6604161262512,369.6639335155487,369.67438530921936,369.82589387893677,369.82589387893677,369.82589387893677,369.82589387893677,369.82589387893677,369.82589387893677,369.82589387893677,370.9926447868347,2,1.3142976760864258,None,,,,,,,,,,,,,,,,,,232,1,2025-03-11_16h04.01.226,comp,2024.2.4,57.26176450109833,2025-03-11 16h04.42.244321 -0400,
101,101,0,filler_random,None,None,None,None,None,None,None,None,None,None,3,0.9315090179443359,None,,,,,0,0,0,0,0,101,101,151,371.0092158317566,,,,,,,,,,,,,,,,,,,,,,,,,,,,,,,,,,,,,,,,,,,,,,,,,,,,,,,,,,,,,,,,,,,,,,,,,,,,,,,,,91.13448136136157,145.37153589067665,124.52583786107448,115.15784159341698,137.0393913225781,194.49768302779253,4.0,4.1,-226,-274,0,-1,251,-272,370.9943130016327,370.99439549446106,370.9984657764435,371.0092158317566,371.15767073631287,371.15767073631287,371.15767073631287,371.15767073631287,371.15767073631287,371.15767073631287,371.15767073631287,371.9537420272827,3,0.9315090179443359,None,,,,,,,,,,,,,,,,,,232,1,2025-03-11_16h04.01.226,comp,2024.2.4,57.26176450109833,2025-03-11 16h04.42.244321 -0400,
102,102,0,filler_square,None,None,None,None,None,None,None,None,None,None,1,0.8661515712738037,None,,,,,0,0,0,0,0,102,102,177,371.9714274406433,,,,,,,,,,,,,,,,,,,,,,,,,,,,,,,,,,,,,,,,,,,,,,,,,,,,,,,,,,,,,,,,,,,,,,,,,,,,,,,,,161.65266609293607,161.65266609293607,151.48670895544393,89.5194026987321,121.68656890731316,61.48213251863445,1.0,1.2,-222,0,0,-19,172,-14,371.9555015563965,371.9555833339691,371.95845890045166,371.9714274406433,372.10906624794006,372.10906624794006,372.10906624794006,372.10906624794006,372.10906624794006,372.10906624794006,372.10906624794006,372.8452479839325,1,0.8661515712738037,None,,,,,,,,,,,,,,,,,,232,1,2025-03-11_16h04.01.226,comp,2024.2.4,57.26176450109833,2025-03-11 16h04.42.244321 -0400,
103,103,0,critical,whd,35.0,1.0,upper,125.0,200.0,200.0,125.0,127.0,127.0,2,1.566572666168213,None,,,,,0,0,0,0,0,103,103,85,372.8622667789459,,,,,,,,,,,,,,,,,,,,,,,,,,,,,,,,,,,,,,,,,,,,,,,,,,,,,,,,,,,,,,,,,,,,,,,,,,,,,,,,,125.0,200.0,200.0,125.0,127.0,127.0,1.0,1.3,222,-260,480,-265,702,-252,372.8472013473511,372.8473255634308,372.85071849823,372.8622667789459,373.00885248184204,373.00885248184204,373.00885248184204,373.00885248184204,373.00885248184204,373.00885248184204,373.00885248184204,374.4438557624817,2,1.566572666168213,None,,,,,,,,,,,,,,,,,,232,1,2025-03-11_16h04.01.226,comp,2024.2.4,57.26176450109833,2025-03-11 16h04.42.244321 -0400,
104,104,0,filler_random,None,None,None,None,None,None,None,None,None,None,3,1.2108476161956787,None,,,,,0,0,0,0,0,104,104,146,374.45797324180603,,,,,,,,,,,,,,,,,,,,,,,,,,,,,,,,,,,,,,,,,,,,,,,,,,,,,,,,,,,,,,,,,,,,,,,,,,,,,,,,,185.90402753153893,152.26653387967565,92.9489109603771,159.15626167561112,178.64717103492035,153.5319259761015,2.2,2.22,-252,263,0,-270,252,-256,374.44569396972656,374.4457721710205,374.44883394241333,374.45797324180603,374.6084632873535,374.6084632873535,374.6084632873535,374.6084632873535,374.6084632873535,374.6084632873535,374.6084632873535,375.6824243068695,3,1.2108476161956787,None,,,,,,,,,,,,,,,,,,232,1,2025-03-11_16h04.01.226,comp,2024.2.4,57.26176450109833,2025-03-11 16h04.42.244321 -0400,
105,105,0,critical,hwd,35.0,4.0,upper,200.0,125.0,125.0,200.0,127.0,127.0,1,1.154970407485962,None,,,,,0,0,0,0,0,105,105,101,375.698383808136,,,,,,,,,,,,,,,,,,,,,,,,,,,,,,,,,,,,,,,,,,,,,,,,,,,,,,,,,,,,,,,,,,,,,,,,,,,,,,,,,200.0,125.0,125.0,200.0,127.0,127.0,4.0,4.1,-258,-264,0,-7,260,-282,375.6842086315155,375.6842873096466,375.6872503757477,375.698383808136,375.84776186943054,375.84776186943054,375.84776186943054,375.84776186943054,375.84776186943054,375.84776186943054,375.84776186943054,376.8597068786621,1,1.154970407485962,None,,,,,,,,,,,,,,,,,,232,1,2025-03-11_16h04.01.226,comp,2024.2.4,57.26176450109833,2025-03-11 16h04.42.244321 -0400,
106,106,0,critical,whd,20.0,2.1,lower,57.0,133.0,133.0,57.0,78.0,78.0,2,1.5016367435455322,None,,,,,0,0,0,0,0,106,106,14,376.87901973724365,,,,,,,,,,,,,,,,,,,,,,,,,,,,,,,,,,,,,,,,,,,,,,,,,,,,,,,,,,,,,,,,,,,,,,,,,,,,,,,,,57.0,133.0,133.0,57.0,78.0,78.0,2.1,2.12,-191,-259,0,-257,164,283,376.8613004684448,376.86138248443604,376.8644766807556,376.87901973724365,377.0266737937927,377.0266737937927,377.0266737937927,377.0266737937927,377.0266737937927,377.0266737937927,377.0266737937927,378.3915636539459,2,1.5016367435455322,None,,,,,,,,,,,,,,,,,,232,1,2025-03-11_16h04.01.226,comp,2024.2.4,57.26176450109833,2025-03-11 16h04.42.244321 -0400,
107,107,0,filler_random,None,None,None,None,None,None,None,None,None,None,3,3.2216796875,None,,,,,0,0,0,0,0,107,107,133,378.40752363204956,,,,,,,,,,,,,,,,,,,,,,,,,,,,,,,,,,,,,,,,,,,,,,,,,,,,,,,,,,,,,,,,,,,,,,,,,,,,,,,,,117.4536490701529,60.29610466971716,78.07568928039498,108.22515258706596,170.2665256495581,96.05524781570477,2.2,2.22,-180,250,0,-268,198,-273,378.3933017253876,378.3933804035187,378.3962471485138,378.40752363204956,378.55963110923767,378.55963110923767,378.55963110923767,378.55963110923767,378.55963110923767,378.55963110923767,378.55963110923767,381.6481440067291,3,3.2216796875,None,,,,,,,,,,,,,,,,,,232,1,2025-03-11_16h04.01.226,comp,2024.2.4,57.26176450109833,2025-03-11 16h04.42.244321 -0400,
108,108,0,critical,wdh,20.0,1.0,upper,125.0,200.0,141.0,141.0,200.0,125.0,3,1.664053201675415,None,,,,,0,0,0,0,0,108,108,79,381.6686749458313,,,,,,,,,,,,,,,,,,,,,,,,,,,,,,,,,,,,,,,,,,,,,,,,,,,,,,,,,,,,,,,,,,,,,,,,,,,,,,,,,125.0,200.0,141.0,141.0,200.0,125.0,1.0,1.1,-746,273,-480,264,-251,263,381.65032172203064,381.65040373802185,381.6534023284912,381.6686749458313,381.8115940093994,381.8115940093994,381.8115940093994,381.8115940093994,381.8115940093994,381.8115940093994,381.8115940093994,383.3457040786743,3,1.664053201675415,None,,,,,,,,,,,,,,,,,,232,1,2025-03-11_16h04.01.226,comp,2024.2.4,57.26176450109833,2025-03-11 16h04.42.244321 -0400,
109,109,0,filler_square,None,None,None,None,None,None,None,None,None,None,2,1.044001817703247,None,,,,,0,0,0,0,0,109,109,206,383.36155247688293,,,,,,,,,,,,,,,,,,,,,,,,,,,,,,,,,,,,,,,,,,,,,,,,,,,,,,,,,,,,,,,,,,,,,,,,,,,,,,,,,84.13520750449027,191.09005204277966,194.16819257823514,194.16819257823514,138.20121390868925,119.93302721563327,2.2,2.21,-289,-269,0,277,253,276,383.34756350517273,383.3476393222809,383.3508150577545,383.36155247688293,383.5157644748688,383.5157644748688,383.5157644748688,383.5157644748688,383.5157644748688,383.5157644748688,383.5157644748688,384.41234254837036,2,1.044001817703247,None,,,,,,,,,,,,,,,,,,232,1,2025-03-11_16h04.01.226,comp,2024.2.4,57.26176450109833,2025-03-11 16h04.42.244321 -0400,
110,110,0,critical,dhw,20.0,4.0,lower,78.0,78.0,133.0,57.0,57.0,133.0,3,1.6404671669006348,None,,,,,0,0,0,0,0,110,110,58,384.42820954322815,,,,,,,,,,,,,,,,,,,,,,,,,,,,,,,,,,,,,,,,,,,,,,,,,,,,,,,,,,,,,,,,,,,,,,,,,,,,,,,,,78.0,78.0,133.0,57.0,57.0,133.0,4.0,4.2,-164,7,0,-282,191,-14,384.4139521121979,384.4140326976776,384.4173574447632,384.42820954322815,384.57631969451904,384.57631969451904,384.57631969451904,384.57631969451904,384.57631969451904,384.57631969451904,384.57631969451904,386.0792667865753,3,1.6404671669006348,None,,,,,,,,,,,,,,,,,,232,1,2025-03-11_16h04.01.226,comp,2024.2.4,57.26176450109833,2025-03-11 16h04.42.244321 -0400,
111,111,0,critical,whd,20.0,2.1,lower,57.0,133.0,133.0,57.0,78.0,78.0,2,1.136815071105957,None,,,,,0,0,0,0,0,111,111,38,386.09994101524353,,,,,,,,,,,,,,,,,,,,,,,,,,,,,,,,,,,,,,,,,,,,,,,,,,,,,,,,,,,,,,,,,,,,,,,,,,,,,,,,,57.0,133.0,133.0,57.0,78.0,78.0,2.1,2.11,-191,275,0,285,164,-272,386.0809030532837,386.08103108406067,386.08443212509155,386.09994101524353,386.2470417022705,386.2470417022705,386.2470417022705,386.2470417022705,386.2470417022705,386.2470417022705,386.2470417022705,387.23897790908813,2,1.136815071105957,None,,,,,,,,,,,,,,,,,,232,1,2025-03-11_16h04.01.226,comp,2024.2.4,57.26176450109833,2025-03-11 16h04.42.244321 -0400,
112,112,0,critical,hdw,35.0,3.0,upper,200.0,125.0,127.0,127.0,125.0,200.0,3,1.8109958171844482,None,,,,,0,0,0,0,0,112,112,111,387.2591757774353,,,,,,,,,,,,,,,,,,,,,,,,,,,,,,,,,,,,,,,,,,,,,,,,,,,,,,,,,,,,,,,,,,,,,,,,,,,,,,,,,200.0,125.0,127.0,127.0,125.0,200.0,3.0,3.1,-222,256,0,-13,260,-268,387.24051451683044,387.24059557914734,387.24349784851074,387.2591757774353,387.39815163612366,387.39815163612366,387.39815163612366,387.39815163612366,387.39815163612366,387.39815163612366,387.39815163612366,389.0732989311218,3,1.8109958171844482,None,,,,,,,,,,,,,,,,,,232,1,2025-03-11_16h04.01.226,comp,2024.2.4,57.26176450109833,2025-03-11 16h04.42.244321 -0400,
113,113,0,critical,dhw,35.0,2.1,upper,127.0,127.0,200.0,125.0,125.0,200.0,3,2.5878617763519287,None,,,,,0,0,0,0,0,113,113,1,389.0892643928528,,,,,,,,,,,,,,,,,,,,,,,,,,,,,,,,,,,,,,,,,,,,,,,,,,,,,,,,,,,,,,,,,,,,,,,,,,,,,,,,,127.0,127.0,200.0,125.0,125.0,200.0,2.1,2.11,-222,255,0,257,258,-261,389.0748522281647,389.07493138313293,389.07830834388733,389.0892643928528,389.2281413078308,389.2281413078308,389.2281413078308,389.2281413078308,389.2281413078308,389.2281413078308,389.2281413078308,391.68064284324646,3,2.5878617763519287,None,,,,,,,,,,,,,,,,,,232,1,2025-03-11_16h04.01.226,comp,2024.2.4,57.26176450109833,2025-03-11 16h04.42.244321 -0400,
114,114,0,critical,dwh,35.0,3.0,lower,70.0,70.0,57.0,133.0,133.0,57.0,2,1.251253366470337,None,,,,,0,0,0,0,0,114,114,62,391.69749999046326,,,,,,,,,,,,,,,,,,,,,,,,,,,,,,,,,,,,,,,,,,,,,,,,,,,,,,,,,,,,,,,,,,,,,,,,,,,,,,,,,70.0,70.0,57.0,133.0,133.0,57.0,3.0,3.1,-198,253,0,-16,191,-269,391.6822543144226,391.6823377609253,391.6857759952545,391.69749999046326,391.85038137435913,391.85038137435913,391.85038137435913,391.85038137435913,391.85038137435913,391.85038137435913,391.85038137435913,392.96442341804504,2,1.251253366470337,None,,,,,,,,,,,,,,,,,,232,1,2025-03-11_16h04.01.226,comp,2024.2.4,57.26176450109833,2025-03-11 16h04.42.244321 -0400,
115,115,0,critical,whd,20.0,2.1,upper,125.0,200.0,200.0,125.0,141.0,141.0,3,1.3762965202331543,None,,,,,0,0,0,0,0,115,115,15,392.98038363456726,,,,,,,,,,,,,,,,,,,,,,,,,,,,,,,,,,,,,,,,,,,,,,,,,,,,,,,,,,,,,,,,,,,,,,,,,,,,,,,,,125.0,200.0,200.0,125.0,141.0,141.0,2.1,2.12,-258,-263,0,-283,229,268,392.96595311164856,392.9660315513611,392.96902084350586,392.98038363456726,393.1359474658966,393.1359474658966,393.1359474658966,393.1359474658966,393.1359474658966,393.1359474658966,393.1359474658966,394.36614322662354,3,1.3762965202331543,None,,,,,,,,,,,,,,,,,,232,1,2025-03-11_16h04.01.226,comp,2024.2.4,57.26176450109833,2025-03-11 16h04.42.244321 -0400,
116,116,0,critical,dwh,20.0,2.1,lower,78.0,78.0,57.0,133.0,133.0,57.0,2,5.3178722858428955,None,,,,,0,0,0,0,0,116,116,6,394.3828101158142,,,,,,,,,,,,,,,,,,,,,,,,,,,,,,,,,,,,,,,,,,,,,,,,,,,,,,,,,,,,,,,,,,,,,,,,,,,,,,,,,78.0,78.0,57.0,133.0,133.0,57.0,2.1,2.11,-202,282,0,275,191,-258,394.3677237033844,394.3678050041199,394.3712270259857,394.3828101158142,394.53084921836853,394.53084921836853,394.53084921836853,394.53084921836853,394.53084921836853,394.53084921836853,394.53084921836853,399.7139115333557,2,5.3178722858428955,None,,,,,,,,,,,,,,,,,,232,1,2025-03-11_16h04.01.226,comp,2024.2.4,57.26176450109833,2025-03-11 16h04.42.244321 -0400,
117,117,0,critical,hwd,35.0,2.1,lower,133.0,57.0,57.0,133.0,70.0,70.0,1,4.104794502258301,None,,,,,0,0,0,0,0,117,117,40,399.73200488090515,,,,,,,,,,,,,,,,,,,,,,,,,,,,,,,,,,,,,,,,,,,,,,,,,,,,,,,,,,,,,,,,,,,,,,,,,,,,,,,,,133.0,57.0,57.0,133.0,70.0,70.0,2.1,2.12,-191,-273,0,-252,198,275,399.71558380126953,399.71566367149353,399.7189087867737,399.73200488090515,399.87378907203674,399.87378907203674,399.87378907203674,399.87378907203674,399.87378907203674,399.87378907203674,399.87378907203674,403.8534457683563,1,4.104794502258301,None,,,,,,,,,,,,,,,,,,232,1,2025-03-11_16h04.01.226,comp,2024.2.4,57.26176450109833,2025-03-11 16h04.42.244321 -0400,
118,118,0,critical,dwh,35.0,2.1,lower,70.0,70.0,57.0,133.0,133.0,57.0,3,1.214111089706421,None,,,,,0,0,0,0,0,118,118,4,403.87083196640015,,,,,,,,,,,,,,,,,,,,,,,,,,,,,,,,,,,,,,,,,,,,,,,,,,,,,,,,,,,,,,,,,,,,,,,,,,,,,,,,,70.0,70.0,57.0,133.0,133.0,57.0,2.1,2.12,-198,-283,0,-276,191,254,403.8549041748047,403.8549847602844,403.8581790924072,403.87083196640015,404.0188844203949,404.0188844203949,404.0188844203949,404.0188844203949,404.0188844203949,404.0188844203949,404.0188844203949,405.1028735637665,3,1.214111089706421,None,,,,,,,,,,,,,,,,,,232,1,2025-03-11_16h04.01.226,comp,2024.2.4,57.26176450109833,2025-03-11 16h04.42.244321 -0400,
119,119,0,critical,dhw,35.0,4.0,lower,70.0,70.0,133.0,57.0,57.0,133.0,2,1.3881754875183105,None,,,,,0,0,0,0,0,119,119,52,405.1206645965576,,,,,,,,,,,,,,,,,,,,,,,,,,,,,,,,,,,,,,,,,,,,,,,,,,,,,,,,,,,,,,,,,,,,,,,,,,,,,,,,,70.0,70.0,133.0,57.0,57.0,133.0,4.0,4.1,-160,-272,0,1,191,-254,405.10454177856445,405.10465121269226,405.10794496536255,405.1206645965576,405.270210981369,405.270210981369,405.270210981369,405.270210981369,405.270210981369,405.270210981369,405.270210981369,406.5137777328491,2,1.3881754875183105,None,,,,,,,,,,,,,,,,,,232,1,2025-03-11_16h04.01.226,comp,2024.2.4,57.26176450109833,2025-03-11 16h04.42.244321 -0400,
120,120,0,critical,wdh,35.0,3.0,lower,57.0,133.0,70.0,70.0,133.0,57.0,3,1.1830945014953613,None,,,,,0,0,0,0,0,120,120,74,406.534615278244,,,,,,,,,,,,,,,,,,,,,,,,,,,,,,,,,,,,,,,,,,,,,,,,,,,,,,,,,,,,,,,,,,,,,,,,,,,,,,,,,57.0,133.0,70.0,70.0,133.0,57.0,3.0,3.2,-198,-278,0,11,160,268,406.51546931266785,406.5155498981476,406.5187945365906,406.534615278244,406.6696593761444,406.6696593761444,406.6696593761444,406.6696593761444,406.6696593761444,406.6696593761444,406.6696593761444,407.7214422225952,3,1.1830945014953613,None,,,,,,,,,,,,,,,,,,232,1,2025-03-11_16h04.01.226,comp,2024.2.4,57.26176450109833,2025-03-11 16h04.42.244321 -0400,
121,121,0,critical,dwh,35.0,2.1,lower,70.0,70.0,57.0,133.0,133.0,57.0,3,0.9802131652832031,None,,,,,0,0,0,0,0,121,121,28,407.7374176979065,,,,,,,,,,,,,,,,,,,,,,,,,,,,,,,,,,,,,,,,,,,,,,,,,,,,,,,,,,,,,,,,,,,,,,,,,,,,,,,,,70.0,70.0,57.0,133.0,133.0,57.0,2.1,2.12,-198,-288,0,-280,191,265,407.7231879234314,407.723286151886,407.7265202999115,407.7374176979065,407.8854079246521,407.8854079246521,407.8854079246521,407.8854079246521,407.8854079246521,407.8854079246521,407.8854079246521,408.7229630947113,3,0.9802131652832031,None,,,,,,,,,,,,,,,,,,232,1,2025-03-11_16h04.01.226,comp,2024.2.4,57.26176450109833,2025-03-11 16h04.42.244321 -0400,
122,122,0,filler_square,None,None,None,None,None,None,None,None,None,None,3,1.8804926872253418,None,,,,,0,0,0,0,0,122,122,190,408.74036693573,,,,,,,,,,,,,,,,,,,,,,,,,,,,,,,,,,,,,,,,,,,,,,,,,,,,,,,,,,,,,,,,,,,,,,,,,,,,,,,,,144.55344510741264,111.397246676286,133.9624841073434,148.12995067136947,161.53934563778205,161.53934563778205,2.1,2.11,-226,268,0,251,251,-266,408.7251651287079,408.72525238990784,408.72930359840393,408.74036693573,408.88396406173706,408.88396406173706,408.88396406173706,408.88396406173706,408.88396406173706,408.88396406173706,408.88396406173706,410.6227858066559,3,1.8804926872253418,None,,,,,,,,,,,,,,,,,,232,1,2025-03-11_16h04.01.226,comp,2024.2.4,57.26176450109833,2025-03-11 16h04.42.244321 -0400,
123,123,0,critical,dwh,20.0,4.0,upper,141.0,141.0,125.0,200.0,200.0,125.0,2,1.7425029277801514,None,,,,,0,0,0,0,0,123,123,71,410.6390779018402,,,,,,,,,,,,,,,,,,,,,,,,,,,,,,,,,,,,,,,,,,,,,,,,,,,,,,,,,,,,,,,,,,,,,,,,,,,,,,,,,141.0,141.0,125.0,200.0,200.0,125.0,4.0,4.1,-266,-282,0,-16,258,-259,410.62454986572266,410.6246757507324,410.6282124519348,410.6390779018402,410.78732776641846,410.78732776641846,410.78732776641846,410.78732776641846,410.78732776641846,410.78732776641846,410.78732776641846,412.3887975215912,2,1.7425029277801514,None,,,,,,,,,,,,,,,,,,232,1,2025-03-11_16h04.01.226,comp,2024.2.4,57.26176450109833,2025-03-11 16h04.42.244321 -0400,
124,124,0,filler_random,None,None,None,None,None,None,None,None,None,None,1,2.5284316539764404,None,,,,,0,0,0,0,0,124,124,159,412.40484499931335,,,,,,,,,,,,,,,,,,,,,,,,,,,,,,,,,,,,,,,,,,,,,,,,,,,,,,,,,,,,,,,,,,,,,,,,,,,,,,,,,144.7120061994806,135.56062234575066,62.24680036442121,163.84220678571648,110.32098848188542,185.53976475208773,1.0,1.3,234,-251,480,-265,751,-281,412.39063906669617,412.39072036743164,412.3941226005554,412.40484499931335,412.55554151535034,412.55554151535034,412.55554151535034,412.55554151535034,412.55554151535034,412.55554151535034,412.55554151535034,414.94053864479065,1,2.5284316539764404,None,,,,,,,,,,,,,,,,,,232,1,2025-03-11_16h04.01.226,comp,2024.2.4,57.26176450109833,2025-03-11 16h04.42.244321 -0400,
125,125,0,filler_random,None,None,None,None,None,None,None,None,None,None,3,1.424081563949585,None,,,,,0,0,0,0,0,125,125,168,414.9567275047302,,,,,,,,,,,,,,,,,,,,,,,,,,,,,,,,,,,,,,,,,,,,,,,,,,,,,,,,,,,,,,,,,,,,,,,,,,,,,,,,,98.53994428482855,111.82893290590576,75.13778738731516,170.8289081246307,108.57724864236114,109.51955661833605,2.2,2.21,-237,-256,0,282,236,255,414.94245314598083,414.942590713501,414.9458441734314,414.9567275047302,415.1034677028656,415.1034677028656,415.1034677028656,415.1034677028656,415.1034677028656,415.1034677028656,415.1034677028656,416.396764755249,3,1.424081563949585,None,,,,,,,,,,,,,,,,,,232,1,2025-03-11_16h04.01.226,comp,2024.2.4,57.26176450109833,2025-03-11 16h04.42.244321 -0400,
126,126,0,critical,whd,20.0,4.0,upper,125.0,200.0,200.0,125.0,141.0,141.0,2,2.5848641395568848,None,,,,,0,0,0,0,0,126,126,95,416.41221833229065,,,,,,,,,,,,,,,,,,,,,,,,,,,,,,,,,,,,,,,,,,,,,,,,,,,,,,,,,,,,,,,,,,,,,,,,,,,,,,,,,125.0,200.0,200.0,125.0,141.0,141.0,4.0,4.2,-258,-12,0,-250,229,-14,416.3982925415039,416.398371219635,416.4012761116028,416.41221833229065,416.55720138549805,416.55720138549805,416.55720138549805,416.55720138549805,416.55720138549805,416.55720138549805,416.55720138549805,419.0115225315094,2,2.5848641395568848,None,,,,,,,,,,,,,,,,,,232,1,2025-03-11_16h04.01.226,comp,2024.2.4,57.26176450109833,2025-03-11 16h04.42.244321 -0400,
127,127,0,critical,hdw,20.0,2.1,upper,200.0,125.0,141.0,141.0,125.0,200.0,1,1.8100683689117432,None,,,,,0,0,0,0,0,127,127,47,419.0267655849457,,,,,,,,,,,,,,,,,,,,,,,,,,,,,,,,,,,,,,,,,,,,,,,,,,,,,,,,,,,,,,,,,,,,,,,,,,,,,,,,,200.0,125.0,141.0,141.0,125.0,200.0,2.1,2.11,-229,271,0,252,266,-273,419.01313614845276,419.01323413848877,419.01643204689026,419.0267655849457,419.1812906265259,419.1812906265259,419.1812906265259,419.1812906265259,419.1812906265259,419.1812906265259,419.1812906265259,420.8417317867279,1,1.8100683689117432,None,,,,,,,,,,,,,,,,,,232,1,2025-03-11_16h04.01.226,comp,2024.2.4,57.26176450109833,2025-03-11 16h04.42.244321 -0400,
128,128,0,critical,dwh,35.0,1.0,lower,70.0,70.0,57.0,133.0,133.0,57.0,3,2.939178705215454,None,,,,,0,0,0,0,0,128,128,60,420.85762310028076,,,,,,,,,,,,,,,,,,,,,,,,,,,,,,,,,,,,,,,,,,,,,,,,,,,,,,,,,,,,,,,,,,,,,,,,,,,,,,,,,70.0,70.0,57.0,133.0,133.0,57.0,1.0,1.2,-198,1,0,8,191,-5,420.843323469162,420.84340715408325,420.84685349464417,420.85762310028076,421.01060700416565,421.01060700416565,421.01060700416565,421.01060700416565,421.01060700416565,421.01060700416565,421.01060700416565,423.8069155216217,3,2.939178705215454,None,,,,,,,,,,,,,,,,,,232,1,2025-03-11_16h04.01.226,comp,2024.2.4,57.26176450109833,2025-03-11 16h04.42.244321 -0400,
129,129,0,filler_square,None,None,None,None,None,None,None,None,None,None,3,1.9977405071258545,None,,,,,0,0,0,0,0,129,129,171,423.82301354408264,,,,,,,,,,,,,,,,,,,,,,,,,,,,,,,,,,,,,,,,,,,,,,,,,,,,,,,,,,,,,,,,,,,,,,,,,,,,,,,,,165.48286915285394,122.55572218677578,130.20505598861263,175.71635689002744,189.0595507268413,189.0595507268413,3.0,3.2,-245,-259,0,-9,278,253,423.80873918533325,423.8088188171387,423.81179428100586,423.82301354408264,423.9776611328125,423.9776611328125,423.9776611328125,423.9776611328125,423.9776611328125,423.9776611328125,423.9776611328125,425.83270168304443,3,1.9977405071258545,None,,,,,,,,,,,,,,,,,,232,1,2025-03-11_16h04.01.226,comp,2024.2.4,57.26176450109833,2025-03-11 16h04.42.244321 -0400,
130,130,0,critical,dhw,35.0,2.1,upper,127.0,127.0,200.0,125.0,125.0,200.0,2,2.3703482151031494,None,,,,,0,0,0,0,0,130,130,25,425.85139775276184,,,,,,,,,,,,,,,,,,,,,,,,,,,,,,,,,,,,,,,,,,,,,,,,,,,,,,,,,,,,,,,,,,,,,,,,,,,,,,,,,127.0,127.0,200.0,125.0,125.0,200.0,2.1,2.12,-222,-281,0,-266,258,271,425.8342936038971,425.83437514305115,425.83731341362,425.85139775276184,425.99486231803894,425.99486231803894,425.99486231803894,425.99486231803894,425.99486231803894,425.99486231803894,425.99486231803894,428.22800374031067,2,2.3703482151031494,None,,,,,,,,,,,,,,,,,,232,1,2025-03-11_16h04.01.226,comp,2024.2.4,57.26176450109833,2025-03-11 16h04.42.244321 -0400,
131,131,0,catch,None,None,None,None,None,None,None,None,None,None,1,1.400055170059204,None,,,,,0,0,0,0,0,131,131,125,428.2448127269745,,,,,,,,,,,,,,,,,,,,,,,,,,,,,,,,,,,,,,,,,,,,,,,,,,,,,,,,,,,,,,,,,,,,,,,,,,,,,,,,,193,132,91,99,59,131,2.1,2.11,-212,253,0,252,211,-282,428.23039197921753,428.2304799556732,428.23394107818604,428.2448127269745,428.391410112381,428.391410112381,428.391410112381,428.391410112381,428.391410112381,428.391410112381,428.391410112381,429.65991616249084,1,1.400055170059204,None,,,,,,,,,,,,,,,,,,232,1,2025-03-11_16h04.01.226,comp,2024.2.4,57.26176450109833,2025-03-11 16h04.42.244321 -0400,
132,132,0,filler_square,None,None,None,None,None,None,None,None,None,None,1,2.061311721801758,None,,,,,0,0,0,0,0,132,132,170,429.68033146858215,,,,,,,,,,,,,,,,,,,,,,,,,,,,,,,,,,,,,,,,,,,,,,,,,,,,,,,,,,,,,,,,,,,,,,,,,,,,,,,,,58.49554224209532,58.84883426781975,64.22349652101093,64.22349652101093,59.5640301302167,62.38297580783831,4.0,4.1,-158,-287,0,-18,159,-252,429.66192865371704,429.6620087623596,429.665495634079,429.68033146858215,429.82634830474854,429.82634830474854,429.82634830474854,429.82634830474854,429.82634830474854,429.82634830474854,429.82634830474854,431.74606347084045,1,2.061311721801758,None,,,,,,,,,,,,,,,,,,232,1,2025-03-11_16h04.01.226,comp,2024.2.4,57.26176450109833,2025-03-11 16h04.42.244321 -0400,
133,133,0,filler_square,None,None,None,None,None,None,None,None,None,None,2,1.5944185256958008,None,,,,,0,0,0,0,0,133,133,176,431.7632591724396,,,,,,,,,,,,,,,,,,,,,,,,,,,,,,,,,,,,,,,,,,,,,,,,,,,,,,,,,,,,,,,,,,,,,,,,,,,,,,,,,119.65411212634932,86.42132663526647,129.78273927878115,129.78273927878115,108.7444364554151,91.39399791345645,1.0,1.2,-204,-19,0,-12,207,5,431.7481610774994,431.74824953079224,431.7518081665039,431.7632591724396,431.8982288837433,431.8982288837433,431.8982288837433,431.8982288837433,431.8982288837433,431.8982288837433,431.8982288837433,433.36025190353394,2,1.5944185256958008,None,,,,,,,,,,,,,,,,,,232,1,2025-03-11_16h04.01.226,comp,2024.2.4,57.26176450109833,2025-03-11 16h04.42.244321 -0400,
134,134,0,catch,None,None,None,None,None,None,None,None,None,None,2,1.651944637298584,None,,,,,0,0,0,0,0,134,134,129,433.3767468929291,,,,,,,,,,,,,,,,,,,,,,,,,,,,,,,,,,,,,,,,,,,,,,,,,,,,,,,,,,,,,,,,,,,,,,,,,,,,,,,,,96,94,163,162,91,99,1.0,1.3,256,-270,480,-255,706,-255,433.3624041080475,433.3624858856201,433.3658218383789,433.3767468929291,433.52850341796875,433.52850341796875,433.52850341796875,433.52850341796875,433.52850341796875,433.52850341796875,433.52850341796875,435.04499650001526,2,1.651944637298584,None,,,,,,,,,,,,,,,,,,232,1,2025-03-11_16h04.01.226,comp,2024.2.4,57.26176450109833,2025-03-11 16h04.42.244321 -0400,
135,135,0,filler_square,None,None,None,None,None,None,None,None,None,None,2,0.9671428203582764,None,,,,,0,0,0,0,0,135,135,205,435.061603307724,,,,,,,,,,,,,,,,,,,,,,,,,,,,,,,,,,,,,,,,,,,,,,,,,,,,,,,,,,,,,,,,,,,,,,,,,,,,,,,,,124.8351985409449,65.51377542984437,161.77330310165445,161.77330310165445,98.86924983152747,160.28714387288048,1.0,1.1,-690,279,-480,282,-223,286,435.04699301719666,435.04707741737366,435.05040311813354,435.061603307724,435.21241521835327,435.21241521835327,435.21241521835327,435.21241521835327,435.21241521835327,435.21241521835327,435.21241521835327,436.0461513996124,2,0.9671428203582764,None,,,,,,,,,,,,,,,,,,232,1,2025-03-11_16h04.01.226,comp,2024.2.4,57.26176450109833,2025-03-11 16h04.42.244321 -0400,
136,136,0,critical,hdw,35.0,3.0,lower,133.0,57.0,70.0,70.0,57.0,133.0,1,1.431138038635254,None,,,,,0,0,0,0,0,136,136,110,436.0623240470886,,,,,,,,,,,,,,,,,,,,,,,,,,,,,,,,,,,,,,,,,,,,,,,,,,,,,,,,,,,,,,,,,,,,,,,,,,,,,,,,,133.0,57.0,70.0,70.0,57.0,133.0,3.0,3.1,-160,271,0,-13,198,-261,436.04765224456787,436.04773116111755,436.0518207550049,436.0623240470886,436.21162509918213,436.21162509918213,436.21162509918213,436.21162509918213,436.21162509918213,436.21162509918213,436.21162509918213,437.50316095352173,1,1.431138038635254,None,,,,,,,,,,,,,,,,,,232,1,2025-03-11_16h04.01.226,comp,2024.2.4,57.26176450109833,2025-03-11 16h04.42.244321 -0400,
137,137,0,critical,dwh,20.0,3.0,upper,141.0,141.0,125.0,200.0,200.0,125.0,2,1.7341639995574951,None,,,,,0,0,0,0,0,137,137,69,437.518545627594,,,,,,,,,,,,,,,,,,,,,,,,,,,,,,,,,,,,,,,,,,,,,,,,,,,,,,,,,,,,,,,,,,,,,,,,,,,,,,,,,141.0,141.0,125.0,200.0,200.0,125.0,3.0,3.2,-266,-254,0,-3,258,261,437.5047175884247,437.50479531288147,437.5076861381531,437.518545627594,437.66196489334106,437.66196489334106,437.66196489334106,437.66196489334106,437.66196489334106,437.66196489334106,437.66196489334106,439.2634437084198,2,1.7341639995574951,None,,,,,,,,,,,,,,,,,,232,1,2025-03-11_16h04.01.226,comp,2024.2.4,57.26176450109833,2025-03-11 16h04.42.244321 -0400,
138,138,0,critical,whd,20.0,1.0,upper,125.0,200.0,200.0,125.0,141.0,141.0,2,2.484783411026001,None,,,,,0,0,0,0,0,138,138,91,439.28000235557556,,,,,,,,,,,,,,,,,,,,,,,,,,,,,,,,,,,,,,,,,,,,,,,,,,,,,,,,,,,,,,,,,,,,,,,,,,,,,,,,,125.0,200.0,200.0,125.0,141.0,141.0,1.0,1.1,-738,256,-480,273,-251,288,439.2650423049927,439.26516580581665,439.2685465812683,439.28000235557556,439.43532967567444,439.43532967567444,439.43532967567444,439.43532967567444,439.43532967567444,439.43532967567444,439.43532967567444,441.77806210517883,2,2.484783411026001,None,,,,,,,,,,,,,,,,,,232,1,2025-03-11_16h04.01.226,comp,2024.2.4,57.26176450109833,2025-03-11 16h04.42.244321 -0400,
139,139,0,filler_random,None,None,None,None,None,None,None,None,None,None,3,1.546435832977295,None,,,,,0,0,0,0,0,139,139,161,441.79438495635986,,,,,,,,,,,,,,,,,,,,,,,,,,,,,,,,,,,,,,,,,,,,,,,,,,,,,,,,,,,,,,,,,,,,,,,,,,,,,,,,,91.90033933889924,58.00800383037898,140.35921276308582,133.33099510332272,121.62488076307022,189.67555627588996,3.0,3.2,-192,-271,0,19,258,269,441.7798192501068,441.77989983558655,441.78279399871826,441.79438495635986,441.9320778846741,441.9320778846741,441.9320778846741,441.9320778846741,441.9320778846741,441.9320778846741,441.9320778846741,443.35497212409973,3,1.546435832977295,None,,,,,,,,,,,,,,,,,,232,1,2025-03-11_16h04.01.226,comp,2024.2.4,57.26176450109833,2025-03-11 16h04.42.244321 -0400,
140,140,0,filler_square,None,None,None,None,None,None,None,None,None,None,2,1.502136468887329,None,,,,,0,0,0,0,0,140,140,191,443.3755257129669,,,,,,,,,,,,,,,,,,,,,,,,,,,,,,,,,,,,,,,,,,,,,,,,,,,,,,,,,,,,,,,,,,,,,,,,,,,,,,,,,117.14222503756936,63.709514273135014,149.42699045022528,149.42699045022528,117.38235408601489,142.59952400805,4.0,4.2,-203,4,0,-253,242,-18,443.35680413246155,443.35688400268555,443.3597676753998,443.3755257129669,443.5206341743469,443.5206341743469,443.5206341743469,443.5206341743469,443.5206341743469,443.5206341743469,443.5206341743469,444.8820867538452,2,1.502136468887329,None,,,,,,,,,,,,,,,,,,232,1,2025-03-11_16h04.01.226,comp,2024.2.4,57.26176450109833,2025-03-11 16h04.42.244321 -0400,
