thisN,thisTrialN,thisRepN,effect,order,distance,config,diag,h_1,w_1,h_2,w_2,h_3,w_3,rect_choice.keys,rect_choice.rt,rect_choice.duration,instructions_loop.thisRepN,instructions_loop.thisTrialN,instructions_loop.thisN,instructions_loop.thisIndex,blocks.thisRepN,blocks.thisTrialN,blocks.thisN,blocks.thisIndex,trials.thisRepN,trials.thisTrialN,trials.thisN,trials.thisIndex,thisRow.t,notes,consent.started,agree_button.started,decline_button.started,consent_img.started,mouse.started,consent.stopped,agree_button.numClicks,agree_button.timesOn,agree_button.timesOff,decline_button.numClicks,decline_button.timesOn,decline_button.timesOff,mouse.x,mouse.y,mouse.leftButton,mouse.midButton,mouse.rightButton,mouse.time,mouse.clicked_name,exp_params.started,exp_params.stopped,welcome.started,welcome_text.started,welcome.stopped,instructions_1.started,instructions_1_text_1.started,instructions_1_text_2.started,key_resp.started,instructions_1.stopped,instructions_loop.key_resp.keys,instructions_loop.key_resp.rt,instructions_loop.key_resp.duration,instructions_2.started,instructions_2_text_1.started,instructions_2_text_2.started,key_resp_2.started,instructions_2.stopped,instructions_loop.key_resp_2.keys,instructions_loop.key_resp_2.rt,instructions_loop.key_resp_2.duration,instructions_3.started,instructions_3_text_1.started,r1_instr3.started,r2_instr3.started,r3_instr3.started,r1_instr3_label.started,r2_instr3_label.started,r3_instr3_label.started,instructions_3_text_3.started,instructions_3_text_4.started,key_resp_3.started,instructions_3.stopped,instructions_loop.key_resp_3.keys,instructions_loop.key_resp_3.rt,instructions_loop.key_resp_3.duration,instructions_4.started,instructions_4_text_1.started,instructions_4_text_3.started,instructions_4_text_2.started,key_resp_4.started,instructions_4.stopped,instructions_loop.key_resp_4.keys,instructions_loop.key_resp_4.rt,instructions_loop.key_resp_4.duration,instructions_5.started,instructions_5_text_1.started,instructions_5_text_2.started,key_resp_5.started,instructions_5.stopped,instructions_loop.key_resp_5.keys,instructions_loop.key_resp_5.rt,instructions_loop.key_resp_5.duration,start_exp.started,start_exp_text.started,key_resp_6.started,start_exp.stopped,key_resp_6.keys,key_resp_6.rt,key_resp_6.duration,h_1_tmp,w_1_tmp,h_2_tmp,w_2_tmp,h_3_tmp,w_3_tmp,config_tmp,config_tmp_1,r_1_x,r_1_y,r_2_x,r_2_y,r_3_x,r_3_y,pre_trial.started,pre_trial.stopped,choice_trial.started,rect_choice.started,r_1.started,r_2.started,r_3.started,r_1_label.started,r_2_label.started,r_3_label.started,prompt.started,choice_trial.stopped,trials.rect_choice.keys,trials.rect_choice.rt,trials.rect_choice.duration,end_block.started,end_block_text.started,end_block.stopped,end.started,end_text.started,key_resp_7.started,end.stopped,key_resp_7.keys,key_resp_7.rt,key_resp_7.duration,debriefing.started,debrief_form.started,end_debrief.started,debriefing.stopped,end_debrief.keys,end_debrief.rt,end_debrief.duration,participant,computer,date,expName,psychopyVersion,frameRate,expStart,
,,,,,,,,,,,,,,,,,,,,,,,,,,,,,,,0.015060186386108398,0.031664371490478516,0.031664371490478516,0.031664371490478516,0.014826297760009766,46.780781984329224,1,[46.74656558036804],[46.74658799171448],0,,,[-103.0],[-517.0],[1],[0],[0],[46.765185594558716],['agree_button'],,,,,,,,,,,,,,,,,,,,,,,,,,,,,,,,,,,,,,,,,,,,,,,,,,,,,,,,,,,,,,,,,,,,,,,,,,,,,,,,,,,,,,,,,,,,,,,,,,,,,,,,,,,233,2,2025-03-11_16h10.39.300,comp,2024.2.4,57.324921549546794,2025-03-11 16h10.55.060858 -0400,
,,,,,,,,,,,,,,,,,,,,,,,,,,,,,,,,,,,,,,,,,,,,,,,,,,46.781362533569336,46.78143334388733,,,,,,,,,,,,,,,,,,,,,,,,,,,,,,,,,,,,,,,,,,,,,,,,,,,,,,,,,,,,,,,,,,,,,,,,,,,,,,,,,,,,,,,,,,,,,,,,,,,,,,,,,233,2,2025-03-11_16h10.39.300,comp,2024.2.4,57.324921549546794,2025-03-11 16h10.55.060858 -0400,
,,,,,,,,,,,,,,,,,,,,,,,,,,,,,,,,,,,,,,,,,,,,,,,,,,,,46.7814826965332,46.79758667945862,48.79428744316101,,,,,,,,,,,,,,,,,,,,,,,,,,,,,,,,,,,,,,,,,,,,,,,,,,,,,,,,,,,,,,,,,,,,,,,,,,,,,,,,,,,,,,,,,,,,,,,,,,,,,,233,2,2025-03-11_16h10.39.300,comp,2024.2.4,57.324921549546794,2025-03-11 16h10.55.060858 -0400,
0,0,0,,,,,,,,,,,,,,,0,0,0,0,,,,,,,,,48.8106689453125,,,,,,,,,,,,,,,,,,,,,,,,,,48.795146465301514,48.8106689453125,48.8106689453125,50.29434251785278,53.96386218070984,space,3.6554853916168213,None,53.964088916778564,53.97975277900696,53.97975277900696,55.46545958518982,63.46621799468994,space,7.996259927749634,None,63.466365814208984,63.496870040893555,63.496870040893555,63.496870040893555,63.496870040893555,63.496870040893555,63.496870040893555,63.496870040893555,63.496870040893555,63.496870040893555,64.98126554489136,70.59238028526306,space,5.608790874481201,None,70.59253811836243,70.61023020744324,70.61023020744324,70.61023020744324,72.10120058059692,78.5747344493866,space,6.456361532211304,None,78.5750060081482,78.59167742729187,78.59167742729187,80.08465147018433,81.82287788391113,space,1.7292900085449219,None,81.82307004928589,81.83717679977417,81.83717679977417,83.83758044242859,space,1.9844110012054443,None,,,,,,,,,,,,,,,,,,,,,,,,,,,,,,,,,,,,,,,,,,,,,,,233,2,2025-03-11_16h10.39.300,comp,2024.2.4,57.324921549546794,2025-03-11 16h10.55.060858 -0400,
0,0,0,critical,hwd,20.0,2.1,lower,133.0,57.0,57.0,133.0,78.0,78.0,1,20.687605381011963,None,,,,,0,0,0,0,0,0,0,18,83.90987038612366,,,,,,,,,,,,,,,,,,,,,,,,,,,,,,,,,,,,,,,,,,,,,,,,,,,,,,,,,,,,,,,,,,,,,,,,,,,,,,,,,133.0,57.0,57.0,133.0,78.0,78.0,2.1,2.11,-191,262,0,282,202,-261,83.89354372024536,83.89358377456665,83.89510464668274,83.90987038612366,84.06328177452087,84.06328177452087,84.06328177452087,84.06328177452087,84.06328177452087,84.06328177452087,84.06328177452087,104.61260747909546,1,20.687605381011963,None,,,,,,,,,,,,,,,,,,233,2,2025-03-11_16h10.39.300,comp,2024.2.4,57.324921549546794,2025-03-11 16h10.55.060858 -0400,
1,1,0,critical,hwd,20.0,4.0,lower,133.0,57.0,57.0,133.0,78.0,78.0,1,12.79338026046753,None,,,,,0,0,0,0,0,1,1,106,104.62849450111389,,,,,,,,,,,,,,,,,,,,,,,,,,,,,,,,,,,,,,,,,,,,,,,,,,,,,,,,,,,,,,,,,,,,,,,,,,,,,,,,,133.0,57.0,57.0,133.0,78.0,78.0,4.0,4.2,-191,19,0,-260,202,16,104.61436629295349,104.61450624465942,104.61804580688477,104.62849450111389,104.7790961265564,104.7790961265564,104.7790961265564,104.7790961265564,104.7790961265564,104.7790961265564,104.7790961265564,117.4240939617157,1,12.79338026046753,None,,,,,,,,,,,,,,,,,,233,2,2025-03-11_16h10.39.300,comp,2024.2.4,57.324921549546794,2025-03-11 16h10.55.060858 -0400,
2,2,0,critical,dhw,20.0,4.0,lower,78.0,78.0,133.0,57.0,57.0,133.0,2,9.488872051239014,None,,,,,0,0,0,0,0,2,2,58,117.4451744556427,,,,,,,,,,,,,,,,,,,,,,,,,,,,,,,,,,,,,,,,,,,,,,,,,,,,,,,,,,,,,,,,,,,,,,,,,,,,,,,,,78.0,78.0,133.0,57.0,57.0,133.0,4.0,4.2,-164,-18,0,-285,191,-1,117.42573380470276,117.42589855194092,117.42947578430176,117.4451744556427,117.58384156227112,117.58384156227112,117.58384156227112,117.58384156227112,117.58384156227112,117.58384156227112,117.58384156227112,126.93624019622803,2,9.488872051239014,None,,,,,,,,,,,,,,,,,,233,2,2025-03-11_16h10.39.300,comp,2024.2.4,57.324921549546794,2025-03-11 16h10.55.060858 -0400,
3,3,0,critical,hdw,20.0,1.0,lower,133.0,57.0,78.0,78.0,57.0,133.0,3,18.83714509010315,None,,,,,0,0,0,0,0,3,3,114,126.95242691040039,,,,,,,,,,,,,,,,,,,,,,,,,,,,,,,,,,,,,,,,,,,,,,,,,,,,,,,,,,,,,,,,,,,,,,,,,,,,,,,,,133.0,57.0,78.0,78.0,57.0,133.0,1.0,1.3,316,-252,480,-280,682,-289,126.93783617019653,126.93791699409485,126.94149732589722,126.95242691040039,127.09955644607544,127.09955644607544,127.09955644607544,127.09955644607544,127.09955644607544,127.09955644607544,127.09955644607544,145.80530095100403,3,18.83714509010315,None,,,,,,,,,,,,,,,,,,233,2,2025-03-11_16h10.39.300,comp,2024.2.4,57.324921549546794,2025-03-11 16h10.55.060858 -0400,
4,4,0,critical,hdw,35.0,2.1,upper,200.0,125.0,127.0,127.0,125.0,200.0,3,9.648247480392456,None,,,,,0,0,0,0,0,4,4,21,145.82115721702576,,,,,,,,,,,,,,,,,,,,,,,,,,,,,,,,,,,,,,,,,,,,,,,,,,,,,,,,,,,,,,,,,,,,,,,,,,,,,,,,,200.0,125.0,127.0,127.0,125.0,200.0,2.1,2.11,-222,280,0,260,260,-264,145.8068027496338,145.80688500404358,145.80982851982117,145.82115721702576,145.96033596992493,145.96033596992493,145.96033596992493,145.96033596992493,145.96033596992493,145.96033596992493,145.96033596992493,155.48562121391296,3,9.648247480392456,None,,,,,,,,,,,,,,,,,,233,2,2025-03-11_16h10.39.300,comp,2024.2.4,57.324921549546794,2025-03-11 16h10.55.060858 -0400,
5,5,0,critical,whd,35.0,1.0,lower,57.0,133.0,133.0,57.0,70.0,70.0,1,3.691328525543213,None,,,,,0,0,0,0,0,5,5,84,155.50612378120422,,,,,,,,,,,,,,,,,,,,,,,,,,,,,,,,,,,,,,,,,,,,,,,,,,,,,,,,,,,,,,,,,,,,,,,,,,,,,,,,,57.0,133.0,133.0,57.0,70.0,70.0,1.0,1.2,-191,-13,0,3,160,-4,155.4872522354126,155.48733139038086,155.49068522453308,155.50612378120422,155.6476604938507,155.6476604938507,155.6476604938507,155.6476604938507,155.6476604938507,155.6476604938507,155.6476604938507,159.21227407455444,1,3.691328525543213,None,,,,,,,,,,,,,,,,,,233,2,2025-03-11_16h10.39.300,comp,2024.2.4,57.324921549546794,2025-03-11 16h10.55.060858 -0400,
6,6,0,filler_random,None,None,None,None,None,None,None,None,None,None,3,2.860872268676758,None,,,,,0,0,0,0,0,6,6,168,159.2325520515442,,,,,,,,,,,,,,,,,,,,,,,,,,,,,,,,,,,,,,,,,,,,,,,,,,,,,,,,,,,,,,,,,,,,,,,,,,,,,,,,,67.42177926405162,175.55821180599787,167.52775406534772,135.45024731796664,190.49018841699657,193.1897041367023,2.2,2.22,-252,281,0,-269,260,-280,159.2140109539032,159.21408462524414,159.21721267700195,159.2325520515442,159.36755228042603,159.36755228042603,159.36755228042603,159.36755228042603,159.36755228042603,159.36755228042603,159.36755228042603,162.11268043518066,3,2.860872268676758,None,,,,,,,,,,,,,,,,,,233,2,2025-03-11_16h10.39.300,comp,2024.2.4,57.324921549546794,2025-03-11 16h10.55.060858 -0400,
7,7,0,filler_square,None,None,None,None,None,None,None,None,None,None,2,1.4478650093078613,None,,,,,0,0,0,0,0,7,7,180,162.13357663154602,,,,,,,,,,,,,,,,,,,,,,,,,,,,,,,,,,,,,,,,,,,,,,,,,,,,,,,,,,,,,,,,,,,,,,,,,,,,,,,,,133.20081909333442,90.45880092106484,199.49984123141834,199.49984123141834,133.9229924719345,110.77942841981076,1.0,1.1,-721,256,-480,279,-229,263,162.1147620677948,162.11487650871277,162.1182336807251,162.13357663154602,162.28140115737915,162.28140115737915,162.28140115737915,162.28140115737915,162.28140115737915,162.28140115737915,162.28140115737915,163.60100841522217,2,1.4478650093078613,None,,,,,,,,,,,,,,,,,,233,2,2025-03-11_16h10.39.300,comp,2024.2.4,57.324921549546794,2025-03-11 16h10.55.060858 -0400,
8,8,0,critical,hdw,20.0,2.1,upper,200.0,125.0,141.0,141.0,125.0,200.0,3,14.155518770217896,None,,,,,0,0,0,0,0,8,8,47,163.61850810050964,,,,,,,,,,,,,,,,,,,,,,,,,,,,,,,,,,,,,,,,,,,,,,,,,,,,,,,,,,,,,,,,,,,,,,,,,,,,,,,,,200.0,125.0,141.0,141.0,125.0,200.0,2.1,2.12,-229,-262,0,-288,266,267,163.60259747505188,163.60267877578735,163.60574674606323,163.61850810050964,163.7636957168579,163.7636957168579,163.7636957168579,163.7636957168579,163.7636957168579,163.7636957168579,163.7636957168579,177.77972602844238,3,14.155518770217896,None,,,,,,,,,,,,,,,,,,233,2,2025-03-11_16h10.39.300,comp,2024.2.4,57.324921549546794,2025-03-11 16h10.55.060858 -0400,
9,9,0,critical,wdh,20.0,1.0,upper,125.0,200.0,141.0,141.0,200.0,125.0,1,4.699617624282837,None,,,,,0,0,0,0,0,9,9,79,177.79523539543152,,,,,,,,,,,,,,,,,,,,,,,,,,,,,,,,,,,,,,,,,,,,,,,,,,,,,,,,,,,,,,,,,,,,,,,,,,,,,,,,,125.0,200.0,141.0,141.0,200.0,125.0,1.0,1.2,-266,-5,0,-6,229,5,177.78127098083496,177.78135180473328,177.78432154655457,177.79523539543152,177.93437242507935,177.93437242507935,177.93437242507935,177.93437242507935,177.93437242507935,177.93437242507935,177.93437242507935,182.50515413284302,1,4.699617624282837,None,,,,,,,,,,,,,,,,,,233,2,2025-03-11_16h10.39.300,comp,2024.2.4,57.324921549546794,2025-03-11 16h10.55.060858 -0400,
10,10,0,critical,hdw,35.0,1.0,lower,133.0,57.0,70.0,70.0,57.0,133.0,3,6.155735731124878,None,,,,,0,0,0,0,0,10,10,108,182.52165484428406,,,,,,,,,,,,,,,,,,,,,,,,,,,,,,,,,,,,,,,,,,,,,,,,,,,,,,,,,,,,,,,,,,,,,,,,,,,,,,,,,133.0,57.0,70.0,70.0,57.0,133.0,1.0,1.1,-640,266,-480,256,-282,288,182.50699162483215,182.50707387924194,182.51063299179077,182.52165484428406,182.67086458206177,182.67086458206177,182.67086458206177,182.67086458206177,182.67086458206177,182.67086458206177,182.67086458206177,188.687814950943,3,6.155735731124878,None,,,,,,,,,,,,,,,,,,233,2,2025-03-11_16h10.39.300,comp,2024.2.4,57.324921549546794,2025-03-11 16h10.55.060858 -0400,
11,11,0,critical,dhw,35.0,4.0,lower,70.0,70.0,133.0,57.0,57.0,133.0,3,5.933218717575073,None,,,,,0,0,0,0,0,11,11,52,188.70431756973267,,,,,,,,,,,,,,,,,,,,,,,,,,,,,,,,,,,,,,,,,,,,,,,,,,,,,,,,,,,,,,,,,,,,,,,,,,,,,,,,,70.0,70.0,133.0,57.0,57.0,133.0,4.0,4.1,-160,-265,0,9,191,-264,188.689439535141,188.68956899642944,188.6929590702057,188.70431756973267,188.85636830329895,188.85636830329895,188.85636830329895,188.85636830329895,188.85636830329895,188.85636830329895,188.85636830329895,194.64065718650818,3,5.933218717575073,None,,,,,,,,,,,,,,,,,,233,2,2025-03-11_16h10.39.300,comp,2024.2.4,57.324921549546794,2025-03-11 16h10.55.060858 -0400,
12,12,0,catch,None,None,None,None,None,None,None,None,None,None,3,1.2847788333892822,None,,,,,0,0,0,0,0,12,12,128,194.65690398216248,,,,,,,,,,,,,,,,,,,,,,,,,,,,,,,,,,,,,,,,,,,,,,,,,,,,,,,,,,,,,,,,,,,,,,,,,,,,,,,,,90,100,87,103,169,156,2.1,2.11,-198,288,0,250,226,-257,194.64250802993774,194.6425862312317,194.64612293243408,194.65690398216248,194.80719780921936,194.80719780921936,194.80719780921936,194.80719780921936,194.80719780921936,194.80719780921936,194.80719780921936,195.9470992088318,3,1.2847788333892822,None,,,,,,,,,,,,,,,,,,233,2,2025-03-11_16h10.39.300,comp,2024.2.4,57.324921549546794,2025-03-11 16h10.55.060858 -0400,
13,13,0,critical,whd,20.0,1.0,upper,125.0,200.0,200.0,125.0,141.0,141.0,1,7.834267616271973,None,,,,,0,0,0,0,0,13,13,91,195.96461009979248,,,,,,,,,,,,,,,,,,,,,,,,,,,,,,,,,,,,,,,,,,,,,,,,,,,,,,,,,,,,,,,,,,,,,,,,,,,,,,,,,125.0,200.0,200.0,125.0,141.0,141.0,1.0,1.1,-738,264,-480,253,-251,259,195.94866967201233,195.94874548912048,195.95165252685547,195.96461009979248,196.10762906074524,196.10762906074524,196.10762906074524,196.10762906074524,196.10762906074524,196.10762906074524,196.10762906074524,203.81090259552002,1,7.834267616271973,None,,,,,,,,,,,,,,,,,,233,2,2025-03-11_16h10.39.300,comp,2024.2.4,57.324921549546794,2025-03-11 16h10.55.060858 -0400,
14,14,0,critical,hdw,35.0,1.0,upper,200.0,125.0,127.0,127.0,125.0,200.0,3,7.858706712722778,None,,,,,0,0,0,0,0,14,14,109,203.82694029808044,,,,,,,,,,,,,,,,,,,,,,,,,,,,,,,,,,,,,,,,,,,,,,,,,,,,,,,,,,,,,,,,,,,,,,,,,,,,,,,,,200.0,125.0,127.0,127.0,125.0,200.0,1.0,1.1,-702,282,-480,271,-220,264,203.81244826316833,203.8125216960907,203.8165900707245,203.82694029808044,203.97524404525757,203.97524404525757,203.97524404525757,203.97524404525757,203.97524404525757,203.97524404525757,203.97524404525757,211.69515562057495,3,7.858706712722778,None,,,,,,,,,,,,,,,,,,233,2,2025-03-11_16h10.39.300,comp,2024.2.4,57.324921549546794,2025-03-11 16h10.55.060858 -0400,
15,15,0,filler_random,None,None,None,None,None,None,None,None,None,None,1,3.6850173473358154,None,,,,,0,0,0,0,0,15,15,139,211.712384223938,,,,,,,,,,,,,,,,,,,,,,,,,,,,,,,,,,,,,,,,,,,,,,,,,,,,,,,,,,,,,,,,,,,,,,,,,,,,,,,,,105.55736612780157,158.40298044294897,186.14758017944203,86.90195576343767,77.44856959385243,71.45137032131191,4.0,4.2,-219,-10,0,-267,175,-6,211.69690489768982,211.69701981544495,211.70037460327148,211.712384223938,211.86088609695435,211.86088609695435,211.86088609695435,211.86088609695435,211.86088609695435,211.86088609695435,211.86088609695435,215.4135353565216,1,3.6850173473358154,None,,,,,,,,,,,,,,,,,,233,2,2025-03-11_16h10.39.300,comp,2024.2.4,57.324921549546794,2025-03-11 16h10.55.060858 -0400,
16,16,0,filler_square,None,None,None,None,None,None,None,None,None,None,3,6.0399744510650635,None,,,,,0,0,0,0,0,16,16,186,215.42947578430176,,,,,,,,,,,,,,,,,,,,,,,,,,,,,,,,,,,,,,,,,,,,,,,,,,,,,,,,,,,,,,,,,,,,,,,,,,,,,,,,,61.905879906397146,75.12970807624131,68.61032888786946,72.0164673532424,78.42184319095821,78.42184319095821,4.0,4.2,-170,12,0,-287,171,20,215.41529655456543,215.41537141799927,215.41876411437988,215.42947578430176,215.57782435417175,215.57782435417175,215.57782435417175,215.57782435417175,215.57782435417175,215.57782435417175,215.57782435417175,221.48449397087097,3,6.0399744510650635,None,,,,,,,,,,,,,,,,,,233,2,2025-03-11_16h10.39.300,comp,2024.2.4,57.324921549546794,2025-03-11 16h10.55.060858 -0400,
17,17,0,critical,wdh,20.0,2.1,upper,125.0,200.0,141.0,141.0,200.0,125.0,1,4.593287944793701,None,,,,,0,0,0,0,0,17,17,35,221.5007598400116,,,,,,,,,,,,,,,,,,,,,,,,,,,,,,,,,,,,,,,,,,,,,,,,,,,,,,,,,,,,,,,,,,,,,,,,,,,,,,,,,125.0,200.0,141.0,141.0,200.0,125.0,2.1,2.12,-266,-265,0,-286,229,265,221.48616290092468,221.48628282546997,221.48983216285706,221.5007598400116,221.64985251426697,221.64985251426697,221.64985251426697,221.64985251426697,221.64985251426697,221.64985251426697,221.64985251426697,226.10098671913147,1,4.593287944793701,None,,,,,,,,,,,,,,,,,,233,2,2025-03-11_16h10.39.300,comp,2024.2.4,57.324921549546794,2025-03-11 16h10.55.060858 -0400,
18,18,0,critical,dhw,20.0,2.1,upper,141.0,141.0,200.0,125.0,125.0,200.0,3,2.728663921356201,None,,,,,0,0,0,0,0,18,18,3,226.11745595932007,,,,,,,,,,,,,,,,,,,,,,,,,,,,,,,,,,,,,,,,,,,,,,,,,,,,,,,,,,,,,,,,,,,,,,,,,,,,,,,,,141.0,141.0,200.0,125.0,125.0,200.0,2.1,2.12,-229,-282,0,-288,258,287,226.10270929336548,226.10286283493042,226.10645508766174,226.11745595932007,226.26473331451416,226.26473331451416,226.26473331451416,226.26473331451416,226.26473331451416,226.26473331451416,226.26473331451416,228.85180974006653,3,2.728663921356201,None,,,,,,,,,,,,,,,,,,233,2,2025-03-11_16h10.39.300,comp,2024.2.4,57.324921549546794,2025-03-11 16h10.55.060858 -0400,
19,19,0,critical,hwd,35.0,3.0,lower,133.0,57.0,57.0,133.0,70.0,70.0,1,2.585235834121704,None,,,,,0,0,0,0,0,19,19,98,228.86817717552185,,,,,,,,,,,,,,,,,,,,,,,,,,,,,,,,,,,,,,,,,,,,,,,,,,,,,,,,,,,,,,,,,,,,,,,,,,,,,,,,,133.0,57.0,57.0,133.0,70.0,70.0,3.0,3.2,-191,-267,0,1,198,254,228.8532907962799,228.85336804389954,228.8574516773224,228.86817717552185,229.02008962631226,229.02008962631226,229.02008962631226,229.02008962631226,229.02008962631226,229.02008962631226,229.02008962631226,231.46822810173035,1,2.585235834121704,None,,,,,,,,,,,,,,,,,,233,2,2025-03-11_16h10.39.300,comp,2024.2.4,57.324921549546794,2025-03-11 16h10.55.060858 -0400,
20,20,0,critical,hwd,35.0,3.0,upper,200.0,125.0,125.0,200.0,127.0,127.0,2,3.9614498615264893,None,,,,,0,0,0,0,0,20,20,99,231.4846270084381,,,,,,,,,,,,,,,,,,,,,,,,,,,,,,,,,,,,,,,,,,,,,,,,,,,,,,,,,,,,,,,,,,,,,,,,,,,,,,,,,200.0,125.0,125.0,200.0,127.0,127.0,3.0,3.2,-258,-266,0,-18,260,289,231.46971797943115,231.469810962677,231.4729287624359,231.4846270084381,231.63620376586914,231.63620376586914,231.63620376586914,231.63620376586914,231.63620376586914,231.63620376586914,231.63620376586914,235.45580458641052,2,3.9614498615264893,None,,,,,,,,,,,,,,,,,,233,2,2025-03-11_16h10.39.300,comp,2024.2.4,57.324921549546794,2025-03-11 16h10.55.060858 -0400,
21,21,0,critical,wdh,20.0,4.0,upper,125.0,200.0,141.0,141.0,200.0,125.0,1,5.28138279914856,None,,,,,0,0,0,0,0,21,21,83,235.4761130809784,,,,,,,,,,,,,,,,,,,,,,,,,,,,,,,,,,,,,,,,,,,,,,,,,,,,,,,,,,,,,,,,,,,,,,,,,,,,,,,,,125.0,200.0,141.0,141.0,200.0,125.0,4.0,4.2,-266,-13,0,-259,229,8,235.4577832221985,235.4579474925995,235.46109819412231,235.4761130809784,235.62067317962646,235.62067317962646,235.62067317962646,235.62067317962646,235.62067317962646,235.62067317962646,235.62067317962646,240.77065706253052,1,5.28138279914856,None,,,,,,,,,,,,,,,,,,233,2,2025-03-11_16h10.39.300,comp,2024.2.4,57.324921549546794,2025-03-11 16h10.55.060858 -0400,
22,22,0,critical,whd,20.0,2.1,lower,57.0,133.0,133.0,57.0,78.0,78.0,1,7.427128553390503,None,,,,,0,0,0,0,0,22,22,38,240.78687143325806,,,,,,,,,,,,,,,,,,,,,,,,,,,,,,,,,,,,,,,,,,,,,,,,,,,,,,,,,,,,,,,,,,,,,,,,,,,,,,,,,57.0,133.0,133.0,57.0,78.0,78.0,2.1,2.12,-191,-283,0,-256,164,263,240.77218294143677,240.7722578048706,240.7754249572754,240.78687143325806,240.92641735076904,240.92641735076904,240.92641735076904,240.92641735076904,240.92641735076904,240.92641735076904,240.92641735076904,248.22274541854858,1,7.427128553390503,None,,,,,,,,,,,,,,,,,,233,2,2025-03-11_16h10.39.300,comp,2024.2.4,57.324921549546794,2025-03-11 16h10.55.060858 -0400,
23,23,0,critical,dhw,20.0,2.1,lower,78.0,78.0,133.0,57.0,57.0,133.0,3,2.094066858291626,None,,,,,0,0,0,0,0,23,23,2,248.23934721946716,,,,,,,,,,,,,,,,,,,,,,,,,,,,,,,,,,,,,,,,,,,,,,,,,,,,,,,,,,,,,,,,,,,,,,,,,,,,,,,,,78.0,78.0,133.0,57.0,57.0,133.0,2.1,2.12,-164,-263,0,-265,191,270,248.224285364151,248.22436356544495,248.22759580612183,248.23934721946716,248.39402413368225,248.39402413368225,248.39402413368225,248.39402413368225,248.39402413368225,248.39402413368225,248.39402413368225,250.35077834129333,3,2.094066858291626,None,,,,,,,,,,,,,,,,,,233,2,2025-03-11_16h10.39.300,comp,2024.2.4,57.324921549546794,2025-03-11 16h10.55.060858 -0400,
24,24,0,filler_random,None,None,None,None,None,None,None,None,None,None,1,1.4922950267791748,None,,,,,0,0,0,0,0,24,24,155,250.36908078193665,,,,,,,,,,,,,,,,,,,,,,,,,,,,,,,,,,,,,,,,,,,,,,,,,,,,,,,,,,,,,,,,,,,,,,,,,,,,,,,,,197.39260283089817,190.99212573290487,143.29240280392867,185.44332366924743,177.73671959455,77.07194498121899,2.2,2.22,-284,281,0,-250,227,-278,250.35267281532288,250.35275864601135,250.35601949691772,250.36908078193665,250.51059317588806,250.51059317588806,250.51059317588806,250.51059317588806,250.51059317588806,250.51059317588806,250.51059317588806,251.87394428253174,1,1.4922950267791748,None,,,,,,,,,,,,,,,,,,233,2,2025-03-11_16h10.39.300,comp,2024.2.4,57.324921549546794,2025-03-11 16h10.55.060858 -0400,
25,25,0,filler_random,None,None,None,None,None,None,None,None,None,None,3,2.3229246139526367,None,,,,,0,0,0,0,0,25,25,146,251.89049172401428,,,,,,,,,,,,,,,,,,,,,,,,,,,,,,,,,,,,,,,,,,,,,,,,,,,,,,,,,,,,,,,,,,,,,,,,,,,,,,,,,75.28076331651879,174.16865155700194,118.04637553090154,64.11977958579075,174.80683462308235,120.39724697308056,2.1,2.12,-215,-260,0,-284,188,273,251.8756172657013,251.87569069862366,251.87898206710815,251.89049172401428,252.04148888587952,252.04148888587952,252.04148888587952,252.04148888587952,252.04148888587952,252.04148888587952,252.04148888587952,254.2268466949463,3,2.3229246139526367,None,,,,,,,,,,,,,,,,,,233,2,2025-03-11_16h10.39.300,comp,2024.2.4,57.324921549546794,2025-03-11 16h10.55.060858 -0400,
26,26,0,critical,dhw,35.0,2.1,lower,70.0,70.0,133.0,57.0,57.0,133.0,3,4.307431697845459,None,,,,,0,0,0,0,0,26,26,24,254.2426233291626,,,,,,,,,,,,,,,,,,,,,,,,,,,,,,,,,,,,,,,,,,,,,,,,,,,,,,,,,,,,,,,,,,,,,,,,,,,,,,,,,70.0,70.0,133.0,57.0,57.0,133.0,2.1,2.11,-160,250,0,278,191,-261,254.22851490974426,254.22859144210815,254.23224091529846,254.2426233291626,254.38086986541748,254.38086986541748,254.38086986541748,254.38086986541748,254.38086986541748,254.38086986541748,254.38086986541748,258.56097745895386,3,4.307431697845459,None,,,,,,,,,,,,,,,,,,233,2,2025-03-11_16h10.39.300,comp,2024.2.4,57.324921549546794,2025-03-11 16h10.55.060858 -0400,
27,27,0,filler_random,None,None,None,None,None,None,None,None,None,None,2,4.540017604827881,None,,,,,0,0,0,0,0,27,27,167,258.57733726501465,,,,,,,,,,,,,,,,,,,,,,,,,,,,,,,,,,,,,,,,,,,,,,,,,,,,,,,,,,,,,,,,,,,,,,,,,,,,,,,,,101.88027629349763,183.69263269213346,104.71592143219658,188.7244876462555,144.02111541966698,80.28097620595965,1.0,1.3,198,-253,480,-256,711,-259,258.5629360675812,258.563054561615,258.5664768218994,258.57733726501465,258.7359142303467,258.7359142303467,258.7359142303467,258.7359142303467,258.7359142303467,258.7359142303467,258.7359142303467,263.1275632381439,2,4.540017604827881,None,,,,,,,,,,,,,,,,,,233,2,2025-03-11_16h10.39.300,comp,2024.2.4,57.324921549546794,2025-03-11 16h10.55.060858 -0400,
28,28,0,critical,dhw,20.0,1.0,lower,78.0,78.0,133.0,57.0,57.0,133.0,2,5.173235893249512,None,,,,,0,0,0,0,0,28,28,54,263.1443090438843,,,,,,,,,,,,,,,,,,,,,,,,,,,,,,,,,,,,,,,,,,,,,,,,,,,,,,,,,,,,,,,,,,,,,,,,,,,,,,,,,78.0,78.0,133.0,57.0,57.0,133.0,1.0,1.1,-644,251,-480,289,-289,287,263.1291308403015,263.1292109489441,263.13237285614014,263.1443090438843,263.2943449020386,263.2943449020386,263.2943449020386,263.2943449020386,263.2943449020386,263.2943449020386,263.2943449020386,268.3341860771179,2,5.173235893249512,None,,,,,,,,,,,,,,,,,,233,2,2025-03-11_16h10.39.300,comp,2024.2.4,57.324921549546794,2025-03-11 16h10.55.060858 -0400,
29,29,0,filler_square,None,None,None,None,None,None,None,None,None,None,2,4.023608446121216,None,,,,,0,0,0,0,0,29,29,196,268.3502562046051,,,,,,,,,,,,,,,,,,,,,,,,,,,,,,,,,,,,,,,,,,,,,,,,,,,,,,,,,,,,,,,,,,,,,,,,,,,,,,,,,80.91283438081807,68.017357540065,81.8356982972731,81.8356982972731,59.97098190465767,59.782842530727244,3.0,3.1,-171,278,0,-8,167,-281,268.33621525764465,268.3362944126129,268.3399541378021,268.3502562046051,268.4963848590851,268.4963848590851,268.4963848590851,268.4963848590851,268.4963848590851,268.4963848590851,268.4963848590851,272.38432717323303,2,4.023608446121216,None,,,,,,,,,,,,,,,,,,233,2,2025-03-11_16h10.39.300,comp,2024.2.4,57.324921549546794,2025-03-11 16h10.55.060858 -0400,
30,30,0,filler_random,None,None,None,None,None,None,None,None,None,None,2,4.114954948425293,None,,,,,0,0,0,0,0,30,30,147,272.4032220840454,,,,,,,,,,,,,,,,,,,,,,,,,,,,,,,,,,,,,,,,,,,,,,,,,,,,,,,,,,,,,,,,,,,,,,,,,,,,,,,,,87.72624649254496,103.77129171122526,165.01512652205253,96.58415069558518,191.9535104811497,64.60950899557663,2.2,2.21,-196,-286,0,253,177,262,272.38662338256836,272.38672041893005,272.38972663879395,272.4032220840454,272.54857754707336,272.54857754707336,272.54857754707336,272.54857754707336,272.54857754707336,272.54857754707336,272.54857754707336,276.5248353481293,2,4.114954948425293,None,,,,,,,,,,,,,,,,,,233,2,2025-03-11_16h10.39.300,comp,2024.2.4,57.324921549546794,2025-03-11 16h10.55.060858 -0400,
31,31,0,filler_square,None,None,None,None,None,None,None,None,None,None,1,2.264266014099121,None,,,,,0,0,0,0,0,31,31,209,276.54107213020325,,,,,,,,,,,,,,,,,,,,,,,,,,,,,,,,,,,,,,,,,,,,,,,,,,,,,,,,,,,,,,,,,,,,,,,,,,,,,,,,,113.18566825489768,113.18566825489768,60.166992447089676,59.05598539020878,75.5118930473944,63.30383990900596,2.2,2.22,-182,256,0,-278,157,-256,276.52682542800903,276.5269105434418,276.53025364875793,276.54107213020325,276.68253564834595,276.68253564834595,276.68253564834595,276.68253564834595,276.68253564834595,276.68253564834595,276.68253564834595,278.8158805370331,1,2.264266014099121,None,,,,,,,,,,,,,,,,,,233,2,2025-03-11_16h10.39.300,comp,2024.2.4,57.324921549546794,2025-03-11 16h10.55.060858 -0400,
32,32,0,critical,wdh,35.0,3.0,upper,125.0,200.0,127.0,127.0,200.0,125.0,1,7.811176776885986,None,,,,,0,0,0,0,0,32,32,75,278.8426265716553,,,,,,,,,,,,,,,,,,,,,,,,,,,,,,,,,,,,,,,,,,,,,,,,,,,,,,,,,,,,,,,,,,,,,,,,,,,,,,,,,125.0,200.0,127.0,127.0,200.0,125.0,3.0,3.1,-260,275,0,-6,222,-255,278.8174958229065,278.8175790309906,278.8209936618805,278.8426265716553,278.9837634563446,278.9837634563446,278.9837634563446,278.9837634563446,278.9837634563446,278.9837634563446,278.9837634563446,286.65939378738403,1,7.811176776885986,None,,,,,,,,,,,,,,,,,,233,2,2025-03-11_16h10.39.300,comp,2024.2.4,57.324921549546794,2025-03-11 16h10.55.060858 -0400,
33,33,0,filler_square,None,None,None,None,None,None,None,None,None,None,3,2.13858699798584,None,,,,,0,0,0,0,0,33,33,205,286.6751880645752,,,,,,,,,,,,,,,,,,,,,,,,,,,,,,,,,,,,,,,,,,,,,,,,,,,,,,,,,,,,,,,,,,,,,,,,,,,,,,,,,125.93579507079878,113.71921500909195,105.67161652580704,92.69917764299352,135.69446627632254,135.69446627632254,2.1,2.12,-199,-258,0,-281,210,273,286.6612458229065,286.6613259315491,286.6642894744873,286.6751880645752,286.81933879852295,286.81933879852295,286.81933879852295,286.81933879852295,286.81933879852295,286.81933879852295,286.81933879852295,288.82548475265503,3,2.13858699798584,None,,,,,,,,,,,,,,,,,,233,2,2025-03-11_16h10.39.300,comp,2024.2.4,57.324921549546794,2025-03-11 16h10.55.060858 -0400,
34,34,0,filler_random,None,None,None,None,None,None,None,None,None,None,3,3.7591826915740967,None,,,,,0,0,0,0,0,34,34,134,288.84618163108826,,,,,,,,,,,,,,,,,,,,,,,,,,,,,,,,,,,,,,,,,,,,,,,,,,,,,,,,,,,,,,,,,,,,,,,,,,,,,,,,,105.86755405112248,64.59931644791558,69.93034346279633,93.76003852785264,61.66517374645871,181.598029238388,2.1,2.11,-175,252,0,282,234,-276,288.82732105255127,288.82739901542664,288.8304009437561,288.84618163108826,288.9842252731323,288.9842252731323,288.9842252731323,288.9842252731323,288.9842252731323,288.9842252731323,288.9842252731323,292.62108755111694,3,3.7591826915740967,None,,,,,,,,,,,,,,,,,,233,2,2025-03-11_16h10.39.300,comp,2024.2.4,57.324921549546794,2025-03-11 16h10.55.060858 -0400,
35,35,0,critical,hdw,20.0,2.1,lower,133.0,57.0,78.0,78.0,57.0,133.0,3,9.712321519851685,None,,,,,0,0,0,0,0,35,35,46,292.637175321579,,,,,,,,,,,,,,,,,,,,,,,,,,,,,,,,,,,,,,,,,,,,,,,,,,,,,,,,,,,,,,,,,,,,,,,,,,,,,,,,,133.0,57.0,78.0,78.0,57.0,133.0,2.1,2.11,-164,289,0,252,202,-277,292.62285566329956,292.62299609184265,292.6265444755554,292.637175321579,292.7867591381073,292.7867591381073,292.7867591381073,292.7867591381073,292.7867591381073,292.7867591381073,292.7867591381073,302.3554322719574,3,9.712321519851685,None,,,,,,,,,,,,,,,,,,233,2,2025-03-11_16h10.39.300,comp,2024.2.4,57.324921549546794,2025-03-11 16h10.55.060858 -0400,
36,36,0,critical,dhw,35.0,2.1,upper,127.0,127.0,200.0,125.0,125.0,200.0,3,3.3843564987182617,None,,,,,0,0,0,0,0,36,36,1,302.3738582134247,,,,,,,,,,,,,,,,,,,,,,,,,,,,,,,,,,,,,,,,,,,,,,,,,,,,,,,,,,,,,,,,,,,,,,,,,,,,,,,,,127.0,127.0,200.0,125.0,125.0,200.0,2.1,2.12,-222,-277,0,-274,258,266,302.35644364356995,302.35648798942566,302.35836696624756,302.3738582134247,302.5069251060486,302.5069251060486,302.5069251060486,302.5069251060486,302.5069251060486,302.5069251060486,302.5069251060486,305.76517033576965,3,3.3843564987182617,None,,,,,,,,,,,,,,,,,,233,2,2025-03-11_16h10.39.300,comp,2024.2.4,57.324921549546794,2025-03-11 16h10.55.060858 -0400,
37,37,0,filler_square,None,None,None,None,None,None,None,None,None,None,3,3.5720205307006836,None,,,,,0,0,0,0,0,37,37,185,305.78584814071655,,,,,,,,,,,,,,,,,,,,,,,,,,,,,,,,,,,,,,,,,,,,,,,,,,,,,,,,,,,,,,,,,,,,,,,,,,,,,,,,,64.51284222533671,62.8306080328236,60.013639982830426,61.799474657053594,64.89637057452333,64.89637057452333,3.0,3.1,-158,280,0,-11,159,-270,305.7669894695282,305.76706886291504,305.770094871521,305.78584814071655,305.92622208595276,305.92622208595276,305.92622208595276,305.92622208595276,305.92622208595276,305.92622208595276,305.92622208595276,309.3684673309326,3,3.5720205307006836,None,,,,,,,,,,,,,,,,,,233,2,2025-03-11_16h10.39.300,comp,2024.2.4,57.324921549546794,2025-03-11 16h10.55.060858 -0400,
38,38,0,critical,dwh,20.0,2.1,lower,78.0,78.0,57.0,133.0,133.0,57.0,3,5.1789329051971436,None,,,,,0,0,0,0,0,38,38,6,309.38634610176086,,,,,,,,,,,,,,,,,,,,,,,,,,,,,,,,,,,,,,,,,,,,,,,,,,,,,,,,,,,,,,,,,,,,,,,,,,,,,,,,,78.0,78.0,57.0,133.0,133.0,57.0,2.1,2.11,-202,277,0,258,191,-254,309.3699948787689,309.3700737953186,309.3730528354645,309.38634610176086,309.5265715122223,309.5265715122223,309.5265715122223,309.5265715122223,309.5265715122223,309.5265715122223,309.5265715122223,314.57657742500305,3,5.1789329051971436,None,,,,,,,,,,,,,,,,,,233,2,2025-03-11_16h10.39.300,comp,2024.2.4,57.324921549546794,2025-03-11 16h10.55.060858 -0400,
39,39,0,critical,dwh,35.0,1.0,upper,127.0,127.0,125.0,200.0,200.0,125.0,2,8.028709173202515,None,,,,,0,0,0,0,0,39,39,61,314.593380689621,,,,,,,,,,,,,,,,,,,,,,,,,,,,,,,,,,,,,,,,,,,,,,,,,,,,,,,,,,,,,,,,,,,,,,,,,,,,,,,,,127.0,127.0,125.0,200.0,200.0,125.0,1.0,1.3,220,-279,480,-253,738,-273,314.57814717292786,314.5782268047333,314.5814163684845,314.593380689621,314.733989238739,314.733989238739,314.733989238739,314.733989238739,314.733989238739,314.733989238739,314.733989238739,322.63223123550415,2,8.028709173202515,None,,,,,,,,,,,,,,,,,,233,2,2025-03-11_16h10.39.300,comp,2024.2.4,57.324921549546794,2025-03-11 16h10.55.060858 -0400,
40,40,0,critical,hwd,20.0,1.0,lower,133.0,57.0,57.0,133.0,78.0,78.0,2,2.228083372116089,None,,,,,0,0,0,0,0,40,40,102,322.649391412735,,,,,,,,,,,,,,,,,,,,,,,,,,,,,,,,,,,,,,,,,,,,,,,,,,,,,,,,,,,,,,,,,,,,,,,,,,,,,,,,,133.0,57.0,57.0,133.0,78.0,78.0,1.0,1.1,-671,260,-480,283,-278,266,322.6339294910431,322.63400959968567,322.63771772384644,322.649391412735,322.79680728912354,322.79680728912354,322.79680728912354,322.79680728912354,322.79680728912354,322.79680728912354,322.79680728912354,324.8812303543091,2,2.228083372116089,None,,,,,,,,,,,,,,,,,,233,2,2025-03-11_16h10.39.300,comp,2024.2.4,57.324921549546794,2025-03-11 16h10.55.060858 -0400,
41,41,0,critical,whd,35.0,4.0,upper,125.0,200.0,200.0,125.0,127.0,127.0,1,2.124277353286743,None,,,,,0,0,0,0,0,41,41,89,324.8970766067505,,,,,,,,,,,,,,,,,,,,,,,,,,,,,,,,,,,,,,,,,,,,,,,,,,,,,,,,,,,,,,,,,,,,,,,,,,,,,,,,,125.0,200.0,200.0,125.0,127.0,127.0,4.0,4.2,-258,-17,0,-273,222,16,324.88269996643066,324.88277554512024,324.8863308429718,324.8970766067505,325.0476424694061,325.0476424694061,325.0476424694061,325.0476424694061,325.0476424694061,325.0476424694061,325.0476424694061,327.03101444244385,1,2.124277353286743,None,,,,,,,,,,,,,,,,,,233,2,2025-03-11_16h10.39.300,comp,2024.2.4,57.324921549546794,2025-03-11 16h10.55.060858 -0400,
42,42,0,filler_square,None,None,None,None,None,None,None,None,None,None,3,4.133753776550293,None,,,,,0,0,0,0,0,42,42,198,327.04769468307495,,,,,,,,,,,,,,,,,,,,,,,,,,,,,,,,,,,,,,,,,,,,,,,,,,,,,,,,,,,,,,,,,,,,,,,,,,,,,,,,,90.0786277888295,81.28077793716619,139.60485109210651,140.38261101951187,150.24161430705516,150.24161430705516,2.1,2.12,-207,-281,0,-280,241,282,327.03273606300354,327.0328345298767,327.0359528064728,327.04769468307495,327.1990809440613,327.1990809440613,327.1990809440613,327.1990809440613,327.1990809440613,327.1990809440613,327.1990809440613,331.1851167678833,3,4.133753776550293,None,,,,,,,,,,,,,,,,,,233,2,2025-03-11_16h10.39.300,comp,2024.2.4,57.324921549546794,2025-03-11 16h10.55.060858 -0400,
43,43,0,catch,None,None,None,None,None,None,None,None,None,None,3,1.3646438121795654,None,,,,,0,0,0,0,0,43,43,127,331.20120072364807,,,,,,,,,,,,,,,,,,,,,,,,,,,,,,,,,,,,,,,,,,,,,,,,,,,,,,,,,,,,,,,,,,,,,,,,,,,,,,,,,92,98,121,69,151,174,1.0,1.1,-660,254,-480,266,-262,270,331.1872239112854,331.187304019928,331.1904327869415,331.20120072364807,331.3521544933319,331.3521544933319,331.3521544933319,331.3521544933319,331.3521544933319,331.3521544933319,331.3521544933319,332.56768465042114,3,1.3646438121795654,None,,,,,,,,,,,,,,,,,,233,2,2025-03-11_16h10.39.300,comp,2024.2.4,57.324921549546794,2025-03-11 16h10.55.060858 -0400,
44,44,0,critical,dwh,20.0,2.1,upper,141.0,141.0,125.0,200.0,200.0,125.0,2,13.332886219024658,None,,,,,0,0,0,0,0,44,44,31,332.58451104164124,,,,,,,,,,,,,,,,,,,,,,,,,,,,,,,,,,,,,,,,,,,,,,,,,,,,,,,,,,,,,,,,,,,,,,,,,,,,,,,,,141.0,141.0,125.0,200.0,200.0,125.0,2.1,2.12,-266,-288,0,-274,258,253,332.5692958831787,332.5693736076355,332.5727515220642,332.58451104164124,332.733695268631,332.733695268631,332.733695268631,332.733695268631,332.733695268631,332.733695268631,332.733695268631,345.93284702301025,2,13.332886219024658,None,,,,,,,,,,,,,,,,,,233,2,2025-03-11_16h10.39.300,comp,2024.2.4,57.324921549546794,2025-03-11 16h10.55.060858 -0400,
45,45,0,critical,whd,35.0,3.0,lower,57.0,133.0,133.0,57.0,70.0,70.0,2,5.275615215301514,None,,,,,0,0,0,0,0,45,45,86,345.95365834236145,,,,,,,,,,,,,,,,,,,,,,,,,,,,,,,,,,,,,,,,,,,,,,,,,,,,,,,,,,,,,,,,,,,,,,,,,,,,,,,,,57.0,133.0,133.0,57.0,70.0,70.0,3.0,3.1,-191,261,0,3,160,-251,345.93441224098206,345.9344892501831,345.9378983974457,345.95365834236145,346.0880038738251,346.0880038738251,346.0880038738251,346.0880038738251,346.0880038738251,346.0880038738251,346.0880038738251,351.2391839027405,2,5.275615215301514,None,,,,,,,,,,,,,,,,,,233,2,2025-03-11_16h10.39.300,comp,2024.2.4,57.324921549546794,2025-03-11 16h10.55.060858 -0400,
46,46,0,filler_square,None,None,None,None,None,None,None,None,None,None,1,1.4778871536254883,None,,,,,0,0,0,0,0,46,46,187,351.25622272491455,,,,,,,,,,,,,,,,,,,,,,,,,,,,,,,,,,,,,,,,,,,,,,,,,,,,,,,,,,,,,,,,,,,,,,,,,,,,,,,,,199.31852814158242,199.31852814158242,99.70111993516201,65.2962620792421,89.87823922025277,163.0398695596769,1.0,1.3,252,-266,480,-279,690,-267,351.2412443161011,351.241322517395,351.2448935508728,351.25622272491455,351.411465883255,351.411465883255,351.411465883255,351.411465883255,351.411465883255,351.411465883255,351.411465883255,352.74159121513367,1,1.4778871536254883,None,,,,,,,,,,,,,,,,,,233,2,2025-03-11_16h10.39.300,comp,2024.2.4,57.324921549546794,2025-03-11 16h10.55.060858 -0400,
47,47,0,critical,whd,35.0,1.0,upper,125.0,200.0,200.0,125.0,127.0,127.0,1,3.559974431991577,None,,,,,0,0,0,0,0,47,47,85,352.7580587863922,,,,,,,,,,,,,,,,,,,,,,,,,,,,,,,,,,,,,,,,,,,,,,,,,,,,,,,,,,,,,,,,,,,,,,,,,,,,,,,,,125.0,200.0,200.0,125.0,127.0,127.0,1.0,1.1,-738,279,-480,277,-258,269,352.74340987205505,352.74352526664734,352.7474162578583,352.7580587863922,352.907080411911,352.907080411911,352.907080411911,352.907080411911,352.907080411911,352.907080411911,352.907080411911,356.3224277496338,1,3.559974431991577,None,,,,,,,,,,,,,,,,,,233,2,2025-03-11_16h10.39.300,comp,2024.2.4,57.324921549546794,2025-03-11 16h10.55.060858 -0400,
48,48,0,critical,dwh,20.0,4.0,upper,141.0,141.0,125.0,200.0,200.0,125.0,2,7.970510005950928,None,,,,,0,0,0,0,0,48,48,71,356.33900237083435,,,,,,,,,,,,,,,,,,,,,,,,,,,,,,,,,,,,,,,,,,,,,,,,,,,,,,,,,,,,,,,,,,,,,,,,,,,,,,,,,141.0,141.0,125.0,200.0,200.0,125.0,4.0,4.1,-266,-281,0,-7,258,-284,356.3239543437958,356.3240306377411,356.3269486427307,356.33900237083435,356.49209213256836,356.49209213256836,356.49209213256836,356.49209213256836,356.49209213256836,356.49209213256836,356.49209213256836,364.3274824619293,2,7.970510005950928,None,,,,,,,,,,,,,,,,,,233,2,2025-03-11_16h10.39.300,comp,2024.2.4,57.324921549546794,2025-03-11 16h10.55.060858 -0400,
49,49,0,filler_random,None,None,None,None,None,None,None,None,None,None,3,15.340882062911987,None,,,,,0,0,0,0,0,49,49,151,364.3444998264313,,,,,,,,,,,,,,,,,,,,,,,,,,,,,,,,,,,,,,,,,,,,,,,,,,,,,,,,,,,,,,,,,,,,,,,,,,,,,,,,,195.47489668246868,59.722130277435696,113.51004455927074,154.9232035441658,133.03117739614743,138.38447666011342,2.2,2.22,-203,286,0,-255,243,-285,364.3292591571808,364.32933235168457,364.3330514431,364.3444998264313,364.4971237182617,364.4971237182617,364.4971237182617,364.4971237182617,364.4971237182617,364.4971237182617,364.4971237182617,379.6998267173767,3,15.340882062911987,None,,,,,,,,,,,,,,,,,,233,2,2025-03-11_16h10.39.300,comp,2024.2.4,57.324921549546794,2025-03-11 16h10.55.060858 -0400,
50,50,0,critical,hwd,35.0,4.0,lower,133.0,57.0,57.0,133.0,70.0,70.0,1,5.995922088623047,None,,,,,0,0,0,0,0,50,50,100,379.7142469882965,,,,,,,,,,,,,,,,,,,,,,,,,,,,,,,,,,,,,,,,,,,,,,,,,,,,,,,,,,,,,,,,,,,,,,,,,,,,,,,,,133.0,57.0,57.0,133.0,70.0,70.0,4.0,4.1,-191,-284,0,-10,198,-289,379.7014584541321,379.7015881538391,379.7047162055969,379.7142469882965,379.8644914627075,379.8644914627075,379.8644914627075,379.8644914627075,379.8644914627075,379.8644914627075,379.8644914627075,385.7155194282532,1,5.995922088623047,None,,,,,,,,,,,,,,,,,,233,2,2025-03-11_16h10.39.300,comp,2024.2.4,57.324921549546794,2025-03-11 16h10.55.060858 -0400,
51,51,0,critical,wdh,20.0,2.1,lower,57.0,133.0,78.0,78.0,133.0,57.0,1,5.545501232147217,None,,,,,0,0,0,0,0,51,51,34,385.7318823337555,,,,,,,,,,,,,,,,,,,,,,,,,,,,,,,,,,,,,,,,,,,,,,,,,,,,,,,,,,,,,,,,,,,,,,,,,,,,,,,,,57.0,133.0,78.0,78.0,133.0,57.0,2.1,2.12,-202,-287,0,-281,164,287,385.7170469760895,385.71712470054626,385.7200655937195,385.7318823337555,385.87050437927246,385.87050437927246,385.87050437927246,385.87050437927246,385.87050437927246,385.87050437927246,385.87050437927246,391.29110956192017,1,5.545501232147217,None,,,,,,,,,,,,,,,,,,233,2,2025-03-11_16h10.39.300,comp,2024.2.4,57.324921549546794,2025-03-11 16h10.55.060858 -0400,
52,52,0,catch,None,None,None,None,None,None,None,None,None,None,2,1.8135085105895996,None,,,,,0,0,0,0,0,52,52,129,391.3119099140167,,,,,,,,,,,,,,,,,,,,,,,,,,,,,,,,,,,,,,,,,,,,,,,,,,,,,,,,,,,,,,,,,,,,,,,,,,,,,,,,,87,103,147,178,64,126,2.1,2.12,-236,-261,0,-269,248,254,391.2931652069092,391.2932424545288,391.2965772151947,391.3119099140167,391.44872188568115,391.44872188568115,391.44872188568115,391.44872188568115,391.44872188568115,391.44872188568115,391.44872188568115,393.1357681751251,2,1.8135085105895996,None,,,,,,,,,,,,,,,,,,233,2,2025-03-11_16h10.39.300,comp,2024.2.4,57.324921549546794,2025-03-11 16h10.55.060858 -0400,
53,53,0,critical,dwh,35.0,2.1,lower,70.0,70.0,57.0,133.0,133.0,57.0,2,2.678464889526367,None,,,,,0,0,0,0,0,53,53,28,393.1508665084839,,,,,,,,,,,,,,,,,,,,,,,,,,,,,,,,,,,,,,,,,,,,,,,,,,,,,,,,,,,,,,,,,,,,,,,,,,,,,,,,,70.0,70.0,57.0,133.0,133.0,57.0,2.1,2.11,-198,266,0,286,191,-263,393.13750171661377,393.13762736320496,393.13987612724304,393.1508665084839,393.30109548568726,393.30109548568726,393.30109548568726,393.30109548568726,393.30109548568726,393.30109548568726,393.30109548568726,395.8406434059143,2,2.678464889526367,None,,,,,,,,,,,,,,,,,,233,2,2025-03-11_16h10.39.300,comp,2024.2.4,57.324921549546794,2025-03-11 16h10.55.060858 -0400,
54,54,0,critical,dhw,35.0,3.0,upper,127.0,127.0,200.0,125.0,125.0,200.0,2,5.493081569671631,None,,,,,0,0,0,0,0,54,54,51,395.85686206817627,,,,,,,,,,,,,,,,,,,,,,,,,,,,,,,,,,,,,,,,,,,,,,,,,,,,,,,,,,,,,,,,,,,,,,,,,,,,,,,,,127.0,127.0,200.0,125.0,125.0,200.0,3.0,3.2,-222,-257,0,1,258,266,395.8423705101013,395.8424470424652,395.84538102149963,395.85686206817627,396.0034189224243,396.0034189224243,396.0034189224243,396.0034189224243,396.0034189224243,396.0034189224243,396.0034189224243,401.35497760772705,2,5.493081569671631,None,,,,,,,,,,,,,,,,,,233,2,2025-03-11_16h10.39.300,comp,2024.2.4,57.324921549546794,2025-03-11 16h10.55.060858 -0400,
55,55,0,critical,hwd,20.0,1.0,upper,200.0,125.0,125.0,200.0,141.0,141.0,2,44.08270001411438,None,,,,,0,0,0,0,0,55,55,103,401.37065529823303,,,,,,,,,,,,,,,,,,,,,,,,,,,,,,,,,,,,,,,,,,,,,,,,,,,,,,,,,,,,,,,,,,,,,,,,,,,,,,,,,200.0,125.0,125.0,200.0,141.0,141.0,1.0,1.2,-258,-12,0,4,266,2,401.3563938140869,401.3564693927765,401.35998034477234,401.37065529823303,401.5201518535614,401.5201518535614,401.5201518535614,401.5201518535614,401.5201518535614,401.5201518535614,401.5201518535614,445.4686954021454,2,44.08270001411438,None,,,,,,,,,,,,,,,,,,233,2,2025-03-11_16h10.39.300,comp,2024.2.4,57.324921549546794,2025-03-11 16h10.55.060858 -0400,
56,56,0,critical,whd,35.0,2.1,upper,125.0,200.0,200.0,125.0,127.0,127.0,1,2.952108860015869,None,,,,,0,0,0,0,0,56,56,37,445.4851279258728,,,,,,,,,,,,,,,,,,,,,,,,,,,,,,,,,,,,,,,,,,,,,,,,,,,,,,,,,,,,,,,,,,,,,,,,,,,,,,,,,125.0,200.0,200.0,125.0,127.0,127.0,2.1,2.12,-258,-262,0,-256,222,276,445.4703207015991,445.470397233963,445.4738709926605,445.4851279258728,445.63432335853577,445.63432335853577,445.63432335853577,445.63432335853577,445.63432335853577,445.63432335853577,445.63432335853577,448.452849149704,1,2.952108860015869,None,,,,,,,,,,,,,,,,,,233,2,2025-03-11_16h10.39.300,comp,2024.2.4,57.324921549546794,2025-03-11 16h10.55.060858 -0400,
57,57,0,filler_square,None,None,None,None,None,None,None,None,None,None,3,1.8572394847869873,None,,,,,0,0,0,0,0,57,57,190,448.4689688682556,,,,,,,,,,,,,,,,,,,,,,,,,,,,,,,,,,,,,,,,,,,,,,,,,,,,,,,,,,,,,,,,,,,,,,,,,,,,,,,,,97.76659403836206,67.59595379905903,90.97997468457231,145.19134231141476,190.99186833835307,190.99186833835307,2.1,2.12,-202,-267,0,-256,264,275,448.4550051689148,448.4550840854645,448.4586982727051,448.4689688682556,448.62027955055237,448.62027955055237,448.62027955055237,448.62027955055237,448.62027955055237,448.62027955055237,448.62027955055237,450.33729219436646,3,1.8572394847869873,None,,,,,,,,,,,,,,,,,,233,2,2025-03-11_16h10.39.300,comp,2024.2.4,57.324921549546794,2025-03-11 16h10.55.060858 -0400,
58,58,0,critical,whd,20.0,2.1,upper,125.0,200.0,200.0,125.0,141.0,141.0,1,2.49360728263855,None,,,,,0,0,0,0,0,58,58,15,450.3516049385071,,,,,,,,,,,,,,,,,,,,,,,,,,,,,,,,,,,,,,,,,,,,,,,,,,,,,,,,,,,,,,,,,,,,,,,,,,,,,,,,,125.0,200.0,200.0,125.0,141.0,141.0,2.1,2.12,-258,-259,0,-266,229,287,450.3387701511383,450.33888387680054,450.3421289920807,450.3516049385071,450.5061204433441,450.5061204433441,450.5061204433441,450.5061204433441,450.5061204433441,450.5061204433441,450.5061204433441,452.85447335243225,1,2.49360728263855,None,,,,,,,,,,,,,,,,,,233,2,2025-03-11_16h10.39.300,comp,2024.2.4,57.324921549546794,2025-03-11 16h10.55.060858 -0400,
59,59,0,critical,whd,35.0,4.0,lower,57.0,133.0,133.0,57.0,70.0,70.0,2,1.9349431991577148,None,,,,,0,0,0,0,0,59,59,88,452.8703682422638,,,,,,,,,,,,,,,,,,,,,,,,,,,,,,,,,,,,,,,,,,,,,,,,,,,,,,,,,,,,,,,,,,,,,,,,,,,,,,,,,57.0,133.0,133.0,57.0,70.0,70.0,4.0,4.1,-191,-271,0,19,160,-281,452.8560130596161,452.8560893535614,452.8595690727234,452.8703682422638,453.0190212726593,453.0190212726593,453.0190212726593,453.0190212726593,453.0190212726593,453.0190212726593,453.0190212726593,454.82119488716125,2,1.9349431991577148,None,,,,,,,,,,,,,,,,,,233,2,2025-03-11_16h10.39.300,comp,2024.2.4,57.324921549546794,2025-03-11 16h10.55.060858 -0400,
60,60,0,filler_square,None,None,None,None,None,None,None,None,None,None,3,2.1413002014160156,None,,,,,0,0,0,0,0,60,60,200,454.83995509147644,,,,,,,,,,,,,,,,,,,,,,,,,,,,,,,,,,,,,,,,,,,,,,,,,,,,,,,,,,,,,,,,,,,,,,,,,,,,,,,,,128.50860101598522,141.84438466373257,142.239903304743,150.8070708684371,161.92507846468357,161.92507846468357,4.0,4.2,-242,-12,0,-257,252,-15,454.8229525089264,454.82302737236023,454.8263096809387,454.83995509147644,454.9930839538574,454.9930839538574,454.9930839538574,454.9930839538574,454.9930839538574,454.9930839538574,454.9930839538574,456.9998471736908,3,2.1413002014160156,None,,,,,,,,,,,,,,,,,,233,2,2025-03-11_16h10.39.300,comp,2024.2.4,57.324921549546794,2025-03-11 16h10.55.060858 -0400,
61,61,0,critical,hwd,35.0,2.1,lower,133.0,57.0,57.0,133.0,70.0,70.0,2,3.113825798034668,None,,,,,0,0,0,0,0,61,61,16,457.0200867652893,,,,,,,,,,,,,,,,,,,,,,,,,,,,,,,,,,,,,,,,,,,,,,,,,,,,,,,,,,,,,,,,,,,,,,,,,,,,,,,,,133.0,57.0,57.0,133.0,70.0,70.0,2.1,2.12,-191,-275,0,-253,198,284,457.00142526626587,457.00149869918823,457.0048167705536,457.0200867652893,457.156507730484,457.156507730484,457.156507730484,457.156507730484,457.156507730484,457.156507730484,457.156507730484,460.1420338153839,2,3.113825798034668,None,,,,,,,,,,,,,,,,,,233,2,2025-03-11_16h10.39.300,comp,2024.2.4,57.324921549546794,2025-03-11 16h10.55.060858 -0400,
62,62,0,filler_random,None,None,None,None,None,None,None,None,None,None,1,1.6396541595458984,None,,,,,0,0,0,0,0,62,62,169,460.15843987464905,,,,,,,,,,,,,,,,,,,,,,,,,,,,,,,,,,,,,,,,,,,,,,,,,,,,,,,,,,,,,,,,,,,,,,,,,,,,,,,,,182.67861515228785,155.57910256786377,143.4307913782815,152.91333455933344,111.54264619962325,158.74391324642616,2.2,2.21,-250,-261,0,269,252,279,460.14398097991943,460.14410972595215,460.1475646495819,460.15843987464905,460.305438041687,460.305438041687,460.305438041687,460.305438041687,460.305438041687,460.305438041687,460.305438041687,461.8084168434143,1,1.6396541595458984,None,,,,,,,,,,,,,,,,,,233,2,2025-03-11_16h10.39.300,comp,2024.2.4,57.324921549546794,2025-03-11 16h10.55.060858 -0400,
63,63,0,critical,dwh,20.0,3.0,upper,141.0,141.0,125.0,200.0,200.0,125.0,2,4.76521110534668,None,,,,,0,0,0,0,0,63,63,69,461.8241662979126,,,,,,,,,,,,,,,,,,,,,,,,,,,,,,,,,,,,,,,,,,,,,,,,,,,,,,,,,,,,,,,,,,,,,,,,,,,,,,,,,141.0,141.0,125.0,200.0,200.0,125.0,3.0,3.1,-266,259,0,7,258,-264,461.8099582195282,461.81005454063416,461.8135025501251,461.8241662979126,461.97400975227356,461.97400975227356,461.97400975227356,461.97400975227356,461.97400975227356,461.97400975227356,461.97400975227356,466.59294390678406,2,4.76521110534668,None,,,,,,,,,,,,,,,,,,233,2,2025-03-11_16h10.39.300,comp,2024.2.4,57.324921549546794,2025-03-11 16h10.55.060858 -0400,
64,64,0,critical,whd,20.0,3.0,lower,57.0,133.0,133.0,57.0,78.0,78.0,2,4.380105972290039,None,,,,,0,0,0,0,0,64,64,92,466.6094489097595,,,,,,,,,,,,,,,,,,,,,,,,,,,,,,,,,,,,,,,,,,,,,,,,,,,,,,,,,,,,,,,,,,,,,,,,,,,,,,,,,57.0,133.0,133.0,57.0,78.0,78.0,3.0,3.2,-191,-263,0,5,164,253,466.5945289134979,466.5946090221405,466.5987048149109,466.6094489097595,466.76322317123413,466.76322317123413,466.76322317123413,466.76322317123413,466.76322317123413,466.76322317123413,466.76322317123413,471.00957560539246,2,4.380105972290039,None,,,,,,,,,,,,,,,,,,233,2,2025-03-11_16h10.39.300,comp,2024.2.4,57.324921549546794,2025-03-11 16h10.55.060858 -0400,
65,65,0,filler_square,None,None,None,None,None,None,None,None,None,None,3,2.355133056640625,None,,,,,0,0,0,0,0,65,65,183,471.0262339115143,,,,,,,,,,,,,,,,,,,,,,,,,,,,,,,,,,,,,,,,,,,,,,,,,,,,,,,,,,,,,,,,,,,,,,,,,,,,,,,,,136.16683234735933,129.45019103622454,128.54061666022943,75.48281787831304,149.0210038647195,149.0210038647195,2.1,2.11,-198,282,0,284,208,-284,471.011666059494,471.0117452144623,471.0153467655182,471.0262339115143,471.181921005249,471.181921005249,471.181921005249,471.181921005249,471.181921005249,471.181921005249,471.181921005249,473.39426445961,3,2.355133056640625,None,,,,,,,,,,,,,,,,,,233,2,2025-03-11_16h10.39.300,comp,2024.2.4,57.324921549546794,2025-03-11 16h10.55.060858 -0400,
66,66,0,critical,dhw,20.0,2.1,upper,141.0,141.0,200.0,125.0,125.0,200.0,3,7.187688112258911,None,,,,,0,0,0,0,0,66,66,27,473.4095571041107,,,,,,,,,,,,,,,,,,,,,,,,,,,,,,,,,,,,,,,,,,,,,,,,,,,,,,,,,,,,,,,,,,,,,,,,,,,,,,,,,141.0,141.0,200.0,125.0,125.0,200.0,2.1,2.11,-229,253,0,266,258,-268,473.3957426548004,473.3958442211151,473.3992483615875,473.4095571041107,473.5651454925537,473.5651454925537,473.5651454925537,473.5651454925537,473.5651454925537,473.5651454925537,473.5651454925537,480.61271047592163,3,7.187688112258911,None,,,,,,,,,,,,,,,,,,233,2,2025-03-11_16h10.39.300,comp,2024.2.4,57.324921549546794,2025-03-11 16h10.55.060858 -0400,
67,67,0,filler_random,None,None,None,None,None,None,None,None,None,None,2,2.600982189178467,None,,,,,0,0,0,0,0,67,67,156,480.62829399108887,,,,,,,,,,,,,,,,,,,,,,,,,,,,,,,,,,,,,,,,,,,,,,,,,,,,,,,,,,,,,,,,,,,,,,,,,,,,,,,,,101.43446139162513,113.8978966033508,171.35436423610847,126.11452620574065,76.75101302456231,95.36259200690587,2.1,2.12,-216,-253,0,-283,207,263,480.6144242286682,480.61449813842773,480.6174211502075,480.62829399108887,480.78459072113037,480.78459072113037,480.78459072113037,480.78459072113037,480.78459072113037,480.78459072113037,480.78459072113037,483.2471389770508,2,2.600982189178467,None,,,,,,,,,,,,,,,,,,233,2,2025-03-11_16h10.39.300,comp,2024.2.4,57.324921549546794,2025-03-11 16h10.55.060858 -0400,
68,68,0,filler_square,None,None,None,None,None,None,None,None,None,None,1,3.053422212600708,None,,,,,0,0,0,0,0,68,68,193,483.2637686729431,,,,,,,,,,,,,,,,,,,,,,,,,,,,,,,,,,,,,,,,,,,,,,,,,,,,,,,,,,,,,,,,,,,,,,,,,,,,,,,,,100.33753904668602,100.33753904668602,98.38707522733904,72.50440074992453,76.62624081267161,98.30074548809324,2.2,2.21,-182,-264,0,273,181,256,483.2490062713623,483.24908351898193,483.25238156318665,483.2637686729431,483.41835594177246,483.41835594177246,483.41835594177246,483.41835594177246,483.41835594177246,483.41835594177246,483.41835594177246,486.3311724662781,1,3.053422212600708,None,,,,,,,,,,,,,,,,,,233,2,2025-03-11_16h10.39.300,comp,2024.2.4,57.324921549546794,2025-03-11 16h10.55.060858 -0400,
69,69,0,filler_square,None,None,None,None,None,None,None,None,None,None,3,1.9619579315185547,None,,,,,0,0,0,0,0,69,69,179,486.34765672683716,,,,,,,,,,,,,,,,,,,,,,,,,,,,,,,,,,,,,,,,,,,,,,,,,,,,,,,,,,,,,,,,,,,,,,,,,,,,,,,,,96.25449539990561,155.16406653713722,152.22633976970764,105.80441524212873,158.71573092622498,158.71573092622498,1.0,1.1,-706,282,-480,280,-252,251,486.33322405815125,486.3333055973053,486.3366639614105,486.34765672683716,486.4983904361725,486.4983904361725,486.4983904361725,486.4983904361725,486.4983904361725,486.4983904361725,486.4983904361725,488.3181607723236,3,1.9619579315185547,None,,,,,,,,,,,,,,,,,,233,2,2025-03-11_16h10.39.300,comp,2024.2.4,57.324921549546794,2025-03-11 16h10.55.060858 -0400,
70,70,0,filler_random,None,None,None,None,None,None,None,None,None,None,3,3.2277414798736572,None,,,,,0,0,0,0,0,70,70,142,488.3374934196472,,,,,,,,,,,,,,,,,,,,,,,,,,,,,,,,,,,,,,,,,,,,,,,,,,,,,,,,,,,,,,,,,,,,,,,,,,,,,,,,,81.61028517179967,190.1824554632962,61.47618306719622,58.585331616131135,91.14180762605518,188.17486342959342,3.0,3.1,-220,283,0,4,219,-258,488.3200476169586,488.3201735019684,488.3235411643982,488.3374934196472,488.48284125328064,488.48284125328064,488.48284125328064,488.48284125328064,488.48284125328064,488.48284125328064,488.48284125328064,491.5845847129822,3,3.2277414798736572,None,,,,,,,,,,,,,,,,,,233,2,2025-03-11_16h10.39.300,comp,2024.2.4,57.324921549546794,2025-03-11 16h10.55.060858 -0400,
71,71,0,catch,None,None,None,None,None,None,None,None,None,None,3,1.0477917194366455,None,,,,,0,0,0,0,0,71,71,120,491.6055483818054,,,,,,,,,,,,,,,,,,,,,,,,,,,,,,,,,,,,,,,,,,,,,,,,,,,,,,,,,,,,,,,,,,,,,,,,,,,,,,,,,104,86,69,121,179,146,2.1,2.12,-200,-288,0,-263,230,276,491.5866713523865,491.5867476463318,491.5898325443268,491.6055483818054,491.7487790584564,491.7487790584564,491.7487790584564,491.7487790584564,491.7487790584564,491.7487790584564,491.7487790584564,492.6666507720947,3,1.0477917194366455,None,,,,,,,,,,,,,,,,,,233,2,2025-03-11_16h10.39.300,comp,2024.2.4,57.324921549546794,2025-03-11 16h10.55.060858 -0400,
72,72,0,critical,wdh,35.0,1.0,lower,57.0,133.0,70.0,70.0,133.0,57.0,1,4.427767038345337,None,,,,,0,0,0,0,0,72,72,72,492.68219900131226,,,,,,,,,,,,,,,,,,,,,,,,,,,,,,,,,,,,,,,,,,,,,,,,,,,,,,,,,,,,,,,,,,,,,,,,,,,,,,,,,57.0,133.0,70.0,70.0,133.0,57.0,1.0,1.2,-198,12,0,6,160,15,492.66814136505127,492.6682159900665,492.6717519760132,492.68219900131226,492.83224177360535,492.83224177360535,492.83224177360535,492.83224177360535,492.83224177360535,492.83224177360535,492.83224177360535,497.1186134815216,1,4.427767038345337,None,,,,,,,,,,,,,,,,,,233,2,2025-03-11_16h10.39.300,comp,2024.2.4,57.324921549546794,2025-03-11 16h10.55.060858 -0400,
73,73,0,critical,hwd,20.0,3.0,lower,133.0,57.0,57.0,133.0,78.0,78.0,1,5.108672618865967,None,,,,,0,0,0,0,0,73,73,104,497.13719058036804,,,,,,,,,,,,,,,,,,,,,,,,,,,,,,,,,,,,,,,,,,,,,,,,,,,,,,,,,,,,,,,,,,,,,,,,,,,,,,,,,133.0,57.0,57.0,133.0,78.0,78.0,3.0,3.2,-191,-254,0,-13,202,287,497.1200885772705,497.12016344070435,497.1231060028076,497.13719058036804,497.28565311431885,497.28565311431885,497.28565311431885,497.28565311431885,497.28565311431885,497.28565311431885,497.28565311431885,502.25343108177185,1,5.108672618865967,None,,,,,,,,,,,,,,,,,,233,2,2025-03-11_16h10.39.300,comp,2024.2.4,57.324921549546794,2025-03-11 16h10.55.060858 -0400,
74,74,0,critical,hdw,35.0,2.1,lower,133.0,57.0,70.0,70.0,57.0,133.0,1,4.192124128341675,None,,,,,0,0,0,0,0,74,74,44,502.26906633377075,,,,,,,,,,,,,,,,,,,,,,,,,,,,,,,,,,,,,,,,,,,,,,,,,,,,,,,,,,,,,,,,,,,,,,,,,,,,,,,,,133.0,57.0,70.0,70.0,57.0,133.0,2.1,2.12,-160,-268,0,-287,198,265,502.2549350261688,502.25502848625183,502.25827622413635,502.26906633377075,502.41869735717773,502.41869735717773,502.41869735717773,502.41869735717773,502.41869735717773,502.41869735717773,502.41869735717773,506.47234773635864,1,4.192124128341675,None,,,,,,,,,,,,,,,,,,233,2,2025-03-11_16h10.39.300,comp,2024.2.4,57.324921549546794,2025-03-11 16h10.55.060858 -0400,
75,75,0,critical,whd,35.0,2.1,lower,57.0,133.0,133.0,57.0,70.0,70.0,2,7.95628023147583,None,,,,,0,0,0,0,0,75,75,12,506.48897194862366,,,,,,,,,,,,,,,,,,,,,,,,,,,,,,,,,,,,,,,,,,,,,,,,,,,,,,,,,,,,,,,,,,,,,,,,,,,,,,,,,57.0,133.0,133.0,57.0,70.0,70.0,2.1,2.12,-191,-279,0,-280,160,288,506.4739375114441,506.4740617275238,506.47738313674927,506.48897194862366,506.6377809047699,506.6377809047699,506.6377809047699,506.6377809047699,506.6377809047699,506.6377809047699,506.6377809047699,514.4556922912598,2,7.95628023147583,None,,,,,,,,,,,,,,,,,,233,2,2025-03-11_16h10.39.300,comp,2024.2.4,57.324921549546794,2025-03-11 16h10.55.060858 -0400,
76,76,0,filler_square,None,None,None,None,None,None,None,None,None,None,3,3.98490047454834,None,,,,,0,0,0,0,0,76,76,207,514.4766454696655,,,,,,,,,,,,,,,,,,,,,,,,,,,,,,,,,,,,,,,,,,,,,,,,,,,,,,,,,,,,,,,,,,,,,,,,,,,,,,,,,75.6302432499281,89.77486008019264,86.61321407947787,91.59988603149733,94.22329624498602,94.22329624498602,2.1,2.12,-187,-253,0,-258,189,260,514.4574327468872,514.4575109481812,514.4605009555817,514.4766454696655,514.6213686466217,514.6213686466217,514.6213686466217,514.6213686466217,514.6213686466217,514.6213686466217,514.6213686466217,518.4791219234467,3,3.98490047454834,None,,,,,,,,,,,,,,,,,,233,2,2025-03-11_16h10.39.300,comp,2024.2.4,57.324921549546794,2025-03-11 16h10.55.060858 -0400,
77,77,0,critical,hwd,20.0,4.0,upper,200.0,125.0,125.0,200.0,141.0,141.0,1,10.127257823944092,None,,,,,0,0,0,0,0,77,77,107,518.4952614307404,,,,,,,,,,,,,,,,,,,,,,,,,,,,,,,,,,,,,,,,,,,,,,,,,,,,,,,,,,,,,,,,,,,,,,,,,,,,,,,,,200.0,125.0,125.0,200.0,141.0,141.0,4.0,4.2,-258,9,0,-250,266,15,518.4807002544403,518.4807772636414,518.484699010849,518.4952614307404,518.6398901939392,518.6398901939392,518.6398901939392,518.6398901939392,518.6398901939392,518.6398901939392,518.6398901939392,528.6258981227875,1,10.127257823944092,None,,,,,,,,,,,,,,,,,,233,2,2025-03-11_16h10.39.300,comp,2024.2.4,57.324921549546794,2025-03-11 16h10.55.060858 -0400,
78,78,0,critical,dwh,20.0,2.1,upper,141.0,141.0,125.0,200.0,200.0,125.0,1,10.987321138381958,None,,,,,0,0,0,0,0,78,78,7,528.6422727108002,,,,,,,,,,,,,,,,,,,,,,,,,,,,,,,,,,,,,,,,,,,,,,,,,,,,,,,,,,,,,,,,,,,,,,,,,,,,,,,,,141.0,141.0,125.0,200.0,200.0,125.0,2.1,2.11,-266,267,0,269,258,-269,528.6275172233582,528.6275932788849,528.6309278011322,528.6422727108002,528.7938599586487,528.7938599586487,528.7938599586487,528.7938599586487,528.7938599586487,528.7938599586487,528.7938599586487,539.6319043636322,1,10.987321138381958,None,,,,,,,,,,,,,,,,,,233,2,2025-03-11_16h10.39.300,comp,2024.2.4,57.324921549546794,2025-03-11 16h10.55.060858 -0400,
79,79,0,critical,wdh,35.0,3.0,lower,57.0,133.0,70.0,70.0,133.0,57.0,1,2.078350782394409,None,,,,,0,0,0,0,0,79,79,74,539.6476192474365,,,,,,,,,,,,,,,,,,,,,,,,,,,,,,,,,,,,,,,,,,,,,,,,,,,,,,,,,,,,,,,,,,,,,,,,,,,,,,,,,57.0,133.0,70.0,70.0,133.0,57.0,3.0,3.1,-198,287,0,16,160,-280,539.6334102153778,539.6334898471832,539.6369638442993,539.6476192474365,539.796945810318,539.796945810318,539.796945810318,539.796945810318,539.796945810318,539.796945810318,539.796945810318,541.7328321933746,1,2.078350782394409,None,,,,,,,,,,,,,,,,,,233,2,2025-03-11_16h10.39.300,comp,2024.2.4,57.324921549546794,2025-03-11 16h10.55.060858 -0400,
80,80,0,critical,dhw,20.0,3.0,upper,141.0,141.0,200.0,125.0,125.0,200.0,3,7.992440700531006,None,,,,,0,0,0,0,0,80,80,57,541.7487132549286,,,,,,,,,,,,,,,,,,,,,,,,,,,,,,,,,,,,,,,,,,,,,,,,,,,,,,,,,,,,,,,,,,,,,,,,,,,,,,,,,141.0,141.0,200.0,125.0,125.0,200.0,3.0,3.2,-229,-269,0,10,258,257,541.7343113422394,541.7343850135803,541.7376444339752,541.7487132549286,541.8993504047394,541.8993504047394,541.8993504047394,541.8993504047394,541.8993504047394,541.8993504047394,541.8993504047394,549.7528221607208,3,7.992440700531006,None,,,,,,,,,,,,,,,,,,233,2,2025-03-11_16h10.39.300,comp,2024.2.4,57.324921549546794,2025-03-11 16h10.55.060858 -0400,
81,81,0,critical,dwh,35.0,1.0,lower,70.0,70.0,57.0,133.0,133.0,57.0,3,1.8439686298370361,None,,,,,0,0,0,0,0,81,81,60,549.7696917057037,,,,,,,,,,,,,,,,,,,,,,,,,,,,,,,,,,,,,,,,,,,,,,,,,,,,,,,,,,,,,,,,,,,,,,,,,,,,,,,,,70.0,70.0,57.0,133.0,133.0,57.0,1.0,1.2,-198,2,0,-16,191,9,549.7544591426849,549.7545907497406,549.7583315372467,549.7696917057037,549.9178218841553,549.9178218841553,549.9178218841553,549.9178218841553,549.9178218841553,549.9178218841553,549.9178218841553,551.6184267997742,3,1.8439686298370361,None,,,,,,,,,,,,,,,,,,233,2,2025-03-11_16h10.39.300,comp,2024.2.4,57.324921549546794,2025-03-11 16h10.55.060858 -0400,
82,82,0,filler_square,None,None,None,None,None,None,None,None,None,None,2,1.2907578945159912,None,,,,,0,0,0,0,0,82,82,188,551.6349458694458,,,,,,,,,,,,,,,,,,,,,,,,,,,,,,,,,,,,,,,,,,,,,,,,,,,,,,,,,,,,,,,,,,,,,,,,,,,,,,,,,75.87088855308315,101.89499162600328,110.75675784705464,110.75675784705464,75.10182715764725,62.65204956432534,3.0,3.1,-202,266,0,12,183,-275,551.6204786300659,551.6205561161041,551.6241497993469,551.6349458694458,551.7833409309387,551.7833409309387,551.7833409309387,551.7833409309387,551.7833409309387,551.7833409309387,551.7833409309387,552.9356782436371,2,1.2907578945159912,None,,,,,,,,,,,,,,,,,,233,2,2025-03-11_16h10.39.300,comp,2024.2.4,57.324921549546794,2025-03-11 16h10.55.060858 -0400,
83,83,0,filler_square,None,None,None,None,None,None,None,None,None,None,2,1.5090405941009521,None,,,,,0,0,0,0,0,83,83,184,552.9521145820618,,,,,,,,,,,,,,,,,,,,,,,,,,,,,,,,,,,,,,,,,,,,,,,,,,,,,,,,,,,,,,,,,,,,,,,,,,,,,,,,,77.24514593525606,75.9317638298403,83.63303152694135,83.63303152694135,73.9638368005522,62.916055205092796,2.1,2.11,-176,258,0,287,169,-270,552.9377212524414,552.9378325939178,552.9413871765137,552.9521145820618,553.1028456687927,553.1028456687927,553.1028456687927,553.1028456687927,553.1028456687927,553.1028456687927,553.1028456687927,554.4764218330383,2,1.5090405941009521,None,,,,,,,,,,,,,,,,,,233,2,2025-03-11_16h10.39.300,comp,2024.2.4,57.324921549546794,2025-03-11 16h10.55.060858 -0400,
84,84,0,critical,whd,20.0,4.0,lower,57.0,133.0,133.0,57.0,78.0,78.0,1,2.303452730178833,None,,,,,0,0,0,0,0,84,84,94,554.4939517974854,,,,,,,,,,,,,,,,,,,,,,,,,,,,,,,,,,,,,,,,,,,,,,,,,,,,,,,,,,,,,,,,,,,,,,,,,,,,,,,,,57.0,133.0,133.0,57.0,78.0,78.0,4.0,4.2,-191,11,0,-251,164,-4,554.4778897762299,554.477965593338,554.4808895587921,554.4939517974854,554.6350297927856,554.6350297927856,554.6350297927856,554.6350297927856,554.6350297927856,554.6350297927856,554.6350297927856,556.80242395401,1,2.303452730178833,None,,,,,,,,,,,,,,,,,,233,2,2025-03-11_16h10.39.300,comp,2024.2.4,57.324921549546794,2025-03-11 16h10.55.060858 -0400,
85,85,0,catch,None,None,None,None,None,None,None,None,None,None,2,1.073674201965332,None,,,,,0,0,0,0,0,85,85,125,556.8195405006409,,,,,,,,,,,,,,,,,,,,,,,,,,,,,,,,,,,,,,,,,,,,,,,,,,,,,,,,,,,,,,,,,,,,,,,,,,,,,,,,,108,82,129,196,105,85,1.0,1.3,245,-250,480,-270,716,-261,556.8044030666351,556.8044812679291,556.8077220916748,556.8195405006409,556.9762680530548,556.9762680530548,556.9762680530548,556.9762680530548,556.9762680530548,556.9762680530548,556.9762680530548,557.9087426662445,2,1.073674201965332,None,,,,,,,,,,,,,,,,,,233,2,2025-03-11_16h10.39.300,comp,2024.2.4,57.324921549546794,2025-03-11 16h10.55.060858 -0400,
86,86,0,critical,dhw,35.0,2.1,upper,127.0,127.0,200.0,125.0,125.0,200.0,3,1.1127631664276123,None,,,,,0,0,0,0,0,86,86,25,557.9243502616882,,,,,,,,,,,,,,,,,,,,,,,,,,,,,,,,,,,,,,,,,,,,,,,,,,,,,,,,,,,,,,,,,,,,,,,,,,,,,,,,,127.0,127.0,200.0,125.0,125.0,200.0,2.1,2.12,-222,-290,0,-264,258,254,557.9102704524994,557.9103448390961,557.9132750034332,557.9243502616882,558.07444190979,558.07444190979,558.07444190979,558.07444190979,558.07444190979,558.07444190979,558.07444190979,559.054107427597,3,1.1127631664276123,None,,,,,,,,,,,,,,,,,,233,2,2025-03-11_16h10.39.300,comp,2024.2.4,57.324921549546794,2025-03-11 16h10.55.060858 -0400,
87,87,0,filler_random,None,None,None,None,None,None,None,None,None,None,1,1.77638840675354,None,,,,,0,0,0,0,0,87,87,164,559.0695173740387,,,,,,,,,,,,,,,,,,,,,,,,,,,,,,,,,,,,,,,,,,,,,,,,,,,,,,,,,,,,,,,,,,,,,,,,,,,,,,,,,132.2395371598871,108.18668415140104,64.84086720736964,180.67444074978079,105.66340412951884,129.3781731619753,2.2,2.22,-240,252,0,-279,251,-262,559.0557577610016,559.0558564662933,559.0592789649963,559.0695173740387,559.2219643592834,559.2219643592834,559.2219643592834,559.2219643592834,559.2219643592834,559.2219643592834,559.2219643592834,560.8551268577576,1,1.77638840675354,None,,,,,,,,,,,,,,,,,,233,2,2025-03-11_16h10.39.300,comp,2024.2.4,57.324921549546794,2025-03-11 16h10.55.060858 -0400,
88,88,0,filler_random,None,None,None,None,None,None,None,None,None,None,1,1.4853253364562988,None,,,,,0,0,0,0,0,88,88,160,560.871876001358,,,,,,,,,,,,,,,,,,,,,,,,,,,,,,,,,,,,,,,,,,,,,,,,,,,,,,,,,,,,,,,,,,,,,,,,,,,,,,,,,137.4640852331073,136.1170916109183,112.50915300017131,143.60856608026677,142.8721319869206,95.54021243742878,4.0,4.2,-236,14,0,-272,216,5,560.8569679260254,560.8571045398712,560.8611745834351,560.871876001358,561.0198528766632,561.0198528766632,561.0198528766632,561.0198528766632,561.0198528766632,561.0198528766632,561.0198528766632,562.3723802566528,1,1.4853253364562988,None,,,,,,,,,,,,,,,,,,233,2,2025-03-11_16h10.39.300,comp,2024.2.4,57.324921549546794,2025-03-11 16h10.55.060858 -0400,
89,89,0,filler_random,None,None,None,None,None,None,None,None,None,None,2,1.953108787536621,None,,,,,0,0,0,0,0,89,89,162,562.3880648612976,,,,,,,,,,,,,,,,,,,,,,,,,,,,,,,,,,,,,,,,,,,,,,,,,,,,,,,,,,,,,,,,,,,,,,,,,,,,,,,,,104.40421655709429,194.13829458125093,148.9964434112478,130.959945923939,84.72086312454563,190.9561706542896,1.0,1.2,-259,-19,0,15,257,16,562.3741779327393,562.3742954730988,562.3777303695679,562.3880648612976,562.541234254837,562.541234254837,562.541234254837,562.541234254837,562.541234254837,562.541234254837,562.541234254837,564.3557734489441,2,1.953108787536621,None,,,,,,,,,,,,,,,,,,233,2,2025-03-11_16h10.39.300,comp,2024.2.4,57.324921549546794,2025-03-11 16h10.55.060858 -0400,
90,90,0,filler_random,None,None,None,None,None,None,None,None,None,None,2,1.5301029682159424,None,,,,,0,0,0,0,0,90,90,165,564.3715388774872,,,,,,,,,,,,,,,,,,,,,,,,,,,,,,,,,,,,,,,,,,,,,,,,,,,,,,,,,,,,,,,,,,,,,,,,,,,,,,,,,158.31788162180584,85.08618054477077,196.36579254941338,148.9972792801436,72.55522414324979,121.93718564435294,2.1,2.11,-213,256,0,256,231,-270,564.3575763702393,564.3576767444611,564.3611845970154,564.3715388774872,564.5264921188354,564.5264921188354,564.5264921188354,564.5264921188354,564.5264921188354,564.5264921188354,564.5264921188354,565.9087617397308,2,1.5301029682159424,None,,,,,,,,,,,,,,,,,,233,2,2025-03-11_16h10.39.300,comp,2024.2.4,57.324921549546794,2025-03-11 16h10.55.060858 -0400,
91,91,0,critical,wdh,35.0,1.0,upper,125.0,200.0,127.0,127.0,200.0,125.0,1,1.5822594165802002,None,,,,,0,0,0,0,0,91,91,73,565.9269502162933,,,,,,,,,,,,,,,,,,,,,,,,,,,,,,,,,,,,,,,,,,,,,,,,,,,,,,,,,,,,,,,,,,,,,,,,,,,,,,,,,125.0,200.0,127.0,127.0,200.0,125.0,1.0,1.1,-740,289,-480,259,-258,289,565.9103758335114,565.9104537963867,565.9139423370361,565.9269502162933,566.0730237960815,566.0730237960815,566.0730237960815,566.0730237960815,566.0730237960815,566.0730237960815,566.0730237960815,567.5285437107086,1,1.5822594165802002,None,,,,,,,,,,,,,,,,,,233,2,2025-03-11_16h10.39.300,comp,2024.2.4,57.324921549546794,2025-03-11 16h10.55.060858 -0400,
92,92,0,filler_random,None,None,None,None,None,None,None,None,None,None,2,2.017756700515747,None,,,,,0,0,0,0,0,92,92,138,567.5490996837616,,,,,,,,,,,,,,,,,,,,,,,,,,,,,,,,,,,,,,,,,,,,,,,,,,,,,,,,,,,,,,,,,,,,,,,,,,,,,,,,,105.83231527508389,105.68762056116114,151.804172026525,93.48002053569533,65.40635612440965,175.61779355759316,4.0,4.1,-196,-276,0,-2,231,-279,567.5302662849426,567.5303437709808,567.5337421894073,567.5490996837616,567.690979719162,567.690979719162,567.690979719162,567.690979719162,567.690979719162,567.690979719162,567.690979719162,569.5732607841492,2,2.017756700515747,None,,,,,,,,,,,,,,,,,,233,2,2025-03-11_16h10.39.300,comp,2024.2.4,57.324921549546794,2025-03-11 16h10.55.060858 -0400,
93,93,0,filler_square,None,None,None,None,None,None,None,None,None,None,2,1.3764088153839111,None,,,,,0,0,0,0,0,93,93,174,569.5893642902374,,,,,,,,,,,,,,,,,,,,,,,,,,,,,,,,,,,,,,,,,,,,,,,,,,,,,,,,,,,,,,,,,,,,,,,,,,,,,,,,,120.98715406951813,127.55512630619396,164.08110659482628,164.08110659482628,115.05798819202802,96.13033681520834,4.0,4.1,-242,-251,0,3,226,-257,569.5750460624695,569.5751760005951,569.578467130661,569.5893642902374,569.7428953647614,569.7428953647614,569.7428953647614,569.7428953647614,569.7428953647614,569.7428953647614,569.7428953647614,570.9727838039398,2,1.3764088153839111,None,,,,,,,,,,,,,,,,,,233,2,2025-03-11_16h10.39.300,comp,2024.2.4,57.324921549546794,2025-03-11 16h10.55.060858 -0400,
94,94,0,critical,hwd,35.0,1.0,upper,200.0,125.0,125.0,200.0,127.0,127.0,1,3.1454665660858154,None,,,,,0,0,0,0,0,94,94,97,570.9889965057373,,,,,,,,,,,,,,,,,,,,,,,,,,,,,,,,,,,,,,,,,,,,,,,,,,,,,,,,,,,,,,,,,,,,,,,,,,,,,,,,,200.0,125.0,125.0,200.0,127.0,127.0,1.0,1.1,-738,276,-480,273,-220,278,570.9743347167969,570.9744100570679,570.9773013591766,570.9889965057373,571.1249198913574,571.1249198913574,571.1249198913574,571.1249198913574,571.1249198913574,571.1249198913574,571.1249198913574,574.1432390213013,1,3.1454665660858154,None,,,,,,,,,,,,,,,,,,233,2,2025-03-11_16h10.39.300,comp,2024.2.4,57.324921549546794,2025-03-11 16h10.55.060858 -0400,
95,95,0,filler_square,None,None,None,None,None,None,None,None,None,None,2,4.885695695877075,None,,,,,0,0,0,0,0,95,95,176,574.1597828865051,,,,,,,,,,,,,,,,,,,,,,,,,,,,,,,,,,,,,,,,,,,,,,,,,,,,,,,,,,,,,,,,,,,,,,,,,,,,,,,,,58.10694984214597,58.311323721852354,59.22879891765549,59.22879891765549,59.10600349137874,59.087103235304596,2.2,2.22,-155,265,0,-285,155,-270,574.1450171470642,574.1451237201691,574.1481528282166,574.1597828865051,574.3089287281036,574.3089287281036,574.3089287281036,574.3089287281036,574.3089287281036,574.3089287281036,574.3089287281036,579.0649197101593,2,4.885695695877075,None,,,,,,,,,,,,,,,,,,233,2,2025-03-11_16h10.39.300,comp,2024.2.4,57.324921549546794,2025-03-11 16h10.55.060858 -0400,
96,96,0,catch,None,None,None,None,None,None,None,None,None,None,1,1.4506049156188965,None,,,,,0,0,0,0,0,96,96,122,579.0824744701385,,,,,,,,,,,,,,,,,,,,,,,,,,,,,,,,,,,,,,,,,,,,,,,,,,,,,,,,,,,,,,,,,,,,,,,,,,,,,,,,,180,145,61,129,110,80,4.0,4.2,-233,3,0,-280,200,-15,579.0668535232544,579.0669281482697,579.0698447227478,579.0824744701385,579.2280616760254,579.2280616760254,579.2280616760254,579.2280616760254,579.2280616760254,579.2280616760254,579.2280616760254,580.5537497997284,1,1.4506049156188965,None,,,,,,,,,,,,,,,,,,233,2,2025-03-11_16h10.39.300,comp,2024.2.4,57.324921549546794,2025-03-11 16h10.55.060858 -0400,
97,97,0,critical,dwh,35.0,2.1,upper,127.0,127.0,125.0,200.0,200.0,125.0,2,2.34623384475708,None,,,,,0,0,0,0,0,97,97,5,580.570919752121,,,,,,,,,,,,,,,,,,,,,,,,,,,,,,,,,,,,,,,,,,,,,,,,,,,,,,,,,,,,,,,,,,,,,,,,,,,,,,,,,127.0,127.0,125.0,200.0,200.0,125.0,2.1,2.12,-260,-271,0,-275,258,264,580.5552642345428,580.5553405284882,580.5582609176636,580.570919752121,580.7111361026764,580.7111361026764,580.7111361026764,580.7111361026764,580.7111361026764,580.7111361026764,580.7111361026764,582.928079366684,2,2.34623384475708,None,,,,,,,,,,,,,,,,,,233,2,2025-03-11_16h10.39.300,comp,2024.2.4,57.324921549546794,2025-03-11 16h10.55.060858 -0400,
98,98,0,critical,dwh,35.0,2.1,upper,127.0,127.0,125.0,200.0,200.0,125.0,3,2.9319164752960205,None,,,,,0,0,0,0,0,98,98,29,582.9451789855957,,,,,,,,,,,,,,,,,,,,,,,,,,,,,,,,,,,,,,,,,,,,,,,,,,,,,,,,,,,,,,,,,,,,,,,,,,,,,,,,,127.0,127.0,125.0,200.0,200.0,125.0,2.1,2.11,-260,253,0,250,258,-252,582.9297156333923,582.9298195838928,582.9332735538483,582.9451789855957,583.096039056778,583.096039056778,583.096039056778,583.096039056778,583.096039056778,583.096039056778,583.096039056778,585.8798735141754,3,2.9319164752960205,None,,,,,,,,,,,,,,,,,,233,2,2025-03-11_16h10.39.300,comp,2024.2.4,57.324921549546794,2025-03-11 16h10.55.060858 -0400,
99,99,0,filler_square,None,None,None,None,None,None,None,None,None,None,1,2.2053496837615967,None,,,,,0,0,0,0,0,99,99,195,585.8958916664124,,,,,,,,,,,,,,,,,,,,,,,,,,,,,,,,,,,,,,,,,,,,,,,,,,,,,,,,,,,,,,,,,,,,,,,,,,,,,,,,,134.6930179621479,134.6930179621479,95.11085577419072,61.99236725602038,60.674931858551574,104.58252273169028,3.0,3.2,-194,-288,0,12,179,284,585.881674528122,585.8817522525787,585.8851487636566,585.8958916664124,586.0354635715485,586.0354635715485,586.0354635715485,586.0354635715485,586.0354635715485,586.0354635715485,586.0354635715485,588.1149070262909,1,2.2053496837615967,None,,,,,,,,,,,,,,,,,,233,2,2025-03-11_16h10.39.300,comp,2024.2.4,57.324921549546794,2025-03-11 16h10.55.060858 -0400,
100,100,0,critical,whd,35.0,2.1,lower,57.0,133.0,133.0,57.0,70.0,70.0,2,3.3776512145996094,None,,,,,0,0,0,0,0,100,100,36,588.1314520835876,,,,,,,,,,,,,,,,,,,,,,,,,,,,,,,,,,,,,,,,,,,,,,,,,,,,,,,,,,,,,,,,,,,,,,,,,,,,,,,,,57.0,133.0,133.0,57.0,70.0,70.0,2.1,2.11,-191,260,0,254,160,-277,588.1165659427643,588.1166870594025,588.1203396320343,588.1314520835876,588.2778174877167,588.2778174877167,588.2778174877167,588.2778174877167,588.2778174877167,588.2778174877167,588.2778174877167,591.5190217494965,2,3.3776512145996094,None,,,,,,,,,,,,,,,,,,233,2,2025-03-11_16h10.39.300,comp,2024.2.4,57.324921549546794,2025-03-11 16h10.55.060858 -0400,
101,101,0,critical,whd,20.0,2.1,upper,125.0,200.0,200.0,125.0,141.0,141.0,1,5.986333847045898,None,,,,,0,0,0,0,0,101,101,39,591.5393576622009,,,,,,,,,,,,,,,,,,,,,,,,,,,,,,,,,,,,,,,,,,,,,,,,,,,,,,,,,,,,,,,,,,,,,,,,,,,,,,,,,125.0,200.0,200.0,125.0,141.0,141.0,2.1,2.11,-258,255,0,253,229,-263,591.5205547809601,591.5206315517426,591.5235917568207,591.5393576622009,591.6795983314514,591.6795983314514,591.6795983314514,591.6795983314514,591.6795983314514,591.6795983314514,591.6795983314514,597.5331742763519,1,5.986333847045898,None,,,,,,,,,,,,,,,,,,233,2,2025-03-11_16h10.39.300,comp,2024.2.4,57.324921549546794,2025-03-11 16h10.55.060858 -0400,
102,102,0,filler_random,None,None,None,None,None,None,None,None,None,None,3,2.5927841663360596,None,,,,,0,0,0,0,0,102,102,153,597.5491721630096,,,,,,,,,,,,,,,,,,,,,,,,,,,,,,,,,,,,,,,,,,,,,,,,,,,,,,,,,,,,,,,,,,,,,,,,,,,,,,,,,98.81102616937963,86.85406996621259,177.5484822398608,136.83736437082138,141.06548167804482,174.03262755654438,3.0,3.1,-208,288,0,15,251,-278,597.5348832607269,597.5349640846252,597.5384020805359,597.5491721630096,597.7006523609161,597.7006523609161,597.7006523609161,597.7006523609161,597.7006523609161,597.7006523609161,597.7006523609161,600.1506206989288,3,2.5927841663360596,None,,,,,,,,,,,,,,,,,,233,2,2025-03-11_16h10.39.300,comp,2024.2.4,57.324921549546794,2025-03-11 16h10.55.060858 -0400,
103,103,0,critical,hdw,20.0,2.1,upper,200.0,125.0,141.0,141.0,125.0,200.0,3,5.6152942180633545,None,,,,,0,0,0,0,0,103,103,23,600.1666085720062,,,,,,,,,,,,,,,,,,,,,,,,,,,,,,,,,,,,,,,,,,,,,,,,,,,,,,,,,,,,,,,,,,,,,,,,,,,,,,,,,200.0,125.0,141.0,141.0,125.0,200.0,2.1,2.12,-229,-284,0,-285,266,264,600.1521904468536,600.1522660255432,600.155680179596,600.1666085720062,600.319041967392,600.319041967392,600.319041967392,600.319041967392,600.319041967392,600.319041967392,600.319041967392,605.7888855934143,3,5.6152942180633545,None,,,,,,,,,,,,,,,,,,233,2,2025-03-11_16h10.39.300,comp,2024.2.4,57.324921549546794,2025-03-11 16h10.55.060858 -0400,
104,104,0,filler_random,None,None,None,None,None,None,None,None,None,None,3,1.9585182666778564,None,,,,,0,0,0,0,0,104,104,166,605.8069684505463,,,,,,,,,,,,,,,,,,,,,,,,,,,,,,,,,,,,,,,,,,,,,,,,,,,,,,,,,,,,,,,,,,,,,,,,,,,,,,,,,64.47256128224686,193.78997586999338,118.43613743688348,83.09012503727719,184.99875026112872,99.07563801930507,1.0,1.2,-234,-12,0,-20,187,-10,605.7905519008636,605.7906286716461,605.7937772274017,605.8069684505463,605.9573793411255,605.9573793411255,605.9573793411255,605.9573793411255,605.9573793411255,605.9573793411255,605.9573793411255,607.7683317661285,3,1.9585182666778564,None,,,,,,,,,,,,,,,,,,233,2,2025-03-11_16h10.39.300,comp,2024.2.4,57.324921549546794,2025-03-11 16h10.55.060858 -0400,
105,105,0,critical,hwd,20.0,2.1,upper,200.0,125.0,125.0,200.0,141.0,141.0,2,3.7218995094299316,None,,,,,0,0,0,0,0,105,105,43,607.7872853279114,,,,,,,,,,,,,,,,,,,,,,,,,,,,,,,,,,,,,,,,,,,,,,,,,,,,,,,,,,,,,,,,,,,,,,,,,,,,,,,,,200.0,125.0,125.0,200.0,141.0,141.0,2.1,2.11,-258,263,0,273,266,-258,607.7697744369507,607.7698743343353,607.7730441093445,607.7872853279114,607.9355163574219,607.9355163574219,607.9355163574219,607.9355163574219,607.9355163574219,607.9355163574219,607.9355163574219,611.5204594135284,2,3.7218995094299316,None,,,,,,,,,,,,,,,,,,233,2,2025-03-11_16h10.39.300,comp,2024.2.4,57.324921549546794,2025-03-11 16h10.55.060858 -0400,
106,106,0,critical,hwd,35.0,2.1,upper,200.0,125.0,125.0,200.0,127.0,127.0,2,1.108677625656128,None,,,,,0,0,0,0,0,106,106,17,611.5364880561829,,,,,,,,,,,,,,,,,,,,,,,,,,,,,,,,,,,,,,,,,,,,,,,,,,,,,,,,,,,,,,,,,,,,,,,,,,,,,,,,,200.0,125.0,125.0,200.0,127.0,127.0,2.1,2.11,-258,286,0,256,260,-266,611.5220806598663,611.522159576416,611.5255129337311,611.5364880561829,611.6860494613647,611.6860494613647,611.6860494613647,611.6860494613647,611.6860494613647,611.6860494613647,611.6860494613647,612.6627397537231,2,1.108677625656128,None,,,,,,,,,,,,,,,,,,233,2,2025-03-11_16h10.39.300,comp,2024.2.4,57.324921549546794,2025-03-11 16h10.55.060858 -0400,
107,107,0,critical,hdw,35.0,2.1,lower,133.0,57.0,70.0,70.0,57.0,133.0,1,3.157243490219116,None,,,,,0,0,0,0,0,107,107,20,612.679936170578,,,,,,,,,,,,,,,,,,,,,,,,,,,,,,,,,,,,,,,,,,,,,,,,,,,,,,,,,,,,,,,,,,,,,,,,,,,,,,,,,133.0,57.0,70.0,70.0,57.0,133.0,2.1,2.11,-160,264,0,279,198,-258,612.6642827987671,612.664356470108,612.6672778129578,612.679936170578,612.8206951618195,612.8206951618195,612.8206951618195,612.8206951618195,612.8206951618195,612.8206951618195,612.8206951618195,615.8390984535217,1,3.157243490219116,None,,,,,,,,,,,,,,,,,,233,2,2025-03-11_16h10.39.300,comp,2024.2.4,57.324921549546794,2025-03-11 16h10.55.060858 -0400,
108,108,0,filler_square,None,None,None,None,None,None,None,None,None,None,3,1.3418104648590088,None,,,,,0,0,0,0,0,108,108,203,615.8557195663452,,,,,,,,,,,,,,,,,,,,,,,,,,,,,,,,,,,,,,,,,,,,,,,,,,,,,,,,,,,,,,,,,,,,,,,,,,,,,,,,,93.5113578248554,76.31607636621875,82.13684754972829,65.44667619182093,117.25142215552513,117.25142215552513,4.0,4.2,-167,1,0,-273,187,16,615.8410842418671,615.8411793708801,615.8449306488037,615.8557195663452,616.0116209983826,616.0116209983826,616.0116209983826,616.0116209983826,616.0116209983826,616.0116209983826,616.0116209983826,617.2079200744629,3,1.3418104648590088,None,,,,,,,,,,,,,,,,,,233,2,2025-03-11_16h10.39.300,comp,2024.2.4,57.324921549546794,2025-03-11 16h10.55.060858 -0400,
109,109,0,filler_random,None,None,None,None,None,None,None,None,None,None,3,2.2015221118927,None,,,,,0,0,0,0,0,109,109,161,617.2281160354614,,,,,,,,,,,,,,,,,,,,,,,,,,,,,,,,,,,,,,,,,,,,,,,,,,,,,,,,,,,,,,,,,,,,,,,,,,,,,,,,,127.05854427613467,82.82056763938851,105.41002711755343,169.1900708536822,127.52202087953594,143.79818583227632,2.1,2.12,-222,-259,0,-275,252,261,617.2097582817078,617.2099168300629,617.2133650779724,617.2281160354614,617.372364282608,617.372364282608,617.372364282608,617.372364282608,617.372364282608,617.372364282608,617.372364282608,619.4403882026672,3,2.2015221118927,None,,,,,,,,,,,,,,,,,,233,2,2025-03-11_16h10.39.300,comp,2024.2.4,57.324921549546794,2025-03-11 16h10.55.060858 -0400,
110,110,0,critical,dhw,20.0,4.0,upper,141.0,141.0,200.0,125.0,125.0,200.0,3,1.8451197147369385,None,,,,,0,0,0,0,0,110,110,59,619.4563705921173,,,,,,,,,,,,,,,,,,,,,,,,,,,,,,,,,,,,,,,,,,,,,,,,,,,,,,,,,,,,,,,,,,,,,,,,,,,,,,,,,141.0,141.0,200.0,125.0,125.0,200.0,4.0,4.2,-229,-15,0,-251,258,-17,619.4419527053833,619.4420692920685,619.4455432891846,619.4563705921173,619.6115436553955,619.6115436553955,619.6115436553955,619.6115436553955,619.6115436553955,619.6115436553955,619.6115436553955,621.3132827281952,3,1.8451197147369385,None,,,,,,,,,,,,,,,,,,233,2,2025-03-11_16h10.39.300,comp,2024.2.4,57.324921549546794,2025-03-11 16h10.55.060858 -0400,
111,111,0,filler_random,None,None,None,None,None,None,None,None,None,None,1,1.0097277164459229,None,,,,,0,0,0,0,0,111,111,154,621.3314363956451,,,,,,,,,,,,,,,,,,,,,,,,,,,,,,,,,,,,,,,,,,,,,,,,,,,,,,,,,,,,,,,,,,,,,,,,,,,,,,,,,180.62410697360107,188.19046514035875,61.31531357128338,99.05765560177082,197.79168479416768,117.7616646397189,2.2,2.22,-240,285,0,-259,204,-277,621.3150532245636,621.3151338100433,621.3180887699127,621.3314363956451,621.4735662937164,621.4735662937164,621.4735662937164,621.4735662937164,621.4735662937164,621.4735662937164,621.4735662937164,622.3557651042938,1,1.0097277164459229,None,,,,,,,,,,,,,,,,,,233,2,2025-03-11_16h10.39.300,comp,2024.2.4,57.324921549546794,2025-03-11 16h10.55.060858 -0400,
112,112,0,critical,hwd,35.0,2.1,upper,200.0,125.0,125.0,200.0,127.0,127.0,1,2.7533488273620605,None,,,,,0,0,0,0,0,112,112,41,622.3717842102051,,,,,,,,,,,,,,,,,,,,,,,,,,,,,,,,,,,,,,,,,,,,,,,,,,,,,,,,,,,,,,,,,,,,,,,,,,,,,,,,,200.0,125.0,125.0,200.0,127.0,127.0,2.1,2.12,-258,-273,0,-271,260,264,622.3573162555695,622.3573913574219,622.3604772090912,622.3717842102051,622.5232372283936,622.5232372283936,622.5232372283936,622.5232372283936,622.5232372283936,622.5232372283936,622.5232372283936,625.1407577991486,1,2.7533488273620605,None,,,,,,,,,,,,,,,,,,233,2,2025-03-11_16h10.39.300,comp,2024.2.4,57.324921549546794,2025-03-11 16h10.55.060858 -0400,
113,113,0,critical,hwd,20.0,2.1,lower,133.0,57.0,57.0,133.0,78.0,78.0,1,1.9908196926116943,None,,,,,0,0,0,0,0,113,113,42,625.1590569019318,,,,,,,,,,,,,,,,,,,,,,,,,,,,,,,,,,,,,,,,,,,,,,,,,,,,,,,,,,,,,,,,,,,,,,,,,,,,,,,,,133.0,57.0,57.0,133.0,78.0,78.0,2.1,2.11,-191,250,0,276,202,-276,625.1423816680908,625.142457485199,625.1462287902832,625.1590569019318,625.3106024265289,625.3106024265289,625.3106024265289,625.3106024265289,625.3106024265289,625.3106024265289,625.3106024265289,627.1576902866364,1,1.9908196926116943,None,,,,,,,,,,,,,,,,,,233,2,2025-03-11_16h10.39.300,comp,2024.2.4,57.324921549546794,2025-03-11 16h10.55.060858 -0400,
114,114,0,critical,wdh,35.0,4.0,upper,125.0,200.0,127.0,127.0,200.0,125.0,1,1.4786262512207031,None,,,,,0,0,0,0,0,114,114,77,627.1744678020477,,,,,,,,,,,,,,,,,,,,,,,,,,,,,,,,,,,,,,,,,,,,,,,,,,,,,,,,,,,,,,,,,,,,,,,,,,,,,,,,,125.0,200.0,127.0,127.0,200.0,125.0,4.0,4.2,-260,-18,0,-261,222,7,627.1592810153961,627.1593561172485,627.1626393795013,627.1744678020477,627.3219740390778,627.3219740390778,627.3219740390778,627.3219740390778,627.3219740390778,627.3219740390778,627.3219740390778,628.6680381298065,1,1.4786262512207031,None,,,,,,,,,,,,,,,,,,233,2,2025-03-11_16h10.39.300,comp,2024.2.4,57.324921549546794,2025-03-11 16h10.55.060858 -0400,
115,115,0,filler_square,None,None,None,None,None,None,None,None,None,None,2,1.3620696067810059,None,,,,,0,0,0,0,0,115,115,191,628.6831011772156,,,,,,,,,,,,,,,,,,,,,,,,,,,,,,,,,,,,,,,,,,,,,,,,,,,,,,,,,,,,,,,,,,,,,,,,,,,,,,,,,64.48705548693407,103.6243234401203,162.5658364185572,162.5658364185572,112.26011307146752,134.86160734729722,2.1,2.12,-229,-284,0,-275,245,261,628.6697525978088,628.6698498725891,628.6727304458618,628.6831011772156,628.8246009349823,628.8246009349823,628.8246009349823,628.8246009349823,628.8246009349823,628.8246009349823,628.8246009349823,630.0582575798035,2,1.3620696067810059,None,,,,,,,,,,,,,,,,,,233,2,2025-03-11_16h10.39.300,comp,2024.2.4,57.324921549546794,2025-03-11 16h10.55.060858 -0400,
116,116,0,critical,wdh,20.0,4.0,lower,57.0,133.0,78.0,78.0,133.0,57.0,2,4.874784469604492,None,,,,,0,0,0,0,0,116,116,82,630.0743417739868,,,,,,,,,,,,,,,,,,,,,,,,,,,,,,,,,,,,,,,,,,,,,,,,,,,,,,,,,,,,,,,,,,,,,,,,,,,,,,,,,57.0,133.0,78.0,78.0,133.0,57.0,4.0,4.1,-202,-262,0,9,164,-272,630.05983710289,630.0599150657654,630.063257932663,630.0743417739868,630.225501537323,630.225501537323,630.225501537323,630.225501537323,630.225501537323,630.225501537323,630.225501537323,634.9603416919708,2,4.874784469604492,None,,,,,,,,,,,,,,,,,,233,2,2025-03-11_16h10.39.300,comp,2024.2.4,57.324921549546794,2025-03-11 16h10.55.060858 -0400,
117,117,0,critical,wdh,20.0,3.0,lower,57.0,133.0,78.0,78.0,133.0,57.0,3,1.4056580066680908,None,,,,,0,0,0,0,0,117,117,80,634.9755461215973,,,,,,,,,,,,,,,,,,,,,,,,,,,,,,,,,,,,,,,,,,,,,,,,,,,,,,,,,,,,,,,,,,,,,,,,,,,,,,,,,57.0,133.0,78.0,78.0,133.0,57.0,3.0,3.2,-202,-287,0,-19,164,288,634.9618105888367,634.9619009494781,634.9650459289551,634.9755461215973,635.1254043579102,635.1254043579102,635.1254043579102,635.1254043579102,635.1254043579102,635.1254043579102,635.1254043579102,636.3947553634644,3,1.4056580066680908,None,,,,,,,,,,,,,,,,,,233,2,2025-03-11_16h10.39.300,comp,2024.2.4,57.324921549546794,2025-03-11 16h10.55.060858 -0400,
118,118,0,critical,dhw,35.0,2.1,lower,70.0,70.0,133.0,57.0,57.0,133.0,3,4.499108791351318,None,,,,,0,0,0,0,0,118,118,0,636.4102602005005,,,,,,,,,,,,,,,,,,,,,,,,,,,,,,,,,,,,,,,,,,,,,,,,,,,,,,,,,,,,,,,,,,,,,,,,,,,,,,,,,70.0,70.0,133.0,57.0,57.0,133.0,2.1,2.12,-160,-285,0,-251,191,277,636.396369934082,636.3964438438416,636.3999409675598,636.4102602005005,636.5590341091156,636.5590341091156,636.5590341091156,636.5590341091156,636.5590341091156,636.5590341091156,636.5590341091156,640.9122221469879,3,4.499108791351318,None,,,,,,,,,,,,,,,,,,233,2,2025-03-11_16h10.39.300,comp,2024.2.4,57.324921549546794,2025-03-11 16h10.55.060858 -0400,
119,119,0,filler_random,None,None,None,None,None,None,None,None,None,None,2,3.418424606323242,None,,,,,0,0,0,0,0,119,119,130,640.9306602478027,,,,,,,,,,,,,,,,,,,,,,,,,,,,,,,,,,,,,,,,,,,,,,,,,,,,,,,,,,,,,,,,,,,,,,,,,,,,,,,,,77.60033640390137,152.50847206197358,156.44452254579477,150.87371096651134,142.1482251171889,71.1491872469154,3.0,3.2,-248,-285,0,-7,207,283,640.9138226509094,640.9139003753662,640.9167747497559,640.9306602478027,641.0657377243042,641.0657377243042,641.0657377243042,641.0657377243042,641.0657377243042,641.0657377243042,641.0657377243042,644.3646509647369,2,3.418424606323242,None,,,,,,,,,,,,,,,,,,233,2,2025-03-11_16h10.39.300,comp,2024.2.4,57.324921549546794,2025-03-11 16h10.55.060858 -0400,
120,120,0,filler_random,None,None,None,None,None,None,None,None,None,None,2,1.2677438259124756,None,,,,,0,0,0,0,0,120,120,159,644.3853771686554,,,,,,,,,,,,,,,,,,,,,,,,,,,,,,,,,,,,,,,,,,,,,,,,,,,,,,,,,,,,,,,,,,,,,,,,,,,,,,,,,57.08057351140081,95.10208831101471,159.82214140365207,179.11301367150566,125.95924512330453,187.1732309000634,2.2,2.22,-233,270,0,-263,279,-288,644.3664772510529,644.3666110038757,644.3699111938477,644.3853771686554,644.5373818874359,644.5373818874359,644.5373818874359,644.5373818874359,644.5373818874359,644.5373818874359,644.5373818874359,645.6634449958801,2,1.2677438259124756,None,,,,,,,,,,,,,,,,,,233,2,2025-03-11_16h10.39.300,comp,2024.2.4,57.324921549546794,2025-03-11 16h10.55.060858 -0400,
121,121,0,critical,wdh,20.0,3.0,upper,125.0,200.0,141.0,141.0,200.0,125.0,1,1.4682819843292236,None,,,,,0,0,0,0,0,121,121,81,645.6809315681458,,,,,,,,,,,,,,,,,,,,,,,,,,,,,,,,,,,,,,,,,,,,,,,,,,,,,,,,,,,,,,,,,,,,,,,,,,,,,,,,,125.0,200.0,141.0,141.0,200.0,125.0,3.0,3.2,-266,-268,0,14,229,271,645.6649971008301,645.6650719642639,645.6681666374207,645.6809315681458,645.8322968482971,645.8322968482971,645.8322968482971,645.8322968482971,645.8322968482971,645.8322968482971,645.8322968482971,647.1659018993378,1,1.4682819843292236,None,,,,,,,,,,,,,,,,,,233,2,2025-03-11_16h10.39.300,comp,2024.2.4,57.324921549546794,2025-03-11 16h10.55.060858 -0400,
122,122,0,filler_square,None,None,None,None,None,None,None,None,None,None,1,5.75094747543335,None,,,,,0,0,0,0,0,122,122,206,647.1822283267975,,,,,,,,,,,,,,,,,,,,,,,,,,,,,,,,,,,,,,,,,,,,,,,,,,,,,,,,,,,,,,,,,,,,,,,,,,,,,,,,,120.07053002369534,120.07053002369534,115.4729634827976,97.57175811644457,89.07484655352489,69.9870064851962,4.0,4.1,-205,-284,0,18,180,-280,647.1679627895355,647.1680898666382,647.1719708442688,647.1822283267975,647.3293018341064,647.3293018341064,647.3293018341064,647.3293018341064,647.3293018341064,647.3293018341064,647.3293018341064,652.949934720993,1,5.75094747543335,None,,,,,,,,,,,,,,,,,,233,2,2025-03-11_16h10.39.300,comp,2024.2.4,57.324921549546794,2025-03-11 16h10.55.060858 -0400,
123,123,0,critical,dwh,35.0,3.0,upper,127.0,127.0,125.0,200.0,200.0,125.0,2,1.82517409324646,None,,,,,0,0,0,0,0,123,123,63,652.9652769565582,,,,,,,,,,,,,,,,,,,,,,,,,,,,,,,,,,,,,,,,,,,,,,,,,,,,,,,,,,,,,,,,,,,,,,,,,,,,,,,,,127.0,127.0,125.0,200.0,200.0,125.0,3.0,3.2,-260,-259,0,10,258,287,652.9514722824097,652.9515516757965,652.9550256729126,652.9652769565582,653.1150326728821,653.1150326728821,653.1150326728821,653.1150326728821,653.1150326728821,653.1150326728821,653.1150326728821,654.8013730049133,2,1.82517409324646,None,,,,,,,,,,,,,,,,,,233,2,2025-03-11_16h10.39.300,comp,2024.2.4,57.324921549546794,2025-03-11 16h10.55.060858 -0400,
124,124,0,filler_random,None,None,None,None,None,None,None,None,None,None,3,1.8519432544708252,None,,,,,0,0,0,0,0,124,124,152,654.8172423839569,,,,,,,,,,,,,,,,,,,,,,,,,,,,,,,,,,,,,,,,,,,,,,,,,,,,,,,,,,,,,,,,,,,,,,,,,,,,,,,,,60.81290062713768,104.74051241337645,114.93196041912745,152.67089260134685,86.70412912768916,180.03769339985496,4.0,4.2,-225,7,0,-280,262,12,654.8030912876129,654.8031690120697,654.806468963623,654.8172423839569,654.9705998897552,654.9705998897552,654.9705998897552,654.9705998897552,654.9705998897552,654.9705998897552,654.9705998897552,656.6882584095001,3,1.8519432544708252,None,,,,,,,,,,,,,,,,,,233,2,2025-03-11_16h10.39.300,comp,2024.2.4,57.324921549546794,2025-03-11 16h10.55.060858 -0400,
125,125,0,critical,whd,20.0,4.0,upper,125.0,200.0,200.0,125.0,141.0,141.0,1,1.8259539604187012,None,,,,,0,0,0,0,0,125,125,95,656.7081007957458,,,,,,,,,,,,,,,,,,,,,,,,,,,,,,,,,,,,,,,,,,,,,,,,,,,,,,,,,,,,,,,,,,,,,,,,,,,,,,,,,125.0,200.0,200.0,125.0,141.0,141.0,4.0,4.1,-258,-282,0,14,229,-258,656.6898076534271,656.6898899078369,656.6933705806732,656.7081007957458,656.85089635849,656.85089635849,656.85089635849,656.85089635849,656.85089635849,656.85089635849,656.85089635849,658.5409400463104,1,1.8259539604187012,None,,,,,,,,,,,,,,,,,,233,2,2025-03-11_16h10.39.300,comp,2024.2.4,57.324921549546794,2025-03-11 16h10.55.060858 -0400,
126,126,0,filler_random,None,None,None,None,None,None,None,None,None,None,3,0.9608068466186523,None,,,,,0,0,0,0,0,126,126,135,658.5562994480133,,,,,,,,,,,,,,,,,,,,,,,,,,,,,,,,,,,,,,,,,,,,,,,,,,,,,,,,,,,,,,,,,,,,,,,,,,,,,,,,,68.79556915990415,116.74213824312714,103.41410698057443,181.68292447114862,140.6397422691122,186.72143406162394,1.0,1.2,-245,-7,0,9,280,-9,658.542521238327,658.5425989627838,658.5455675125122,658.5562994480133,658.7032217979431,658.7032217979431,658.7032217979431,658.7032217979431,658.7032217979431,658.7032217979431,658.7032217979431,659.5311651229858,3,0.9608068466186523,None,,,,,,,,,,,,,,,,,,233,2,2025-03-11_16h10.39.300,comp,2024.2.4,57.324921549546794,2025-03-11 16h10.55.060858 -0400,
127,127,0,filler_square,None,None,None,None,None,None,None,None,None,None,1,1.0638751983642578,None,,,,,0,0,0,0,0,127,127,182,659.5494587421417,,,,,,,,,,,,,,,,,,,,,,,,,,,,,,,,,,,,,,,,,,,,,,,,,,,,,,,,,,,,,,,,,,,,,,,,,,,,,,,,,133.95603385462644,133.95603385462644,70.4680128976944,123.38539641516995,83.35754328164974,102.69085766553376,4.0,4.1,-225,-261,0,-13,209,-278,659.5330724716187,659.5331492424011,659.5364282131195,659.5494587421417,659.6859264373779,659.6859264373779,659.6859264373779,659.6859264373779,659.6859264373779,659.6859264373779,659.6859264373779,660.6176836490631,1,1.0638751983642578,None,,,,,,,,,,,,,,,,,,233,2,2025-03-11_16h10.39.300,comp,2024.2.4,57.324921549546794,2025-03-11 16h10.55.060858 -0400,
128,128,0,critical,dwh,20.0,1.0,lower,78.0,78.0,57.0,133.0,133.0,57.0,1,6.491216659545898,None,,,,,0,0,0,0,0,128,128,66,660.6339683532715,,,,,,,,,,,,,,,,,,,,,,,,,,,,,,,,,,,,,,,,,,,,,,,,,,,,,,,,,,,,,,,,,,,,,,,,,,,,,,,,,78.0,78.0,57.0,133.0,133.0,57.0,1.0,1.2,-202,17,0,15,191,8,660.6191773414612,660.6192536354065,660.6222364902496,660.6339683532715,660.7881381511688,660.7881381511688,660.7881381511688,660.7881381511688,660.7881381511688,660.7881381511688,660.7881381511688,667.1363835334778,1,6.491216659545898,None,,,,,,,,,,,,,,,,,,233,2,2025-03-11_16h10.39.300,comp,2024.2.4,57.324921549546794,2025-03-11 16h10.55.060858 -0400,
129,129,0,critical,wdh,35.0,2.1,lower,57.0,133.0,70.0,70.0,133.0,57.0,3,2.0128540992736816,None,,,,,0,0,0,0,0,129,129,32,667.1527342796326,,,,,,,,,,,,,,,,,,,,,,,,,,,,,,,,,,,,,,,,,,,,,,,,,,,,,,,,,,,,,,,,,,,,,,,,,,,,,,,,,57.0,133.0,70.0,70.0,133.0,57.0,2.1,2.12,-198,-288,0,-263,160,253,667.1378955841064,667.1379706859589,667.1409547328949,667.1527342796326,667.3009159564972,667.3009159564972,667.3009159564972,667.3009159564972,667.3009159564972,667.3009159564972,667.3009159564972,669.1715683937073,3,2.0128540992736816,None,,,,,,,,,,,,,,,,,,233,2,2025-03-11_16h10.39.300,comp,2024.2.4,57.324921549546794,2025-03-11 16h10.55.060858 -0400,
130,130,0,catch,None,None,None,None,None,None,None,None,None,None,1,1.1616919040679932,None,,,,,0,0,0,0,0,130,130,126,669.1877319812775,,,,,,,,,,,,,,,,,,,,,,,,,,,,,,,,,,,,,,,,,,,,,,,,,,,,,,,,,,,,,,,,,,,,,,,,,,,,,,,,,143,182,130,60,61,129,2.1,2.12,-217,-251,0,-258,190,262,669.1734607219696,669.173538684845,669.1768102645874,669.1877319812775,669.3401064872742,669.3401064872742,669.3401064872742,669.3401064872742,669.3401064872742,669.3401064872742,669.3401064872742,670.3584785461426,1,1.1616919040679932,None,,,,,,,,,,,,,,,,,,233,2,2025-03-11_16h10.39.300,comp,2024.2.4,57.324921549546794,2025-03-11 16h10.55.060858 -0400,
131,131,0,critical,dwh,35.0,4.0,upper,127.0,127.0,125.0,200.0,200.0,125.0,3,2.060971736907959,None,,,,,0,0,0,0,0,131,131,65,670.3768916130066,,,,,,,,,,,,,,,,,,,,,,,,,,,,,,,,,,,,,,,,,,,,,,,,,,,,,,,,,,,,,,,,,,,,,,,,,,,,,,,,,127.0,127.0,125.0,200.0,200.0,125.0,4.0,4.1,-260,-260,0,15,258,-255,670.3600227832794,670.36013007164,670.3635747432709,670.3768916130066,670.5222363471985,670.5222363471985,670.5222363471985,670.5222363471985,670.5222363471985,670.5222363471985,670.5222363471985,672.4444162845612,3,2.060971736907959,None,,,,,,,,,,,,,,,,,,233,2,2025-03-11_16h10.39.300,comp,2024.2.4,57.324921549546794,2025-03-11 16h10.55.060858 -0400,
132,132,0,critical,dwh,20.0,4.0,lower,78.0,78.0,57.0,133.0,133.0,57.0,1,1.5682916641235352,None,,,,,0,0,0,0,0,132,132,70,672.4608314037323,,,,,,,,,,,,,,,,,,,,,,,,,,,,,,,,,,,,,,,,,,,,,,,,,,,,,,,,,,,,,,,,,,,,,,,,,,,,,,,,,78.0,78.0,57.0,133.0,133.0,57.0,4.0,4.1,-202,-278,0,-5,191,-255,672.4462757110596,672.4463529586792,672.4492750167847,672.4608314037323,672.6084923744202,672.6084923744202,672.6084923744202,672.6084923744202,672.6084923744202,672.6084923744202,672.6084923744202,674.0382177829742,1,1.5682916641235352,None,,,,,,,,,,,,,,,,,,233,2,2025-03-11_16h10.39.300,comp,2024.2.4,57.324921549546794,2025-03-11 16h10.55.060858 -0400,
133,133,0,critical,wdh,20.0,2.1,upper,125.0,200.0,141.0,141.0,200.0,125.0,2,3.2802164554595947,None,,,,,0,0,0,0,0,133,133,11,674.0536835193634,,,,,,,,,,,,,,,,,,,,,,,,,,,,,,,,,,,,,,,,,,,,,,,,,,,,,,,,,,,,,,,,,,,,,,,,,,,,,,,,,125.0,200.0,141.0,141.0,200.0,125.0,2.1,2.11,-266,251,0,263,229,-259,674.0396404266357,674.0397157669067,674.0426173210144,674.0536835193634,674.2058126926422,674.2058126926422,674.2058126926422,674.2058126926422,674.2058126926422,674.2058126926422,674.2058126926422,677.3412742614746,2,3.2802164554595947,None,,,,,,,,,,,,,,,,,,233,2,2025-03-11_16h10.39.300,comp,2024.2.4,57.324921549546794,2025-03-11 16h10.55.060858 -0400,
134,134,0,filler_random,None,None,None,None,None,None,None,None,None,None,3,10.68025803565979,None,,,,,0,0,0,0,0,134,134,136,677.357438325882,,,,,,,,,,,,,,,,,,,,,,,,,,,,,,,,,,,,,,,,,,,,,,,,,,,,,,,,,,,,,,,,,,,,,,,,,,,,,,,,,69.57874582849468,131.99466312205874,129.98101390910148,141.5041853538683,177.27458706042125,124.65759313282973,3.0,3.1,-233,256,0,17,229,-264,677.3430762290955,677.343154668808,677.3465642929077,677.357438325882,677.5136992931366,677.5136992931366,677.5136992931366,677.5136992931366,677.5136992931366,677.5136992931366,677.5136992931366,688.0452263355255,3,10.68025803565979,None,,,,,,,,,,,,,,,,,,233,2,2025-03-11_16h10.39.300,comp,2024.2.4,57.324921549546794,2025-03-11 16h10.55.060858 -0400,
135,135,0,filler_square,None,None,None,None,None,None,None,None,None,None,3,1.2247724533081055,None,,,,,0,0,0,0,0,135,135,181,688.06116938591,,,,,,,,,,,,,,,,,,,,,,,,,,,,,,,,,,,,,,,,,,,,,,,,,,,,,,,,,,,,,,,,,,,,,,,,,,,,,,,,,117.6995306413352,62.37136677886833,102.32914416044049,63.87199428408604,167.67569564542845,167.67569564542845,4.0,4.2,-159,15,0,-265,212,18,688.046984910965,688.0470623970032,688.0503571033478,688.06116938591,688.2092573642731,688.2092573642731,688.2092573642731,688.2092573642731,688.2092573642731,688.2092573642731,688.2092573642731,689.2939071655273,3,1.2247724533081055,None,,,,,,,,,,,,,,,,,,233,2,2025-03-11_16h10.39.300,comp,2024.2.4,57.324921549546794,2025-03-11 16h10.55.060858 -0400,
136,136,0,filler_square,None,None,None,None,None,None,None,None,None,None,3,1.302532434463501,None,,,,,0,0,0,0,0,136,136,171,689.3105688095093,,,,,,,,,,,,,,,,,,,,,,,,,,,,,,,,,,,,,,,,,,,,,,,,,,,,,,,,,,,,,,,,,,,,,,,,,,,,,,,,,79.4081908845455,71.9403121634863,76.90964324378754,81.67688122104238,86.45887680564871,86.45887680564871,3.0,3.2,-173,-255,0,18,180,250,689.2956626415253,689.2957377433777,689.2989201545715,689.3105688095093,689.4611372947693,689.4611372947693,689.4611372947693,689.4611372947693,689.4611372947693,689.4611372947693,689.4611372947693,690.6278398036957,3,1.302532434463501,None,,,,,,,,,,,,,,,,,,233,2,2025-03-11_16h10.39.300,comp,2024.2.4,57.324921549546794,2025-03-11 16h10.55.060858 -0400,
137,137,0,catch,None,None,None,None,None,None,None,None,None,None,1,1.2795219421386719,None,,,,,0,0,0,0,0,137,137,124,690.6455512046814,,,,,,,,,,,,,,,,,,,,,,,,,,,,,,,,,,,,,,,,,,,,,,,,,,,,,,,,,,,,,,,,,,,,,,,,,,,,,,,,,155,170,84,106,79,111,2.1,2.11,-234,255,0,282,204,-277,690.6300027370453,690.6300766468048,690.6334118843079,690.6455512046814,690.8024635314941,690.8024635314941,690.8024635314941,690.8024635314941,690.8024635314941,690.8024635314941,690.8024635314941,691.9295666217804,1,1.2795219421386719,None,,,,,,,,,,,,,,,,,,233,2,2025-03-11_16h10.39.300,comp,2024.2.4,57.324921549546794,2025-03-11 16h10.55.060858 -0400,
138,138,0,filler_square,None,None,None,None,None,None,None,None,None,None,1,1.338665246963501,None,,,,,0,0,0,0,0,138,138,201,691.9463472366333,,,,,,,,,,,,,,,,,,,,,,,,,,,,,,,,,,,,,,,,,,,,,,,,,,,,,,,,,,,,,,,,,,,,,,,,,,,,,,,,,163.2701069198621,163.2701069198621,86.6459739430862,93.5443346112528,117.37234362601312,157.77448622568636,1.0,1.3,256,-267,480,-266,702,-285,691.9314315319061,691.9315094947815,691.9355292320251,691.9463472366333,692.0973429679871,692.0973429679871,692.0973429679871,692.0973429679871,692.0973429679871,692.0973429679871,692.0973429679871,693.3027007579803,1,1.338665246963501,None,,,,,,,,,,,,,,,,,,233,2,2025-03-11_16h10.39.300,comp,2024.2.4,57.324921549546794,2025-03-11 16h10.55.060858 -0400,
139,139,0,critical,hdw,35.0,2.1,upper,200.0,125.0,127.0,127.0,125.0,200.0,3,2.122959852218628,None,,,,,0,0,0,0,0,139,139,45,693.3224565982819,,,,,,,,,,,,,,,,,,,,,,,,,,,,,,,,,,,,,,,,,,,,,,,,,,,,,,,,,,,,,,,,,,,,,,,,,,,,,,,,,200.0,125.0,127.0,127.0,125.0,200.0,2.1,2.11,-222,272,0,276,260,-290,693.304176568985,693.3042507171631,693.3072309494019,693.3224565982819,693.4596025943756,693.4596025943756,693.4596025943756,693.4596025943756,693.4596025943756,693.4596025943756,693.4596025943756,695.4535579681396,3,2.122959852218628,None,,,,,,,,,,,,,,,,,,233,2,2025-03-11_16h10.39.300,comp,2024.2.4,57.324921549546794,2025-03-11 16h10.55.060858 -0400,
140,140,0,critical,hdw,20.0,4.0,lower,133.0,57.0,78.0,78.0,57.0,133.0,3,3.268235445022583,None,,,,,0,0,0,0,0,140,140,118,695.4737629890442,,,,,,,,,,,,,,,,,,,,,,,,,,,,,,,,,,,,,,,,,,,,,,,,,,,,,,,,,,,,,,,,,,,,,,,,,,,,,,,,,133.0,57.0,78.0,78.0,57.0,133.0,4.0,4.1,-164,-261,0,-10,202,-271,695.4550828933716,695.4551651477814,695.4580776691437,695.4737629890442,695.615051984787,695.615051984787,695.615051984787,695.615051984787,695.615051984787,695.615051984787,695.615051984787,698.7481744289398,3,3.268235445022583,None,,,,,,,,,,,,,,,,,,233,2,2025-03-11_16h10.39.300,comp,2024.2.4,57.324921549546794,2025-03-11 16h10.55.060858 -0400,
