thisN,thisTrialN,thisRepN,effect,order,distance,config,diag,h_1,w_1,h_2,w_2,h_3,w_3,rect_choice.keys,rect_choice.rt,rect_choice.duration,instructions_loop.thisRepN,instructions_loop.thisTrialN,instructions_loop.thisN,instructions_loop.thisIndex,blocks.thisRepN,blocks.thisTrialN,blocks.thisN,blocks.thisIndex,trials.thisRepN,trials.thisTrialN,trials.thisN,trials.thisIndex,thisRow.t,notes,consent.started,agree_button.started,decline_button.started,consent_img.started,mouse.started,consent.stopped,agree_button.numClicks,agree_button.timesOn,agree_button.timesOff,decline_button.numClicks,decline_button.timesOn,decline_button.timesOff,mouse.x,mouse.y,mouse.leftButton,mouse.midButton,mouse.rightButton,mouse.time,mouse.clicked_name,exp_params.started,exp_params.stopped,welcome.started,welcome_text.started,welcome.stopped,instructions_1.started,instructions_1_text_1.started,instructions_1_text_2.started,key_resp.started,instructions_1.stopped,instructions_loop.key_resp.keys,instructions_loop.key_resp.rt,instructions_loop.key_resp.duration,instructions_2.started,instructions_2_text_1.started,instructions_2_text_2.started,key_resp_2.started,instructions_2.stopped,instructions_loop.key_resp_2.keys,instructions_loop.key_resp_2.rt,instructions_loop.key_resp_2.duration,instructions_3.started,instructions_3_text_1.started,r1_instr3.started,r2_instr3.started,r3_instr3.started,r1_instr3_label.started,r2_instr3_label.started,r3_instr3_label.started,instructions_3_text_3.started,instructions_3_text_4.started,key_resp_3.started,instructions_3.stopped,instructions_loop.key_resp_3.keys,instructions_loop.key_resp_3.rt,instructions_loop.key_resp_3.duration,instructions_4.started,instructions_4_text_1.started,instructions_4_text_3.started,instructions_4_text_2.started,key_resp_4.started,instructions_4.stopped,instructions_loop.key_resp_4.keys,instructions_loop.key_resp_4.rt,instructions_loop.key_resp_4.duration,instructions_5.started,instructions_5_text_1.started,instructions_5_text_2.started,key_resp_5.started,instructions_5.stopped,instructions_loop.key_resp_5.keys,instructions_loop.key_resp_5.rt,instructions_loop.key_resp_5.duration,start_exp.started,start_exp_text.started,key_resp_6.started,start_exp.stopped,key_resp_6.keys,key_resp_6.rt,key_resp_6.duration,h_1_tmp,w_1_tmp,h_2_tmp,w_2_tmp,h_3_tmp,w_3_tmp,config_tmp,config_tmp_1,r_1_x,r_1_y,r_2_x,r_2_y,r_3_x,r_3_y,pre_trial.started,pre_trial.stopped,choice_trial.started,rect_choice.started,r_1.started,r_2.started,r_3.started,r_1_label.started,r_2_label.started,r_3_label.started,prompt.started,choice_trial.stopped,trials.rect_choice.keys,trials.rect_choice.rt,trials.rect_choice.duration,end_block.started,end_block_text.started,end_block.stopped,end.started,end_text.started,key_resp_7.started,end.stopped,key_resp_7.keys,key_resp_7.rt,key_resp_7.duration,debriefing.started,debrief_form.started,end_debrief.started,debriefing.stopped,end_debrief.keys,end_debrief.rt,end_debrief.duration,participant,computer,date,expName,psychopyVersion,frameRate,expStart,
,,,,,,,,,,,,,,,,,,,,,,,,,,,,,,,0.015896081924438477,0.03342318534851074,0.03342318534851074,0.03342318534851074,0.01566457748413086,40.846864223480225,1,[40.81056356430054],[40.810587882995605],0,,,[-74.0],[-503.0],[1],[0],[0],[40.83037185668945],['agree_button'],,,,,,,,,,,,,,,,,,,,,,,,,,,,,,,,,,,,,,,,,,,,,,,,,,,,,,,,,,,,,,,,,,,,,,,,,,,,,,,,,,,,,,,,,,,,,,,,,,,,,,,,,,,234,1,2025-03-12_11h28.31.951,comp,2024.2.4,57.43356045833972,2025-03-12 11h28.50.285938 -0400,
,,,,,,,,,,,,,,,,,,,,,,,,,,,,,,,,,,,,,,,,,,,,,,,,,,40.84740424156189,40.847471475601196,,,,,,,,,,,,,,,,,,,,,,,,,,,,,,,,,,,,,,,,,,,,,,,,,,,,,,,,,,,,,,,,,,,,,,,,,,,,,,,,,,,,,,,,,,,,,,,,,,,,,,,,,234,1,2025-03-12_11h28.31.951,comp,2024.2.4,57.43356045833972,2025-03-12 11h28.50.285938 -0400,
,,,,,,,,,,,,,,,,,,,,,,,,,,,,,,,,,,,,,,,,,,,,,,,,,,,,40.84751558303833,40.865675926208496,42.85917687416077,,,,,,,,,,,,,,,,,,,,,,,,,,,,,,,,,,,,,,,,,,,,,,,,,,,,,,,,,,,,,,,,,,,,,,,,,,,,,,,,,,,,,,,,,,,,,,,,,,,,,,234,1,2025-03-12_11h28.31.951,comp,2024.2.4,57.43356045833972,2025-03-12 11h28.50.285938 -0400,
0,0,0,,,,,,,,,,,,,,,0,0,0,0,,,,,,,,,42.87623071670532,,,,,,,,,,,,,,,,,,,,,,,,,,42.860076665878296,42.87623071670532,42.87623071670532,44.35945749282837,48.42942523956299,space,4.063087463378906,None,48.429579973220825,48.445765256881714,48.445765256881714,49.928175926208496,61.01639652252197,space,11.078639030456543,None,61.01655316352844,61.045259952545166,61.045259952545166,61.045259952545166,61.045259952545166,61.045259952545166,61.045259952545166,61.045259952545166,61.045259952545166,61.045259952545166,62.51891803741455,67.58379483222961,space,5.047022819519043,None,67.58395624160767,67.60247683525085,67.60247683525085,67.60247683525085,69.09849572181702,76.87131452560425,space,7.766203165054321,None,76.87147212028503,76.88735485076904,76.88735485076904,78.38339185714722,80.72190618515015,space,2.3353426456451416,None,80.72211599349976,80.73791646957397,80.73791646957397,82.3386173248291,space,1.5981659889221191,None,,,,,,,,,,,,,,,,,,,,,,,,,,,,,,,,,,,,,,,,,,,,,,,234,1,2025-03-12_11h28.31.951,comp,2024.2.4,57.43356045833972,2025-03-12 11h28.50.285938 -0400,
0,0,0,filler_random,None,None,None,None,None,None,None,None,None,None,1,1.210921287536621,None,,,,,0,0,0,0,0,0,0,147,82.41906332969666,,,,,,,,,,,,,,,,,,,,,,,,,,,,,,,,,,,,,,,,,,,,,,,,,,,,,,,,,,,,,,,,,,,,,,,,,,,,,,,,,119.64068072456126,133.97961315376386,58.338759165309035,66.50813866612313,95.95950593495914,82.1307323351067,2.2,2.21,-196,-262,0,265,170,261,82.40193819999695,82.40199184417725,82.40386009216309,82.41906332969666,82.56633687019348,82.56633687019348,82.56633687019348,82.56633687019348,82.56633687019348,82.56633687019348,82.56633687019348,83.64216136932373,1,1.210921287536621,None,,,,,,,,,,,,,,,,,,234,1,2025-03-12_11h28.31.951,comp,2024.2.4,57.43356045833972,2025-03-12 11h28.50.285938 -0400,
1,1,0,critical,hwd,20.0,2.1,lower,133.0,57.0,57.0,133.0,78.0,78.0,2,3.7632884979248047,None,,,,,0,0,0,0,0,1,1,18,83.66011047363281,,,,,,,,,,,,,,,,,,,,,,,,,,,,,,,,,,,,,,,,,,,,,,,,,,,,,,,,,,,,,,,,,,,,,,,,,,,,,,,,,133.0,57.0,57.0,133.0,78.0,78.0,2.1,2.11,-191,267,0,254,202,-264,83.64383101463318,83.64391231536865,83.64697074890137,83.66011047363281,83.80624485015869,83.80624485015869,83.80624485015869,83.80624485015869,83.80624485015869,83.80624485015869,83.80624485015869,87.42917799949646,2,3.7632884979248047,None,,,,,,,,,,,,,,,,,,234,1,2025-03-12_11h28.31.951,comp,2024.2.4,57.43356045833972,2025-03-12 11h28.50.285938 -0400,
2,2,0,catch,None,None,None,None,None,None,None,None,None,None,1,1.881314992904663,None,,,,,0,0,0,0,0,2,2,126,87.44601464271545,,,,,,,,,,,,,,,,,,,,,,,,,,,,,,,,,,,,,,,,,,,,,,,,,,,,,,,,,,,,,,,,,,,,,,,,,,,,,,,,,135,190,58,132,111,79,2.2,2.22,-257,254,0,-274,202,-266,87.43138885498047,87.43148493766785,87.43504524230957,87.44601464271545,87.59451794624329,87.59451794624329,87.59451794624329,87.59451794624329,87.59451794624329,87.59451794624329,87.59451794624329,89.33760976791382,1,1.881314992904663,None,,,,,,,,,,,,,,,,,,234,1,2025-03-12_11h28.31.951,comp,2024.2.4,57.43356045833972,2025-03-12 11h28.50.285938 -0400,
3,3,0,filler_square,None,None,None,None,None,None,None,None,None,None,3,1.8287034034729004,None,,,,,0,0,0,0,0,3,3,186,89.35406112670898,,,,,,,,,,,,,,,,,,,,,,,,,,,,,,,,,,,,,,,,,,,,,,,,,,,,,,,,,,,,,,,,,,,,,,,,,,,,,,,,,126.83861503230564,149.3868964950689,140.50894758919074,156.62935345249727,160.62185683520397,160.62185683520397,4.0,4.2,-249,-4,0,-253,255,9,89.33945274353027,89.33952975273132,89.34240579605103,89.35406112670898,89.49554204940796,89.49554204940796,89.49554204940796,89.49554204940796,89.49554204940796,89.49554204940796,89.49554204940796,91.19152474403381,3,1.8287034034729004,None,,,,,,,,,,,,,,,,,,234,1,2025-03-12_11h28.31.951,comp,2024.2.4,57.43356045833972,2025-03-12 11h28.50.285938 -0400,
4,4,0,critical,hdw,35.0,1.0,lower,133.0,57.0,70.0,70.0,57.0,133.0,2,3.4295918941497803,None,,,,,0,0,0,0,0,4,4,108,91.20930361747742,,,,,,,,,,,,,,,,,,,,,,,,,,,,,,,,,,,,,,,,,,,,,,,,,,,,,,,,,,,,,,,,,,,,,,,,,,,,,,,,,133.0,57.0,70.0,70.0,57.0,133.0,1.0,1.2,-160,20,0,3,198,-17,91.19321727752686,91.19334650039673,91.19674301147461,91.20930361747742,91.35949563980103,91.35949563980103,91.35949563980103,91.35949563980103,91.35949563980103,91.35949563980103,91.35949563980103,94.6432592868805,2,3.4295918941497803,None,,,,,,,,,,,,,,,,,,234,1,2025-03-12_11h28.31.951,comp,2024.2.4,57.43356045833972,2025-03-12 11h28.50.285938 -0400,
5,5,0,critical,hdw,35.0,3.0,upper,200.0,125.0,127.0,127.0,125.0,200.0,3,4.075466632843018,None,,,,,0,0,0,0,0,5,5,111,94.65952277183533,,,,,,,,,,,,,,,,,,,,,,,,,,,,,,,,,,,,,,,,,,,,,,,,,,,,,,,,,,,,,,,,,,,,,,,,,,,,,,,,,200.0,125.0,127.0,127.0,125.0,200.0,3.0,3.1,-222,252,0,-14,260,-268,94.64494609832764,94.64507865905762,94.64853119850159,94.65952277183533,94.81377458572388,94.81377458572388,94.81377458572388,94.81377458572388,94.81377458572388,94.81377458572388,94.81377458572388,98.74672961235046,3,4.075466632843018,None,,,,,,,,,,,,,,,,,,234,1,2025-03-12_11h28.31.951,comp,2024.2.4,57.43356045833972,2025-03-12 11h28.50.285938 -0400,
6,6,0,catch,None,None,None,None,None,None,None,None,None,None,2,1.2907636165618896,None,,,,,0,0,0,0,0,6,6,129,98.76427435874939,,,,,,,,,,,,,,,,,,,,,,,,,,,,,,,,,,,,,,,,,,,,,,,,,,,,,,,,,,,,,,,,,,,,,,,,,,,,,,,,,100,90,130,195,107,83,3.0,3.2,-238,-274,0,-8,235,282,98.74897646903992,98.74905920028687,98.75259685516357,98.76427435874939,98.9122884273529,98.9122884273529,98.9122884273529,98.9122884273529,98.9122884273529,98.9122884273529,98.9122884273529,100.060870885849,2,1.2907636165618896,None,,,,,,,,,,,,,,,,,,234,1,2025-03-12_11h28.31.951,comp,2024.2.4,57.43356045833972,2025-03-12 11h28.50.285938 -0400,
7,7,0,critical,dwh,20.0,1.0,lower,78.0,78.0,57.0,133.0,133.0,57.0,2,2.952925443649292,None,,,,,0,0,0,0,0,7,7,66,100.07696843147278,,,,,,,,,,,,,,,,,,,,,,,,,,,,,,,,,,,,,,,,,,,,,,,,,,,,,,,,,,,,,,,,,,,,,,,,,,,,,,,,,78.0,78.0,57.0,133.0,133.0,57.0,1.0,1.2,-202,-3,0,-2,191,15,100.06240940093994,100.06248950958252,100.06592130661011,100.07696843147278,100.23014068603516,100.23014068603516,100.23014068603516,100.23014068603516,100.23014068603516,100.23014068603516,100.23014068603516,103.04880690574646,2,2.952925443649292,None,,,,,,,,,,,,,,,,,,234,1,2025-03-12_11h28.31.951,comp,2024.2.4,57.43356045833972,2025-03-12 11h28.50.285938 -0400,
8,8,0,critical,whd,20.0,3.0,lower,57.0,133.0,133.0,57.0,78.0,78.0,2,2.6180102825164795,None,,,,,0,0,0,0,0,8,8,92,103.06884503364563,,,,,,,,,,,,,,,,,,,,,,,,,,,,,,,,,,,,,,,,,,,,,,,,,,,,,,,,,,,,,,,,,,,,,,,,,,,,,,,,,57.0,133.0,133.0,57.0,78.0,78.0,3.0,3.1,-191,265,0,6,164,-282,103.0504059791565,103.05048489570618,103.05405068397522,103.06884503364563,103.21275281906128,103.21275281906128,103.21275281906128,103.21275281906128,103.21275281906128,103.21275281906128,103.21275281906128,105.69642519950867,2,2.6180102825164795,None,,,,,,,,,,,,,,,,,,234,1,2025-03-12_11h28.31.951,comp,2024.2.4,57.43356045833972,2025-03-12 11h28.50.285938 -0400,
9,9,0,filler_random,None,None,None,None,None,None,None,None,None,None,1,2.4191973209381104,None,,,,,0,0,0,0,0,9,9,150,105.714759349823,,,,,,,,,,,,,,,,,,,,,,,,,,,,,,,,,,,,,,,,,,,,,,,,,,,,,,,,,,,,,,,,,,,,,,,,,,,,,,,,,150.30090756199482,111.44739784205763,97.99654891423364,77.19789996148538,194.30519537958278,82.0694451930355,4.0,4.1,-190,-277,0,-15,176,-259,105.69824647903442,105.69838309288025,105.70156788825989,105.714759349823,105.84876036643982,105.84876036643982,105.84876036643982,105.84876036643982,105.84876036643982,105.84876036643982,105.84876036643982,108.1473159790039,1,2.4191973209381104,None,,,,,,,,,,,,,,,,,,234,1,2025-03-12_11h28.31.951,comp,2024.2.4,57.43356045833972,2025-03-12 11h28.50.285938 -0400,
10,10,0,critical,wdh,35.0,4.0,lower,57.0,133.0,70.0,70.0,133.0,57.0,1,4.746734142303467,None,,,,,0,0,0,0,0,10,10,76,108.16321754455566,,,,,,,,,,,,,,,,,,,,,,,,,,,,,,,,,,,,,,,,,,,,,,,,,,,,,,,,,,,,,,,,,,,,,,,,,,,,,,,,,57.0,133.0,70.0,70.0,133.0,57.0,4.0,4.2,-198,13,0,-287,160,-17,108.14893698692322,108.1490125656128,108.15247941017151,108.16321754455566,108.31308126449585,108.31308126449585,108.31308126449585,108.31308126449585,108.31308126449585,108.31308126449585,108.31308126449585,112.92103433609009,1,4.746734142303467,None,,,,,,,,,,,,,,,,,,234,1,2025-03-12_11h28.31.951,comp,2024.2.4,57.43356045833972,2025-03-12 11h28.50.285938 -0400,
11,11,0,critical,dhw,20.0,3.0,lower,78.0,78.0,133.0,57.0,57.0,133.0,3,2.6279609203338623,None,,,,,0,0,0,0,0,11,11,56,112.93797993659973,,,,,,,,,,,,,,,,,,,,,,,,,,,,,,,,,,,,,,,,,,,,,,,,,,,,,,,,,,,,,,,,,,,,,,,,,,,,,,,,,78.0,78.0,133.0,57.0,57.0,133.0,3.0,3.1,-164,274,0,8,191,-276,112.92258334159851,112.92268180847168,112.92654991149902,112.93797993659973,113.08609676361084,113.08609676361084,113.08609676361084,113.08609676361084,113.08609676361084,113.08609676361084,113.08609676361084,115.58483457565308,3,2.6279609203338623,None,,,,,,,,,,,,,,,,,,234,1,2025-03-12_11h28.31.951,comp,2024.2.4,57.43356045833972,2025-03-12 11h28.50.285938 -0400,
12,12,0,filler_square,None,None,None,None,None,None,None,None,None,None,3,4.397420644760132,None,,,,,0,0,0,0,0,12,12,193,115.60162901878357,,,,,,,,,,,,,,,,,,,,,,,,,,,,,,,,,,,,,,,,,,,,,,,,,,,,,,,,,,,,,,,,,,,,,,,,,,,,,,,,,136.13155642795112,116.1400678203382,187.838746770051,174.7948810038651,188.9214175044148,188.9214175044148,1.0,1.1,-721,267,-480,250,-202,270,115.5867874622345,115.5868661403656,115.5910918712616,115.60162901878357,115.7568666934967,115.7568666934967,115.7568666934967,115.7568666934967,115.7568666934967,115.7568666934967,115.7568666934967,120.01677656173706,3,4.397420644760132,None,,,,,,,,,,,,,,,,,,234,1,2025-03-12_11h28.31.951,comp,2024.2.4,57.43356045833972,2025-03-12 11h28.50.285938 -0400,
13,13,0,catch,None,None,None,None,None,None,None,None,None,None,1,2.2841811180114746,None,,,,,0,0,0,0,0,13,13,124,120.03470253944397,,,,,,,,,,,,,,,,,,,,,,,,,,,,,,,,,,,,,,,,,,,,,,,,,,,,,,,,,,,,,,,,,,,,,,,,,,,,,,,,,148,177,81,109,109,81,4.0,4.2,-239,-3,0,-269,191,16,120.01873135566711,120.01880955696106,120.0218460559845,120.03470253944397,120.1726324558258,120.1726324558258,120.1726324558258,120.1726324558258,120.1726324558258,120.1726324558258,120.1726324558258,122.33686947822571,1,2.2841811180114746,None,,,,,,,,,,,,,,,,,,234,1,2025-03-12_11h28.31.951,comp,2024.2.4,57.43356045833972,2025-03-12 11h28.50.285938 -0400,
14,14,0,filler_random,None,None,None,None,None,None,None,None,None,None,1,2.6088621616363525,None,,,,,0,0,0,0,0,14,14,130,122.35794734954834,,,,,,,,,,,,,,,,,,,,,,,,,,,,,,,,,,,,,,,,,,,,,,,,,,,,,,,,,,,,,,,,,,,,,,,,,,,,,,,,,146.4107754549999,196.5764086436606,165.6637362027025,174.45720134263155,174.18538291580586,151.5359902582083,2.2,2.22,-282,282,0,-273,259,-270,122.33880853652954,122.33888816833496,122.34213209152222,122.35794734954834,122.50581192970276,122.50581192970276,122.50581192970276,122.50581192970276,122.50581192970276,122.50581192970276,122.50581192970276,124.97556757926941,1,2.6088621616363525,None,,,,,,,,,,,,,,,,,,234,1,2025-03-12_11h28.31.951,comp,2024.2.4,57.43356045833972,2025-03-12 11h28.50.285938 -0400,
15,15,0,critical,dwh,20.0,2.1,lower,78.0,78.0,57.0,133.0,133.0,57.0,2,3.5922257900238037,None,,,,,0,0,0,0,0,15,15,30,124.99204134941101,,,,,,,,,,,,,,,,,,,,,,,,,,,,,,,,,,,,,,,,,,,,,,,,,,,,,,,,,,,,,,,,,,,,,,,,,,,,,,,,,78.0,78.0,57.0,133.0,133.0,57.0,2.1,2.11,-202,262,0,274,191,-257,124.97724723815918,124.97732448577881,124.98023319244385,124.99204134941101,125.13703441619873,125.13703441619873,125.13703441619873,125.13703441619873,125.13703441619873,125.13703441619873,125.13703441619873,128.58927416801453,2,3.5922257900238037,None,,,,,,,,,,,,,,,,,,234,1,2025-03-12_11h28.31.951,comp,2024.2.4,57.43356045833972,2025-03-12 11h28.50.285938 -0400,
16,16,0,filler_random,None,None,None,None,None,None,None,None,None,None,1,4.472030401229858,None,,,,,0,0,0,0,0,16,16,142,128.60591220855713,,,,,,,,,,,,,,,,,,,,,,,,,,,,,,,,,,,,,,,,,,,,,,,,,,,,,,,,,,,,,,,,,,,,,,,,,,,,,,,,,166.50504841173776,70.29399359815048,85.85565396417036,121.62093885026012,84.20863964861421,71.79620279465995,3.0,3.2,-192,-288,0,16,193,273,128.59133863449097,128.59142398834229,128.59478378295898,128.60591220855713,128.7555956840515,128.7555956840515,128.7555956840515,128.7555956840515,128.7555956840515,128.7555956840515,128.7555956840515,133.0940284729004,1,4.472030401229858,None,,,,,,,,,,,,,,,,,,234,1,2025-03-12_11h28.31.951,comp,2024.2.4,57.43356045833972,2025-03-12 11h28.50.285938 -0400,
17,17,0,critical,hwd,20.0,4.0,lower,133.0,57.0,57.0,133.0,78.0,78.0,2,3.855753183364868,None,,,,,0,0,0,0,0,17,17,106,133.11119103431702,,,,,,,,,,,,,,,,,,,,,,,,,,,,,,,,,,,,,,,,,,,,,,,,,,,,,,,,,,,,,,,,,,,,,,,,,,,,,,,,,133.0,57.0,57.0,133.0,78.0,78.0,4.0,4.2,-191,5,0,-269,202,-4,133.09561276435852,133.09572196006775,133.09874486923218,133.11119103431702,133.2566921710968,133.2566921710968,133.2566921710968,133.2566921710968,133.2566921710968,133.2566921710968,133.2566921710968,136.97219443321228,2,3.855753183364868,None,,,,,,,,,,,,,,,,,,234,1,2025-03-12_11h28.31.951,comp,2024.2.4,57.43356045833972,2025-03-12 11h28.50.285938 -0400,
18,18,0,critical,dwh,35.0,2.1,upper,127.0,127.0,125.0,200.0,200.0,125.0,2,2.734039783477783,None,,,,,0,0,0,0,0,18,18,5,136.99193954467773,,,,,,,,,,,,,,,,,,,,,,,,,,,,,,,,,,,,,,,,,,,,,,,,,,,,,,,,,,,,,,,,,,,,,,,,,,,,,,,,,127.0,127.0,125.0,200.0,200.0,125.0,2.1,2.12,-260,-256,0,-283,258,274,136.97369241714478,136.9737732410431,136.97677659988403,136.99193954467773,137.14051461219788,137.14051461219788,137.14051461219788,137.14051461219788,137.14051461219788,137.14051461219788,137.14051461219788,139.7409119606018,2,2.734039783477783,None,,,,,,,,,,,,,,,,,,234,1,2025-03-12_11h28.31.951,comp,2024.2.4,57.43356045833972,2025-03-12 11h28.50.285938 -0400,
19,19,0,critical,hwd,35.0,2.1,upper,200.0,125.0,125.0,200.0,127.0,127.0,2,3.0412423610687256,None,,,,,0,0,0,0,0,19,19,41,139.7567846775055,,,,,,,,,,,,,,,,,,,,,,,,,,,,,,,,,,,,,,,,,,,,,,,,,,,,,,,,,,,,,,,,,,,,,,,,,,,,,,,,,200.0,125.0,125.0,200.0,127.0,127.0,2.1,2.11,-258,274,0,283,260,-257,139.74240827560425,139.7424874305725,139.745543718338,139.7567846775055,139.91637468338013,139.91637468338013,139.91637468338013,139.91637468338013,139.91637468338013,139.91637468338013,139.91637468338013,142.81333017349243,2,3.0412423610687256,None,,,,,,,,,,,,,,,,,,234,1,2025-03-12_11h28.31.951,comp,2024.2.4,57.43356045833972,2025-03-12 11h28.50.285938 -0400,
20,20,0,critical,dhw,35.0,2.1,lower,70.0,70.0,133.0,57.0,57.0,133.0,3,3.960726499557495,None,,,,,0,0,0,0,0,20,20,0,142.8302869796753,,,,,,,,,,,,,,,,,,,,,,,,,,,,,,,,,,,,,,,,,,,,,,,,,,,,,,,,,,,,,,,,,,,,,,,,,,,,,,,,,70.0,70.0,133.0,57.0,57.0,133.0,2.1,2.11,-160,261,0,273,191,-279,142.8151171207428,142.8152289390564,142.81887578964233,142.8302869796753,142.97882390022278,142.97882390022278,142.97882390022278,142.97882390022278,142.97882390022278,142.97882390022278,142.97882390022278,146.79918694496155,3,3.960726499557495,None,,,,,,,,,,,,,,,,,,234,1,2025-03-12_11h28.31.951,comp,2024.2.4,57.43356045833972,2025-03-12 11h28.50.285938 -0400,
21,21,0,critical,hdw,35.0,2.1,lower,133.0,57.0,70.0,70.0,57.0,133.0,1,2.598695993423462,None,,,,,0,0,0,0,0,21,21,20,146.8157069683075,,,,,,,,,,,,,,,,,,,,,,,,,,,,,,,,,,,,,,,,,,,,,,,,,,,,,,,,,,,,,,,,,,,,,,,,,,,,,,,,,133.0,57.0,70.0,70.0,57.0,133.0,2.1,2.12,-160,-256,0,-289,198,265,146.80093908309937,146.8010802268982,146.80466866493225,146.8157069683075,146.96893000602722,146.96893000602722,146.96893000602722,146.96893000602722,146.96893000602722,146.96893000602722,146.96893000602722,149.43338584899902,1,2.598695993423462,None,,,,,,,,,,,,,,,,,,234,1,2025-03-12_11h28.31.951,comp,2024.2.4,57.43356045833972,2025-03-12 11h28.50.285938 -0400,
22,22,0,critical,dhw,35.0,2.1,upper,127.0,127.0,200.0,125.0,125.0,200.0,2,3.1766457557678223,None,,,,,0,0,0,0,0,22,22,25,149.45341396331787,,,,,,,,,,,,,,,,,,,,,,,,,,,,,,,,,,,,,,,,,,,,,,,,,,,,,,,,,,,,,,,,,,,,,,,,,,,,,,,,,127.0,127.0,200.0,125.0,125.0,200.0,2.1,2.11,-222,272,0,279,258,-290,149.43506360054016,149.43514108657837,149.43809390068054,149.45341396331787,149.59935927391052,149.59935927391052,149.59935927391052,149.59935927391052,149.59935927391052,149.59935927391052,149.59935927391052,152.6432089805603,2,3.1766457557678223,None,,,,,,,,,,,,,,,,,,234,1,2025-03-12_11h28.31.951,comp,2024.2.4,57.43356045833972,2025-03-12 11h28.50.285938 -0400,
23,23,0,critical,dwh,20.0,2.1,upper,141.0,141.0,125.0,200.0,200.0,125.0,2,3.2832345962524414,None,,,,,0,0,0,0,0,23,23,7,152.6592562198639,,,,,,,,,,,,,,,,,,,,,,,,,,,,,,,,,,,,,,,,,,,,,,,,,,,,,,,,,,,,,,,,,,,,,,,,,,,,,,,,,141.0,141.0,125.0,200.0,200.0,125.0,2.1,2.12,-266,-261,0,-258,258,256,152.6447775363922,152.64485573768616,152.6480348110199,152.6592562198639,152.79543018341064,152.79543018341064,152.79543018341064,152.79543018341064,152.79543018341064,152.79543018341064,152.79543018341064,155.95818328857422,2,3.2832345962524414,None,,,,,,,,,,,,,,,,,,234,1,2025-03-12_11h28.31.951,comp,2024.2.4,57.43356045833972,2025-03-12 11h28.50.285938 -0400,
24,24,0,critical,dhw,35.0,4.0,upper,127.0,127.0,200.0,125.0,125.0,200.0,3,1.6569504737854004,None,,,,,0,0,0,0,0,24,24,53,155.974018573761,,,,,,,,,,,,,,,,,,,,,,,,,,,,,,,,,,,,,,,,,,,,,,,,,,,,,,,,,,,,,,,,,,,,,,,,,,,,,,,,,127.0,127.0,200.0,125.0,125.0,200.0,4.0,4.1,-222,-265,0,17,258,-279,155.95975589752197,155.95983266830444,155.96271324157715,155.974018573761,156.12593960762024,156.12593960762024,156.12593960762024,156.12593960762024,156.12593960762024,156.12593960762024,156.12593960762024,157.64316034317017,3,1.6569504737854004,None,,,,,,,,,,,,,,,,,,234,1,2025-03-12_11h28.31.951,comp,2024.2.4,57.43356045833972,2025-03-12 11h28.50.285938 -0400,
25,25,0,filler_square,None,None,None,None,None,None,None,None,None,None,1,2.1671650409698486,None,,,,,0,0,0,0,0,25,25,189,157.66373944282532,,,,,,,,,,,,,,,,,,,,,,,,,,,,,,,,,,,,,,,,,,,,,,,,,,,,,,,,,,,,,,,,,,,,,,,,,,,,,,,,,138.81796017567217,138.81796017567217,117.32224228515433,98.33317117622246,128.11504198977417,66.24088728599557,2.2,2.21,-215,-275,0,280,178,252,157.64522862434387,157.64530611038208,157.64860916137695,157.66373944282532,157.79826736450195,157.79826736450195,157.79826736450195,157.79826736450195,157.79826736450195,157.79826736450195,157.79826736450195,159.84984397888184,1,2.1671650409698486,None,,,,,,,,,,,,,,,,,,234,1,2025-03-12_11h28.31.951,comp,2024.2.4,57.43356045833972,2025-03-12 11h28.50.285938 -0400,
26,26,0,critical,hdw,20.0,2.1,lower,133.0,57.0,78.0,78.0,57.0,133.0,1,2.5691604614257812,None,,,,,0,0,0,0,0,26,26,46,159.86896085739136,,,,,,,,,,,,,,,,,,,,,,,,,,,,,,,,,,,,,,,,,,,,,,,,,,,,,,,,,,,,,,,,,,,,,,,,,,,,,,,,,133.0,57.0,78.0,78.0,57.0,133.0,2.1,2.12,-164,-266,0,-255,202,254,159.85196185112,159.85203957557678,159.85577487945557,159.86896085739136,160.01381421089172,160.01381421089172,160.01381421089172,160.01381421089172,160.01381421089172,160.01381421089172,160.01381421089172,162.45272397994995,1,2.5691604614257812,None,,,,,,,,,,,,,,,,,,234,1,2025-03-12_11h28.31.951,comp,2024.2.4,57.43356045833972,2025-03-12 11h28.50.285938 -0400,
27,27,0,critical,whd,35.0,4.0,upper,125.0,200.0,200.0,125.0,127.0,127.0,1,1.8909733295440674,None,,,,,0,0,0,0,0,27,27,89,162.4696283340454,,,,,,,,,,,,,,,,,,,,,,,,,,,,,,,,,,,,,,,,,,,,,,,,,,,,,,,,,,,,,,,,,,,,,,,,,,,,,,,,,125.0,200.0,200.0,125.0,127.0,127.0,4.0,4.1,-258,-258,0,-16,222,-289,162.45440077781677,162.454505443573,162.4585108757019,162.4696283340454,162.62051939964294,162.62051939964294,162.62051939964294,162.62051939964294,162.62051939964294,162.62051939964294,162.62051939964294,164.367267370224,1,1.8909733295440674,None,,,,,,,,,,,,,,,,,,234,1,2025-03-12_11h28.31.951,comp,2024.2.4,57.43356045833972,2025-03-12 11h28.50.285938 -0400,
28,28,0,critical,dwh,20.0,2.1,lower,78.0,78.0,57.0,133.0,133.0,57.0,3,1.97544264793396,None,,,,,0,0,0,0,0,28,28,6,164.38362193107605,,,,,,,,,,,,,,,,,,,,,,,,,,,,,,,,,,,,,,,,,,,,,,,,,,,,,,,,,,,,,,,,,,,,,,,,,,,,,,,,,78.0,78.0,57.0,133.0,133.0,57.0,2.1,2.11,-202,288,0,278,191,-279,164.36911296844482,164.36919474601746,164.37237524986267,164.38362193107605,164.54023265838623,164.54023265838623,164.54023265838623,164.54023265838623,164.54023265838623,164.54023265838623,164.54023265838623,166.36219811439514,3,1.97544264793396,None,,,,,,,,,,,,,,,,,,234,1,2025-03-12_11h28.31.951,comp,2024.2.4,57.43356045833972,2025-03-12 11h28.50.285938 -0400,
29,29,0,critical,dwh,20.0,1.0,upper,141.0,141.0,125.0,200.0,200.0,125.0,2,3.2414000034332275,None,,,,,0,0,0,0,0,29,29,67,166.381028175354,,,,,,,,,,,,,,,,,,,,,,,,,,,,,,,,,,,,,,,,,,,,,,,,,,,,,,,,,,,,,,,,,,,,,,,,,,,,,,,,,141.0,141.0,125.0,200.0,200.0,125.0,1.0,1.1,-746,283,-480,279,-222,275,166.363778591156,166.36385798454285,166.36735701560974,166.381028175354,166.51742959022522,166.51742959022522,166.51742959022522,166.51742959022522,166.51742959022522,166.51742959022522,166.51742959022522,169.62489652633667,2,3.2414000034332275,None,,,,,,,,,,,,,,,,,,234,1,2025-03-12_11h28.31.951,comp,2024.2.4,57.43356045833972,2025-03-12 11h28.50.285938 -0400,
30,30,0,filler_square,None,None,None,None,None,None,None,None,None,None,2,4.577845811843872,None,,,,,0,0,0,0,0,30,30,172,169.64411854743958,,,,,,,,,,,,,,,,,,,,,,,,,,,,,,,,,,,,,,,,,,,,,,,,,,,,,,,,,,,,,,,,,,,,,,,,,,,,,,,,,130.45075050501748,142.06948143469953,144.8484238042916,144.8484238042916,128.76920867967158,84.43689328581928,1.0,1.2,-239,-9,0,-10,211,-11,169.62659740447998,169.6266963481903,169.62956261634827,169.64411854743958,169.78606009483337,169.78606009483337,169.78606009483337,169.78606009483337,169.78606009483337,169.78606009483337,169.78606009483337,174.23798251152039,2,4.577845811843872,None,,,,,,,,,,,,,,,,,,234,1,2025-03-12_11h28.31.951,comp,2024.2.4,57.43356045833972,2025-03-12 11h28.50.285938 -0400,
31,31,0,filler_random,None,None,None,None,None,None,None,None,None,None,1,1.8250138759613037,None,,,,,0,0,0,0,0,31,31,157,174.2545247077942,,,,,,,,,,,,,,,,,,,,,,,,,,,,,,,,,,,,,,,,,,,,,,,,,,,,,,,,,,,,,,,,,,,,,,,,,,,,,,,,,98.55105968997425,144.05163007868393,110.00628507788545,62.495781977757886,63.93471479596239,83.30277034784584,2.2,2.22,-199,250,0,-270,169,-258,174.24005818367004,174.24019384384155,174.24330306053162,174.2545247077942,174.4048798084259,174.4048798084259,174.4048798084259,174.4048798084259,174.4048798084259,174.4048798084259,174.4048798084259,176.096351146698,1,1.8250138759613037,None,,,,,,,,,,,,,,,,,,234,1,2025-03-12_11h28.31.951,comp,2024.2.4,57.43356045833972,2025-03-12 11h28.50.285938 -0400,
32,32,0,catch,None,None,None,None,None,None,None,None,None,None,2,1.7748658657073975,None,,,,,0,0,0,0,0,32,32,122,176.1132938861847,,,,,,,,,,,,,,,,,,,,,,,,,,,,,,,,,,,,,,,,,,,,,,,,,,,,,,,,,,,,,,,,,,,,,,,,,,,,,,,,,117,73,133,192,119,71,3.0,3.2,-228,-283,0,1,228,262,176.09827089309692,176.0983488559723,176.1012454032898,176.1132938861847,176.2598741054535,176.2598741054535,176.2598741054535,176.2598741054535,176.2598741054535,176.2598741054535,176.2598741054535,177.89448261260986,2,1.7748658657073975,None,,,,,,,,,,,,,,,,,,234,1,2025-03-12_11h28.31.951,comp,2024.2.4,57.43356045833972,2025-03-12 11h28.50.285938 -0400,
33,33,0,critical,wdh,20.0,3.0,upper,125.0,200.0,141.0,141.0,200.0,125.0,1,1.8388614654541016,None,,,,,0,0,0,0,0,33,33,81,177.91314268112183,,,,,,,,,,,,,,,,,,,,,,,,,,,,,,,,,,,,,,,,,,,,,,,,,,,,,,,,,,,,,,,,,,,,,,,,,,,,,,,,,125.0,200.0,141.0,141.0,200.0,125.0,3.0,3.1,-266,277,0,-2,229,-275,177.89613819122314,177.89622473716736,177.89951610565186,177.91314268112183,178.0494577884674,178.0494577884674,178.0494577884674,178.0494577884674,178.0494577884674,178.0494577884674,178.0494577884674,179.75471019744873,1,1.8388614654541016,None,,,,,,,,,,,,,,,,,,234,1,2025-03-12_11h28.31.951,comp,2024.2.4,57.43356045833972,2025-03-12 11h28.50.285938 -0400,
34,34,0,filler_square,None,None,None,None,None,None,None,None,None,None,1,1.626532793045044,None,,,,,0,0,0,0,0,34,34,205,179.77247595787048,,,,,,,,,,,,,,,,,,,,,,,,,,,,,,,,,,,,,,,,,,,,,,,,,,,,,,,,,,,,,,,,,,,,,,,,,,,,,,,,,134.29891914094372,134.29891914094372,129.6914818031313,104.01684261988333,96.49905647293352,130.874205070803,1.0,1.1,-695,265,-480,282,-267,277,179.756689786911,179.75677156448364,179.7610924243927,179.77247595787048,179.92182636260986,179.92182636260986,179.92182636260986,179.92182636260986,179.92182636260986,179.92182636260986,179.92182636260986,181.4084770679474,1,1.626532793045044,None,,,,,,,,,,,,,,,,,,234,1,2025-03-12_11h28.31.951,comp,2024.2.4,57.43356045833972,2025-03-12 11h28.50.285938 -0400,
35,35,0,critical,wdh,35.0,1.0,upper,125.0,200.0,127.0,127.0,200.0,125.0,1,2.045426607131958,None,,,,,0,0,0,0,0,35,35,73,181.42533564567566,,,,,,,,,,,,,,,,,,,,,,,,,,,,,,,,,,,,,,,,,,,,,,,,,,,,,,,,,,,,,,,,,,,,,,,,,,,,,,,,,125.0,200.0,127.0,127.0,200.0,125.0,1.0,1.3,220,-256,480,-258,702,-255,181.41013360023499,181.41021370887756,181.41329765319824,181.42533564567566,181.5724859237671,181.5724859237671,181.5724859237671,181.5724859237671,181.5724859237671,181.5724859237671,181.5724859237671,183.47440123558044,1,2.045426607131958,None,,,,,,,,,,,,,,,,,,234,1,2025-03-12_11h28.31.951,comp,2024.2.4,57.43356045833972,2025-03-12 11h28.50.285938 -0400,
36,36,0,critical,hdw,20.0,4.0,upper,200.0,125.0,141.0,141.0,125.0,200.0,3,1.3956646919250488,None,,,,,0,0,0,0,0,36,36,119,183.49108004570007,,,,,,,,,,,,,,,,,,,,,,,,,,,,,,,,,,,,,,,,,,,,,,,,,,,,,,,,,,,,,,,,,,,,,,,,,,,,,,,,,200.0,125.0,141.0,141.0,125.0,200.0,4.0,4.2,-229,-14,0,-290,266,-3,183.47604990005493,183.47615694999695,183.4796097278595,183.49108004570007,183.63920712471008,183.63920712471008,183.63920712471008,183.63920712471008,183.63920712471008,183.63920712471008,183.63920712471008,184.90285468101501,3,1.3956646919250488,None,,,,,,,,,,,,,,,,,,234,1,2025-03-12_11h28.31.951,comp,2024.2.4,57.43356045833972,2025-03-12 11h28.50.285938 -0400,
37,37,0,critical,hdw,35.0,4.0,lower,133.0,57.0,70.0,70.0,57.0,133.0,3,5.384115695953369,None,,,,,0,0,0,0,0,37,37,112,184.91828107833862,,,,,,,,,,,,,,,,,,,,,,,,,,,,,,,,,,,,,,,,,,,,,,,,,,,,,,,,,,,,,,,,,,,,,,,,,,,,,,,,,133.0,57.0,70.0,70.0,57.0,133.0,4.0,4.2,-160,-6,0,-262,198,-12,184.90429878234863,184.90437602996826,184.90729641914368,184.91828107833862,185.07013487815857,185.07013487815857,185.07013487815857,185.07013487815857,185.07013487815857,185.07013487815857,185.07013487815857,190.30724716186523,3,5.384115695953369,None,,,,,,,,,,,,,,,,,,234,1,2025-03-12_11h28.31.951,comp,2024.2.4,57.43356045833972,2025-03-12 11h28.50.285938 -0400,
38,38,0,critical,wdh,20.0,1.0,lower,57.0,133.0,78.0,78.0,133.0,57.0,1,1.6954553127288818,None,,,,,0,0,0,0,0,38,38,78,190.32695937156677,,,,,,,,,,,,,,,,,,,,,,,,,,,,,,,,,,,,,,,,,,,,,,,,,,,,,,,,,,,,,,,,,,,,,,,,,,,,,,,,,57.0,133.0,78.0,78.0,133.0,57.0,1.0,1.1,-682,281,-480,264,-316,279,190.30888509750366,190.30896544456482,190.3120036125183,190.32695937156677,190.4745454788208,190.4745454788208,190.4745454788208,190.4745454788208,190.4745454788208,190.4745454788208,190.4745454788208,192.02894949913025,1,1.6954553127288818,None,,,,,,,,,,,,,,,,,,234,1,2025-03-12_11h28.31.951,comp,2024.2.4,57.43356045833972,2025-03-12 11h28.50.285938 -0400,
39,39,0,filler_random,None,None,None,None,None,None,None,None,None,None,3,1.2407891750335693,None,,,,,0,0,0,0,0,39,39,135,192.04717993736267,,,,,,,,,,,,,,,,,,,,,,,,,,,,,,,,,,,,,,,,,,,,,,,,,,,,,,,,,,,,,,,,,,,,,,,,,,,,,,,,,76.37476756904444,92.42220309179339,69.71419215993896,76.4790499479675,179.72873679815703,136.09650784879068,3.0,3.2,-180,-272,0,-11,202,271,192.03074479103088,192.0308268070221,192.03393054008484,192.04717993736267,192.1926417350769,192.1926417350769,192.1926417350769,192.1926417350769,192.1926417350769,192.1926417350769,192.1926417350769,193.3031837940216,3,1.2407891750335693,None,,,,,,,,,,,,,,,,,,234,1,2025-03-12_11h28.31.951,comp,2024.2.4,57.43356045833972,2025-03-12 11h28.50.285938 -0400,
40,40,0,filler_random,None,None,None,None,None,None,None,None,None,None,1,1.0957324504852295,None,,,,,0,0,0,0,0,40,40,145,193.31823229789734,,,,,,,,,,,,,,,,,,,,,,,,,,,,,,,,,,,,,,,,,,,,,,,,,,,,,,,,,,,,,,,,,,,,,,,,,,,,,,,,,175.7610988901286,126.85456263008794,193.80342503535357,100.1539811342598,67.49491445303886,160.65084044042686,2.2,2.21,-210,-264,0,266,226,262,193.3050799369812,193.30515694618225,193.30844831466675,193.31823229789734,193.45901370048523,193.45901370048523,193.45901370048523,193.45901370048523,193.45901370048523,193.45901370048523,193.45901370048523,194.42431020736694,1,1.0957324504852295,None,,,,,,,,,,,,,,,,,,234,1,2025-03-12_11h28.31.951,comp,2024.2.4,57.43356045833972,2025-03-12 11h28.50.285938 -0400,
41,41,0,critical,hwd,35.0,2.1,lower,133.0,57.0,57.0,133.0,70.0,70.0,1,2.021719455718994,None,,,,,0,0,0,0,0,41,41,40,194.44067239761353,,,,,,,,,,,,,,,,,,,,,,,,,,,,,,,,,,,,,,,,,,,,,,,,,,,,,,,,,,,,,,,,,,,,,,,,,,,,,,,,,133.0,57.0,57.0,133.0,70.0,70.0,2.1,2.12,-191,-258,0,-258,198,255,194.42605829238892,194.42613792419434,194.42970895767212,194.44067239761353,194.5931453704834,194.5931453704834,194.5931453704834,194.5931453704834,194.5931453704834,194.5931453704834,194.5931453704834,196.46688556671143,1,2.021719455718994,None,,,,,,,,,,,,,,,,,,234,1,2025-03-12_11h28.31.951,comp,2024.2.4,57.43356045833972,2025-03-12 11h28.50.285938 -0400,
42,42,0,filler_square,None,None,None,None,None,None,None,None,None,None,3,2.3473727703094482,None,,,,,0,0,0,0,0,42,42,195,196.48352122306824,,,,,,,,,,,,,,,,,,,,,,,,,,,,,,,,,,,,,,,,,,,,,,,,,,,,,,,,,,,,,,,,,,,,,,,,,,,,,,,,,59.36533243136018,58.77850478814668,57.96523407026377,57.13067894860186,60.630391455245004,60.630391455245004,2.2,2.22,-154,253,0,-277,155,-280,196.46902465820312,196.4691071510315,196.47228813171387,196.48352122306824,196.62442278862,196.62442278862,196.62442278862,196.62442278862,196.62442278862,196.62442278862,196.62442278862,198.84244298934937,3,2.3473727703094482,None,,,,,,,,,,,,,,,,,,234,1,2025-03-12_11h28.31.951,comp,2024.2.4,57.43356045833972,2025-03-12 11h28.50.285938 -0400,
43,43,0,critical,whd,35.0,3.0,upper,125.0,200.0,200.0,125.0,127.0,127.0,2,1.883368730545044,None,,,,,0,0,0,0,0,43,43,87,198.85867619514465,,,,,,,,,,,,,,,,,,,,,,,,,,,,,,,,,,,,,,,,,,,,,,,,,,,,,,,,,,,,,,,,,,,,,,,,,,,,,,,,,125.0,200.0,200.0,125.0,127.0,127.0,3.0,3.1,-258,251,0,7,222,-282,198.84411811828613,198.84424114227295,198.84771609306335,198.85867619514465,199.0104022026062,199.0104022026062,199.0104022026062,199.0104022026062,199.0104022026062,199.0104022026062,199.0104022026062,200.7588610649109,2,1.883368730545044,None,,,,,,,,,,,,,,,,,,234,1,2025-03-12_11h28.31.951,comp,2024.2.4,57.43356045833972,2025-03-12 11h28.50.285938 -0400,
44,44,0,filler_random,None,None,None,None,None,None,None,None,None,None,2,1.855839490890503,None,,,,,0,0,0,0,0,44,44,159,200.775532245636,,,,,,,,,,,,,,,,,,,,,,,,,,,,,,,,,,,,,,,,,,,,,,,,,,,,,,,,,,,,,,,,,,,,,,,,,,,,,,,,,119.55274655592649,132.90245889535885,199.68102671441068,109.78412309912237,130.22524259455795,151.93728310671668,2.2,2.21,-217,-279,0,256,227,262,200.76073145866394,200.76087141036987,200.7642047405243,200.775532245636,200.9278280735016,200.9278280735016,200.9278280735016,200.9278280735016,200.9278280735016,200.9278280735016,200.9278280735016,202.63724756240845,2,1.855839490890503,None,,,,,,,,,,,,,,,,,,234,1,2025-03-12_11h28.31.951,comp,2024.2.4,57.43356045833972,2025-03-12 11h28.50.285938 -0400,
45,45,0,catch,None,None,None,None,None,None,None,None,None,None,1,1.1757853031158447,None,,,,,0,0,0,0,0,45,45,128,202.65427923202515,,,,,,,,,,,,,,,,,,,,,,,,,,,,,,,,,,,,,,,,,,,,,,,,,,,,,,,,,,,,,,,,,,,,,,,,,,,,,,,,,140,185,59,131,109,81,3.0,3.1,-254,289,0,-1,202,-258,202.63944816589355,202.6395285129547,202.64285135269165,202.65427923202515,202.79823851585388,202.79823851585388,202.79823851585388,202.79823851585388,202.79823851585388,202.79823851585388,202.79823851585388,203.84634852409363,1,1.1757853031158447,None,,,,,,,,,,,,,,,,,,234,1,2025-03-12_11h28.31.951,comp,2024.2.4,57.43356045833972,2025-03-12 11h28.50.285938 -0400,
46,46,0,filler_square,None,None,None,None,None,None,None,None,None,None,3,2.0952298641204834,None,,,,,0,0,0,0,0,46,46,182,203.86285209655762,,,,,,,,,,,,,,,,,,,,,,,,,,,,,,,,,,,,,,,,,,,,,,,,,,,,,,,,,,,,,,,,,,,,,,,,,,,,,,,,,57.34247510433398,65.98490822775054,69.07743262235329,65.95481607350023,70.04241117622949,70.04241117622949,2.1,2.11,-162,251,0,286,164,-289,203.84867548942566,203.8488175868988,203.85239601135254,203.86285209655762,204.0104956626892,204.0104956626892,204.0104956626892,204.0104956626892,204.0104956626892,204.0104956626892,204.0104956626892,205.96194863319397,3,2.0952298641204834,None,,,,,,,,,,,,,,,,,,234,1,2025-03-12_11h28.31.951,comp,2024.2.4,57.43356045833972,2025-03-12 11h28.50.285938 -0400,
47,47,0,filler_random,None,None,None,None,None,None,None,None,None,None,3,2.491832733154297,None,,,,,0,0,0,0,0,47,47,146,205.97823977470398,,,,,,,,,,,,,,,,,,,,,,,,,,,,,,,,,,,,,,,,,,,,,,,,,,,,,,,,,,,,,,,,,,,,,,,,,,,,,,,,,83.80333355645598,147.98450884177737,179.53707734833108,199.90624584696315,194.37190646927482,167.27580001906335,2.1,2.12,-270,-270,0,-283,280,290,205.9637792110443,205.9638593196869,205.9672887325287,205.97823977470398,206.13573789596558,206.13573789596558,206.13573789596558,206.13573789596558,206.13573789596558,206.13573789596558,206.13573789596558,208.48675274848938,3,2.491832733154297,None,,,,,,,,,,,,,,,,,,234,1,2025-03-12_11h28.31.951,comp,2024.2.4,57.43356045833972,2025-03-12 11h28.50.285938 -0400,
48,48,0,filler_random,None,None,None,None,None,None,None,None,None,None,2,1.2758665084838867,None,,,,,0,0,0,0,0,48,48,153,208.50663566589355,,,,,,,,,,,,,,,,,,,,,,,,,,,,,,,,,,,,,,,,,,,,,,,,,,,,,,,,,,,,,,,,,,,,,,,,,,,,,,,,,150.96273801104155,63.33833045395383,159.65081300359057,168.28348944686797,74.3124426912068,172.55649029880058,2.1,2.11,-212,260,0,275,266,-261,208.4884593486786,208.48853850364685,208.49143075942993,208.50663566589355,208.6463873386383,208.6463873386383,208.6463873386383,208.6463873386383,208.6463873386383,208.6463873386383,208.6463873386383,209.78573155403137,2,1.2758665084838867,None,,,,,,,,,,,,,,,,,,234,1,2025-03-12_11h28.31.951,comp,2024.2.4,57.43356045833972,2025-03-12 11h28.50.285938 -0400,
49,49,0,critical,whd,20.0,2.1,upper,125.0,200.0,200.0,125.0,141.0,141.0,2,2.0126845836639404,None,,,,,0,0,0,0,0,49,49,39,209.80277681350708,,,,,,,,,,,,,,,,,,,,,,,,,,,,,,,,,,,,,,,,,,,,,,,,,,,,,,,,,,,,,,,,,,,,,,,,,,,,,,,,,125.0,200.0,200.0,125.0,141.0,141.0,2.1,2.12,-258,-262,0,-281,229,282,209.78736066818237,209.7874882221222,209.7908751964569,209.80277681350708,209.94736123085022,209.94736123085022,209.94736123085022,209.94736123085022,209.94736123085022,209.94736123085022,209.94736123085022,211.83517169952393,2,2.0126845836639404,None,,,,,,,,,,,,,,,,,,234,1,2025-03-12_11h28.31.951,comp,2024.2.4,57.43356045833972,2025-03-12 11h28.50.285938 -0400,
50,50,0,catch,None,None,None,None,None,None,None,None,None,None,2,2.081284523010254,None,,,,,0,0,0,0,0,50,50,127,211.8528344631195,,,,,,,,,,,,,,,,,,,,,,,,,,,,,,,,,,,,,,,,,,,,,,,,,,,,,,,,,,,,,,,,,,,,,,,,,,,,,,,,,112,78,183,142,67,123,2.1,2.11,-206,266,0,269,228,-285,211.83712196350098,211.8371982574463,211.84008359909058,211.8528344631195,211.99681115150452,211.99681115150452,211.99681115150452,211.99681115150452,211.99681115150452,211.99681115150452,211.99681115150452,213.94755172729492,2,2.081284523010254,None,,,,,,,,,,,,,,,,,,234,1,2025-03-12_11h28.31.951,comp,2024.2.4,57.43356045833972,2025-03-12 11h28.50.285938 -0400,
51,51,0,critical,dhw,20.0,4.0,lower,78.0,78.0,133.0,57.0,57.0,133.0,2,2.165766954421997,None,,,,,0,0,0,0,0,51,51,58,213.96403193473816,,,,,,,,,,,,,,,,,,,,,,,,,,,,,,,,,,,,,,,,,,,,,,,,,,,,,,,,,,,,,,,,,,,,,,,,,,,,,,,,,78.0,78.0,133.0,57.0,57.0,133.0,4.0,4.2,-164,13,0,-276,191,-15,213.9491617679596,213.94923996925354,213.95276832580566,213.96403193473816,214.11410212516785,214.11410212516785,214.11410212516785,214.11410212516785,214.11410212516785,214.11410212516785,214.11410212516785,216.13526797294617,2,2.165766954421997,None,,,,,,,,,,,,,,,,,,234,1,2025-03-12_11h28.31.951,comp,2024.2.4,57.43356045833972,2025-03-12 11h28.50.285938 -0400,
52,52,0,critical,whd,35.0,3.0,lower,57.0,133.0,133.0,57.0,70.0,70.0,2,1.7687897682189941,None,,,,,0,0,0,0,0,52,52,86,216.1519000530243,,,,,,,,,,,,,,,,,,,,,,,,,,,,,,,,,,,,,,,,,,,,,,,,,,,,,,,,,,,,,,,,,,,,,,,,,,,,,,,,,57.0,133.0,133.0,57.0,70.0,70.0,3.0,3.1,-191,262,0,12,160,-280,216.13694310188293,216.13702511787415,216.14053177833557,216.1519000530243,216.30046105384827,216.30046105384827,216.30046105384827,216.30046105384827,216.30046105384827,216.30046105384827,216.30046105384827,217.9285135269165,2,1.7687897682189941,None,,,,,,,,,,,,,,,,,,234,1,2025-03-12_11h28.31.951,comp,2024.2.4,57.43356045833972,2025-03-12 11h28.50.285938 -0400,
53,53,0,critical,hdw,20.0,3.0,upper,200.0,125.0,141.0,141.0,125.0,200.0,1,1.7727861404418945,None,,,,,0,0,0,0,0,53,53,117,217.9453136920929,,,,,,,,,,,,,,,,,,,,,,,,,,,,,,,,,,,,,,,,,,,,,,,,,,,,,,,,,,,,,,,,,,,,,,,,,,,,,,,,,200.0,125.0,141.0,141.0,125.0,200.0,3.0,3.1,-229,260,0,19,266,-268,217.93010234832764,217.9301793575287,217.9331338405609,217.9453136920929,218.10037803649902,218.10037803649902,218.10037803649902,218.10037803649902,218.10037803649902,218.10037803649902,218.10037803649902,219.73362684249878,1,1.7727861404418945,None,,,,,,,,,,,,,,,,,,234,1,2025-03-12_11h28.31.951,comp,2024.2.4,57.43356045833972,2025-03-12 11h28.50.285938 -0400,
54,54,0,filler_square,None,None,None,None,None,None,None,None,None,None,2,6.3525238037109375,None,,,,,0,0,0,0,0,54,54,183,219.7495310306549,,,,,,,,,,,,,,,,,,,,,,,,,,,,,,,,,,,,,,,,,,,,,,,,,,,,,,,,,,,,,,,,,,,,,,,,,,,,,,,,,131.65767537978275,144.5757203522545,150.41907482798166,150.41907482798166,136.4924216005425,141.55212253292513,4.0,4.1,-243,-277,0,18,242,-258,219.73568534851074,219.73578262329102,219.73917078971863,219.7495310306549,219.90032577514648,219.90032577514648,219.90032577514648,219.90032577514648,219.90032577514648,219.90032577514648,219.90032577514648,226.11961150169373,2,6.3525238037109375,None,,,,,,,,,,,,,,,,,,234,1,2025-03-12_11h28.31.951,comp,2024.2.4,57.43356045833972,2025-03-12 11h28.50.285938 -0400,
55,55,0,filler_random,None,None,None,None,None,None,None,None,None,None,3,1.9585909843444824,None,,,,,0,0,0,0,0,55,55,136,226.13660764694214,,,,,,,,,,,,,,,,,,,,,,,,,,,,,,,,,,,,,,,,,,,,,,,,,,,,,,,,,,,,,,,,,,,,,,,,,,,,,,,,,163.45191577874306,81.34572733594098,100.40874371933822,148.2962425816018,164.07441117664527,92.69661896142202,3.0,3.1,-211,269,0,9,216,-254,226.12152528762817,226.12160897254944,226.12531423568726,226.13660764694214,226.2843143939972,226.2843143939972,226.2843143939972,226.2843143939972,226.2843143939972,226.2843143939972,226.2843143939972,228.10703706741333,3,1.9585909843444824,None,,,,,,,,,,,,,,,,,,234,1,2025-03-12_11h28.31.951,comp,2024.2.4,57.43356045833972,2025-03-12 11h28.50.285938 -0400,
56,56,0,filler_random,None,None,None,None,None,None,None,None,None,None,2,2.3710789680480957,None,,,,,0,0,0,0,0,56,56,141,228.12409663200378,,,,,,,,,,,,,,,,,,,,,,,,,,,,,,,,,,,,,,,,,,,,,,,,,,,,,,,,,,,,,,,,,,,,,,,,,,,,,,,,,92.95186958548484,59.83138067559523,133.87235751873203,118.44210919175346,196.58637202085333,62.74838053129038,2.2,2.22,-185,269,0,-274,187,-285,228.10905480384827,228.1091389656067,228.1131067276001,228.12409663200378,228.26946783065796,228.26946783065796,228.26946783065796,228.26946783065796,228.26946783065796,228.26946783065796,228.26946783065796,230.504536151886,2,2.3710789680480957,None,,,,,,,,,,,,,,,,,,234,1,2025-03-12_11h28.31.951,comp,2024.2.4,57.43356045833972,2025-03-12 11h28.50.285938 -0400,
57,57,0,catch,None,None,None,None,None,None,None,None,None,None,3,1.0842337608337402,None,,,,,0,0,0,0,0,57,57,120,230.52224349975586,,,,,,,,,,,,,,,,,,,,,,,,,,,,,,,,,,,,,,,,,,,,,,,,,,,,,,,,,,,,,,,,,,,,,,,,,,,,,,,,,125,65,118,72,146,179,4.0,4.2,-164,16,0,-260,222,-19,230.5067219734192,230.5068759918213,230.51127982139587,230.52224349975586,230.67150902748108,230.67150902748108,230.67150902748108,230.67150902748108,230.67150902748108,230.67150902748108,230.67150902748108,231.61863946914673,3,1.0842337608337402,None,,,,,,,,,,,,,,,,,,234,1,2025-03-12_11h28.31.951,comp,2024.2.4,57.43356045833972,2025-03-12 11h28.50.285938 -0400,
58,58,0,filler_square,None,None,None,None,None,None,None,None,None,None,2,1.0918536186218262,None,,,,,0,0,0,0,0,58,58,190,231.63534951210022,,,,,,,,,,,,,,,,,,,,,,,,,,,,,,,,,,,,,,,,,,,,,,,,,,,,,,,,,,,,,,,,,,,,,,,,,,,,,,,,,65.01603889097633,59.837381287129844,116.8255396892337,116.8255396892337,103.95985663870196,97.41747053248532,4.0,4.2,-184,-6,0,-264,203,-14,231.62043976783752,231.6205177307129,231.6238248348236,231.63534951210022,231.78672552108765,231.78672552108765,231.78672552108765,231.78672552108765,231.78672552108765,231.78672552108765,231.78672552108765,232.73706102371216,2,1.0918536186218262,None,,,,,,,,,,,,,,,,,,234,1,2025-03-12_11h28.31.951,comp,2024.2.4,57.43356045833972,2025-03-12 11h28.50.285938 -0400,
59,59,0,critical,wdh,20.0,2.1,lower,57.0,133.0,78.0,78.0,133.0,57.0,1,1.371657133102417,None,,,,,0,0,0,0,0,59,59,10,232.75472402572632,,,,,,,,,,,,,,,,,,,,,,,,,,,,,,,,,,,,,,,,,,,,,,,,,,,,,,,,,,,,,,,,,,,,,,,,,,,,,,,,,57.0,133.0,78.0,78.0,133.0,57.0,2.1,2.12,-202,-259,0,-255,164,276,232.73870182037354,232.73878359794617,232.742413520813,232.75472402572632,232.9048993587494,232.9048993587494,232.9048993587494,232.9048993587494,232.9048993587494,232.9048993587494,232.9048993587494,234.13611555099487,1,1.371657133102417,None,,,,,,,,,,,,,,,,,,234,1,2025-03-12_11h28.31.951,comp,2024.2.4,57.43356045833972,2025-03-12 11h28.50.285938 -0400,
60,60,0,critical,dhw,20.0,1.0,lower,78.0,78.0,133.0,57.0,57.0,133.0,1,1.5345592498779297,None,,,,,0,0,0,0,0,60,60,54,234.15246176719666,,,,,,,,,,,,,,,,,,,,,,,,,,,,,,,,,,,,,,,,,,,,,,,,,,,,,,,,,,,,,,,,,,,,,,,,,,,,,,,,,78.0,78.0,133.0,57.0,57.0,133.0,1.0,1.2,-164,3,0,-7,191,-4,234.13756227493286,234.13763999938965,234.140855550766,234.15246176719666,234.30400681495667,234.30400681495667,234.30400681495667,234.30400681495667,234.30400681495667,234.30400681495667,234.30400681495667,235.69772601127625,1,1.5345592498779297,None,,,,,,,,,,,,,,,,,,234,1,2025-03-12_11h28.31.951,comp,2024.2.4,57.43356045833972,2025-03-12 11h28.50.285938 -0400,
61,61,0,critical,wdh,35.0,2.1,lower,57.0,133.0,70.0,70.0,133.0,57.0,1,2.5351624488830566,None,,,,,0,0,0,0,0,61,61,8,235.71437096595764,,,,,,,,,,,,,,,,,,,,,,,,,,,,,,,,,,,,,,,,,,,,,,,,,,,,,,,,,,,,,,,,,,,,,,,,,,,,,,,,,57.0,133.0,70.0,70.0,133.0,57.0,2.1,2.11,-198,265,0,264,160,-269,235.69922637939453,235.69930577278137,235.70288825035095,235.71437096595764,235.85516834259033,235.85516834259033,235.85516834259033,235.85516834259033,235.85516834259033,235.85516834259033,235.85516834259033,238.2551143169403,1,2.5351624488830566,None,,,,,,,,,,,,,,,,,,234,1,2025-03-12_11h28.31.951,comp,2024.2.4,57.43356045833972,2025-03-12 11h28.50.285938 -0400,
62,62,0,critical,dhw,35.0,1.0,lower,70.0,70.0,133.0,57.0,57.0,133.0,2,2.3502700328826904,None,,,,,0,0,0,0,0,62,62,48,238.273211479187,,,,,,,,,,,,,,,,,,,,,,,,,,,,,,,,,,,,,,,,,,,,,,,,,,,,,,,,,,,,,,,,,,,,,,,,,,,,,,,,,70.0,70.0,133.0,57.0,57.0,133.0,1.0,1.1,-640,263,-480,277,-289,287,238.25668215751648,238.25676488876343,238.25989294052124,238.273211479187,238.42240023612976,238.42240023612976,238.42240023612976,238.42240023612976,238.42240023612976,238.42240023612976,238.42240023612976,240.64053344726562,2,2.3502700328826904,None,,,,,,,,,,,,,,,,,,234,1,2025-03-12_11h28.31.951,comp,2024.2.4,57.43356045833972,2025-03-12 11h28.50.285938 -0400,
63,63,0,filler_random,None,None,None,None,None,None,None,None,None,None,3,3.9823226928710938,None,,,,,0,0,0,0,0,63,63,149,240.65832543373108,,,,,,,,,,,,,,,,,,,,,,,,,,,,,,,,,,,,,,,,,,,,,,,,,,,,,,,,,,,,,,,,,,,,,,,,,,,,,,,,,99.02043036639117,100.1951817720557,97.69993591174119,64.45391181105892,59.93729777548251,120.77432533557001,3.0,3.2,-178,-264,0,-7,189,274,240.6423578262329,240.6424674987793,240.64624857902527,240.65832543373108,240.8078489303589,240.8078489303589,240.8078489303589,240.8078489303589,240.8078489303589,240.8078489303589,240.8078489303589,244.64625000953674,3,3.9823226928710938,None,,,,,,,,,,,,,,,,,,234,1,2025-03-12_11h28.31.951,comp,2024.2.4,57.43356045833972,2025-03-12 11h28.50.285938 -0400,
64,64,0,critical,hdw,35.0,3.0,lower,133.0,57.0,70.0,70.0,57.0,133.0,3,1.5498170852661133,None,,,,,0,0,0,0,0,64,64,110,244.66500735282898,,,,,,,,,,,,,,,,,,,,,,,,,,,,,,,,,,,,,,,,,,,,,,,,,,,,,,,,,,,,,,,,,,,,,,,,,,,,,,,,,133.0,57.0,70.0,70.0,57.0,133.0,3.0,3.1,-160,263,0,18,198,-262,244.64804339408875,244.64812445640564,244.6514117717743,244.66500735282898,244.80704760551453,244.80704760551453,244.80704760551453,244.80704760551453,244.80704760551453,244.80704760551453,244.80704760551453,246.21855664253235,3,1.5498170852661133,None,,,,,,,,,,,,,,,,,,234,1,2025-03-12_11h28.31.951,comp,2024.2.4,57.43356045833972,2025-03-12 11h28.50.285938 -0400,
65,65,0,critical,whd,20.0,2.1,lower,57.0,133.0,133.0,57.0,78.0,78.0,1,2.6443004608154297,None,,,,,0,0,0,0,0,65,65,14,246.23483419418335,,,,,,,,,,,,,,,,,,,,,,,,,,,,,,,,,,,,,,,,,,,,,,,,,,,,,,,,,,,,,,,,,,,,,,,,,,,,,,,,,57.0,133.0,133.0,57.0,78.0,78.0,2.1,2.11,-191,283,0,284,164,-268,246.22014665603638,246.22022485733032,246.22360014915466,246.23483419418335,246.37983012199402,246.37983012199402,246.37983012199402,246.37983012199402,246.37983012199402,246.37983012199402,246.37983012199402,248.89489006996155,1,2.6443004608154297,None,,,,,,,,,,,,,,,,,,234,1,2025-03-12_11h28.31.951,comp,2024.2.4,57.43356045833972,2025-03-12 11h28.50.285938 -0400,
66,66,0,critical,dwh,35.0,3.0,upper,127.0,127.0,125.0,200.0,200.0,125.0,2,1.1875696182250977,None,,,,,0,0,0,0,0,66,66,63,248.91541528701782,,,,,,,,,,,,,,,,,,,,,,,,,,,,,,,,,,,,,,,,,,,,,,,,,,,,,,,,,,,,,,,,,,,,,,,,,,,,,,,,,127.0,127.0,125.0,200.0,200.0,125.0,3.0,3.2,-260,-282,0,-5,258,251,248.89639019966125,248.89646673202515,248.90005731582642,248.91541528701782,249.05949449539185,249.05949449539185,249.05949449539185,249.05949449539185,249.05949449539185,249.05949449539185,249.05949449539185,250.10813760757446,2,1.1875696182250977,None,,,,,,,,,,,,,,,,,,234,1,2025-03-12_11h28.31.951,comp,2024.2.4,57.43356045833972,2025-03-12 11h28.50.285938 -0400,
67,67,0,filler_random,None,None,None,None,None,None,None,None,None,None,2,1.0176546573638916,None,,,,,0,0,0,0,0,67,67,131,250.12475156784058,,,,,,,,,,,,,,,,,,,,,,,,,,,,,,,,,,,,,,,,,,,,,,,,,,,,,,,,,,,,,,,,,,,,,,,,,,,,,,,,,96.25139596225476,143.95776430483323,165.0508001827434,124.56804942817011,188.6917934208741,131.9012777863843,2.1,2.12,-230,-261,0,-254,224,254,250.10996913909912,250.11010694503784,250.1133635044098,250.12475156784058,250.28070855140686,250.28070855140686,250.28070855140686,250.28070855140686,250.28070855140686,250.28070855140686,250.28070855140686,251.16007614135742,2,1.0176546573638916,None,,,,,,,,,,,,,,,,,,234,1,2025-03-12_11h28.31.951,comp,2024.2.4,57.43356045833972,2025-03-12 11h28.50.285938 -0400,
68,68,0,filler_random,None,None,None,None,None,None,None,None,None,None,3,1.5857789516448975,None,,,,,0,0,0,0,0,68,68,166,251.18128943443298,,,,,,,,,,,,,,,,,,,,,,,,,,,,,,,,,,,,,,,,,,,,,,,,,,,,,,,,,,,,,,,,,,,,,,,,,,,,,,,,,65.35427994748395,134.17107282303704,157.03529621425008,170.83147537819383,180.37898648170295,172.37623324773176,1.0,1.1,-729,258,-480,267,-212,279,251.16196870803833,251.16209864616394,251.16502332687378,251.18128943443298,251.32798051834106,251.32798051834106,251.32798051834106,251.32798051834106,251.32798051834106,251.32798051834106,251.32798051834106,252.77725458145142,3,1.5857789516448975,None,,,,,,,,,,,,,,,,,,234,1,2025-03-12_11h28.31.951,comp,2024.2.4,57.43356045833972,2025-03-12 11h28.50.285938 -0400,
69,69,0,filler_square,None,None,None,None,None,None,None,None,None,None,1,1.0922856330871582,None,,,,,0,0,0,0,0,69,69,204,252.79493951797485,,,,,,,,,,,,,,,,,,,,,,,,,,,,,,,,,,,,,,,,,,,,,,,,,,,,,,,,,,,,,,,,,,,,,,,,,,,,,,,,,113.73171264302756,113.73171264302756,82.22057371251861,92.78162555951964,73.6607810329686,98.13714456319977,1.0,1.3,281,-257,480,-270,671,-278,252.77926301956177,252.77938890457153,252.78300070762634,252.79493951797485,252.94189143180847,252.94189143180847,252.94189143180847,252.94189143180847,252.94189143180847,252.94189143180847,252.94189143180847,253.90187573432922,1,1.0922856330871582,None,,,,,,,,,,,,,,,,,,234,1,2025-03-12_11h28.31.951,comp,2024.2.4,57.43356045833972,2025-03-12 11h28.50.285938 -0400,
70,70,0,filler_square,None,None,None,None,None,None,None,None,None,None,2,1.1992766857147217,None,,,,,0,0,0,0,0,70,70,208,253.9222767353058,,,,,,,,,,,,,,,,,,,,,,,,,,,,,,,,,,,,,,,,,,,,,,,,,,,,,,,,,,,,,,,,,,,,,,,,,,,,,,,,,70.78861116728453,64.38959935207723,112.6253430235625,112.6253430235625,92.8548179562016,103.43659228306457,2.2,2.22,-185,264,0,-278,204,-254,253.90399837493896,253.90407752990723,253.90741276741028,253.9222767353058,254.06144833564758,254.06144833564758,254.06144833564758,254.06144833564758,254.06144833564758,254.06144833564758,254.06144833564758,255.1296145915985,2,1.1992766857147217,None,,,,,,,,,,,,,,,,,,234,1,2025-03-12_11h28.31.951,comp,2024.2.4,57.43356045833972,2025-03-12 11h28.50.285938 -0400,
71,71,0,critical,dhw,35.0,1.0,upper,127.0,127.0,200.0,125.0,125.0,200.0,2,1.2281110286712646,None,,,,,0,0,0,0,0,71,71,49,255.1468448638916,,,,,,,,,,,,,,,,,,,,,,,,,,,,,,,,,,,,,,,,,,,,,,,,,,,,,,,,,,,,,,,,,,,,,,,,,,,,,,,,,127.0,127.0,200.0,125.0,125.0,200.0,1.0,1.1,-702,272,-480,255,-222,289,255.1312608718872,255.1313693523407,255.13558173179626,255.1468448638916,255.29459190368652,255.29459190368652,255.29459190368652,255.29459190368652,255.29459190368652,255.29459190368652,255.29459190368652,256.37761926651,2,1.2281110286712646,None,,,,,,,,,,,,,,,,,,234,1,2025-03-12_11h28.31.951,comp,2024.2.4,57.43356045833972,2025-03-12 11h28.50.285938 -0400,
72,72,0,critical,dhw,20.0,1.0,upper,141.0,141.0,200.0,125.0,125.0,200.0,3,3.149595260620117,None,,,,,0,0,0,0,0,72,72,55,256.3942310810089,,,,,,,,,,,,,,,,,,,,,,,,,,,,,,,,,,,,,,,,,,,,,,,,,,,,,,,,,,,,,,,,,,,,,,,,,,,,,,,,,141.0,141.0,200.0,125.0,125.0,200.0,1.0,1.3,251,-258,480,-265,738,-281,256.3793215751648,256.3794014453888,256.3832187652588,256.3942310810089,256.55472326278687,256.55472326278687,256.55472326278687,256.55472326278687,256.55472326278687,256.55472326278687,256.55472326278687,259.5650415420532,3,3.149595260620117,None,,,,,,,,,,,,,,,,,,234,1,2025-03-12_11h28.31.951,comp,2024.2.4,57.43356045833972,2025-03-12 11h28.50.285938 -0400,
73,73,0,critical,hdw,20.0,4.0,lower,133.0,57.0,78.0,78.0,57.0,133.0,1,2.1290180683135986,None,,,,,0,0,0,0,0,73,73,118,259.5811071395874,,,,,,,,,,,,,,,,,,,,,,,,,,,,,,,,,,,,,,,,,,,,,,,,,,,,,,,,,,,,,,,,,,,,,,,,,,,,,,,,,133.0,57.0,78.0,78.0,57.0,133.0,4.0,4.2,-164,-8,0,-257,202,-18,259.56679797172546,259.56693506240845,259.5700843334198,259.5811071395874,259.7302076816559,259.7302076816559,259.7302076816559,259.7302076816559,259.7302076816559,259.7302076816559,259.7302076816559,261.7123017311096,1,2.1290180683135986,None,,,,,,,,,,,,,,,,,,234,1,2025-03-12_11h28.31.951,comp,2024.2.4,57.43356045833972,2025-03-12 11h28.50.285938 -0400,
74,74,0,critical,whd,35.0,2.1,upper,125.0,200.0,200.0,125.0,127.0,127.0,1,2.117462158203125,None,,,,,0,0,0,0,0,74,74,37,261.7295081615448,,,,,,,,,,,,,,,,,,,,,,,,,,,,,,,,,,,,,,,,,,,,,,,,,,,,,,,,,,,,,,,,,,,,,,,,,,,,,,,,,125.0,200.0,200.0,125.0,127.0,127.0,2.1,2.11,-258,263,0,290,222,-276,261.71405816078186,261.7141783237457,261.71784925460815,261.7295081615448,261.88239431381226,261.88239431381226,261.88239431381226,261.88239431381226,261.88239431381226,261.88239431381226,261.88239431381226,263.85315132141113,1,2.117462158203125,None,,,,,,,,,,,,,,,,,,234,1,2025-03-12_11h28.31.951,comp,2024.2.4,57.43356045833972,2025-03-12 11h28.50.285938 -0400,
75,75,0,catch,None,None,None,None,None,None,None,None,None,None,3,1.096928596496582,None,,,,,0,0,0,0,0,75,75,121,263.86922883987427,,,,,,,,,,,,,,,,,,,,,,,,,,,,,,,,,,,,,,,,,,,,,,,,,,,,,,,,,,,,,,,,,,,,,,,,,,,,,,,,,105,85,69,121,145,180,1.0,1.3,281,-276,480,-259,726,-275,263.8550913333893,263.8551707267761,263.8580996990204,263.86922883987427,264.011114358902,264.011114358902,264.011114358902,264.011114358902,264.011114358902,264.011114358902,264.011114358902,264.9820599555969,3,1.096928596496582,None,,,,,,,,,,,,,,,,,,234,1,2025-03-12_11h28.31.951,comp,2024.2.4,57.43356045833972,2025-03-12 11h28.50.285938 -0400,
76,76,0,filler_square,None,None,None,None,None,None,None,None,None,None,3,0.9148945808410645,None,,,,,0,0,0,0,0,76,76,180,264.99637603759766,,,,,,,,,,,,,,,,,,,,,,,,,,,,,,,,,,,,,,,,,,,,,,,,,,,,,,,,,,,,,,,,,,,,,,,,,,,,,,,,,84.63187684906131,100.27039828911953,119.51887962659653,105.1633087318112,158.6458639714278,158.6458639714278,4.0,4.2,-199,18,0,-255,228,-18,264.9839313030243,264.984002828598,264.98569226264954,264.99637603759766,265.14775705337524,265.14775705337524,265.14775705337524,265.14775705337524,265.14775705337524,265.14775705337524,265.14775705337524,265.91713976860046,3,0.9148945808410645,None,,,,,,,,,,,,,,,,,,234,1,2025-03-12_11h28.31.951,comp,2024.2.4,57.43356045833972,2025-03-12 11h28.50.285938 -0400,
77,77,0,filler_random,None,None,None,None,None,None,None,None,None,None,2,0.9546329975128174,None,,,,,0,0,0,0,0,77,77,158,265.9323501586914,,,,,,,,,,,,,,,,,,,,,,,,,,,,,,,,,,,,,,,,,,,,,,,,,,,,,,,,,,,,,,,,,,,,,,,,,,,,,,,,,147.52419634728523,68.35098769624396,192.622012377228,150.3064990789147,59.81403291894086,130.67853789147523,2.1,2.11,-205,261,0,252,236,-280,265.91867232322693,265.9187150001526,265.9215934276581,265.9323501586914,266.0817265510559,266.0817265510559,266.0817265510559,266.0817265510559,266.0817265510559,266.0817265510559,266.0817265510559,266.90240573883057,2,0.9546329975128174,None,,,,,,,,,,,,,,,,,,234,1,2025-03-12_11h28.31.951,comp,2024.2.4,57.43356045833972,2025-03-12 11h28.50.285938 -0400,
78,78,0,critical,hwd,20.0,2.1,upper,200.0,125.0,125.0,200.0,141.0,141.0,2,2.0782723426818848,None,,,,,0,0,0,0,0,78,78,19,266.9199652671814,,,,,,,,,,,,,,,,,,,,,,,,,,,,,,,,,,,,,,,,,,,,,,,,,,,,,,,,,,,,,,,,,,,,,,,,,,,,,,,,,200.0,125.0,125.0,200.0,141.0,141.0,2.1,2.11,-258,288,0,274,266,-279,266.9040207862854,266.9040904045105,266.9070813655853,266.9199652671814,267.06301951408386,267.06301951408386,267.06301951408386,267.06301951408386,267.06301951408386,267.06301951408386,267.06301951408386,269.0158610343933,2,2.0782723426818848,None,,,,,,,,,,,,,,,,,,234,1,2025-03-12_11h28.31.951,comp,2024.2.4,57.43356045833972,2025-03-12 11h28.50.285938 -0400,
79,79,0,filler_square,None,None,None,None,None,None,None,None,None,None,3,1.5518085956573486,None,,,,,0,0,0,0,0,79,79,198,269.0323224067688,,,,,,,,,,,,,,,,,,,,,,,,,,,,,,,,,,,,,,,,,,,,,,,,,,,,,,,,,,,,,,,,,,,,,,,,,,,,,,,,,67.88257705425994,74.22661481654674,78.26992974540113,78.26992974540113,72.43261314306355,59.663806513026756,2.1,2.12,-172,-252,0,-271,165,288,269.0180199146271,269.0181519985199,269.0216293334961,269.0323224067688,269.18181347846985,269.18181347846985,269.18181347846985,269.18181347846985,269.18181347846985,269.18181347846985,269.18181347846985,270.5868694782257,3,1.5518085956573486,None,,,,,,,,,,,,,,,,,,234,1,2025-03-12_11h28.31.951,comp,2024.2.4,57.43356045833972,2025-03-12 11h28.50.285938 -0400,
80,80,0,critical,dhw,20.0,2.1,upper,141.0,141.0,200.0,125.0,125.0,200.0,3,2.242239475250244,None,,,,,0,0,0,0,0,80,80,27,270.60401344299316,,,,,,,,,,,,,,,,,,,,,,,,,,,,,,,,,,,,,,,,,,,,,,,,,,,,,,,,,,,,,,,,,,,,,,,,,,,,,,,,,141.0,141.0,200.0,125.0,125.0,200.0,2.1,2.11,-229,283,0,286,258,-287,270.5884268283844,270.5885078907013,270.5926368236542,270.60401344299316,270.7506368160248,270.7506368160248,270.7506368160248,270.7506368160248,270.7506368160248,270.7506368160248,270.7506368160248,272.8605010509491,3,2.242239475250244,None,,,,,,,,,,,,,,,,,,234,1,2025-03-12_11h28.31.951,comp,2024.2.4,57.43356045833972,2025-03-12 11h28.50.285938 -0400,
81,81,0,filler_random,None,None,None,None,None,None,None,None,None,None,2,0.9391663074493408,None,,,,,0,0,0,0,0,81,81,148,272.87733149528503,,,,,,,,,,,,,,,,,,,,,,,,,,,,,,,,,,,,,,,,,,,,,,,,,,,,,,,,,,,,,,,,,,,,,,,,,,,,,,,,,143.42448913961073,69.42402144706763,164.40915317777814,126.71256659343251,93.94270364788079,133.68316051529493,4.0,4.1,-194,-253,0,-1,226,-275,272.86238646507263,272.8625011444092,272.86575961112976,272.87733149528503,273.0156047344208,273.0156047344208,273.0156047344208,273.0156047344208,273.0156047344208,273.0156047344208,273.0156047344208,273.8212037086487,2,0.9391663074493408,None,,,,,,,,,,,,,,,,,,234,1,2025-03-12_11h28.31.951,comp,2024.2.4,57.43356045833972,2025-03-12 11h28.50.285938 -0400,
82,82,0,critical,dhw,20.0,2.1,lower,78.0,78.0,133.0,57.0,57.0,133.0,2,1.5169601440429688,None,,,,,0,0,0,0,0,82,82,26,273.842520236969,,,,,,,,,,,,,,,,,,,,,,,,,,,,,,,,,,,,,,,,,,,,,,,,,,,,,,,,,,,,,,,,,,,,,,,,,,,,,,,,,78.0,78.0,133.0,57.0,57.0,133.0,2.1,2.12,-164,-261,0,-271,191,267,273.82319808006287,273.8232846260071,273.8265779018402,273.842520236969,273.9834609031677,273.9834609031677,273.9834609031677,273.9834609031677,273.9834609031677,273.9834609031677,273.9834609031677,275.3680031299591,2,1.5169601440429688,None,,,,,,,,,,,,,,,,,,234,1,2025-03-12_11h28.31.951,comp,2024.2.4,57.43356045833972,2025-03-12 11h28.50.285938 -0400,
83,83,0,filler_square,None,None,None,None,None,None,None,None,None,None,2,1.2997214794158936,None,,,,,0,0,0,0,0,83,83,174,275.38881063461304,,,,,,,,,,,,,,,,,,,,,,,,,,,,,,,,,,,,,,,,,,,,,,,,,,,,,,,,,,,,,,,,,,,,,,,,,,,,,,,,,112.8163593221349,112.8163593221349,109.40361664503784,112.60836519423334,96.0769640977944,97.00804601460763,2.2,2.22,-209,266,0,-261,201,-274,275.3699223995209,275.37000274658203,275.3731167316437,275.38881063461304,275.53729462623596,275.53729462623596,275.53729462623596,275.53729462623596,275.53729462623596,275.53729462623596,275.53729462623596,276.69740176200867,2,1.2997214794158936,None,,,,,,,,,,,,,,,,,,234,1,2025-03-12_11h28.31.951,comp,2024.2.4,57.43356045833972,2025-03-12 11h28.50.285938 -0400,
84,84,0,filler_random,None,None,None,None,None,None,None,None,None,None,1,1.005033254623413,None,,,,,0,0,0,0,0,84,84,160,276.713995218277,,,,,,,,,,,,,,,,,,,,,,,,,,,,,,,,,,,,,,,,,,,,,,,,,,,,,,,,,,,,,,,,,,,,,,,,,,,,,,,,,171.60641210319818,130.92195193658478,58.51642982824997,169.8625878215473,83.08826182427241,107.06332851569172,4.0,4.1,-246,-257,0,15,234,-260,276.69913697242737,276.69921469688416,276.7023856639862,276.713995218277,276.8525173664093,276.8525173664093,276.8525173664093,276.8525173664093,276.8525173664093,276.8525173664093,276.8525173664093,277.73326539993286,1,1.005033254623413,None,,,,,,,,,,,,,,,,,,234,1,2025-03-12_11h28.31.951,comp,2024.2.4,57.43356045833972,2025-03-12 11h28.50.285938 -0400,
85,85,0,critical,wdh,35.0,1.0,lower,57.0,133.0,70.0,70.0,133.0,57.0,1,2.9636785984039307,None,,,,,0,0,0,0,0,85,85,72,277.74954533576965,,,,,,,,,,,,,,,,,,,,,,,,,,,,,,,,,,,,,,,,,,,,,,,,,,,,,,,,,,,,,,,,,,,,,,,,,,,,,,,,,57.0,133.0,70.0,70.0,133.0,57.0,1.0,1.2,-198,-19,0,19,160,-10,277.73514795303345,277.7352292537689,277.7384581565857,277.74954533576965,277.9034707546234,277.9034707546234,277.9034707546234,277.9034707546234,277.9034707546234,277.9034707546234,277.9034707546234,280.71790981292725,1,2.9636785984039307,None,,,,,,,,,,,,,,,,,,234,1,2025-03-12_11h28.31.951,comp,2024.2.4,57.43356045833972,2025-03-12 11h28.50.285938 -0400,
86,86,0,critical,hdw,35.0,2.1,lower,133.0,57.0,70.0,70.0,57.0,133.0,3,2.6369032859802246,None,,,,,0,0,0,0,0,86,86,44,280.7385308742523,,,,,,,,,,,,,,,,,,,,,,,,,,,,,,,,,,,,,,,,,,,,,,,,,,,,,,,,,,,,,,,,,,,,,,,,,,,,,,,,,133.0,57.0,70.0,70.0,57.0,133.0,2.1,2.11,-160,250,0,266,198,-269,280.71997928619385,280.7200565338135,280.7230806350708,280.7385308742523,280.88642168045044,280.88642168045044,280.88642168045044,280.88642168045044,280.88642168045044,280.88642168045044,280.88642168045044,283.3864846229553,3,2.6369032859802246,None,,,,,,,,,,,,,,,,,,234,1,2025-03-12_11h28.31.951,comp,2024.2.4,57.43356045833972,2025-03-12 11h28.50.285938 -0400,
87,87,0,filler_random,None,None,None,None,None,None,None,None,None,None,2,1.3077056407928467,None,,,,,0,0,0,0,0,87,87,163,283.4034082889557,,,,,,,,,,,,,,,,,,,,,,,,,,,,,,,,,,,,,,,,,,,,,,,,,,,,,,,,,,,,,,,,,,,,,,,,,,,,,,,,,78.73776110464999,187.05047034105763,180.3933640109437,184.66605775352545,110.35159901125955,102.04821619852974,3.0,3.2,-282,-264,0,9,239,259,283.3884747028351,283.3885555267334,283.39253878593445,283.4034082889557,283.554137468338,283.554137468338,283.554137468338,283.554137468338,283.554137468338,283.554137468338,283.554137468338,284.7177517414093,2,1.3077056407928467,None,,,,,,,,,,,,,,,,,,234,1,2025-03-12_11h28.31.951,comp,2024.2.4,57.43356045833972,2025-03-12 11h28.50.285938 -0400,
88,88,0,filler_random,None,None,None,None,None,None,None,None,None,None,2,1.3326044082641602,None,,,,,0,0,0,0,0,88,88,134,284.73322224617004,,,,,,,,,,,,,,,,,,,,,,,,,,,,,,,,,,,,,,,,,,,,,,,,,,,,,,,,,,,,,,,,,,,,,,,,,,,,,,,,,178.6527589481567,85.82210691111293,81.50314928830846,199.06331519940971,94.0832170860723,167.42514817159065,4.0,4.2,-238,6,0,-250,279,-15,284.7194082736969,284.71948647499084,284.7224280834198,284.73322224617004,284.8855264186859,284.8855264186859,284.8855264186859,284.8855264186859,284.8855264186859,284.8855264186859,284.8855264186859,286.07115364074707,2,1.3326044082641602,None,,,,,,,,,,,,,,,,,,234,1,2025-03-12_11h28.31.951,comp,2024.2.4,57.43356045833972,2025-03-12 11h28.50.285938 -0400,
89,89,0,critical,hwd,20.0,2.1,lower,133.0,57.0,57.0,133.0,78.0,78.0,2,1.5176150798797607,None,,,,,0,0,0,0,0,89,89,42,286.08858370780945,,,,,,,,,,,,,,,,,,,,,,,,,,,,,,,,,,,,,,,,,,,,,,,,,,,,,,,,,,,,,,,,,,,,,,,,,,,,,,,,,133.0,57.0,57.0,133.0,78.0,78.0,2.1,2.12,-191,-274,0,-258,202,286,286.07298469543457,286.0731010437012,286.0767889022827,286.08858370780945,286.2358982563019,286.2358982563019,286.2358982563019,286.2358982563019,286.2358982563019,286.2358982563019,286.2358982563019,287.62231516838074,2,1.5176150798797607,None,,,,,,,,,,,,,,,,,,234,1,2025-03-12_11h28.31.951,comp,2024.2.4,57.43356045833972,2025-03-12 11h28.50.285938 -0400,
90,90,0,filler_square,None,None,None,None,None,None,None,None,None,None,3,1.4726698398590088,None,,,,,0,0,0,0,0,90,90,200,287.6386353969574,,,,,,,,,,,,,,,,,,,,,,,,,,,,,,,,,,,,,,,,,,,,,,,,,,,,,,,,,,,,,,,,,,,,,,,,,,,,,,,,,64.06405412920537,63.73848399968588,65.25108688845638,65.25108688845638,57.05021648887329,63.70895607668118,4.0,4.1,-160,-274,0,10,160,-282,287.62430691719055,287.624386548996,287.62753105163574,287.6386353969574,287.78882598876953,287.78882598876953,287.78882598876953,287.78882598876953,287.78882598876953,287.78882598876953,287.78882598876953,289.1220669746399,3,1.4726698398590088,None,,,,,,,,,,,,,,,,,,234,1,2025-03-12_11h28.31.951,comp,2024.2.4,57.43356045833972,2025-03-12 11h28.50.285938 -0400,
91,91,0,critical,dhw,35.0,2.1,upper,127.0,127.0,200.0,125.0,125.0,200.0,3,1.5992164611816406,None,,,,,0,0,0,0,0,91,91,1,289.13787817955017,,,,,,,,,,,,,,,,,,,,,,,,,,,,,,,,,,,,,,,,,,,,,,,,,,,,,,,,,,,,,,,,,,,,,,,,,,,,,,,,,127.0,127.0,200.0,125.0,125.0,200.0,2.1,2.11,-222,264,0,257,258,-265,289.12373638153076,289.1238765716553,289.12805008888245,289.13787817955017,289.2892415523529,289.2892415523529,289.2892415523529,289.2892415523529,289.2892415523529,289.2892415523529,289.2892415523529,290.74108600616455,3,1.5992164611816406,None,,,,,,,,,,,,,,,,,,234,1,2025-03-12_11h28.31.951,comp,2024.2.4,57.43356045833972,2025-03-12 11h28.50.285938 -0400,
92,92,0,critical,wdh,35.0,2.1,lower,57.0,133.0,70.0,70.0,133.0,57.0,1,1.3144357204437256,None,,,,,0,0,0,0,0,92,92,32,290.7584984302521,,,,,,,,,,,,,,,,,,,,,,,,,,,,,,,,,,,,,,,,,,,,,,,,,,,,,,,,,,,,,,,,,,,,,,,,,,,,,,,,,57.0,133.0,70.0,70.0,133.0,57.0,2.1,2.12,-198,-287,0,-274,160,278,290.7432339191437,290.7433202266693,290.7465238571167,290.7584984302521,290.9064962863922,290.9064962863922,290.9064962863922,290.9064962863922,290.9064962863922,290.9064962863922,290.9064962863922,292.07725048065186,1,1.3144357204437256,None,,,,,,,,,,,,,,,,,,234,1,2025-03-12_11h28.31.951,comp,2024.2.4,57.43356045833972,2025-03-12 11h28.50.285938 -0400,
93,93,0,critical,dwh,35.0,4.0,lower,70.0,70.0,57.0,133.0,133.0,57.0,3,1.9773190021514893,None,,,,,0,0,0,0,0,93,93,64,292.09374928474426,,,,,,,,,,,,,,,,,,,,,,,,,,,,,,,,,,,,,,,,,,,,,,,,,,,,,,,,,,,,,,,,,,,,,,,,,,,,,,,,,70.0,70.0,57.0,133.0,133.0,57.0,4.0,4.1,-198,-271,0,-7,191,-286,292.0793237686157,292.0794053077698,292.0823438167572,292.09374928474426,292.2383267879486,292.2383267879486,292.2383267879486,292.2383267879486,292.2383267879486,292.2383267879486,292.2383267879486,294.0762143135071,3,1.9773190021514893,None,,,,,,,,,,,,,,,,,,234,1,2025-03-12_11h28.31.951,comp,2024.2.4,57.43356045833972,2025-03-12 11h28.50.285938 -0400,
94,94,0,filler_square,None,None,None,None,None,None,None,None,None,None,1,1.4976391792297363,None,,,,,0,0,0,0,0,94,94,196,294.09439969062805,,,,,,,,,,,,,,,,,,,,,,,,,,,,,,,,,,,,,,,,,,,,,,,,,,,,,,,,,,,,,,,,,,,,,,,,,,,,,,,,,88.14657575128814,88.14657575128814,75.94467966155594,73.09608578786737,72.83941435089196,64.5919801275629,2.2,2.21,-177,-252,0,268,165,270,294.07823610305786,294.07834815979004,294.08228731155396,294.09439969062805,294.24069356918335,294.24069356918335,294.24069356918335,294.24069356918335,294.24069356918335,294.24069356918335,294.24069356918335,295.60979080200195,1,1.4976391792297363,None,,,,,,,,,,,,,,,,,,234,1,2025-03-12_11h28.31.951,comp,2024.2.4,57.43356045833972,2025-03-12 11h28.50.285938 -0400,
95,95,0,critical,whd,20.0,2.1,lower,57.0,133.0,133.0,57.0,78.0,78.0,1,2.9643959999084473,None,,,,,0,0,0,0,0,95,95,38,295.6257905960083,,,,,,,,,,,,,,,,,,,,,,,,,,,,,,,,,,,,,,,,,,,,,,,,,,,,,,,,,,,,,,,,,,,,,,,,,,,,,,,,,57.0,133.0,133.0,57.0,78.0,78.0,2.1,2.12,-191,-270,0,-276,164,269,295.6114468574524,295.61154317855835,295.61527252197266,295.6257905960083,295.7749741077423,295.7749741077423,295.7749741077423,295.7749741077423,295.7749741077423,295.7749741077423,295.7749741077423,298.60592699050903,1,2.9643959999084473,None,,,,,,,,,,,,,,,,,,234,1,2025-03-12_11h28.31.951,comp,2024.2.4,57.43356045833972,2025-03-12 11h28.50.285938 -0400,
96,96,0,filler_random,None,None,None,None,None,None,None,None,None,None,2,1.6217083930969238,None,,,,,0,0,0,0,0,96,96,162,298.6244447231293,,,,,,,,,,,,,,,,,,,,,,,,,,,,,,,,,,,,,,,,,,,,,,,,,,,,,,,,,,,,,,,,,,,,,,,,,,,,,,,,,92.65899661998971,80.56888653900032,103.5871709458988,176.23984602192746,145.99556774302602,112.14459027849074,2.2,2.21,-224,-250,0,271,240,254,298.6077151298523,298.6078450679779,298.61154222488403,298.6244447231293,298.77524733543396,298.77524733543396,298.77524733543396,298.77524733543396,298.77524733543396,298.77524733543396,298.77524733543396,300.2625005245209,2,1.6217083930969238,None,,,,,,,,,,,,,,,,,,234,1,2025-03-12_11h28.31.951,comp,2024.2.4,57.43356045833972,2025-03-12 11h28.50.285938 -0400,
97,97,0,filler_square,None,None,None,None,None,None,None,None,None,None,2,1.1600430011749268,None,,,,,0,0,0,0,0,97,97,170,300.2788474559784,,,,,,,,,,,,,,,,,,,,,,,,,,,,,,,,,,,,,,,,,,,,,,,,,,,,,,,,,,,,,,,,,,,,,,,,,,,,,,,,,65.44444794995785,74.05537768060647,88.20154181867005,88.20154181867005,69.47002228322143,75.960422446099,3.0,3.2,-177,-281,0,2,178,287,300.26473736763,300.26483607292175,300.26841402053833,300.2788474559784,300.4244968891144,300.4244968891144,300.4244968891144,300.4244968891144,300.4244968891144,300.4244968891144,300.4244968891144,301.4457755088806,2,1.1600430011749268,None,,,,,,,,,,,,,,,,,,234,1,2025-03-12_11h28.31.951,comp,2024.2.4,57.43356045833972,2025-03-12 11h28.50.285938 -0400,
98,98,0,filler_square,None,None,None,None,None,None,None,None,None,None,3,1.1747400760650635,None,,,,,0,0,0,0,0,98,98,194,301.4641308784485,,,,,,,,,,,,,,,,,,,,,,,,,,,,,,,,,,,,,,,,,,,,,,,,,,,,,,,,,,,,,,,,,,,,,,,,,,,,,,,,,106.95644929798675,66.84262044984045,59.563440714523495,138.512288975253,148.01084033513928,148.01084033513928,4.0,4.2,-199,-9,0,-271,239,-2,301.4481678009033,301.44824838638306,301.45113015174866,301.4641308784485,301.6107008457184,301.6107008457184,301.6107008457184,301.6107008457184,301.6107008457184,301.6107008457184,301.6107008457184,302.6484704017639,3,1.1747400760650635,None,,,,,,,,,,,,,,,,,,234,1,2025-03-12_11h28.31.951,comp,2024.2.4,57.43356045833972,2025-03-12 11h28.50.285938 -0400,
99,99,0,critical,whd,20.0,4.0,lower,57.0,133.0,133.0,57.0,78.0,78.0,2,4.707694053649902,None,,,,,0,0,0,0,0,99,99,94,302.667111158371,,,,,,,,,,,,,,,,,,,,,,,,,,,,,,,,,,,,,,,,,,,,,,,,,,,,,,,,,,,,,,,,,,,,,,,,,,,,,,,,,57.0,133.0,133.0,57.0,78.0,78.0,4.0,4.2,-191,16,0,-277,164,3,302.65001368522644,302.6500918865204,302.6530530452728,302.667111158371,302.8099272251129,302.8099272251129,302.8099272251129,302.8099272251129,302.8099272251129,302.8099272251129,302.8099272251129,307.3775382041931,2,4.707694053649902,None,,,,,,,,,,,,,,,,,,234,1,2025-03-12_11h28.31.951,comp,2024.2.4,57.43356045833972,2025-03-12 11h28.50.285938 -0400,
100,100,0,filler_random,None,None,None,None,None,None,None,None,None,None,2,1.1816833019256592,None,,,,,0,0,0,0,0,100,100,165,307.3936231136322,,,,,,,,,,,,,,,,,,,,,,,,,,,,,,,,,,,,,,,,,,,,,,,,,,,,,,,,,,,,,,,,,,,,,,,,,,,,,,,,,93.4625607043866,98.62778444924146,104.08490294281964,178.8694123563673,138.5935801466141,86.34142592712715,2.2,2.21,-235,-263,0,255,229,284,307.37933111190796,307.3794503211975,307.3827986717224,307.3936231136322,307.54272985458374,307.54272985458374,307.54272985458374,307.54272985458374,307.54272985458374,307.54272985458374,307.54272985458374,308.58141326904297,2,1.1816833019256592,None,,,,,,,,,,,,,,,,,,234,1,2025-03-12_11h28.31.951,comp,2024.2.4,57.43356045833972,2025-03-12 11h28.50.285938 -0400,
101,101,0,critical,hdw,35.0,2.1,upper,200.0,125.0,127.0,127.0,125.0,200.0,1,1.122945785522461,None,,,,,0,0,0,0,0,101,101,45,308.59802627563477,,,,,,,,,,,,,,,,,,,,,,,,,,,,,,,,,,,,,,,,,,,,,,,,,,,,,,,,,,,,,,,,,,,,,,,,,,,,,,,,,200.0,125.0,127.0,127.0,125.0,200.0,2.1,2.12,-222,-252,0,-272,260,280,308.5834627151489,308.58354210853577,308.58692145347595,308.59802627563477,308.7459306716919,308.7459306716919,308.7459306716919,308.7459306716919,308.7459306716919,308.7459306716919,308.7459306716919,309.72284293174744,1,1.122945785522461,None,,,,,,,,,,,,,,,,,,234,1,2025-03-12_11h28.31.951,comp,2024.2.4,57.43356045833972,2025-03-12 11h28.50.285938 -0400,
102,102,0,critical,dhw,20.0,2.1,upper,141.0,141.0,200.0,125.0,125.0,200.0,2,1.2493760585784912,None,,,,,0,0,0,0,0,102,102,3,309.74078154563904,,,,,,,,,,,,,,,,,,,,,,,,,,,,,,,,,,,,,,,,,,,,,,,,,,,,,,,,,,,,,,,,,,,,,,,,,,,,,,,,,141.0,141.0,200.0,125.0,125.0,200.0,2.1,2.11,-229,259,0,272,258,-254,309.72443866729736,309.7245168685913,309.72845697402954,309.74078154563904,309.89507269859314,309.89507269859314,309.89507269859314,309.89507269859314,309.89507269859314,309.89507269859314,309.89507269859314,310.9999008178711,2,1.2493760585784912,None,,,,,,,,,,,,,,,,,,234,1,2025-03-12_11h28.31.951,comp,2024.2.4,57.43356045833972,2025-03-12 11h28.50.285938 -0400,
103,103,0,critical,hdw,35.0,4.0,upper,200.0,125.0,127.0,127.0,125.0,200.0,1,1.6072981357574463,None,,,,,0,0,0,0,0,103,103,113,311.01575779914856,,,,,,,,,,,,,,,,,,,,,,,,,,,,,,,,,,,,,,,,,,,,,,,,,,,,,,,,,,,,,,,,,,,,,,,,,,,,,,,,,200.0,125.0,127.0,127.0,125.0,200.0,4.0,4.2,-222,15,0,-252,260,-2,311.0013871192932,311.00146532058716,311.0043954849243,311.01575779914856,311.15907549858093,311.15907549858093,311.15907549858093,311.15907549858093,311.15907549858093,311.15907549858093,311.15907549858093,312.62924790382385,1,1.6072981357574463,None,,,,,,,,,,,,,,,,,,234,1,2025-03-12_11h28.31.951,comp,2024.2.4,57.43356045833972,2025-03-12 11h28.50.285938 -0400,
104,104,0,critical,wdh,20.0,2.1,lower,57.0,133.0,78.0,78.0,133.0,57.0,3,2.832972288131714,None,,,,,0,0,0,0,0,104,104,34,312.6452136039734,,,,,,,,,,,,,,,,,,,,,,,,,,,,,,,,,,,,,,,,,,,,,,,,,,,,,,,,,,,,,,,,,,,,,,,,,,,,,,,,,57.0,133.0,78.0,78.0,133.0,57.0,2.1,2.11,-202,261,0,255,164,-287,312.6308317184448,312.63090991973877,312.63427114486694,312.6452136039734,312.7953836917877,312.7953836917877,312.7953836917877,312.7953836917877,312.7953836917877,312.7953836917877,312.7953836917877,315.49588322639465,3,2.832972288131714,None,,,,,,,,,,,,,,,,,,234,1,2025-03-12_11h28.31.951,comp,2024.2.4,57.43356045833972,2025-03-12 11h28.50.285938 -0400,
105,105,0,critical,dhw,20.0,4.0,upper,141.0,141.0,200.0,125.0,125.0,200.0,3,1.8856661319732666,None,,,,,0,0,0,0,0,105,105,59,315.51261019706726,,,,,,,,,,,,,,,,,,,,,,,,,,,,,,,,,,,,,,,,,,,,,,,,,,,,,,,,,,,,,,,,,,,,,,,,,,,,,,,,,141.0,141.0,200.0,125.0,125.0,200.0,4.0,4.1,-229,-263,0,-3,258,-260,315.4974732398987,315.49755454063416,315.5016899108887,315.51261019706726,315.66734790802,315.66734790802,315.66734790802,315.66734790802,315.66734790802,315.66734790802,315.66734790802,317.4132878780365,3,1.8856661319732666,None,,,,,,,,,,,,,,,,,,234,1,2025-03-12_11h28.31.951,comp,2024.2.4,57.43356045833972,2025-03-12 11h28.50.285938 -0400,
106,106,0,filler_square,None,None,None,None,None,None,None,None,None,None,1,1.1605291366577148,None,,,,,0,0,0,0,0,106,106,201,317.42963695526123,,,,,,,,,,,,,,,,,,,,,,,,,,,,,,,,,,,,,,,,,,,,,,,,,,,,,,,,,,,,,,,,,,,,,,,,,,,,,,,,,176.65513508504228,176.65513508504228,142.6409846215135,172.11041076079476,147.11655274372458,146.97501724519475,2.1,2.12,-270,-272,0,-284,256,281,317.4150836467743,317.4151611328125,317.4191994667053,317.42963695526123,317.5791263580322,317.5791263580322,317.5791263580322,317.5791263580322,317.5791263580322,317.5791263580322,317.5791263580322,318.6031458377838,1,1.1605291366577148,None,,,,,,,,,,,,,,,,,,234,1,2025-03-12_11h28.31.951,comp,2024.2.4,57.43356045833972,2025-03-12 11h28.50.285938 -0400,
107,107,0,filler_random,None,None,None,None,None,None,None,None,None,None,2,1.0370421409606934,None,,,,,0,0,0,0,0,107,107,138,318.6182062625885,,,,,,,,,,,,,,,,,,,,,,,,,,,,,,,,,,,,,,,,,,,,,,,,,,,,,,,,,,,,,,,,,,,,,,,,,,,,,,,,,169.95404924028514,82.945808885647,183.61329233623158,172.51392012272936,155.36920829281073,93.9880608888481,4.0,4.2,-224,-11,0,-288,229,6,318.60483384132385,318.6049106121063,318.6078042984009,318.6182062625885,318.76416516304016,318.76416516304016,318.76416516304016,318.76416516304016,318.76416516304016,318.76416516304016,318.76416516304016,319.6596336364746,2,1.0370421409606934,None,,,,,,,,,,,,,,,,,,234,1,2025-03-12_11h28.31.951,comp,2024.2.4,57.43356045833972,2025-03-12 11h28.50.285938 -0400,
108,108,0,filler_random,None,None,None,None,None,None,None,None,None,None,2,1.17596435546875,None,,,,,0,0,0,0,0,108,108,133,319.67815470695496,,,,,,,,,,,,,,,,,,,,,,,,,,,,,,,,,,,,,,,,,,,,,,,,,,,,,,,,,,,,,,,,,,,,,,,,,,,,,,,,,167.4770395489976,67.6360408058887,106.27856649455688,134.13405428443883,94.7181124771874,137.74586223729887,1.0,1.3,283,-272,480,-280,712,-253,319.6614098548889,319.66148710250854,319.6648495197296,319.67815470695496,319.82723212242126,319.82723212242126,319.82723212242126,319.82723212242126,319.82723212242126,319.82723212242126,319.82723212242126,320.864275932312,2,1.17596435546875,None,,,,,,,,,,,,,,,,,,234,1,2025-03-12_11h28.31.951,comp,2024.2.4,57.43356045833972,2025-03-12 11h28.50.285938 -0400,
109,109,0,filler_random,None,None,None,None,None,None,None,None,None,None,1,2.510483503341675,None,,,,,0,0,0,0,0,109,109,151,320.8807632923126,,,,,,,,,,,,,,,,,,,,,,,,,,,,,,,,,,,,,,,,,,,,,,,,,,,,,,,,,,,,,,,,,,,,,,,,,,,,,,,,,149.5497447558493,133.32618313763675,182.66243653315266,60.94975257631705,74.35165186170579,109.28490101528934,2.1,2.12,-193,-251,0,-275,181,274,320.86598229408264,320.86606192588806,320.87014842033386,320.8807632923126,321.0360178947449,321.0360178947449,321.0360178947449,321.0360178947449,321.0360178947449,321.0360178947449,321.0360178947449,323.39898324012756,1,2.510483503341675,None,,,,,,,,,,,,,,,,,,234,1,2025-03-12_11h28.31.951,comp,2024.2.4,57.43356045833972,2025-03-12 11h28.50.285938 -0400,
110,110,0,critical,hwd,20.0,3.0,upper,200.0,125.0,125.0,200.0,141.0,141.0,2,1.806983232498169,None,,,,,0,0,0,0,0,110,110,105,323.4161648750305,,,,,,,,,,,,,,,,,,,,,,,,,,,,,,,,,,,,,,,,,,,,,,,,,,,,,,,,,,,,,,,,,,,,,,,,,,,,,,,,,200.0,125.0,125.0,200.0,141.0,141.0,3.0,3.2,-258,-276,0,-2,266,259,323.4007258415222,323.40086221694946,323.40428137779236,323.4161648750305,323.55354166030884,323.55354166030884,323.55354166030884,323.55354166030884,323.55354166030884,323.55354166030884,323.55354166030884,325.2313940525055,2,1.806983232498169,None,,,,,,,,,,,,,,,,,,234,1,2025-03-12_11h28.31.951,comp,2024.2.4,57.43356045833972,2025-03-12 11h28.50.285938 -0400,
111,111,0,filler_random,None,None,None,None,None,None,None,None,None,None,2,1.0939199924468994,None,,,,,0,0,0,0,0,111,111,169,325.2488663196564,,,,,,,,,,,,,,,,,,,,,,,,,,,,,,,,,,,,,,,,,,,,,,,,,,,,,,,,,,,,,,,,,,,,,,,,,,,,,,,,,69.39146138986916,117.65017977329441,148.98724879023624,128.8854089722455,125.62590370916436,102.6105452108292,2.1,2.12,-219,-286,0,-272,212,255,325.2332937717438,325.2333755493164,325.23681020736694,325.2488663196564,325.39684224128723,325.39684224128723,325.39684224128723,325.39684224128723,325.39684224128723,325.39684224128723,325.39684224128723,326.3522870540619,2,1.0939199924468994,None,,,,,,,,,,,,,,,,,,234,1,2025-03-12_11h28.31.951,comp,2024.2.4,57.43356045833972,2025-03-12 11h28.50.285938 -0400,
112,112,0,critical,dwh,20.0,4.0,lower,78.0,78.0,57.0,133.0,133.0,57.0,2,1.61686372756958,None,,,,,0,0,0,0,0,112,112,70,326.37330412864685,,,,,,,,,,,,,,,,,,,,,,,,,,,,,,,,,,,,,,,,,,,,,,,,,,,,,,,,,,,,,,,,,,,,,,,,,,,,,,,,,78.0,78.0,57.0,133.0,133.0,57.0,4.0,4.2,-202,6,0,-284,191,16,326.35398602485657,326.3540813922882,326.357462644577,326.37330412864685,326.51793217658997,326.51793217658997,326.51793217658997,326.51793217658997,326.51793217658997,326.51793217658997,326.51793217658997,328.00373673439026,2,1.61686372756958,None,,,,,,,,,,,,,,,,,,234,1,2025-03-12_11h28.31.951,comp,2024.2.4,57.43356045833972,2025-03-12 11h28.50.285938 -0400,
113,113,0,critical,dhw,35.0,3.0,upper,127.0,127.0,200.0,125.0,125.0,200.0,2,1.0254316329956055,None,,,,,0,0,0,0,0,113,113,51,328.0216290950775,,,,,,,,,,,,,,,,,,,,,,,,,,,,,,,,,,,,,,,,,,,,,,,,,,,,,,,,,,,,,,,,,,,,,,,,,,,,,,,,,127.0,127.0,200.0,125.0,125.0,200.0,3.0,3.2,-222,-284,0,-3,258,289,328.00538182258606,328.00546050071716,328.00843381881714,328.0216290950775,328.167546749115,328.167546749115,328.167546749115,328.167546749115,328.167546749115,328.167546749115,328.167546749115,329.0516424179077,2,1.0254316329956055,None,,,,,,,,,,,,,,,,,,234,1,2025-03-12_11h28.31.951,comp,2024.2.4,57.43356045833972,2025-03-12 11h28.50.285938 -0400,
114,114,0,critical,hwd,20.0,1.0,upper,200.0,125.0,125.0,200.0,141.0,141.0,2,1.4838073253631592,None,,,,,0,0,0,0,0,114,114,103,329.0689306259155,,,,,,,,,,,,,,,,,,,,,,,,,,,,,,,,,,,,,,,,,,,,,,,,,,,,,,,,,,,,,,,,,,,,,,,,,,,,,,,,,200.0,125.0,125.0,200.0,141.0,141.0,1.0,1.1,-738,256,-480,256,-214,271,329.0533447265625,329.05342531204224,329.0573332309723,329.0689306259155,329.2177984714508,329.2177984714508,329.2177984714508,329.2177984714508,329.2177984714508,329.2177984714508,329.2177984714508,330.5600645542145,2,1.4838073253631592,None,,,,,,,,,,,,,,,,,,234,1,2025-03-12_11h28.31.951,comp,2024.2.4,57.43356045833972,2025-03-12 11h28.50.285938 -0400,
115,115,0,filler_square,None,None,None,None,None,None,None,None,None,None,2,1.2568645477294922,None,,,,,0,0,0,0,0,115,115,197,330.58131766319275,,,,,,,,,,,,,,,,,,,,,,,,,,,,,,,,,,,,,,,,,,,,,,,,,,,,,,,,,,,,,,,,,,,,,,,,,,,,,,,,,133.79729524542284,167.7222019374041,170.58197836445754,170.58197836445754,139.40085308971965,109.1957389792473,1.0,1.3,215,-263,480,-281,716,-265,330.56188344955444,330.5619623661041,330.56486988067627,330.58131766319275,330.71898651123047,330.71898651123047,330.71898651123047,330.71898651123047,330.71898651123047,330.71898651123047,330.71898651123047,331.85683965682983,2,1.2568645477294922,None,,,,,,,,,,,,,,,,,,234,1,2025-03-12_11h28.31.951,comp,2024.2.4,57.43356045833972,2025-03-12 11h28.50.285938 -0400,
116,116,0,critical,wdh,20.0,2.1,upper,125.0,200.0,141.0,141.0,200.0,125.0,1,1.3343448638916016,None,,,,,0,0,0,0,0,116,116,35,331.8727436065674,,,,,,,,,,,,,,,,,,,,,,,,,,,,,,,,,,,,,,,,,,,,,,,,,,,,,,,,,,,,,,,,,,,,,,,,,,,,,,,,,125.0,200.0,141.0,141.0,200.0,125.0,2.1,2.12,-266,-280,0,-256,229,263,331.85859537124634,331.85876631736755,331.86217975616455,331.8727436065674,332.01930046081543,332.01930046081543,332.01930046081543,332.01930046081543,332.01930046081543,332.01930046081543,332.01930046081543,333.2150454521179,1,1.3343448638916016,None,,,,,,,,,,,,,,,,,,234,1,2025-03-12_11h28.31.951,comp,2024.2.4,57.43356045833972,2025-03-12 11h28.50.285938 -0400,
117,117,0,critical,wdh,35.0,3.0,lower,57.0,133.0,70.0,70.0,133.0,57.0,1,1.0078024864196777,None,,,,,0,0,0,0,0,117,117,74,333.23146319389343,,,,,,,,,,,,,,,,,,,,,,,,,,,,,,,,,,,,,,,,,,,,,,,,,,,,,,,,,,,,,,,,,,,,,,,,,,,,,,,,,57.0,133.0,70.0,70.0,133.0,57.0,3.0,3.2,-198,-260,0,-10,160,260,333.21640276908875,333.21645522117615,333.2187297344208,333.23146319389343,333.3704192638397,333.3704192638397,333.3704192638397,333.3704192638397,333.3704192638397,333.3704192638397,333.3704192638397,334.254549741745,1,1.0078024864196777,None,,,,,,,,,,,,,,,,,,234,1,2025-03-12_11h28.31.951,comp,2024.2.4,57.43356045833972,2025-03-12 11h28.50.285938 -0400,
118,118,0,filler_square,None,None,None,None,None,None,None,None,None,None,2,0.8487401008605957,None,,,,,0,0,0,0,0,118,118,188,334.2697160243988,,,,,,,,,,,,,,,,,,,,,,,,,,,,,,,,,,,,,,,,,,,,,,,,,,,,,,,,,,,,,,,,,,,,,,,,,,,,,,,,,64.02089538558721,73.68144730088207,110.1624575683094,110.1624575683094,77.62973144456994,90.45319051264823,3.0,3.2,-188,-282,0,15,196,273,334.2562749385834,334.2563316822052,334.2587020397186,334.2697160243988,334.4197528362274,334.4197528362274,334.4197528362274,334.4197528362274,334.4197528362274,334.4197528362274,334.4197528362274,335.1246042251587,2,0.8487401008605957,None,,,,,,,,,,,,,,,,,,234,1,2025-03-12_11h28.31.951,comp,2024.2.4,57.43356045833972,2025-03-12 11h28.50.285938 -0400,
119,119,0,critical,wdh,35.0,2.1,upper,125.0,200.0,127.0,127.0,200.0,125.0,1,0.9199724197387695,None,,,,,0,0,0,0,0,119,119,9,335.1421949863434,,,,,,,,,,,,,,,,,,,,,,,,,,,,,,,,,,,,,,,,,,,,,,,,,,,,,,,,,,,,,,,,,,,,,,,,,,,,,,,,,125.0,200.0,127.0,127.0,200.0,125.0,2.1,2.12,-260,-265,0,-275,222,279,335.12619137763977,335.1262710094452,335.1291778087616,335.1421949863434,335.2857394218445,335.2857394218445,335.2857394218445,335.2857394218445,335.2857394218445,335.2857394218445,335.2857394218445,336.0746922492981,1,0.9199724197387695,None,,,,,,,,,,,,,,,,,,234,1,2025-03-12_11h28.31.951,comp,2024.2.4,57.43356045833972,2025-03-12 11h28.50.285938 -0400,
120,120,0,critical,wdh,35.0,3.0,upper,125.0,200.0,127.0,127.0,200.0,125.0,1,1.1643781661987305,None,,,,,0,0,0,0,0,120,120,75,336.0898814201355,,,,,,,,,,,,,,,,,,,,,,,,,,,,,,,,,,,,,,,,,,,,,,,,,,,,,,,,,,,,,,,,,,,,,,,,,,,,,,,,,125.0,200.0,127.0,127.0,200.0,125.0,3.0,3.1,-260,257,0,-1,222,-281,336.0763463973999,336.07647347450256,336.07949328422546,336.0898814201355,336.2368714809418,336.2368714809418,336.2368714809418,336.2368714809418,336.2368714809418,336.2368714809418,336.2368714809418,337.26875591278076,1,1.1643781661987305,None,,,,,,,,,,,,,,,,,,234,1,2025-03-12_11h28.31.951,comp,2024.2.4,57.43356045833972,2025-03-12 11h28.50.285938 -0400,
121,121,0,critical,whd,35.0,2.1,lower,57.0,133.0,133.0,57.0,70.0,70.0,2,2.281473159790039,None,,,,,0,0,0,0,0,121,121,12,337.28487181663513,,,,,,,,,,,,,,,,,,,,,,,,,,,,,,,,,,,,,,,,,,,,,,,,,,,,,,,,,,,,,,,,,,,,,,,,,,,,,,,,,57.0,133.0,133.0,57.0,70.0,70.0,2.1,2.11,-191,289,0,274,160,-258,337.27041888237,337.27049493789673,337.273809671402,337.28487181663513,337.4442594051361,337.4442594051361,337.4442594051361,337.4442594051361,337.4442594051361,337.4442594051361,337.4442594051361,339.5726206302643,2,2.281473159790039,None,,,,,,,,,,,,,,,,,,234,1,2025-03-12_11h28.31.951,comp,2024.2.4,57.43356045833972,2025-03-12 11h28.50.285938 -0400,
122,122,0,critical,whd,20.0,4.0,upper,125.0,200.0,200.0,125.0,141.0,141.0,1,2.5051660537719727,None,,,,,0,0,0,0,0,122,122,95,339.59059882164,,,,,,,,,,,,,,,,,,,,,,,,,,,,,,,,,,,,,,,,,,,,,,,,,,,,,,,,,,,,,,,,,,,,,,,,,,,,,,,,,125.0,200.0,200.0,125.0,141.0,141.0,4.0,4.1,-258,-285,0,12,229,-258,339.5742118358612,339.57429456710815,339.57736897468567,339.59059882164,339.737163066864,339.737163066864,339.737163066864,339.737163066864,339.737163066864,339.737163066864,339.737163066864,342.10908031463623,1,2.5051660537719727,None,,,,,,,,,,,,,,,,,,234,1,2025-03-12_11h28.31.951,comp,2024.2.4,57.43356045833972,2025-03-12 11h28.50.285938 -0400,
123,123,0,critical,wdh,20.0,4.0,upper,125.0,200.0,141.0,141.0,200.0,125.0,2,1.5691745281219482,None,,,,,0,0,0,0,0,123,123,83,342.12595319747925,,,,,,,,,,,,,,,,,,,,,,,,,,,,,,,,,,,,,,,,,,,,,,,,,,,,,,,,,,,,,,,,,,,,,,,,,,,,,,,,,125.0,200.0,141.0,141.0,200.0,125.0,4.0,4.2,-266,-14,0,-262,229,10,342.111159324646,342.11129093170166,342.1150691509247,342.12595319747925,342.2709572315216,342.2709572315216,342.2709572315216,342.2709572315216,342.2709572315216,342.2709572315216,342.2709572315216,343.71231508255005,2,1.5691745281219482,None,,,,,,,,,,,,,,,,,,234,1,2025-03-12_11h28.31.951,comp,2024.2.4,57.43356045833972,2025-03-12 11h28.50.285938 -0400,
124,124,0,filler_square,None,None,None,None,None,None,None,None,None,None,2,2.82871413230896,None,,,,,0,0,0,0,0,124,124,191,343.729820728302,,,,,,,,,,,,,,,,,,,,,,,,,,,,,,,,,,,,,,,,,,,,,,,,,,,,,,,,,,,,,,,,,,,,,,,,,,,,,,,,,82.4618998145966,115.27007132390403,149.4304365116615,149.4304365116615,105.79042278658832,138.0275338293094,2.2,2.22,-228,271,0,-261,240,-262,343.7141361236572,343.7142128944397,343.71712255477905,343.729820728302,343.8735246658325,343.8735246658325,343.8735246658325,343.8735246658325,343.8735246658325,343.8735246658325,343.8735246658325,346.5802161693573,2,2.82871413230896,None,,,,,,,,,,,,,,,,,,234,1,2025-03-12_11h28.31.951,comp,2024.2.4,57.43356045833972,2025-03-12 11h28.50.285938 -0400,
125,125,0,filler_square,None,None,None,None,None,None,None,None,None,None,2,3.033442735671997,None,,,,,0,0,0,0,0,125,125,177,346.5985760688782,,,,,,,,,,,,,,,,,,,,,,,,,,,,,,,,,,,,,,,,,,,,,,,,,,,,,,,,,,,,,,,,,,,,,,,,,,,,,,,,,57.95827962518885,58.57990791591179,58.65448813563694,58.65448813563694,57.52855876785311,58.235858998455384,2.2,2.21,-155,-284,0,271,154,275,346.58201146125793,346.58208894729614,346.5849585533142,346.5985760688782,346.7383427619934,346.7383427619934,346.7383427619934,346.7383427619934,346.7383427619934,346.7383427619934,346.7383427619934,349.637389421463,2,3.033442735671997,None,,,,,,,,,,,,,,,,,,234,1,2025-03-12_11h28.31.951,comp,2024.2.4,57.43356045833972,2025-03-12 11h28.50.285938 -0400,
126,126,0,critical,hwd,20.0,3.0,lower,133.0,57.0,57.0,133.0,78.0,78.0,2,5.31301736831665,None,,,,,0,0,0,0,0,126,126,104,349.65337347984314,,,,,,,,,,,,,,,,,,,,,,,,,,,,,,,,,,,,,,,,,,,,,,,,,,,,,,,,,,,,,,,,,,,,,,,,,,,,,,,,,133.0,57.0,57.0,133.0,78.0,78.0,3.0,3.1,-191,283,0,-12,202,-272,349.6390357017517,349.6391382217407,349.64242601394653,349.65337347984314,349.7910270690918,349.7910270690918,349.7910270690918,349.7910270690918,349.7910270690918,349.7910270690918,349.7910270690918,354.9816219806671,2,5.31301736831665,None,,,,,,,,,,,,,,,,,,234,1,2025-03-12_11h28.31.951,comp,2024.2.4,57.43356045833972,2025-03-12 11h28.50.285938 -0400,
127,127,0,critical,wdh,20.0,2.1,upper,125.0,200.0,141.0,141.0,200.0,125.0,1,1.599919319152832,None,,,,,0,0,0,0,0,127,127,11,354.9990541934967,,,,,,,,,,,,,,,,,,,,,,,,,,,,,,,,,,,,,,,,,,,,,,,,,,,,,,,,,,,,,,,,,,,,,,,,,,,,,,,,,125.0,200.0,141.0,141.0,200.0,125.0,2.1,2.11,-266,255,0,277,229,-272,354.9832127094269,354.98329067230225,354.98626804351807,354.9990541934967,355.141401052475,355.141401052475,355.141401052475,355.141401052475,355.141401052475,355.141401052475,355.141401052475,356.60907316207886,1,1.599919319152832,None,,,,,,,,,,,,,,,,,,234,1,2025-03-12_11h28.31.951,comp,2024.2.4,57.43356045833972,2025-03-12 11h28.50.285938 -0400,
128,128,0,critical,hwd,20.0,4.0,upper,200.0,125.0,125.0,200.0,141.0,141.0,2,1.952683687210083,None,,,,,0,0,0,0,0,128,128,107,356.62998843193054,,,,,,,,,,,,,,,,,,,,,,,,,,,,,,,,,,,,,,,,,,,,,,,,,,,,,,,,,,,,,,,,,,,,,,,,,,,,,,,,,200.0,125.0,125.0,200.0,141.0,141.0,4.0,4.1,-258,-287,0,-4,266,-278,356.61073756217957,356.61086201667786,356.61418104171753,356.62998843193054,356.7764616012573,356.7764616012573,356.7764616012573,356.7764616012573,356.7764616012573,356.7764616012573,356.7764616012573,358.5920112133026,2,1.952683687210083,None,,,,,,,,,,,,,,,,,,234,1,2025-03-12_11h28.31.951,comp,2024.2.4,57.43356045833972,2025-03-12 11h28.50.285938 -0400,
129,129,0,filler_random,None,None,None,None,None,None,None,None,None,None,3,1.6777210235595703,None,,,,,0,0,0,0,0,129,129,137,358.6093294620514,,,,,,,,,,,,,,,,,,,,,,,,,,,,,,,,,,,,,,,,,,,,,,,,,,,,,,,,,,,,,,,,,,,,,,,,,,,,,,,,,123.29293884980348,163.39613025675084,194.03472603928392,91.40820973335683,145.69061165674924,199.73296897408056,4.0,4.1,-223,-258,0,-4,242,-259,358.5937442779541,358.5938241481781,358.59684109687805,358.6093294620514,358.76059675216675,358.76059675216675,358.76059675216675,358.76059675216675,358.76059675216675,358.76059675216675,358.76059675216675,360.29255628585815,3,1.6777210235595703,None,,,,,,,,,,,,,,,,,,234,1,2025-03-12_11h28.31.951,comp,2024.2.4,57.43356045833972,2025-03-12 11h28.50.285938 -0400,
130,130,0,critical,hdw,20.0,2.1,upper,200.0,125.0,141.0,141.0,125.0,200.0,3,1.7378556728363037,None,,,,,0,0,0,0,0,130,130,23,360.3081464767456,,,,,,,,,,,,,,,,,,,,,,,,,,,,,,,,,,,,,,,,,,,,,,,,,,,,,,,,,,,,,,,,,,,,,,,,,,,,,,,,,200.0,125.0,141.0,141.0,125.0,200.0,2.1,2.12,-229,-276,0,-288,266,261,360.29411792755127,360.294193983078,360.29708790779114,360.3081464767456,360.46398305892944,360.46398305892944,360.46398305892944,360.46398305892944,360.46398305892944,360.46398305892944,360.46398305892944,362.0624568462372,3,1.7378556728363037,None,,,,,,,,,,,,,,,,,,234,1,2025-03-12_11h28.31.951,comp,2024.2.4,57.43356045833972,2025-03-12 11h28.50.285938 -0400,
131,131,0,critical,whd,20.0,1.0,upper,125.0,200.0,200.0,125.0,141.0,141.0,1,1.9048774242401123,None,,,,,0,0,0,0,0,131,131,91,362.07898688316345,,,,,,,,,,,,,,,,,,,,,,,,,,,,,,,,,,,,,,,,,,,,,,,,,,,,,,,,,,,,,,,,,,,,,,,,,,,,,,,,,125.0,200.0,200.0,125.0,141.0,141.0,1.0,1.3,222,-285,480,-267,709,-273,362.06295251846313,362.0629720687866,362.0637788772583,362.07898688316345,362.22728419303894,362.22728419303894,362.22728419303894,362.22728419303894,362.22728419303894,362.22728419303894,362.22728419303894,363.99635553359985,1,1.9048774242401123,None,,,,,,,,,,,,,,,,,,234,1,2025-03-12_11h28.31.951,comp,2024.2.4,57.43356045833972,2025-03-12 11h28.50.285938 -0400,
132,132,0,critical,hwd,35.0,1.0,upper,200.0,125.0,125.0,200.0,127.0,127.0,2,1.8433115482330322,None,,,,,0,0,0,0,0,132,132,97,364.0118405818939,,,,,,,,,,,,,,,,,,,,,,,,,,,,,,,,,,,,,,,,,,,,,,,,,,,,,,,,,,,,,,,,,,,,,,,,,,,,,,,,,200.0,125.0,125.0,200.0,127.0,127.0,1.0,1.1,-738,288,-480,256,-220,263,363.9975848197937,363.99761486053467,364.00002121925354,364.0118405818939,364.160542011261,364.160542011261,364.160542011261,364.160542011261,364.160542011261,364.160542011261,364.160542011261,365.86091804504395,2,1.8433115482330322,None,,,,,,,,,,,,,,,,,,234,1,2025-03-12_11h28.31.951,comp,2024.2.4,57.43356045833972,2025-03-12 11h28.50.285938 -0400,
133,133,0,catch,None,None,None,None,None,None,None,None,None,None,1,1.268239974975586,None,,,,,0,0,0,0,0,133,133,123,365.88193011283875,,,,,,,,,,,,,,,,,,,,,,,,,,,,,,,,,,,,,,,,,,,,,,,,,,,,,,,,,,,,,,,,,,,,,,,,,,,,,,,,,162,163,112,78,129,61,4.0,4.1,-216,-275,0,10,166,-258,365.86286664009094,365.86294627189636,365.8661301136017,365.88193011283875,366.0289669036865,366.0289669036865,366.0289669036865,366.0289669036865,366.0289669036865,366.0289669036865,366.0289669036865,367.16091132164,1,1.268239974975586,None,,,,,,,,,,,,,,,,,,234,1,2025-03-12_11h28.31.951,comp,2024.2.4,57.43356045833972,2025-03-12 11h28.50.285938 -0400,
134,134,0,filler_square,None,None,None,None,None,None,None,None,None,None,1,1.2132930755615234,None,,,,,0,0,0,0,0,134,134,207,367.17770171165466,,,,,,,,,,,,,,,,,,,,,,,,,,,,,,,,,,,,,,,,,,,,,,,,,,,,,,,,,,,,,,,,,,,,,,,,,,,,,,,,,82.12920066237518,82.12920066237518,71.33321296419727,58.76578080184364,75.10962300223979,61.115255608000744,3.0,3.1,-166,272,0,19,156,-264,367.16271805763245,367.1627984046936,367.1659834384918,367.17770171165466,367.33074975013733,367.33074975013733,367.33074975013733,367.33074975013733,367.33074975013733,367.33074975013733,367.33074975013733,368.39761209487915,1,1.2132930755615234,None,,,,,,,,,,,,,,,,,,234,1,2025-03-12_11h28.31.951,comp,2024.2.4,57.43356045833972,2025-03-12 11h28.50.285938 -0400,
135,135,0,critical,dwh,35.0,4.0,upper,127.0,127.0,125.0,200.0,200.0,125.0,2,1.249272346496582,None,,,,,0,0,0,0,0,135,135,65,368.4129695892334,,,,,,,,,,,,,,,,,,,,,,,,,,,,,,,,,,,,,,,,,,,,,,,,,,,,,,,,,,,,,,,,,,,,,,,,,,,,,,,,,127.0,127.0,125.0,200.0,200.0,125.0,4.0,4.2,-260,18,0,-261,258,-16,368.3991804122925,368.39926409721375,368.4022307395935,368.4129695892334,368.5629825592041,368.5629825592041,368.5629825592041,368.5629825592041,368.5629825592041,368.5629825592041,368.5629825592041,369.67884826660156,2,1.249272346496582,None,,,,,,,,,,,,,,,,,,234,1,2025-03-12_11h28.31.951,comp,2024.2.4,57.43356045833972,2025-03-12 11h28.50.285938 -0400,
136,136,0,critical,hdw,35.0,2.1,upper,200.0,125.0,127.0,127.0,125.0,200.0,1,4.044500350952148,None,,,,,0,0,0,0,0,136,136,21,369.69863843917847,,,,,,,,,,,,,,,,,,,,,,,,,,,,,,,,,,,,,,,,,,,,,,,,,,,,,,,,,,,,,,,,,,,,,,,,,,,,,,,,,200.0,125.0,127.0,127.0,125.0,200.0,2.1,2.11,-222,261,0,282,260,-279,369.68041706085205,369.68049335479736,369.6836965084076,369.69863843917847,369.8464081287384,369.8464081287384,369.8464081287384,369.8464081287384,369.8464081287384,369.8464081287384,369.8464081287384,373.747838973999,1,4.044500350952148,None,,,,,,,,,,,,,,,,,,234,1,2025-03-12_11h28.31.951,comp,2024.2.4,57.43356045833972,2025-03-12 11h28.50.285938 -0400,
137,137,0,critical,whd,20.0,2.1,upper,125.0,200.0,200.0,125.0,141.0,141.0,1,2.394653558731079,None,,,,,0,0,0,0,0,137,137,15,373.7644753456116,,,,,,,,,,,,,,,,,,,,,,,,,,,,,,,,,,,,,,,,,,,,,,,,,,,,,,,,,,,,,,,,,,,,,,,,,,,,,,,,,125.0,200.0,200.0,125.0,141.0,141.0,2.1,2.12,-258,-278,0,-268,229,275,373.7493643760681,373.749445438385,373.75352478027344,373.7644753456116,373.9123773574829,373.9123773574829,373.9123773574829,373.9123773574829,373.9123773574829,373.9123773574829,373.9123773574829,376.16587924957275,1,2.394653558731079,None,,,,,,,,,,,,,,,,,,234,1,2025-03-12_11h28.31.951,comp,2024.2.4,57.43356045833972,2025-03-12 11h28.50.285938 -0400,
138,138,0,critical,wdh,20.0,3.0,lower,57.0,133.0,78.0,78.0,133.0,57.0,3,1.34452223777771,None,,,,,0,0,0,0,0,138,138,80,376.18331003189087,,,,,,,,,,,,,,,,,,,,,,,,,,,,,,,,,,,,,,,,,,,,,,,,,,,,,,,,,,,,,,,,,,,,,,,,,,,,,,,,,57.0,133.0,78.0,78.0,133.0,57.0,3.0,3.2,-202,-263,0,10,164,286,376.1675760746002,376.1677372455597,376.17162704467773,376.18331003189087,376.3304693698883,376.3304693698883,376.3304693698883,376.3304693698883,376.3304693698883,376.3304693698883,376.3304693698883,377.53403067588806,3,1.34452223777771,None,,,,,,,,,,,,,,,,,,234,1,2025-03-12_11h28.31.951,comp,2024.2.4,57.43356045833972,2025-03-12 11h28.50.285938 -0400,
139,139,0,filler_square,None,None,None,None,None,None,None,None,None,None,1,0.9752757549285889,None,,,,,0,0,0,0,0,139,139,203,377.55280590057373,,,,,,,,,,,,,,,,,,,,,,,,,,,,,,,,,,,,,,,,,,,,,,,,,,,,,,,,,,,,,,,,,,,,,,,,,,,,,,,,,173.96404162993224,173.96404162993224,97.37168013928562,155.7975120548038,143.5492238738492,95.44896487483267,1.0,1.1,-741,258,-480,285,-258,269,377.53630805015564,377.5363974571228,377.5395977497101,377.55280590057373,377.7008261680603,377.7008261680603,377.7008261680603,377.7008261680603,377.7008261680603,377.7008261680603,377.7008261680603,378.5461416244507,1,0.9752757549285889,None,,,,,,,,,,,,,,,,,,234,1,2025-03-12_11h28.31.951,comp,2024.2.4,57.43356045833972,2025-03-12 11h28.50.285938 -0400,
