thisN,thisTrialN,thisRepN,effect,order,distance,config,diag,h_1,w_1,h_2,w_2,h_3,w_3,rect_choice.keys,rect_choice.rt,rect_choice.duration,instructions_loop.thisRepN,instructions_loop.thisTrialN,instructions_loop.thisN,instructions_loop.thisIndex,blocks.thisRepN,blocks.thisTrialN,blocks.thisN,blocks.thisIndex,trials.thisRepN,trials.thisTrialN,trials.thisN,trials.thisIndex,thisRow.t,notes,consent.started,agree_button.started,decline_button.started,consent_img.started,mouse.started,consent.stopped,agree_button.numClicks,agree_button.timesOn,agree_button.timesOff,decline_button.numClicks,decline_button.timesOn,decline_button.timesOff,mouse.x,mouse.y,mouse.leftButton,mouse.midButton,mouse.rightButton,mouse.time,mouse.clicked_name,exp_params.started,exp_params.stopped,welcome.started,welcome_text.started,welcome.stopped,instructions_1.started,instructions_1_text_1.started,instructions_1_text_2.started,key_resp.started,instructions_1.stopped,instructions_loop.key_resp.keys,instructions_loop.key_resp.rt,instructions_loop.key_resp.duration,instructions_2.started,instructions_2_text_1.started,instructions_2_text_2.started,key_resp_2.started,instructions_2.stopped,instructions_loop.key_resp_2.keys,instructions_loop.key_resp_2.rt,instructions_loop.key_resp_2.duration,instructions_3.started,instructions_3_text_1.started,r1_instr3.started,r2_instr3.started,r3_instr3.started,r1_instr3_label.started,r2_instr3_label.started,r3_instr3_label.started,instructions_3_text_3.started,instructions_3_text_4.started,key_resp_3.started,instructions_3.stopped,instructions_loop.key_resp_3.keys,instructions_loop.key_resp_3.rt,instructions_loop.key_resp_3.duration,instructions_4.started,instructions_4_text_1.started,instructions_4_text_3.started,instructions_4_text_2.started,key_resp_4.started,instructions_4.stopped,instructions_loop.key_resp_4.keys,instructions_loop.key_resp_4.rt,instructions_loop.key_resp_4.duration,instructions_5.started,instructions_5_text_1.started,instructions_5_text_2.started,key_resp_5.started,instructions_5.stopped,instructions_loop.key_resp_5.keys,instructions_loop.key_resp_5.rt,instructions_loop.key_resp_5.duration,start_exp.started,start_exp_text.started,key_resp_6.started,start_exp.stopped,key_resp_6.keys,key_resp_6.rt,key_resp_6.duration,h_1_tmp,w_1_tmp,h_2_tmp,w_2_tmp,h_3_tmp,w_3_tmp,config_tmp,config_tmp_1,r_1_x,r_1_y,r_2_x,r_2_y,r_3_x,r_3_y,pre_trial.started,pre_trial.stopped,choice_trial.started,rect_choice.started,r_1.started,r_2.started,r_3.started,r_1_label.started,r_2_label.started,r_3_label.started,prompt.started,choice_trial.stopped,trials.rect_choice.keys,trials.rect_choice.rt,trials.rect_choice.duration,end_block.started,end_block_text.started,end_block.stopped,end.started,end_text.started,key_resp_7.started,end.stopped,key_resp_7.keys,key_resp_7.rt,key_resp_7.duration,debriefing.started,debrief_form.started,end_debrief.started,debriefing.stopped,end_debrief.keys,end_debrief.rt,end_debrief.duration,participant,computer,date,expName,psychopyVersion,frameRate,expStart,
,,,,,,,,,,,,,,,,,,,,,,,,,,,,,,,0.013840436935424805,0.03337550163269043,0.03337550163269043,0.03337550163269043,0.01365804672241211,21.174333095550537,1,[21.138590097427368],[21.13861393928528],0,,,[-96.0],[-508.0],[1],[0],[0],[21.160105228424072],['agree_button'],,,,,,,,,,,,,,,,,,,,,,,,,,,,,,,,,,,,,,,,,,,,,,,,,,,,,,,,,,,,,,,,,,,,,,,,,,,,,,,,,,,,,,,,,,,,,,,,,,,,,,,,,,,235,2,2025-03-12_11h28.17.226,comp,2024.2.4,57.68633232841142,2025-03-12 11h28.46.035272 -0400,
,,,,,,,,,,,,,,,,,,,,,,,,,,,,,,,,,,,,,,,,,,,,,,,,,,21.174822330474854,21.17488694190979,,,,,,,,,,,,,,,,,,,,,,,,,,,,,,,,,,,,,,,,,,,,,,,,,,,,,,,,,,,,,,,,,,,,,,,,,,,,,,,,,,,,,,,,,,,,,,,,,,,,,,,,,235,2,2025-03-12_11h28.17.226,comp,2024.2.4,57.68633232841142,2025-03-12 11h28.46.035272 -0400,
,,,,,,,,,,,,,,,,,,,,,,,,,,,,,,,,,,,,,,,,,,,,,,,,,,,,21.174930334091187,21.18813467025757,23.17578911781311,,,,,,,,,,,,,,,,,,,,,,,,,,,,,,,,,,,,,,,,,,,,,,,,,,,,,,,,,,,,,,,,,,,,,,,,,,,,,,,,,,,,,,,,,,,,,,,,,,,,,,235,2,2025-03-12_11h28.17.226,comp,2024.2.4,57.68633232841142,2025-03-12 11h28.46.035272 -0400,
0,0,0,,,,,,,,,,,,,,,0,0,0,0,,,,,,,,,23.192843675613403,,,,,,,,,,,,,,,,,,,,,,,,,,23.17670178413391,23.192843675613403,23.192843675613403,24.679239988327026,27.864004135131836,space,3.1709325313568115,None,27.864176511764526,27.87959361076355,27.87959361076355,29.37850856781006,33.280911922454834,space,3.8967084884643555,None,33.28107023239136,33.31121635437012,33.31121635437012,33.31121635437012,33.31121635437012,33.31121635437012,33.31121635437012,33.31121635437012,33.31121635437012,33.31121635437012,34.7859845161438,38.486250162124634,space,3.688246726989746,None,38.486412048339844,38.503742694854736,38.503742694854736,38.503742694854736,40.00112009048462,45.7361843585968,space,5.720931529998779,None,45.7363486289978,45.751694202423096,45.751694202423096,47.235291957855225,48.98750972747803,space,1.7349708080291748,None,48.98770618438721,49.00286865234375,49.00286865234375,50.954540967941284,space,1.943678379058838,None,,,,,,,,,,,,,,,,,,,,,,,,,,,,,,,,,,,,,,,,,,,,,,,235,2,2025-03-12_11h28.17.226,comp,2024.2.4,57.68633232841142,2025-03-12 11h28.46.035272 -0400,
0,0,0,filler_random,None,None,None,None,None,None,None,None,None,None,3,2.360544443130493,None,,,,,0,0,0,0,0,0,0,151,51.03358817100525,,,,,,,,,,,,,,,,,,,,,,,,,,,,,,,,,,,,,,,,,,,,,,,,,,,,,,,,,,,,,,,,,,,,,,,,,,,,,,,,,143.39795138809717,111.69145466182172,161.44534663203672,89.87104256758823,127.91529049943476,198.4092901645714,3.0,3.2,-197,-269,0,-19,240,258,51.017271995544434,51.017306089401245,51.01856541633606,51.03358817100525,51.184507846832275,51.184507846832275,51.184507846832275,51.184507846832275,51.184507846832275,51.184507846832275,51.184507846832275,53.39921450614929,3,2.360544443130493,None,,,,,,,,,,,,,,,,,,235,2,2025-03-12_11h28.17.226,comp,2024.2.4,57.68633232841142,2025-03-12 11h28.46.035272 -0400,
1,1,0,filler_random,None,None,None,None,None,None,None,None,None,None,1,2.4010062217712402,None,,,,,0,0,0,0,0,1,1,133,53.41747260093689,,,,,,,,,,,,,,,,,,,,,,,,,,,,,,,,,,,,,,,,,,,,,,,,,,,,,,,,,,,,,,,,,,,,,,,,,,,,,,,,,186.00532862891646,149.91049193636007,149.98768488131122,114.06826531059119,152.0992066134101,106.60679804204777,4.0,4.1,-228,-271,0,-7,206,-267,53.40097975730896,53.40106248855591,53.40402436256409,53.41747260093689,53.55518984794617,53.55518984794617,53.55518984794617,53.55518984794617,53.55518984794617,53.55518984794617,53.55518984794617,55.822211027145386,1,2.4010062217712402,None,,,,,,,,,,,,,,,,,,235,2,2025-03-12_11h28.17.226,comp,2024.2.4,57.68633232841142,2025-03-12 11h28.46.035272 -0400,
2,2,0,filler_square,None,None,None,None,None,None,None,None,None,None,2,10.7705557346344,None,,,,,0,0,0,0,0,2,2,208,55.839962005615234,,,,,,,,,,,,,,,,,,,,,,,,,,,,,,,,,,,,,,,,,,,,,,,,,,,,,,,,,,,,,,,,,,,,,,,,,,,,,,,,,58.124841374542235,57.00034454160872,57.69656434468854,58.30046515649329,58.8217196341999,58.8217196341999,3.0,3.1,-154,273,0,-14,155,-285,55.82394337654114,55.82401990890503,55.826887130737305,55.839962005615234,55.990066051483154,55.990066051483154,55.990066051483154,55.990066051483154,55.990066051483154,55.990066051483154,55.990066051483154,66.61608576774597,2,10.7705557346344,None,,,,,,,,,,,,,,,,,,235,2,2025-03-12_11h28.17.226,comp,2024.2.4,57.68633232841142,2025-03-12 11h28.46.035272 -0400,
3,3,0,filler_random,None,None,None,None,None,None,None,None,None,None,1,1.2178077697753906,None,,,,,0,0,0,0,0,3,3,141,66.63222694396973,,,,,,,,,,,,,,,,,,,,,,,,,,,,,,,,,,,,,,,,,,,,,,,,,,,,,,,,,,,,,,,,,,,,,,,,,,,,,,,,,150.81901501920993,125.82955015787745,75.57040325365567,62.28506121302205,126.09932568718446,83.59082692981295,1.0,1.2,-190,-12,0,0,169,17,66.61782550811768,66.61796140670776,66.62127685546875,66.63222694396973,66.77602505683899,66.77602505683899,66.77602505683899,66.77602505683899,66.77602505683899,66.77602505683899,66.77602505683899,67.85981059074402,1,1.2178077697753906,None,,,,,,,,,,,,,,,,,,235,2,2025-03-12_11h28.17.226,comp,2024.2.4,57.68633232841142,2025-03-12 11h28.46.035272 -0400,
4,4,0,filler_square,None,None,None,None,None,None,None,None,None,None,2,1.0392959117889404,None,,,,,0,0,0,0,0,4,4,170,67.87477588653564,,,,,,,,,,,,,,,,,,,,,,,,,,,,,,,,,,,,,,,,,,,,,,,,,,,,,,,,,,,,,,,,,,,,,,,,,,,,,,,,,93.74585127498683,97.84263582307071,119.78728478910806,119.78728478910806,115.06113840564038,87.49109374002386,4.0,4.1,-205,-276,0,1,200,-279,67.8616898059845,67.86177015304565,67.86496806144714,67.87477588653564,68.02676820755005,68.02676820755005,68.02676820755005,68.02676820755005,68.02676820755005,68.02676820755005,68.02676820755005,68.92841720581055,2,1.0392959117889404,None,,,,,,,,,,,,,,,,,,235,2,2025-03-12_11h28.17.226,comp,2024.2.4,57.68633232841142,2025-03-12 11h28.46.035272 -0400,
5,5,0,filler_random,None,None,None,None,None,None,None,None,None,None,3,14.25729775428772,None,,,,,0,0,0,0,0,5,5,130,68.94464015960693,,,,,,,,,,,,,,,,,,,,,,,,,,,,,,,,,,,,,,,,,,,,,,,,,,,,,,,,,,,,,,,,,,,,,,,,,,,,,,,,,98.90511190150445,87.38983303601651,124.60919164942436,107.67286514658053,182.57791748037664,61.53636214889619,2.1,2.12,-194,-285,0,-268,181,253,68.93039083480835,68.93046808242798,68.93436813354492,68.94464015960693,69.0940203666687,69.0940203666687,69.0940203666687,69.0940203666687,69.0940203666687,69.0940203666687,69.0940203666687,83.21371459960938,3,14.25729775428772,None,,,,,,,,,,,,,,,,,,235,2,2025-03-12_11h28.17.226,comp,2024.2.4,57.68633232841142,2025-03-12 11h28.46.035272 -0400,
6,6,0,critical,dhw,20.0,3.0,upper,141.0,141.0,200.0,125.0,125.0,200.0,2,4.819314479827881,None,,,,,0,0,0,0,0,6,6,57,83.23065519332886,,,,,,,,,,,,,,,,,,,,,,,,,,,,,,,,,,,,,,,,,,,,,,,,,,,,,,,,,,,,,,,,,,,,,,,,,,,,,,,,,141.0,141.0,200.0,125.0,125.0,200.0,3.0,3.2,-229,-259,0,-4,258,275,83.21539783477783,83.21553063392639,83.21884107589722,83.23065519332886,83.38332033157349,83.38332033157349,83.38332033157349,83.38332033157349,83.38332033157349,83.38332033157349,83.38332033157349,88.05202221870422,2,4.819314479827881,None,,,,,,,,,,,,,,,,,,235,2,2025-03-12_11h28.17.226,comp,2024.2.4,57.68633232841142,2025-03-12 11h28.46.035272 -0400,
7,7,0,filler_square,None,None,None,None,None,None,None,None,None,None,1,2.3894267082214355,None,,,,,0,0,0,0,0,7,7,183,88.06868290901184,,,,,,,,,,,,,,,,,,,,,,,,,,,,,,,,,,,,,,,,,,,,,,,,,,,,,,,,,,,,,,,,,,,,,,,,,,,,,,,,,138.11990589969784,138.11990589969784,87.41059673947925,128.31204574703037,138.05444365317857,107.45791124609845,3.0,3.2,-229,-276,0,-19,214,283,88.05413603782654,88.05425000190735,88.05779957771301,88.06868290901184,88.22069811820984,88.22069811820984,88.22069811820984,88.22069811820984,88.22069811820984,88.22069811820984,88.22069811820984,90.46855187416077,1,2.3894267082214355,None,,,,,,,,,,,,,,,,,,235,2,2025-03-12_11h28.17.226,comp,2024.2.4,57.68633232841142,2025-03-12 11h28.46.035272 -0400,
8,8,0,critical,whd,35.0,2.1,upper,125.0,200.0,200.0,125.0,127.0,127.0,2,4.797887086868286,None,,,,,0,0,0,0,0,8,8,37,90.48462128639221,,,,,,,,,,,,,,,,,,,,,,,,,,,,,,,,,,,,,,,,,,,,,,,,,,,,,,,,,,,,,,,,,,,,,,,,,,,,,,,,,125.0,200.0,200.0,125.0,127.0,127.0,2.1,2.12,-258,-287,0,-284,222,263,90.47023916244507,90.47033858299255,90.47355914115906,90.48462128639221,90.63202714920044,90.63202714920044,90.63202714920044,90.63202714920044,90.63202714920044,90.63202714920044,90.63202714920044,95.28679490089417,2,4.797887086868286,None,,,,,,,,,,,,,,,,,,235,2,2025-03-12_11h28.17.226,comp,2024.2.4,57.68633232841142,2025-03-12 11h28.46.035272 -0400,
9,9,0,catch,None,None,None,None,None,None,None,None,None,None,3,1.3789176940917969,None,,,,,0,0,0,0,0,9,9,128,95.30342984199524,,,,,,,,,,,,,,,,,,,,,,,,,,,,,,,,,,,,,,,,,,,,,,,,,,,,,,,,,,,,,,,,,,,,,,,,,,,,,,,,,127,63,114,76,171,154,2.2,2.22,-166,283,0,-275,211,-261,95.2889666557312,95.28904891014099,95.292227268219,95.30342984199524,95.45206785202026,95.45206785202026,95.45206785202026,95.45206785202026,95.45206785202026,95.45206785202026,95.45206785202026,96.68855810165405,3,1.3789176940917969,None,,,,,,,,,,,,,,,,,,235,2,2025-03-12_11h28.17.226,comp,2024.2.4,57.68633232841142,2025-03-12 11h28.46.035272 -0400,
10,10,0,critical,dhw,35.0,3.0,upper,127.0,127.0,200.0,125.0,125.0,200.0,3,5.992541790008545,None,,,,,0,0,0,0,0,10,10,51,96.70547938346863,,,,,,,,,,,,,,,,,,,,,,,,,,,,,,,,,,,,,,,,,,,,,,,,,,,,,,,,,,,,,,,,,,,,,,,,,,,,,,,,,127.0,127.0,200.0,125.0,125.0,200.0,3.0,3.2,-222,-256,0,13,258,288,96.69045281410217,96.69058465957642,96.6938967704773,96.70547938346863,96.85720801353455,96.85720801353455,96.85720801353455,96.85720801353455,96.85720801353455,96.85720801353455,96.85720801353455,102.71163082122803,3,5.992541790008545,None,,,,,,,,,,,,,,,,,,235,2,2025-03-12_11h28.17.226,comp,2024.2.4,57.68633232841142,2025-03-12 11h28.46.035272 -0400,
11,11,0,critical,dwh,35.0,3.0,upper,127.0,127.0,125.0,200.0,200.0,125.0,2,2.026632070541382,None,,,,,0,0,0,0,0,11,11,63,102.72791361808777,,,,,,,,,,,,,,,,,,,,,,,,,,,,,,,,,,,,,,,,,,,,,,,,,,,,,,,,,,,,,,,,,,,,,,,,,,,,,,,,,127.0,127.0,125.0,200.0,200.0,125.0,3.0,3.1,-260,267,0,-11,258,-263,102.71322202682495,102.71330070495605,102.71625709533691,102.72791361808777,102.87398552894592,102.87398552894592,102.87398552894592,102.87398552894592,102.87398552894592,102.87398552894592,102.87398552894592,104.7716007232666,2,2.026632070541382,None,,,,,,,,,,,,,,,,,,235,2,2025-03-12_11h28.17.226,comp,2024.2.4,57.68633232841142,2025-03-12 11h28.46.035272 -0400,
12,12,0,critical,wdh,35.0,2.1,lower,57.0,133.0,70.0,70.0,133.0,57.0,1,5.958714485168457,None,,,,,0,0,0,0,0,12,12,32,104.78765201568604,,,,,,,,,,,,,,,,,,,,,,,,,,,,,,,,,,,,,,,,,,,,,,,,,,,,,,,,,,,,,,,,,,,,,,,,,,,,,,,,,57.0,133.0,70.0,70.0,133.0,57.0,2.1,2.11,-198,258,0,265,160,-274,104.77318906784058,104.77327108383179,104.77736043930054,104.78765201568604,104.93703007698059,104.93703007698059,104.93703007698059,104.93703007698059,104.93703007698059,104.93703007698059,104.93703007698059,110.74861645698547,1,5.958714485168457,None,,,,,,,,,,,,,,,,,,235,2,2025-03-12_11h28.17.226,comp,2024.2.4,57.68633232841142,2025-03-12 11h28.46.035272 -0400,
13,13,0,critical,dwh,35.0,4.0,upper,127.0,127.0,125.0,200.0,200.0,125.0,2,2.182060956954956,None,,,,,0,0,0,0,0,13,13,65,110.76396441459656,,,,,,,,,,,,,,,,,,,,,,,,,,,,,,,,,,,,,,,,,,,,,,,,,,,,,,,,,,,,,,,,,,,,,,,,,,,,,,,,,127.0,127.0,125.0,200.0,200.0,125.0,4.0,4.1,-260,-259,0,4,258,-271,110.7501289844513,110.75024390220642,110.75311803817749,110.76396441459656,110.90660786628723,110.90660786628723,110.90660786628723,110.90660786628723,110.90660786628723,110.90660786628723,110.90660786628723,112.95626735687256,2,2.182060956954956,None,,,,,,,,,,,,,,,,,,235,2,2025-03-12_11h28.17.226,comp,2024.2.4,57.68633232841142,2025-03-12 11h28.46.035272 -0400,
14,14,0,critical,whd,20.0,4.0,lower,57.0,133.0,133.0,57.0,78.0,78.0,1,2.50587797164917,None,,,,,0,0,0,0,0,14,14,94,112.97610139846802,,,,,,,,,,,,,,,,,,,,,,,,,,,,,,,,,,,,,,,,,,,,,,,,,,,,,,,,,,,,,,,,,,,,,,,,,,,,,,,,,57.0,133.0,133.0,57.0,78.0,78.0,4.0,4.2,-191,-9,0,-255,164,7,112.95776915550232,112.95784783363342,112.96097993850708,112.97610139846802,113.1248779296875,113.1248779296875,113.1248779296875,113.1248779296875,113.1248779296875,113.1248779296875,113.1248779296875,115.49322175979614,1,2.50587797164917,None,,,,,,,,,,,,,,,,,,235,2,2025-03-12_11h28.17.226,comp,2024.2.4,57.68633232841142,2025-03-12 11h28.46.035272 -0400,
15,15,0,critical,dwh,20.0,4.0,upper,141.0,141.0,125.0,200.0,200.0,125.0,2,7.852616548538208,None,,,,,0,0,0,0,0,15,15,71,115.50965070724487,,,,,,,,,,,,,,,,,,,,,,,,,,,,,,,,,,,,,,,,,,,,,,,,,,,,,,,,,,,,,,,,,,,,,,,,,,,,,,,,,141.0,141.0,125.0,200.0,200.0,125.0,4.0,4.2,-266,-16,0,-290,258,1,115.49475240707397,115.49483156204224,115.49803280830383,115.50965070724487,115.65912795066833,115.65912795066833,115.65912795066833,115.65912795066833,115.65912795066833,115.65912795066833,115.65912795066833,123.3663558959961,2,7.852616548538208,None,,,,,,,,,,,,,,,,,,235,2,2025-03-12_11h28.17.226,comp,2024.2.4,57.68633232841142,2025-03-12 11h28.46.035272 -0400,
16,16,0,critical,whd,20.0,3.0,lower,57.0,133.0,133.0,57.0,78.0,78.0,2,9.372434616088867,None,,,,,0,0,0,0,0,16,16,92,123.38227844238281,,,,,,,,,,,,,,,,,,,,,,,,,,,,,,,,,,,,,,,,,,,,,,,,,,,,,,,,,,,,,,,,,,,,,,,,,,,,,,,,,57.0,133.0,133.0,57.0,78.0,78.0,3.0,3.1,-191,281,0,-14,164,-285,123.3679313659668,123.36800622940063,123.3713710308075,123.38227844238281,123.52659916877747,123.52659916877747,123.52659916877747,123.52659916877747,123.52659916877747,123.52659916877747,123.52659916877747,132.76359343528748,2,9.372434616088867,None,,,,,,,,,,,,,,,,,,235,2,2025-03-12_11h28.17.226,comp,2024.2.4,57.68633232841142,2025-03-12 11h28.46.035272 -0400,
17,17,0,critical,dhw,35.0,2.1,upper,127.0,127.0,200.0,125.0,125.0,200.0,3,1.7504684925079346,None,,,,,0,0,0,0,0,17,17,25,132.77951550483704,,,,,,,,,,,,,,,,,,,,,,,,,,,,,,,,,,,,,,,,,,,,,,,,,,,,,,,,,,,,,,,,,,,,,,,,,,,,,,,,,127.0,127.0,200.0,125.0,125.0,200.0,2.1,2.12,-222,-270,0,-280,258,266,132.7652223110199,132.76530241966248,132.76866269111633,132.77951550483704,132.92842960357666,132.92842960357666,132.92842960357666,132.92842960357666,132.92842960357666,132.92842960357666,132.92842960357666,134.54609894752502,3,1.7504684925079346,None,,,,,,,,,,,,,,,,,,235,2,2025-03-12_11h28.17.226,comp,2024.2.4,57.68633232841142,2025-03-12 11h28.46.035272 -0400,
18,18,0,critical,dwh,20.0,3.0,lower,78.0,78.0,57.0,133.0,133.0,57.0,2,2.5206024646759033,None,,,,,0,0,0,0,0,18,18,68,134.56137943267822,,,,,,,,,,,,,,,,,,,,,,,,,,,,,,,,,,,,,,,,,,,,,,,,,,,,,,,,,,,,,,,,,,,,,,,,,,,,,,,,,78.0,78.0,57.0,133.0,133.0,57.0,3.0,3.1,-202,261,0,-12,191,-271,134.5476062297821,134.54768228530884,134.550861120224,134.56137943267822,134.71216464042664,134.71216464042664,134.71216464042664,134.71216464042664,134.71216464042664,134.71216464042664,134.71216464042664,137.09765529632568,2,2.5206024646759033,None,,,,,,,,,,,,,,,,,,235,2,2025-03-12_11h28.17.226,comp,2024.2.4,57.68633232841142,2025-03-12 11h28.46.035272 -0400,
19,19,0,critical,whd,20.0,3.0,upper,125.0,200.0,200.0,125.0,141.0,141.0,1,1.6747450828552246,None,,,,,0,0,0,0,0,19,19,93,137.11331486701965,,,,,,,,,,,,,,,,,,,,,,,,,,,,,,,,,,,,,,,,,,,,,,,,,,,,,,,,,,,,,,,,,,,,,,,,,,,,,,,,,125.0,200.0,200.0,125.0,141.0,141.0,3.0,3.2,-258,-269,0,3,229,271,137.09908723831177,137.0991826057434,137.1021168231964,137.11331486701965,137.26748323440552,137.26748323440552,137.26748323440552,137.26748323440552,137.26748323440552,137.26748323440552,137.26748323440552,138.7988429069519,1,1.6747450828552246,None,,,,,,,,,,,,,,,,,,235,2,2025-03-12_11h28.17.226,comp,2024.2.4,57.68633232841142,2025-03-12 11h28.46.035272 -0400,
20,20,0,critical,dhw,35.0,4.0,upper,127.0,127.0,200.0,125.0,125.0,200.0,3,1.5154433250427246,None,,,,,0,0,0,0,0,20,20,53,138.8150336742401,,,,,,,,,,,,,,,,,,,,,,,,,,,,,,,,,,,,,,,,,,,,,,,,,,,,,,,,,,,,,,,,,,,,,,,,,,,,,,,,,127.0,127.0,200.0,125.0,125.0,200.0,4.0,4.2,-222,4,0,-261,258,5,138.80049419403076,138.80062341690063,138.80410647392273,138.8150336742401,138.96548223495483,138.96548223495483,138.96548223495483,138.96548223495483,138.96548223495483,138.96548223495483,138.96548223495483,140.34850645065308,3,1.5154433250427246,None,,,,,,,,,,,,,,,,,,235,2,2025-03-12_11h28.17.226,comp,2024.2.4,57.68633232841142,2025-03-12 11h28.46.035272 -0400,
21,21,0,filler_random,None,None,None,None,None,None,None,None,None,None,3,1.202383279800415,None,,,,,0,0,0,0,0,21,21,147,140.36781692504883,,,,,,,,,,,,,,,,,,,,,,,,,,,,,,,,,,,,,,,,,,,,,,,,,,,,,,,,,,,,,,,,,,,,,,,,,,,,,,,,,58.74391359692714,176.89130686218186,155.82451969282874,120.0228007603382,146.01719919363074,197.336589723723,3.0,3.2,-244,-273,0,9,255,286,140.35033130645752,140.3504283428192,140.35374665260315,140.36781692504883,140.50318598747253,140.50318598747253,140.50318598747253,140.50318598747253,140.50318598747253,140.50318598747253,140.50318598747253,141.5853259563446,3,1.202383279800415,None,,,,,,,,,,,,,,,,,,235,2,2025-03-12_11h28.17.226,comp,2024.2.4,57.68633232841142,2025-03-12 11h28.46.035272 -0400,
22,22,0,critical,hwd,20.0,2.1,lower,133.0,57.0,57.0,133.0,78.0,78.0,1,8.847013235092163,None,,,,,0,0,0,0,0,22,22,18,141.60300302505493,,,,,,,,,,,,,,,,,,,,,,,,,,,,,,,,,,,,,,,,,,,,,,,,,,,,,,,,,,,,,,,,,,,,,,,,,,,,,,,,,133.0,57.0,57.0,133.0,78.0,78.0,2.1,2.12,-191,-288,0,-278,202,264,141.58694005012512,141.58706617355347,141.59043622016907,141.60300302505493,141.74897027015686,141.74897027015686,141.74897027015686,141.74897027015686,141.74897027015686,141.74897027015686,141.74897027015686,150.45321464538574,1,8.847013235092163,None,,,,,,,,,,,,,,,,,,235,2,2025-03-12_11h28.17.226,comp,2024.2.4,57.68633232841142,2025-03-12 11h28.46.035272 -0400,
23,23,0,critical,dhw,35.0,1.0,upper,127.0,127.0,200.0,125.0,125.0,200.0,2,13.490925073623657,None,,,,,0,0,0,0,0,23,23,49,150.47108387947083,,,,,,,,,,,,,,,,,,,,,,,,,,,,,,,,,,,,,,,,,,,,,,,,,,,,,,,,,,,,,,,,,,,,,,,,,,,,,,,,,127.0,127.0,200.0,125.0,125.0,200.0,1.0,1.2,-222,17,0,-14,258,18,150.45469307899475,150.45476818084717,150.45802283287048,150.47108387947083,150.61859440803528,150.61859440803528,150.61859440803528,150.61859440803528,150.61859440803528,150.61859440803528,150.61859440803528,163.97172331809998,2,13.490925073623657,None,,,,,,,,,,,,,,,,,,235,2,2025-03-12_11h28.17.226,comp,2024.2.4,57.68633232841142,2025-03-12 11h28.46.035272 -0400,
24,24,0,filler_square,None,None,None,None,None,None,None,None,None,None,1,1.1415348052978516,None,,,,,0,0,0,0,0,24,24,184,163.98843574523926,,,,,,,,,,,,,,,,,,,,,,,,,,,,,,,,,,,,,,,,,,,,,,,,,,,,,,,,,,,,,,,,,,,,,,,,,,,,,,,,,171.2228348678936,171.2228348678936,73.15414547752049,62.704351928829034,119.32187774741939,149.7579411605442,3.0,3.1,-213,251,0,11,202,-281,163.9735243320465,163.97360062599182,163.97667503356934,163.98843574523926,164.13629603385925,164.13629603385925,164.13629603385925,164.13629603385925,164.13629603385925,164.13629603385925,164.13629603385925,165.14385080337524,1,1.1415348052978516,None,,,,,,,,,,,,,,,,,,235,2,2025-03-12_11h28.17.226,comp,2024.2.4,57.68633232841142,2025-03-12 11h28.46.035272 -0400,
25,25,0,critical,wdh,35.0,1.0,lower,57.0,133.0,70.0,70.0,133.0,57.0,3,4.950601577758789,None,,,,,0,0,0,0,0,25,25,72,165.16332507133484,,,,,,,,,,,,,,,,,,,,,,,,,,,,,,,,,,,,,,,,,,,,,,,,,,,,,,,,,,,,,,,,,,,,,,,,,,,,,,,,,57.0,133.0,70.0,70.0,133.0,57.0,1.0,1.3,282,-268,480,-289,640,-263,165.14550304412842,165.1455852985382,165.14875864982605,165.16332507133484,165.3057563304901,165.3057563304901,165.3057563304901,165.3057563304901,165.3057563304901,165.3057563304901,165.3057563304901,170.12478041648865,3,4.950601577758789,None,,,,,,,,,,,,,,,,,,235,2,2025-03-12_11h28.17.226,comp,2024.2.4,57.68633232841142,2025-03-12 11h28.46.035272 -0400,
26,26,0,filler_square,None,None,None,None,None,None,None,None,None,None,1,2.419668197631836,None,,,,,0,0,0,0,0,26,26,202,170.14237236976624,,,,,,,,,,,,,,,,,,,,,,,,,,,,,,,,,,,,,,,,,,,,,,,,,,,,,,,,,,,,,,,,,,,,,,,,,,,,,,,,,82.80575275460117,82.80575275460117,63.482796081488026,77.80177449828291,69.89790646416911,65.2602414248257,2.2,2.21,-176,-287,0,269,168,283,170.12686800956726,170.12694883346558,170.1306574344635,170.14237236976624,170.2898805141449,170.2898805141449,170.2898805141449,170.2898805141449,170.2898805141449,170.2898805141449,170.2898805141449,172.57618975639343,1,2.419668197631836,None,,,,,,,,,,,,,,,,,,235,2,2025-03-12_11h28.17.226,comp,2024.2.4,57.68633232841142,2025-03-12 11h28.46.035272 -0400,
27,27,0,filler_random,None,None,None,None,None,None,None,None,None,None,1,1.6295907497406006,None,,,,,0,0,0,0,0,27,27,139,172.59631443023682,,,,,,,,,,,,,,,,,,,,,,,,,,,,,,,,,,,,,,,,,,,,,,,,,,,,,,,,,,,,,,,,,,,,,,,,,,,,,,,,,98.89987440246418,158.93703495545753,69.29510320769926,114.87024930515835,109.29992822908991,77.63836103166989,2.2,2.21,-233,-256,0,286,192,282,172.57796239852905,172.57807445526123,172.58154273033142,172.59631443023682,172.7411346435547,172.7411346435547,172.7411346435547,172.7411346435547,172.7411346435547,172.7411346435547,172.7411346435547,174.24199962615967,1,1.6295907497406006,None,,,,,,,,,,,,,,,,,,235,2,2025-03-12_11h28.17.226,comp,2024.2.4,57.68633232841142,2025-03-12 11h28.46.035272 -0400,
28,28,0,filler_random,None,None,None,None,None,None,None,None,None,None,2,1.440155267715454,None,,,,,0,0,0,0,0,28,28,163,174.25808668136597,,,,,,,,,,,,,,,,,,,,,,,,,,,,,,,,,,,,,,,,,,,,,,,,,,,,,,,,,,,,,,,,,,,,,,,,,,,,,,,,,139.34712739373117,191.58426290012238,185.9394298500165,199.44166639015427,184.89084462998295,137.4971221491158,4.0,4.1,-292,-281,0,13,264,-273,174.24377369880676,174.2438519001007,174.24721693992615,174.25808668136597,174.4079875946045,174.4079875946045,174.4079875946045,174.4079875946045,174.4079875946045,174.4079875946045,174.4079875946045,175.71367383003235,2,1.440155267715454,None,,,,,,,,,,,,,,,,,,235,2,2025-03-12_11h28.17.226,comp,2024.2.4,57.68633232841142,2025-03-12 11h28.46.035272 -0400,
29,29,0,critical,dhw,35.0,1.0,lower,70.0,70.0,133.0,57.0,57.0,133.0,3,5.748299837112427,None,,,,,0,0,0,0,0,29,29,48,175.73365235328674,,,,,,,,,,,,,,,,,,,,,,,,,,,,,,,,,,,,,,,,,,,,,,,,,,,,,,,,,,,,,,,,,,,,,,,,,,,,,,,,,70.0,70.0,133.0,57.0,57.0,133.0,1.0,1.1,-640,277,-480,257,-289,250,175.71534824371338,175.7154278755188,175.71842169761658,175.73365235328674,175.87654399871826,175.87654399871826,175.87654399871826,175.87654399871826,175.87654399871826,175.87654399871826,175.87654399871826,181.49613618850708,3,5.748299837112427,None,,,,,,,,,,,,,,,,,,235,2,2025-03-12_11h28.17.226,comp,2024.2.4,57.68633232841142,2025-03-12 11h28.46.035272 -0400,
30,30,0,critical,whd,35.0,4.0,lower,57.0,133.0,133.0,57.0,70.0,70.0,1,1.6177070140838623,None,,,,,0,0,0,0,0,30,30,88,181.51248502731323,,,,,,,,,,,,,,,,,,,,,,,,,,,,,,,,,,,,,,,,,,,,,,,,,,,,,,,,,,,,,,,,,,,,,,,,,,,,,,,,,57.0,133.0,133.0,57.0,70.0,70.0,4.0,4.2,-191,-5,0,-254,160,18,181.4976680278778,181.49774265289307,181.50081539154053,181.51248502731323,181.6496651172638,181.6496651172638,181.6496651172638,181.6496651172638,181.6496651172638,181.6496651172638,181.6496651172638,183.13449549674988,1,1.6177070140838623,None,,,,,,,,,,,,,,,,,,235,2,2025-03-12_11h28.17.226,comp,2024.2.4,57.68633232841142,2025-03-12 11h28.46.035272 -0400,
31,31,0,critical,hdw,35.0,2.1,lower,133.0,57.0,70.0,70.0,57.0,133.0,3,1.4631834030151367,None,,,,,0,0,0,0,0,31,31,20,183.1548306941986,,,,,,,,,,,,,,,,,,,,,,,,,,,,,,,,,,,,,,,,,,,,,,,,,,,,,,,,,,,,,,,,,,,,,,,,,,,,,,,,,133.0,57.0,70.0,70.0,57.0,133.0,2.1,2.12,-160,-255,0,-255,198,281,183.13600254058838,183.13608121871948,183.1391043663025,183.1548306941986,183.29698133468628,183.29698133468628,183.29698133468628,183.29698133468628,183.29698133468628,183.29698133468628,183.29698133468628,184.6341004371643,3,1.4631834030151367,None,,,,,,,,,,,,,,,,,,235,2,2025-03-12_11h28.17.226,comp,2024.2.4,57.68633232841142,2025-03-12 11h28.46.035272 -0400,
32,32,0,critical,hdw,35.0,2.1,upper,200.0,125.0,127.0,127.0,125.0,200.0,1,2.8300867080688477,None,,,,,0,0,0,0,0,32,32,45,184.65204286575317,,,,,,,,,,,,,,,,,,,,,,,,,,,,,,,,,,,,,,,,,,,,,,,,,,,,,,,,,,,,,,,,,,,,,,,,,,,,,,,,,200.0,125.0,127.0,127.0,125.0,200.0,2.1,2.12,-222,-252,0,-289,260,263,184.6355950832367,184.63566756248474,184.6386260986328,184.65204286575317,184.7968785762787,184.7968785762787,184.7968785762787,184.7968785762787,184.7968785762787,184.7968785762787,184.7968785762787,187.49659180641174,1,2.8300867080688477,None,,,,,,,,,,,,,,,,,,235,2,2025-03-12_11h28.17.226,comp,2024.2.4,57.68633232841142,2025-03-12 11h28.46.035272 -0400,
33,33,0,critical,dhw,35.0,4.0,lower,70.0,70.0,133.0,57.0,57.0,133.0,2,1.5342872142791748,None,,,,,0,0,0,0,0,33,33,52,187.51567101478577,,,,,,,,,,,,,,,,,,,,,,,,,,,,,,,,,,,,,,,,,,,,,,,,,,,,,,,,,,,,,,,,,,,,,,,,,,,,,,,,,70.0,70.0,133.0,57.0,57.0,133.0,4.0,4.1,-160,-283,0,-19,191,-262,187.49817371368408,187.49825811386108,187.50174403190613,187.51567101478577,187.64925718307495,187.64925718307495,187.64925718307495,187.64925718307495,187.64925718307495,187.64925718307495,187.64925718307495,189.06496286392212,2,1.5342872142791748,None,,,,,,,,,,,,,,,,,,235,2,2025-03-12_11h28.17.226,comp,2024.2.4,57.68633232841142,2025-03-12 11h28.46.035272 -0400,
34,34,0,critical,hwd,35.0,2.1,lower,133.0,57.0,57.0,133.0,70.0,70.0,1,1.2870173454284668,None,,,,,0,0,0,0,0,34,34,16,189.08360528945923,,,,,,,,,,,,,,,,,,,,,,,,,,,,,,,,,,,,,,,,,,,,,,,,,,,,,,,,,,,,,,,,,,,,,,,,,,,,,,,,,133.0,57.0,57.0,133.0,70.0,70.0,2.1,2.11,-191,274,0,252,198,-261,189.06649541854858,189.06657099723816,189.0698893070221,189.08360528945923,189.23662328720093,189.23662328720093,189.23662328720093,189.23662328720093,189.23662328720093,189.23662328720093,189.23662328720093,190.38027667999268,1,1.2870173454284668,None,,,,,,,,,,,,,,,,,,235,2,2025-03-12_11h28.17.226,comp,2024.2.4,57.68633232841142,2025-03-12 11h28.46.035272 -0400,
35,35,0,critical,dwh,20.0,4.0,lower,78.0,78.0,57.0,133.0,133.0,57.0,3,1.3733482360839844,None,,,,,0,0,0,0,0,35,35,70,190.3965392112732,,,,,,,,,,,,,,,,,,,,,,,,,,,,,,,,,,,,,,,,,,,,,,,,,,,,,,,,,,,,,,,,,,,,,,,,,,,,,,,,,78.0,78.0,57.0,133.0,133.0,57.0,4.0,4.1,-202,-284,0,-12,191,-263,190.38177943229675,190.38185691833496,190.38507390022278,190.3965392112732,190.54865550994873,190.54865550994873,190.54865550994873,190.54865550994873,190.54865550994873,190.54865550994873,190.54865550994873,191.7813491821289,3,1.3733482360839844,None,,,,,,,,,,,,,,,,,,235,2,2025-03-12_11h28.17.226,comp,2024.2.4,57.68633232841142,2025-03-12 11h28.46.035272 -0400,
36,36,0,critical,whd,35.0,2.1,lower,57.0,133.0,133.0,57.0,70.0,70.0,2,1.47477388381958,None,,,,,0,0,0,0,0,36,36,12,191.79964184761047,,,,,,,,,,,,,,,,,,,,,,,,,,,,,,,,,,,,,,,,,,,,,,,,,,,,,,,,,,,,,,,,,,,,,,,,,,,,,,,,,57.0,133.0,133.0,57.0,70.0,70.0,2.1,2.11,-191,262,0,287,160,-281,191.78288865089417,191.78296756744385,191.78632593154907,191.79964184761047,191.9381251335144,191.9381251335144,191.9381251335144,191.9381251335144,191.9381251335144,191.9381251335144,191.9381251335144,193.28290176391602,2,1.47477388381958,None,,,,,,,,,,,,,,,,,,235,2,2025-03-12_11h28.17.226,comp,2024.2.4,57.68633232841142,2025-03-12 11h28.46.035272 -0400,
37,37,0,critical,hdw,35.0,2.1,upper,200.0,125.0,127.0,127.0,125.0,200.0,1,2.664705991744995,None,,,,,0,0,0,0,0,37,37,21,193.29723930358887,,,,,,,,,,,,,,,,,,,,,,,,,,,,,,,,,,,,,,,,,,,,,,,,,,,,,,,,,,,,,,,,,,,,,,,,,,,,,,,,,200.0,125.0,127.0,127.0,125.0,200.0,2.1,2.11,-222,286,0,263,260,-284,193.28455591201782,193.2846348285675,193.28776144981384,193.29723930358887,193.44901514053345,193.44901514053345,193.44901514053345,193.44901514053345,193.44901514053345,193.44901514053345,193.44901514053345,195.9745934009552,1,2.664705991744995,None,,,,,,,,,,,,,,,,,,235,2,2025-03-12_11h28.17.226,comp,2024.2.4,57.68633232841142,2025-03-12 11h28.46.035272 -0400,
38,38,0,filler_random,None,None,None,None,None,None,None,None,None,None,2,1.9239096641540527,None,,,,,0,0,0,0,0,38,38,165,195.99028038978577,,,,,,,,,,,,,,,,,,,,,,,,,,,,,,,,,,,,,,,,,,,,,,,,,,,,,,,,,,,,,,,,,,,,,,,,,,,,,,,,,170.0071489379608,164.50786488764902,183.50038051524882,177.91689098933756,66.0055575984964,171.8035051271089,2.2,2.21,-267,-290,0,276,271,288,195.97626662254333,195.97634029388428,195.97964215278625,195.99028038978577,196.1349573135376,196.1349573135376,196.1349573135376,196.1349573135376,196.1349573135376,196.1349573135376,196.1349573135376,197.91686272621155,2,1.9239096641540527,None,,,,,,,,,,,,,,,,,,235,2,2025-03-12_11h28.17.226,comp,2024.2.4,57.68633232841142,2025-03-12 11h28.46.035272 -0400,
39,39,0,critical,hwd,35.0,2.1,upper,200.0,125.0,125.0,200.0,127.0,127.0,1,4.955299377441406,None,,,,,0,0,0,0,0,39,39,41,197.9351921081543,,,,,,,,,,,,,,,,,,,,,,,,,,,,,,,,,,,,,,,,,,,,,,,,,,,,,,,,,,,,,,,,,,,,,,,,,,,,,,,,,200.0,125.0,125.0,200.0,127.0,127.0,2.1,2.11,-258,258,0,272,260,-284,197.91852045059204,197.91863226890564,197.92201328277588,197.9351921081543,198.07477617263794,198.07477617263794,198.07477617263794,198.07477617263794,198.07477617263794,198.07477617263794,198.07477617263794,202.90302681922913,1,4.955299377441406,None,,,,,,,,,,,,,,,,,,235,2,2025-03-12_11h28.17.226,comp,2024.2.4,57.68633232841142,2025-03-12 11h28.46.035272 -0400,
40,40,0,filler_random,None,None,None,None,None,None,None,None,None,None,2,17.786667108535767,None,,,,,0,0,0,0,0,40,40,140,202.9196653366089,,,,,,,,,,,,,,,,,,,,,,,,,,,,,,,,,,,,,,,,,,,,,,,,,,,,,,,,,,,,,,,,,,,,,,,,,,,,,,,,,106.37151672778805,122.54201080051159,187.4933787925409,84.55396059087187,100.8089041165087,152.45185634892303,1.0,1.2,-200,11,0,0,215,1,202.90493965148926,202.9050714969635,202.90894174575806,202.9196653366089,203.0691249370575,203.0691249370575,203.0691249370575,203.0691249370575,203.0691249370575,203.0691249370575,203.0691249370575,220.72450804710388,2,17.786667108535767,None,,,,,,,,,,,,,,,,,,235,2,2025-03-12_11h28.17.226,comp,2024.2.4,57.68633232841142,2025-03-12 11h28.46.035272 -0400,
41,41,0,critical,dhw,20.0,2.1,lower,78.0,78.0,133.0,57.0,57.0,133.0,3,3.430054187774658,None,,,,,0,0,0,0,0,41,41,26,220.7398190498352,,,,,,,,,,,,,,,,,,,,,,,,,,,,,,,,,,,,,,,,,,,,,,,,,,,,,,,,,,,,,,,,,,,,,,,,,,,,,,,,,78.0,78.0,133.0,57.0,57.0,133.0,2.1,2.11,-164,257,0,252,191,-286,220.72606086730957,220.726167678833,220.72962284088135,220.7398190498352,220.88977670669556,220.88977670669556,220.88977670669556,220.88977670669556,220.88977670669556,220.88977670669556,220.88977670669556,224.18201684951782,3,3.430054187774658,None,,,,,,,,,,,,,,,,,,235,2,2025-03-12_11h28.17.226,comp,2024.2.4,57.68633232841142,2025-03-12 11h28.46.035272 -0400,
42,42,0,filler_random,None,None,None,None,None,None,None,None,None,None,2,1.0340454578399658,None,,,,,0,0,0,0,0,42,42,164,224.20060110092163,,,,,,,,,,,,,,,,,,,,,,,,,,,,,,,,,,,,,,,,,,,,,,,,,,,,,,,,,,,,,,,,,,,,,,,,,,,,,,,,,88.56683490497917,63.433247295645955,163.89002559455548,186.70643632295614,117.48475451936969,169.83500727705479,2.1,2.11,-221,258,0,278,274,-255,224.18402314186096,224.18410301208496,224.1873562335968,224.20060110092163,224.34103441238403,224.34103441238403,224.34103441238403,224.34103441238403,224.34103441238403,224.34103441238403,224.34103441238403,225.24142050743103,2,1.0340454578399658,None,,,,,,,,,,,,,,,,,,235,2,2025-03-12_11h28.17.226,comp,2024.2.4,57.68633232841142,2025-03-12 11h28.46.035272 -0400,
43,43,0,filler_square,None,None,None,None,None,None,None,None,None,None,1,1.2393627166748047,None,,,,,0,0,0,0,0,43,43,193,225.25856828689575,,,,,,,,,,,,,,,,,,,,,,,,,,,,,,,,,,,,,,,,,,,,,,,,,,,,,,,,,,,,,,,,,,,,,,,,,,,,,,,,,92.88752113530907,92.88752113530907,72.83398444934227,82.65927880208162,73.46649636559422,88.33607646801548,1.0,1.3,296,-265,480,-278,661,-261,225.24350953102112,225.24359035491943,225.24686789512634,225.25856828689575,225.41430950164795,225.41430950164795,225.41430950164795,225.41430950164795,225.41430950164795,225.41430950164795,225.41430950164795,226.50307059288025,1,1.2393627166748047,None,,,,,,,,,,,,,,,,,,235,2,2025-03-12_11h28.17.226,comp,2024.2.4,57.68633232841142,2025-03-12 11h28.46.035272 -0400,
44,44,0,catch,None,None,None,None,None,None,None,None,None,None,1,1.2626783847808838,None,,,,,0,0,0,0,0,44,44,120,226.523695230484,,,,,,,,,,,,,,,,,,,,,,,,,,,,,,,,,,,,,,,,,,,,,,,,,,,,,,,,,,,,,,,,,,,,,,,,,,,,,,,,,197,128,133,57,72,118,2.2,2.22,-188,289,0,-290,184,-276,226.50498962402344,226.50507068634033,226.50797128677368,226.523695230484,226.6591248512268,226.6591248512268,226.6591248512268,226.6591248512268,226.6591248512268,226.6591248512268,226.6591248512268,227.79466366767883,1,1.2626783847808838,None,,,,,,,,,,,,,,,,,,235,2,2025-03-12_11h28.17.226,comp,2024.2.4,57.68633232841142,2025-03-12 11h28.46.035272 -0400,
45,45,0,critical,wdh,35.0,1.0,upper,125.0,200.0,127.0,127.0,200.0,125.0,3,4.701827764511108,None,,,,,0,0,0,0,0,45,45,73,227.8122410774231,,,,,,,,,,,,,,,,,,,,,,,,,,,,,,,,,,,,,,,,,,,,,,,,,,,,,,,,,,,,,,,,,,,,,,,,,,,,,,,,,125.0,200.0,127.0,127.0,200.0,125.0,1.0,1.2,-260,7,0,3,222,-16,227.7961151599884,227.79625010490417,227.79940962791443,227.8122410774231,227.95973110198975,227.95973110198975,227.95973110198975,227.95973110198975,227.95973110198975,227.95973110198975,227.95973110198975,232.53128623962402,3,4.701827764511108,None,,,,,,,,,,,,,,,,,,235,2,2025-03-12_11h28.17.226,comp,2024.2.4,57.68633232841142,2025-03-12 11h28.46.035272 -0400,
46,46,0,critical,hwd,20.0,2.1,upper,200.0,125.0,125.0,200.0,141.0,141.0,2,2.4872312545776367,None,,,,,0,0,0,0,0,46,46,19,232.54743480682373,,,,,,,,,,,,,,,,,,,,,,,,,,,,,,,,,,,,,,,,,,,,,,,,,,,,,,,,,,,,,,,,,,,,,,,,,,,,,,,,,200.0,125.0,125.0,200.0,141.0,141.0,2.1,2.11,-258,275,0,253,266,-266,232.53326058387756,232.53333687782288,232.5363347530365,232.54743480682373,232.6952896118164,232.6952896118164,232.6952896118164,232.6952896118164,232.6952896118164,232.6952896118164,232.6952896118164,235.0461995601654,2,2.4872312545776367,None,,,,,,,,,,,,,,,,,,235,2,2025-03-12_11h28.17.226,comp,2024.2.4,57.68633232841142,2025-03-12 11h28.46.035272 -0400,
47,47,0,critical,hwd,35.0,1.0,lower,133.0,57.0,57.0,133.0,70.0,70.0,2,3.827540636062622,None,,,,,0,0,0,0,0,47,47,96,235.06269359588623,,,,,,,,,,,,,,,,,,,,,,,,,,,,,,,,,,,,,,,,,,,,,,,,,,,,,,,,,,,,,,,,,,,,,,,,,,,,,,,,,133.0,57.0,57.0,133.0,70.0,70.0,1.0,1.3,289,-278,480,-265,678,-278,235.04778027534485,235.047860622406,235.05194902420044,235.06269359588623,235.2143747806549,235.2143747806549,235.2143747806549,235.2143747806549,235.2143747806549,235.2143747806549,235.2143747806549,238.89882278442383,2,3.827540636062622,None,,,,,,,,,,,,,,,,,,235,2,2025-03-12_11h28.17.226,comp,2024.2.4,57.68633232841142,2025-03-12 11h28.46.035272 -0400,
48,48,0,critical,dwh,35.0,2.1,upper,127.0,127.0,125.0,200.0,200.0,125.0,2,8.503806352615356,None,,,,,0,0,0,0,0,48,48,5,238.91455364227295,,,,,,,,,,,,,,,,,,,,,,,,,,,,,,,,,,,,,,,,,,,,,,,,,,,,,,,,,,,,,,,,,,,,,,,,,,,,,,,,,127.0,127.0,125.0,200.0,200.0,125.0,2.1,2.12,-260,-284,0,-281,258,287,238.9004716873169,238.90055131912231,238.90383386611938,238.91455364227295,239.0509843826294,239.0509843826294,239.0509843826294,239.0509843826294,239.0509843826294,239.0509843826294,239.0509843826294,247.4346899986267,2,8.503806352615356,None,,,,,,,,,,,,,,,,,,235,2,2025-03-12_11h28.17.226,comp,2024.2.4,57.68633232841142,2025-03-12 11h28.46.035272 -0400,
49,49,0,catch,None,None,None,None,None,None,None,None,None,None,1,1.062901496887207,None,,,,,0,0,0,0,0,49,49,121,247.45158863067627,,,,,,,,,,,,,,,,,,,,,,,,,,,,,,,,,,,,,,,,,,,,,,,,,,,,,,,,,,,,,,,,,,,,,,,,,,,,,,,,,177,148,96,94,101,89,3.0,3.1,-217,256,0,-18,188,-273,247.43697333335876,247.4370505809784,247.4403896331787,247.45158863067627,247.59985256195068,247.59985256195068,247.59985256195068,247.59985256195068,247.59985256195068,247.59985256195068,247.59985256195068,248.51654314994812,1,1.062901496887207,None,,,,,,,,,,,,,,,,,,235,2,2025-03-12_11h28.17.226,comp,2024.2.4,57.68633232841142,2025-03-12 11h28.46.035272 -0400,
50,50,0,critical,hwd,35.0,3.0,lower,133.0,57.0,57.0,133.0,70.0,70.0,2,2.1094846725463867,None,,,,,0,0,0,0,0,50,50,98,248.533132314682,,,,,,,,,,,,,,,,,,,,,,,,,,,,,,,,,,,,,,,,,,,,,,,,,,,,,,,,,,,,,,,,,,,,,,,,,,,,,,,,,133.0,57.0,57.0,133.0,70.0,70.0,3.0,3.1,-191,265,0,-5,198,-261,248.51818776130676,248.51827311515808,248.52240753173828,248.533132314682,248.6815779209137,248.6815779209137,248.6815779209137,248.6815779209137,248.6815779209137,248.6815779209137,248.6815779209137,250.65012407302856,2,2.1094846725463867,None,,,,,,,,,,,,,,,,,,235,2,2025-03-12_11h28.17.226,comp,2024.2.4,57.68633232841142,2025-03-12 11h28.46.035272 -0400,
51,51,0,critical,whd,20.0,1.0,lower,57.0,133.0,133.0,57.0,78.0,78.0,1,2.1284844875335693,None,,,,,0,0,0,0,0,51,51,90,250.6658399105072,,,,,,,,,,,,,,,,,,,,,,,,,,,,,,,,,,,,,,,,,,,,,,,,,,,,,,,,,,,,,,,,,,,,,,,,,,,,,,,,,57.0,133.0,133.0,57.0,78.0,78.0,1.0,1.3,289,-283,480,-268,644,-286,250.65166687965393,250.65174341201782,250.65512609481812,250.6658399105072,250.81674766540527,250.81674766540527,250.81674766540527,250.81674766540527,250.81674766540527,250.81674766540527,250.81674766540527,252.804340839386,1,2.1284844875335693,None,,,,,,,,,,,,,,,,,,235,2,2025-03-12_11h28.17.226,comp,2024.2.4,57.68633232841142,2025-03-12 11h28.46.035272 -0400,
52,52,0,critical,hwd,35.0,4.0,lower,133.0,57.0,57.0,133.0,70.0,70.0,1,3.7922112941741943,None,,,,,0,0,0,0,0,52,52,100,252.820374250412,,,,,,,,,,,,,,,,,,,,,,,,,,,,,,,,,,,,,,,,,,,,,,,,,,,,,,,,,,,,,,,,,,,,,,,,,,,,,,,,,133.0,57.0,57.0,133.0,70.0,70.0,4.0,4.1,-191,-261,0,-8,198,-286,252.80603909492493,252.8061854839325,252.80960130691528,252.820374250412,252.95841932296753,252.95841932296753,252.95841932296753,252.95841932296753,252.95841932296753,252.95841932296753,252.95841932296753,256.61768198013306,1,3.7922112941741943,None,,,,,,,,,,,,,,,,,,235,2,2025-03-12_11h28.17.226,comp,2024.2.4,57.68633232841142,2025-03-12 11h28.46.035272 -0400,
53,53,0,critical,dhw,20.0,1.0,lower,78.0,78.0,133.0,57.0,57.0,133.0,3,2.3359339237213135,None,,,,,0,0,0,0,0,53,53,54,256.6342384815216,,,,,,,,,,,,,,,,,,,,,,,,,,,,,,,,,,,,,,,,,,,,,,,,,,,,,,,,,,,,,,,,,,,,,,,,,,,,,,,,,78.0,78.0,133.0,57.0,57.0,133.0,1.0,1.1,-644,255,-480,283,-289,289,256.61928939819336,256.61936593055725,256.6227514743805,256.6342384815216,256.7909052371979,256.7909052371979,256.7909052371979,256.7909052371979,256.7909052371979,256.7909052371979,256.7909052371979,258.9858329296112,3,2.3359339237213135,None,,,,,,,,,,,,,,,,,,235,2,2025-03-12_11h28.17.226,comp,2024.2.4,57.68633232841142,2025-03-12 11h28.46.035272 -0400,
54,54,0,critical,whd,35.0,3.0,upper,125.0,200.0,200.0,125.0,127.0,127.0,1,4.416792154312134,None,,,,,0,0,0,0,0,54,54,87,259.0012159347534,,,,,,,,,,,,,,,,,,,,,,,,,,,,,,,,,,,,,,,,,,,,,,,,,,,,,,,,,,,,,,,,,,,,,,,,,,,,,,,,,125.0,200.0,200.0,125.0,127.0,127.0,3.0,3.2,-258,-276,0,4,222,260,258.98737239837646,258.98744893074036,258.99100279808044,259.0012159347534,259.1532528400421,259.1532528400421,259.1532528400421,259.1532528400421,259.1532528400421,259.1532528400421,259.1532528400421,263.42150139808655,1,4.416792154312134,None,,,,,,,,,,,,,,,,,,235,2,2025-03-12_11h28.17.226,comp,2024.2.4,57.68633232841142,2025-03-12 11h28.46.035272 -0400,
55,55,0,filler_square,None,None,None,None,None,None,None,None,None,None,1,1.6329340934753418,None,,,,,0,0,0,0,0,55,55,182,263.4412610530853,,,,,,,,,,,,,,,,,,,,,,,,,,,,,,,,,,,,,,,,,,,,,,,,,,,,,,,,,,,,,,,,,,,,,,,,,,,,,,,,,169.10196723449985,169.10196723449985,110.41762640487181,103.59419974061075,139.0416682207434,153.92925797415052,1.0,1.1,-712,282,-480,279,-255,258,263.4233191013336,263.42339873313904,263.42634439468384,263.4412610530853,263.58856225013733,263.58856225013733,263.58856225013733,263.58856225013733,263.58856225013733,263.58856225013733,263.58856225013733,265.08094906806946,1,1.6329340934753418,None,,,,,,,,,,,,,,,,,,235,2,2025-03-12_11h28.17.226,comp,2024.2.4,57.68633232841142,2025-03-12 11h28.46.035272 -0400,
56,56,0,filler_random,None,None,None,None,None,None,None,None,None,None,2,1.1828088760375977,None,,,,,0,0,0,0,0,56,56,135,265.099413394928,,,,,,,,,,,,,,,,,,,,,,,,,,,,,,,,,,,,,,,,,,,,,,,,,,,,,,,,,,,,,,,,,,,,,,,,,,,,,,,,,74.45054454246618,173.25279971352313,148.17024155208242,151.24189171017736,158.10797977521833,74.01795191774627,2.1,2.11,-258,271,0,269,209,-259,265.08284306526184,265.082923412323,265.0862367153168,265.099413394928,265.23779225349426,265.23779225349426,265.23779225349426,265.23779225349426,265.23779225349426,265.23779225349426,265.23779225349426,266.29812121391296,2,1.1828088760375977,None,,,,,,,,,,,,,,,,,,235,2,2025-03-12_11h28.17.226,comp,2024.2.4,57.68633232841142,2025-03-12 11h28.46.035272 -0400,
57,57,0,catch,None,None,None,None,None,None,None,None,None,None,1,1.040424108505249,None,,,,,0,0,0,0,0,57,57,127,266.3134744167328,,,,,,,,,,,,,,,,,,,,,,,,,,,,,,,,,,,,,,,,,,,,,,,,,,,,,,,,,,,,,,,,,,,,,,,,,,,,,,,,,141,184,60,130,88,102,2.1,2.12,-253,-256,0,-288,212,282,266.3000659942627,266.300167798996,266.3031141757965,266.3134744167328,266.45919013023376,266.45919013023376,266.45919013023376,266.45919013023376,266.45919013023376,266.45919013023376,266.45919013023376,267.3574662208557,1,1.040424108505249,None,,,,,,,,,,,,,,,,,,235,2,2025-03-12_11h28.17.226,comp,2024.2.4,57.68633232841142,2025-03-12 11h28.46.035272 -0400,
58,58,0,critical,whd,20.0,1.0,upper,125.0,200.0,200.0,125.0,141.0,141.0,1,12.34132194519043,None,,,,,0,0,0,0,0,58,58,91,267.37367272377014,,,,,,,,,,,,,,,,,,,,,,,,,,,,,,,,,,,,,,,,,,,,,,,,,,,,,,,,,,,,,,,,,,,,,,,,,,,,,,,,,125.0,200.0,200.0,125.0,141.0,141.0,1.0,1.2,-258,-13,0,13,229,-2,267.35911417007446,267.3592278957367,267.36306285858154,267.37367272377014,267.52328062057495,267.52328062057495,267.52328062057495,267.52328062057495,267.52328062057495,267.52328062057495,267.52328062057495,279.7311918735504,1,12.34132194519043,None,,,,,,,,,,,,,,,,,,235,2,2025-03-12_11h28.17.226,comp,2024.2.4,57.68633232841142,2025-03-12 11h28.46.035272 -0400,
59,59,0,filler_square,None,None,None,None,None,None,None,None,None,None,1,1.9761602878570557,None,,,,,0,0,0,0,0,59,59,197,279.7461082935333,,,,,,,,,,,,,,,,,,,,,,,,,,,,,,,,,,,,,,,,,,,,,,,,,,,,,,,,,,,,,,,,,,,,,,,,,,,,,,,,,124.42957988097982,124.42957988097982,119.2040673257664,117.82624379112909,70.78429415380333,109.72835672700381,3.0,3.2,-217,-264,0,11,210,271,279.73291087150574,279.7329852581024,279.7358748912811,279.7461082935333,279.89018297195435,279.89018297195435,279.89018297195435,279.89018297195435,279.89018297195435,279.89018297195435,279.89018297195435,281.7253668308258,1,1.9761602878570557,None,,,,,,,,,,,,,,,,,,235,2,2025-03-12_11h28.17.226,comp,2024.2.4,57.68633232841142,2025-03-12 11h28.46.035272 -0400,
60,60,0,filler_random,None,None,None,None,None,None,None,None,None,None,1,1.419522762298584,None,,,,,0,0,0,0,0,60,60,156,281.7424976825714,,,,,,,,,,,,,,,,,,,,,,,,,,,,,,,,,,,,,,,,,,,,,,,,,,,,,,,,,,,,,,,,,,,,,,,,,,,,,,,,,100.56119395351791,170.1700265028621,83.29122035866868,186.2850422924039,65.37279558434565,75.34866004607395,3.0,3.1,-274,259,0,-10,227,-280,281.72703528404236,281.727117061615,281.73027205467224,281.7424976825714,281.8937478065491,281.8937478065491,281.8937478065491,281.8937478065491,281.8937478065491,281.8937478065491,281.8937478065491,283.1788010597229,1,1.419522762298584,None,,,,,,,,,,,,,,,,,,235,2,2025-03-12_11h28.17.226,comp,2024.2.4,57.68633232841142,2025-03-12 11h28.46.035272 -0400,
61,61,0,critical,hwd,35.0,2.1,lower,133.0,57.0,57.0,133.0,70.0,70.0,1,7.7249696254730225,None,,,,,0,0,0,0,0,61,61,40,283.19859409332275,,,,,,,,,,,,,,,,,,,,,,,,,,,,,,,,,,,,,,,,,,,,,,,,,,,,,,,,,,,,,,,,,,,,,,,,,,,,,,,,,133.0,57.0,57.0,133.0,70.0,70.0,2.1,2.11,-191,263,0,268,198,-278,283.1803550720215,283.1804301738739,283.18349862098694,283.19859409332275,283.3398039340973,283.3398039340973,283.3398039340973,283.3398039340973,283.3398039340973,283.3398039340973,283.3398039340973,290.9277355670929,1,7.7249696254730225,None,,,,,,,,,,,,,,,,,,235,2,2025-03-12_11h28.17.226,comp,2024.2.4,57.68633232841142,2025-03-12 11h28.46.035272 -0400,
62,62,0,filler_square,None,None,None,None,None,None,None,None,None,None,2,1.1061441898345947,None,,,,,0,0,0,0,0,62,62,177,290.94372844696045,,,,,,,,,,,,,,,,,,,,,,,,,,,,,,,,,,,,,,,,,,,,,,,,,,,,,,,,,,,,,,,,,,,,,,,,,,,,,,,,,96.17895563616065,66.93986331680799,151.19830656044147,151.19830656044147,91.48880487319995,96.63696985558865,2.2,2.21,-205,-257,0,256,220,266,290.9294972419739,290.92957282066345,290.9326117038727,290.94372844696045,291.09540247917175,291.09540247917175,291.09540247917175,291.09540247917175,291.09540247917175,291.09540247917175,291.09540247917175,292.0666711330414,2,1.1061441898345947,None,,,,,,,,,,,,,,,,,,235,2,2025-03-12_11h28.17.226,comp,2024.2.4,57.68633232841142,2025-03-12 11h28.46.035272 -0400,
63,63,0,critical,whd,20.0,2.1,upper,125.0,200.0,200.0,125.0,141.0,141.0,1,7.9418785572052,None,,,,,0,0,0,0,0,63,63,15,292.0845911502838,,,,,,,,,,,,,,,,,,,,,,,,,,,,,,,,,,,,,,,,,,,,,,,,,,,,,,,,,,,,,,,,,,,,,,,,,,,,,,,,,125.0,200.0,200.0,125.0,141.0,141.0,2.1,2.12,-258,-280,0,-250,229,271,292.06848907470703,292.06862592697144,292.07176446914673,292.0845911502838,292.230566740036,292.230566740036,292.230566740036,292.230566740036,292.230566740036,292.230566740036,292.230566740036,300.03278064727783,1,7.9418785572052,None,,,,,,,,,,,,,,,,,,235,2,2025-03-12_11h28.17.226,comp,2024.2.4,57.68633232841142,2025-03-12 11h28.46.035272 -0400,
64,64,0,filler_square,None,None,None,None,None,None,None,None,None,None,3,1.5853116512298584,None,,,,,0,0,0,0,0,64,64,181,300.05741930007935,,,,,,,,,,,,,,,,,,,,,,,,,,,,,,,,,,,,,,,,,,,,,,,,,,,,,,,,,,,,,,,,,,,,,,,,,,,,,,,,,84.74558467820631,124.92754819718472,129.95018740444664,96.98261323670133,133.41705560924365,133.41705560924365,4.0,4.1,-207,-283,0,1,211,-251,300.03461146354675,300.0346899032593,300.03766441345215,300.05741930007935,300.1998565196991,300.1998565196991,300.1998565196991,300.1998565196991,300.1998565196991,300.1998565196991,300.1998565196991,301.6497211456299,3,1.5853116512298584,None,,,,,,,,,,,,,,,,,,235,2,2025-03-12_11h28.17.226,comp,2024.2.4,57.68633232841142,2025-03-12 11h28.46.035272 -0400,
65,65,0,critical,dhw,35.0,2.1,lower,70.0,70.0,133.0,57.0,57.0,133.0,2,2.7523767948150635,None,,,,,0,0,0,0,0,65,65,24,301.6661043167114,,,,,,,,,,,,,,,,,,,,,,,,,,,,,,,,,,,,,,,,,,,,,,,,,,,,,,,,,,,,,,,,,,,,,,,,,,,,,,,,,70.0,70.0,133.0,57.0,57.0,133.0,2.1,2.11,-160,288,0,252,191,-273,301.6512565612793,301.6513352394104,301.6554720401764,301.6661043167114,301.8167221546173,301.8167221546173,301.8167221546173,301.8167221546173,301.8167221546173,301.8167221546173,301.8167221546173,304.428507566452,2,2.7523767948150635,None,,,,,,,,,,,,,,,,,,235,2,2025-03-12_11h28.17.226,comp,2024.2.4,57.68633232841142,2025-03-12 11h28.46.035272 -0400,
66,66,0,critical,hdw,35.0,4.0,upper,200.0,125.0,127.0,127.0,125.0,200.0,1,1.4891152381896973,None,,,,,0,0,0,0,0,66,66,113,304.4493582248688,,,,,,,,,,,,,,,,,,,,,,,,,,,,,,,,,,,,,,,,,,,,,,,,,,,,,,,,,,,,,,,,,,,,,,,,,,,,,,,,,200.0,125.0,127.0,127.0,125.0,200.0,4.0,4.2,-222,-3,0,-269,260,2,304.43008637428284,304.43021297454834,304.43360662460327,304.4493582248688,304.58444595336914,304.58444595336914,304.58444595336914,304.58444595336914,304.58444595336914,304.58444595336914,304.58444595336914,305.9422962665558,1,1.4891152381896973,None,,,,,,,,,,,,,,,,,,235,2,2025-03-12_11h28.17.226,comp,2024.2.4,57.68633232841142,2025-03-12 11h28.46.035272 -0400,
67,67,0,filler_random,None,None,None,None,None,None,None,None,None,None,1,4.332269191741943,None,,,,,0,0,0,0,0,67,67,136,305.9577639102936,,,,,,,,,,,,,,,,,,,,,,,,,,,,,,,,,,,,,,,,,,,,,,,,,,,,,,,,,,,,,,,,,,,,,,,,,,,,,,,,,109.1984565571021,103.20393559343643,130.19412439578986,61.262456470266166,93.887024988057,76.43383732525665,2.2,2.21,-178,-267,0,264,165,281,305.9439013004303,305.94397616386414,305.9469165802002,305.9577639102936,306.09844279289246,306.09844279289246,306.09844279289246,306.09844279289246,306.09844279289246,306.09844279289246,306.09844279289246,310.3034653663635,1,4.332269191741943,None,,,,,,,,,,,,,,,,,,235,2,2025-03-12_11h28.17.226,comp,2024.2.4,57.68633232841142,2025-03-12 11h28.46.035272 -0400,
68,68,0,filler_random,None,None,None,None,None,None,None,None,None,None,2,1.0007352828979492,None,,,,,0,0,0,0,0,68,68,149,310.32119607925415,,,,,,,,,,,,,,,,,,,,,,,,,,,,,,,,,,,,,,,,,,,,,,,,,,,,,,,,,,,,,,,,,,,,,,,,,,,,,,,,,67.53975954155813,87.67567034940446,199.10900229345643,146.80823423485708,181.9681588942551,85.27008292268536,2.2,2.22,-213,260,0,-253,212,-280,310.3050060272217,310.30508160591125,310.30806517601013,310.32119607925415,310.4680640697479,310.4680640697479,310.4680640697479,310.4680640697479,310.4680640697479,310.4680640697479,310.4680640697479,311.3350236415863,2,1.0007352828979492,None,,,,,,,,,,,,,,,,,,235,2,2025-03-12_11h28.17.226,comp,2024.2.4,57.68633232841142,2025-03-12 11h28.46.035272 -0400,
69,69,0,critical,dwh,20.0,2.1,upper,141.0,141.0,125.0,200.0,200.0,125.0,2,6.266695022583008,None,,,,,0,0,0,0,0,69,69,31,311.35160422325134,,,,,,,,,,,,,,,,,,,,,,,,,,,,,,,,,,,,,,,,,,,,,,,,,,,,,,,,,,,,,,,,,,,,,,,,,,,,,,,,,141.0,141.0,125.0,200.0,200.0,125.0,2.1,2.12,-266,-266,0,-269,258,287,311.3366324901581,311.3367063999176,311.3402826786041,311.35160422325134,311.5011763572693,311.5011763572693,311.5011763572693,311.5011763572693,311.5011763572693,311.5011763572693,311.5011763572693,317.6205575466156,2,6.266695022583008,None,,,,,,,,,,,,,,,,,,235,2,2025-03-12_11h28.17.226,comp,2024.2.4,57.68633232841142,2025-03-12 11h28.46.035272 -0400,
70,70,0,critical,dhw,35.0,3.0,lower,70.0,70.0,133.0,57.0,57.0,133.0,2,1.772789716720581,None,,,,,0,0,0,0,0,70,70,50,317.63750100135803,,,,,,,,,,,,,,,,,,,,,,,,,,,,,,,,,,,,,,,,,,,,,,,,,,,,,,,,,,,,,,,,,,,,,,,,,,,,,,,,,70.0,70.0,133.0,57.0,57.0,133.0,3.0,3.2,-160,-273,0,-12,191,281,317.62218379974365,317.6222906112671,317.62583780288696,317.63750100135803,317.7908923625946,317.7908923625946,317.7908923625946,317.7908923625946,317.7908923625946,317.7908923625946,317.7908923625946,319.4267361164093,2,1.772789716720581,None,,,,,,,,,,,,,,,,,,235,2,2025-03-12_11h28.17.226,comp,2024.2.4,57.68633232841142,2025-03-12 11h28.46.035272 -0400,
71,71,0,critical,hwd,35.0,1.0,upper,200.0,125.0,125.0,200.0,127.0,127.0,2,9.935646295547485,None,,,,,0,0,0,0,0,71,71,97,319.44225096702576,,,,,,,,,,,,,,,,,,,,,,,,,,,,,,,,,,,,,,,,,,,,,,,,,,,,,,,,,,,,,,,,,,,,,,,,,,,,,,,,,200.0,125.0,125.0,200.0,127.0,127.0,1.0,1.3,222,-271,480,-265,740,-251,319.4282228946686,319.4282982349396,319.4311685562134,319.44225096702576,319.58832263946533,319.58832263946533,319.58832263946533,319.58832263946533,319.58832263946533,319.58832263946533,319.58832263946533,329.3913094997406,2,9.935646295547485,None,,,,,,,,,,,,,,,,,,235,2,2025-03-12_11h28.17.226,comp,2024.2.4,57.68633232841142,2025-03-12 11h28.46.035272 -0400,
72,72,0,filler_random,None,None,None,None,None,None,None,None,None,None,3,1.2182292938232422,None,,,,,0,0,0,0,0,72,72,153,329.4076952934265,,,,,,,,,,,,,,,,,,,,,,,,,,,,,,,,,,,,,,,,,,,,,,,,,,,,,,,,,,,,,,,,,,,,,,,,,,,,,,,,,150.6587589583009,114.27362235573084,168.4251303415901,69.73050989360655,147.66183581002548,188.07400022185607,2.1,2.11,-188,288,0,290,225,-260,329.3932785987854,329.3933575153351,329.39719223976135,329.4076952934265,329.55541133880615,329.55541133880615,329.55541133880615,329.55541133880615,329.55541133880615,329.55541133880615,329.55541133880615,330.63126039505005,3,1.2182292938232422,None,,,,,,,,,,,,,,,,,,235,2,2025-03-12_11h28.17.226,comp,2024.2.4,57.68633232841142,2025-03-12 11h28.46.035272 -0400,
73,73,0,critical,hdw,20.0,2.1,lower,133.0,57.0,78.0,78.0,57.0,133.0,1,1.6711053848266602,None,,,,,0,0,0,0,0,73,73,22,330.6509213447571,,,,,,,,,,,,,,,,,,,,,,,,,,,,,,,,,,,,,,,,,,,,,,,,,,,,,,,,,,,,,,,,,,,,,,,,,,,,,,,,,133.0,57.0,78.0,78.0,57.0,133.0,2.1,2.11,-164,268,0,267,202,-274,330.6327214241028,330.63279128074646,330.6354331970215,330.6509213447571,330.79159665107727,330.79159665107727,330.79159665107727,330.79159665107727,330.79159665107727,330.79159665107727,330.79159665107727,332.32594203948975,1,1.6711053848266602,None,,,,,,,,,,,,,,,,,,235,2,2025-03-12_11h28.17.226,comp,2024.2.4,57.68633232841142,2025-03-12 11h28.46.035272 -0400,
74,74,0,critical,wdh,35.0,3.0,upper,125.0,200.0,127.0,127.0,200.0,125.0,1,2.3303263187408447,None,,,,,0,0,0,0,0,74,74,75,332.3438642024994,,,,,,,,,,,,,,,,,,,,,,,,,,,,,,,,,,,,,,,,,,,,,,,,,,,,,,,,,,,,,,,,,,,,,,,,,,,,,,,,,125.0,200.0,127.0,127.0,200.0,125.0,3.0,3.1,-260,281,0,11,222,-286,332.3275134563446,332.32759261131287,332.3307240009308,332.3438642024994,332.49291729927063,332.49291729927063,332.49291729927063,332.49291729927063,332.49291729927063,332.49291729927063,332.49291729927063,334.6926007270813,1,2.3303263187408447,None,,,,,,,,,,,,,,,,,,235,2,2025-03-12_11h28.17.226,comp,2024.2.4,57.68633232841142,2025-03-12 11h28.46.035272 -0400,
75,75,0,critical,dwh,20.0,1.0,lower,78.0,78.0,57.0,133.0,133.0,57.0,2,10.786558151245117,None,,,,,0,0,0,0,0,75,75,66,334.711297750473,,,,,,,,,,,,,,,,,,,,,,,,,,,,,,,,,,,,,,,,,,,,,,,,,,,,,,,,,,,,,,,,,,,,,,,,,,,,,,,,,78.0,78.0,57.0,133.0,133.0,57.0,1.0,1.2,-202,7,0,-9,191,-2,334.6941967010498,334.69428515434265,334.6976969242096,334.711297750473,334.8607232570648,334.8607232570648,334.8607232570648,334.8607232570648,334.8607232570648,334.8607232570648,334.8607232570648,345.5130383968353,2,10.786558151245117,None,,,,,,,,,,,,,,,,,,235,2,2025-03-12_11h28.17.226,comp,2024.2.4,57.68633232841142,2025-03-12 11h28.46.035272 -0400,
76,76,0,critical,wdh,20.0,1.0,lower,57.0,133.0,78.0,78.0,133.0,57.0,1,1.4489238262176514,None,,,,,0,0,0,0,0,76,76,78,345.52909898757935,,,,,,,,,,,,,,,,,,,,,,,,,,,,,,,,,,,,,,,,,,,,,,,,,,,,,,,,,,,,,,,,,,,,,,,,,,,,,,,,,57.0,133.0,78.0,78.0,133.0,57.0,1.0,1.1,-682,256,-480,275,-316,267,345.514541387558,345.5146164894104,345.5186676979065,345.52909898757935,345.67825865745544,345.67825865745544,345.67825865745544,345.67825865745544,345.67825865745544,345.67825865745544,345.67825865745544,346.99636697769165,1,1.4489238262176514,None,,,,,,,,,,,,,,,,,,235,2,2025-03-12_11h28.17.226,comp,2024.2.4,57.68633232841142,2025-03-12 11h28.46.035272 -0400,
77,77,0,filler_random,None,None,None,None,None,None,None,None,None,None,3,1.1385738849639893,None,,,,,0,0,0,0,0,77,77,155,347.0160446166992,,,,,,,,,,,,,,,,,,,,,,,,,,,,,,,,,,,,,,,,,,,,,,,,,,,,,,,,,,,,,,,,,,,,,,,,,,,,,,,,,82.78845879238176,76.72196892879896,57.94787556031362,88.93214174359358,93.34499792512071,96.43191618512262,2.1,2.12,-179,-276,0,-272,189,252,346.99806928634644,346.9981744289398,347.0014305114746,347.0160446166992,347.1635172367096,347.1635172367096,347.1635172367096,347.1635172367096,347.1635172367096,347.1635172367096,347.1635172367096,348.16592669487,3,1.1385738849639893,None,,,,,,,,,,,,,,,,,,235,2,2025-03-12_11h28.17.226,comp,2024.2.4,57.68633232841142,2025-03-12 11h28.46.035272 -0400,
78,78,0,filler_square,None,None,None,None,None,None,None,None,None,None,3,0.9078958034515381,None,,,,,0,0,0,0,0,78,78,195,348.1825895309448,,,,,,,,,,,,,,,,,,,,,,,,,,,,,,,,,,,,,,,,,,,,,,,,,,,,,,,,,,,,,,,,,,,,,,,,,,,,,,,,,88.23256699773775,61.003395965264446,95.47779291728918,59.27292924934949,120.11889606912214,120.11889606912214,3.0,3.2,-156,-264,0,-3,186,277,348.1679151058197,348.1679961681366,348.17186164855957,348.1825895309448,348.3351893424988,348.3351893424988,348.3351893424988,348.3351893424988,348.3351893424988,348.3351893424988,348.3351893424988,349.0982506275177,3,0.9078958034515381,None,,,,,,,,,,,,,,,,,,235,2,2025-03-12_11h28.17.226,comp,2024.2.4,57.68633232841142,2025-03-12 11h28.46.035272 -0400,
79,79,0,filler_random,None,None,None,None,None,None,None,None,None,None,2,1.0961616039276123,None,,,,,0,0,0,0,0,79,79,145,349.1140398979187,,,,,,,,,,,,,,,,,,,,,,,,,,,,,,,,,,,,,,,,,,,,,,,,,,,,,,,,,,,,,,,,,,,,,,,,,,,,,,,,,147.41603308566238,62.366505466695536,142.15978512816642,162.73445147277803,87.7045698797188,115.87623954921219,2.1,2.12,-209,-269,0,-260,235,256,349.09995436668396,349.10003113746643,349.1034405231476,349.1140398979187,349.26721262931824,349.26721262931824,349.26721262931824,349.26721262931824,349.26721262931824,349.26721262931824,349.26721262931824,350.21492433547974,2,1.0961616039276123,None,,,,,,,,,,,,,,,,,,235,2,2025-03-12_11h28.17.226,comp,2024.2.4,57.68633232841142,2025-03-12 11h28.46.035272 -0400,
80,80,0,filler_square,None,None,None,None,None,None,None,None,None,None,3,1.0992460250854492,None,,,,,0,0,0,0,0,80,80,173,350.2312436103821,,,,,,,,,,,,,,,,,,,,,,,,,,,,,,,,,,,,,,,,,,,,,,,,,,,,,,,,,,,,,,,,,,,,,,,,,,,,,,,,,88.81512876728982,125.34933056761301,133.12070723849274,162.19679633177924,164.52448253126144,164.52448253126144,4.0,4.1,-240,-265,0,15,259,-274,350.21677827835083,350.21685814857483,350.220360994339,350.2312436103821,350.38177847862244,350.38177847862244,350.38177847862244,350.38177847862244,350.38177847862244,350.38177847862244,350.38177847862244,351.33589935302734,3,1.0992460250854492,None,,,,,,,,,,,,,,,,,,235,2,2025-03-12_11h28.17.226,comp,2024.2.4,57.68633232841142,2025-03-12 11h28.46.035272 -0400,
81,81,0,critical,hdw,35.0,2.1,lower,133.0,57.0,70.0,70.0,57.0,133.0,3,3.1859681606292725,None,,,,,0,0,0,0,0,81,81,44,351.35202717781067,,,,,,,,,,,,,,,,,,,,,,,,,,,,,,,,,,,,,,,,,,,,,,,,,,,,,,,,,,,,,,,,,,,,,,,,,,,,,,,,,133.0,57.0,70.0,70.0,57.0,133.0,2.1,2.12,-160,-256,0,-261,198,271,351.33762764930725,351.33776473999023,351.3413460254669,351.35202717781067,351.50417828559875,351.50417828559875,351.50417828559875,351.50417828559875,351.50417828559875,351.50417828559875,351.50417828559875,354.5542182922363,3,3.1859681606292725,None,,,,,,,,,,,,,,,,,,235,2,2025-03-12_11h28.17.226,comp,2024.2.4,57.68633232841142,2025-03-12 11h28.46.035272 -0400,
82,82,0,critical,hdw,20.0,1.0,lower,133.0,57.0,78.0,78.0,57.0,133.0,3,6.012548923492432,None,,,,,0,0,0,0,0,82,82,114,354.5733790397644,,,,,,,,,,,,,,,,,,,,,,,,,,,,,,,,,,,,,,,,,,,,,,,,,,,,,,,,,,,,,,,,,,,,,,,,,,,,,,,,,133.0,57.0,78.0,78.0,57.0,133.0,1.0,1.1,-644,267,-480,290,-278,253,354.555725812912,354.55580258369446,354.5587749481201,354.5733790397644,354.71553587913513,354.71553587913513,354.71553587913513,354.71553587913513,354.71553587913513,354.71553587913513,354.71553587913513,360.6018080711365,3,6.012548923492432,None,,,,,,,,,,,,,,,,,,235,2,2025-03-12_11h28.17.226,comp,2024.2.4,57.68633232841142,2025-03-12 11h28.46.035272 -0400,
83,83,0,critical,hdw,20.0,1.0,upper,200.0,125.0,141.0,141.0,125.0,200.0,1,2.2176411151885986,None,,,,,0,0,0,0,0,83,83,115,360.6162226200104,,,,,,,,,,,,,,,,,,,,,,,,,,,,,,,,,,,,,,,,,,,,,,,,,,,,,,,,,,,,,,,,,,,,,,,,,,,,,,,,,200.0,125.0,141.0,141.0,125.0,200.0,1.0,1.1,-709,276,-480,263,-214,267,360.6034848690033,360.60361433029175,360.60711789131165,360.6162226200104,360.76780796051025,360.76780796051025,360.76780796051025,360.76780796051025,360.76780796051025,360.76780796051025,360.76780796051025,362.851398229599,1,2.2176411151885986,None,,,,,,,,,,,,,,,,,,235,2,2025-03-12_11h28.17.226,comp,2024.2.4,57.68633232841142,2025-03-12 11h28.46.035272 -0400,
84,84,0,filler_square,None,None,None,None,None,None,None,None,None,None,1,3.711296796798706,None,,,,,0,0,0,0,0,84,84,194,362.8669307231903,,,,,,,,,,,,,,,,,,,,,,,,,,,,,,,,,,,,,,,,,,,,,,,,,,,,,,,,,,,,,,,,,,,,,,,,,,,,,,,,,79.11642939829534,79.11642939829534,64.71734730230112,76.0384929469841,68.85711852473393,64.93210761341383,1.0,1.1,-654,271,-480,263,-314,270,362.85306763648987,362.85316920280457,362.8564326763153,362.8669307231903,363.01352763175964,363.01352763175964,363.01352763175964,363.01352763175964,363.01352763175964,363.01352763175964,363.01352763175964,366.58125400543213,1,3.711296796798706,None,,,,,,,,,,,,,,,,,,235,2,2025-03-12_11h28.17.226,comp,2024.2.4,57.68633232841142,2025-03-12 11h28.46.035272 -0400,
85,85,0,critical,hdw,20.0,2.1,upper,200.0,125.0,141.0,141.0,125.0,200.0,3,1.8293757438659668,None,,,,,0,0,0,0,0,85,85,47,366.5973358154297,,,,,,,,,,,,,,,,,,,,,,,,,,,,,,,,,,,,,,,,,,,,,,,,,,,,,,,,,,,,,,,,,,,,,,,,,,,,,,,,,200.0,125.0,141.0,141.0,125.0,200.0,2.1,2.12,-229,-287,0,-262,266,259,366.5828580856323,366.5829653739929,366.5863070487976,366.5973358154297,366.7377381324768,366.7377381324768,366.7377381324768,366.7377381324768,366.7377381324768,366.7377381324768,366.7377381324768,368.4380078315735,3,1.8293757438659668,None,,,,,,,,,,,,,,,,,,235,2,2025-03-12_11h28.17.226,comp,2024.2.4,57.68633232841142,2025-03-12 11h28.46.035272 -0400,
86,86,0,critical,wdh,20.0,4.0,lower,57.0,133.0,78.0,78.0,133.0,57.0,3,4.81264591217041,None,,,,,0,0,0,0,0,86,86,82,368.4539918899536,,,,,,,,,,,,,,,,,,,,,,,,,,,,,,,,,,,,,,,,,,,,,,,,,,,,,,,,,,,,,,,,,,,,,,,,,,,,,,,,,57.0,133.0,78.0,78.0,133.0,57.0,4.0,4.2,-202,14,0,-279,164,-17,368.4396495819092,368.43972396850586,368.44330286979675,368.4539918899536,368.6016185283661,368.6016185283661,368.6016185283661,368.6016185283661,368.6016185283661,368.6016185283661,368.6016185283661,373.2746067047119,3,4.81264591217041,None,,,,,,,,,,,,,,,,,,235,2,2025-03-12_11h28.17.226,comp,2024.2.4,57.68633232841142,2025-03-12 11h28.46.035272 -0400,
87,87,0,critical,hdw,35.0,4.0,lower,133.0,57.0,70.0,70.0,57.0,133.0,3,3.4751572608947754,None,,,,,0,0,0,0,0,87,87,112,373.29539465904236,,,,,,,,,,,,,,,,,,,,,,,,,,,,,,,,,,,,,,,,,,,,,,,,,,,,,,,,,,,,,,,,,,,,,,,,,,,,,,,,,133.0,57.0,70.0,70.0,57.0,133.0,4.0,4.1,-160,-264,0,8,198,-258,373.2762813568115,373.27638387680054,373.2796838283539,373.29539465904236,373.4415762424469,373.4415762424469,373.4415762424469,373.4415762424469,373.4415762424469,373.4415762424469,373.4415762424469,376.77395462989807,3,3.4751572608947754,None,,,,,,,,,,,,,,,,,,235,2,2025-03-12_11h28.17.226,comp,2024.2.4,57.68633232841142,2025-03-12 11h28.46.035272 -0400,
88,88,0,filler_random,None,None,None,None,None,None,None,None,None,None,2,0.9640822410583496,None,,,,,0,0,0,0,0,88,88,157,376.7904496192932,,,,,,,,,,,,,,,,,,,,,,,,,,,,,,,,,,,,,,,,,,,,,,,,,,,,,,,,,,,,,,,,,,,,,,,,,,,,,,,,,192.563324890472,81.40450418450479,164.98069066214012,155.88029758106404,102.52566745847447,123.77232067720811,3.0,3.2,-215,-267,0,-10,236,251,376.7758996486664,376.77597880363464,376.779559135437,376.7904496192932,376.9434988498688,376.9434988498688,376.9434988498688,376.9434988498688,376.9434988498688,376.9434988498688,376.9434988498688,377.7588486671448,2,0.9640822410583496,None,,,,,,,,,,,,,,,,,,235,2,2025-03-12_11h28.17.226,comp,2024.2.4,57.68633232841142,2025-03-12 11h28.46.035272 -0400,
89,89,0,critical,hwd,35.0,2.1,upper,200.0,125.0,125.0,200.0,127.0,127.0,1,1.970167875289917,None,,,,,0,0,0,0,0,89,89,17,377.7756156921387,,,,,,,,,,,,,,,,,,,,,,,,,,,,,,,,,,,,,,,,,,,,,,,,,,,,,,,,,,,,,,,,,,,,,,,,,,,,,,,,,200.0,125.0,125.0,200.0,127.0,127.0,2.1,2.11,-258,282,0,263,260,-255,377.760618686676,377.7606990337372,377.7646417617798,377.7756156921387,377.9241874217987,377.9241874217987,377.9241874217987,377.9241874217987,377.9241874217987,377.9241874217987,377.9241874217987,379.75694608688354,1,1.970167875289917,None,,,,,,,,,,,,,,,,,,235,2,2025-03-12_11h28.17.226,comp,2024.2.4,57.68633232841142,2025-03-12 11h28.46.035272 -0400,
90,90,0,critical,hdw,20.0,4.0,upper,200.0,125.0,141.0,141.0,125.0,200.0,1,2.0282115936279297,None,,,,,0,0,0,0,0,90,90,119,379.7741184234619,,,,,,,,,,,,,,,,,,,,,,,,,,,,,,,,,,,,,,,,,,,,,,,,,,,,,,,,,,,,,,,,,,,,,,,,,,,,,,,,,200.0,125.0,141.0,141.0,125.0,200.0,4.0,4.1,-229,-287,0,-10,266,-261,379.7584490776062,379.75852370262146,379.76258277893066,379.7741184234619,379.9240016937256,379.9240016937256,379.9240016937256,379.9240016937256,379.9240016937256,379.9240016937256,379.9240016937256,381.80607438087463,1,2.0282115936279297,None,,,,,,,,,,,,,,,,,,235,2,2025-03-12_11h28.17.226,comp,2024.2.4,57.68633232841142,2025-03-12 11h28.46.035272 -0400,
91,91,0,critical,wdh,20.0,2.1,lower,57.0,133.0,78.0,78.0,133.0,57.0,1,2.829385995864868,None,,,,,0,0,0,0,0,91,91,34,381.82131457328796,,,,,,,,,,,,,,,,,,,,,,,,,,,,,,,,,,,,,,,,,,,,,,,,,,,,,,,,,,,,,,,,,,,,,,,,,,,,,,,,,57.0,133.0,78.0,78.0,133.0,57.0,2.1,2.11,-202,263,0,278,164,-285,381.8075566291809,381.8076364994049,381.8106002807617,381.82131457328796,381.9625053405762,381.9625053405762,381.9625053405762,381.9625053405762,381.9625053405762,381.9625053405762,381.9625053405762,384.66161608695984,1,2.829385995864868,None,,,,,,,,,,,,,,,,,,235,2,2025-03-12_11h28.17.226,comp,2024.2.4,57.68633232841142,2025-03-12 11h28.46.035272 -0400,
92,92,0,filler_square,None,None,None,None,None,None,None,None,None,None,2,8.129544973373413,None,,,,,0,0,0,0,0,92,92,201,384.6802215576172,,,,,,,,,,,,,,,,,,,,,,,,,,,,,,,,,,,,,,,,,,,,,,,,,,,,,,,,,,,,,,,,,,,,,,,,,,,,,,,,,57.898808651951285,58.805561962410046,60.910895437936965,60.910895437936965,60.11256507613298,58.24207898645019,4.0,4.1,-156,-262,0,2,156,-272,384.6635363101959,384.66361832618713,384.6666793823242,384.6802215576172,384.82529759407043,384.82529759407043,384.82529759407043,384.82529759407043,384.82529759407043,384.82529759407043,384.82529759407043,392.81385111808777,2,8.129544973373413,None,,,,,,,,,,,,,,,,,,235,2,2025-03-12_11h28.17.226,comp,2024.2.4,57.68633232841142,2025-03-12 11h28.46.035272 -0400,
93,93,0,critical,dhw,20.0,4.0,lower,78.0,78.0,133.0,57.0,57.0,133.0,3,4.460167646408081,None,,,,,0,0,0,0,0,93,93,58,392.83038568496704,,,,,,,,,,,,,,,,,,,,,,,,,,,,,,,,,,,,,,,,,,,,,,,,,,,,,,,,,,,,,,,,,,,,,,,,,,,,,,,,,78.0,78.0,133.0,57.0,57.0,133.0,4.0,4.1,-164,-251,0,15,191,-263,392.8156361579895,392.81571769714355,392.8196268081665,392.83038568496704,392.9778263568878,392.9778263568878,392.9778263568878,392.9778263568878,392.9778263568878,392.9778263568878,392.9778263568878,397.29590344429016,3,4.460167646408081,None,,,,,,,,,,,,,,,,,,235,2,2025-03-12_11h28.17.226,comp,2024.2.4,57.68633232841142,2025-03-12 11h28.46.035272 -0400,
94,94,0,filler_random,None,None,None,None,None,None,None,None,None,None,3,1.2348546981811523,None,,,,,0,0,0,0,0,94,94,144,397.31167364120483,,,,,,,,,,,,,,,,,,,,,,,,,,,,,,,,,,,,,,,,,,,,,,,,,,,,,,,,,,,,,,,,,,,,,,,,,,,,,,,,,71.0889472454668,97.70048401715172,138.49714342520446,97.21425035232937,153.0292061134666,121.95117025161181,2.2,2.21,-193,-252,0,270,206,285,397.2975986003876,397.2976746559143,397.3009400367737,397.31167364120483,397.46207308769226,397.46207308769226,397.46207308769226,397.46207308769226,397.46207308769226,397.46207308769226,397.46207308769226,398.5534870624542,3,1.2348546981811523,None,,,,,,,,,,,,,,,,,,235,2,2025-03-12_11h28.17.226,comp,2024.2.4,57.68633232841142,2025-03-12 11h28.46.035272 -0400,
95,95,0,filler_square,None,None,None,None,None,None,None,None,None,None,3,0.9052212238311768,None,,,,,0,0,0,0,0,95,95,188,398.5690665245056,,,,,,,,,,,,,,,,,,,,,,,,,,,,,,,,,,,,,,,,,,,,,,,,,,,,,,,,,,,,,,,,,,,,,,,,,,,,,,,,,91.96630394107856,118.62261699566969,115.83388900475113,68.42224837027362,145.00377349263286,145.00377349263286,4.0,4.2,-190,4,0,-275,203,-13,398.5552763938904,398.5553572177887,398.5583095550537,398.5690665245056,398.71224665641785,398.71224665641785,398.71224665641785,398.71224665641785,398.71224665641785,398.71224665641785,398.71224665641785,399.4788761138916,3,0.9052212238311768,None,,,,,,,,,,,,,,,,,,235,2,2025-03-12_11h28.17.226,comp,2024.2.4,57.68633232841142,2025-03-12 11h28.46.035272 -0400,
96,96,0,filler_square,None,None,None,None,None,None,None,None,None,None,2,0.9020311832427979,None,,,,,0,0,0,0,0,96,96,176,399.49987626075745,,,,,,,,,,,,,,,,,,,,,,,,,,,,,,,,,,,,,,,,,,,,,,,,,,,,,,,,,,,,,,,,,,,,,,,,,,,,,,,,,66.93797227813853,77.40403368820516,159.77280791614098,159.77280791614098,93.77682314204651,107.18075686605837,2.2,2.22,-215,267,0,-261,229,-267,399.4809694290161,399.4810483455658,399.4843010902405,399.49987626075745,399.6463408470154,399.6463408470154,399.6463408470154,399.6463408470154,399.6463408470154,399.6463408470154,399.6463408470154,400.41334342956543,2,0.9020311832427979,None,,,,,,,,,,,,,,,,,,235,2,2025-03-12_11h28.17.226,comp,2024.2.4,57.68633232841142,2025-03-12 11h28.46.035272 -0400,
97,97,0,critical,wdh,20.0,4.0,upper,125.0,200.0,141.0,141.0,200.0,125.0,1,2.116360664367676,None,,,,,0,0,0,0,0,97,97,83,400.42950534820557,,,,,,,,,,,,,,,,,,,,,,,,,,,,,,,,,,,,,,,,,,,,,,,,,,,,,,,,,,,,,,,,,,,,,,,,,,,,,,,,,125.0,200.0,141.0,141.0,200.0,125.0,4.0,4.2,-266,-4,0,-283,229,-1,400.414932012558,400.4150319099426,400.4186806678772,400.42950534820557,400.5819525718689,400.5819525718689,400.5819525718689,400.5819525718689,400.5819525718689,400.5819525718689,400.5819525718689,402.5546977519989,1,2.116360664367676,None,,,,,,,,,,,,,,,,,,235,2,2025-03-12_11h28.17.226,comp,2024.2.4,57.68633232841142,2025-03-12 11h28.46.035272 -0400,
98,98,0,filler_random,None,None,None,None,None,None,None,None,None,None,2,1.2228591442108154,None,,,,,0,0,0,0,0,98,98,169,402.57103061676025,,,,,,,,,,,,,,,,,,,,,,,,,,,,,,,,,,,,,,,,,,,,,,,,,,,,,,,,,,,,,,,,,,,,,,,,,,,,,,,,,70.34303581877919,126.39194147807166,190.05527384553784,122.59137788186968,146.05377803458003,87.63863231653886,1.0,1.1,-700,285,-480,282,-279,252,402.5565757751465,402.5566599369049,402.5599014759064,402.57103061676025,402.7150328159332,402.7150328159332,402.7150328159332,402.7150328159332,402.7150328159332,402.7150328159332,402.7150328159332,403.79884123802185,2,1.2228591442108154,None,,,,,,,,,,,,,,,,,,235,2,2025-03-12_11h28.17.226,comp,2024.2.4,57.68633232841142,2025-03-12 11h28.46.035272 -0400,
99,99,0,critical,whd,20.0,2.1,lower,57.0,133.0,133.0,57.0,78.0,78.0,2,2.123234272003174,None,,,,,0,0,0,0,0,99,99,38,403.8145728111267,,,,,,,,,,,,,,,,,,,,,,,,,,,,,,,,,,,,,,,,,,,,,,,,,,,,,,,,,,,,,,,,,,,,,,,,,,,,,,,,,57.0,133.0,133.0,57.0,78.0,78.0,2.1,2.11,-191,284,0,253,164,-268,403.8004913330078,403.80057287216187,403.80398321151733,403.8145728111267,403.96481704711914,403.96481704711914,403.96481704711914,403.96481704711914,403.96481704711914,403.96481704711914,403.96481704711914,405.9497423171997,2,2.123234272003174,None,,,,,,,,,,,,,,,,,,235,2,2025-03-12_11h28.17.226,comp,2024.2.4,57.68633232841142,2025-03-12 11h28.46.035272 -0400,
100,100,0,filler_square,None,None,None,None,None,None,None,None,None,None,3,1.7218284606933594,None,,,,,0,0,0,0,0,100,100,172,405.96802711486816,,,,,,,,,,,,,,,,,,,,,,,,,,,,,,,,,,,,,,,,,,,,,,,,,,,,,,,,,,,,,,,,,,,,,,,,,,,,,,,,,81.57679763676309,67.94040170252813,82.7600833671888,60.134402907449335,89.46599614703703,89.46599614703703,4.0,4.1,-160,-276,0,7,171,-259,405.95163345336914,405.9517171382904,405.95492911338806,405.96802711486816,406.1152844429016,406.1152844429016,406.1152844429016,406.1152844429016,406.1152844429016,406.1152844429016,406.1152844429016,407.7050437927246,3,1.7218284606933594,None,,,,,,,,,,,,,,,,,,235,2,2025-03-12_11h28.17.226,comp,2024.2.4,57.68633232841142,2025-03-12 11h28.46.035272 -0400,
101,101,0,critical,dhw,35.0,2.1,lower,70.0,70.0,133.0,57.0,57.0,133.0,3,1.8247387409210205,None,,,,,0,0,0,0,0,101,101,0,407.7212197780609,,,,,,,,,,,,,,,,,,,,,,,,,,,,,,,,,,,,,,,,,,,,,,,,,,,,,,,,,,,,,,,,,,,,,,,,,,,,,,,,,70.0,70.0,133.0,57.0,57.0,133.0,2.1,2.11,-160,271,0,261,191,-262,407.7066140174866,407.7066857814789,407.7099120616913,407.7212197780609,407.86553955078125,407.86553955078125,407.86553955078125,407.86553955078125,407.86553955078125,407.86553955078125,407.86553955078125,409.5525290966034,3,1.8247387409210205,None,,,,,,,,,,,,,,,,,,235,2,2025-03-12_11h28.17.226,comp,2024.2.4,57.68633232841142,2025-03-12 11h28.46.035272 -0400,
102,102,0,catch,None,None,None,None,None,None,None,None,None,None,1,0.998039722442627,None,,,,,0,0,0,0,0,102,102,126,409.5722134113312,,,,,,,,,,,,,,,,,,,,,,,,,,,,,,,,,,,,,,,,,,,,,,,,,,,,,,,,,,,,,,,,,,,,,,,,,,,,,,,,,156,169,97,93,74,116,2.2,2.21,-227,-274,0,259,200,289,409.5547502040863,409.5548348426819,409.5583734512329,409.5722134113312,409.7163259983063,409.7163259983063,409.7163259983063,409.7163259983063,409.7163259983063,409.7163259983063,409.7163259983063,410.5836396217346,1,0.998039722442627,None,,,,,,,,,,,,,,,,,,235,2,2025-03-12_11h28.17.226,comp,2024.2.4,57.68633232841142,2025-03-12 11h28.46.035272 -0400,
103,103,0,critical,hwd,20.0,2.1,lower,133.0,57.0,57.0,133.0,78.0,78.0,2,4.170149326324463,None,,,,,0,0,0,0,0,103,103,42,410.59979033470154,,,,,,,,,,,,,,,,,,,,,,,,,,,,,,,,,,,,,,,,,,,,,,,,,,,,,,,,,,,,,,,,,,,,,,,,,,,,,,,,,133.0,57.0,57.0,133.0,78.0,78.0,2.1,2.12,-191,-254,0,-288,202,275,410.585214138031,410.5852916240692,410.5893416404724,410.59979033470154,410.7562835216522,410.7562835216522,410.7562835216522,410.7562835216522,410.7562835216522,410.7562835216522,410.7562835216522,414.79250979423523,2,4.170149326324463,None,,,,,,,,,,,,,,,,,,235,2,2025-03-12_11h28.17.226,comp,2024.2.4,57.68633232841142,2025-03-12 11h28.46.035272 -0400,
104,104,0,critical,wdh,20.0,2.1,lower,57.0,133.0,78.0,78.0,133.0,57.0,3,2.4071953296661377,None,,,,,0,0,0,0,0,104,104,10,414.8107600212097,,,,,,,,,,,,,,,,,,,,,,,,,,,,,,,,,,,,,,,,,,,,,,,,,,,,,,,,,,,,,,,,,,,,,,,,,,,,,,,,,57.0,133.0,78.0,78.0,133.0,57.0,2.1,2.12,-202,-280,0,-264,164,264,414.79398465156555,414.79405641555786,414.79695415496826,414.8107600212097,414.9477035999298,414.9477035999298,414.9477035999298,414.9477035999298,414.9477035999298,414.9477035999298,414.9477035999298,417.2364411354065,3,2.4071953296661377,None,,,,,,,,,,,,,,,,,,235,2,2025-03-12_11h28.17.226,comp,2024.2.4,57.68633232841142,2025-03-12 11h28.46.035272 -0400,
105,105,0,filler_square,None,None,None,None,None,None,None,None,None,None,3,1.1904513835906982,None,,,,,0,0,0,0,0,105,105,205,417.2512586116791,,,,,,,,,,,,,,,,,,,,,,,,,,,,,,,,,,,,,,,,,,,,,,,,,,,,,,,,,,,,,,,,,,,,,,,,,,,,,,,,,112.13598385763491,62.79779614105843,101.23064932499358,98.87634899301194,126.45196491753342,126.45196491753342,2.1,2.12,-177,-251,0,-280,209,254,417.23856711387634,417.2387053966522,417.24181723594666,417.2512586116791,417.4028332233429,417.4028332233429,417.4028332233429,417.4028332233429,417.4028332233429,417.4028332233429,417.4028332233429,418.44373393058777,3,1.1904513835906982,None,,,,,,,,,,,,,,,,,,235,2,2025-03-12_11h28.17.226,comp,2024.2.4,57.68633232841142,2025-03-12 11h28.46.035272 -0400,
106,106,0,filler_square,None,None,None,None,None,None,None,None,None,None,2,1.45961594581604,None,,,,,0,0,0,0,0,106,106,189,418.4622480869293,,,,,,,,,,,,,,,,,,,,,,,,,,,,,,,,,,,,,,,,,,,,,,,,,,,,,,,,,,,,,,,,,,,,,,,,,,,,,,,,,162.85046508527347,159.9531972636554,184.13261279550625,184.13261279550625,138.1875930415734,78.55041299063569,1.0,1.1,-748,287,-480,260,-253,265,418.4457070827484,418.4457862377167,418.44909834861755,418.4622480869293,418.6029517650604,418.6029517650604,418.6029517650604,418.6029517650604,418.6029517650604,418.6029517650604,418.6029517650604,419.93562746047974,2,1.45961594581604,None,,,,,,,,,,,,,,,,,,235,2,2025-03-12_11h28.17.226,comp,2024.2.4,57.68633232841142,2025-03-12 11h28.46.035272 -0400,
107,107,0,critical,whd,20.0,2.1,upper,125.0,200.0,200.0,125.0,141.0,141.0,2,2.491696834564209,None,,,,,0,0,0,0,0,107,107,39,419.9512836933136,,,,,,,,,,,,,,,,,,,,,,,,,,,,,,,,,,,,,,,,,,,,,,,,,,,,,,,,,,,,,,,,,,,,,,,,,,,,,,,,,125.0,200.0,200.0,125.0,141.0,141.0,2.1,2.12,-258,-258,0,-289,229,253,419.9371147155762,419.937212228775,419.9403326511383,419.9512836933136,420.1076862812042,420.1076862812042,420.1076862812042,420.1076862812042,420.1076862812042,420.1076862812042,420.1076862812042,422.45452427864075,2,2.491696834564209,None,,,,,,,,,,,,,,,,,,235,2,2025-03-12_11h28.17.226,comp,2024.2.4,57.68633232841142,2025-03-12 11h28.46.035272 -0400,
108,108,0,filler_random,None,None,None,None,None,None,None,None,None,None,3,1.6837718486785889,None,,,,,0,0,0,0,0,108,108,168,422.470107793808,,,,,,,,,,,,,,,,,,,,,,,,,,,,,,,,,,,,,,,,,,,,,,,,,,,,,,,,,,,,,,,,,,,,,,,,,,,,,,,,,111.63355738762607,59.39451101281915,101.96782446678264,116.85399766394518,145.41696993567996,106.69917352735904,2.2,2.22,-184,278,0,-251,208,-281,422.4562318325043,422.4563114643097,422.45945143699646,422.470107793808,422.61990571022034,422.61990571022034,422.61990571022034,422.61990571022034,422.61990571022034,422.61990571022034,422.61990571022034,424.17134189605713,3,1.6837718486785889,None,,,,,,,,,,,,,,,,,,235,2,2025-03-12_11h28.17.226,comp,2024.2.4,57.68633232841142,2025-03-12 11h28.46.035272 -0400,
109,109,0,critical,dwh,20.0,1.0,upper,141.0,141.0,125.0,200.0,200.0,125.0,2,3.8149614334106445,None,,,,,0,0,0,0,0,109,109,67,424.187566280365,,,,,,,,,,,,,,,,,,,,,,,,,,,,,,,,,,,,,,,,,,,,,,,,,,,,,,,,,,,,,,,,,,,,,,,,,,,,,,,,,141.0,141.0,125.0,200.0,200.0,125.0,1.0,1.3,214,-277,480,-264,738,-252,424.17287588119507,424.1729531288147,424.17704033851624,424.187566280365,424.3282952308655,424.3282952308655,424.3282952308655,424.3282952308655,424.3282952308655,424.3282952308655,424.3282952308655,428.00558948516846,2,3.8149614334106445,None,,,,,,,,,,,,,,,,,,235,2,2025-03-12_11h28.17.226,comp,2024.2.4,57.68633232841142,2025-03-12 11h28.46.035272 -0400,
110,110,0,filler_random,None,None,None,None,None,None,None,None,None,None,1,1.2041893005371094,None,,,,,0,0,0,0,0,110,110,137,428.0216634273529,,,,,,,,,,,,,,,,,,,,,,,,,,,,,,,,,,,,,,,,,,,,,,,,,,,,,,,,,,,,,,,,,,,,,,,,,,,,,,,,,165.17406674664943,187.5832807646135,101.21673675976433,96.40153701840532,83.6096560970991,94.0894616136187,1.0,1.1,-718,290,-480,266,-289,264,428.0074179172516,428.00752687454224,428.010865688324,428.0216634273529,428.17260241508484,428.17260241508484,428.17260241508484,428.17260241508484,428.17260241508484,428.17260241508484,428.17260241508484,429.24633836746216,1,1.2041893005371094,None,,,,,,,,,,,,,,,,,,235,2,2025-03-12_11h28.17.226,comp,2024.2.4,57.68633232841142,2025-03-12 11h28.46.035272 -0400,
111,111,0,critical,wdh,35.0,2.1,upper,125.0,200.0,127.0,127.0,200.0,125.0,1,1.5695648193359375,None,,,,,0,0,0,0,0,111,111,33,429.2643132209778,,,,,,,,,,,,,,,,,,,,,,,,,,,,,,,,,,,,,,,,,,,,,,,,,,,,,,,,,,,,,,,,,,,,,,,,,,,,,,,,,125.0,200.0,127.0,127.0,200.0,125.0,2.1,2.11,-260,263,0,259,222,-268,429.2478756904602,429.2479507923126,429.25088477134705,429.2643132209778,429.4110472202301,429.4110472202301,429.4110472202301,429.4110472202301,429.4110472202301,429.4110472202301,429.4110472202301,430.84381318092346,1,1.5695648193359375,None,,,,,,,,,,,,,,,,,,235,2,2025-03-12_11h28.17.226,comp,2024.2.4,57.68633232841142,2025-03-12 11h28.46.035272 -0400,
112,112,0,critical,wdh,35.0,2.1,lower,57.0,133.0,70.0,70.0,133.0,57.0,1,5.510319471359253,None,,,,,0,0,0,0,0,112,112,8,430.8596775531769,,,,,,,,,,,,,,,,,,,,,,,,,,,,,,,,,,,,,,,,,,,,,,,,,,,,,,,,,,,,,,,,,,,,,,,,,,,,,,,,,57.0,133.0,70.0,70.0,133.0,57.0,2.1,2.12,-198,-284,0,-283,160,265,430.8455286026001,430.8456082344055,430.8488836288452,430.8596775531769,431.00570034980774,431.00570034980774,431.00570034980774,431.00570034980774,431.00570034980774,431.00570034980774,431.00570034980774,436.37510871887207,1,5.510319471359253,None,,,,,,,,,,,,,,,,,,235,2,2025-03-12_11h28.17.226,comp,2024.2.4,57.68633232841142,2025-03-12 11h28.46.035272 -0400,
113,113,0,filler_random,None,None,None,None,None,None,None,None,None,None,2,5.871264696121216,None,,,,,0,0,0,0,0,113,113,159,436.39448165893555,,,,,,,,,,,,,,,,,,,,,,,,,,,,,,,,,,,,,,,,,,,,,,,,,,,,,,,,,,,,,,,,,,,,,,,,,,,,,,,,,182.510429908273,148.35740901884097,159.51476213095668,160.0479412501502,103.94251430349166,175.66049518427286,2.2,2.22,-250,260,0,-282,264,-261,436.37680554389954,436.37688088417053,436.3799817562103,436.39448165893555,436.5423216819763,436.5423216819763,436.5423216819763,436.5423216819763,436.5423216819763,436.5423216819763,436.5423216819763,442.27927017211914,2,5.871264696121216,None,,,,,,,,,,,,,,,,,,235,2,2025-03-12_11h28.17.226,comp,2024.2.4,57.68633232841142,2025-03-12 11h28.46.035272 -0400,
114,114,0,critical,wdh,35.0,4.0,upper,125.0,200.0,127.0,127.0,200.0,125.0,3,6.0648393630981445,None,,,,,0,0,0,0,0,114,114,77,442.29717898368835,,,,,,,,,,,,,,,,,,,,,,,,,,,,,,,,,,,,,,,,,,,,,,,,,,,,,,,,,,,,,,,,,,,,,,,,,,,,,,,,,125.0,200.0,127.0,127.0,200.0,125.0,4.0,4.2,-260,4,0,-280,222,-11,442.28086590766907,442.2809476852417,442.28409004211426,442.29717898368835,442.4428129196167,442.4428129196167,442.4428129196167,442.4428129196167,442.4428129196167,442.4428129196167,442.4428129196167,448.36860156059265,3,6.0648393630981445,None,,,,,,,,,,,,,,,,,,235,2,2025-03-12_11h28.17.226,comp,2024.2.4,57.68633232841142,2025-03-12 11h28.46.035272 -0400,
115,115,0,critical,whd,20.0,2.1,lower,57.0,133.0,133.0,57.0,78.0,78.0,2,15.685190439224243,None,,,,,0,0,0,0,0,115,115,14,448.38944816589355,,,,,,,,,,,,,,,,,,,,,,,,,,,,,,,,,,,,,,,,,,,,,,,,,,,,,,,,,,,,,,,,,,,,,,,,,,,,,,,,,57.0,133.0,133.0,57.0,78.0,78.0,2.1,2.12,-191,-282,0,-273,164,262,448.37026739120483,448.370352268219,448.3737106323242,448.38944816589355,448.5289897918701,448.5289897918701,448.5289897918701,448.5289897918701,448.5289897918701,448.5289897918701,448.5289897918701,464.08402132987976,2,15.685190439224243,None,,,,,,,,,,,,,,,,,,235,2,2025-03-12_11h28.17.226,comp,2024.2.4,57.68633232841142,2025-03-12 11h28.46.035272 -0400,
116,116,0,critical,dwh,35.0,3.0,lower,70.0,70.0,57.0,133.0,133.0,57.0,3,1.35829496383667,None,,,,,0,0,0,0,0,116,116,62,464.09954953193665,,,,,,,,,,,,,,,,,,,,,,,,,,,,,,,,,,,,,,,,,,,,,,,,,,,,,,,,,,,,,,,,,,,,,,,,,,,,,,,,,70.0,70.0,57.0,133.0,133.0,57.0,3.0,3.1,-198,260,0,-17,191,-266,464.08550906181335,464.085586309433,464.088858127594,464.09954953193665,464.24882912635803,464.24882912635803,464.24882912635803,464.24882912635803,464.24882912635803,464.24882912635803,464.24882912635803,465.469854593277,3,1.35829496383667,None,,,,,,,,,,,,,,,,,,235,2,2025-03-12_11h28.17.226,comp,2024.2.4,57.68633232841142,2025-03-12 11h28.46.035272 -0400,
117,117,0,critical,dhw,20.0,2.1,upper,141.0,141.0,200.0,125.0,125.0,200.0,3,2.3701443672180176,None,,,,,0,0,0,0,0,117,117,27,465.4881122112274,,,,,,,,,,,,,,,,,,,,,,,,,,,,,,,,,,,,,,,,,,,,,,,,,,,,,,,,,,,,,,,,,,,,,,,,,,,,,,,,,141.0,141.0,200.0,125.0,125.0,200.0,2.1,2.11,-229,264,0,270,258,-288,465.4716126918793,465.4716968536377,465.47476410865784,465.4881122112274,465.63383293151855,465.63383293151855,465.63383293151855,465.63383293151855,465.63383293151855,465.63383293151855,465.63383293151855,467.8680694103241,3,2.3701443672180176,None,,,,,,,,,,,,,,,,,,235,2,2025-03-12_11h28.17.226,comp,2024.2.4,57.68633232841142,2025-03-12 11h28.46.035272 -0400,
118,118,0,critical,whd,35.0,2.1,lower,57.0,133.0,133.0,57.0,70.0,70.0,1,4.282506465911865,None,,,,,0,0,0,0,0,118,118,36,467.8881950378418,,,,,,,,,,,,,,,,,,,,,,,,,,,,,,,,,,,,,,,,,,,,,,,,,,,,,,,,,,,,,,,,,,,,,,,,,,,,,,,,,57.0,133.0,133.0,57.0,70.0,70.0,2.1,2.11,-191,264,0,285,160,-253,467.8696594238281,467.869735956192,467.8731269836426,467.8881950378418,468.0345895290375,468.0345895290375,468.0345895290375,468.0345895290375,468.0345895290375,468.0345895290375,468.0345895290375,472.1776568889618,1,4.282506465911865,None,,,,,,,,,,,,,,,,,,235,2,2025-03-12_11h28.17.226,comp,2024.2.4,57.68633232841142,2025-03-12 11h28.46.035272 -0400,
119,119,0,critical,dwh,35.0,2.1,lower,70.0,70.0,57.0,133.0,133.0,57.0,3,1.7438530921936035,None,,,,,0,0,0,0,0,119,119,4,472.19390320777893,,,,,,,,,,,,,,,,,,,,,,,,,,,,,,,,,,,,,,,,,,,,,,,,,,,,,,,,,,,,,,,,,,,,,,,,,,,,,,,,,70.0,70.0,57.0,133.0,133.0,57.0,2.1,2.11,-198,252,0,255,191,-289,472.17918157577515,472.179260969162,472.18220591545105,472.19390320777893,472.3368148803711,472.3368148803711,472.3368148803711,472.3368148803711,472.3368148803711,472.3368148803711,472.3368148803711,473.9539179801941,3,1.7438530921936035,None,,,,,,,,,,,,,,,,,,235,2,2025-03-12_11h28.17.226,comp,2024.2.4,57.68633232841142,2025-03-12 11h28.46.035272 -0400,
120,120,0,critical,whd,35.0,2.1,upper,125.0,200.0,200.0,125.0,127.0,127.0,2,1.9038939476013184,None,,,,,0,0,0,0,0,120,120,13,473.9699113368988,,,,,,,,,,,,,,,,,,,,,,,,,,,,,,,,,,,,,,,,,,,,,,,,,,,,,,,,,,,,,,,,,,,,,,,,,,,,,,,,,125.0,200.0,200.0,125.0,127.0,127.0,2.1,2.12,-258,-255,0,-285,222,259,473.95553755760193,473.95564436912537,473.9593138694763,473.9699113368988,474.12021112442017,474.12021112442017,474.12021112442017,474.12021112442017,474.12021112442017,474.12021112442017,474.12021112442017,475.8881368637085,2,1.9038939476013184,None,,,,,,,,,,,,,,,,,,235,2,2025-03-12_11h28.17.226,comp,2024.2.4,57.68633232841142,2025-03-12 11h28.46.035272 -0400,
121,121,0,critical,dhw,20.0,4.0,upper,141.0,141.0,200.0,125.0,125.0,200.0,3,1.8677864074707031,None,,,,,0,0,0,0,0,121,121,59,475.9021887779236,,,,,,,,,,,,,,,,,,,,,,,,,,,,,,,,,,,,,,,,,,,,,,,,,,,,,,,,,,,,,,,,,,,,,,,,,,,,,,,,,141.0,141.0,200.0,125.0,125.0,200.0,4.0,4.2,-229,20,0,-287,258,-2,475.8898255825043,475.8899419307709,475.8932046890259,475.9021887779236,476.0619978904724,476.0619978904724,476.0619978904724,476.0619978904724,476.0619978904724,476.0619978904724,476.0619978904724,477.78772830963135,3,1.8677864074707031,None,,,,,,,,,,,,,,,,,,235,2,2025-03-12_11h28.17.226,comp,2024.2.4,57.68633232841142,2025-03-12 11h28.46.035272 -0400,
122,122,0,critical,whd,35.0,1.0,upper,125.0,200.0,200.0,125.0,127.0,127.0,1,1.2771117687225342,None,,,,,0,0,0,0,0,122,122,85,477.8053207397461,,,,,,,,,,,,,,,,,,,,,,,,,,,,,,,,,,,,,,,,,,,,,,,,,,,,,,,,,,,,,,,,,,,,,,,,,,,,,,,,,125.0,200.0,200.0,125.0,127.0,127.0,1.0,1.1,-738,254,-480,268,-258,264,477.7893216609955,477.7894093990326,477.79273557662964,477.8053207397461,477.95527267456055,477.95527267456055,477.95527267456055,477.95527267456055,477.95527267456055,477.95527267456055,477.95527267456055,479.08867287635803,1,1.2771117687225342,None,,,,,,,,,,,,,,,,,,235,2,2025-03-12_11h28.17.226,comp,2024.2.4,57.68633232841142,2025-03-12 11h28.46.035272 -0400,
123,123,0,critical,hdw,35.0,1.0,upper,200.0,125.0,127.0,127.0,125.0,200.0,3,1.0444087982177734,None,,,,,0,0,0,0,0,123,123,109,479.1094832420349,,,,,,,,,,,,,,,,,,,,,,,,,,,,,,,,,,,,,,,,,,,,,,,,,,,,,,,,,,,,,,,,,,,,,,,,,,,,,,,,,200.0,125.0,127.0,127.0,125.0,200.0,1.0,1.1,-702,266,-480,277,-220,268,479.09021615982056,479.0902931690216,479.0935266017914,479.1094832420349,479.2582926750183,479.2582926750183,479.2582926750183,479.2582926750183,479.2582926750183,479.2582926750183,479.2582926750183,480.17145800590515,3,1.0444087982177734,None,,,,,,,,,,,,,,,,,,235,2,2025-03-12_11h28.17.226,comp,2024.2.4,57.68633232841142,2025-03-12 11h28.46.035272 -0400,
124,124,0,critical,hwd,20.0,3.0,lower,133.0,57.0,57.0,133.0,78.0,78.0,2,3.1821374893188477,None,,,,,0,0,0,0,0,124,124,104,480.18765926361084,,,,,,,,,,,,,,,,,,,,,,,,,,,,,,,,,,,,,,,,,,,,,,,,,,,,,,,,,,,,,,,,,,,,,,,,,,,,,,,,,133.0,57.0,57.0,133.0,78.0,78.0,3.0,3.2,-191,-275,0,-6,202,263,480.1730227470398,480.1730959415436,480.1763973236084,480.18765926361084,480.34208369255066,480.34208369255066,480.34208369255066,480.34208369255066,480.34208369255066,480.34208369255066,480.34208369255066,483.3727340698242,2,3.1821374893188477,None,,,,,,,,,,,,,,,,,,235,2,2025-03-12_11h28.17.226,comp,2024.2.4,57.68633232841142,2025-03-12 11h28.46.035272 -0400,
125,125,0,critical,hwd,35.0,4.0,upper,200.0,125.0,125.0,200.0,127.0,127.0,1,2.0133495330810547,None,,,,,0,0,0,0,0,125,125,101,483.3888030052185,,,,,,,,,,,,,,,,,,,,,,,,,,,,,,,,,,,,,,,,,,,,,,,,,,,,,,,,,,,,,,,,,,,,,,,,,,,,,,,,,200.0,125.0,125.0,200.0,127.0,127.0,4.0,4.1,-258,-280,0,-11,260,-254,483.3744034767151,483.3744819164276,483.37796568870544,483.3888030052185,483.5399203300476,483.5399203300476,483.5399203300476,483.5399203300476,483.5399203300476,483.5399203300476,483.5399203300476,485.40943026542664,1,2.0133495330810547,None,,,,,,,,,,,,,,,,,,235,2,2025-03-12_11h28.17.226,comp,2024.2.4,57.68633232841142,2025-03-12 11h28.46.035272 -0400,
126,126,0,filler_square,None,None,None,None,None,None,None,None,None,None,1,1.7367126941680908,None,,,,,0,0,0,0,0,126,126,186,485.42606925964355,,,,,,,,,,,,,,,,,,,,,,,,,,,,,,,,,,,,,,,,,,,,,,,,,,,,,,,,,,,,,,,,,,,,,,,,,,,,,,,,,167.52030935296682,167.52030935296682,72.6283251806761,110.46713298046332,153.05342519323082,156.3546393958086,2.2,2.22,-235,259,0,-256,229,-269,485.41156005859375,485.4116384983063,485.41530990600586,485.42606925964355,485.5712180137634,485.5712180137634,485.5712180137634,485.5712180137634,485.5712180137634,485.5712180137634,485.5712180137634,487.1746599674225,1,1.7367126941680908,None,,,,,,,,,,,,,,,,,,235,2,2025-03-12_11h28.17.226,comp,2024.2.4,57.68633232841142,2025-03-12 11h28.46.035272 -0400,
127,127,0,critical,wdh,35.0,4.0,lower,57.0,133.0,70.0,70.0,133.0,57.0,3,1.5704536437988281,None,,,,,0,0,0,0,0,127,127,76,487.19120144844055,,,,,,,,,,,,,,,,,,,,,,,,,,,,,,,,,,,,,,,,,,,,,,,,,,,,,,,,,,,,,,,,,,,,,,,,,,,,,,,,,57.0,133.0,70.0,70.0,133.0,57.0,4.0,4.2,-198,6,0,-275,160,-13,487.17621779441833,487.17629766464233,487.18047738075256,487.19120144844055,487.3431134223938,487.3431134223938,487.3431134223938,487.3431134223938,487.3431134223938,487.3431134223938,487.3431134223938,488.77252316474915,3,1.5704536437988281,None,,,,,,,,,,,,,,,,,,235,2,2025-03-12_11h28.17.226,comp,2024.2.4,57.68633232841142,2025-03-12 11h28.46.035272 -0400,
128,128,0,filler_random,None,None,None,None,None,None,None,None,None,None,3,1.100337028503418,None,,,,,0,0,0,0,0,128,128,154,488.7896661758423,,,,,,,,,,,,,,,,,,,,,,,,,,,,,,,,,,,,,,,,,,,,,,,,,,,,,,,,,,,,,,,,,,,,,,,,,,,,,,,,,94.27596781548138,151.4634861953473,106.45836028710056,78.25077128906919,188.22814704816548,151.80885950987872,4.0,4.2,-211,13,0,-266,211,-19,488.77451848983765,488.7745997905731,488.7778205871582,488.7896661758423,488.92883038520813,488.92883038520813,488.92883038520813,488.92883038520813,488.92883038520813,488.92883038520813,488.92883038520813,489.8947682380676,3,1.100337028503418,None,,,,,,,,,,,,,,,,,,235,2,2025-03-12_11h28.17.226,comp,2024.2.4,57.68633232841142,2025-03-12 11h28.46.035272 -0400,
129,129,0,critical,dwh,35.0,2.1,lower,70.0,70.0,57.0,133.0,133.0,57.0,2,1.6094768047332764,None,,,,,0,0,0,0,0,129,129,28,489.91239976882935,,,,,,,,,,,,,,,,,,,,,,,,,,,,,,,,,,,,,,,,,,,,,,,,,,,,,,,,,,,,,,,,,,,,,,,,,,,,,,,,,70.0,70.0,57.0,133.0,133.0,57.0,2.1,2.11,-198,284,0,267,191,-264,489.896368265152,489.8964455127716,489.89940428733826,489.91239976882935,490.05829668045044,490.05829668045044,490.05829668045044,490.05829668045044,490.05829668045044,490.05829668045044,490.05829668045044,491.53232192993164,2,1.6094768047332764,None,,,,,,,,,,,,,,,,,,235,2,2025-03-12_11h28.17.226,comp,2024.2.4,57.68633232841142,2025-03-12 11h28.46.035272 -0400,
130,130,0,critical,dhw,35.0,2.1,upper,127.0,127.0,200.0,125.0,125.0,200.0,3,4.503096580505371,None,,,,,0,0,0,0,0,130,130,1,491.54762625694275,,,,,,,,,,,,,,,,,,,,,,,,,,,,,,,,,,,,,,,,,,,,,,,,,,,,,,,,,,,,,,,,,,,,,,,,,,,,,,,,,127.0,127.0,200.0,125.0,125.0,200.0,2.1,2.11,-222,257,0,286,258,-270,491.5338342189789,491.53390979766846,491.53684186935425,491.54762625694275,491.69139862060547,491.69139862060547,491.69139862060547,491.69139862060547,491.69139862060547,491.69139862060547,491.69139862060547,496.06152534484863,3,4.503096580505371,None,,,,,,,,,,,,,,,,,,235,2,2025-03-12_11h28.17.226,comp,2024.2.4,57.68633232841142,2025-03-12 11h28.46.035272 -0400,
131,131,0,filler_square,None,None,None,None,None,None,None,None,None,None,2,1.1564610004425049,None,,,,,0,0,0,0,0,131,131,179,496.077267408371,,,,,,,,,,,,,,,,,,,,,,,,,,,,,,,,,,,,,,,,,,,,,,,,,,,,,,,,,,,,,,,,,,,,,,,,,,,,,,,,,61.72888383103132,77.6129707500174,114.29118372749949,114.29118372749949,90.09808966729253,97.8234785139998,1.0,1.2,-192,-11,0,15,202,-2,496.063374042511,496.0634524822235,496.06653237342834,496.077267408371,496.21524000167847,496.21524000167847,496.21524000167847,496.21524000167847,496.21524000167847,496.21524000167847,496.21524000167847,497.2485148906708,2,1.1564610004425049,None,,,,,,,,,,,,,,,,,,235,2,2025-03-12_11h28.17.226,comp,2024.2.4,57.68633232841142,2025-03-12 11h28.46.035272 -0400,
132,132,0,critical,wdh,35.0,2.1,upper,125.0,200.0,127.0,127.0,200.0,125.0,1,1.723825454711914,None,,,,,0,0,0,0,0,132,132,9,497.2640278339386,,,,,,,,,,,,,,,,,,,,,,,,,,,,,,,,,,,,,,,,,,,,,,,,,,,,,,,,,,,,,,,,,,,,,,,,,,,,,,,,,125.0,200.0,127.0,127.0,200.0,125.0,2.1,2.12,-260,-285,0,-261,222,263,497.25000405311584,497.25007677078247,497.25293612480164,497.2640278339386,497.41068482398987,497.41068482398987,497.41068482398987,497.41068482398987,497.41068482398987,497.41068482398987,497.41068482398987,498.99609780311584,1,1.723825454711914,None,,,,,,,,,,,,,,,,,,235,2,2025-03-12_11h28.17.226,comp,2024.2.4,57.68633232841142,2025-03-12 11h28.46.035272 -0400,
133,133,0,critical,hdw,20.0,3.0,upper,200.0,125.0,141.0,141.0,125.0,200.0,3,4.963751792907715,None,,,,,0,0,0,0,0,133,133,117,499.01398253440857,,,,,,,,,,,,,,,,,,,,,,,,,,,,,,,,,,,,,,,,,,,,,,,,,,,,,,,,,,,,,,,,,,,,,,,,,,,,,,,,,200.0,125.0,141.0,141.0,125.0,200.0,3.0,3.1,-229,267,0,-7,266,-271,498.9977180957794,498.9977984428406,499.0007300376892,499.01398253440857,499.1603844165802,499.1603844165802,499.1603844165802,499.1603844165802,499.1603844165802,499.1603844165802,499.1603844165802,503.9797594547272,3,4.963751792907715,None,,,,,,,,,,,,,,,,,,235,2,2025-03-12_11h28.17.226,comp,2024.2.4,57.68633232841142,2025-03-12 11h28.46.035272 -0400,
134,134,0,filler_random,None,None,None,None,None,None,None,None,None,None,3,1.4369690418243408,None,,,,,0,0,0,0,0,134,134,152,503.9966998100281,,,,,,,,,,,,,,,,,,,,,,,,,,,,,,,,,,,,,,,,,,,,,,,,,,,,,,,,,,,,,,,,,,,,,,,,,,,,,,,,,97.96658312195812,169.30338549992922,106.44509395031623,112.74321899070122,140.61464704230508,181.76629498742435,2.1,2.12,-237,-253,0,-250,243,289,503.981609582901,503.98174571990967,503.98580718040466,503.9966998100281,504.1436216831207,504.1436216831207,504.1436216831207,504.1436216831207,504.1436216831207,504.1436216831207,504.1436216831207,505.44833040237427,3,1.4369690418243408,None,,,,,,,,,,,,,,,,,,235,2,2025-03-12_11h28.17.226,comp,2024.2.4,57.68633232841142,2025-03-12 11h28.46.035272 -0400,
135,135,0,catch,None,None,None,None,None,None,None,None,None,None,2,0.876093864440918,None,,,,,0,0,0,0,0,135,135,123,505.4642674922943,,,,,,,,,,,,,,,,,,,,,,,,,,,,,,,,,,,,,,,,,,,,,,,,,,,,,,,,,,,,,,,,,,,,,,,,,,,,,,,,,67,123,139,186,64,126,3.0,3.1,-250,281,0,-15,252,-290,505.450448513031,505.4505259990692,505.4539592266083,505.4642674922943,505.61401891708374,505.61401891708374,505.61401891708374,505.61401891708374,505.61401891708374,505.61401891708374,505.61401891708374,506.3490159511566,2,0.876093864440918,None,,,,,,,,,,,,,,,,,,235,2,2025-03-12_11h28.17.226,comp,2024.2.4,57.68633232841142,2025-03-12 11h28.46.035272 -0400,
136,136,0,critical,dhw,20.0,2.1,lower,78.0,78.0,133.0,57.0,57.0,133.0,3,2.46390438079834,None,,,,,0,0,0,0,0,136,136,2,506.36984300613403,,,,,,,,,,,,,,,,,,,,,,,,,,,,,,,,,,,,,,,,,,,,,,,,,,,,,,,,,,,,,,,,,,,,,,,,,,,,,,,,,78.0,78.0,133.0,57.0,57.0,133.0,2.1,2.12,-164,-258,0,-281,191,273,506.35079622268677,506.35092544555664,506.3542251586914,506.36984300613403,506.51293778419495,506.51293778419495,506.51293778419495,506.51293778419495,506.51293778419495,506.51293778419495,506.51293778419495,508.84500455856323,3,2.46390438079834,None,,,,,,,,,,,,,,,,,,235,2,2025-03-12_11h28.17.226,comp,2024.2.4,57.68633232841142,2025-03-12 11h28.46.035272 -0400,
137,137,0,filler_square,None,None,None,None,None,None,None,None,None,None,1,0.8367643356323242,None,,,,,0,0,0,0,0,137,137,174,508.8611180782318,,,,,,,,,,,,,,,,,,,,,,,,,,,,,,,,,,,,,,,,,,,,,,,,,,,,,,,,,,,,,,,,,,,,,,,,,,,,,,,,,175.74981439249177,175.74981439249177,161.44042306782563,130.36416071716155,162.81735770374286,101.45625639648233,2.1,2.11,-249,260,0,284,212,-261,508.8469853401184,508.8470606803894,508.85039043426514,508.8611180782318,509.016969203949,509.016969203949,509.016969203949,509.016969203949,509.016969203949,509.016969203949,509.016969203949,509.7032437324524,1,0.8367643356323242,None,,,,,,,,,,,,,,,,,,235,2,2025-03-12_11h28.17.226,comp,2024.2.4,57.68633232841142,2025-03-12 11h28.46.035272 -0400,
138,138,0,critical,dwh,20.0,2.1,upper,141.0,141.0,125.0,200.0,200.0,125.0,2,2.0387401580810547,None,,,,,0,0,0,0,0,138,138,7,509.7237639427185,,,,,,,,,,,,,,,,,,,,,,,,,,,,,,,,,,,,,,,,,,,,,,,,,,,,,,,,,,,,,,,,,,,,,,,,,,,,,,,,,141.0,141.0,125.0,200.0,200.0,125.0,2.1,2.12,-266,-260,0,-268,258,253,509.7048466205597,509.7049252986908,509.7082931995392,509.7237639427185,509.86583733558655,509.86583733558655,509.86583733558655,509.86583733558655,509.86583733558655,509.86583733558655,509.86583733558655,511.7709059715271,2,2.0387401580810547,None,,,,,,,,,,,,,,,,,,235,2,2025-03-12_11h28.17.226,comp,2024.2.4,57.68633232841142,2025-03-12 11h28.46.035272 -0400,
139,139,0,filler_square,None,None,None,None,None,None,None,None,None,None,2,2.7580418586730957,None,,,,,0,0,0,0,0,139,139,203,511.7885522842407,,,,,,,,,,,,,,,,,,,,,,,,,,,,,,,,,,,,,,,,,,,,,,,,,,,,,,,,,,,,,,,,,,,,,,,,,,,,,,,,,66.6130221970876,95.03132109127117,118.53158811431437,118.53158811431437,114.23302548708631,92.39900994092716,4.0,4.2,-203,-5,0,-276,201,13,511.7726809978485,511.7727587223053,511.7756824493408,511.7885522842407,511.93108654022217,511.93108654022217,511.93108654022217,511.93108654022217,511.93108654022217,511.93108654022217,511.93108654022217,514.5515341758728,2,2.7580418586730957,None,,,,,,,,,,,,,,,,,,235,2,2025-03-12_11h28.17.226,comp,2024.2.4,57.68633232841142,2025-03-12 11h28.46.035272 -0400,
140,140,0,critical,hwd,20.0,4.0,upper,200.0,125.0,125.0,200.0,141.0,141.0,1,2.1139047145843506,None,,,,,0,0,0,0,0,140,140,107,514.5684914588928,,,,,,,,,,,,,,,,,,,,,,,,,,,,,,,,,,,,,,,,,,,,,,,,,,,,,,,,,,,,,,,,,,,,,,,,,,,,,,,,,200.0,125.0,125.0,200.0,141.0,141.0,4.0,4.1,-258,-254,0,16,266,-263,514.5532312393188,514.5533080101013,514.5572307109833,514.5684914588928,514.71470952034,514.71470952034,514.71470952034,514.71470952034,514.71470952034,514.71470952034,514.71470952034,516.6900382041931,1,2.1139047145843506,None,,,,,,,,,,,,,,,,,,235,2,2025-03-12_11h28.17.226,comp,2024.2.4,57.68633232841142,2025-03-12 11h28.46.035272 -0400,
