thisN,thisTrialN,thisRepN,effect,order,distance,config,diag,h_1,w_1,h_2,w_2,h_3,w_3,rect_choice.keys,rect_choice.rt,rect_choice.duration,instructions_loop.thisRepN,instructions_loop.thisTrialN,instructions_loop.thisN,instructions_loop.thisIndex,blocks.thisRepN,blocks.thisTrialN,blocks.thisN,blocks.thisIndex,trials.thisRepN,trials.thisTrialN,trials.thisN,trials.thisIndex,thisRow.t,notes,consent.started,agree_button.started,decline_button.started,consent_img.started,mouse.started,consent.stopped,agree_button.numClicks,agree_button.timesOn,agree_button.timesOff,decline_button.numClicks,decline_button.timesOn,decline_button.timesOff,mouse.x,mouse.y,mouse.leftButton,mouse.midButton,mouse.rightButton,mouse.time,mouse.clicked_name,exp_params.started,exp_params.stopped,welcome.started,welcome_text.started,welcome.stopped,instructions_1.started,instructions_1_text_1.started,instructions_1_text_2.started,key_resp.started,instructions_1.stopped,instructions_loop.key_resp.keys,instructions_loop.key_resp.rt,instructions_loop.key_resp.duration,instructions_2.started,instructions_2_text_1.started,instructions_2_text_2.started,key_resp_2.started,instructions_2.stopped,instructions_loop.key_resp_2.keys,instructions_loop.key_resp_2.rt,instructions_loop.key_resp_2.duration,instructions_3.started,instructions_3_text_1.started,r1_instr3.started,r2_instr3.started,r3_instr3.started,r1_instr3_label.started,r2_instr3_label.started,r3_instr3_label.started,instructions_3_text_3.started,instructions_3_text_4.started,key_resp_3.started,instructions_3.stopped,instructions_loop.key_resp_3.keys,instructions_loop.key_resp_3.rt,instructions_loop.key_resp_3.duration,instructions_4.started,instructions_4_text_1.started,instructions_4_text_3.started,instructions_4_text_2.started,key_resp_4.started,instructions_4.stopped,instructions_loop.key_resp_4.keys,instructions_loop.key_resp_4.rt,instructions_loop.key_resp_4.duration,instructions_5.started,instructions_5_text_1.started,instructions_5_text_2.started,key_resp_5.started,instructions_5.stopped,instructions_loop.key_resp_5.keys,instructions_loop.key_resp_5.rt,instructions_loop.key_resp_5.duration,start_exp.started,start_exp_text.started,key_resp_6.started,start_exp.stopped,key_resp_6.keys,key_resp_6.rt,key_resp_6.duration,h_1_tmp,w_1_tmp,h_2_tmp,w_2_tmp,h_3_tmp,w_3_tmp,config_tmp,config_tmp_1,r_1_x,r_1_y,r_2_x,r_2_y,r_3_x,r_3_y,pre_trial.started,pre_trial.stopped,choice_trial.started,rect_choice.started,r_1.started,r_2.started,r_3.started,r_1_label.started,r_2_label.started,r_3_label.started,prompt.started,choice_trial.stopped,trials.rect_choice.keys,trials.rect_choice.rt,trials.rect_choice.duration,end_block.started,end_block_text.started,end_block.stopped,end.started,end_text.started,key_resp_7.started,end.stopped,key_resp_7.keys,key_resp_7.rt,key_resp_7.duration,debriefing.started,debrief_form.started,end_debrief.started,debriefing.stopped,end_debrief.keys,end_debrief.rt,end_debrief.duration,participant,computer,date,expName,psychopyVersion,frameRate,expStart,
,,,,,,,,,,,,,,,,,,,,,,,,,,,,,,,0.0162355899810791,0.04201006889343262,0.04201006889343262,0.04201006889343262,0.01590418815612793,2.5570905208587646,1,[2.513805389404297],[2.5138180255889893],0,,,[-82.0],[-521.0],[1],[0],[0],[2.540273666381836],['agree_button'],,,,,,,,,,,,,,,,,,,,,,,,,,,,,,,,,,,,,,,,,,,,,,,,,,,,,,,,,,,,,,,,,,,,,,,,,,,,,,,,,,,,,,,,,,,,,,,,,,,,,,,,,,,236,3,2025-03-12_11h27.53.545,comp,2024.2.4,60.04094054459514,2025-03-12 11h28.26.791663 -0400,
,,,,,,,,,,,,,,,,,,,,,,,,,,,,,,,,,,,,,,,,,,,,,,,,,,2.557356119155884,2.5573935508728027,,,,,,,,,,,,,,,,,,,,,,,,,,,,,,,,,,,,,,,,,,,,,,,,,,,,,,,,,,,,,,,,,,,,,,,,,,,,,,,,,,,,,,,,,,,,,,,,,,,,,,,,,236,3,2025-03-12_11h27.53.545,comp,2024.2.4,60.04094054459514,2025-03-12 11h28.26.791663 -0400,
,,,,,,,,,,,,,,,,,,,,,,,,,,,,,,,,,,,,,,,,,,,,,,,,,,,,2.55743145942688,2.5708775520324707,4.55890417098999,,,,,,,,,,,,,,,,,,,,,,,,,,,,,,,,,,,,,,,,,,,,,,,,,,,,,,,,,,,,,,,,,,,,,,,,,,,,,,,,,,,,,,,,,,,,,,,,,,,,,,236,3,2025-03-12_11h27.53.545,comp,2024.2.4,60.04094054459514,2025-03-12 11h28.26.791663 -0400,
0,0,0,,,,,,,,,,,,,,,0,0,0,0,,,,,,,,,4.5755791664123535,,,,,,,,,,,,,,,,,,,,,,,,,,4.559467792510986,4.5755791664123535,4.5755791664123535,6.058926582336426,9.893785953521729,space,3.821404218673706,None,9.893868207931519,9.908992528915405,9.908992528915405,11.408997058868408,18.426660776138306,space,7.008464813232422,None,18.42674469947815,18.44938373565674,18.44938373565674,18.44938373565674,18.44938373565674,18.44938373565674,18.44938373565674,18.44938373565674,18.44938373565674,18.44938373565674,19.926479816436768,31.81049418449402,space,11.874826908111572,None,31.81058406829834,31.826014041900635,31.826014041900635,31.826014041900635,33.3255181312561,39.29338264465332,space,5.964747905731201,None,39.29349207878113,39.309065103530884,39.309065103530884,40.80860877037048,43.84303045272827,space,3.024815559387207,None,43.843149185180664,43.85895776748657,43.85895776748657,45.24299216270447,space,1.3737657070159912,None,,,,,,,,,,,,,,,,,,,,,,,,,,,,,,,,,,,,,,,,,,,,,,,236,3,2025-03-12_11h27.53.545,comp,2024.2.4,60.04094054459514,2025-03-12 11h28.26.791663 -0400,
0,0,0,filler_random,None,None,None,None,None,None,None,None,None,None,2,2.0353899002075195,None,,,,,0,0,0,0,0,0,0,149,45.30136036872864,,,,,,,,,,,,,,,,,,,,,,,,,,,,,,,,,,,,,,,,,,,,,,,,,,,,,,,,,,,,,,,,,,,,,,,,,,,,,,,,,151.8392401251686,62.42086204483094,114.39756173182317,167.00788970858338,163.41017379675378,79.42161175902137,3.0,3.1,-211,270,0,4,219,-274,45.287431955337524,45.287479877471924,45.28944277763367,45.30136036872864,45.4482684135437,45.4482684135437,45.4482684135437,45.4482684135437,45.4482684135437,45.4482684135437,45.4482684135437,47.34323740005493,2,2.0353899002075195,None,,,,,,,,,,,,,,,,,,236,3,2025-03-12_11h27.53.545,comp,2024.2.4,60.04094054459514,2025-03-12 11h28.26.791663 -0400,
1,1,0,filler_square,None,None,None,None,None,None,None,None,None,None,2,2.193697929382324,None,,,,,0,0,0,0,0,1,1,205,47.35901594161987,,,,,,,,,,,,,,,,,,,,,,,,,,,,,,,,,,,,,,,,,,,,,,,,,,,,,,,,,,,,,,,,,,,,,,,,,,,,,,,,,130.33829957728386,152.4890410682314,161.0918188937561,161.0918188937561,152.06813809796495,137.56326694745775,3.0,3.2,-253,-253,0,3,245,276,47.34419822692871,47.34424138069153,47.34674119949341,47.35901594161987,47.509257793426514,47.509257793426514,47.509257793426514,47.509257793426514,47.509257793426514,47.509257793426514,47.509257793426514,49.56001806259155,2,2.193697929382324,None,,,,,,,,,,,,,,,,,,236,3,2025-03-12_11h27.53.545,comp,2024.2.4,60.04094054459514,2025-03-12 11h28.26.791663 -0400,
2,2,0,critical,whd,35.0,2.1,lower,57.0,133.0,133.0,57.0,70.0,70.0,1,3.657585859298706,None,,,,,0,0,0,0,0,2,2,12,49.57546877861023,,,,,,,,,,,,,,,,,,,,,,,,,,,,,,,,,,,,,,,,,,,,,,,,,,,,,,,,,,,,,,,,,,,,,,,,,,,,,,,,,57.0,133.0,133.0,57.0,70.0,70.0,2.1,2.11,-191,270,0,252,160,-259,49.56082320213318,49.560864210128784,49.56332492828369,49.57546877861023,49.7254421710968,49.7254421710968,49.7254421710968,49.7254421710968,49.7254421710968,49.7254421710968,49.7254421710968,53.24309229850769,1,3.657585859298706,None,,,,,,,,,,,,,,,,,,236,3,2025-03-12_11h27.53.545,comp,2024.2.4,60.04094054459514,2025-03-12 11h28.26.791663 -0400,
3,3,0,filler_square,None,None,None,None,None,None,None,None,None,None,2,1.741884708404541,None,,,,,0,0,0,0,0,3,3,190,53.258800983428955,,,,,,,,,,,,,,,,,,,,,,,,,,,,,,,,,,,,,,,,,,,,,,,,,,,,,,,,,,,,,,,,,,,,,,,,,,,,,,,,,72.28957280444378,112.25084670566311,193.2345134967717,193.2345134967717,127.15973199211275,86.16560192114098,2.1,2.12,-249,-285,0,-254,236,282,53.24406313896179,53.24410581588745,53.24668288230896,53.258800983428955,53.40886044502258,53.40886044502258,53.40886044502258,53.40886044502258,53.40886044502258,53.40886044502258,53.40886044502258,55.01002073287964,2,1.741884708404541,None,,,,,,,,,,,,,,,,,,236,3,2025-03-12_11h27.53.545,comp,2024.2.4,60.04094054459514,2025-03-12 11h28.26.791663 -0400,
4,4,0,critical,dwh,35.0,4.0,upper,127.0,127.0,125.0,200.0,200.0,125.0,2,1.1112842559814453,None,,,,,0,0,0,0,0,4,4,65,55.025432109832764,,,,,,,,,,,,,,,,,,,,,,,,,,,,,,,,,,,,,,,,,,,,,,,,,,,,,,,,,,,,,,,,,,,,,,,,,,,,,,,,,127.0,127.0,125.0,200.0,200.0,125.0,4.0,4.2,-260,1,0,-261,258,-10,55.01080513000488,55.01084756851196,55.01331567764282,55.025432109832764,55.175469398498535,55.175469398498535,55.175469398498535,55.175469398498535,55.175469398498535,55.175469398498535,55.175469398498535,56.14334464073181,2,1.1112842559814453,None,,,,,,,,,,,,,,,,,,236,3,2025-03-12_11h27.53.545,comp,2024.2.4,60.04094054459514,2025-03-12 11h28.26.791663 -0400,
5,5,0,filler_square,None,None,None,None,None,None,None,None,None,None,2,1.683321237564087,None,,,,,0,0,0,0,0,5,5,198,56.15884065628052,,,,,,,,,,,,,,,,,,,,,,,,,,,,,,,,,,,,,,,,,,,,,,,,,,,,,,,,,,,,,,,,,,,,,,,,,,,,,,,,,88.61692398476345,95.99353915953628,105.9918832023794,105.9918832023794,66.72244966860296,68.217729347353,3.0,3.2,-197,-271,0,7,183,265,56.14425826072693,56.14429712295532,56.14624357223511,56.15884065628052,56.308698415756226,56.308698415756226,56.308698415756226,56.308698415756226,56.308698415756226,56.308698415756226,56.308698415756226,57.843355894088745,2,1.683321237564087,None,,,,,,,,,,,,,,,,,,236,3,2025-03-12_11h27.53.545,comp,2024.2.4,60.04094054459514,2025-03-12 11h28.26.791663 -0400,
6,6,0,filler_random,None,None,None,None,None,None,None,None,None,None,3,1.7503407001495361,None,,,,,0,0,0,0,0,6,6,158,57.858808755874634,,,,,,,,,,,,,,,,,,,,,,,,,,,,,,,,,,,,,,,,,,,,,,,,,,,,,,,,,,,,,,,,,,,,,,,,,,,,,,,,,69.42130124156952,190.59775145264857,128.09652034850433,100.03076446376011,188.08231067389644,163.45141398590536,3.0,3.1,-241,269,0,7,228,-277,57.8442862033844,57.84432935714722,57.84635639190674,57.858808755874634,58.00871539115906,58.00871539115906,58.00871539115906,58.00871539115906,58.00871539115906,58.00871539115906,58.00871539115906,59.61024761199951,3,1.7503407001495361,None,,,,,,,,,,,,,,,,,,236,3,2025-03-12_11h27.53.545,comp,2024.2.4,60.04094054459514,2025-03-12 11h28.26.791663 -0400,
7,7,0,critical,wdh,20.0,1.0,upper,125.0,200.0,141.0,141.0,200.0,125.0,1,1.8078086376190186,None,,,,,0,0,0,0,0,7,7,79,59.62548851966858,,,,,,,,,,,,,,,,,,,,,,,,,,,,,,,,,,,,,,,,,,,,,,,,,,,,,,,,,,,,,,,,,,,,,,,,,,,,,,,,,125.0,200.0,141.0,141.0,200.0,125.0,1.0,1.2,-266,12,0,-13,229,0,59.61100769042969,59.61104726791382,59.61344599723816,59.62548851966858,59.775447368621826,59.775447368621826,59.775447368621826,59.775447368621826,59.775447368621826,59.775447368621826,59.775447368621826,61.44335460662842,1,1.8078086376190186,None,,,,,,,,,,,,,,,,,,236,3,2025-03-12_11h27.53.545,comp,2024.2.4,60.04094054459514,2025-03-12 11h28.26.791663 -0400,
8,8,0,critical,whd,20.0,1.0,upper,125.0,200.0,200.0,125.0,141.0,141.0,1,2.030895709991455,None,,,,,0,0,0,0,0,8,8,91,61.4588782787323,,,,,,,,,,,,,,,,,,,,,,,,,,,,,,,,,,,,,,,,,,,,,,,,,,,,,,,,,,,,,,,,,,,,,,,,,,,,,,,,,125.0,200.0,200.0,125.0,141.0,141.0,1.0,1.2,-258,3,0,-5,229,9,61.44415807723999,61.44420123100281,61.446645736694336,61.4588782787323,61.60878348350525,61.60878348350525,61.60878348350525,61.60878348350525,61.60878348350525,61.60878348350525,61.60878348350525,63.49349236488342,1,2.030895709991455,None,,,,,,,,,,,,,,,,,,236,3,2025-03-12_11h27.53.545,comp,2024.2.4,60.04094054459514,2025-03-12 11h28.26.791663 -0400,
9,9,0,critical,hdw,35.0,1.0,lower,133.0,57.0,70.0,70.0,57.0,133.0,3,1.7818026542663574,None,,,,,0,0,0,0,0,9,9,108,63.50876975059509,,,,,,,,,,,,,,,,,,,,,,,,,,,,,,,,,,,,,,,,,,,,,,,,,,,,,,,,,,,,,,,,,,,,,,,,,,,,,,,,,133.0,57.0,70.0,70.0,57.0,133.0,1.0,1.3,320,-273,480,-275,678,-268,63.49429893493652,63.494340658187866,63.4964325428009,63.50876975059509,63.65851950645447,63.65851950645447,63.65851950645447,63.65851950645447,63.65851950645447,63.65851950645447,63.65851950645447,65.29305696487427,3,1.7818026542663574,None,,,,,,,,,,,,,,,,,,236,3,2025-03-12_11h27.53.545,comp,2024.2.4,60.04094054459514,2025-03-12 11h28.26.791663 -0400,
10,10,0,critical,dhw,20.0,4.0,upper,141.0,141.0,200.0,125.0,125.0,200.0,3,1.1335465908050537,None,,,,,0,0,0,0,0,10,10,59,65.30864572525024,,,,,,,,,,,,,,,,,,,,,,,,,,,,,,,,,,,,,,,,,,,,,,,,,,,,,,,,,,,,,,,,,,,,,,,,,,,,,,,,,141.0,141.0,200.0,125.0,125.0,200.0,4.0,4.1,-229,-263,0,-13,258,-284,65.2938597202301,65.2939019203186,65.29591751098633,65.30864572525024,65.45882105827332,65.45882105827332,65.45882105827332,65.45882105827332,65.45882105827332,65.45882105827332,65.45882105827332,66.45993185043335,3,1.1335465908050537,None,,,,,,,,,,,,,,,,,,236,3,2025-03-12_11h27.53.545,comp,2024.2.4,60.04094054459514,2025-03-12 11h28.26.791663 -0400,
11,11,0,critical,whd,35.0,2.1,lower,57.0,133.0,133.0,57.0,70.0,70.0,1,2.1096749305725098,None,,,,,0,0,0,0,0,11,11,36,66.47520041465759,,,,,,,,,,,,,,,,,,,,,,,,,,,,,,,,,,,,,,,,,,,,,,,,,,,,,,,,,,,,,,,,,,,,,,,,,,,,,,,,,57.0,133.0,133.0,57.0,70.0,70.0,2.1,2.11,-191,270,0,278,160,-258,66.4607412815094,66.46078276634216,66.46326351165771,66.47520041465759,66.62524342536926,66.62524342536926,66.62524342536926,66.62524342536926,66.62524342536926,66.62524342536926,66.62524342536926,68.59297704696655,1,2.1096749305725098,None,,,,,,,,,,,,,,,,,,236,3,2025-03-12_11h27.53.545,comp,2024.2.4,60.04094054459514,2025-03-12 11h28.26.791663 -0400,
12,12,0,critical,hwd,35.0,2.1,lower,133.0,57.0,57.0,133.0,70.0,70.0,2,3.519522190093994,None,,,,,0,0,0,0,0,12,12,40,68.60862231254578,,,,,,,,,,,,,,,,,,,,,,,,,,,,,,,,,,,,,,,,,,,,,,,,,,,,,,,,,,,,,,,,,,,,,,,,,,,,,,,,,133.0,57.0,57.0,133.0,70.0,70.0,2.1,2.11,-191,279,0,269,198,-270,68.59377598762512,68.59381699562073,68.59622240066528,68.60862231254578,68.75850105285645,68.75850105285645,68.75850105285645,68.75850105285645,68.75850105285645,68.75850105285645,68.75850105285645,72.14306044578552,2,3.519522190093994,None,,,,,,,,,,,,,,,,,,236,3,2025-03-12_11h27.53.545,comp,2024.2.4,60.04094054459514,2025-03-12 11h28.26.791663 -0400,
13,13,0,filler_random,None,None,None,None,None,None,None,None,None,None,2,1.5464677810668945,None,,,,,0,0,0,0,0,13,13,143,72.15842986106873,,,,,,,,,,,,,,,,,,,,,,,,,,,,,,,,,,,,,,,,,,,,,,,,,,,,,,,,,,,,,,,,,,,,,,,,,,,,,,,,,152.40122926818538,161.54191606797343,199.06683974332842,142.10148988266002,93.32876681799763,85.71577637026175,1.0,1.3,232,-270,480,-278,690,-279,72.14397430419922,72.14401602745056,72.14644861221313,72.15842986106873,72.30883455276489,72.30883455276489,72.30883455276489,72.30883455276489,72.30883455276489,72.30883455276489,72.30883455276489,73.70989227294922,2,1.5464677810668945,None,,,,,,,,,,,,,,,,,,236,3,2025-03-12_11h27.53.545,comp,2024.2.4,60.04094054459514,2025-03-12 11h28.26.791663 -0400,
14,14,0,critical,hwd,20.0,1.0,lower,133.0,57.0,57.0,133.0,78.0,78.0,2,2.059359073638916,None,,,,,0,0,0,0,0,14,14,102,73.725266456604,,,,,,,,,,,,,,,,,,,,,,,,,,,,,,,,,,,,,,,,,,,,,,,,,,,,,,,,,,,,,,,,,,,,,,,,,,,,,,,,,133.0,57.0,57.0,133.0,78.0,78.0,1.0,1.3,289,-252,480,-280,682,-260,73.71072363853455,73.71076512336731,73.71320724487305,73.725266456604,73.8751802444458,73.8751802444458,73.8751802444458,73.8751802444458,73.8751802444458,73.8751802444458,73.8751802444458,75.7930052280426,2,2.059359073638916,None,,,,,,,,,,,,,,,,,,236,3,2025-03-12_11h27.53.545,comp,2024.2.4,60.04094054459514,2025-03-12 11h28.26.791663 -0400,
15,15,0,critical,wdh,35.0,2.1,lower,57.0,133.0,70.0,70.0,133.0,57.0,1,1.6497747898101807,None,,,,,0,0,0,0,0,15,15,32,75.80848598480225,,,,,,,,,,,,,,,,,,,,,,,,,,,,,,,,,,,,,,,,,,,,,,,,,,,,,,,,,,,,,,,,,,,,,,,,,,,,,,,,,57.0,133.0,70.0,70.0,133.0,57.0,2.1,2.12,-198,-277,0,-265,160,285,75.79380393028259,75.7938449382782,75.79627799987793,75.80848598480225,75.95851635932922,75.95851635932922,75.95851635932922,75.95851635932922,75.95851635932922,75.95851635932922,75.95851635932922,77.4597897529602,1,1.6497747898101807,None,,,,,,,,,,,,,,,,,,236,3,2025-03-12_11h27.53.545,comp,2024.2.4,60.04094054459514,2025-03-12 11h28.26.791663 -0400,
16,16,0,filler_square,None,None,None,None,None,None,None,None,None,None,3,2.02128529548645,None,,,,,0,0,0,0,0,16,16,200,77.47525906562805,,,,,,,,,,,,,,,,,,,,,,,,,,,,,,,,,,,,,,,,,,,,,,,,,,,,,,,,,,,,,,,,,,,,,,,,,,,,,,,,,74.59375230769564,61.449218476167,65.61820474756723,64.38774975797519,83.91048801922386,83.91048801922386,2.2,2.21,-159,-270,0,266,170,254,77.46073460578918,77.4607744216919,77.46316838264465,77.47525906562805,77.6251540184021,77.6251540184021,77.6251540184021,77.6251540184021,77.6251540184021,77.6251540184021,77.6251540184021,79.50963068008423,3,2.02128529548645,None,,,,,,,,,,,,,,,,,,236,3,2025-03-12_11h27.53.545,comp,2024.2.4,60.04094054459514,2025-03-12 11h28.26.791663 -0400,
17,17,0,critical,hdw,35.0,4.0,upper,200.0,125.0,127.0,127.0,125.0,200.0,3,2.354696273803711,None,,,,,0,0,0,0,0,17,17,113,79.52513313293457,,,,,,,,,,,,,,,,,,,,,,,,,,,,,,,,,,,,,,,,,,,,,,,,,,,,,,,,,,,,,,,,,,,,,,,,,,,,,,,,,200.0,125.0,127.0,127.0,125.0,200.0,4.0,4.1,-222,-285,0,-1,260,-288,79.51043033599854,79.51047277450562,79.51280498504639,79.52513313293457,79.67534470558167,79.67534470558167,79.67534470558167,79.67534470558167,79.67534470558167,79.67534470558167,79.67534470558167,81.89339256286621,3,2.354696273803711,None,,,,,,,,,,,,,,,,,,236,3,2025-03-12_11h27.53.545,comp,2024.2.4,60.04094054459514,2025-03-12 11h28.26.791663 -0400,
18,18,0,critical,hdw,35.0,1.0,upper,200.0,125.0,127.0,127.0,125.0,200.0,3,1.8762428760528564,None,,,,,0,0,0,0,0,18,18,109,81.9083366394043,,,,,,,,,,,,,,,,,,,,,,,,,,,,,,,,,,,,,,,,,,,,,,,,,,,,,,,,,,,,,,,,,,,,,,,,,,,,,,,,,200.0,125.0,127.0,127.0,125.0,200.0,1.0,1.2,-222,-7,0,-2,260,9,81.89420819282532,81.89424872398376,81.8963372707367,81.9083366394043,82.05862236022949,82.05862236022949,82.05862236022949,82.05862236022949,82.05862236022949,82.05862236022949,82.05862236022949,83.79311466217041,3,1.8762428760528564,None,,,,,,,,,,,,,,,,,,236,3,2025-03-12_11h27.53.545,comp,2024.2.4,60.04094054459514,2025-03-12 11h28.26.791663 -0400,
19,19,0,filler_random,None,None,None,None,None,None,None,None,None,None,3,1.8961634635925293,None,,,,,0,0,0,0,0,19,19,153,83.80862259864807,,,,,,,,,,,,,,,,,,,,,,,,,,,,,,,,,,,,,,,,,,,,,,,,,,,,,,,,,,,,,,,,,,,,,,,,,,,,,,,,,143.36860289815445,111.30177706836982,76.27185385092058,194.85196838156892,165.45636080300704,144.01452227870175,4.0,4.1,-249,-259,0,-7,265,-267,83.79405570030212,83.79409790039062,83.79662132263184,83.80862259864807,83.95862865447998,83.95862865447998,83.95862865447998,83.95862865447998,83.95862865447998,83.95862865447998,83.95862865447998,85.70979452133179,3,1.8961634635925293,None,,,,,,,,,,,,,,,,,,236,3,2025-03-12_11h27.53.545,comp,2024.2.4,60.04094054459514,2025-03-12 11h28.26.791663 -0400,
20,20,0,filler_square,None,None,None,None,None,None,None,None,None,None,2,1.3802387714385986,None,,,,,0,0,0,0,0,20,20,192,85.72524905204773,,,,,,,,,,,,,,,,,,,,,,,,,,,,,,,,,,,,,,,,,,,,,,,,,,,,,,,,,,,,,,,,,,,,,,,,,,,,,,,,,87.42375043081304,80.2169972931576,96.20120137637383,96.20120137637383,85.45031578864857,74.36848367613601,2.1,2.12,-184,-260,0,-272,181,285,85.71073985099792,85.71077966690063,85.71316480636597,85.72524905204773,85.87507247924805,85.87507247924805,85.87507247924805,85.87507247924805,85.87507247924805,85.87507247924805,85.87507247924805,87.10974431037903,2,1.3802387714385986,None,,,,,,,,,,,,,,,,,,236,3,2025-03-12_11h27.53.545,comp,2024.2.4,60.04094054459514,2025-03-12 11h28.26.791663 -0400,
21,21,0,critical,hdw,20.0,4.0,lower,133.0,57.0,78.0,78.0,57.0,133.0,3,3.4505865573883057,None,,,,,0,0,0,0,0,21,21,118,87.12520623207092,,,,,,,,,,,,,,,,,,,,,,,,,,,,,,,,,,,,,,,,,,,,,,,,,,,,,,,,,,,,,,,,,,,,,,,,,,,,,,,,,133.0,57.0,78.0,78.0,57.0,133.0,4.0,4.2,-164,-10,0,-263,202,11,87.11052465438843,87.11056685447693,87.11290645599365,87.12520623207092,87.27516055107117,87.27516055107117,87.27516055107117,87.27516055107117,87.27516055107117,87.27516055107117,87.27516055107117,90.5929045677185,3,3.4505865573883057,None,,,,,,,,,,,,,,,,,,236,3,2025-03-12_11h27.53.545,comp,2024.2.4,60.04094054459514,2025-03-12 11h28.26.791663 -0400,
22,22,0,filler_square,None,None,None,None,None,None,None,None,None,None,3,1.4083507061004639,None,,,,,0,0,0,0,0,22,22,186,90.60831260681152,,,,,,,,,,,,,,,,,,,,,,,,,,,,,,,,,,,,,,,,,,,,,,,,,,,,,,,,,,,,,,,,,,,,,,,,,,,,,,,,,135.29006802989966,135.29006802989966,60.64631662922607,109.51965050789934,99.1669173064661,121.56726953863017,2.2,2.22,-218,279,0,-263,212,-265,90.59389424324036,90.59393572807312,90.59638476371765,90.60831260681152,90.75850701332092,90.75850701332092,90.75850701332092,90.75850701332092,90.75850701332092,90.75850701332092,90.75850701332092,92.02623581886292,3,1.4083507061004639,None,,,,,,,,,,,,,,,,,,236,3,2025-03-12_11h27.53.545,comp,2024.2.4,60.04094054459514,2025-03-12 11h28.26.791663 -0400,
23,23,0,critical,hdw,20.0,3.0,upper,200.0,125.0,141.0,141.0,125.0,200.0,3,1.8478338718414307,None,,,,,0,0,0,0,0,23,23,117,92.04175353050232,,,,,,,,,,,,,,,,,,,,,,,,,,,,,,,,,,,,,,,,,,,,,,,,,,,,,,,,,,,,,,,,,,,,,,,,,,,,,,,,,200.0,125.0,141.0,141.0,125.0,200.0,3.0,3.1,-229,261,0,-10,266,-281,92.02703404426575,92.02707529067993,92.0292341709137,92.04175353050232,92.1919674873352,92.1919674873352,92.1919674873352,92.1919674873352,92.1919674873352,92.1919674873352,92.1919674873352,93.89319634437561,3,1.8478338718414307,None,,,,,,,,,,,,,,,,,,236,3,2025-03-12_11h27.53.545,comp,2024.2.4,60.04094054459514,2025-03-12 11h28.26.791663 -0400,
24,24,0,filler_square,None,None,None,None,None,None,None,None,None,None,2,1.4118828773498535,None,,,,,0,0,0,0,0,24,24,191,93.90859174728394,,,,,,,,,,,,,,,,,,,,,,,,,,,,,,,,,,,,,,,,,,,,,,,,,,,,,,,,,,,,,,,,,,,,,,,,,,,,,,,,,99.28809903757099,67.28014225860026,182.6173732264242,182.6173732264242,100.59461559263619,139.78935043741265,2.1,2.11,-221,266,0,254,257,-253,93.8941695690155,93.89421105384827,93.8962996006012,93.90859174728394,94.05870151519775,94.05870151519775,94.05870151519775,94.05870151519775,94.05870151519775,94.05870151519775,94.05870151519775,95.32645678520203,2,1.4118828773498535,None,,,,,,,,,,,,,,,,,,236,3,2025-03-12_11h27.53.545,comp,2024.2.4,60.04094054459514,2025-03-12 11h28.26.791663 -0400,
25,25,0,critical,wdh,20.0,2.1,upper,125.0,200.0,141.0,141.0,200.0,125.0,1,1.801978349685669,None,,,,,0,0,0,0,0,25,25,11,95.34183764457703,,,,,,,,,,,,,,,,,,,,,,,,,,,,,,,,,,,,,,,,,,,,,,,,,,,,,,,,,,,,,,,,,,,,,,,,,,,,,,,,,125.0,200.0,141.0,141.0,200.0,125.0,2.1,2.12,-266,-267,0,-272,229,290,95.32722687721252,95.32726621627808,95.32946228981018,95.34183764457703,95.4920003414154,95.4920003414154,95.4920003414154,95.4920003414154,95.4920003414154,95.4920003414154,95.4920003414154,97.15975785255432,1,1.801978349685669,None,,,,,,,,,,,,,,,,,,236,3,2025-03-12_11h27.53.545,comp,2024.2.4,60.04094054459514,2025-03-12 11h28.26.791663 -0400,
26,26,0,critical,dwh,35.0,3.0,upper,127.0,127.0,125.0,200.0,200.0,125.0,2,2.0008134841918945,None,,,,,0,0,0,0,0,26,26,63,97.17494034767151,,,,,,,,,,,,,,,,,,,,,,,,,,,,,,,,,,,,,,,,,,,,,,,,,,,,,,,,,,,,,,,,,,,,,,,,,,,,,,,,,127.0,127.0,125.0,200.0,200.0,125.0,3.0,3.2,-260,-274,0,6,258,274,97.16058111190796,97.16062092781067,97.16267371177673,97.17494034767151,97.32516813278198,97.32516813278198,97.32516813278198,97.32516813278198,97.32516813278198,97.32516813278198,97.32516813278198,99.19310641288757,2,2.0008134841918945,None,,,,,,,,,,,,,,,,,,236,3,2025-03-12_11h27.53.545,comp,2024.2.4,60.04094054459514,2025-03-12 11h28.26.791663 -0400,
27,27,0,critical,whd,20.0,3.0,lower,57.0,133.0,133.0,57.0,78.0,78.0,1,2.9763598442077637,None,,,,,0,0,0,0,0,27,27,92,99.20824694633484,,,,,,,,,,,,,,,,,,,,,,,,,,,,,,,,,,,,,,,,,,,,,,,,,,,,,,,,,,,,,,,,,,,,,,,,,,,,,,,,,57.0,133.0,133.0,57.0,78.0,78.0,3.0,3.1,-191,289,0,-4,164,-286,99.19386911392212,99.19390773773193,99.19627380371094,99.20824694633484,99.35843896865845,99.35843896865845,99.35843896865845,99.35843896865845,99.35843896865845,99.35843896865845,99.35843896865845,102.1928026676178,1,2.9763598442077637,None,,,,,,,,,,,,,,,,,,236,3,2025-03-12_11h27.53.545,comp,2024.2.4,60.04094054459514,2025-03-12 11h28.26.791663 -0400,
28,28,0,filler_random,None,None,None,None,None,None,None,None,None,None,3,1.5030732154846191,None,,,,,0,0,0,0,0,28,28,163,102.20855379104614,,,,,,,,,,,,,,,,,,,,,,,,,,,,,,,,,,,,,,,,,,,,,,,,,,,,,,,,,,,,,,,,,,,,,,,,,,,,,,,,,157.66348498441502,127.12685072671364,120.09990352915992,59.544591987035744,104.95015003166846,177.86882061297695,3.0,3.2,-189,-278,0,-9,215,289,102.19371318817139,102.19375419616699,102.19618272781372,102.20855379104614,102.35838150978088,102.35838150978088,102.35838150978088,102.35838150978088,102.35838150978088,102.35838150978088,102.35838150978088,103.72621774673462,3,1.5030732154846191,None,,,,,,,,,,,,,,,,,,236,3,2025-03-12_11h27.53.545,comp,2024.2.4,60.04094054459514,2025-03-12 11h28.26.791663 -0400,
29,29,0,critical,wdh,20.0,4.0,lower,57.0,133.0,78.0,78.0,133.0,57.0,1,2.642819881439209,None,,,,,0,0,0,0,0,29,29,82,103.74153161048889,,,,,,,,,,,,,,,,,,,,,,,,,,,,,,,,,,,,,,,,,,,,,,,,,,,,,,,,,,,,,,,,,,,,,,,,,,,,,,,,,57.0,133.0,78.0,78.0,133.0,57.0,4.0,4.1,-202,-270,0,18,164,-274,103.7270359992981,103.72707629203796,103.72957611083984,103.74153161048889,103.89166212081909,103.89166212081909,103.89166212081909,103.89166212081909,103.89166212081909,103.89166212081909,103.89166212081909,106.39271450042725,1,2.642819881439209,None,,,,,,,,,,,,,,,,,,236,3,2025-03-12_11h27.53.545,comp,2024.2.4,60.04094054459514,2025-03-12 11h28.26.791663 -0400,
30,30,0,filler_random,None,None,None,None,None,None,None,None,None,None,3,1.2389686107635498,None,,,,,0,0,0,0,0,30,30,154,106.4084632396698,,,,,,,,,,,,,,,,,,,,,,,,,,,,,,,,,,,,,,,,,,,,,,,,,,,,,,,,,,,,,,,,,,,,,,,,,,,,,,,,,68.99647152408815,101.94410721137457,185.33046783356892,77.04569737960074,182.88761845864752,198.62834031175134,2.2,2.22,-185,258,0,-263,234,-277,106.3936493396759,106.39369177818298,106.3962287902832,106.4084632396698,106.55857372283936,106.55857372283936,106.55857372283936,106.55857372283936,106.55857372283936,106.55857372283936,106.55857372283936,107.65973281860352,3,1.2389686107635498,None,,,,,,,,,,,,,,,,,,236,3,2025-03-12_11h27.53.545,comp,2024.2.4,60.04094054459514,2025-03-12 11h28.26.791663 -0400,
31,31,0,critical,dhw,35.0,2.1,upper,127.0,127.0,200.0,125.0,125.0,200.0,3,0.8214609622955322,None,,,,,0,0,0,0,0,31,31,25,107.67491579055786,,,,,,,,,,,,,,,,,,,,,,,,,,,,,,,,,,,,,,,,,,,,,,,,,,,,,,,,,,,,,,,,,,,,,,,,,,,,,,,,,127.0,127.0,200.0,125.0,125.0,200.0,2.1,2.11,-222,270,0,260,258,-264,107.66052532196045,107.66056489944458,107.66379404067993,107.67491579055786,107.82532525062561,107.82532525062561,107.82532525062561,107.82532525062561,107.82532525062561,107.82532525062561,107.82532525062561,108.5097188949585,3,0.8214609622955322,None,,,,,,,,,,,,,,,,,,236,3,2025-03-12_11h27.53.545,comp,2024.2.4,60.04094054459514,2025-03-12 11h28.26.791663 -0400,
32,32,0,filler_random,None,None,None,None,None,None,None,None,None,None,1,4.779824256896973,None,,,,,0,0,0,0,0,32,32,139,108.52488398551941,,,,,,,,,,,,,,,,,,,,,,,,,,,,,,,,,,,,,,,,,,,,,,,,,,,,,,,,,,,,,,,,,,,,,,,,,,,,,,,,,103.06241496652447,191.11599491652035,193.51210875619628,140.8509976122611,121.67592313030222,167.2860790525714,2.2,2.21,-262,-275,0,266,250,282,108.51062774658203,108.51066946983337,108.51296019554138,108.52488398551941,108.67535519599915,108.67535519599915,108.67535519599915,108.67535519599915,108.67535519599915,108.67535519599915,108.67535519599915,113.30963015556335,1,4.779824256896973,None,,,,,,,,,,,,,,,,,,236,3,2025-03-12_11h27.53.545,comp,2024.2.4,60.04094054459514,2025-03-12 11h28.26.791663 -0400,
33,33,0,filler_square,None,None,None,None,None,None,None,None,None,None,1,1.5223681926727295,None,,,,,0,0,0,0,0,33,33,209,113.3250617980957,,,,,,,,,,,,,,,,,,,,,,,,,,,,,,,,,,,,,,,,,,,,,,,,,,,,,,,,,,,,,,,,,,,,,,,,,,,,,,,,,199.14540267346177,199.14540267346177,165.1127959517474,101.39926064842817,189.0694886792495,150.70240372089938,3.0,3.2,-246,-270,0,-2,222,259,113.3105616569519,113.31060314178467,113.31294250488281,113.3250617980957,113.47559642791748,113.47559642791748,113.47559642791748,113.47559642791748,113.47559642791748,113.47559642791748,113.47559642791748,114.86000394821167,1,1.5223681926727295,None,,,,,,,,,,,,,,,,,,236,3,2025-03-12_11h27.53.545,comp,2024.2.4,60.04094054459514,2025-03-12 11h28.26.791663 -0400,
34,34,0,critical,whd,35.0,3.0,lower,57.0,133.0,133.0,57.0,70.0,70.0,1,2.333526611328125,None,,,,,0,0,0,0,0,34,34,86,114.8748836517334,,,,,,,,,,,,,,,,,,,,,,,,,,,,,,,,,,,,,,,,,,,,,,,,,,,,,,,,,,,,,,,,,,,,,,,,,,,,,,,,,57.0,133.0,133.0,57.0,70.0,70.0,3.0,3.1,-191,270,0,-15,160,-256,114.86081123352051,114.86085176467896,114.86291646957397,114.8748836517334,115.02491855621338,115.02491855621338,115.02491855621338,115.02491855621338,115.02491855621338,115.02491855621338,115.02491855621338,117.22607851028442,1,2.333526611328125,None,,,,,,,,,,,,,,,,,,236,3,2025-03-12_11h27.53.545,comp,2024.2.4,60.04094054459514,2025-03-12 11h28.26.791663 -0400,
35,35,0,filler_random,None,None,None,None,None,None,None,None,None,None,1,1.1108226776123047,None,,,,,0,0,0,0,0,35,35,132,117.24149227142334,,,,,,,,,,,,,,,,,,,,,,,,,,,,,,,,,,,,,,,,,,,,,,,,,,,,,,,,,,,,,,,,,,,,,,,,,,,,,,,,,195.9243218035573,189.10538314853932,133.46701143710646,60.250759604202045,77.55524502159149,124.79379529577488,1.0,1.3,259,-289,480,-256,669,-277,117.22702288627625,117.22706484794617,117.22954154014587,117.24149227142334,117.39164805412292,117.39164805412292,117.39164805412292,117.39164805412292,117.39164805412292,117.39164805412292,117.39164805412292,118.35944294929504,1,1.1108226776123047,None,,,,,,,,,,,,,,,,,,236,3,2025-03-12_11h27.53.545,comp,2024.2.4,60.04094054459514,2025-03-12 11h28.26.791663 -0400,
36,36,0,critical,whd,35.0,4.0,lower,57.0,133.0,133.0,57.0,70.0,70.0,1,5.288406133651733,None,,,,,0,0,0,0,0,36,36,88,118.37500405311584,,,,,,,,,,,,,,,,,,,,,,,,,,,,,,,,,,,,,,,,,,,,,,,,,,,,,,,,,,,,,,,,,,,,,,,,,,,,,,,,,57.0,133.0,133.0,57.0,70.0,70.0,4.0,4.2,-191,-9,0,-282,160,11,118.36023116111755,118.360271692276,118.36222100257874,118.37500405311584,118.52495765686035,118.52495765686035,118.52495765686035,118.52495765686035,118.52495765686035,118.52495765686035,118.52495765686035,123.67598462104797,1,5.288406133651733,None,,,,,,,,,,,,,,,,,,236,3,2025-03-12_11h27.53.545,comp,2024.2.4,60.04094054459514,2025-03-12 11h28.26.791663 -0400,
37,37,0,critical,hwd,35.0,4.0,lower,133.0,57.0,57.0,133.0,70.0,70.0,2,1.398439884185791,None,,,,,0,0,0,0,0,37,37,100,123.69136905670166,,,,,,,,,,,,,,,,,,,,,,,,,,,,,,,,,,,,,,,,,,,,,,,,,,,,,,,,,,,,,,,,,,,,,,,,,,,,,,,,,133.0,57.0,57.0,133.0,70.0,70.0,4.0,4.2,-191,-9,0,-276,198,1,123.67677187919617,123.67681384086609,123.67919611930847,123.69136905670166,123.84145283699036,123.84145283699036,123.84145283699036,123.84145283699036,123.84145283699036,123.84145283699036,123.84145283699036,125.09273838996887,2,1.398439884185791,None,,,,,,,,,,,,,,,,,,236,3,2025-03-12_11h27.53.545,comp,2024.2.4,60.04094054459514,2025-03-12 11h28.26.791663 -0400,
38,38,0,critical,wdh,35.0,2.1,upper,125.0,200.0,127.0,127.0,200.0,125.0,1,2.259885311126709,None,,,,,0,0,0,0,0,38,38,9,125.1082854270935,,,,,,,,,,,,,,,,,,,,,,,,,,,,,,,,,,,,,,,,,,,,,,,,,,,,,,,,,,,,,,,,,,,,,,,,,,,,,,,,,125.0,200.0,127.0,127.0,200.0,125.0,2.1,2.12,-260,-255,0,-277,222,256,125.09352684020996,125.09356760978699,125.09586787223816,125.1082854270935,125.2583281993866,125.2583281993866,125.2583281993866,125.2583281993866,125.2583281993866,125.2583281993866,125.2583281993866,127.37618350982666,1,2.259885311126709,None,,,,,,,,,,,,,,,,,,236,3,2025-03-12_11h27.53.545,comp,2024.2.4,60.04094054459514,2025-03-12 11h28.26.791663 -0400,
39,39,0,catch,None,None,None,None,None,None,None,None,None,None,2,1.2878201007843018,None,,,,,0,0,0,0,0,39,39,127,127.39175534248352,,,,,,,,,,,,,,,,,,,,,,,,,,,,,,,,,,,,,,,,,,,,,,,,,,,,,,,,,,,,,,,,,,,,,,,,,,,,,,,,,95,95,130,195,127,63,3.0,3.2,-241,-263,0,2,225,263,127.37723398208618,127.3772759437561,127.37970638275146,127.39175534248352,127.54158687591553,127.54158687591553,127.54158687591553,127.54158687591553,127.54158687591553,127.54158687591553,127.54158687591553,128.69286942481995,2,1.2878201007843018,None,,,,,,,,,,,,,,,,,,236,3,2025-03-12_11h27.53.545,comp,2024.2.4,60.04094054459514,2025-03-12 11h28.26.791663 -0400,
40,40,0,critical,dhw,35.0,2.1,lower,70.0,70.0,133.0,57.0,57.0,133.0,3,3.0356826782226562,None,,,,,0,0,0,0,0,40,40,0,128.70802927017212,,,,,,,,,,,,,,,,,,,,,,,,,,,,,,,,,,,,,,,,,,,,,,,,,,,,,,,,,,,,,,,,,,,,,,,,,,,,,,,,,70.0,70.0,133.0,57.0,57.0,133.0,2.1,2.12,-160,-267,0,-262,191,261,128.69368505477905,128.6937277317047,128.69606614112854,128.70802927017212,128.8580949306488,128.8580949306488,128.8580949306488,128.8580949306488,128.8580949306488,128.8580949306488,128.8580949306488,131.75931310653687,3,3.0356826782226562,None,,,,,,,,,,,,,,,,,,236,3,2025-03-12_11h27.53.545,comp,2024.2.4,60.04094054459514,2025-03-12 11h28.26.791663 -0400,
41,41,0,critical,whd,20.0,2.1,upper,125.0,200.0,200.0,125.0,141.0,141.0,1,1.5379114151000977,None,,,,,0,0,0,0,0,41,41,39,131.77468943595886,,,,,,,,,,,,,,,,,,,,,,,,,,,,,,,,,,,,,,,,,,,,,,,,,,,,,,,,,,,,,,,,,,,,,,,,,,,,,,,,,125.0,200.0,200.0,125.0,141.0,141.0,2.1,2.12,-258,-251,0,-270,229,270,131.76012420654297,131.76016640663147,131.76218104362488,131.77468943595886,131.92498993873596,131.92498993873596,131.92498993873596,131.92498993873596,131.92498993873596,131.92498993873596,131.92498993873596,133.3261957168579,1,1.5379114151000977,None,,,,,,,,,,,,,,,,,,236,3,2025-03-12_11h27.53.545,comp,2024.2.4,60.04094054459514,2025-03-12 11h28.26.791663 -0400,
42,42,0,critical,whd,35.0,4.0,upper,125.0,200.0,200.0,125.0,127.0,127.0,1,1.2748918533325195,None,,,,,0,0,0,0,0,42,42,89,133.34135937690735,,,,,,,,,,,,,,,,,,,,,,,,,,,,,,,,,,,,,,,,,,,,,,,,,,,,,,,,,,,,,,,,,,,,,,,,,,,,,,,,,125.0,200.0,200.0,125.0,127.0,127.0,4.0,4.1,-258,-255,0,-2,222,-278,133.3269898891449,133.32703042030334,133.32947540283203,133.34135937690735,133.4916172027588,133.4916172027588,133.4916172027588,133.4916172027588,133.4916172027588,133.4916172027588,133.4916172027588,134.62602257728577,1,1.2748918533325195,None,,,,,,,,,,,,,,,,,,236,3,2025-03-12_11h27.53.545,comp,2024.2.4,60.04094054459514,2025-03-12 11h28.26.791663 -0400,
43,43,0,filler_random,None,None,None,None,None,None,None,None,None,None,2,1.2859001159667969,None,,,,,0,0,0,0,0,43,43,136,134.641615152359,,,,,,,,,,,,,,,,,,,,,,,,,,,,,,,,,,,,,,,,,,,,,,,,,,,,,,,,,,,,,,,,,,,,,,,,,,,,,,,,,82.84082504197075,102.88741921128562,186.92129057588448,158.55381098800984,58.721849622521034,151.25376458310382,2.2,2.21,-227,-265,0,289,251,288,134.6269760131836,134.62701845169067,134.62944173812866,134.641615152359,134.79157137870789,134.79157137870789,134.79157137870789,134.79157137870789,134.79157137870789,134.79157137870789,134.79157137870789,135.94274401664734,2,1.2859001159667969,None,,,,,,,,,,,,,,,,,,236,3,2025-03-12_11h27.53.545,comp,2024.2.4,60.04094054459514,2025-03-12 11h28.26.791663 -0400,
44,44,0,critical,hwd,35.0,2.1,lower,133.0,57.0,57.0,133.0,70.0,70.0,2,2.067093849182129,None,,,,,0,0,0,0,0,44,44,16,135.95796465873718,,,,,,,,,,,,,,,,,,,,,,,,,,,,,,,,,,,,,,,,,,,,,,,,,,,,,,,,,,,,,,,,,,,,,,,,,,,,,,,,,133.0,57.0,57.0,133.0,70.0,70.0,2.1,2.12,-191,-279,0,-273,198,275,135.9435510635376,135.94359135627747,135.94595646858215,135.95796465873718,136.1080367565155,136.1080367565155,136.1080367565155,136.1080367565155,136.1080367565155,136.1080367565155,136.1080367565155,138.0425341129303,2,2.067093849182129,None,,,,,,,,,,,,,,,,,,236,3,2025-03-12_11h27.53.545,comp,2024.2.4,60.04094054459514,2025-03-12 11h28.26.791663 -0400,
45,45,0,filler_square,None,None,None,None,None,None,None,None,None,None,2,0.9422531127929688,None,,,,,0,0,0,0,0,45,45,197,138.05793929100037,,,,,,,,,,,,,,,,,,,,,,,,,,,,,,,,,,,,,,,,,,,,,,,,,,,,,,,,,,,,,,,,,,,,,,,,,,,,,,,,,59.275372892116216,83.14384390915143,107.0933516350604,107.0933516350604,63.536643798839435,66.03224974117177,4.0,4.2,-191,7,0,-287,183,4,138.04342794418335,138.0434672832489,138.04571175575256,138.05793929100037,138.20812106132507,138.20812106132507,138.20812106132507,138.20812106132507,138.20812106132507,138.20812106132507,138.20812106132507,139.0091199874878,2,0.9422531127929688,None,,,,,,,,,,,,,,,,,,236,3,2025-03-12_11h27.53.545,comp,2024.2.4,60.04094054459514,2025-03-12 11h28.26.791663 -0400,
46,46,0,critical,hdw,20.0,3.0,lower,133.0,57.0,78.0,78.0,57.0,133.0,3,1.6383957862854004,None,,,,,0,0,0,0,0,46,46,116,139.02483105659485,,,,,,,,,,,,,,,,,,,,,,,,,,,,,,,,,,,,,,,,,,,,,,,,,,,,,,,,,,,,,,,,,,,,,,,,,,,,,,,,,133.0,57.0,78.0,78.0,57.0,133.0,3.0,3.1,-164,254,0,-4,202,-258,139.00994753837585,139.00998854637146,139.01250457763672,139.02483105659485,139.17467069625854,139.17467069625854,139.17467069625854,139.17467069625854,139.17467069625854,139.17467069625854,139.17467069625854,140.6759557723999,3,1.6383957862854004,None,,,,,,,,,,,,,,,,,,236,3,2025-03-12_11h27.53.545,comp,2024.2.4,60.04094054459514,2025-03-12 11h28.26.791663 -0400,
47,47,0,critical,wdh,35.0,4.0,upper,125.0,200.0,127.0,127.0,200.0,125.0,1,1.3088786602020264,None,,,,,0,0,0,0,0,47,47,77,140.6913206577301,,,,,,,,,,,,,,,,,,,,,,,,,,,,,,,,,,,,,,,,,,,,,,,,,,,,,,,,,,,,,,,,,,,,,,,,,,,,,,,,,125.0,200.0,127.0,127.0,200.0,125.0,4.0,4.1,-260,-281,0,-9,222,-253,140.6767556667328,140.67679643630981,140.6791558265686,140.6913206577301,140.84179711341858,140.84179711341858,140.84179711341858,140.84179711341858,140.84179711341858,140.84179711341858,140.84179711341858,142.00948667526245,1,1.3088786602020264,None,,,,,,,,,,,,,,,,,,236,3,2025-03-12_11h27.53.545,comp,2024.2.4,60.04094054459514,2025-03-12 11h28.26.791663 -0400,
48,48,0,filler_square,None,None,None,None,None,None,None,None,None,None,2,2.1592533588409424,None,,,,,0,0,0,0,0,48,48,185,142.0249149799347,,,,,,,,,,,,,,,,,,,,,,,,,,,,,,,,,,,,,,,,,,,,,,,,,,,,,,,,,,,,,,,,,,,,,,,,,,,,,,,,,88.14619918714506,81.597831771533,98.4317434204882,98.4317434204882,79.84430847326733,81.64617854425262,1.0,1.1,-666,251,-480,253,-294,267,142.01043844223022,142.01048040390015,142.01253151893616,142.0249149799347,142.1747169494629,142.1747169494629,142.1747169494629,142.1747169494629,142.1747169494629,142.1747169494629,142.1747169494629,144.19234538078308,2,2.1592533588409424,None,,,,,,,,,,,,,,,,,,236,3,2025-03-12_11h27.53.545,comp,2024.2.4,60.04094054459514,2025-03-12 11h28.26.791663 -0400,
49,49,0,critical,hdw,35.0,3.0,lower,133.0,57.0,70.0,70.0,57.0,133.0,3,2.8495635986328125,None,,,,,0,0,0,0,0,49,49,110,144.20816922187805,,,,,,,,,,,,,,,,,,,,,,,,,,,,,,,,,,,,,,,,,,,,,,,,,,,,,,,,,,,,,,,,,,,,,,,,,,,,,,,,,133.0,57.0,70.0,70.0,57.0,133.0,3.0,3.2,-160,-274,0,19,198,276,144.1931540966034,144.193195104599,144.19537591934204,144.20816922187805,144.3580358028412,144.3580358028412,144.3580358028412,144.3580358028412,144.3580358028412,144.3580358028412,144.3580358028412,147.0592930316925,3,2.8495635986328125,None,,,,,,,,,,,,,,,,,,236,3,2025-03-12_11h27.53.545,comp,2024.2.4,60.04094054459514,2025-03-12 11h28.26.791663 -0400,
50,50,0,filler_square,None,None,None,None,None,None,None,None,None,None,2,1.39933443069458,None,,,,,0,0,0,0,0,50,50,176,147.0748245716095,,,,,,,,,,,,,,,,,,,,,,,,,,,,,,,,,,,,,,,,,,,,,,,,,,,,,,,,,,,,,,,,,,,,,,,,,,,,,,,,,62.90159732931483,85.17635929890582,132.66944103860843,132.66944103860843,103.38314501067404,123.75557031524218,2.2,2.22,-205,273,0,-289,224,-270,147.06023859977722,147.06028056144714,147.06280636787415,147.0748245716095,147.22470617294312,147.22470617294312,147.22470617294312,147.22470617294312,147.22470617294312,147.22470617294312,147.22470617294312,148.4925081729889,2,1.39933443069458,None,,,,,,,,,,,,,,,,,,236,3,2025-03-12_11h27.53.545,comp,2024.2.4,60.04094054459514,2025-03-12 11h28.26.791663 -0400,
51,51,0,critical,wdh,20.0,3.0,upper,125.0,200.0,141.0,141.0,200.0,125.0,1,1.5244669914245605,None,,,,,0,0,0,0,0,51,51,81,148.50795459747314,,,,,,,,,,,,,,,,,,,,,,,,,,,,,,,,,,,,,,,,,,,,,,,,,,,,,,,,,,,,,,,,,,,,,,,,,,,,,,,,,125.0,200.0,141.0,141.0,200.0,125.0,3.0,3.1,-266,268,0,-3,229,-274,148.49330043792725,148.49334025382996,148.49565935134888,148.50795459747314,148.6582601070404,148.6582601070404,148.6582601070404,148.6582601070404,148.6582601070404,148.6582601070404,148.6582601070404,150.0427439212799,1,1.5244669914245605,None,,,,,,,,,,,,,,,,,,236,3,2025-03-12_11h27.53.545,comp,2024.2.4,60.04094054459514,2025-03-12 11h28.26.791663 -0400,
52,52,0,critical,hdw,35.0,2.1,lower,133.0,57.0,70.0,70.0,57.0,133.0,3,2.7098641395568848,None,,,,,0,0,0,0,0,52,52,20,150.05818128585815,,,,,,,,,,,,,,,,,,,,,,,,,,,,,,,,,,,,,,,,,,,,,,,,,,,,,,,,,,,,,,,,,,,,,,,,,,,,,,,,,133.0,57.0,70.0,70.0,57.0,133.0,2.1,2.12,-160,-271,0,-250,198,262,150.043550491333,150.0435917377472,150.04592895507812,150.05818128585815,150.2080361843109,150.2080361843109,150.2080361843109,150.2080361843109,150.2080361843109,150.2080361843109,150.2080361843109,152.77584052085876,3,2.7098641395568848,None,,,,,,,,,,,,,,,,,,236,3,2025-03-12_11h27.53.545,comp,2024.2.4,60.04094054459514,2025-03-12 11h28.26.791663 -0400,
53,53,0,critical,hdw,35.0,2.1,upper,200.0,125.0,127.0,127.0,125.0,200.0,3,1.3838324546813965,None,,,,,0,0,0,0,0,53,53,45,152.79151272773743,,,,,,,,,,,,,,,,,,,,,,,,,,,,,,,,,,,,,,,,,,,,,,,,,,,,,,,,,,,,,,,,,,,,,,,,,,,,,,,,,200.0,125.0,127.0,127.0,125.0,200.0,2.1,2.11,-222,254,0,287,260,-279,152.7766740322113,152.7767174243927,152.77906799316406,152.79151272773743,152.94146990776062,152.94146990776062,152.94146990776062,152.94146990776062,152.94146990776062,152.94146990776062,152.94146990776062,154.19280982017517,3,1.3838324546813965,None,,,,,,,,,,,,,,,,,,236,3,2025-03-12_11h27.53.545,comp,2024.2.4,60.04094054459514,2025-03-12 11h28.26.791663 -0400,
54,54,0,critical,hwd,20.0,2.1,upper,200.0,125.0,125.0,200.0,141.0,141.0,2,1.4713869094848633,None,,,,,0,0,0,0,0,54,54,43,154.20791697502136,,,,,,,,,,,,,,,,,,,,,,,,,,,,,,,,,,,,,,,,,,,,,,,,,,,,,,,,,,,,,,,,,,,,,,,,,,,,,,,,,200.0,125.0,125.0,200.0,141.0,141.0,2.1,2.12,-258,-281,0,-250,266,252,154.1936366558075,154.1936776638031,154.1960949897766,154.20791697502136,154.358229637146,154.358229637146,154.358229637146,154.358229637146,154.358229637146,154.358229637146,154.358229637146,155.69278597831726,2,1.4713869094848633,None,,,,,,,,,,,,,,,,,,236,3,2025-03-12_11h27.53.545,comp,2024.2.4,60.04094054459514,2025-03-12 11h28.26.791663 -0400,
55,55,0,critical,hdw,20.0,4.0,upper,200.0,125.0,141.0,141.0,125.0,200.0,3,1.6441748142242432,None,,,,,0,0,0,0,0,55,55,119,155.70785546302795,,,,,,,,,,,,,,,,,,,,,,,,,,,,,,,,,,,,,,,,,,,,,,,,,,,,,,,,,,,,,,,,,,,,,,,,,,,,,,,,,200.0,125.0,141.0,141.0,125.0,200.0,4.0,4.1,-229,-284,0,-18,266,-258,155.6936113834381,155.69365239143372,155.69596600532532,155.70785546302795,155.85814476013184,155.85814476013184,155.85814476013184,155.85814476013184,155.85814476013184,155.85814476013184,155.85814476013184,157.3593966960907,3,1.6441748142242432,None,,,,,,,,,,,,,,,,,,236,3,2025-03-12_11h27.53.545,comp,2024.2.4,60.04094054459514,2025-03-12 11h28.26.791663 -0400,
56,56,0,filler_random,None,None,None,None,None,None,None,None,None,None,2,5.241559982299805,None,,,,,0,0,0,0,0,56,56,155,157.37474727630615,,,,,,,,,,,,,,,,,,,,,,,,,,,,,,,,,,,,,,,,,,,,,,,,,,,,,,,,,,,,,,,,,,,,,,,,,,,,,,,,,162.9450721481938,64.2610397581307,192.1875547571746,78.73939807298336,100.78735136641461,90.6704765843694,2.2,2.21,-168,-273,0,276,181,262,157.3603343963623,157.36037492752075,157.3627233505249,157.37474727630615,157.52461338043213,157.52461338043213,157.52461338043213,157.52461338043213,157.52461338043213,157.52461338043213,157.52461338043213,162.62576174736023,2,5.241559982299805,None,,,,,,,,,,,,,,,,,,236,3,2025-03-12_11h27.53.545,comp,2024.2.4,60.04094054459514,2025-03-12 11h28.26.791663 -0400,
57,57,0,critical,dwh,35.0,3.0,lower,70.0,70.0,57.0,133.0,133.0,57.0,2,2.654524087905884,None,,,,,0,0,0,0,0,57,57,62,162.64136171340942,,,,,,,,,,,,,,,,,,,,,,,,,,,,,,,,,,,,,,,,,,,,,,,,,,,,,,,,,,,,,,,,,,,,,,,,,,,,,,,,,70.0,70.0,57.0,133.0,133.0,57.0,3.0,3.2,-198,-268,0,20,191,286,162.6265630722046,162.6266040802002,162.62897419929504,162.64136171340942,162.79121804237366,162.79121804237366,162.79121804237366,162.79121804237366,162.79121804237366,162.79121804237366,162.79121804237366,165.30914187431335,2,2.654524087905884,None,,,,,,,,,,,,,,,,,,236,3,2025-03-12_11h27.53.545,comp,2024.2.4,60.04094054459514,2025-03-12 11h28.26.791663 -0400,
58,58,0,critical,hwd,35.0,1.0,lower,133.0,57.0,57.0,133.0,70.0,70.0,2,1.8506581783294678,None,,,,,0,0,0,0,0,58,58,96,165.324453830719,,,,,,,,,,,,,,,,,,,,,,,,,,,,,,,,,,,,,,,,,,,,,,,,,,,,,,,,,,,,,,,,,,,,,,,,,,,,,,,,,133.0,57.0,57.0,133.0,70.0,70.0,1.0,1.1,-671,288,-480,283,-282,270,165.30993366241455,165.30997347831726,165.3124418258667,165.324453830719,165.47461462020874,165.47461462020874,165.47461462020874,165.47461462020874,165.47461462020874,165.47461462020874,165.47461462020874,167.1922116279602,2,1.8506581783294678,None,,,,,,,,,,,,,,,,,,236,3,2025-03-12_11h27.53.545,comp,2024.2.4,60.04094054459514,2025-03-12 11h28.26.791663 -0400,
59,59,0,catch,None,None,None,None,None,None,None,None,None,None,1,1.2337634563446045,None,,,,,0,0,0,0,0,59,59,121,167.20768308639526,,,,,,,,,,,,,,,,,,,,,,,,,,,,,,,,,,,,,,,,,,,,,,,,,,,,,,,,,,,,,,,,,,,,,,,,,,,,,,,,,136,189,127,63,108,82,4.0,4.1,-222,-278,0,3,168,-253,167.19325184822083,167.19329380989075,167.19583368301392,167.20768308639526,167.35804772377014,167.35804772377014,167.35804772377014,167.35804772377014,167.35804772377014,167.35804772377014,167.35804772377014,168.45921230316162,1,1.2337634563446045,None,,,,,,,,,,,,,,,,,,236,3,2025-03-12_11h27.53.545,comp,2024.2.4,60.04094054459514,2025-03-12 11h28.26.791663 -0400,
60,60,0,filler_random,None,None,None,None,None,None,None,None,None,None,2,5.029668807983398,None,,,,,0,0,0,0,0,60,60,134,168.47442507743835,,,,,,,,,,,,,,,,,,,,,,,,,,,,,,,,,,,,,,,,,,,,,,,,,,,,,,,,,,,,,,,,,,,,,,,,,,,,,,,,,96.93656804088263,190.43721015829794,117.59978579864635,166.6396170142479,87.62265718252718,98.23536077413884,1.0,1.1,-755,256,-480,277,-252,274,168.46016001701355,168.4602017402649,168.46227741241455,168.47442507743835,168.62494826316833,168.62494826316833,168.62494826316833,168.62494826316833,168.62494826316833,168.62494826316833,168.62494826316833,173.50915050506592,2,5.029668807983398,None,,,,,,,,,,,,,,,,,,236,3,2025-03-12_11h27.53.545,comp,2024.2.4,60.04094054459514,2025-03-12 11h28.26.791663 -0400,
61,61,0,critical,hwd,20.0,2.1,lower,133.0,57.0,57.0,133.0,78.0,78.0,2,6.859377861022949,None,,,,,0,0,0,0,0,61,61,18,173.52456426620483,,,,,,,,,,,,,,,,,,,,,,,,,,,,,,,,,,,,,,,,,,,,,,,,,,,,,,,,,,,,,,,,,,,,,,,,,,,,,,,,,133.0,57.0,57.0,133.0,78.0,78.0,2.1,2.11,-191,262,0,282,202,-251,173.509938955307,173.50997805595398,173.5124909877777,173.52456426620483,173.6744623184204,173.6744623184204,173.6744623184204,173.6744623184204,173.6744623184204,173.6744623184204,173.6744623184204,180.39227604866028,2,6.859377861022949,None,,,,,,,,,,,,,,,,,,236,3,2025-03-12_11h27.53.545,comp,2024.2.4,60.04094054459514,2025-03-12 11h28.26.791663 -0400,
62,62,0,critical,whd,35.0,3.0,upper,125.0,200.0,200.0,125.0,127.0,127.0,1,3.8812575340270996,None,,,,,0,0,0,0,0,62,62,87,180.40791869163513,,,,,,,,,,,,,,,,,,,,,,,,,,,,,,,,,,,,,,,,,,,,,,,,,,,,,,,,,,,,,,,,,,,,,,,,,,,,,,,,,125.0,200.0,200.0,125.0,127.0,127.0,3.0,3.1,-258,267,0,-13,222,-282,180.39306712150574,180.39310956001282,180.39564609527588,180.40791869163513,180.55792593955994,180.55792593955994,180.55792593955994,180.55792593955994,180.55792593955994,180.55792593955994,180.55792593955994,184.29300212860107,1,3.8812575340270996,None,,,,,,,,,,,,,,,,,,236,3,2025-03-12_11h27.53.545,comp,2024.2.4,60.04094054459514,2025-03-12 11h28.26.791663 -0400,
63,63,0,filler_square,None,None,None,None,None,None,None,None,None,None,2,1.250842809677124,None,,,,,0,0,0,0,0,63,63,187,184.30820393562317,,,,,,,,,,,,,,,,,,,,,,,,,,,,,,,,,,,,,,,,,,,,,,,,,,,,,,,,,,,,,,,,,,,,,,,,,,,,,,,,,154.07529936744854,112.20228284814371,172.18029660474622,172.18029660474622,156.59984409461634,122.41990768678394,3.0,3.2,-238,-286,0,9,243,251,184.29397416114807,184.29401850700378,184.2960705757141,184.30820393562317,184.45807671546936,184.45807671546936,184.45807671546936,184.45807671546936,184.45807671546936,184.45807671546936,184.45807671546936,185.5756642818451,2,1.250842809677124,None,,,,,,,,,,,,,,,,,,236,3,2025-03-12_11h27.53.545,comp,2024.2.4,60.04094054459514,2025-03-12 11h28.26.791663 -0400,
64,64,0,critical,dwh,20.0,2.1,lower,78.0,78.0,57.0,133.0,133.0,57.0,2,2.392817735671997,None,,,,,0,0,0,0,0,64,64,30,185.5909390449524,,,,,,,,,,,,,,,,,,,,,,,,,,,,,,,,,,,,,,,,,,,,,,,,,,,,,,,,,,,,,,,,,,,,,,,,,,,,,,,,,78.0,78.0,57.0,133.0,133.0,57.0,2.1,2.12,-202,-268,0,-261,191,264,185.57649779319763,185.5765392780304,185.57887029647827,185.5909390449524,185.74103116989136,185.74103116989136,185.74103116989136,185.74103116989136,185.74103116989136,185.74103116989136,185.74103116989136,187.99210953712463,2,2.392817735671997,None,,,,,,,,,,,,,,,,,,236,3,2025-03-12_11h27.53.545,comp,2024.2.4,60.04094054459514,2025-03-12 11h28.26.791663 -0400,
65,65,0,critical,hdw,20.0,1.0,lower,133.0,57.0,78.0,78.0,57.0,133.0,3,1.4079394340515137,None,,,,,0,0,0,0,0,65,65,114,188.00786328315735,,,,,,,,,,,,,,,,,,,,,,,,,,,,,,,,,,,,,,,,,,,,,,,,,,,,,,,,,,,,,,,,,,,,,,,,,,,,,,,,,133.0,57.0,78.0,78.0,57.0,133.0,1.0,1.2,-164,-4,0,-15,202,4,187.99289870262146,187.9929394721985,187.99546074867249,188.00786328315735,188.1576633453369,188.1576633453369,188.1576633453369,188.1576633453369,188.1576633453369,188.1576633453369,188.1576633453369,189.42542219161987,3,1.4079394340515137,None,,,,,,,,,,,,,,,,,,236,3,2025-03-12_11h27.53.545,comp,2024.2.4,60.04094054459514,2025-03-12 11h28.26.791663 -0400,
66,66,0,critical,dwh,20.0,2.1,lower,78.0,78.0,57.0,133.0,133.0,57.0,2,2.0379090309143066,None,,,,,0,0,0,0,0,66,66,6,189.4411861896515,,,,,,,,,,,,,,,,,,,,,,,,,,,,,,,,,,,,,,,,,,,,,,,,,,,,,,,,,,,,,,,,,,,,,,,,,,,,,,,,,78.0,78.0,57.0,133.0,133.0,57.0,2.1,2.12,-202,-252,0,-275,191,280,189.42621874809265,189.42626023292542,189.42830848693848,189.4411861896515,189.59100580215454,189.59100580215454,189.59100580215454,189.59100580215454,189.59100580215454,189.59100580215454,189.59100580215454,191.49234247207642,2,2.0379090309143066,None,,,,,,,,,,,,,,,,,,236,3,2025-03-12_11h27.53.545,comp,2024.2.4,60.04094054459514,2025-03-12 11h28.26.791663 -0400,
67,67,0,critical,hdw,20.0,2.1,upper,200.0,125.0,141.0,141.0,125.0,200.0,3,1.89229154586792,None,,,,,0,0,0,0,0,67,67,23,191.50763177871704,,,,,,,,,,,,,,,,,,,,,,,,,,,,,,,,,,,,,,,,,,,,,,,,,,,,,,,,,,,,,,,,,,,,,,,,,,,,,,,,,200.0,125.0,141.0,141.0,125.0,200.0,2.1,2.12,-229,-289,0,-286,266,286,191.4931561946869,191.4931972026825,191.49665904045105,191.50763177871704,191.65783095359802,191.65783095359802,191.65783095359802,191.65783095359802,191.65783095359802,191.65783095359802,191.65783095359802,193.40916800498962,3,1.89229154586792,None,,,,,,,,,,,,,,,,,,236,3,2025-03-12_11h27.53.545,comp,2024.2.4,60.04094054459514,2025-03-12 11h28.26.791663 -0400,
68,68,0,critical,dhw,20.0,3.0,upper,141.0,141.0,200.0,125.0,125.0,200.0,3,3.9110360145568848,None,,,,,0,0,0,0,0,68,68,57,193.4246187210083,,,,,,,,,,,,,,,,,,,,,,,,,,,,,,,,,,,,,,,,,,,,,,,,,,,,,,,,,,,,,,,,,,,,,,,,,,,,,,,,,141.0,141.0,200.0,125.0,125.0,200.0,3.0,3.2,-229,-268,0,-16,258,250,193.4099977016449,193.41004037857056,193.4122200012207,193.4246187210083,193.57461953163147,193.57461953163147,193.57461953163147,193.57461953163147,193.57461953163147,193.57461953163147,193.57461953163147,197.34233379364014,3,3.9110360145568848,None,,,,,,,,,,,,,,,,,,236,3,2025-03-12_11h27.53.545,comp,2024.2.4,60.04094054459514,2025-03-12 11h28.26.791663 -0400,
69,69,0,filler_random,None,None,None,None,None,None,None,None,None,None,1,5.737818717956543,None,,,,,0,0,0,0,0,69,69,166,197.35780477523804,,,,,,,,,,,,,,,,,,,,,,,,,,,,,,,,,,,,,,,,,,,,,,,,,,,,,,,,,,,,,,,,,,,,,,,,,,,,,,,,,98.08656313985506,167.74393592242035,89.20749278045638,179.35008590560523,79.85616320398188,161.33062860193894,3.0,3.1,-270,274,0,-4,266,-265,197.34323358535767,197.34327387809753,197.34550166130066,197.35780477523804,197.50771594047546,197.50771594047546,197.50771594047546,197.50771594047546,197.50771594047546,197.50771594047546,197.50771594047546,203.10891342163086,1,5.737818717956543,None,,,,,,,,,,,,,,,,,,236,3,2025-03-12_11h27.53.545,comp,2024.2.4,60.04094054459514,2025-03-12 11h28.26.791663 -0400,
70,70,0,filler_square,None,None,None,None,None,None,None,None,None,None,1,2.732954978942871,None,,,,,0,0,0,0,0,70,70,180,203.12418246269226,,,,,,,,,,,,,,,,,,,,,,,,,,,,,,,,,,,,,,,,,,,,,,,,,,,,,,,,,,,,,,,,,,,,,,,,,,,,,,,,,88.31794071018444,88.31794071018444,64.86386131084218,60.34432901524794,69.27908319764268,66.31762782326904,2.2,2.21,-170,-280,0,280,159,257,203.1098837852478,203.10992574691772,203.1123285293579,203.12418246269226,203.27422881126404,203.27422881126404,203.27422881126404,203.27422881126404,203.27422881126404,203.27422881126404,203.27422881126404,205.858802318573,1,2.732954978942871,None,,,,,,,,,,,,,,,,,,236,3,2025-03-12_11h27.53.545,comp,2024.2.4,60.04094054459514,2025-03-12 11h28.26.791663 -0400,
71,71,0,critical,dhw,20.0,2.1,lower,78.0,78.0,133.0,57.0,57.0,133.0,3,3.757741689682007,None,,,,,0,0,0,0,0,71,71,26,205.8743703365326,,,,,,,,,,,,,,,,,,,,,,,,,,,,,,,,,,,,,,,,,,,,,,,,,,,,,,,,,,,,,,,,,,,,,,,,,,,,,,,,,78.0,78.0,133.0,57.0,57.0,133.0,2.1,2.11,-164,287,0,272,191,-265,205.8595929145813,205.85963439941406,205.8620104789734,205.8743703365326,206.02432417869568,206.02432417869568,206.02432417869568,206.02432417869568,206.02432417869568,206.02432417869568,206.02432417869568,209.64193725585938,3,3.757741689682007,None,,,,,,,,,,,,,,,,,,236,3,2025-03-12_11h27.53.545,comp,2024.2.4,60.04094054459514,2025-03-12 11h28.26.791663 -0400,
72,72,0,filler_square,None,None,None,None,None,None,None,None,None,None,1,2.285220146179199,None,,,,,0,0,0,0,0,72,72,207,209.6576759815216,,,,,,,,,,,,,,,,,,,,,,,,,,,,,,,,,,,,,,,,,,,,,,,,,,,,,,,,,,,,,,,,,,,,,,,,,,,,,,,,,89.44158478148452,89.44158478148452,89.21317452703455,71.46141799981083,83.33315697228272,62.34309376507238,1.0,1.3,304,-262,480,-268,643,-281,209.64293360710144,209.64297461509705,209.64542269706726,209.6576759815216,209.8076457977295,209.8076457977295,209.8076457977295,209.8076457977295,209.8076457977295,209.8076457977295,209.8076457977295,211.95869159698486,1,2.285220146179199,None,,,,,,,,,,,,,,,,,,236,3,2025-03-12_11h27.53.545,comp,2024.2.4,60.04094054459514,2025-03-12 11h28.26.791663 -0400,
73,73,0,catch,None,None,None,None,None,None,None,None,None,None,1,0.9455246925354004,None,,,,,0,0,0,0,0,73,73,124,211.97413086891174,,,,,,,,,,,,,,,,,,,,,,,,,,,,,,,,,,,,,,,,,,,,,,,,,,,,,,,,,,,,,,,,,,,,,,,,,,,,,,,,,155,170,92,98,71,119,3.0,3.1,-230,258,0,11,204,-283,211.95973873138428,211.95978116989136,211.9621500968933,211.97413086891174,212.12431478500366,212.12431478500366,212.12431478500366,212.12431478500366,212.12431478500366,212.12431478500366,212.12431478500366,212.92544722557068,1,0.9455246925354004,None,,,,,,,,,,,,,,,,,,236,3,2025-03-12_11h27.53.545,comp,2024.2.4,60.04094054459514,2025-03-12 11h28.26.791663 -0400,
74,74,0,filler_random,None,None,None,None,None,None,None,None,None,None,2,4.300021409988403,None,,,,,0,0,0,0,0,74,74,164,212.94100284576416,,,,,,,,,,,,,,,,,,,,,,,,,,,,,,,,,,,,,,,,,,,,,,,,,,,,,,,,,,,,,,,,,,,,,,,,,,,,,,,,,145.4105406842983,75.77686839009039,99.25417278951804,91.50012549743872,58.93657987861672,147.1615595979703,2.2,2.21,-180,-271,0,281,215,283,212.9263482093811,212.92638969421387,212.9286346435547,212.94100284576416,213.09086656570435,213.09086656570435,213.09086656570435,213.09086656570435,213.09086656570435,213.09086656570435,213.09086656570435,217.24215459823608,2,4.300021409988403,None,,,,,,,,,,,,,,,,,,236,3,2025-03-12_11h27.53.545,comp,2024.2.4,60.04094054459514,2025-03-12 11h28.26.791663 -0400,
75,75,0,critical,dwh,35.0,2.1,upper,127.0,127.0,125.0,200.0,200.0,125.0,2,4.215426206588745,None,,,,,0,0,0,0,0,75,75,5,217.2576551437378,,,,,,,,,,,,,,,,,,,,,,,,,,,,,,,,,,,,,,,,,,,,,,,,,,,,,,,,,,,,,,,,,,,,,,,,,,,,,,,,,127.0,127.0,125.0,200.0,200.0,125.0,2.1,2.12,-260,-257,0,-272,258,276,217.2429461479187,217.24298620224,217.24557662010193,217.2576551437378,217.40768575668335,217.40768575668335,217.40768575668335,217.40768575668335,217.40768575668335,217.40768575668335,217.40768575668335,221.47559595108032,2,4.215426206588745,None,,,,,,,,,,,,,,,,,,236,3,2025-03-12_11h27.53.545,comp,2024.2.4,60.04094054459514,2025-03-12 11h28.26.791663 -0400,
76,76,0,critical,whd,35.0,1.0,lower,57.0,133.0,133.0,57.0,70.0,70.0,1,2.7979953289031982,None,,,,,0,0,0,0,0,76,76,84,221.4911229610443,,,,,,,,,,,,,,,,,,,,,,,,,,,,,,,,,,,,,,,,,,,,,,,,,,,,,,,,,,,,,,,,,,,,,,,,,,,,,,,,,57.0,133.0,133.0,57.0,70.0,70.0,1.0,1.1,-671,286,-480,277,-320,286,221.47637343406677,221.47642874717712,221.47850799560547,221.4911229610443,221.6408669948578,221.6408669948578,221.6408669948578,221.6408669948578,221.6408669948578,221.6408669948578,221.6408669948578,224.2919638156891,1,2.7979953289031982,None,,,,,,,,,,,,,,,,,,236,3,2025-03-12_11h27.53.545,comp,2024.2.4,60.04094054459514,2025-03-12 11h28.26.791663 -0400,
77,77,0,critical,whd,20.0,2.1,upper,125.0,200.0,200.0,125.0,141.0,141.0,1,6.219041109085083,None,,,,,0,0,0,0,0,77,77,15,224.30768728256226,,,,,,,,,,,,,,,,,,,,,,,,,,,,,,,,,,,,,,,,,,,,,,,,,,,,,,,,,,,,,,,,,,,,,,,,,,,,,,,,,125.0,200.0,200.0,125.0,141.0,141.0,2.1,2.11,-258,288,0,268,229,-265,224.29277515411377,224.292818069458,224.29490089416504,224.30768728256226,224.4577178955078,224.4577178955078,224.4577178955078,224.4577178955078,224.4577178955078,224.4577178955078,224.4577178955078,230.54209685325623,1,6.219041109085083,None,,,,,,,,,,,,,,,,,,236,3,2025-03-12_11h27.53.545,comp,2024.2.4,60.04094054459514,2025-03-12 11h28.26.791663 -0400,
78,78,0,critical,hdw,20.0,1.0,upper,200.0,125.0,141.0,141.0,125.0,200.0,3,1.4893321990966797,None,,,,,0,0,0,0,0,78,78,115,230.55721354484558,,,,,,,,,,,,,,,,,,,,,,,,,,,,,,,,,,,,,,,,,,,,,,,,,,,,,,,,,,,,,,,,,,,,,,,,,,,,,,,,,200.0,125.0,141.0,141.0,125.0,200.0,1.0,1.2,-229,-7,0,4,266,18,230.5428433418274,230.54288148880005,230.5452423095703,230.55721354484558,230.70796394348145,230.70796394348145,230.70796394348145,230.70796394348145,230.70796394348145,230.70796394348145,230.70796394348145,232.0590660572052,3,1.4893321990966797,None,,,,,,,,,,,,,,,,,,236,3,2025-03-12_11h27.53.545,comp,2024.2.4,60.04094054459514,2025-03-12 11h28.26.791663 -0400,
79,79,0,filler_random,None,None,None,None,None,None,None,None,None,None,3,0.868877649307251,None,,,,,0,0,0,0,0,79,79,140,232.07401657104492,,,,,,,,,,,,,,,,,,,,,,,,,,,,,,,,,,,,,,,,,,,,,,,,,,,,,,,,,,,,,,,,,,,,,,,,,,,,,,,,,74.04812368920508,125.00955515558262,83.14901403032775,188.6778738006195,147.6876598204005,199.06552048951355,4.0,4.2,-253,-11,0,-281,290,-10,232.05999183654785,232.0600311756134,232.06202602386475,232.07401657104492,232.224214553833,232.224214553833,232.224214553833,232.224214553833,232.224214553833,232.224214553833,232.224214553833,232.95880389213562,3,0.868877649307251,None,,,,,,,,,,,,,,,,,,236,3,2025-03-12_11h27.53.545,comp,2024.2.4,60.04094054459514,2025-03-12 11h28.26.791663 -0400,
80,80,0,critical,dhw,35.0,2.1,lower,70.0,70.0,133.0,57.0,57.0,133.0,3,5.904751300811768,None,,,,,0,0,0,0,0,80,80,24,232.9739887714386,,,,,,,,,,,,,,,,,,,,,,,,,,,,,,,,,,,,,,,,,,,,,,,,,,,,,,,,,,,,,,,,,,,,,,,,,,,,,,,,,70.0,70.0,133.0,57.0,57.0,133.0,2.1,2.11,-160,287,0,262,191,-265,232.95960569381714,232.95964646339417,232.96203899383545,232.9739887714386,233.12411284446716,233.12411284446716,233.12411284446716,233.12411284446716,233.12411284446716,233.12411284446716,233.12411284446716,238.89174270629883,3,5.904751300811768,None,,,,,,,,,,,,,,,,,,236,3,2025-03-12_11h27.53.545,comp,2024.2.4,60.04094054459514,2025-03-12 11h28.26.791663 -0400,
81,81,0,filler_random,None,None,None,None,None,None,None,None,None,None,2,1.3659992218017578,None,,,,,0,0,0,0,0,81,81,144,238.9072620868683,,,,,,,,,,,,,,,,,,,,,,,,,,,,,,,,,,,,,,,,,,,,,,,,,,,,,,,,,,,,,,,,,,,,,,,,,,,,,,,,,110.6034302382555,120.72028961569168,110.70160796223774,182.12021434643304,63.46865644506096,137.44612103512372,2.2,2.22,-247,279,0,-279,256,-283,238.89264559745789,238.89268612861633,238.89507365226746,238.9072620868683,239.05747771263123,239.05747771263123,239.05747771263123,239.05747771263123,239.05747771263123,239.05747771263123,239.05747771263123,240.27524590492249,2,1.3659992218017578,None,,,,,,,,,,,,,,,,,,236,3,2025-03-12_11h27.53.545,comp,2024.2.4,60.04094054459514,2025-03-12 11h28.26.791663 -0400,
82,82,0,filler_random,None,None,None,None,None,None,None,None,None,None,3,1.4446301460266113,None,,,,,0,0,0,0,0,82,82,156,240.2907519340515,,,,,,,,,,,,,,,,,,,,,,,,,,,,,,,,,,,,,,,,,,,,,,,,,,,,,,,,,,,,,,,,,,,,,,,,,,,,,,,,,168.81067726263655,95.9747195088641,154.19348418405548,69.91721447591915,150.444852092722,142.68159260903494,2.2,2.21,-179,-269,0,272,202,289,240.27616596221924,240.27620720863342,240.27835154533386,240.2907519340515,240.441002368927,240.441002368927,240.441002368927,240.441002368927,240.441002368927,240.441002368927,240.441002368927,241.7418794631958,3,1.4446301460266113,None,,,,,,,,,,,,,,,,,,236,3,2025-03-12_11h27.53.545,comp,2024.2.4,60.04094054459514,2025-03-12 11h28.26.791663 -0400,
83,83,0,critical,dhw,20.0,2.1,upper,141.0,141.0,200.0,125.0,125.0,200.0,3,1.2174460887908936,None,,,,,0,0,0,0,0,83,83,27,241.75747847557068,,,,,,,,,,,,,,,,,,,,,,,,,,,,,,,,,,,,,,,,,,,,,,,,,,,,,,,,,,,,,,,,,,,,,,,,,,,,,,,,,141.0,141.0,200.0,125.0,125.0,200.0,2.1,2.11,-229,259,0,283,258,-275,241.74279046058655,241.74283289909363,241.7455117702484,241.75747847557068,241.9076418876648,241.9076418876648,241.9076418876648,241.9076418876648,241.9076418876648,241.9076418876648,241.9076418876648,242.99221324920654,3,1.2174460887908936,None,,,,,,,,,,,,,,,,,,236,3,2025-03-12_11h27.53.545,comp,2024.2.4,60.04094054459514,2025-03-12 11h28.26.791663 -0400,
84,84,0,critical,whd,35.0,2.1,upper,125.0,200.0,200.0,125.0,127.0,127.0,2,1.7281694412231445,None,,,,,0,0,0,0,0,84,84,37,243.0072627067566,,,,,,,,,,,,,,,,,,,,,,,,,,,,,,,,,,,,,,,,,,,,,,,,,,,,,,,,,,,,,,,,,,,,,,,,,,,,,,,,,125.0,200.0,200.0,125.0,127.0,127.0,2.1,2.11,-258,281,0,264,222,-277,242.9930284023285,242.99307107925415,242.99514484405518,243.0072627067566,243.15759468078613,243.15759468078613,243.15759468078613,243.15759468078613,243.15759468078613,243.15759468078613,243.15759468078613,244.74197006225586,2,1.7281694412231445,None,,,,,,,,,,,,,,,,,,236,3,2025-03-12_11h27.53.545,comp,2024.2.4,60.04094054459514,2025-03-12 11h28.26.791663 -0400,
85,85,0,critical,whd,20.0,1.0,lower,57.0,133.0,133.0,57.0,78.0,78.0,1,2.9780008792877197,None,,,,,0,0,0,0,0,85,85,90,244.7573802471161,,,,,,,,,,,,,,,,,,,,,,,,,,,,,,,,,,,,,,,,,,,,,,,,,,,,,,,,,,,,,,,,,,,,,,,,,,,,,,,,,57.0,133.0,133.0,57.0,78.0,78.0,1.0,1.2,-191,9,0,14,164,16,244.7427544593811,244.74279642105103,244.74523949623108,244.7573802471161,244.90726709365845,244.90726709365845,244.90726709365845,244.90726709365845,244.90726709365845,244.90726709365845,244.90726709365845,247.74178957939148,1,2.9780008792877197,None,,,,,,,,,,,,,,,,,,236,3,2025-03-12_11h27.53.545,comp,2024.2.4,60.04094054459514,2025-03-12 11h28.26.791663 -0400,
86,86,0,critical,dwh,35.0,1.0,upper,127.0,127.0,125.0,200.0,200.0,125.0,2,2.06677508354187,None,,,,,0,0,0,0,0,86,86,61,247.75757551193237,,,,,,,,,,,,,,,,,,,,,,,,,,,,,,,,,,,,,,,,,,,,,,,,,,,,,,,,,,,,,,,,,,,,,,,,,,,,,,,,,127.0,127.0,125.0,200.0,200.0,125.0,1.0,1.3,220,-280,480,-272,738,-270,247.74255323410034,247.74259448051453,247.74490022659302,247.75757551193237,247.90757513046265,247.90757513046265,247.90757513046265,247.90757513046265,247.90757513046265,247.90757513046265,247.90757513046265,249.84228348731995,2,2.06677508354187,None,,,,,,,,,,,,,,,,,,236,3,2025-03-12_11h27.53.545,comp,2024.2.4,60.04094054459514,2025-03-12 11h28.26.791663 -0400,
87,87,0,critical,dwh,35.0,2.1,lower,70.0,70.0,57.0,133.0,133.0,57.0,2,4.926133871078491,None,,,,,0,0,0,0,0,87,87,28,249.8571937084198,,,,,,,,,,,,,,,,,,,,,,,,,,,,,,,,,,,,,,,,,,,,,,,,,,,,,,,,,,,,,,,,,,,,,,,,,,,,,,,,,70.0,70.0,57.0,133.0,133.0,57.0,2.1,2.12,-198,-283,0,-282,191,263,249.84306120872498,249.84310054779053,249.8455445766449,249.8571937084198,250.007257938385,250.007257938385,250.007257938385,250.007257938385,250.007257938385,250.007257938385,250.007257938385,254.7917356491089,2,4.926133871078491,None,,,,,,,,,,,,,,,,,,236,3,2025-03-12_11h27.53.545,comp,2024.2.4,60.04094054459514,2025-03-12 11h28.26.791663 -0400,
88,88,0,critical,whd,35.0,2.1,upper,125.0,200.0,200.0,125.0,127.0,127.0,1,1.5032787322998047,None,,,,,0,0,0,0,0,88,88,13,254.8074631690979,,,,,,,,,,,,,,,,,,,,,,,,,,,,,,,,,,,,,,,,,,,,,,,,,,,,,,,,,,,,,,,,,,,,,,,,,,,,,,,,,125.0,200.0,200.0,125.0,127.0,127.0,2.1,2.12,-258,-274,0,-270,222,283,254.79253482818604,254.79257726669312,254.79496455192566,254.8074631690979,254.95746779441833,254.95746779441833,254.95746779441833,254.95746779441833,254.95746779441833,254.95746779441833,254.95746779441833,256.3252303600311,1,1.5032787322998047,None,,,,,,,,,,,,,,,,,,236,3,2025-03-12_11h27.53.545,comp,2024.2.4,60.04094054459514,2025-03-12 11h28.26.791663 -0400,
89,89,0,critical,whd,20.0,2.1,lower,57.0,133.0,133.0,57.0,78.0,78.0,1,2.426907539367676,None,,,,,0,0,0,0,0,89,89,14,256.3404405117035,,,,,,,,,,,,,,,,,,,,,,,,,,,,,,,,,,,,,,,,,,,,,,,,,,,,,,,,,,,,,,,,,,,,,,,,,,,,,,,,,57.0,133.0,133.0,57.0,78.0,78.0,2.1,2.11,-191,270,0,257,164,-288,256.32604002952576,256.32608103752136,256.3285799026489,256.3404405117035,256.49057149887085,256.49057149887085,256.49057149887085,256.49057149887085,256.49057149887085,256.49057149887085,256.49057149887085,258.774906873703,1,2.426907539367676,None,,,,,,,,,,,,,,,,,,236,3,2025-03-12_11h27.53.545,comp,2024.2.4,60.04094054459514,2025-03-12 11h28.26.791663 -0400,
90,90,0,critical,hdw,20.0,2.1,lower,133.0,57.0,78.0,78.0,57.0,133.0,3,6.440878629684448,None,,,,,0,0,0,0,0,90,90,22,258.7907238006592,,,,,,,,,,,,,,,,,,,,,,,,,,,,,,,,,,,,,,,,,,,,,,,,,,,,,,,,,,,,,,,,,,,,,,,,,,,,,,,,,133.0,57.0,78.0,78.0,57.0,133.0,2.1,2.12,-164,-271,0,-268,202,279,258.7756917476654,258.77573323249817,258.7777681350708,258.7907238006592,258.94093680381775,258.94093680381775,258.94093680381775,258.94093680381775,258.94093680381775,258.94093680381775,258.94093680381775,265.24161410331726,3,6.440878629684448,None,,,,,,,,,,,,,,,,,,236,3,2025-03-12_11h27.53.545,comp,2024.2.4,60.04094054459514,2025-03-12 11h28.26.791663 -0400,
91,91,0,catch,None,None,None,None,None,None,None,None,None,None,2,1.0211851596832275,None,,,,,0,0,0,0,0,91,91,120,265.2573153972626,,,,,,,,,,,,,,,,,,,,,,,,,,,,,,,,,,,,,,,,,,,,,,,,,,,,,,,,,,,,,,,,,,,,,,,,,,,,,,,,,91,99,155,170,109,81,3.0,3.2,-230,-264,0,-15,222,263,265.2426438331604,265.242684841156,265.2451114654541,265.2573153972626,265.40729308128357,265.40729308128357,265.40729308128357,265.40729308128357,265.40729308128357,265.40729308128357,265.40729308128357,266.29173254966736,2,1.0211851596832275,None,,,,,,,,,,,,,,,,,,236,3,2025-03-12_11h27.53.545,comp,2024.2.4,60.04094054459514,2025-03-12 11h28.26.791663 -0400,
92,92,0,filler_random,None,None,None,None,None,None,None,None,None,None,1,0.9881396293640137,None,,,,,0,0,0,0,0,92,92,161,266.30703020095825,,,,,,,,,,,,,,,,,,,,,,,,,,,,,,,,,,,,,,,,,,,,,,,,,,,,,,,,,,,,,,,,,,,,,,,,,,,,,,,,,194.80368848734076,169.93822515845636,156.77589272731427,106.55951007768854,69.94065156023858,77.01994635483894,2.1,2.11,-234,257,0,257,188,-288,266.2926437854767,266.2926857471466,266.2950358390808,266.30703020095825,266.45751094818115,266.45751094818115,266.45751094818115,266.45751094818115,266.45751094818115,266.45751094818115,266.45751094818115,267.3083770275116,1,0.9881396293640137,None,,,,,,,,,,,,,,,,,,236,3,2025-03-12_11h27.53.545,comp,2024.2.4,60.04094054459514,2025-03-12 11h28.26.791663 -0400,
93,93,0,filler_random,None,None,None,None,None,None,None,None,None,None,3,1.475421667098999,None,,,,,0,0,0,0,0,93,93,152,267.3237233161926,,,,,,,,,,,,,,,,,,,,,,,,,,,,,,,,,,,,,,,,,,,,,,,,,,,,,,,,,,,,,,,,,,,,,,,,,,,,,,,,,74.69768086957836,70.67837137572148,64.66532011355736,102.59147455151027,104.43118533059322,110.23832918411503,2.1,2.12,-183,-277,0,-251,202,258,267.3093008995056,267.3093411922455,267.3113603591919,267.3237233161926,267.47391080856323,267.47391080856323,267.47391080856323,267.47391080856323,267.47391080856323,267.47391080856323,267.47391080856323,268.80829644203186,3,1.475421667098999,None,,,,,,,,,,,,,,,,,,236,3,2025-03-12_11h27.53.545,comp,2024.2.4,60.04094054459514,2025-03-12 11h28.26.791663 -0400,
94,94,0,critical,dwh,35.0,2.1,upper,127.0,127.0,125.0,200.0,200.0,125.0,2,1.7752857208251953,None,,,,,0,0,0,0,0,94,94,29,268.8239378929138,,,,,,,,,,,,,,,,,,,,,,,,,,,,,,,,,,,,,,,,,,,,,,,,,,,,,,,,,,,,,,,,,,,,,,,,,,,,,,,,,127.0,127.0,125.0,200.0,200.0,125.0,2.1,2.12,-260,-265,0,-288,258,289,268.80910873413086,268.80915093421936,268.8113098144531,268.8239378929138,268.9741380214691,268.9741380214691,268.9741380214691,268.9741380214691,268.9741380214691,268.9741380214691,268.9741380214691,270.60845494270325,2,1.7752857208251953,None,,,,,,,,,,,,,,,,,,236,3,2025-03-12_11h27.53.545,comp,2024.2.4,60.04094054459514,2025-03-12 11h28.26.791663 -0400,
95,95,0,critical,dhw,20.0,2.1,lower,78.0,78.0,133.0,57.0,57.0,133.0,3,5.191622018814087,None,,,,,0,0,0,0,0,95,95,2,270.6239318847656,,,,,,,,,,,,,,,,,,,,,,,,,,,,,,,,,,,,,,,,,,,,,,,,,,,,,,,,,,,,,,,,,,,,,,,,,,,,,,,,,78.0,78.0,133.0,57.0,57.0,133.0,2.1,2.12,-164,-260,0,-259,191,264,270.6091959476471,270.60923743247986,270.6113784313202,270.6239318847656,270.7738080024719,270.7738080024719,270.7738080024719,270.7738080024719,270.7738080024719,270.7738080024719,270.7738080024719,275.82484006881714,3,5.191622018814087,None,,,,,,,,,,,,,,,,,,236,3,2025-03-12_11h27.53.545,comp,2024.2.4,60.04094054459514,2025-03-12 11h28.26.791663 -0400,
96,96,0,filler_square,None,None,None,None,None,None,None,None,None,None,1,1.0946526527404785,None,,,,,0,0,0,0,0,96,96,171,275.84055185317993,,,,,,,,,,,,,,,,,,,,,,,,,,,,,,,,,,,,,,,,,,,,,,,,,,,,,,,,,,,,,,,,,,,,,,,,,,,,,,,,,175.52542522533096,175.52542522533096,81.15732537564509,110.77716257644556,68.92588714549723,131.35923274179848,1.0,1.3,241,-264,480,-269,697,-252,275.82579278945923,275.8258330821991,275.82818603515625,275.84055185317993,275.99062728881836,275.99062728881836,275.99062728881836,275.99062728881836,275.99062728881836,275.99062728881836,275.99062728881836,276.9417769908905,1,1.0946526527404785,None,,,,,,,,,,,,,,,,,,236,3,2025-03-12_11h27.53.545,comp,2024.2.4,60.04094054459514,2025-03-12 11h28.26.791663 -0400,
97,97,0,critical,hdw,35.0,4.0,lower,133.0,57.0,70.0,70.0,57.0,133.0,3,6.715298414230347,None,,,,,0,0,0,0,0,97,97,112,276.95732736587524,,,,,,,,,,,,,,,,,,,,,,,,,,,,,,,,,,,,,,,,,,,,,,,,,,,,,,,,,,,,,,,,,,,,,,,,,,,,,,,,,133.0,57.0,70.0,70.0,57.0,133.0,4.0,4.1,-160,-273,0,-20,198,-273,276.9425685405731,276.94261145591736,276.9449985027313,276.95732736587524,277.10747027397156,277.10747027397156,277.10747027397156,277.10747027397156,277.10747027397156,277.10747027397156,277.10747027397156,283.6749827861786,3,6.715298414230347,None,,,,,,,,,,,,,,,,,,236,3,2025-03-12_11h27.53.545,comp,2024.2.4,60.04094054459514,2025-03-12 11h28.26.791663 -0400,
98,98,0,filler_square,None,None,None,None,None,None,None,None,None,None,2,2.2136051654815674,None,,,,,0,0,0,0,0,98,98,206,283.69048953056335,,,,,,,,,,,,,,,,,,,,,,,,,,,,,,,,,,,,,,,,,,,,,,,,,,,,,,,,,,,,,,,,,,,,,,,,,,,,,,,,,69.15398176419595,65.83880649796657,76.662445969437,76.662445969437,61.89426098855884,60.48476418739957,2.2,2.22,-167,285,0,-256,165,-259,283.6759786605835,283.67602133750916,283.6781051158905,283.69048953056335,283.8406481742859,283.8406481742859,283.8406481742859,283.8406481742859,283.8406481742859,283.8406481742859,283.8406481742859,285.9082353115082,2,2.2136051654815674,None,,,,,,,,,,,,,,,,,,236,3,2025-03-12_11h27.53.545,comp,2024.2.4,60.04094054459514,2025-03-12 11h28.26.791663 -0400,
99,99,0,filler_square,None,None,None,None,None,None,None,None,None,None,2,1.7149429321289062,None,,,,,0,0,0,0,0,99,99,179,285.92576146125793,,,,,,,,,,,,,,,,,,,,,,,,,,,,,,,,,,,,,,,,,,,,,,,,,,,,,,,,,,,,,,,,,,,,,,,,,,,,,,,,,153.9468327777018,136.61363427702537,168.20704855226387,168.20704855226387,140.2152159406234,64.26544406618562,1.0,1.2,-248,-3,0,6,212,-6,285.90915083885193,285.9091920852661,285.91287875175476,285.92576146125793,286.07384395599365,286.07384395599365,286.07384395599365,286.07384395599365,286.07384395599365,286.07384395599365,286.07384395599365,287.6583638191223,2,1.7149429321289062,None,,,,,,,,,,,,,,,,,,236,3,2025-03-12_11h27.53.545,comp,2024.2.4,60.04094054459514,2025-03-12 11h28.26.791663 -0400,
100,100,0,critical,hwd,35.0,3.0,upper,200.0,125.0,125.0,200.0,127.0,127.0,2,3.7726023197174072,None,,,,,0,0,0,0,0,100,100,99,287.67354464530945,,,,,,,,,,,,,,,,,,,,,,,,,,,,,,,,,,,,,,,,,,,,,,,,,,,,,,,,,,,,,,,,,,,,,,,,,,,,,,,,,200.0,125.0,125.0,200.0,127.0,127.0,3.0,3.2,-258,-266,0,16,260,277,287.6591360569,287.6591763496399,287.6612823009491,287.67354464530945,287.8239884376526,287.8239884376526,287.8239884376526,287.8239884376526,287.8239884376526,287.8239884376526,287.8239884376526,291.45873498916626,2,3.7726023197174072,None,,,,,,,,,,,,,,,,,,236,3,2025-03-12_11h27.53.545,comp,2024.2.4,60.04094054459514,2025-03-12 11h28.26.791663 -0400,
101,101,0,filler_random,None,None,None,None,None,None,None,None,None,None,1,1.0292494297027588,None,,,,,0,0,0,0,0,101,101,148,291.4740221500397,,,,,,,,,,,,,,,,,,,,,,,,,,,,,,,,,,,,,,,,,,,,,,,,,,,,,,,,,,,,,,,,,,,,,,,,,,,,,,,,,186.13419614981896,198.46036326754253,170.0948965029588,169.72213475004503,91.51862217536225,196.14414315067972,1.0,1.3,200,-252,480,-276,759,-268,291.4596447944641,291.45968532562256,291.4629735946655,291.4740221500397,291.62419843673706,291.62419843673706,291.62419843673706,291.62419843673706,291.62419843673706,291.62419843673706,291.62419843673706,292.508487701416,1,1.0292494297027588,None,,,,,,,,,,,,,,,,,,236,3,2025-03-12_11h27.53.545,comp,2024.2.4,60.04094054459514,2025-03-12 11h28.26.791663 -0400,
102,102,0,critical,dwh,35.0,4.0,lower,70.0,70.0,57.0,133.0,133.0,57.0,2,3.075308084487915,None,,,,,0,0,0,0,0,102,102,64,292.5237717628479,,,,,,,,,,,,,,,,,,,,,,,,,,,,,,,,,,,,,,,,,,,,,,,,,,,,,,,,,,,,,,,,,,,,,,,,,,,,,,,,,70.0,70.0,57.0,133.0,133.0,57.0,4.0,4.1,-198,-281,0,-13,191,-273,292.50925159454346,292.5092935562134,292.51157808303833,292.5237717628479,292.6739857196808,292.6739857196808,292.6739857196808,292.6739857196808,292.6739857196808,292.6739857196808,292.6739857196808,295.6079957485199,2,3.075308084487915,None,,,,,,,,,,,,,,,,,,236,3,2025-03-12_11h27.53.545,comp,2024.2.4,60.04094054459514,2025-03-12 11h28.26.791663 -0400,
103,103,0,filler_random,None,None,None,None,None,None,None,None,None,None,1,2.033144235610962,None,,,,,0,0,0,0,0,103,103,138,295.6237692832947,,,,,,,,,,,,,,,,,,,,,,,,,,,,,,,,,,,,,,,,,,,,,,,,,,,,,,,,,,,,,,,,,,,,,,,,,,,,,,,,,78.59327018343447,130.69809116745904,69.45651276139697,103.19344188822822,64.78590246559675,102.78624842860634,3.0,3.1,-213,277,0,14,199,-283,295.6089057922363,295.6089482307434,295.6114311218262,295.6237692832947,295.77391815185547,295.77391815185547,295.77391815185547,295.77391815185547,295.77391815185547,295.77391815185547,295.77391815185547,297.65824818611145,1,2.033144235610962,None,,,,,,,,,,,,,,,,,,236,3,2025-03-12_11h27.53.545,comp,2024.2.4,60.04094054459514,2025-03-12 11h28.26.791663 -0400,
104,104,0,critical,dhw,20.0,2.1,upper,141.0,141.0,200.0,125.0,125.0,200.0,3,2.7668375968933105,None,,,,,0,0,0,0,0,104,104,3,297.6737859249115,,,,,,,,,,,,,,,,,,,,,,,,,,,,,,,,,,,,,,,,,,,,,,,,,,,,,,,,,,,,,,,,,,,,,,,,,,,,,,,,,141.0,141.0,200.0,125.0,125.0,200.0,2.1,2.12,-229,-279,0,-264,258,269,297.6590609550476,297.65910291671753,297.661119222641,297.6737859249115,297.8238980770111,297.8238980770111,297.8238980770111,297.8238980770111,297.8238980770111,297.8238980770111,297.8238980770111,300.4418408870697,3,2.7668375968933105,None,,,,,,,,,,,,,,,,,,236,3,2025-03-12_11h27.53.545,comp,2024.2.4,60.04094054459514,2025-03-12 11h28.26.791663 -0400,
105,105,0,critical,whd,20.0,4.0,lower,57.0,133.0,133.0,57.0,78.0,78.0,1,5.166524410247803,None,,,,,0,0,0,0,0,105,105,94,300.4571809768677,,,,,,,,,,,,,,,,,,,,,,,,,,,,,,,,,,,,,,,,,,,,,,,,,,,,,,,,,,,,,,,,,,,,,,,,,,,,,,,,,57.0,133.0,133.0,57.0,78.0,78.0,4.0,4.2,-191,-13,0,-261,164,-20,300.4426357746124,300.4426772594452,300.4447124004364,300.4571809768677,300.60695028305054,300.60695028305054,300.60695028305054,300.60695028305054,300.60695028305054,300.60695028305054,300.60695028305054,305.64136147499084,1,5.166524410247803,None,,,,,,,,,,,,,,,,,,236,3,2025-03-12_11h27.53.545,comp,2024.2.4,60.04094054459514,2025-03-12 11h28.26.791663 -0400,
106,106,0,critical,wdh,35.0,3.0,lower,57.0,133.0,70.0,70.0,133.0,57.0,2,1.9101836681365967,None,,,,,0,0,0,0,0,106,106,74,305.65673422813416,,,,,,,,,,,,,,,,,,,,,,,,,,,,,,,,,,,,,,,,,,,,,,,,,,,,,,,,,,,,,,,,,,,,,,,,,,,,,,,,,57.0,133.0,70.0,70.0,133.0,57.0,3.0,3.1,-198,270,0,-6,160,-272,305.64216804504395,305.6422085762024,305.64420342445374,305.65673422813416,305.8068733215332,305.8068733215332,305.8068733215332,305.8068733215332,305.8068733215332,305.8068733215332,305.8068733215332,307.57471108436584,2,1.9101836681365967,None,,,,,,,,,,,,,,,,,,236,3,2025-03-12_11h27.53.545,comp,2024.2.4,60.04094054459514,2025-03-12 11h28.26.791663 -0400,
107,107,0,critical,hwd,35.0,2.1,upper,200.0,125.0,125.0,200.0,127.0,127.0,2,1.9284884929656982,None,,,,,0,0,0,0,0,107,107,17,307.59041357040405,,,,,,,,,,,,,,,,,,,,,,,,,,,,,,,,,,,,,,,,,,,,,,,,,,,,,,,,,,,,,,,,,,,,,,,,,,,,,,,,,200.0,125.0,125.0,200.0,127.0,127.0,2.1,2.12,-258,-280,0,-274,260,289,307.5755443572998,307.5755865573883,307.5778946876526,307.59041357040405,307.74043822288513,307.74043822288513,307.74043822288513,307.74043822288513,307.74043822288513,307.74043822288513,307.74043822288513,309.5249445438385,2,1.9284884929656982,None,,,,,,,,,,,,,,,,,,236,3,2025-03-12_11h27.53.545,comp,2024.2.4,60.04094054459514,2025-03-12 11h28.26.791663 -0400,
108,108,0,filler_square,None,None,None,None,None,None,None,None,None,None,2,1.290588140487671,None,,,,,0,0,0,0,0,108,108,178,309.54079961776733,,,,,,,,,,,,,,,,,,,,,,,,,,,,,,,,,,,,,,,,,,,,,,,,,,,,,,,,,,,,,,,,,,,,,,,,,,,,,,,,,59.15442155763549,69.49597991231681,95.74354278264357,95.74354278264357,60.720815224779656,75.74970554729086,1.0,1.1,-659,281,-480,285,-298,257,309.52591848373413,309.5259599685669,309.5280125141144,309.54079961776733,309.6906096935272,309.6906096935272,309.6906096935272,309.6906096935272,309.6906096935272,309.6906096935272,309.6906096935272,310.84117674827576,2,1.290588140487671,None,,,,,,,,,,,,,,,,,,236,3,2025-03-12_11h27.53.545,comp,2024.2.4,60.04094054459514,2025-03-12 11h28.26.791663 -0400,
109,109,0,filler_random,None,None,None,None,None,None,None,None,None,None,2,2.078211784362793,None,,,,,0,0,0,0,0,109,109,133,310.8569052219391,,,,,,,,,,,,,,,,,,,,,,,,,,,,,,,,,,,,,,,,,,,,,,,,,,,,,,,,,,,,,,,,,,,,,,,,,,,,,,,,,61.67741708914885,138.64040236353327,177.98637926720102,71.67747719161093,86.95533591028541,62.3870722173685,3.0,3.1,-201,278,0,-15,163,-273,310.84210181236267,310.84214425086975,310.84468817710876,310.8569052219391,311.0068259239197,311.0068259239197,311.0068259239197,311.0068259239197,311.0068259239197,311.0068259239197,311.0068259239197,312.94136023521423,2,2.078211784362793,None,,,,,,,,,,,,,,,,,,236,3,2025-03-12_11h27.53.545,comp,2024.2.4,60.04094054459514,2025-03-12 11h28.26.791663 -0400,
110,110,0,filler_square,None,None,None,None,None,None,None,None,None,None,3,2.066891670227051,None,,,,,0,0,0,0,0,110,110,184,312.95702838897705,,,,,,,,,,,,,,,,,,,,,,,,,,,,,,,,,,,,,,,,,,,,,,,,,,,,,,,,,,,,,,,,,,,,,,,,,,,,,,,,,126.12614829459625,97.91998603407322,167.8547071581067,177.78607148855662,190.81159377049178,190.81159377049178,4.0,4.1,-234,-267,0,0,280,-273,312.9422996044159,312.9423396587372,312.94435024261475,312.95702838897705,313.1070728302002,313.1070728302002,313.1070728302002,313.1070728302002,313.1070728302002,313.1070728302002,313.1070728302002,315.04172563552856,3,2.066891670227051,None,,,,,,,,,,,,,,,,,,236,3,2025-03-12_11h27.53.545,comp,2024.2.4,60.04094054459514,2025-03-12 11h28.26.791663 -0400,
111,111,0,filler_square,None,None,None,None,None,None,None,None,None,None,3,1.0213353633880615,None,,,,,0,0,0,0,0,111,111,174,315.0567982196808,,,,,,,,,,,,,,,,,,,,,,,,,,,,,,,,,,,,,,,,,,,,,,,,,,,,,,,,,,,,,,,,,,,,,,,,,,,,,,,,,70.43890913793302,115.36039398527258,156.5696134685587,66.5349479357181,190.97942624739068,190.97942624739068,3.0,3.2,-187,-275,0,15,225,265,315.0427281856537,315.04277062416077,315.04492449760437,315.0567982196808,315.2070748806,315.2070748806,315.2070748806,315.2070748806,315.2070748806,315.2070748806,315.2070748806,316.09139370918274,3,1.0213353633880615,None,,,,,,,,,,,,,,,,,,236,3,2025-03-12_11h27.53.545,comp,2024.2.4,60.04094054459514,2025-03-12 11h28.26.791663 -0400,
112,112,0,critical,hwd,35.0,1.0,upper,200.0,125.0,125.0,200.0,127.0,127.0,2,3.5337486267089844,None,,,,,0,0,0,0,0,112,112,97,316.1067006587982,,,,,,,,,,,,,,,,,,,,,,,,,,,,,,,,,,,,,,,,,,,,,,,,,,,,,,,,,,,,,,,,,,,,,,,,,,,,,,,,,200.0,125.0,125.0,200.0,127.0,127.0,1.0,1.3,222,-258,480,-262,740,-271,316.0921881198883,316.09222745895386,316.0942528247833,316.1067006587982,316.2570583820343,316.2570583820343,316.2570583820343,316.2570583820343,316.2570583820343,316.2570583820343,316.2570583820343,319.6580753326416,2,3.5337486267089844,None,,,,,,,,,,,,,,,,,,236,3,2025-03-12_11h27.53.545,comp,2024.2.4,60.04094054459514,2025-03-12 11h28.26.791663 -0400,
113,113,0,critical,wdh,35.0,4.0,lower,57.0,133.0,70.0,70.0,133.0,57.0,1,3.9501259326934814,None,,,,,0,0,0,0,0,113,113,76,319.6734483242035,,,,,,,,,,,,,,,,,,,,,,,,,,,,,,,,,,,,,,,,,,,,,,,,,,,,,,,,,,,,,,,,,,,,,,,,,,,,,,,,,57.0,133.0,70.0,70.0,133.0,57.0,4.0,4.2,-198,12,0,-259,160,-16,319.6588773727417,319.6589186191559,319.6618995666504,319.6734483242035,319.8235025405884,319.8235025405884,319.8235025405884,319.8235025405884,319.8235025405884,319.8235025405884,319.8235025405884,323.6247580051422,1,3.9501259326934814,None,,,,,,,,,,,,,,,,,,236,3,2025-03-12_11h27.53.545,comp,2024.2.4,60.04094054459514,2025-03-12 11h28.26.791663 -0400,
114,114,0,critical,hwd,20.0,4.0,lower,133.0,57.0,57.0,133.0,78.0,78.0,1,4.15862774848938,None,,,,,0,0,0,0,0,114,114,106,323.6402416229248,,,,,,,,,,,,,,,,,,,,,,,,,,,,,,,,,,,,,,,,,,,,,,,,,,,,,,,,,,,,,,,,,,,,,,,,,,,,,,,,,133.0,57.0,57.0,133.0,78.0,78.0,4.0,4.1,-191,-276,0,12,202,-269,323.6255383491516,323.6255805492401,323.6278750896454,323.6402416229248,323.7902855873108,323.7902855873108,323.7902855873108,323.7902855873108,323.7902855873108,323.7902855873108,323.7902855873108,327.80791425704956,1,4.15862774848938,None,,,,,,,,,,,,,,,,,,236,3,2025-03-12_11h27.53.545,comp,2024.2.4,60.04094054459514,2025-03-12 11h28.26.791663 -0400,
115,115,0,critical,whd,20.0,3.0,upper,125.0,200.0,200.0,125.0,141.0,141.0,1,3.5752646923065186,None,,,,,0,0,0,0,0,115,115,93,327.8234899044037,,,,,,,,,,,,,,,,,,,,,,,,,,,,,,,,,,,,,,,,,,,,,,,,,,,,,,,,,,,,,,,,,,,,,,,,,,,,,,,,,125.0,200.0,200.0,125.0,141.0,141.0,3.0,3.1,-258,262,0,-9,229,-268,327.80873465538025,327.80877590179443,327.81112408638,327.8234899044037,327.9736740589142,327.9736740589142,327.9736740589142,327.9736740589142,327.9736740589142,327.9736740589142,327.9736740589142,331.4080419540405,1,3.5752646923065186,None,,,,,,,,,,,,,,,,,,236,3,2025-03-12_11h27.53.545,comp,2024.2.4,60.04094054459514,2025-03-12 11h28.26.791663 -0400,
116,116,0,critical,wdh,20.0,2.1,lower,57.0,133.0,78.0,78.0,133.0,57.0,1,2.6076557636260986,None,,,,,0,0,0,0,0,116,116,10,331.4235932826996,,,,,,,,,,,,,,,,,,,,,,,,,,,,,,,,,,,,,,,,,,,,,,,,,,,,,,,,,,,,,,,,,,,,,,,,,,,,,,,,,57.0,133.0,78.0,78.0,133.0,57.0,2.1,2.12,-202,-261,0,-286,164,283,331.4088616371155,331.40890312194824,331.41088819503784,331.4235932826996,331.5734283924103,331.5734283924103,331.5734283924103,331.5734283924103,331.5734283924103,331.5734283924103,331.5734283924103,334.0410463809967,1,2.6076557636260986,None,,,,,,,,,,,,,,,,,,236,3,2025-03-12_11h27.53.545,comp,2024.2.4,60.04094054459514,2025-03-12 11h28.26.791663 -0400,
117,117,0,critical,hwd,20.0,3.0,upper,200.0,125.0,125.0,200.0,141.0,141.0,2,2.085149049758911,None,,,,,0,0,0,0,0,117,117,105,334.05689334869385,,,,,,,,,,,,,,,,,,,,,,,,,,,,,,,,,,,,,,,,,,,,,,,,,,,,,,,,,,,,,,,,,,,,,,,,,,,,,,,,,200.0,125.0,125.0,200.0,141.0,141.0,3.0,3.2,-258,-286,0,-11,266,253,334.04181432724,334.04185461997986,334.0442566871643,334.05689334869385,334.2069261074066,334.2069261074066,334.2069261074066,334.2069261074066,334.2069261074066,334.2069261074066,334.2069261074066,336.15800857543945,2,2.085149049758911,None,,,,,,,,,,,,,,,,,,236,3,2025-03-12_11h27.53.545,comp,2024.2.4,60.04094054459514,2025-03-12 11h28.26.791663 -0400,
118,118,0,critical,dhw,35.0,4.0,upper,127.0,127.0,200.0,125.0,125.0,200.0,3,2.4415080547332764,None,,,,,0,0,0,0,0,118,118,53,336.1733498573303,,,,,,,,,,,,,,,,,,,,,,,,,,,,,,,,,,,,,,,,,,,,,,,,,,,,,,,,,,,,,,,,,,,,,,,,,,,,,,,,,127.0,127.0,200.0,125.0,125.0,200.0,4.0,4.1,-222,-284,0,1,258,-250,336.1588089466095,336.15884947776794,336.1612923145294,336.1733498573303,336.32362604141235,336.32362604141235,336.32362604141235,336.32362604141235,336.32362604141235,336.32362604141235,336.32362604141235,338.62462639808655,3,2.4415080547332764,None,,,,,,,,,,,,,,,,,,236,3,2025-03-12_11h27.53.545,comp,2024.2.4,60.04094054459514,2025-03-12 11h28.26.791663 -0400,
119,119,0,critical,hdw,20.0,2.1,upper,200.0,125.0,141.0,141.0,125.0,200.0,3,3.9833593368530273,None,,,,,0,0,0,0,0,119,119,47,338.64041924476624,,,,,,,,,,,,,,,,,,,,,,,,,,,,,,,,,,,,,,,,,,,,,,,,,,,,,,,,,,,,,,,,,,,,,,,,,,,,,,,,,200.0,125.0,141.0,141.0,125.0,200.0,2.1,2.11,-229,263,0,261,266,-284,338.62546396255493,338.62550473213196,338.627690076828,338.64041924476624,338.7902593612671,338.7902593612671,338.7902593612671,338.7902593612671,338.7902593612671,338.7902593612671,338.7902593612671,342.64133954048157,3,3.9833593368530273,None,,,,,,,,,,,,,,,,,,236,3,2025-03-12_11h27.53.545,comp,2024.2.4,60.04094054459514,2025-03-12 11h28.26.791663 -0400,
120,120,0,filler_random,None,None,None,None,None,None,None,None,None,None,3,4.26942253112793,None,,,,,0,0,0,0,0,120,120,159,342.6565375328064,,,,,,,,,,,,,,,,,,,,,,,,,,,,,,,,,,,,,,,,,,,,,,,,,,,,,,,,,,,,,,,,,,,,,,,,,,,,,,,,,71.56981181076642,156.60622173649062,112.0035669405139,101.12995806627671,193.54985027510799,116.78863143879437,2.1,2.12,-225,-258,0,-283,205,285,342.6422789096832,342.64231991767883,342.6445744037628,342.6565375328064,342.80674839019775,342.80674839019775,342.80674839019775,342.80674839019775,342.80674839019775,342.80674839019775,342.80674839019775,346.94117546081543,3,4.26942253112793,None,,,,,,,,,,,,,,,,,,236,3,2025-03-12_11h27.53.545,comp,2024.2.4,60.04094054459514,2025-03-12 11h28.26.791663 -0400,
121,121,0,filler_square,None,None,None,None,None,None,None,None,None,None,1,1.2421762943267822,None,,,,,0,0,0,0,0,121,121,201,346.9565155506134,,,,,,,,,,,,,,,,,,,,,,,,,,,,,,,,,,,,,,,,,,,,,,,,,,,,,,,,,,,,,,,,,,,,,,,,,,,,,,,,,179.80315344714262,179.80315344714262,74.64584371943596,147.39534223579355,113.84051876707966,153.21325097040528,2.2,2.22,-260,263,0,-271,246,-255,346.94212770462036,346.9421694278717,346.9446678161621,346.9565155506134,347.1067864894867,347.1067864894867,347.1067864894867,347.1067864894867,347.1067864894867,347.1067864894867,347.1067864894867,348.20797753334045,1,1.2421762943267822,None,,,,,,,,,,,,,,,,,,236,3,2025-03-12_11h27.53.545,comp,2024.2.4,60.04094054459514,2025-03-12 11h28.26.791663 -0400,
122,122,0,critical,dwh,20.0,1.0,upper,141.0,141.0,125.0,200.0,200.0,125.0,3,5.1344990730285645,None,,,,,0,0,0,0,0,122,122,67,348.22337555885315,,,,,,,,,,,,,,,,,,,,,,,,,,,,,,,,,,,,,,,,,,,,,,,,,,,,,,,,,,,,,,,,,,,,,,,,,,,,,,,,,141.0,141.0,125.0,200.0,200.0,125.0,1.0,1.1,-746,270,-480,266,-222,282,348.20878076553345,348.2088234424591,348.21124625205994,348.22337555885315,348.3735353946686,348.3735353946686,348.3735353946686,348.3735353946686,348.3735353946686,348.3735353946686,348.3735353946686,353.37462306022644,3,5.1344990730285645,None,,,,,,,,,,,,,,,,,,236,3,2025-03-12_11h27.53.545,comp,2024.2.4,60.04094054459514,2025-03-12 11h28.26.791663 -0400,
123,123,0,filler_random,None,None,None,None,None,None,None,None,None,None,2,6.082544326782227,None,,,,,0,0,0,0,0,123,123,147,353.3898642063141,,,,,,,,,,,,,,,,,,,,,,,,,,,,,,,,,,,,,,,,,,,,,,,,,,,,,,,,,,,,,,,,,,,,,,,,,,,,,,,,,162.33417661092662,100.85923828325852,166.31640501671447,154.386323082895,133.5771104838509,158.430540215161,2.2,2.22,-224,268,0,-257,252,-285,353.375540971756,353.37558221817017,353.3779020309448,353.3898642063141,353.54004287719727,353.54004287719727,353.54004287719727,353.54004287719727,353.54004287719727,353.54004287719727,353.54004287719727,359.47462940216064,2,6.082544326782227,None,,,,,,,,,,,,,,,,,,236,3,2025-03-12_11h27.53.545,comp,2024.2.4,60.04094054459514,2025-03-12 11h28.26.791663 -0400,
124,124,0,catch,None,None,None,None,None,None,None,None,None,None,3,1.228614330291748,None,,,,,0,0,0,0,0,124,124,122,359.49004101753235,,,,,,,,,,,,,,,,,,,,,,,,,,,,,,,,,,,,,,,,,,,,,,,,,,,,,,,,,,,,,,,,,,,,,,,,,,,,,,,,,66,124,70,120,191,134,4.0,4.1,-218,-250,0,17,223,-268,359.47568249702454,359.4757249355316,359.4777920246124,359.49004101753235,359.6400852203369,359.6400852203369,359.6400852203369,359.6400852203369,359.6400852203369,359.6400852203369,359.6400852203369,360.7244453430176,3,1.228614330291748,None,,,,,,,,,,,,,,,,,,236,3,2025-03-12_11h27.53.545,comp,2024.2.4,60.04094054459514,2025-03-12 11h28.26.791663 -0400,
125,125,0,filler_random,None,None,None,None,None,None,None,None,None,None,3,2.6837832927703857,None,,,,,0,0,0,0,0,125,125,137,360.73994994163513,,,,,,,,,,,,,,,,,,,,,,,,,,,,,,,,,,,,,,,,,,,,,,,,,,,,,,,,,,,,,,,,,,,,,,,,,,,,,,,,,153.88326163830146,159.16999271219984,177.69215335623002,180.8827323811994,189.10294337813713,192.209480307677,4.0,4.1,-266,-262,0,13,283,-252,360.7253291606903,360.7253725528717,360.72761130332947,360.73994994163513,360.89019417762756,360.89019417762756,360.89019417762756,360.89019417762756,360.89019417762756,360.89019417762756,360.89019417762756,363.441597700119,3,2.6837832927703857,None,,,,,,,,,,,,,,,,,,236,3,2025-03-12_11h27.53.545,comp,2024.2.4,60.04094054459514,2025-03-12 11h28.26.791663 -0400,
126,126,0,filler_square,None,None,None,None,None,None,None,None,None,None,2,1.2316210269927979,None,,,,,0,0,0,0,0,126,126,202,363.4564583301544,,,,,,,,,,,,,,,,,,,,,,,,,,,,,,,,,,,,,,,,,,,,,,,,,,,,,,,,,,,,,,,,,,,,,,,,,,,,,,,,,130.19433564278364,141.18297350004127,172.00613175374554,172.00613175374554,64.01716695611292,146.7179802100067,1.0,1.1,-733,286,-480,260,-225,278,363.44260597229004,363.4426624774933,363.44506788253784,363.4564583301544,363.6067430973053,363.6067430973053,363.6067430973053,363.6067430973053,363.6067430973053,363.6067430973053,363.6067430973053,364.6912491321564,2,1.2316210269927979,None,,,,,,,,,,,,,,,,,,236,3,2025-03-12_11h27.53.545,comp,2024.2.4,60.04094054459514,2025-03-12 11h28.26.791663 -0400,
127,127,0,critical,wdh,35.0,2.1,lower,57.0,133.0,70.0,70.0,133.0,57.0,1,5.1082189083099365,None,,,,,0,0,0,0,0,127,127,8,364.7065484523773,,,,,,,,,,,,,,,,,,,,,,,,,,,,,,,,,,,,,,,,,,,,,,,,,,,,,,,,,,,,,,,,,,,,,,,,,,,,,,,,,57.0,133.0,70.0,70.0,133.0,57.0,2.1,2.12,-198,-270,0,-261,160,258,364.69204592704773,364.6920871734619,364.69445610046387,364.7065484523773,364.85703563690186,364.85703563690186,364.85703563690186,364.85703563690186,364.85703563690186,364.85703563690186,364.85703563690186,369.82423090934753,1,5.1082189083099365,None,,,,,,,,,,,,,,,,,,236,3,2025-03-12_11h27.53.545,comp,2024.2.4,60.04094054459514,2025-03-12 11h28.26.791663 -0400,
128,128,0,filler_random,None,None,None,None,None,None,None,None,None,None,1,1.3340322971343994,None,,,,,0,0,0,0,0,128,128,141,369.83991622924805,,,,,,,,,,,,,,,,,,,,,,,,,,,,,,,,,,,,,,,,,,,,,,,,,,,,,,,,,,,,,,,,,,,,,,,,,,,,,,,,,163.81803941758457,128.69058193049116,83.25864517019777,79.4244152921957,61.26304723827694,97.19120030417241,1.0,1.1,-680,282,-480,260,-296,281,369.82513308525085,369.8251760005951,369.82733178138733,369.83991622924805,369.98977494239807,369.98977494239807,369.98977494239807,369.98977494239807,369.98977494239807,369.98977494239807,369.98977494239807,371.19090485572815,1,1.3340322971343994,None,,,,,,,,,,,,,,,,,,236,3,2025-03-12_11h27.53.545,comp,2024.2.4,60.04094054459514,2025-03-12 11h28.26.791663 -0400,
129,129,0,filler_random,None,None,None,None,None,None,None,None,None,None,2,1.0714404582977295,None,,,,,0,0,0,0,0,129,129,160,371.2063150405884,,,,,,,,,,,,,,,,,,,,,,,,,,,,,,,,,,,,,,,,,,,,,,,,,,,,,,,,,,,,,,,,,,,,,,,,,,,,,,,,,62.84964747736957,155.11531479732548,195.9996917277788,199.77099975137955,153.52483845325898,183.4237456606533,3.0,3.1,-273,289,0,7,288,-273,371.1918075084686,371.19184827804565,371.1942312717438,371.2063150405884,371.3570327758789,371.3570327758789,371.3570327758789,371.3570327758789,371.3570327758789,371.3570327758789,371.3570327758789,372.2911596298218,2,1.0714404582977295,None,,,,,,,,,,,,,,,,,,236,3,2025-03-12_11h27.53.545,comp,2024.2.4,60.04094054459514,2025-03-12 11h28.26.791663 -0400,
130,130,0,catch,None,None,None,None,None,None,None,None,None,None,3,1.5881059169769287,None,,,,,0,0,0,0,0,130,130,125,372.3063659667969,,,,,,,,,,,,,,,,,,,,,,,,,,,,,,,,,,,,,,,,,,,,,,,,,,,,,,,,,,,,,,,,,,,,,,,,,,,,,,,,,95,95,112,78,170,155,2.1,2.11,-182,289,0,262,212,-283,372.29217290878296,372.2922132015228,372.2946951389313,372.3063659667969,372.4566066265106,372.4566066265106,372.4566066265106,372.4566066265106,372.4566066265106,372.4566066265106,372.4566066265106,373.9076657295227,3,1.5881059169769287,None,,,,,,,,,,,,,,,,,,236,3,2025-03-12_11h27.53.545,comp,2024.2.4,60.04094054459514,2025-03-12 11h28.26.791663 -0400,
131,131,0,filler_square,None,None,None,None,None,None,None,None,None,None,1,0.9798128604888916,None,,,,,0,0,0,0,0,131,131,208,373.922967672348,,,,,,,,,,,,,,,,,,,,,,,,,,,,,,,,,,,,,,,,,,,,,,,,,,,,,,,,,,,,,,,,,,,,,,,,,,,,,,,,,198.22656342807502,198.22656342807502,119.38082250863356,166.05743468337306,182.94361740198852,62.84709864118454,4.0,4.2,-278,-20,0,-251,210,11,373.9085910320282,373.9086318016052,373.9109778404236,373.922967672348,374.07347202301025,374.07347202301025,374.07347202301025,374.07347202301025,374.07347202301025,374.07347202301025,374.07347202301025,374.907879114151,1,0.9798128604888916,None,,,,,,,,,,,,,,,,,,236,3,2025-03-12_11h27.53.545,comp,2024.2.4,60.04094054459514,2025-03-12 11h28.26.791663 -0400,
132,132,0,critical,hdw,35.0,2.1,upper,200.0,125.0,127.0,127.0,125.0,200.0,3,2.5079846382141113,None,,,,,0,0,0,0,0,132,132,21,374.9231278896332,,,,,,,,,,,,,,,,,,,,,,,,,,,,,,,,,,,,,,,,,,,,,,,,,,,,,,,,,,,,,,,,,,,,,,,,,,,,,,,,,200.0,125.0,127.0,127.0,125.0,200.0,2.1,2.11,-222,259,0,253,260,-289,374.908682346344,374.9087235927582,374.9111592769623,374.9231278896332,375.0732846260071,375.0732846260071,375.0732846260071,375.0732846260071,375.0732846260071,375.0732846260071,375.0732846260071,377.4410653114319,3,2.5079846382141113,None,,,,,,,,,,,,,,,,,,236,3,2025-03-12_11h27.53.545,comp,2024.2.4,60.04094054459514,2025-03-12 11h28.26.791663 -0400,
133,133,0,critical,whd,20.0,4.0,upper,125.0,200.0,200.0,125.0,141.0,141.0,1,1.7336835861206055,None,,,,,0,0,0,0,0,133,133,95,377.45660948753357,,,,,,,,,,,,,,,,,,,,,,,,,,,,,,,,,,,,,,,,,,,,,,,,,,,,,,,,,,,,,,,,,,,,,,,,,,,,,,,,,125.0,200.0,200.0,125.0,141.0,141.0,4.0,4.2,-258,7,0,-283,229,-14,377.4418671131134,377.44190788269043,377.44433760643005,377.45660948753357,377.60658168792725,377.60658168792725,377.60658168792725,377.60658168792725,377.60658168792725,377.60658168792725,377.60658168792725,379.20776534080505,1,1.7336835861206055,None,,,,,,,,,,,,,,,,,,236,3,2025-03-12_11h27.53.545,comp,2024.2.4,60.04094054459514,2025-03-12 11h28.26.791663 -0400,
134,134,0,filler_square,None,None,None,None,None,None,None,None,None,None,2,1.3838906288146973,None,,,,,0,0,0,0,0,134,134,195,379.22301959991455,,,,,,,,,,,,,,,,,,,,,,,,,,,,,,,,,,,,,,,,,,,,,,,,,,,,,,,,,,,,,,,,,,,,,,,,,,,,,,,,,158.50110188163416,66.99770141580598,189.5838923855011,189.5838923855011,141.77732666949242,97.80864616298862,3.0,3.2,-224,-262,0,-17,240,268,379.20871090888977,379.20875334739685,379.21116161346436,379.22301959991455,379.375200510025,379.375200510025,379.375200510025,379.375200510025,379.375200510025,379.375200510025,379.375200510025,380.6243727207184,2,1.3838906288146973,None,,,,,,,,,,,,,,,,,,236,3,2025-03-12_11h27.53.545,comp,2024.2.4,60.04094054459514,2025-03-12 11h28.26.791663 -0400,
135,135,0,filler_random,None,None,None,None,None,None,None,None,None,None,1,1.9840199947357178,None,,,,,0,0,0,0,0,135,135,168,380.63970017433167,,,,,,,,,,,,,,,,,,,,,,,,,,,,,,,,,,,,,,,,,,,,,,,,,,,,,,,,,,,,,,,,,,,,,,,,,,,,,,,,,162.88023351775354,188.94948946566615,102.40954234087795,120.62233926699642,144.63667797249872,102.33110022088152,2.1,2.11,-251,252,0,279,207,-265,380.6253263950348,380.62536883354187,380.6285536289215,380.63970017433167,380.7898540496826,380.7898540496826,380.7898540496826,380.7898540496826,380.7898540496826,380.7898540496826,380.7898540496826,382.6410412788391,1,1.9840199947357178,None,,,,,,,,,,,,,,,,,,236,3,2025-03-12_11h27.53.545,comp,2024.2.4,60.04094054459514,2025-03-12 11h28.26.791663 -0400,
136,136,0,catch,None,None,None,None,None,None,None,None,None,None,2,1.4051933288574219,None,,,,,0,0,0,0,0,136,136,123,382.65629267692566,,,,,,,,,,,,,,,,,,,,,,,,,,,,,,,,,,,,,,,,,,,,,,,,,,,,,,,,,,,,,,,,,,,,,,,,,,,,,,,,,125,65,133,192,75,115,3.0,3.1,-224,281,0,8,250,-257,382.64208126068115,382.64212346076965,382.64457154273987,382.65629267692566,382.80683636665344,382.80683636665344,382.80683636665344,382.80683636665344,382.80683636665344,382.80683636665344,382.80683636665344,384.07417917251587,2,1.4051933288574219,None,,,,,,,,,,,,,,,,,,236,3,2025-03-12_11h27.53.545,comp,2024.2.4,60.04094054459514,2025-03-12 11h28.26.791663 -0400,
137,137,0,critical,dwh,20.0,3.0,lower,78.0,78.0,57.0,133.0,133.0,57.0,2,9.198342323303223,None,,,,,0,0,0,0,0,137,137,68,384.089595079422,,,,,,,,,,,,,,,,,,,,,,,,,,,,,,,,,,,,,,,,,,,,,,,,,,,,,,,,,,,,,,,,,,,,,,,,,,,,,,,,,78.0,78.0,57.0,133.0,133.0,57.0,3.0,3.2,-202,-260,0,-11,191,274,384.07498502731323,384.07502579689026,384.0776150226593,384.089595079422,384.23999404907227,384.23999404907227,384.23999404907227,384.23999404907227,384.23999404907227,384.23999404907227,384.23999404907227,393.29106187820435,2,9.198342323303223,None,,,,,,,,,,,,,,,,,,236,3,2025-03-12_11h27.53.545,comp,2024.2.4,60.04094054459514,2025-03-12 11h28.26.791663 -0400,
138,138,0,critical,dwh,35.0,2.1,lower,70.0,70.0,57.0,133.0,133.0,57.0,2,1.41908860206604,None,,,,,0,0,0,0,0,138,138,4,393.3065435886383,,,,,,,,,,,,,,,,,,,,,,,,,,,,,,,,,,,,,,,,,,,,,,,,,,,,,,,,,,,,,,,,,,,,,,,,,,,,,,,,,70.0,70.0,57.0,133.0,133.0,57.0,2.1,2.11,-198,253,0,274,191,-274,393.2921528816223,393.29219484329224,393.29428124427795,393.3065435886383,393.4562587738037,393.4562587738037,393.4562587738037,393.4562587738037,393.4562587738037,393.4562587738037,393.4562587738037,394.74080204963684,2,1.41908860206604,None,,,,,,,,,,,,,,,,,,236,3,2025-03-12_11h27.53.545,comp,2024.2.4,60.04094054459514,2025-03-12 11h28.26.791663 -0400,
139,139,0,critical,hwd,20.0,1.0,upper,200.0,125.0,125.0,200.0,141.0,141.0,2,2.433940887451172,None,,,,,0,0,0,0,0,139,139,103,394.75622820854187,,,,,,,,,,,,,,,,,,,,,,,,,,,,,,,,,,,,,,,,,,,,,,,,,,,,,,,,,,,,,,,,,,,,,,,,,,,,,,,,,200.0,125.0,125.0,200.0,141.0,141.0,1.0,1.1,-738,254,-480,272,-214,256,394.74160528182983,394.7416458129883,394.7440993785858,394.75622820854187,394.9069769382477,394.9069769382477,394.9069769382477,394.9069769382477,394.9069769382477,394.9069769382477,394.9069769382477,397.2076156139374,2,2.433940887451172,None,,,,,,,,,,,,,,,,,,236,3,2025-03-12_11h27.53.545,comp,2024.2.4,60.04094054459514,2025-03-12 11h28.26.791663 -0400,
140,140,0,catch,None,None,None,None,None,None,None,None,None,None,2,1.2078957557678223,None,,,,,0,0,0,0,0,140,140,126,397.2229344844818,,,,,,,,,,,,,,,,,,,,,,,,,,,,,,,,,,,,,,,,,,,,,,,,,,,,,,,,,,,,,,,,,,,,,,,,,,,,,,,,,112,78,183,142,71,119,4.0,4.2,-206,-9,0,-277,226,8,397.20864629745483,397.2086880207062,397.21105456352234,397.2229344844818,397.37333393096924,397.37333393096924,397.37333393096924,397.37333393096924,397.37333393096924,397.37333393096924,397.37333393096924,398.44090485572815,2,1.2078957557678223,None,,,,,,,,,,,,,,,,,,236,3,2025-03-12_11h27.53.545,comp,2024.2.4,60.04094054459514,2025-03-12 11h28.26.791663 -0400,
