thisN,thisTrialN,thisRepN,effect,order,distance,config,diag,h_1,w_1,h_2,w_2,h_3,w_3,rect_choice.keys,rect_choice.rt,rect_choice.duration,instructions_loop.thisRepN,instructions_loop.thisTrialN,instructions_loop.thisN,instructions_loop.thisIndex,blocks.thisRepN,blocks.thisTrialN,blocks.thisN,blocks.thisIndex,trials.thisRepN,trials.thisTrialN,trials.thisN,trials.thisIndex,thisRow.t,notes,consent.started,agree_button.started,decline_button.started,consent_img.started,mouse.started,consent.stopped,agree_button.numClicks,agree_button.timesOn,agree_button.timesOff,decline_button.numClicks,decline_button.timesOn,decline_button.timesOff,mouse.x,mouse.y,mouse.leftButton,mouse.midButton,mouse.rightButton,mouse.time,mouse.clicked_name,exp_params.started,exp_params.stopped,welcome.started,welcome_text.started,welcome.stopped,instructions_1.started,instructions_1_text_1.started,instructions_1_text_2.started,key_resp.started,instructions_1.stopped,instructions_loop.key_resp.keys,instructions_loop.key_resp.rt,instructions_loop.key_resp.duration,instructions_2.started,instructions_2_text_1.started,instructions_2_text_2.started,key_resp_2.started,instructions_2.stopped,instructions_loop.key_resp_2.keys,instructions_loop.key_resp_2.rt,instructions_loop.key_resp_2.duration,instructions_3.started,instructions_3_text_1.started,r1_instr3.started,r2_instr3.started,r3_instr3.started,r1_instr3_label.started,r2_instr3_label.started,r3_instr3_label.started,instructions_3_text_3.started,instructions_3_text_4.started,key_resp_3.started,instructions_3.stopped,instructions_loop.key_resp_3.keys,instructions_loop.key_resp_3.rt,instructions_loop.key_resp_3.duration,instructions_4.started,instructions_4_text_1.started,instructions_4_text_3.started,instructions_4_text_2.started,key_resp_4.started,instructions_4.stopped,instructions_loop.key_resp_4.keys,instructions_loop.key_resp_4.rt,instructions_loop.key_resp_4.duration,instructions_5.started,instructions_5_text_1.started,instructions_5_text_2.started,key_resp_5.started,instructions_5.stopped,instructions_loop.key_resp_5.keys,instructions_loop.key_resp_5.rt,instructions_loop.key_resp_5.duration,start_exp.started,start_exp_text.started,key_resp_6.started,start_exp.stopped,key_resp_6.keys,key_resp_6.rt,key_resp_6.duration,h_1_tmp,w_1_tmp,h_2_tmp,w_2_tmp,h_3_tmp,w_3_tmp,config_tmp,config_tmp_1,r_1_x,r_1_y,r_2_x,r_2_y,r_3_x,r_3_y,pre_trial.started,pre_trial.stopped,choice_trial.started,rect_choice.started,r_1.started,r_2.started,r_3.started,r_1_label.started,r_2_label.started,r_3_label.started,prompt.started,choice_trial.stopped,trials.rect_choice.keys,trials.rect_choice.rt,trials.rect_choice.duration,end_block.started,end_block_text.started,end_block.stopped,end.started,end_text.started,key_resp_7.started,end.stopped,key_resp_7.keys,key_resp_7.rt,key_resp_7.duration,debriefing.started,debrief_form.started,end_debrief.started,debriefing.stopped,end_debrief.keys,end_debrief.rt,end_debrief.duration,participant,computer,date,expName,psychopyVersion,frameRate,expStart,
,,,,,,,,,,,,,,,,,,,,,,,,,,,,,,,0.014665603637695312,0.03752493858337402,0.03752493858337402,0.03752493858337402,0.014456987380981445,50.68126034736633,1,[50.64118671417236],[50.641210317611694],0,,,[-99.0],[-522.0],[1],[0],[0],[50.66601753234863],['agree_button'],,,,,,,,,,,,,,,,,,,,,,,,,,,,,,,,,,,,,,,,,,,,,,,,,,,,,,,,,,,,,,,,,,,,,,,,,,,,,,,,,,,,,,,,,,,,,,,,,,,,,,,,,,,237,1,2025-03-12_12h55.56.486,comp,2024.2.4,57.32923100474702,2025-03-12 12h56.04.323890 -0400,
,,,,,,,,,,,,,,,,,,,,,,,,,,,,,,,,,,,,,,,,,,,,,,,,,,50.68182015419006,50.681889057159424,,,,,,,,,,,,,,,,,,,,,,,,,,,,,,,,,,,,,,,,,,,,,,,,,,,,,,,,,,,,,,,,,,,,,,,,,,,,,,,,,,,,,,,,,,,,,,,,,,,,,,,,,237,1,2025-03-12_12h55.56.486,comp,2024.2.4,57.32923100474702,2025-03-12 12h56.04.323890 -0400,
,,,,,,,,,,,,,,,,,,,,,,,,,,,,,,,,,,,,,,,,,,,,,,,,,,,,50.681933879852295,50.698607444763184,52.69826650619507,,,,,,,,,,,,,,,,,,,,,,,,,,,,,,,,,,,,,,,,,,,,,,,,,,,,,,,,,,,,,,,,,,,,,,,,,,,,,,,,,,,,,,,,,,,,,,,,,,,,,,237,1,2025-03-12_12h55.56.486,comp,2024.2.4,57.32923100474702,2025-03-12 12h56.04.323890 -0400,
0,0,0,,,,,,,,,,,,,,,0,0,0,0,,,,,,,,,52.71419048309326,,,,,,,,,,,,,,,,,,,,,,,,,,52.69915509223938,52.71419048309326,52.71419048309326,54.195143699645996,56.42144179344177,space,2.217522382736206,None,56.42163681983948,56.43694758415222,56.43694758415222,57.93362212181091,61.918190717697144,space,3.9748971462249756,None,61.91835689544678,61.94757342338562,61.94757342338562,61.94757342338562,61.94757342338562,61.94757342338562,61.94757342338562,61.94757342338562,61.94757342338562,61.94757342338562,63.421717166900635,67.68650317192078,space,4.254547595977783,None,67.68667840957642,67.70434784889221,67.70434784889221,67.70434784889221,69.20036292076111,72.58699893951416,space,3.380856513977051,None,72.58716464042664,72.60356116294861,72.60356116294861,74.10406923294067,75.02121186256409,space,0.9004266262054443,None,75.02142143249512,75.03639531135559,75.03639531135559,77.14117360115051,space,2.0879058837890625,None,,,,,,,,,,,,,,,,,,,,,,,,,,,,,,,,,,,,,,,,,,,,,,,237,1,2025-03-12_12h55.56.486,comp,2024.2.4,57.32923100474702,2025-03-12 12h56.04.323890 -0400,
0,0,0,filler_square,None,None,None,None,None,None,None,None,None,None,1,3.5562856197357178,None,,,,,0,0,0,0,0,0,0,178,77.21677541732788,,,,,,,,,,,,,,,,,,,,,,,,,,,,,,,,,,,,,,,,,,,,,,,,,,,,,,,,,,,,,,,,,,,,,,,,,,,,,,,,,94.86320121255301,94.86320121255301,81.57533544202963,83.33137697174973,82.3498480530611,91.82406434890686,4.0,4.2,-185,18,0,-253,184,-7,77.2003743648529,77.20041060447693,77.20166397094727,77.21677541732788,77.36081862449646,77.36081862449646,77.36081862449646,77.36081862449646,77.36081862449646,77.36081862449646,77.36081862449646,80.78196239471436,1,3.5562856197357178,None,,,,,,,,,,,,,,,,,,237,1,2025-03-12_12h55.56.486,comp,2024.2.4,57.32923100474702,2025-03-12 12h56.04.323890 -0400,
1,1,0,catch,None,None,None,None,None,None,None,None,None,None,1,2.1301867961883545,None,,,,,0,0,0,0,0,1,1,127,80.80237913131714,,,,,,,,,,,,,,,,,,,,,,,,,,,,,,,,,,,,,,,,,,,,,,,,,,,,,,,,,,,,,,,,,,,,,,,,,,,,,,,,,193,132,115,75,129,61,4.0,4.1,-200,-279,0,-17,164,-271,80.78405523300171,80.7841272354126,80.78705310821533,80.80237913131714,80.93919491767883,80.93919491767883,80.93919491767883,80.93919491767883,80.93919491767883,80.93919491767883,80.93919491767883,82.94513487815857,1,2.1301867961883545,None,,,,,,,,,,,,,,,,,,237,1,2025-03-12_12h55.56.486,comp,2024.2.4,57.32923100474702,2025-03-12 12h56.04.323890 -0400,
2,2,0,filler_random,None,None,None,None,None,None,None,None,None,None,1,4.054950952529907,None,,,,,0,0,0,0,0,2,2,159,82.96585988998413,,,,,,,,,,,,,,,,,,,,,,,,,,,,,,,,,,,,,,,,,,,,,,,,,,,,,,,,,,,,,,,,,,,,,,,,,,,,,,,,,162.06598473781156,139.0088694037663,95.93479385456128,158.73524705990388,75.93958154880448,97.37443173395833,4.0,4.2,-245,-13,0,-289,224,-8,82.94699311256409,82.94707345962524,82.95004034042358,82.96585988998413,83.107990026474,83.107990026474,83.107990026474,83.107990026474,83.107990026474,83.107990026474,83.107990026474,87.02715253829956,1,4.054950952529907,None,,,,,,,,,,,,,,,,,,237,1,2025-03-12_12h55.56.486,comp,2024.2.4,57.32923100474702,2025-03-12 12h56.04.323890 -0400,
3,3,0,critical,whd,20.0,3.0,lower,57.0,133.0,133.0,57.0,78.0,78.0,2,3.3242549896240234,None,,,,,0,0,0,0,0,3,3,92,87.04829120635986,,,,,,,,,,,,,,,,,,,,,,,,,,,,,,,,,,,,,,,,,,,,,,,,,,,,,,,,,,,,,,,,,,,,,,,,,,,,,,,,,57.0,133.0,133.0,57.0,78.0,78.0,3.0,3.1,-191,257,0,-4,164,-267,87.02881979942322,87.02890133857727,87.0322937965393,87.04829120635986,87.1930091381073,87.1930091381073,87.1930091381073,87.1930091381073,87.1930091381073,87.1930091381073,87.1930091381073,90.37690258026123,2,3.3242549896240234,None,,,,,,,,,,,,,,,,,,237,1,2025-03-12_12h55.56.486,comp,2024.2.4,57.32923100474702,2025-03-12 12h56.04.323890 -0400,
4,4,0,filler_square,None,None,None,None,None,None,None,None,None,None,3,1.660043478012085,None,,,,,0,0,0,0,0,4,4,186,90.39326071739197,,,,,,,,,,,,,,,,,,,,,,,,,,,,,,,,,,,,,,,,,,,,,,,,,,,,,,,,,,,,,,,,,,,,,,,,,,,,,,,,,57.23423831910872,98.17947889464043,90.26493050620934,113.41592625251988,135.76374620214915,135.76374620214915,2.1,2.11,-202,252,0,266,221,-259,90.37882256507874,90.37890076637268,90.38235092163086,90.39326071739197,90.54163408279419,90.54163408279419,90.54163408279419,90.54163408279419,90.54163408279419,90.54163408279419,90.54163408279419,92.05984115600586,3,1.660043478012085,None,,,,,,,,,,,,,,,,,,237,1,2025-03-12_12h55.56.486,comp,2024.2.4,57.32923100474702,2025-03-12 12h56.04.323890 -0400,
5,5,0,filler_random,None,None,None,None,None,None,None,None,None,None,2,2.544278383255005,None,,,,,0,0,0,0,0,5,5,133,92.08491110801697,,,,,,,,,,,,,,,,,,,,,,,,,,,,,,,,,,,,,,,,,,,,,,,,,,,,,,,,,,,,,,,,,,,,,,,,,,,,,,,,,164.25746367781932,129.9753660242344,177.8180295011052,178.10089848428913,75.71298341295211,187.18820291843727,3.0,3.2,-250,-280,0,-18,279,264,92.06165742874146,92.06173968315125,92.06488394737244,92.08491110801697,92.22680974006653,92.22680974006653,92.22680974006653,92.22680974006653,92.22680974006653,92.22680974006653,92.22680974006653,94.63709926605225,2,2.544278383255005,None,,,,,,,,,,,,,,,,,,237,1,2025-03-12_12h55.56.486,comp,2024.2.4,57.32923100474702,2025-03-12 12h56.04.323890 -0400,
6,6,0,critical,wdh,20.0,1.0,lower,57.0,133.0,78.0,78.0,133.0,57.0,3,12.798972129821777,None,,,,,0,0,0,0,0,6,6,78,94.65352892875671,,,,,,,,,,,,,,,,,,,,,,,,,,,,,,,,,,,,,,,,,,,,,,,,,,,,,,,,,,,,,,,,,,,,,,,,,,,,,,,,,57.0,133.0,78.0,78.0,133.0,57.0,1.0,1.1,-682,266,-480,258,-316,278,94.63879084587097,94.63888812065125,94.64217066764832,94.65352892875671,94.79445672035217,94.79445672035217,94.79445672035217,94.79445672035217,94.79445672035217,94.79445672035217,94.79445672035217,107.46585178375244,3,12.798972129821777,None,,,,,,,,,,,,,,,,,,237,1,2025-03-12_12h55.56.486,comp,2024.2.4,57.32923100474702,2025-03-12 12h56.04.323890 -0400,
7,7,0,critical,dwh,20.0,2.1,lower,78.0,78.0,57.0,133.0,133.0,57.0,3,12.84226942062378,None,,,,,0,0,0,0,0,7,7,30,107.48220348358154,,,,,,,,,,,,,,,,,,,,,,,,,,,,,,,,,,,,,,,,,,,,,,,,,,,,,,,,,,,,,,,,,,,,,,,,,,,,,,,,,78.0,78.0,57.0,133.0,133.0,57.0,2.1,2.12,-202,-285,0,-278,191,264,107.46745681762695,107.46757340431213,107.47165155410767,107.48220348358154,107.6355664730072,107.6355664730072,107.6355664730072,107.6355664730072,107.6355664730072,107.6355664730072,107.6355664730072,120.33639216423035,3,12.84226942062378,None,,,,,,,,,,,,,,,,,,237,1,2025-03-12_12h55.56.486,comp,2024.2.4,57.32923100474702,2025-03-12 12h56.04.323890 -0400,
8,8,0,catch,None,None,None,None,None,None,None,None,None,None,2,2.0495264530181885,None,,,,,0,0,0,0,0,8,8,121,120.35484313964844,,,,,,,,,,,,,,,,,,,,,,,,,,,,,,,,,,,,,,,,,,,,,,,,,,,,,,,,,,,,,,,,,,,,,,,,,,,,,,,,,81,109,199,126,111,79,2.2,2.22,-214,258,0,-270,198,-281,120.33829545974731,120.33837628364563,120.34179425239563,120.35484313964844,120.50407934188843,120.50407934188843,120.50407934188843,120.50407934188843,120.50407934188843,120.50407934188843,120.50407934188843,122.41925072669983,2,2.0495264530181885,None,,,,,,,,,,,,,,,,,,237,1,2025-03-12_12h55.56.486,comp,2024.2.4,57.32923100474702,2025-03-12 12h56.04.323890 -0400,
9,9,0,critical,hwd,20.0,2.1,upper,200.0,125.0,125.0,200.0,141.0,141.0,2,5.185082197189331,None,,,,,0,0,0,0,0,9,9,43,122.43569898605347,,,,,,,,,,,,,,,,,,,,,,,,,,,,,,,,,,,,,,,,,,,,,,,,,,,,,,,,,,,,,,,,,,,,,,,,,,,,,,,,,200.0,125.0,125.0,200.0,141.0,141.0,2.1,2.11,-258,251,0,266,266,-256,122.42082142829895,122.42089796066284,122.42410278320312,122.43569898605347,122.59221315383911,122.59221315383911,122.59221315383911,122.59221315383911,122.59221315383911,122.59221315383911,122.59221315383911,127.63636445999146,2,5.185082197189331,None,,,,,,,,,,,,,,,,,,237,1,2025-03-12_12h55.56.486,comp,2024.2.4,57.32923100474702,2025-03-12 12h56.04.323890 -0400,
10,10,0,filler_random,None,None,None,None,None,None,None,None,None,None,2,1.8561396598815918,None,,,,,0,0,0,0,0,10,10,148,127.65234041213989,,,,,,,,,,,,,,,,,,,,,,,,,,,,,,,,,,,,,,,,,,,,,,,,,,,,,,,,,,,,,,,,,,,,,,,,,,,,,,,,,62.60490068047241,82.11064753007366,109.66955637405204,76.43195688617601,100.91138330916976,107.77572286278787,2.2,2.21,-175,-266,0,258,188,279,127.6381151676178,127.63819360733032,127.64108371734619,127.65234041213989,127.79809665679932,127.79809665679932,127.79809665679932,127.79809665679932,127.79809665679932,127.79809665679932,127.79809665679932,129.52114462852478,2,1.8561396598815918,None,,,,,,,,,,,,,,,,,,237,1,2025-03-12_12h55.56.486,comp,2024.2.4,57.32923100474702,2025-03-12 12h56.04.323890 -0400,
11,11,0,critical,hdw,20.0,1.0,upper,200.0,125.0,141.0,141.0,125.0,200.0,3,4.1318724155426025,None,,,,,0,0,0,0,0,11,11,115,129.53704380989075,,,,,,,,,,,,,,,,,,,,,,,,,,,,,,,,,,,,,,,,,,,,,,,,,,,,,,,,,,,,,,,,,,,,,,,,,,,,,,,,,200.0,125.0,141.0,141.0,125.0,200.0,1.0,1.1,-709,258,-480,272,-214,252,129.5226926803589,129.52277064323425,129.5257728099823,129.53704380989075,129.68905782699585,129.68905782699585,129.68905782699585,129.68905782699585,129.68905782699585,129.68905782699585,129.68905782699585,133.6775312423706,3,4.1318724155426025,None,,,,,,,,,,,,,,,,,,237,1,2025-03-12_12h55.56.486,comp,2024.2.4,57.32923100474702,2025-03-12 12h56.04.323890 -0400,
12,12,0,filler_square,None,None,None,None,None,None,None,None,None,None,2,2.1291587352752686,None,,,,,0,0,0,0,0,12,12,190,133.69935727119446,,,,,,,,,,,,,,,,,,,,,,,,,,,,,,,,,,,,,,,,,,,,,,,,,,,,,,,,,,,,,,,,,,,,,,,,,,,,,,,,,101.59412821935176,88.84753411006835,118.86362802818792,118.86362802818792,111.45059662818012,108.37013001511588,3.0,3.1,-200,279,0,1,210,-257,133.67975115776062,133.67983269691467,133.68341064453125,133.69935727119446,133.84169507026672,133.84169507026672,133.84169507026672,133.84169507026672,133.84169507026672,133.84169507026672,133.84169507026672,135.83801221847534,2,2.1291587352752686,None,,,,,,,,,,,,,,,,,,237,1,2025-03-12_12h55.56.486,comp,2024.2.4,57.32923100474702,2025-03-12 12h56.04.323890 -0400,
13,13,0,filler_random,None,None,None,None,None,None,None,None,None,None,1,1.6852142810821533,None,,,,,0,0,0,0,0,13,13,144,135.85528349876404,,,,,,,,,,,,,,,,,,,,,,,,,,,,,,,,,,,,,,,,,,,,,,,,,,,,,,,,,,,,,,,,,,,,,,,,,,,,,,,,,145.88398390450865,188.39032666886993,59.78768588533453,158.34877302707758,172.45437946965234,136.27637093882214,4.0,4.1,-269,-250,0,18,243,-252,135.83995532989502,135.84008169174194,135.843332529068,135.85528349876404,136.00772070884705,136.00772070884705,136.00772070884705,136.00772070884705,136.00772070884705,136.00772070884705,136.00772070884705,137.5615837574005,1,1.6852142810821533,None,,,,,,,,,,,,,,,,,,237,1,2025-03-12_12h55.56.486,comp,2024.2.4,57.32923100474702,2025-03-12 12h56.04.323890 -0400,
14,14,0,filler_square,None,None,None,None,None,None,None,None,None,None,2,2.199958562850952,None,,,,,0,0,0,0,0,14,14,171,137.58046317100525,,,,,,,,,,,,,,,,,,,,,,,,,,,,,,,,,,,,,,,,,,,,,,,,,,,,,,,,,,,,,,,,,,,,,,,,,,,,,,,,,64.47291979172864,77.71812307904537,138.66039684709997,138.66039684709997,75.14428522340795,98.62575997148318,2.1,2.11,-204,274,0,286,215,-279,137.56362557411194,137.5637047290802,137.56712555885315,137.58046317100525,137.72208833694458,137.72208833694458,137.72208833694458,137.72208833694458,137.72208833694458,137.72208833694458,137.72208833694458,139.7935631275177,2,2.199958562850952,None,,,,,,,,,,,,,,,,,,237,1,2025-03-12_12h55.56.486,comp,2024.2.4,57.32923100474702,2025-03-12 12h56.04.323890 -0400,
15,15,0,critical,hdw,35.0,2.1,lower,133.0,57.0,70.0,70.0,57.0,133.0,3,2.172651767730713,None,,,,,0,0,0,0,0,15,15,44,139.80908465385437,,,,,,,,,,,,,,,,,,,,,,,,,,,,,,,,,,,,,,,,,,,,,,,,,,,,,,,,,,,,,,,,,,,,,,,,,,,,,,,,,133.0,57.0,70.0,70.0,57.0,133.0,2.1,2.11,-160,266,0,269,198,-282,139.79511761665344,139.7952482700348,139.79829049110413,139.80908465385437,139.9607446193695,139.9607446193695,139.9607446193695,139.9607446193695,139.9607446193695,139.9607446193695,139.9607446193695,141.98394966125488,3,2.172651767730713,None,,,,,,,,,,,,,,,,,,237,1,2025-03-12_12h55.56.486,comp,2024.2.4,57.32923100474702,2025-03-12 12h56.04.323890 -0400,
16,16,0,critical,dhw,35.0,4.0,upper,127.0,127.0,200.0,125.0,125.0,200.0,3,2.596968173980713,None,,,,,0,0,0,0,0,16,16,53,141.99952864646912,,,,,,,,,,,,,,,,,,,,,,,,,,,,,,,,,,,,,,,,,,,,,,,,,,,,,,,,,,,,,,,,,,,,,,,,,,,,,,,,,127.0,127.0,200.0,125.0,125.0,200.0,4.0,4.2,-222,-13,0,-271,258,-13,141.98544645309448,141.9855535030365,141.9884283542633,141.99952864646912,142.1436312198639,142.1436312198639,142.1436312198639,142.1436312198639,142.1436312198639,142.1436312198639,142.1436312198639,144.61051106452942,3,2.596968173980713,None,,,,,,,,,,,,,,,,,,237,1,2025-03-12_12h55.56.486,comp,2024.2.4,57.32923100474702,2025-03-12 12h56.04.323890 -0400,
17,17,0,catch,None,None,None,None,None,None,None,None,None,None,2,1.4982795715332031,None,,,,,0,0,0,0,0,17,17,126,144.62658643722534,,,,,,,,,,,,,,,,,,,,,,,,,,,,,,,,,,,,,,,,,,,,,,,,,,,,,,,,,,,,,,,,,,,,,,,,,,,,,,,,,104,86,166,159,102,88,2.2,2.22,-218,268,0,-273,220,-281,144.61258029937744,144.61266016960144,144.61614322662354,144.62658643722534,144.78384828567505,144.78384828567505,144.78384828567505,144.78384828567505,144.78384828567505,144.78384828567505,144.78384828567505,146.12752676010132,2,1.4982795715332031,None,,,,,,,,,,,,,,,,,,237,1,2025-03-12_12h55.56.486,comp,2024.2.4,57.32923100474702,2025-03-12 12h56.04.323890 -0400,
18,18,0,critical,dhw,20.0,3.0,lower,78.0,78.0,133.0,57.0,57.0,133.0,1,3.908345937728882,None,,,,,0,0,0,0,0,18,18,56,146.14413189888,,,,,,,,,,,,,,,,,,,,,,,,,,,,,,,,,,,,,,,,,,,,,,,,,,,,,,,,,,,,,,,,,,,,,,,,,,,,,,,,,78.0,78.0,133.0,57.0,57.0,133.0,3.0,3.1,-164,284,0,-14,191,-290,146.129070520401,146.129150390625,146.1324484348297,146.14413189888,146.29511952400208,146.29511952400208,146.29511952400208,146.29511952400208,146.29511952400208,146.29511952400208,146.29511952400208,150.06252479553223,1,3.908345937728882,None,,,,,,,,,,,,,,,,,,237,1,2025-03-12_12h55.56.486,comp,2024.2.4,57.32923100474702,2025-03-12 12h56.04.323890 -0400,
19,19,0,filler_random,None,None,None,None,None,None,None,None,None,None,2,1.61000657081604,None,,,,,0,0,0,0,0,19,19,139,150.08296060562134,,,,,,,,,,,,,,,,,,,,,,,,,,,,,,,,,,,,,,,,,,,,,,,,,,,,,,,,,,,,,,,,,,,,,,,,,,,,,,,,,188.74038627051448,63.15439358023742,199.0910469349375,143.89386722223185,144.12065968847784,193.0385031840466,2.2,2.22,-200,272,0,-267,264,-262,150.06425833702087,150.06433963775635,150.06767678260803,150.08296060562134,150.22833514213562,150.22833514213562,150.22833514213562,150.22833514213562,150.22833514213562,150.22833514213562,150.22833514213562,151.69541358947754,2,1.61000657081604,None,,,,,,,,,,,,,,,,,,237,1,2025-03-12_12h55.56.486,comp,2024.2.4,57.32923100474702,2025-03-12 12h56.04.323890 -0400,
20,20,0,filler_random,None,None,None,None,None,None,None,None,None,None,3,2.6920182704925537,None,,,,,0,0,0,0,0,20,20,165,151.71238017082214,,,,,,,,,,,,,,,,,,,,,,,,,,,,,,,,,,,,,,,,,,,,,,,,,,,,,,,,,,,,,,,,,,,,,,,,,,,,,,,,,68.49885654969124,116.60946766226519,73.73284693718371,133.5260265154525,150.35281750390618,122.01180780476726,2.2,2.22,-221,256,0,-273,224,-285,151.6972234249115,151.6973569393158,151.70092582702637,151.71238017082214,151.86670637130737,151.86670637130737,151.86670637130737,151.86670637130737,151.86670637130737,151.86670637130737,151.86670637130737,154.4212691783905,3,2.6920182704925537,None,,,,,,,,,,,,,,,,,,237,1,2025-03-12_12h55.56.486,comp,2024.2.4,57.32923100474702,2025-03-12 12h56.04.323890 -0400,
21,21,0,filler_random,None,None,None,None,None,None,None,None,None,None,2,1.8219361305236816,None,,,,,0,0,0,0,0,21,21,134,154.43891191482544,,,,,,,,,,,,,,,,,,,,,,,,,,,,,,,,,,,,,,,,,,,,,,,,,,,,,,,,,,,,,,,,,,,,,,,,,,,,,,,,,107.24915065798953,81.0232544078688,120.4010130531862,96.91317996390987,198.80107212608414,82.7312946663466,2.2,2.21,-185,-284,0,255,186,278,154.42299580574036,154.42307305335999,154.42596578598022,154.43891191482544,154.58080172538757,154.58080172538757,154.58080172538757,154.58080172538757,154.58080172538757,154.58080172538757,154.58080172538757,156.26331758499146,2,1.8219361305236816,None,,,,,,,,,,,,,,,,,,237,1,2025-03-12_12h55.56.486,comp,2024.2.4,57.32923100474702,2025-03-12 12h56.04.323890 -0400,
22,22,0,critical,dwh,20.0,4.0,upper,141.0,141.0,125.0,200.0,200.0,125.0,1,2.144550323486328,None,,,,,0,0,0,0,0,22,22,71,156.2840530872345,,,,,,,,,,,,,,,,,,,,,,,,,,,,,,,,,,,,,,,,,,,,,,,,,,,,,,,,,,,,,,,,,,,,,,,,,,,,,,,,,141.0,141.0,125.0,200.0,200.0,125.0,4.0,4.1,-266,-259,0,7,258,-251,156.2649052143097,156.2649838924408,156.26866745948792,156.2840530872345,156.43051624298096,156.43051624298096,156.43051624298096,156.43051624298096,156.43051624298096,156.43051624298096,156.43051624298096,158.43426513671875,1,2.144550323486328,None,,,,,,,,,,,,,,,,,,237,1,2025-03-12_12h55.56.486,comp,2024.2.4,57.32923100474702,2025-03-12 12h56.04.323890 -0400,
23,23,0,critical,whd,35.0,2.1,lower,57.0,133.0,133.0,57.0,70.0,70.0,2,8.375931024551392,None,,,,,0,0,0,0,0,23,23,12,158.45291090011597,,,,,,,,,,,,,,,,,,,,,,,,,,,,,,,,,,,,,,,,,,,,,,,,,,,,,,,,,,,,,,,,,,,,,,,,,,,,,,,,,57.0,133.0,133.0,57.0,70.0,70.0,2.1,2.12,-191,-253,0,-278,160,266,158.43594622612,158.43608593940735,158.43953394889832,158.45291090011597,158.59881615638733,158.59881615638733,158.59881615638733,158.59881615638733,158.59881615638733,158.59881615638733,158.59881615638733,166.8332245349884,2,8.375931024551392,None,,,,,,,,,,,,,,,,,,237,1,2025-03-12_12h55.56.486,comp,2024.2.4,57.32923100474702,2025-03-12 12h56.04.323890 -0400,
24,24,0,critical,dhw,20.0,1.0,upper,141.0,141.0,200.0,125.0,125.0,200.0,3,2.3708269596099854,None,,,,,0,0,0,0,0,24,24,55,166.8496608734131,,,,,,,,,,,,,,,,,,,,,,,,,,,,,,,,,,,,,,,,,,,,,,,,,,,,,,,,,,,,,,,,,,,,,,,,,,,,,,,,,141.0,141.0,200.0,125.0,125.0,200.0,1.0,1.2,-229,19,0,-15,258,-16,166.83472847938538,166.83480668067932,166.8379030227661,166.8496608734131,167.0072627067566,167.0072627067566,167.0072627067566,167.0072627067566,167.0072627067566,167.0072627067566,167.0072627067566,169.23329520225525,3,2.3708269596099854,None,,,,,,,,,,,,,,,,,,237,1,2025-03-12_12h55.56.486,comp,2024.2.4,57.32923100474702,2025-03-12 12h56.04.323890 -0400,
25,25,0,critical,hwd,20.0,2.1,lower,133.0,57.0,57.0,133.0,78.0,78.0,3,3.6115145683288574,None,,,,,0,0,0,0,0,25,25,42,169.24904012680054,,,,,,,,,,,,,,,,,,,,,,,,,,,,,,,,,,,,,,,,,,,,,,,,,,,,,,,,,,,,,,,,,,,,,,,,,,,,,,,,,133.0,57.0,57.0,133.0,78.0,78.0,2.1,2.12,-191,-269,0,-287,202,280,169.2349145412445,169.2349922657013,169.23799633979797,169.24904012680054,169.40243935585022,169.40243935585022,169.40243935585022,169.40243935585022,169.40243935585022,169.40243935585022,169.40243935585022,172.87052512168884,3,3.6115145683288574,None,,,,,,,,,,,,,,,,,,237,1,2025-03-12_12h55.56.486,comp,2024.2.4,57.32923100474702,2025-03-12 12h56.04.323890 -0400,
26,26,0,critical,whd,35.0,2.1,upper,125.0,200.0,200.0,125.0,127.0,127.0,2,3.510188341140747,None,,,,,0,0,0,0,0,26,26,13,172.8874168395996,,,,,,,,,,,,,,,,,,,,,,,,,,,,,,,,,,,,,,,,,,,,,,,,,,,,,,,,,,,,,,,,,,,,,,,,,,,,,,,,,125.0,200.0,200.0,125.0,127.0,127.0,2.1,2.11,-258,275,0,274,222,-272,172.87203550338745,172.87214612960815,172.8757083415985,172.8874168395996,173.0359809398651,173.0359809398651,173.0359809398651,173.0359809398651,173.0359809398651,173.0359809398651,173.0359809398651,176.40420866012573,2,3.510188341140747,None,,,,,,,,,,,,,,,,,,237,1,2025-03-12_12h55.56.486,comp,2024.2.4,57.32923100474702,2025-03-12 12h56.04.323890 -0400,
27,27,0,critical,dwh,35.0,3.0,upper,127.0,127.0,125.0,200.0,200.0,125.0,2,5.696881294250488,None,,,,,0,0,0,0,0,27,27,63,176.4206748008728,,,,,,,,,,,,,,,,,,,,,,,,,,,,,,,,,,,,,,,,,,,,,,,,,,,,,,,,,,,,,,,,,,,,,,,,,,,,,,,,,127.0,127.0,125.0,200.0,200.0,125.0,3.0,3.2,-260,-257,0,5,258,252,176.40588760375977,176.40600037574768,176.40963220596313,176.4206748008728,176.57063722610474,176.57063722610474,176.57063722610474,176.57063722610474,176.57063722610474,176.57063722610474,176.57063722610474,182.12263822555542,2,5.696881294250488,None,,,,,,,,,,,,,,,,,,237,1,2025-03-12_12h55.56.486,comp,2024.2.4,57.32923100474702,2025-03-12 12h56.04.323890 -0400,
28,28,0,critical,dwh,20.0,1.0,upper,141.0,141.0,125.0,200.0,200.0,125.0,2,3.059162139892578,None,,,,,0,0,0,0,0,28,28,67,182.13862705230713,,,,,,,,,,,,,,,,,,,,,,,,,,,,,,,,,,,,,,,,,,,,,,,,,,,,,,,,,,,,,,,,,,,,,,,,,,,,,,,,,141.0,141.0,125.0,200.0,200.0,125.0,1.0,1.1,-746,285,-480,277,-222,280,182.1241900920868,182.12427234649658,182.12773251533508,182.13862705230713,182.28865575790405,182.28865575790405,182.28865575790405,182.28865575790405,182.28865575790405,182.28865575790405,182.28865575790405,185.2080295085907,2,3.059162139892578,None,,,,,,,,,,,,,,,,,,237,1,2025-03-12_12h55.56.486,comp,2024.2.4,57.32923100474702,2025-03-12 12h56.04.323890 -0400,
29,29,0,filler_square,None,None,None,None,None,None,None,None,None,None,3,2.220524549484253,None,,,,,0,0,0,0,0,29,29,180,185.22423839569092,,,,,,,,,,,,,,,,,,,,,,,,,,,,,,,,,,,,,,,,,,,,,,,,,,,,,,,,,,,,,,,,,,,,,,,,,,,,,,,,,84.24026603589286,85.25289199070757,76.1775488784668,100.42140791924751,104.67919350290582,104.67919350290582,4.0,4.2,-189,7,0,-269,199,-9,185.20998692512512,185.21006798744202,185.21332597732544,185.22423839569092,185.3725025653839,185.3725025653839,185.3725025653839,185.3725025653839,185.3725025653839,185.3725025653839,185.3725025653839,187.4620497226715,3,2.220524549484253,None,,,,,,,,,,,,,,,,,,237,1,2025-03-12_12h55.56.486,comp,2024.2.4,57.32923100474702,2025-03-12 12h56.04.323890 -0400,
30,30,0,critical,hwd,20.0,2.1,lower,133.0,57.0,57.0,133.0,78.0,78.0,2,3.549227714538574,None,,,,,0,0,0,0,0,30,30,18,187.4793472290039,,,,,,,,,,,,,,,,,,,,,,,,,,,,,,,,,,,,,,,,,,,,,,,,,,,,,,,,,,,,,,,,,,,,,,,,,,,,,,,,,133.0,57.0,57.0,133.0,78.0,78.0,2.1,2.12,-191,-276,0,-286,202,267,187.46359729766846,187.46367573738098,187.46657061576843,187.4793472290039,187.6243031024933,187.6243031024933,187.6243031024933,187.6243031024933,187.6243031024933,187.6243031024933,187.6243031024933,191.0441460609436,2,3.549227714538574,None,,,,,,,,,,,,,,,,,,237,1,2025-03-12_12h55.56.486,comp,2024.2.4,57.32923100474702,2025-03-12 12h56.04.323890 -0400,
31,31,0,filler_square,None,None,None,None,None,None,None,None,None,None,3,1.9124937057495117,None,,,,,0,0,0,0,0,31,31,177,191.06071949005127,,,,,,,,,,,,,,,,,,,,,,,,,,,,,,,,,,,,,,,,,,,,,,,,,,,,,,,,,,,,,,,,,,,,,,,,,,,,,,,,,146.5668558829756,66.52906764321948,137.45198424806557,141.525831695483,184.084419905416,184.084419905416,3.0,3.2,-200,-258,0,17,259,260,191.04625487327576,191.04634046554565,191.04978561401367,191.06071949005127,191.2084059715271,191.2084059715271,191.2084059715271,191.2084059715271,191.2084059715271,191.2084059715271,191.2084059715271,192.97526001930237,3,1.9124937057495117,None,,,,,,,,,,,,,,,,,,237,1,2025-03-12_12h55.56.486,comp,2024.2.4,57.32923100474702,2025-03-12 12h56.04.323890 -0400,
32,32,0,critical,hdw,35.0,4.0,lower,133.0,57.0,70.0,70.0,57.0,133.0,1,3.7165355682373047,None,,,,,0,0,0,0,0,32,32,112,192.9921898841858,,,,,,,,,,,,,,,,,,,,,,,,,,,,,,,,,,,,,,,,,,,,,,,,,,,,,,,,,,,,,,,,,,,,,,,,,,,,,,,,,133.0,57.0,70.0,70.0,57.0,133.0,4.0,4.1,-160,-289,0,-1,198,-274,192.97690057754517,192.9769802093506,192.98028564453125,192.9921898841858,193.1421401500702,193.1421401500702,193.1421401500702,193.1421401500702,193.1421401500702,193.1421401500702,193.1421401500702,196.72014713287354,1,3.7165355682373047,None,,,,,,,,,,,,,,,,,,237,1,2025-03-12_12h55.56.486,comp,2024.2.4,57.32923100474702,2025-03-12 12h56.04.323890 -0400,
33,33,0,critical,whd,35.0,3.0,lower,57.0,133.0,133.0,57.0,70.0,70.0,1,7.578476905822754,None,,,,,0,0,0,0,0,33,33,86,196.73800015449524,,,,,,,,,,,,,,,,,,,,,,,,,,,,,,,,,,,,,,,,,,,,,,,,,,,,,,,,,,,,,,,,,,,,,,,,,,,,,,,,,57.0,133.0,133.0,57.0,70.0,70.0,3.0,3.2,-191,-286,0,-15,160,270,196.72171306610107,196.72179317474365,196.72468400001526,196.73800015449524,196.87740182876587,196.87740182876587,196.87740182876587,196.87740182876587,196.87740182876587,196.87740182876587,196.87740182876587,204.33031964302063,1,7.578476905822754,None,,,,,,,,,,,,,,,,,,237,1,2025-03-12_12h55.56.486,comp,2024.2.4,57.32923100474702,2025-03-12 12h56.04.323890 -0400,
34,34,0,filler_random,None,None,None,None,None,None,None,None,None,None,1,2.6738808155059814,None,,,,,0,0,0,0,0,34,34,142,204.34660148620605,,,,,,,,,,,,,,,,,,,,,,,,,,,,,,,,,,,,,,,,,,,,,,,,,,,,,,,,,,,,,,,,,,,,,,,,,,,,,,,,,171.67939917726557,131.7218862121657,127.51897964341883,152.80467886472954,123.40200867921341,95.15290741767228,4.0,4.2,-238,-5,0,-261,220,-11,204.33237600326538,204.33245658874512,204.33611750602722,204.34660148620605,204.49564909934998,204.49564909934998,204.49564909934998,204.49564909934998,204.49564909934998,204.49564909934998,204.49564909934998,207.03597712516785,1,2.6738808155059814,None,,,,,,,,,,,,,,,,,,237,1,2025-03-12_12h55.56.486,comp,2024.2.4,57.32923100474702,2025-03-12 12h56.04.323890 -0400,
35,35,0,critical,dwh,20.0,4.0,lower,78.0,78.0,57.0,133.0,133.0,57.0,2,2.837698459625244,None,,,,,0,0,0,0,0,35,35,70,207.05531096458435,,,,,,,,,,,,,,,,,,,,,,,,,,,,,,,,,,,,,,,,,,,,,,,,,,,,,,,,,,,,,,,,,,,,,,,,,,,,,,,,,78.0,78.0,57.0,133.0,133.0,57.0,4.0,4.2,-202,-16,0,-261,191,0,207.03762912750244,207.0377118587494,207.04108333587646,207.05531096458435,207.19621634483337,207.19621634483337,207.19621634483337,207.19621634483337,207.19621634483337,207.19621634483337,207.19621634483337,209.89673900604248,2,2.837698459625244,None,,,,,,,,,,,,,,,,,,237,1,2025-03-12_12h55.56.486,comp,2024.2.4,57.32923100474702,2025-03-12 12h56.04.323890 -0400,
36,36,0,filler_random,None,None,None,None,None,None,None,None,None,None,2,1.5707476139068604,None,,,,,0,0,0,0,0,36,36,167,209.91387963294983,,,,,,,,,,,,,,,,,,,,,,,,,,,,,,,,,,,,,,,,,,,,,,,,,,,,,,,,,,,,,,,,,,,,,,,,,,,,,,,,,82.13049923666749,123.29857393516527,161.547973482193,157.8666905301039,121.9448069555062,74.70206558581289,4.0,4.2,-237,-15,0,-262,212,7,209.8984670639038,209.89858269691467,209.90169668197632,209.91387963294983,210.0645613670349,210.0645613670349,210.0645613670349,210.0645613670349,210.0645613670349,210.0645613670349,210.0645613670349,211.50187373161316,2,1.5707476139068604,None,,,,,,,,,,,,,,,,,,237,1,2025-03-12_12h55.56.486,comp,2024.2.4,57.32923100474702,2025-03-12 12h56.04.323890 -0400,
37,37,0,critical,dhw,20.0,2.1,upper,141.0,141.0,200.0,125.0,125.0,200.0,3,2.237379550933838,None,,,,,0,0,0,0,0,37,37,3,211.52261638641357,,,,,,,,,,,,,,,,,,,,,,,,,,,,,,,,,,,,,,,,,,,,,,,,,,,,,,,,,,,,,,,,,,,,,,,,,,,,,,,,,141.0,141.0,200.0,125.0,125.0,200.0,2.1,2.11,-229,267,0,251,258,-278,211.50361728668213,211.5037543773651,211.50713777542114,211.52261638641357,211.66458225250244,211.66458225250244,211.66458225250244,211.66458225250244,211.66458225250244,211.66458225250244,211.66458225250244,213.76412987709045,3,2.237379550933838,None,,,,,,,,,,,,,,,,,,237,1,2025-03-12_12h55.56.486,comp,2024.2.4,57.32923100474702,2025-03-12 12h56.04.323890 -0400,
38,38,0,critical,hdw,20.0,3.0,lower,133.0,57.0,78.0,78.0,57.0,133.0,3,3.0311431884765625,None,,,,,0,0,0,0,0,38,38,116,213.78140091896057,,,,,,,,,,,,,,,,,,,,,,,,,,,,,,,,,,,,,,,,,,,,,,,,,,,,,,,,,,,,,,,,,,,,,,,,,,,,,,,,,133.0,57.0,78.0,78.0,57.0,133.0,3.0,3.2,-164,-272,0,12,202,266,213.76586890220642,213.765949010849,213.76925015449524,213.78140091896057,213.93633341789246,213.93633341789246,213.93633341789246,213.93633341789246,213.93633341789246,213.93633341789246,213.93633341789246,216.8170211315155,3,3.0311431884765625,None,,,,,,,,,,,,,,,,,,237,1,2025-03-12_12h55.56.486,comp,2024.2.4,57.32923100474702,2025-03-12 12h56.04.323890 -0400,
39,39,0,critical,dhw,20.0,2.1,upper,141.0,141.0,200.0,125.0,125.0,200.0,3,3.2194087505340576,None,,,,,0,0,0,0,0,39,39,27,216.83311462402344,,,,,,,,,,,,,,,,,,,,,,,,,,,,,,,,,,,,,,,,,,,,,,,,,,,,,,,,,,,,,,,,,,,,,,,,,,,,,,,,,141.0,141.0,200.0,125.0,125.0,200.0,2.1,2.11,-229,258,0,284,258,-270,216.81867671012878,216.8187553882599,216.8222074508667,216.83311462402344,216.98145484924316,216.98145484924316,216.98145484924316,216.98145484924316,216.98145484924316,216.98145484924316,216.98145484924316,220.0691487789154,3,3.2194087505340576,None,,,,,,,,,,,,,,,,,,237,1,2025-03-12_12h55.56.486,comp,2024.2.4,57.32923100474702,2025-03-12 12h56.04.323890 -0400,
40,40,0,critical,whd,20.0,2.1,upper,125.0,200.0,200.0,125.0,141.0,141.0,1,2.2540290355682373,None,,,,,0,0,0,0,0,40,40,39,220.08664679527283,,,,,,,,,,,,,,,,,,,,,,,,,,,,,,,,,,,,,,,,,,,,,,,,,,,,,,,,,,,,,,,,,,,,,,,,,,,,,,,,,125.0,200.0,200.0,125.0,141.0,141.0,2.1,2.12,-258,-259,0,-280,229,251,220.07078504562378,220.07086324691772,220.0739185810089,220.08664679527283,220.23402285575867,220.23402285575867,220.23402285575867,220.23402285575867,220.23402285575867,220.23402285575867,220.23402285575867,222.35805296897888,1,2.2540290355682373,None,,,,,,,,,,,,,,,,,,237,1,2025-03-12_12h55.56.486,comp,2024.2.4,57.32923100474702,2025-03-12 12h56.04.323890 -0400,
41,41,0,filler_square,None,None,None,None,None,None,None,None,None,None,3,3.30324387550354,None,,,,,0,0,0,0,0,41,41,205,222.37350130081177,,,,,,,,,,,,,,,,,,,,,,,,,,,,,,,,,,,,,,,,,,,,,,,,,,,,,,,,,,,,,,,,,,,,,,,,,,,,,,,,,66.82743490723382,62.53683788691845,70.03747825578975,75.25918836521345,76.44306881604653,76.44306881604653,3.0,3.1,-165,262,0,-9,172,-287,222.3599078655243,222.35998964309692,222.36292552947998,222.37350130081177,222.5181860923767,222.5181860923767,222.5181860923767,222.5181860923767,222.5181860923767,222.5181860923767,222.5181860923767,225.68132972717285,3,3.30324387550354,None,,,,,,,,,,,,,,,,,,237,1,2025-03-12_12h55.56.486,comp,2024.2.4,57.32923100474702,2025-03-12 12h56.04.323890 -0400,
42,42,0,critical,dhw,35.0,2.1,lower,70.0,70.0,133.0,57.0,57.0,133.0,1,14.83565616607666,None,,,,,0,0,0,0,0,42,42,0,225.69708919525146,,,,,,,,,,,,,,,,,,,,,,,,,,,,,,,,,,,,,,,,,,,,,,,,,,,,,,,,,,,,,,,,,,,,,,,,,,,,,,,,,70.0,70.0,133.0,57.0,57.0,133.0,2.1,2.11,-160,255,0,262,191,-278,225.68293118476868,225.68301153182983,225.6859655380249,225.69708919525146,225.8373739719391,225.8373739719391,225.8373739719391,225.8373739719391,225.8373739719391,225.8373739719391,225.8373739719391,240.54755568504333,1,14.83565616607666,None,,,,,,,,,,,,,,,,,,237,1,2025-03-12_12h55.56.486,comp,2024.2.4,57.32923100474702,2025-03-12 12h56.04.323890 -0400,
43,43,0,filler_random,None,None,None,None,None,None,None,None,None,None,1,1.6959054470062256,None,,,,,0,0,0,0,0,43,43,149,240.56524920463562,,,,,,,,,,,,,,,,,,,,,,,,,,,,,,,,,,,,,,,,,,,,,,,,,,,,,,,,,,,,,,,,,,,,,,,,,,,,,,,,,187.25184491035878,196.89594240346005,192.29794457849837,106.23697467833821,161.44989750039036,148.64331059042212,1.0,1.3,232,-265,480,-282,703,-261,240.5492742061615,240.54935693740845,240.5522584915161,240.56524920463562,240.70671677589417,240.70671677589417,240.70671677589417,240.70671677589417,240.70671677589417,240.70671677589417,240.70671677589417,242.26677584648132,1,1.6959054470062256,None,,,,,,,,,,,,,,,,,,237,1,2025-03-12_12h55.56.486,comp,2024.2.4,57.32923100474702,2025-03-12 12h56.04.323890 -0400,
44,44,0,critical,dhw,20.0,4.0,upper,141.0,141.0,200.0,125.0,125.0,200.0,3,3.3296127319335938,None,,,,,0,0,0,0,0,44,44,59,242.28536772727966,,,,,,,,,,,,,,,,,,,,,,,,,,,,,,,,,,,,,,,,,,,,,,,,,,,,,,,,,,,,,,,,,,,,,,,,,,,,,,,,,141.0,141.0,200.0,125.0,125.0,200.0,4.0,4.1,-229,-258,0,9,258,-263,242.26837944984436,242.26850366592407,242.271901845932,242.28536772727966,242.42480945587158,242.42480945587158,242.42480945587158,242.42480945587158,242.42480945587158,242.42480945587158,242.42480945587158,245.62628078460693,3,3.3296127319335938,None,,,,,,,,,,,,,,,,,,237,1,2025-03-12_12h55.56.486,comp,2024.2.4,57.32923100474702,2025-03-12 12h56.04.323890 -0400,
45,45,0,filler_random,None,None,None,None,None,None,None,None,None,None,2,1.4168434143066406,None,,,,,0,0,0,0,0,45,45,164,245.6437017917633,,,,,,,,,,,,,,,,,,,,,,,,,,,,,,,,,,,,,,,,,,,,,,,,,,,,,,,,,,,,,,,,,,,,,,,,,,,,,,,,,118.1642396920555,85.68554454529784,154.9016876201894,168.38600148096776,122.19895691204891,95.47233209140204,3.0,3.1,-223,279,0,11,228,-274,245.62808108329773,245.62819743156433,245.6317856311798,245.6437017917633,245.79261922836304,245.79261922836304,245.79261922836304,245.79261922836304,245.79261922836304,245.79261922836304,245.79261922836304,247.07507419586182,2,1.4168434143066406,None,,,,,,,,,,,,,,,,,,237,1,2025-03-12_12h55.56.486,comp,2024.2.4,57.32923100474702,2025-03-12 12h56.04.323890 -0400,
46,46,0,critical,hdw,20.0,3.0,upper,200.0,125.0,141.0,141.0,125.0,200.0,1,2.921421766281128,None,,,,,0,0,0,0,0,46,46,117,247.09116768836975,,,,,,,,,,,,,,,,,,,,,,,,,,,,,,,,,,,,,,,,,,,,,,,,,,,,,,,,,,,,,,,,,,,,,,,,,,,,,,,,,200.0,125.0,141.0,141.0,125.0,200.0,3.0,3.2,-229,-287,0,-15,266,263,247.07657647132874,247.07665371894836,247.0797460079193,247.09116768836975,247.23144221305847,247.23144221305847,247.23144221305847,247.23144221305847,247.23144221305847,247.23144221305847,247.23144221305847,250.02856040000916,1,2.921421766281128,None,,,,,,,,,,,,,,,,,,237,1,2025-03-12_12h55.56.486,comp,2024.2.4,57.32923100474702,2025-03-12 12h56.04.323890 -0400,
47,47,0,critical,dwh,35.0,2.1,upper,127.0,127.0,125.0,200.0,200.0,125.0,3,2.559943437576294,None,,,,,0,0,0,0,0,47,47,5,250.04534792900085,,,,,,,,,,,,,,,,,,,,,,,,,,,,,,,,,,,,,,,,,,,,,,,,,,,,,,,,,,,,,,,,,,,,,,,,,,,,,,,,,127.0,127.0,125.0,200.0,200.0,125.0,2.1,2.11,-260,278,0,258,258,-288,250.03028273582458,250.03038907051086,250.0339276790619,250.04534792900085,250.19792461395264,250.19792461395264,250.19792461395264,250.19792461395264,250.19792461395264,250.19792461395264,250.19792461395264,252.61350321769714,3,2.559943437576294,None,,,,,,,,,,,,,,,,,,237,1,2025-03-12_12h55.56.486,comp,2024.2.4,57.32923100474702,2025-03-12 12h56.04.323890 -0400,
48,48,0,critical,wdh,35.0,1.0,upper,125.0,200.0,127.0,127.0,200.0,125.0,1,2.1102235317230225,None,,,,,0,0,0,0,0,48,48,73,252.6304612159729,,,,,,,,,,,,,,,,,,,,,,,,,,,,,,,,,,,,,,,,,,,,,,,,,,,,,,,,,,,,,,,,,,,,,,,,,,,,,,,,,125.0,200.0,127.0,127.0,200.0,125.0,1.0,1.1,-740,282,-480,277,-258,258,252.61533427238464,252.61541604995728,252.61928987503052,252.6304612159729,252.78167009353638,252.78167009353638,252.78167009353638,252.78167009353638,252.78167009353638,252.78167009353638,252.78167009353638,254.74512553215027,1,2.1102235317230225,None,,,,,,,,,,,,,,,,,,237,1,2025-03-12_12h55.56.486,comp,2024.2.4,57.32923100474702,2025-03-12 12h56.04.323890 -0400,
49,49,0,critical,whd,20.0,3.0,upper,125.0,200.0,200.0,125.0,141.0,141.0,1,4.067483425140381,None,,,,,0,0,0,0,0,49,49,93,254.76107501983643,,,,,,,,,,,,,,,,,,,,,,,,,,,,,,,,,,,,,,,,,,,,,,,,,,,,,,,,,,,,,,,,,,,,,,,,,,,,,,,,,125.0,200.0,200.0,125.0,141.0,141.0,3.0,3.1,-258,265,0,-8,229,-286,254.7467167377472,254.7467975616455,254.75017142295837,254.76107501983643,254.9088592529297,254.9088592529297,254.9088592529297,254.9088592529297,254.9088592529297,254.9088592529297,254.9088592529297,258.8442008495331,1,4.067483425140381,None,,,,,,,,,,,,,,,,,,237,1,2025-03-12_12h55.56.486,comp,2024.2.4,57.32923100474702,2025-03-12 12h56.04.323890 -0400,
50,50,0,critical,hwd,35.0,4.0,lower,133.0,57.0,57.0,133.0,70.0,70.0,2,2.5206377506256104,None,,,,,0,0,0,0,0,50,50,100,258.8598864078522,,,,,,,,,,,,,,,,,,,,,,,,,,,,,,,,,,,,,,,,,,,,,,,,,,,,,,,,,,,,,,,,,,,,,,,,,,,,,,,,,133.0,57.0,57.0,133.0,70.0,70.0,4.0,4.2,-191,5,0,-283,198,6,258.8457741737366,258.84585213661194,258.8488347530365,258.8598864078522,259.01199316978455,259.01199316978455,259.01199316978455,259.01199316978455,259.01199316978455,259.01199316978455,259.01199316978455,261.39703154563904,2,2.5206377506256104,None,,,,,,,,,,,,,,,,,,237,1,2025-03-12_12h55.56.486,comp,2024.2.4,57.32923100474702,2025-03-12 12h56.04.323890 -0400,
51,51,0,critical,whd,35.0,4.0,lower,57.0,133.0,133.0,57.0,70.0,70.0,1,1.5682122707366943,None,,,,,0,0,0,0,0,51,51,88,261.41270422935486,,,,,,,,,,,,,,,,,,,,,,,,,,,,,,,,,,,,,,,,,,,,,,,,,,,,,,,,,,,,,,,,,,,,,,,,,,,,,,,,,57.0,133.0,133.0,57.0,70.0,70.0,4.0,4.2,-191,0,0,-281,160,-18,261.3985686302185,261.39867091178894,261.40210247039795,261.41270422935486,261.5646216869354,261.5646216869354,261.5646216869354,261.5646216869354,261.5646216869354,261.5646216869354,261.5646216869354,262.99779772758484,1,1.5682122707366943,None,,,,,,,,,,,,,,,,,,237,1,2025-03-12_12h55.56.486,comp,2024.2.4,57.32923100474702,2025-03-12 12h56.04.323890 -0400,
52,52,0,critical,dhw,35.0,2.1,upper,127.0,127.0,200.0,125.0,125.0,200.0,3,2.183061361312866,None,,,,,0,0,0,0,0,52,52,1,263.0137195587158,,,,,,,,,,,,,,,,,,,,,,,,,,,,,,,,,,,,,,,,,,,,,,,,,,,,,,,,,,,,,,,,,,,,,,,,,,,,,,,,,127.0,127.0,200.0,125.0,125.0,200.0,2.1,2.12,-222,-269,0,-267,258,263,262.9994480609894,262.999596118927,263.0031979084015,263.0137195587158,263.16508769989014,263.16508769989014,263.16508769989014,263.16508769989014,263.16508769989014,263.16508769989014,263.16508769989014,265.200804233551,3,2.183061361312866,None,,,,,,,,,,,,,,,,,,237,1,2025-03-12_12h55.56.486,comp,2024.2.4,57.32923100474702,2025-03-12 12h56.04.323890 -0400,
53,53,0,filler_random,None,None,None,None,None,None,None,None,None,None,1,1.2452998161315918,None,,,,,0,0,0,0,0,53,53,132,265.2165734767914,,,,,,,,,,,,,,,,,,,,,,,,,,,,,,,,,,,,,,,,,,,,,,,,,,,,,,,,,,,,,,,,,,,,,,,,,,,,,,,,,170.89661514818297,152.72558047800555,87.5175315010946,173.90038706111537,146.6100788270268,91.78443907050857,2.1,2.11,-259,263,0,267,229,-281,265.20262360572815,265.2027053833008,265.20566844940186,265.2165734767914,265.3662714958191,265.3662714958191,265.3662714958191,265.3662714958191,265.3662714958191,265.3662714958191,265.3662714958191,266.4669692516327,1,1.2452998161315918,None,,,,,,,,,,,,,,,,,,237,1,2025-03-12_12h55.56.486,comp,2024.2.4,57.32923100474702,2025-03-12 12h56.04.323890 -0400,
54,54,0,catch,None,None,None,None,None,None,None,None,None,None,1,2.064739227294922,None,,,,,0,0,0,0,0,54,54,129,266.4838411808014,,,,,,,,,,,,,,,,,,,,,,,,,,,,,,,,,,,,,,,,,,,,,,,,,,,,,,,,,,,,,,,,,,,,,,,,,,,,,,,,,189,136,127,63,95,95,2.1,2.12,-196,-278,0,-252,175,261,266.46907901763916,266.46916151046753,266.47304797172546,266.4838411808014,266.6202435493469,266.6202435493469,266.6202435493469,266.6202435493469,266.6202435493469,266.6202435493469,266.6202435493469,268.5644030570984,1,2.064739227294922,None,,,,,,,,,,,,,,,,,,237,1,2025-03-12_12h55.56.486,comp,2024.2.4,57.32923100474702,2025-03-12 12h56.04.323890 -0400,
55,55,0,critical,wdh,20.0,2.1,lower,57.0,133.0,78.0,78.0,133.0,57.0,2,1.7463090419769287,None,,,,,0,0,0,0,0,55,55,34,268.580628156662,,,,,,,,,,,,,,,,,,,,,,,,,,,,,,,,,,,,,,,,,,,,,,,,,,,,,,,,,,,,,,,,,,,,,,,,,,,,,,,,,57.0,133.0,78.0,78.0,133.0,57.0,2.1,2.12,-202,-279,0,-289,164,259,268.56600546836853,268.56608390808105,268.5691418647766,268.580628156662,268.73161339759827,268.73161339759827,268.73161339759827,268.73161339759827,268.73161339759827,268.73161339759827,268.73161339759827,270.33422088623047,2,1.7463090419769287,None,,,,,,,,,,,,,,,,,,237,1,2025-03-12_12h55.56.486,comp,2024.2.4,57.32923100474702,2025-03-12 12h56.04.323890 -0400,
56,56,0,filler_random,None,None,None,None,None,None,None,None,None,None,1,2.1722981929779053,None,,,,,0,0,0,0,0,56,56,163,270.35227060317993,,,,,,,,,,,,,,,,,,,,,,,,,,,,,,,,,,,,,,,,,,,,,,,,,,,,,,,,,,,,,,,,,,,,,,,,,,,,,,,,,64.39045260714836,80.2597160965813,189.8703567385255,79.96272742523942,92.20195150483848,68.46436955902546,4.0,4.1,-176,-259,0,-11,170,-267,270.336003780365,270.336088180542,270.3391444683075,270.35227060317993,270.49885964393616,270.49885964393616,270.49885964393616,270.49885964393616,270.49885964393616,270.49885964393616,270.49885964393616,272.5411603450775,1,2.1722981929779053,None,,,,,,,,,,,,,,,,,,237,1,2025-03-12_12h55.56.486,comp,2024.2.4,57.32923100474702,2025-03-12 12h56.04.323890 -0400,
57,57,0,critical,hdw,35.0,1.0,lower,133.0,57.0,70.0,70.0,57.0,133.0,3,3.4888176918029785,None,,,,,0,0,0,0,0,57,57,108,272.55620431900024,,,,,,,,,,,,,,,,,,,,,,,,,,,,,,,,,,,,,,,,,,,,,,,,,,,,,,,,,,,,,,,,,,,,,,,,,,,,,,,,,133.0,57.0,70.0,70.0,57.0,133.0,1.0,1.1,-640,262,-480,266,-282,281,272.54271388053894,272.54279375076294,272.545695066452,272.55620431900024,272.7012825012207,272.7012825012207,272.7012825012207,272.7012825012207,272.7012825012207,272.7012825012207,272.7012825012207,276.05289936065674,3,3.4888176918029785,None,,,,,,,,,,,,,,,,,,237,1,2025-03-12_12h55.56.486,comp,2024.2.4,57.32923100474702,2025-03-12 12h56.04.323890 -0400,
58,58,0,critical,dhw,20.0,2.1,lower,78.0,78.0,133.0,57.0,57.0,133.0,1,3.534304141998291,None,,,,,0,0,0,0,0,58,58,26,276.0712432861328,,,,,,,,,,,,,,,,,,,,,,,,,,,,,,,,,,,,,,,,,,,,,,,,,,,,,,,,,,,,,,,,,,,,,,,,,,,,,,,,,78.0,78.0,133.0,57.0,57.0,133.0,2.1,2.12,-164,-264,0,-265,191,280,276.05460715293884,276.0547432899475,276.0581212043762,276.0712432861328,276.2181627750397,276.2181627750397,276.2181627750397,276.2181627750397,276.2181627750397,276.2181627750397,276.2181627750397,279.61552333831787,1,3.534304141998291,None,,,,,,,,,,,,,,,,,,237,1,2025-03-12_12h55.56.486,comp,2024.2.4,57.32923100474702,2025-03-12 12h56.04.323890 -0400,
59,59,0,critical,whd,20.0,2.1,upper,125.0,200.0,200.0,125.0,141.0,141.0,1,3.1285760402679443,None,,,,,0,0,0,0,0,59,59,15,279.636159658432,,,,,,,,,,,,,,,,,,,,,,,,,,,,,,,,,,,,,,,,,,,,,,,,,,,,,,,,,,,,,,,,,,,,,,,,,,,,,,,,,125.0,200.0,200.0,125.0,141.0,141.0,2.1,2.11,-258,280,0,253,229,-256,279.6172070503235,279.6173417568207,279.6207010746002,279.636159658432,279.7824022769928,279.7824022769928,279.7824022769928,279.7824022769928,279.7824022769928,279.7824022769928,279.7824022769928,282.7777211666107,1,3.1285760402679443,None,,,,,,,,,,,,,,,,,,237,1,2025-03-12_12h55.56.486,comp,2024.2.4,57.32923100474702,2025-03-12 12h56.04.323890 -0400,
60,60,0,critical,hdw,20.0,2.1,upper,200.0,125.0,141.0,141.0,125.0,200.0,3,1.6565847396850586,None,,,,,0,0,0,0,0,60,60,23,282.79671263694763,,,,,,,,,,,,,,,,,,,,,,,,,,,,,,,,,,,,,,,,,,,,,,,,,,,,,,,,,,,,,,,,,,,,,,,,,,,,,,,,,200.0,125.0,141.0,141.0,125.0,200.0,2.1,2.12,-229,-252,0,-269,266,274,282.7792258262634,282.77930641174316,282.78221917152405,282.79671263694763,282.93745732307434,282.93745732307434,282.93745732307434,282.93745732307434,282.93745732307434,282.93745732307434,282.93745732307434,284.4553642272949,3,1.6565847396850586,None,,,,,,,,,,,,,,,,,,237,1,2025-03-12_12h55.56.486,comp,2024.2.4,57.32923100474702,2025-03-12 12h56.04.323890 -0400,
61,61,0,filler_square,None,None,None,None,None,None,None,None,None,None,1,1.622509241104126,None,,,,,0,0,0,0,0,61,61,191,284.4712014198303,,,,,,,,,,,,,,,,,,,,,,,,,,,,,,,,,,,,,,,,,,,,,,,,,,,,,,,,,,,,,,,,,,,,,,,,,,,,,,,,,157.4023051144132,157.4023051144132,100.99095600017478,131.3379159587985,132.3993565832011,140.76529969589876,3.0,3.1,-240,289,0,-9,232,-256,284.45727586746216,284.45740008354187,284.46035146713257,284.4712014198303,284.6212866306305,284.6212866306305,284.6212866306305,284.6212866306305,284.6212866306305,284.6212866306305,284.6212866306305,286.09689807891846,1,1.622509241104126,None,,,,,,,,,,,,,,,,,,237,1,2025-03-12_12h55.56.486,comp,2024.2.4,57.32923100474702,2025-03-12 12h56.04.323890 -0400,
62,62,0,critical,wdh,35.0,2.1,lower,57.0,133.0,70.0,70.0,133.0,57.0,1,21.251436471939087,None,,,,,0,0,0,0,0,62,62,8,286.11324858665466,,,,,,,,,,,,,,,,,,,,,,,,,,,,,,,,,,,,,,,,,,,,,,,,,,,,,,,,,,,,,,,,,,,,,,,,,,,,,,,,,57.0,133.0,70.0,70.0,133.0,57.0,2.1,2.12,-198,-270,0,-266,160,254,286.0985834598541,286.09866213798523,286.1020166873932,286.11324858665466,286.25689601898193,286.25689601898193,286.25689601898193,286.25689601898193,286.25689601898193,286.25689601898193,286.25689601898193,307.38188338279724,1,21.251436471939087,None,,,,,,,,,,,,,,,,,,237,1,2025-03-12_12h55.56.486,comp,2024.2.4,57.32923100474702,2025-03-12 12h56.04.323890 -0400,
63,63,0,critical,whd,35.0,3.0,upper,125.0,200.0,200.0,125.0,127.0,127.0,1,2.1592273712158203,None,,,,,0,0,0,0,0,63,63,87,307.39844489097595,,,,,,,,,,,,,,,,,,,,,,,,,,,,,,,,,,,,,,,,,,,,,,,,,,,,,,,,,,,,,,,,,,,,,,,,,,,,,,,,,125.0,200.0,200.0,125.0,127.0,127.0,3.0,3.1,-258,280,0,16,222,-273,307.38359785079956,307.383736371994,307.38730335235596,307.39844489097595,307.54365253448486,307.54365253448486,307.54365253448486,307.54365253448486,307.54365253448486,307.54365253448486,307.54365253448486,309.56241369247437,1,2.1592273712158203,None,,,,,,,,,,,,,,,,,,237,1,2025-03-12_12h55.56.486,comp,2024.2.4,57.32923100474702,2025-03-12 12h56.04.323890 -0400,
64,64,0,filler_square,None,None,None,None,None,None,None,None,None,None,2,3.3530161380767822,None,,,,,0,0,0,0,0,64,64,189,309.5795307159424,,,,,,,,,,,,,,,,,,,,,,,,,,,,,,,,,,,,,,,,,,,,,,,,,,,,,,,,,,,,,,,,,,,,,,,,,,,,,,,,,165.51077017692285,93.92224750458666,193.78554316609953,193.78554316609953,123.58325904691766,104.62210870943842,2.1,2.12,-240,-276,0,-262,245,289,309.56425952911377,309.5643391609192,309.56810212135315,309.5795307159424,309.73354387283325,309.73354387283325,309.73354387283325,309.73354387283325,309.73354387283325,309.73354387283325,309.73354387283325,312.946072101593,2,3.3530161380767822,None,,,,,,,,,,,,,,,,,,237,1,2025-03-12_12h55.56.486,comp,2024.2.4,57.32923100474702,2025-03-12 12h56.04.323890 -0400,
65,65,0,catch,None,None,None,None,None,None,None,None,None,None,2,2.2980968952178955,None,,,,,0,0,0,0,0,65,65,120,312.96260595321655,,,,,,,,,,,,,,,,,,,,,,,,,,,,,,,,,,,,,,,,,,,,,,,,,,,,,,,,,,,,,,,,,,,,,,,,,,,,,,,,,79,111,181,144,129,61,3.0,3.1,-224,284,0,-2,198,-252,312.94794392585754,312.94802379608154,312.9511077404022,312.96260595321655,313.11283826828003,313.11283826828003,313.11283826828003,313.11283826828003,313.11283826828003,313.11283826828003,313.11283826828003,315.2771985530853,2,2.2980968952178955,None,,,,,,,,,,,,,,,,,,237,1,2025-03-12_12h55.56.486,comp,2024.2.4,57.32923100474702,2025-03-12 12h56.04.323890 -0400,
66,66,0,critical,wdh,20.0,3.0,lower,57.0,133.0,78.0,78.0,133.0,57.0,2,3.8170459270477295,None,,,,,0,0,0,0,0,66,66,80,315.2923421859741,,,,,,,,,,,,,,,,,,,,,,,,,,,,,,,,,,,,,,,,,,,,,,,,,,,,,,,,,,,,,,,,,,,,,,,,,,,,,,,,,57.0,133.0,78.0,78.0,133.0,57.0,3.0,3.2,-202,-255,0,-19,164,278,315.2787549495697,315.2788336277008,315.28178548812866,315.2923421859741,315.4321382045746,315.4321382045746,315.4321382045746,315.4321382045746,315.4321382045746,315.4321382045746,315.4321382045746,319.11350536346436,2,3.8170459270477295,None,,,,,,,,,,,,,,,,,,237,1,2025-03-12_12h55.56.486,comp,2024.2.4,57.32923100474702,2025-03-12 12h56.04.323890 -0400,
67,67,0,filler_random,None,None,None,None,None,None,None,None,None,None,3,2.1142044067382812,None,,,,,0,0,0,0,0,67,67,152,319.13078117370605,,,,,,,,,,,,,,,,,,,,,,,,,,,,,,,,,,,,,,,,,,,,,,,,,,,,,,,,,,,,,,,,,,,,,,,,,,,,,,,,,151.71090966180589,160.48877131401494,184.02008009444023,102.39693852957168,118.80345144162166,177.79989741651053,2.1,2.12,-227,-265,0,-261,236,278,319.11527466773987,319.1154091358185,319.11877369880676,319.13078117370605,319.28643107414246,319.28643107414246,319.28643107414246,319.28643107414246,319.28643107414246,319.28643107414246,319.28643107414246,321.2539885044098,3,2.1142044067382812,None,,,,,,,,,,,,,,,,,,237,1,2025-03-12_12h55.56.486,comp,2024.2.4,57.32923100474702,2025-03-12 12h56.04.323890 -0400,
68,68,0,critical,dhw,35.0,2.1,lower,70.0,70.0,133.0,57.0,57.0,133.0,2,1.4951167106628418,None,,,,,0,0,0,0,0,68,68,24,321.2705454826355,,,,,,,,,,,,,,,,,,,,,,,,,,,,,,,,,,,,,,,,,,,,,,,,,,,,,,,,,,,,,,,,,,,,,,,,,,,,,,,,,70.0,70.0,133.0,57.0,57.0,133.0,2.1,2.12,-160,-274,0,-290,191,253,321.2557101249695,321.25584268569946,321.2591323852539,321.2705454826355,321.41746854782104,321.41746854782104,321.41746854782104,321.41746854782104,321.41746854782104,321.41746854782104,321.41746854782104,322.7731466293335,2,1.4951167106628418,None,,,,,,,,,,,,,,,,,,237,1,2025-03-12_12h55.56.486,comp,2024.2.4,57.32923100474702,2025-03-12 12h56.04.323890 -0400,
69,69,0,critical,hdw,20.0,4.0,upper,200.0,125.0,141.0,141.0,125.0,200.0,1,2.7118513584136963,None,,,,,0,0,0,0,0,69,69,119,322.7888333797455,,,,,,,,,,,,,,,,,,,,,,,,,,,,,,,,,,,,,,,,,,,,,,,,,,,,,,,,,,,,,,,,,,,,,,,,,,,,,,,,,200.0,125.0,141.0,141.0,125.0,200.0,4.0,4.1,-229,-281,0,13,266,-261,322.77467370033264,322.7747700214386,322.77795219421387,322.7888333797455,322.9330246448517,322.9330246448517,322.9330246448517,322.9330246448517,322.9330246448517,322.9330246448517,322.9330246448517,325.5181841850281,1,2.7118513584136963,None,,,,,,,,,,,,,,,,,,237,1,2025-03-12_12h55.56.486,comp,2024.2.4,57.32923100474702,2025-03-12 12h56.04.323890 -0400,
70,70,0,filler_square,None,None,None,None,None,None,None,None,None,None,3,1.406867265701294,None,,,,,0,0,0,0,0,70,70,192,325.5344982147217,,,,,,,,,,,,,,,,,,,,,,,,,,,,,,,,,,,,,,,,,,,,,,,,,,,,,,,,,,,,,,,,,,,,,,,,,,,,,,,,,67.44277412721985,124.78897474867449,113.05720684696612,114.23006805898285,148.63931943047245,148.63931943047245,2.2,2.22,-216,251,0,-270,227,-288,325.5200204849243,325.5201518535614,325.52403354644775,325.5344982147217,325.6838619709015,325.6838619709015,325.6838619709015,325.6838619709015,325.6838619709015,325.6838619709015,325.6838619709015,326.949462890625,3,1.406867265701294,None,,,,,,,,,,,,,,,,,,237,1,2025-03-12_12h55.56.486,comp,2024.2.4,57.32923100474702,2025-03-12 12h56.04.323890 -0400,
71,71,0,critical,hdw,35.0,4.0,upper,200.0,125.0,127.0,127.0,125.0,200.0,1,1.7497625350952148,None,,,,,0,0,0,0,0,71,71,113,326.96692061424255,,,,,,,,,,,,,,,,,,,,,,,,,,,,,,,,,,,,,,,,,,,,,,,,,,,,,,,,,,,,,,,,,,,,,,,,,,,,,,,,,200.0,125.0,127.0,127.0,125.0,200.0,4.0,4.1,-222,-286,0,-8,260,-285,326.9511375427246,326.95122814178467,326.95473527908325,326.96692061424255,327.1041021347046,327.1041021347046,327.1041021347046,327.1041021347046,327.1041021347046,327.1041021347046,327.1041021347046,328.72183418273926,1,1.7497625350952148,None,,,,,,,,,,,,,,,,,,237,1,2025-03-12_12h55.56.486,comp,2024.2.4,57.32923100474702,2025-03-12 12h56.04.323890 -0400,
72,72,0,filler_square,None,None,None,None,None,None,None,None,None,None,2,2.096754789352417,None,,,,,0,0,0,0,0,72,72,176,328.7399640083313,,,,,,,,,,,,,,,,,,,,,,,,,,,,,,,,,,,,,,,,,,,,,,,,,,,,,,,,,,,,,,,,,,,,,,,,,,,,,,,,,100.5482325638115,87.08613134602493,100.64228145502332,100.64228145502332,92.5363941860522,90.17076408950678,2.1,2.11,-190,258,0,254,191,-264,328.72380781173706,328.723890542984,328.72687005996704,328.7399640083313,328.8860321044922,328.8860321044922,328.8860321044922,328.8860321044922,328.8860321044922,328.8860321044922,328.8860321044922,330.8522570133209,2,2.096754789352417,None,,,,,,,,,,,,,,,,,,237,1,2025-03-12_12h55.56.486,comp,2024.2.4,57.32923100474702,2025-03-12 12h56.04.323890 -0400,
73,73,0,filler_random,None,None,None,None,None,None,None,None,None,None,2,4.232914686203003,None,,,,,0,0,0,0,0,73,73,169,330.86863255500793,,,,,,,,,,,,,,,,,,,,,,,,,,,,,,,,,,,,,,,,,,,,,,,,,,,,,,,,,,,,,,,,,,,,,,,,,,,,,,,,,74.03843564470155,199.06039318423856,128.11864153403073,92.9333086677446,125.69616352322014,93.64249912166576,1.0,1.2,-242,19,0,15,189,8,330.85401916503906,330.8540985584259,330.85820293426514,330.86863255500793,331.0174605846405,331.0174605846405,331.0174605846405,331.0174605846405,331.0174605846405,331.0174605846405,331.0174605846405,335.10408663749695,2,4.232914686203003,None,,,,,,,,,,,,,,,,,,237,1,2025-03-12_12h55.56.486,comp,2024.2.4,57.32923100474702,2025-03-12 12h56.04.323890 -0400,
74,74,0,critical,hdw,35.0,3.0,lower,133.0,57.0,70.0,70.0,57.0,133.0,3,2.5166525840759277,None,,,,,0,0,0,0,0,74,74,110,335.12075877189636,,,,,,,,,,,,,,,,,,,,,,,,,,,,,,,,,,,,,,,,,,,,,,,,,,,,,,,,,,,,,,,,,,,,,,,,,,,,,,,,,133.0,57.0,70.0,70.0,57.0,133.0,3.0,3.1,-160,285,0,-17,198,-289,335.10564732551575,335.105726480484,335.10981369018555,335.12075877189636,335.27023553848267,335.27023553848267,335.27023553848267,335.27023553848267,335.27023553848267,335.27023553848267,335.27023553848267,337.6553258895874,3,2.5166525840759277,None,,,,,,,,,,,,,,,,,,237,1,2025-03-12_12h55.56.486,comp,2024.2.4,57.32923100474702,2025-03-12 12h56.04.323890 -0400,
75,75,0,critical,wdh,20.0,1.0,upper,125.0,200.0,141.0,141.0,200.0,125.0,1,1.5892059803009033,None,,,,,0,0,0,0,0,75,75,79,337.6714253425598,,,,,,,,,,,,,,,,,,,,,,,,,,,,,,,,,,,,,,,,,,,,,,,,,,,,,,,,,,,,,,,,,,,,,,,,,,,,,,,,,125.0,200.0,141.0,141.0,200.0,125.0,1.0,1.3,214,-263,480,-286,709,-283,337.65694284439087,337.65702962875366,337.66099762916565,337.6714253425598,337.8186979293823,337.8186979293823,337.8186979293823,337.8186979293823,337.8186979293823,337.8186979293823,337.8186979293823,339.2775888442993,1,1.5892059803009033,None,,,,,,,,,,,,,,,,,,237,1,2025-03-12_12h55.56.486,comp,2024.2.4,57.32923100474702,2025-03-12 12h56.04.323890 -0400,
76,76,0,critical,dwh,35.0,1.0,lower,70.0,70.0,57.0,133.0,133.0,57.0,3,1.5826077461242676,None,,,,,0,0,0,0,0,76,76,60,339.2940745353699,,,,,,,,,,,,,,,,,,,,,,,,,,,,,,,,,,,,,,,,,,,,,,,,,,,,,,,,,,,,,,,,,,,,,,,,,,,,,,,,,70.0,70.0,57.0,133.0,133.0,57.0,1.0,1.2,-198,2,0,11,191,8,339.27915263175964,339.2792503833771,339.2826073169708,339.2940745353699,339.43877720832825,339.43877720832825,339.43877720832825,339.43877720832825,339.43877720832825,339.43877720832825,339.43877720832825,340.89039397239685,3,1.5826077461242676,None,,,,,,,,,,,,,,,,,,237,1,2025-03-12_12h55.56.486,comp,2024.2.4,57.32923100474702,2025-03-12 12h56.04.323890 -0400,
77,77,0,filler_square,None,None,None,None,None,None,None,None,None,None,2,1.1944842338562012,None,,,,,0,0,0,0,0,77,77,182,340.90710949897766,,,,,,,,,,,,,,,,,,,,,,,,,,,,,,,,,,,,,,,,,,,,,,,,,,,,,,,,,,,,,,,,,,,,,,,,,,,,,,,,,62.94824072267299,91.32533230798644,105.39974326879897,105.39974326879897,85.7771684185691,62.76599142170065,2.2,2.21,-194,-263,0,262,180,264,340.8927438259125,340.89284467697144,340.8964319229126,340.90710949897766,341.0558955669403,341.0558955669403,341.0558955669403,341.0558955669403,341.0558955669403,341.0558955669403,341.0558955669403,342.10967993736267,2,1.1944842338562012,None,,,,,,,,,,,,,,,,,,237,1,2025-03-12_12h55.56.486,comp,2024.2.4,57.32923100474702,2025-03-12 12h56.04.323890 -0400,
78,78,0,filler_random,None,None,None,None,None,None,None,None,None,None,3,1.3329017162322998,None,,,,,0,0,0,0,0,78,78,140,342.1277678012848,,,,,,,,,,,,,,,,,,,,,,,,,,,,,,,,,,,,,,,,,,,,,,,,,,,,,,,,,,,,,,,,,,,,,,,,,,,,,,,,,120.50708283277467,126.56770076057208,154.87448770046728,123.64349663672188,147.84524021851524,192.22562972652204,3.0,3.1,-221,262,0,10,254,-271,342.1115963459015,342.11167550086975,342.1146240234375,342.1277678012848,342.272540807724,342.272540807724,342.272540807724,342.272540807724,342.272540807724,342.272540807724,342.272540807724,343.4711768627167,3,1.3329017162322998,None,,,,,,,,,,,,,,,,,,237,1,2025-03-12_12h55.56.486,comp,2024.2.4,57.32923100474702,2025-03-12 12h56.04.323890 -0400,
79,79,0,critical,hwd,35.0,4.0,upper,200.0,125.0,125.0,200.0,127.0,127.0,2,2.5987303256988525,None,,,,,0,0,0,0,0,79,79,101,343.48716163635254,,,,,,,,,,,,,,,,,,,,,,,,,,,,,,,,,,,,,,,,,,,,,,,,,,,,,,,,,,,,,,,,,,,,,,,,,,,,,,,,,200.0,125.0,125.0,200.0,127.0,127.0,4.0,4.2,-258,14,0,-263,260,-15,343.4726891517639,343.47276973724365,343.4757890701294,343.48716163635254,343.6300480365753,343.6300480365753,343.6300480365753,343.6300480365753,343.6300480365753,343.6300480365753,343.6300480365753,346.0948278903961,2,2.5987303256988525,None,,,,,,,,,,,,,,,,,,237,1,2025-03-12_12h55.56.486,comp,2024.2.4,57.32923100474702,2025-03-12 12h56.04.323890 -0400,
80,80,0,filler_random,None,None,None,None,None,None,None,None,None,None,2,1.6706209182739258,None,,,,,0,0,0,0,0,80,80,145,346.1111831665039,,,,,,,,,,,,,,,,,,,,,,,,,,,,,,,,,,,,,,,,,,,,,,,,,,,,,,,,,,,,,,,,,,,,,,,,,,,,,,,,,66.05861898937918,189.4417198848525,125.1912184066749,161.81000009958024,133.79657736507133,73.90174149042056,3.0,3.1,-272,252,0,12,214,-276,346.09651947021484,346.0966022014618,346.10009002685547,346.1111831665039,346.25732922554016,346.25732922554016,346.25732922554016,346.25732922554016,346.25732922554016,346.25732922554016,346.25732922554016,347.7901759147644,2,1.6706209182739258,None,,,,,,,,,,,,,,,,,,237,1,2025-03-12_12h55.56.486,comp,2024.2.4,57.32923100474702,2025-03-12 12h56.04.323890 -0400,
81,81,0,filler_square,None,None,None,None,None,None,None,None,None,None,3,4.678524017333984,None,,,,,0,0,0,0,0,81,81,193,347.8070206642151,,,,,,,,,,,,,,,,,,,,,,,,,,,,,,,,,,,,,,,,,,,,,,,,,,,,,,,,,,,,,,,,,,,,,,,,,,,,,,,,,74.92589598467438,74.40763606036616,73.17591981289101,65.1285469750956,76.91602643809239,76.91602643809239,1.0,1.1,-646,260,-480,279,-313,284,347.79198932647705,347.7920687198639,347.7952744960785,347.8070206642151,347.958123922348,347.958123922348,347.958123922348,347.958123922348,347.958123922348,347.958123922348,347.958123922348,352.4935462474823,3,4.678524017333984,None,,,,,,,,,,,,,,,,,,237,1,2025-03-12_12h55.56.486,comp,2024.2.4,57.32923100474702,2025-03-12 12h56.04.323890 -0400,
82,82,0,critical,hdw,20.0,2.1,upper,200.0,125.0,141.0,141.0,125.0,200.0,1,2.9221715927124023,None,,,,,0,0,0,0,0,82,82,47,352.5147125720978,,,,,,,,,,,,,,,,,,,,,,,,,,,,,,,,,,,,,,,,,,,,,,,,,,,,,,,,,,,,,,,,,,,,,,,,,,,,,,,,,200.0,125.0,141.0,141.0,125.0,200.0,2.1,2.12,-229,-286,0,-273,266,270,352.4952042102814,352.4953417778015,352.4987471103668,352.5147125720978,352.6642279624939,352.6642279624939,352.6642279624939,352.6642279624939,352.6642279624939,352.6642279624939,352.6642279624939,355.4415850639343,1,2.9221715927124023,None,,,,,,,,,,,,,,,,,,237,1,2025-03-12_12h55.56.486,comp,2024.2.4,57.32923100474702,2025-03-12 12h56.04.323890 -0400,
83,83,0,critical,wdh,20.0,3.0,upper,125.0,200.0,141.0,141.0,200.0,125.0,1,4.907571315765381,None,,,,,0,0,0,0,0,83,83,81,355.4571166038513,,,,,,,,,,,,,,,,,,,,,,,,,,,,,,,,,,,,,,,,,,,,,,,,,,,,,,,,,,,,,,,,,,,,,,,,,,,,,,,,,125.0,200.0,141.0,141.0,200.0,125.0,3.0,3.1,-266,258,0,-17,229,-272,355.443097114563,355.44317960739136,355.44614696502686,355.4571166038513,355.60894417762756,355.60894417762756,355.60894417762756,355.60894417762756,355.60894417762756,355.60894417762756,355.60894417762756,360.37782096862793,1,4.907571315765381,None,,,,,,,,,,,,,,,,,,237,1,2025-03-12_12h55.56.486,comp,2024.2.4,57.32923100474702,2025-03-12 12h56.04.323890 -0400,
84,84,0,filler_square,None,None,None,None,None,None,None,None,None,None,1,1.3756511211395264,None,,,,,0,0,0,0,0,84,84,209,360.3978822231293,,,,,,,,,,,,,,,,,,,,,,,,,,,,,,,,,,,,,,,,,,,,,,,,,,,,,,,,,,,,,,,,,,,,,,,,,,,,,,,,,129.88691921333984,129.88691921333984,79.1816441820885,126.23099953445077,73.21113742239208,106.77072200729604,4.0,4.2,-224,7,0,-257,213,7,360.3795404434204,360.3796203136444,360.3827426433563,360.3978822231293,360.54355239868164,360.54355239868164,360.54355239868164,360.54355239868164,360.54355239868164,360.54355239868164,360.54355239868164,361.7803649902344,1,1.3756511211395264,None,,,,,,,,,,,,,,,,,,237,1,2025-03-12_12h55.56.486,comp,2024.2.4,57.32923100474702,2025-03-12 12h56.04.323890 -0400,
85,85,0,critical,dwh,35.0,3.0,lower,70.0,70.0,57.0,133.0,133.0,57.0,2,3.209611177444458,None,,,,,0,0,0,0,0,85,85,62,361.796062707901,,,,,,,,,,,,,,,,,,,,,,,,,,,,,,,,,,,,,,,,,,,,,,,,,,,,,,,,,,,,,,,,,,,,,,,,,,,,,,,,,70.0,70.0,57.0,133.0,133.0,57.0,3.0,3.1,-198,280,0,-11,191,-284,361.781941652298,361.7820246219635,361.7851827144623,361.796062707901,361.94428849220276,361.94428849220276,361.94428849220276,361.94428849220276,361.94428849220276,361.94428849220276,361.94428849220276,365.012264251709,2,3.209611177444458,None,,,,,,,,,,,,,,,,,,237,1,2025-03-12_12h55.56.486,comp,2024.2.4,57.32923100474702,2025-03-12 12h56.04.323890 -0400,
86,86,0,critical,dwh,35.0,4.0,upper,127.0,127.0,125.0,200.0,200.0,125.0,2,2.859879493713379,None,,,,,0,0,0,0,0,86,86,65,365.03351402282715,,,,,,,,,,,,,,,,,,,,,,,,,,,,,,,,,,,,,,,,,,,,,,,,,,,,,,,,,,,,,,,,,,,,,,,,,,,,,,,,,127.0,127.0,125.0,200.0,200.0,125.0,4.0,4.1,-260,-268,0,-15,258,-259,365.0138111114502,365.01389050483704,365.01715111732483,365.03351402282715,365.1838524341583,365.1838524341583,365.1838524341583,365.1838524341583,365.1838524341583,365.1838524341583,365.1838524341583,367.89728569984436,2,2.859879493713379,None,,,,,,,,,,,,,,,,,,237,1,2025-03-12_12h55.56.486,comp,2024.2.4,57.32923100474702,2025-03-12 12h56.04.323890 -0400,
87,87,0,critical,wdh,20.0,4.0,lower,57.0,133.0,78.0,78.0,133.0,57.0,1,3.5310707092285156,None,,,,,0,0,0,0,0,87,87,82,367.91368198394775,,,,,,,,,,,,,,,,,,,,,,,,,,,,,,,,,,,,,,,,,,,,,,,,,,,,,,,,,,,,,,,,,,,,,,,,,,,,,,,,,57.0,133.0,78.0,78.0,133.0,57.0,4.0,4.1,-202,-263,0,-12,164,-269,367.89892172813416,367.8990044593811,367.9025673866272,367.91368198394775,368.06574511528015,368.06574511528015,368.06574511528015,368.06574511528015,368.06574511528015,368.06574511528015,368.06574511528015,371.4491310119629,1,3.5310707092285156,None,,,,,,,,,,,,,,,,,,237,1,2025-03-12_12h55.56.486,comp,2024.2.4,57.32923100474702,2025-03-12 12h56.04.323890 -0400,
88,88,0,critical,whd,20.0,1.0,lower,57.0,133.0,133.0,57.0,78.0,78.0,1,14.507050037384033,None,,,,,0,0,0,0,0,88,88,90,371.4659674167633,,,,,,,,,,,,,,,,,,,,,,,,,,,,,,,,,,,,,,,,,,,,,,,,,,,,,,,,,,,,,,,,,,,,,,,,,,,,,,,,,57.0,133.0,133.0,57.0,78.0,78.0,1.0,1.1,-671,287,-480,289,-316,281,371.4507825374603,371.450865983963,371.45501136779785,371.4659674167633,371.6171474456787,371.6171474456787,371.6171474456787,371.6171474456787,371.6171474456787,371.6171474456787,371.6171474456787,385.97632598876953,1,14.507050037384033,None,,,,,,,,,,,,,,,,,,237,1,2025-03-12_12h55.56.486,comp,2024.2.4,57.32923100474702,2025-03-12 12h56.04.323890 -0400,
89,89,0,critical,dhw,20.0,1.0,lower,78.0,78.0,133.0,57.0,57.0,133.0,3,2.9361870288848877,None,,,,,0,0,0,0,0,89,89,54,385.99713611602783,,,,,,,,,,,,,,,,,,,,,,,,,,,,,,,,,,,,,,,,,,,,,,,,,,,,,,,,,,,,,,,,,,,,,,,,,,,,,,,,,78.0,78.0,133.0,57.0,57.0,133.0,1.0,1.2,-164,1,0,-6,191,16,385.9779360294342,385.9780180454254,385.981324672699,385.99713611602783,386.13617968559265,386.13617968559265,386.13617968559265,386.13617968559265,386.13617968559265,386.13617968559265,386.13617968559265,388.938111782074,3,2.9361870288848877,None,,,,,,,,,,,,,,,,,,237,1,2025-03-12_12h55.56.486,comp,2024.2.4,57.32923100474702,2025-03-12 12h56.04.323890 -0400,
90,90,0,critical,hwd,35.0,2.1,lower,133.0,57.0,57.0,133.0,70.0,70.0,3,1.7950146198272705,None,,,,,0,0,0,0,0,90,90,16,388.95440649986267,,,,,,,,,,,,,,,,,,,,,,,,,,,,,,,,,,,,,,,,,,,,,,,,,,,,,,,,,,,,,,,,,,,,,,,,,,,,,,,,,133.0,57.0,57.0,133.0,70.0,70.0,2.1,2.12,-191,-253,0,-267,198,283,388.93976497650146,388.93987250328064,388.94335412979126,388.95440649986267,389.10715913772583,389.10715913772583,389.10715913772583,389.10715913772583,389.10715913772583,389.10715913772583,389.10715913772583,390.7545540332794,3,1.7950146198272705,None,,,,,,,,,,,,,,,,,,237,1,2025-03-12_12h55.56.486,comp,2024.2.4,57.32923100474702,2025-03-12 12h56.04.323890 -0400,
91,91,0,critical,hwd,20.0,2.1,upper,200.0,125.0,125.0,200.0,141.0,141.0,2,2.682159900665283,None,,,,,0,0,0,0,0,91,91,19,390.77090191841125,,,,,,,,,,,,,,,,,,,,,,,,,,,,,,,,,,,,,,,,,,,,,,,,,,,,,,,,,,,,,,,,,,,,,,,,,,,,,,,,,200.0,125.0,125.0,200.0,141.0,141.0,2.1,2.11,-258,278,0,289,266,-252,390.75615072250366,390.756231546402,390.7597770690918,390.77090191841125,390.9275801181793,390.9275801181793,390.9275801181793,390.9275801181793,390.9275801181793,390.9275801181793,390.9275801181793,393.47080755233765,2,2.682159900665283,None,,,,,,,,,,,,,,,,,,237,1,2025-03-12_12h55.56.486,comp,2024.2.4,57.32923100474702,2025-03-12 12h56.04.323890 -0400,
92,92,0,critical,whd,35.0,1.0,lower,57.0,133.0,133.0,57.0,70.0,70.0,1,1.7987987995147705,None,,,,,0,0,0,0,0,92,92,84,393.4868507385254,,,,,,,,,,,,,,,,,,,,,,,,,,,,,,,,,,,,,,,,,,,,,,,,,,,,,,,,,,,,,,,,,,,,,,,,,,,,,,,,,57.0,133.0,133.0,57.0,70.0,70.0,1.0,1.2,-191,-10,0,-15,160,6,393.47226881980896,393.4723470211029,393.47542929649353,393.4868507385254,393.6251723766327,393.6251723766327,393.6251723766327,393.6251723766327,393.6251723766327,393.6251723766327,393.6251723766327,395.29456877708435,1,1.7987987995147705,None,,,,,,,,,,,,,,,,,,237,1,2025-03-12_12h55.56.486,comp,2024.2.4,57.32923100474702,2025-03-12 12h56.04.323890 -0400,
93,93,0,catch,None,None,None,None,None,None,None,None,None,None,2,1.2558720111846924,None,,,,,0,0,0,0,0,93,93,123,395.3104965686798,,,,,,,,,,,,,,,,,,,,,,,,,,,,,,,,,,,,,,,,,,,,,,,,,,,,,,,,,,,,,,,,,,,,,,,,,,,,,,,,,68,122,169,156,88,102,2.2,2.22,-235,285,0,-271,225,-278,395.2965154647827,395.29659605026245,395.29946994781494,395.3104965686798,395.4552011489868,395.4552011489868,395.4552011489868,395.4552011489868,395.4552011489868,395.4552011489868,395.4552011489868,396.57215309143066,2,1.2558720111846924,None,,,,,,,,,,,,,,,,,,237,1,2025-03-12_12h55.56.486,comp,2024.2.4,57.32923100474702,2025-03-12 12h56.04.323890 -0400,
94,94,0,filler_random,None,None,None,None,None,None,None,None,None,None,3,1.1449370384216309,None,,,,,0,0,0,0,0,94,94,150,396.5884234905243,,,,,,,,,,,,,,,,,,,,,,,,,,,,,,,,,,,,,,,,,,,,,,,,,,,,,,,,,,,,,,,,,,,,,,,,,,,,,,,,,89.39474552357778,150.98041341875233,152.34399636792108,76.43245132982372,199.85995963038053,197.8624628601235,4.0,4.2,-210,-13,0,-283,233,5,396.5738859176636,396.5739679336548,396.5772135257721,396.5884234905243,396.74445366859436,396.74445366859436,396.74445366859436,396.74445366859436,396.74445366859436,396.74445366859436,396.74445366859436,397.7367117404938,3,1.1449370384216309,None,,,,,,,,,,,,,,,,,,237,1,2025-03-12_12h55.56.486,comp,2024.2.4,57.32923100474702,2025-03-12 12h56.04.323890 -0400,
95,95,0,filler_square,None,None,None,None,None,None,None,None,None,None,2,0.9808297157287598,None,,,,,0,0,0,0,0,95,95,179,397.7539803981781,,,,,,,,,,,,,,,,,,,,,,,,,,,,,,,,,,,,,,,,,,,,,,,,,,,,,,,,,,,,,,,,,,,,,,,,,,,,,,,,,71.25837177530842,91.28839066194406,132.62243481080768,132.62243481080768,109.61208725766986,93.81278799151747,3.0,3.2,-208,-252,0,15,209,284,397.73857402801514,397.7386553287506,397.7415819168091,397.7539803981781,397.9060266017914,397.9060266017914,397.9060266017914,397.9060266017914,397.9060266017914,397.9060266017914,397.9060266017914,398.7394332885742,2,0.9808297157287598,None,,,,,,,,,,,,,,,,,,237,1,2025-03-12_12h55.56.486,comp,2024.2.4,57.32923100474702,2025-03-12 12h56.04.323890 -0400,
96,96,0,critical,hdw,35.0,3.0,upper,200.0,125.0,127.0,127.0,125.0,200.0,3,1.7282600402832031,None,,,,,0,0,0,0,0,96,96,111,398.75689363479614,,,,,,,,,,,,,,,,,,,,,,,,,,,,,,,,,,,,,,,,,,,,,,,,,,,,,,,,,,,,,,,,,,,,,,,,,,,,,,,,,200.0,125.0,127.0,127.0,125.0,200.0,3.0,3.1,-222,277,0,-14,260,-280,398.7410490512848,398.741126537323,398.744446516037,398.75689363479614,398.9086563587189,398.9086563587189,398.9086563587189,398.9086563587189,398.9086563587189,398.9086563587189,398.9086563587189,400.4899106025696,3,1.7282600402832031,None,,,,,,,,,,,,,,,,,,237,1,2025-03-12_12h55.56.486,comp,2024.2.4,57.32923100474702,2025-03-12 12h56.04.323890 -0400,
97,97,0,critical,hdw,20.0,4.0,lower,133.0,57.0,78.0,78.0,57.0,133.0,2,2.4670183658599854,None,,,,,0,0,0,0,0,97,97,118,400.50566005706787,,,,,,,,,,,,,,,,,,,,,,,,,,,,,,,,,,,,,,,,,,,,,,,,,,,,,,,,,,,,,,,,,,,,,,,,,,,,,,,,,133.0,57.0,78.0,78.0,57.0,133.0,4.0,4.1,-164,-250,0,10,202,-270,400.4914412498474,400.4915437698364,400.4946172237396,400.50566005706787,400.65811228752136,400.65811228752136,400.65811228752136,400.65811228752136,400.65811228752136,400.65811228752136,400.65811228752136,402.9748787879944,2,2.4670183658599854,None,,,,,,,,,,,,,,,,,,237,1,2025-03-12_12h55.56.486,comp,2024.2.4,57.32923100474702,2025-03-12 12h56.04.323890 -0400,
98,98,0,critical,hwd,35.0,2.1,upper,200.0,125.0,125.0,200.0,127.0,127.0,2,2.4205188751220703,None,,,,,0,0,0,0,0,98,98,41,402.9922881126404,,,,,,,,,,,,,,,,,,,,,,,,,,,,,,,,,,,,,,,,,,,,,,,,,,,,,,,,,,,,,,,,,,,,,,,,,,,,,,,,,200.0,125.0,125.0,200.0,127.0,127.0,2.1,2.11,-258,283,0,286,260,-268,402.9764406681061,402.97654914855957,402.9806237220764,402.9922881126404,403.1385190486908,403.1385190486908,403.1385190486908,403.1385190486908,403.1385190486908,403.1385190486908,403.1385190486908,405.42799615859985,2,2.4205188751220703,None,,,,,,,,,,,,,,,,,,237,1,2025-03-12_12h55.56.486,comp,2024.2.4,57.32923100474702,2025-03-12 12h56.04.323890 -0400,
99,99,0,critical,dhw,20.0,3.0,upper,141.0,141.0,200.0,125.0,125.0,200.0,3,1.8247075080871582,None,,,,,0,0,0,0,0,99,99,57,405.44395565986633,,,,,,,,,,,,,,,,,,,,,,,,,,,,,,,,,,,,,,,,,,,,,,,,,,,,,,,,,,,,,,,,,,,,,,,,,,,,,,,,,141.0,141.0,200.0,125.0,125.0,200.0,3.0,3.1,-229,276,0,11,258,-271,405.4295964241028,405.42969584465027,405.4327428340912,405.44395565986633,405.5942552089691,405.5942552089691,405.5942552089691,405.5942552089691,405.5942552089691,405.5942552089691,405.5942552089691,407.2820403575897,3,1.8247075080871582,None,,,,,,,,,,,,,,,,,,237,1,2025-03-12_12h55.56.486,comp,2024.2.4,57.32923100474702,2025-03-12 12h56.04.323890 -0400,
100,100,0,critical,dwh,35.0,2.1,lower,70.0,70.0,57.0,133.0,133.0,57.0,2,2.1266493797302246,None,,,,,0,0,0,0,0,100,100,28,407.3029193878174,,,,,,,,,,,,,,,,,,,,,,,,,,,,,,,,,,,,,,,,,,,,,,,,,,,,,,,,,,,,,,,,,,,,,,,,,,,,,,,,,70.0,70.0,57.0,133.0,133.0,57.0,2.1,2.11,-198,257,0,268,191,-269,407.2836616039276,407.28374123573303,407.2871470451355,407.3029193878174,407.4460914134979,407.4460914134979,407.4460914134979,407.4460914134979,407.4460914134979,407.4460914134979,407.4460914134979,409.43206691741943,2,2.1266493797302246,None,,,,,,,,,,,,,,,,,,237,1,2025-03-12_12h55.56.486,comp,2024.2.4,57.32923100474702,2025-03-12 12h56.04.323890 -0400,
101,101,0,filler_random,None,None,None,None,None,None,None,None,None,None,1,1.1958277225494385,None,,,,,0,0,0,0,0,101,101,162,409.4491240978241,,,,,,,,,,,,,,,,,,,,,,,,,,,,,,,,,,,,,,,,,,,,,,,,,,,,,,,,,,,,,,,,,,,,,,,,,,,,,,,,,157.44730080574226,186.9342724270706,79.91006314103822,198.21201267884436,149.76009246726366,175.02735551451855,4.0,4.2,-289,1,0,-262,283,11,409.43392300605774,409.4340589046478,409.43733382225037,409.4491240978241,409.5938243865967,409.5938243865967,409.5938243865967,409.5938243865967,409.5938243865967,409.5938243865967,409.5938243865967,410.64733600616455,1,1.1958277225494385,None,,,,,,,,,,,,,,,,,,237,1,2025-03-12_12h55.56.486,comp,2024.2.4,57.32923100474702,2025-03-12 12h56.04.323890 -0400,
102,102,0,critical,hwd,35.0,2.1,lower,133.0,57.0,57.0,133.0,70.0,70.0,2,2.568664789199829,None,,,,,0,0,0,0,0,102,102,40,410.66806387901306,,,,,,,,,,,,,,,,,,,,,,,,,,,,,,,,,,,,,,,,,,,,,,,,,,,,,,,,,,,,,,,,,,,,,,,,,,,,,,,,,133.0,57.0,57.0,133.0,70.0,70.0,2.1,2.11,-191,277,0,288,198,-252,410.64904046058655,410.64911913871765,410.6530656814575,410.66806387901306,410.81036710739136,410.81036710739136,410.81036710739136,410.81036710739136,410.81036710739136,410.81036710739136,410.81036710739136,413.2472183704376,2,2.568664789199829,None,,,,,,,,,,,,,,,,,,237,1,2025-03-12_12h55.56.486,comp,2024.2.4,57.32923100474702,2025-03-12 12h56.04.323890 -0400,
103,103,0,filler_square,None,None,None,None,None,None,None,None,None,None,2,1.6693994998931885,None,,,,,0,0,0,0,0,103,103,174,413.26470470428467,,,,,,,,,,,,,,,,,,,,,,,,,,,,,,,,,,,,,,,,,,,,,,,,,,,,,,,,,,,,,,,,,,,,,,,,,,,,,,,,,95.94848490014554,69.15562044799104,118.96803929252357,118.96803929252357,92.262042259516,114.9088112881062,4.0,4.1,-190,-260,0,-19,213,-253,413.2497935295105,413.249874830246,413.2530167102814,413.26470470428467,413.4115481376648,413.4115481376648,413.4115481376648,413.4115481376648,413.4115481376648,413.4115481376648,413.4115481376648,414.9516372680664,2,1.6693994998931885,None,,,,,,,,,,,,,,,,,,237,1,2025-03-12_12h55.56.486,comp,2024.2.4,57.32923100474702,2025-03-12 12h56.04.323890 -0400,
104,104,0,critical,hdw,20.0,1.0,lower,133.0,57.0,78.0,78.0,57.0,133.0,2,2.1326446533203125,None,,,,,0,0,0,0,0,104,104,114,414.96818351745605,,,,,,,,,,,,,,,,,,,,,,,,,,,,,,,,,,,,,,,,,,,,,,,,,,,,,,,,,,,,,,,,,,,,,,,,,,,,,,,,,133.0,57.0,78.0,78.0,57.0,133.0,1.0,1.2,-164,5,0,5,202,1,414.95319080352783,414.95327377319336,414.95665740966797,414.96818351745605,415.11257314682007,415.11257314682007,415.11257314682007,415.11257314682007,415.11257314682007,415.11257314682007,415.11257314682007,417.11290287971497,2,2.1326446533203125,None,,,,,,,,,,,,,,,,,,237,1,2025-03-12_12h55.56.486,comp,2024.2.4,57.32923100474702,2025-03-12 12h56.04.323890 -0400,
105,105,0,filler_square,None,None,None,None,None,None,None,None,None,None,1,1.2172880172729492,None,,,,,0,0,0,0,0,105,105,183,417.13144183158875,,,,,,,,,,,,,,,,,,,,,,,,,,,,,,,,,,,,,,,,,,,,,,,,,,,,,,,,,,,,,,,,,,,,,,,,,,,,,,,,,166.38417610401217,166.38417610401217,112.60960419399466,87.1271891833776,162.47578720950148,136.38402548093143,4.0,4.2,-223,9,0,-279,208,14,417.1149151325226,417.11499667167664,417.1183032989502,417.13144183158875,417.2809841632843,417.2809841632843,417.2809841632843,417.2809841632843,417.2809841632843,417.2809841632843,417.2809841632843,418.36152362823486,1,1.2172880172729492,None,,,,,,,,,,,,,,,,,,237,1,2025-03-12_12h55.56.486,comp,2024.2.4,57.32923100474702,2025-03-12 12h56.04.323890 -0400,
106,106,0,catch,None,None,None,None,None,None,None,None,None,None,2,1.1395902633666992,None,,,,,0,0,0,0,0,106,106,124,418.37732219696045,,,,,,,,,,,,,,,,,,,,,,,,,,,,,,,,,,,,,,,,,,,,,,,,,,,,,,,,,,,,,,,,,,,,,,,,,,,,,,,,,69,121,131,194,127,63,2.1,2.11,-254,290,0,264,224,-284,418.3634650707245,418.36356592178345,418.36674666404724,418.37732219696045,418.52051758766174,418.52051758766174,418.52051758766174,418.52051758766174,418.52051758766174,418.52051758766174,418.52051758766174,419.5193119049072,2,1.1395902633666992,None,,,,,,,,,,,,,,,,,,237,1,2025-03-12_12h55.56.486,comp,2024.2.4,57.32923100474702,2025-03-12 12h56.04.323890 -0400,
107,107,0,filler_random,None,None,None,None,None,None,None,None,None,None,3,0.9156179428100586,None,,,,,0,0,0,0,0,107,107,136,419.5370795726776,,,,,,,,,,,,,,,,,,,,,,,,,,,,,,,,,,,,,,,,,,,,,,,,,,,,,,,,,,,,,,,,,,,,,,,,,,,,,,,,,71.63164388351893,102.50197182849072,128.28085385536093,69.51631476443593,107.98004607808687,160.8168664469626,1.0,1.1,-662,267,-480,263,-269,279,419.52112078666687,419.5212016105652,419.52412152290344,419.5370795726776,419.68439745903015,419.68439745903015,419.68439745903015,419.68439745903015,419.68439745903015,419.68439745903015,419.68439745903015,420.46395230293274,3,0.9156179428100586,None,,,,,,,,,,,,,,,,,,237,1,2025-03-12_12h55.56.486,comp,2024.2.4,57.32923100474702,2025-03-12 12h56.04.323890 -0400,
108,108,0,critical,hwd,20.0,3.0,lower,133.0,57.0,57.0,133.0,78.0,78.0,2,1.948596715927124,None,,,,,0,0,0,0,0,108,108,104,420.4883568286896,,,,,,,,,,,,,,,,,,,,,,,,,,,,,,,,,,,,,,,,,,,,,,,,,,,,,,,,,,,,,,,,,,,,,,,,,,,,,,,,,133.0,57.0,57.0,133.0,78.0,78.0,3.0,3.2,-191,-253,0,-18,202,260,420.4655170440674,420.4656071662903,420.46869015693665,420.4883568286896,420.63057923316956,420.63057923316956,420.63057923316956,420.63057923316956,420.63057923316956,420.63057923316956,420.63057923316956,422.4493341445923,2,1.948596715927124,None,,,,,,,,,,,,,,,,,,237,1,2025-03-12_12h55.56.486,comp,2024.2.4,57.32923100474702,2025-03-12 12h56.04.323890 -0400,
109,109,0,filler_random,None,None,None,None,None,None,None,None,None,None,1,1.6026294231414795,None,,,,,0,0,0,0,0,109,109,154,422.4661440849304,,,,,,,,,,,,,,,,,,,,,,,,,,,,,,,,,,,,,,,,,,,,,,,,,,,,,,,,,,,,,,,,,,,,,,,,,,,,,,,,,119.6844143433375,153.84386344324173,99.28890582706427,191.44084602720304,73.75234387527742,138.98038615044857,3.0,3.1,-269,274,0,15,261,-275,422.4514157772064,422.45153975486755,422.45504236221313,422.4661440849304,422.6178286075592,422.6178286075592,422.6178286075592,422.6178286075592,422.6178286075592,422.6178286075592,422.6178286075592,424.08563709259033,1,1.6026294231414795,None,,,,,,,,,,,,,,,,,,237,1,2025-03-12_12h55.56.486,comp,2024.2.4,57.32923100474702,2025-03-12 12h56.04.323890 -0400,
110,110,0,critical,whd,35.0,4.0,upper,125.0,200.0,200.0,125.0,127.0,127.0,1,1.3839242458343506,None,,,,,0,0,0,0,0,110,110,89,424.1009063720703,,,,,,,,,,,,,,,,,,,,,,,,,,,,,,,,,,,,,,,,,,,,,,,,,,,,,,,,,,,,,,,,,,,,,,,,,,,,,,,,,125.0,200.0,200.0,125.0,127.0,127.0,4.0,4.1,-258,-264,0,-6,222,-273,424.08716678619385,424.0872452259064,424.0904664993286,424.1009063720703,424.25625348091125,424.25625348091125,424.25625348091125,424.25625348091125,424.25625348091125,424.25625348091125,424.25625348091125,425.5029146671295,1,1.3839242458343506,None,,,,,,,,,,,,,,,,,,237,1,2025-03-12_12h55.56.486,comp,2024.2.4,57.32923100474702,2025-03-12 12h56.04.323890 -0400,
111,111,0,critical,hwd,35.0,1.0,upper,200.0,125.0,125.0,200.0,127.0,127.0,2,1.0140228271484375,None,,,,,0,0,0,0,0,111,111,97,425.51884269714355,,,,,,,,,,,,,,,,,,,,,,,,,,,,,,,,,,,,,,,,,,,,,,,,,,,,,,,,,,,,,,,,,,,,,,,,,,,,,,,,,200.0,125.0,125.0,200.0,127.0,127.0,1.0,1.1,-738,274,-480,257,-220,273,425.5046877861023,425.504802942276,425.5082767009735,425.51884269714355,425.6686792373657,425.6686792373657,425.6686792373657,425.6686792373657,425.6686792373657,425.6686792373657,425.6686792373657,426.5497407913208,2,1.0140228271484375,None,,,,,,,,,,,,,,,,,,237,1,2025-03-12_12h55.56.486,comp,2024.2.4,57.32923100474702,2025-03-12 12h56.04.323890 -0400,
112,112,0,filler_square,None,None,None,None,None,None,None,None,None,None,2,1.0233702659606934,None,,,,,0,0,0,0,0,112,112,198,426.56543469429016,,,,,,,,,,,,,,,,,,,,,,,,,,,,,,,,,,,,,,,,,,,,,,,,,,,,,,,,,,,,,,,,,,,,,,,,,,,,,,,,,88.40077868449185,59.936690065385015,89.40131158313015,89.40131158313015,57.627861370914886,59.5862528084488,1.0,1.2,-171,-16,0,6,170,-11,426.551518201828,426.55165123939514,426.5549201965332,426.56543469429016,426.725732088089,426.725732088089,426.725732088089,426.725732088089,426.725732088089,426.725732088089,426.725732088089,427.5991427898407,2,1.0233702659606934,None,,,,,,,,,,,,,,,,,,237,1,2025-03-12_12h55.56.486,comp,2024.2.4,57.32923100474702,2025-03-12 12h56.04.323890 -0400,
113,113,0,critical,whd,20.0,4.0,lower,57.0,133.0,133.0,57.0,78.0,78.0,1,1.9334475994110107,None,,,,,0,0,0,0,0,113,113,94,427.6153473854065,,,,,,,,,,,,,,,,,,,,,,,,,,,,,,,,,,,,,,,,,,,,,,,,,,,,,,,,,,,,,,,,,,,,,,,,,,,,,,,,,57.0,133.0,133.0,57.0,78.0,78.0,4.0,4.2,-191,-14,0,-251,164,-17,427.6006624698639,427.600745677948,427.6041533946991,427.6153473854065,427.7667381763458,427.7667381763458,427.7667381763458,427.7667381763458,427.7667381763458,427.7667381763458,427.7667381763458,429.56632447242737,1,1.9334475994110107,None,,,,,,,,,,,,,,,,,,237,1,2025-03-12_12h55.56.486,comp,2024.2.4,57.32923100474702,2025-03-12 12h56.04.323890 -0400,
114,114,0,filler_square,None,None,None,None,None,None,None,None,None,None,3,1.0791759490966797,None,,,,,0,0,0,0,0,114,114,197,429.58213925361633,,,,,,,,,,,,,,,,,,,,,,,,,,,,,,,,,,,,,,,,,,,,,,,,,,,,,,,,,,,,,,,,,,,,,,,,,,,,,,,,,160.56161973841142,100.92866614163421,103.54425834472806,88.80006612481512,197.89208152031603,197.89208152031603,2.1,2.12,-191,-268,0,-281,239,267,429.5682249069214,429.5683054924011,429.57171869277954,429.58213925361633,429.72998452186584,429.72998452186584,429.72998452186584,429.72998452186584,429.72998452186584,429.72998452186584,429.72998452186584,430.66901755332947,3,1.0791759490966797,None,,,,,,,,,,,,,,,,,,237,1,2025-03-12_12h55.56.486,comp,2024.2.4,57.32923100474702,2025-03-12 12h56.04.323890 -0400,
115,115,0,critical,dwh,35.0,4.0,lower,70.0,70.0,57.0,133.0,133.0,57.0,1,3.1039085388183594,None,,,,,0,0,0,0,0,115,115,64,430.6848473548889,,,,,,,,,,,,,,,,,,,,,,,,,,,,,,,,,,,,,,,,,,,,,,,,,,,,,,,,,,,,,,,,,,,,,,,,,,,,,,,,,70.0,70.0,57.0,133.0,133.0,57.0,4.0,4.2,-198,19,0,-252,191,-6,430.67064332962036,430.67074704170227,430.673978805542,430.6848473548889,430.83323216438293,430.83323216438293,430.83323216438293,430.83323216438293,430.83323216438293,430.83323216438293,430.83323216438293,433.8037886619568,1,3.1039085388183594,None,,,,,,,,,,,,,,,,,,237,1,2025-03-12_12h55.56.486,comp,2024.2.4,57.32923100474702,2025-03-12 12h56.04.323890 -0400,
116,116,0,filler_random,None,None,None,None,None,None,None,None,None,None,1,1.5371942520141602,None,,,,,0,0,0,0,0,116,116,160,433.82063841819763,,,,,,,,,,,,,,,,,,,,,,,,,,,,,,,,,,,,,,,,,,,,,,,,,,,,,,,,,,,,,,,,,,,,,,,,,,,,,,,,,112.59180591601785,180.74325411326814,172.34549121338324,95.71620437312492,126.2087592998061,102.18846965645191,2.2,2.22,-234,288,0,-270,195,-288,433.80574107170105,433.80582332611084,433.8092234134674,433.82063841819763,433.9670548439026,433.9670548439026,433.9670548439026,433.9670548439026,433.9670548439026,433.9670548439026,433.9670548439026,435.36936497688293,1,1.5371942520141602,None,,,,,,,,,,,,,,,,,,237,1,2025-03-12_12h55.56.486,comp,2024.2.4,57.32923100474702,2025-03-12 12h56.04.323890 -0400,
117,117,0,filler_square,None,None,None,None,None,None,None,None,None,None,1,2.595174789428711,None,,,,,0,0,0,0,0,117,117,181,435.3865852355957,,,,,,,,,,,,,,,,,,,,,,,,,,,,,,,,,,,,,,,,,,,,,,,,,,,,,,,,,,,,,,,,,,,,,,,,,,,,,,,,,122.58962226836628,122.58962226836628,103.92572716165569,68.7738976737944,113.29014837329754,110.73355893724313,1.0,1.1,-672,276,-480,258,-294,278,435.3715543746948,435.3716359138489,435.37525629997253,435.3865852355957,435.53352665901184,435.53352665901184,435.53352665901184,435.53352665901184,435.53352665901184,435.53352665901184,435.53352665901184,437.9862222671509,1,2.595174789428711,None,,,,,,,,,,,,,,,,,,237,1,2025-03-12_12h55.56.486,comp,2024.2.4,57.32923100474702,2025-03-12 12h56.04.323890 -0400,
118,118,0,catch,None,None,None,None,None,None,None,None,None,None,2,1.7298531532287598,None,,,,,0,0,0,0,0,118,118,122,438.0032947063446,,,,,,,,,,,,,,,,,,,,,,,,,,,,,,,,,,,,,,,,,,,,,,,,,,,,,,,,,,,,,,,,,,,,,,,,,,,,,,,,,117,73,196,129,78,112,2.2,2.22,-197,253,0,-260,216,-257,437.9882161617279,437.98829793930054,437.9923448562622,438.0032947063446,438.1507544517517,438.1507544517517,438.1507544517517,438.1507544517517,438.1507544517517,438.1507544517517,438.1507544517517,439.73540687561035,2,1.7298531532287598,None,,,,,,,,,,,,,,,,,,237,1,2025-03-12_12h55.56.486,comp,2024.2.4,57.32923100474702,2025-03-12 12h56.04.323890 -0400,
119,119,0,critical,hwd,20.0,1.0,lower,133.0,57.0,57.0,133.0,78.0,78.0,2,3.6787476539611816,None,,,,,0,0,0,0,0,119,119,102,439.752468585968,,,,,,,,,,,,,,,,,,,,,,,,,,,,,,,,,,,,,,,,,,,,,,,,,,,,,,,,,,,,,,,,,,,,,,,,,,,,,,,,,133.0,57.0,57.0,133.0,78.0,78.0,1.0,1.2,-191,1,0,9,202,-17,439.7369532585144,439.73703503608704,439.7402536869049,439.752468585968,439.9036705493927,439.9036705493927,439.9036705493927,439.9036705493927,439.9036705493927,439.9036705493927,439.9036705493927,443.4367687702179,2,3.6787476539611816,None,,,,,,,,,,,,,,,,,,237,1,2025-03-12_12h55.56.486,comp,2024.2.4,57.32923100474702,2025-03-12 12h56.04.323890 -0400,
120,120,0,filler_random,None,None,None,None,None,None,None,None,None,None,1,1.3035337924957275,None,,,,,0,0,0,0,0,120,120,146,443.4533107280731,,,,,,,,,,,,,,,,,,,,,,,,,,,,,,,,,,,,,,,,,,,,,,,,,,,,,,,,,,,,,,,,,,,,,,,,,,,,,,,,,151.2481497912405,152.8623083606126,86.56732070287036,150.94976093952295,91.59782123199007,190.48698035531177,3.0,3.2,-248,-250,0,15,267,280,443.4384582042694,443.43857192993164,443.4416997432709,443.4533107280731,443.6039845943451,443.6039845943451,443.6039845943451,443.6039845943451,443.6039845943451,443.6039845943451,443.6039845943451,444.77263951301575,1,1.3035337924957275,None,,,,,,,,,,,,,,,,,,237,1,2025-03-12_12h55.56.486,comp,2024.2.4,57.32923100474702,2025-03-12 12h56.04.323890 -0400,
121,121,0,critical,dhw,35.0,4.0,lower,70.0,70.0,133.0,57.0,57.0,133.0,1,1.6892752647399902,None,,,,,0,0,0,0,0,121,121,52,444.78853154182434,,,,,,,,,,,,,,,,,,,,,,,,,,,,,,,,,,,,,,,,,,,,,,,,,,,,,,,,,,,,,,,,,,,,,,,,,,,,,,,,,70.0,70.0,133.0,57.0,57.0,133.0,4.0,4.2,-160,13,0,-282,191,-1,444.7743089199066,444.77444291114807,444.7779231071472,444.78853154182434,444.9381914138794,444.9381914138794,444.9381914138794,444.9381914138794,444.9381914138794,444.9381914138794,444.9381914138794,446.4853484630585,1,1.6892752647399902,None,,,,,,,,,,,,,,,,,,237,1,2025-03-12_12h55.56.486,comp,2024.2.4,57.32923100474702,2025-03-12 12h56.04.323890 -0400,
122,122,0,filler_random,None,None,None,None,None,None,None,None,None,None,1,1.7363028526306152,None,,,,,0,0,0,0,0,122,122,166,446.5012557506561,,,,,,,,,,,,,,,,,,,,,,,,,,,,,,,,,,,,,,,,,,,,,,,,,,,,,,,,,,,,,,,,,,,,,,,,,,,,,,,,,131.78808893185467,150.76553874422524,157.09529236124075,91.71012043762367,130.18098502964392,97.27974448157025,2.1,2.12,-217,-254,0,-266,190,263,446.48729705810547,446.48737835884094,446.4906659126282,446.5012557506561,446.6387176513672,446.6387176513672,446.6387176513672,446.6387176513672,446.6387176513672,446.6387176513672,446.6387176513672,448.24383068084717,1,1.7363028526306152,None,,,,,,,,,,,,,,,,,,237,1,2025-03-12_12h55.56.486,comp,2024.2.4,57.32923100474702,2025-03-12 12h56.04.323890 -0400,
123,123,0,critical,dhw,35.0,3.0,upper,127.0,127.0,200.0,125.0,125.0,200.0,2,2.5941741466522217,None,,,,,0,0,0,0,0,123,123,51,448.25927567481995,,,,,,,,,,,,,,,,,,,,,,,,,,,,,,,,,,,,,,,,,,,,,,,,,,,,,,,,,,,,,,,,,,,,,,,,,,,,,,,,,127.0,127.0,200.0,125.0,125.0,200.0,3.0,3.2,-222,-277,0,15,258,267,448.2455155849457,448.2455999851227,448.2484929561615,448.25927567481995,448.4150586128235,448.4150586128235,448.4150586128235,448.4150586128235,448.4150586128235,448.4150586128235,448.4150586128235,450.8560039997101,2,2.5941741466522217,None,,,,,,,,,,,,,,,,,,237,1,2025-03-12_12h55.56.486,comp,2024.2.4,57.32923100474702,2025-03-12 12h56.04.323890 -0400,
124,124,0,critical,wdh,35.0,2.1,lower,57.0,133.0,70.0,70.0,133.0,57.0,1,5.7539284229278564,None,,,,,0,0,0,0,0,124,124,32,450.8759524822235,,,,,,,,,,,,,,,,,,,,,,,,,,,,,,,,,,,,,,,,,,,,,,,,,,,,,,,,,,,,,,,,,,,,,,,,,,,,,,,,,57.0,133.0,70.0,70.0,133.0,57.0,2.1,2.12,-198,-263,0,-265,160,269,450.8575539588928,450.85763359069824,450.8605296611786,450.8759524822235,451.0091552734375,451.0091552734375,451.0091552734375,451.0091552734375,451.0091552734375,451.0091552734375,451.0091552734375,456.64208722114563,1,5.7539284229278564,None,,,,,,,,,,,,,,,,,,237,1,2025-03-12_12h55.56.486,comp,2024.2.4,57.32923100474702,2025-03-12 12h56.04.323890 -0400,
125,125,0,critical,dwh,35.0,2.1,upper,127.0,127.0,125.0,200.0,200.0,125.0,2,1.274712085723877,None,,,,,0,0,0,0,0,125,125,29,456.65799283981323,,,,,,,,,,,,,,,,,,,,,,,,,,,,,,,,,,,,,,,,,,,,,,,,,,,,,,,,,,,,,,,,,,,,,,,,,,,,,,,,,127.0,127.0,125.0,200.0,200.0,125.0,2.1,2.11,-260,258,0,278,258,-273,456.64379143714905,456.64392733573914,456.647433757782,456.65799283981323,456.80855536460876,456.80855536460876,456.80855536460876,456.80855536460876,456.80855536460876,456.80855536460876,456.80855536460876,457.9474220275879,2,1.274712085723877,None,,,,,,,,,,,,,,,,,,237,1,2025-03-12_12h55.56.486,comp,2024.2.4,57.32923100474702,2025-03-12 12h56.04.323890 -0400,
126,126,0,critical,dhw,35.0,2.1,upper,127.0,127.0,200.0,125.0,125.0,200.0,2,1.3521089553833008,None,,,,,0,0,0,0,0,126,126,25,457.96473574638367,,,,,,,,,,,,,,,,,,,,,,,,,,,,,,,,,,,,,,,,,,,,,,,,,,,,,,,,,,,,,,,,,,,,,,,,,,,,,,,,,127.0,127.0,200.0,125.0,125.0,200.0,2.1,2.12,-222,-262,0,-288,258,250,457.94909381866455,457.949205160141,457.9525227546692,457.96473574638367,458.10634446144104,458.10634446144104,458.10634446144104,458.10634446144104,458.10634446144104,458.10634446144104,458.10634446144104,459.32599925994873,2,1.3521089553833008,None,,,,,,,,,,,,,,,,,,237,1,2025-03-12_12h55.56.486,comp,2024.2.4,57.32923100474702,2025-03-12 12h56.04.323890 -0400,
127,127,0,critical,whd,20.0,4.0,upper,125.0,200.0,200.0,125.0,141.0,141.0,2,2.4306061267852783,None,,,,,0,0,0,0,0,127,127,95,459.3424575328827,,,,,,,,,,,,,,,,,,,,,,,,,,,,,,,,,,,,,,,,,,,,,,,,,,,,,,,,,,,,,,,,,,,,,,,,,,,,,,,,,125.0,200.0,200.0,125.0,141.0,141.0,4.0,4.2,-258,6,0,-252,229,1,459.327654838562,459.3278121948242,459.33152985572815,459.3424575328827,459.49400901794434,459.49400901794434,459.49400901794434,459.49400901794434,459.49400901794434,459.49400901794434,459.49400901794434,461.7771623134613,2,2.4306061267852783,None,,,,,,,,,,,,,,,,,,237,1,2025-03-12_12h55.56.486,comp,2024.2.4,57.32923100474702,2025-03-12 12h56.04.323890 -0400,
128,128,0,filler_square,None,None,None,None,None,None,None,None,None,None,1,1.7981641292572021,None,,,,,0,0,0,0,0,128,128,207,461.7987594604492,,,,,,,,,,,,,,,,,,,,,,,,,,,,,,,,,,,,,,,,,,,,,,,,,,,,,,,,,,,,,,,,,,,,,,,,,,,,,,,,,73.90374668388424,73.90374668388424,69.55507223213301,58.48763659315899,69.06743213851657,73.28304942770177,3.0,3.1,-162,260,0,-17,162,-272,461.77905678749084,461.7791383266449,461.7829964160919,461.7987594604492,461.943128824234,461.943128824234,461.943128824234,461.943128824234,461.943128824234,461.943128824234,461.943128824234,463.61079812049866,1,1.7981641292572021,None,,,,,,,,,,,,,,,,,,237,1,2025-03-12_12h55.56.486,comp,2024.2.4,57.32923100474702,2025-03-12 12h56.04.323890 -0400,
129,129,0,filler_square,None,None,None,None,None,None,None,None,None,None,1,1.746262550354004,None,,,,,0,0,0,0,0,129,129,203,463.6272008419037,,,,,,,,,,,,,,,,,,,,,,,,,,,,,,,,,,,,,,,,,,,,,,,,,,,,,,,,,,,,,,,,,,,,,,,,,,,,,,,,,93.03354910223663,93.03354910223663,67.18135278925268,86.14456867396117,81.2726897073536,82.29468269637269,2.1,2.11,-186,263,0,265,180,-286,463.6126432418823,463.6127219200134,463.6167390346527,463.6272008419037,463.77710914611816,463.77710914611816,463.77710914611816,463.77710914611816,463.77710914611816,463.77710914611816,463.77710914611816,465.378901720047,1,1.746262550354004,None,,,,,,,,,,,,,,,,,,237,1,2025-03-12_12h55.56.486,comp,2024.2.4,57.32923100474702,2025-03-12 12h56.04.323890 -0400,
130,130,0,critical,wdh,35.0,2.1,upper,125.0,200.0,127.0,127.0,200.0,125.0,1,2.2336297035217285,None,,,,,0,0,0,0,0,130,130,33,465.3950641155243,,,,,,,,,,,,,,,,,,,,,,,,,,,,,,,,,,,,,,,,,,,,,,,,,,,,,,,,,,,,,,,,,,,,,,,,,,,,,,,,,125.0,200.0,127.0,127.0,200.0,125.0,2.1,2.12,-260,-283,0,-289,222,258,465.38060879707336,465.3807408809662,465.3842329978943,465.3950641155243,465.5331289768219,465.5331289768219,465.5331289768219,465.5331289768219,465.5331289768219,465.5331289768219,465.5331289768219,467.64289951324463,1,2.2336297035217285,None,,,,,,,,,,,,,,,,,,237,1,2025-03-12_12h55.56.486,comp,2024.2.4,57.32923100474702,2025-03-12 12h56.04.323890 -0400,
131,131,0,critical,hwd,20.0,4.0,lower,133.0,57.0,57.0,133.0,78.0,78.0,2,2.910137414932251,None,,,,,0,0,0,0,0,131,131,106,467.6637945175171,,,,,,,,,,,,,,,,,,,,,,,,,,,,,,,,,,,,,,,,,,,,,,,,,,,,,,,,,,,,,,,,,,,,,,,,,,,,,,,,,133.0,57.0,57.0,133.0,78.0,78.0,4.0,4.2,-191,11,0,-279,202,-2,467.6445233821869,467.6446077823639,467.6479425430298,467.6637945175171,467.81201219558716,467.81201219558716,467.81201219558716,467.81201219558716,467.81201219558716,467.81201219558716,467.81201219558716,470.58344316482544,2,2.910137414932251,None,,,,,,,,,,,,,,,,,,237,1,2025-03-12_12h55.56.486,comp,2024.2.4,57.32923100474702,2025-03-12 12h56.04.323890 -0400,
132,132,0,filler_square,None,None,None,None,None,None,None,None,None,None,1,2.4371962547302246,None,,,,,0,0,0,0,0,132,132,196,470.600337266922,,,,,,,,,,,,,,,,,,,,,,,,,,,,,,,,,,,,,,,,,,,,,,,,,,,,,,,,,,,,,,,,,,,,,,,,,,,,,,,,,126.22514074242729,126.22514074242729,118.2372126660789,88.42721375918413,68.62702300273249,115.05502734042655,2.2,2.22,-203,266,0,-251,198,-280,470.58560037612915,470.58568263053894,470.5892038345337,470.600337266922,470.74582052230835,470.74582052230835,470.74582052230835,470.74582052230835,470.74582052230835,470.74582052230835,470.74582052230835,473.0461220741272,1,2.4371962547302246,None,,,,,,,,,,,,,,,,,,237,1,2025-03-12_12h55.56.486,comp,2024.2.4,57.32923100474702,2025-03-12 12h56.04.323890 -0400,
133,133,0,critical,dwh,35.0,2.1,lower,70.0,70.0,57.0,133.0,133.0,57.0,2,4.461826324462891,None,,,,,0,0,0,0,0,133,133,4,473.06347036361694,,,,,,,,,,,,,,,,,,,,,,,,,,,,,,,,,,,,,,,,,,,,,,,,,,,,,,,,,,,,,,,,,,,,,,,,,,,,,,,,,70.0,70.0,57.0,133.0,133.0,57.0,2.1,2.12,-198,-283,0,-287,191,270,473.04765939712524,473.0477387905121,473.05094361305237,473.06347036361694,473.2156813144684,473.2156813144684,473.2156813144684,473.2156813144684,473.2156813144684,473.2156813144684,473.2156813144684,477.5299880504608,2,4.461826324462891,None,,,,,,,,,,,,,,,,,,237,1,2025-03-12_12h55.56.486,comp,2024.2.4,57.32923100474702,2025-03-12 12h56.04.323890 -0400,
134,134,0,critical,hdw,35.0,2.1,upper,200.0,125.0,127.0,127.0,125.0,200.0,1,2.030820846557617,None,,,,,0,0,0,0,0,134,134,45,477.55041694641113,,,,,,,,,,,,,,,,,,,,,,,,,,,,,,,,,,,,,,,,,,,,,,,,,,,,,,,,,,,,,,,,,,,,,,,,,,,,,,,,,200.0,125.0,127.0,127.0,125.0,200.0,2.1,2.11,-222,288,0,265,260,-279,477.53146386146545,477.5315625667572,477.53465390205383,477.55041694641113,477.69814348220825,477.69814348220825,477.69814348220825,477.69814348220825,477.69814348220825,477.69814348220825,477.69814348220825,479.5999035835266,1,2.030820846557617,None,,,,,,,,,,,,,,,,,,237,1,2025-03-12_12h55.56.486,comp,2024.2.4,57.32923100474702,2025-03-12 12h56.04.323890 -0400,
135,135,0,filler_random,None,None,None,None,None,None,None,None,None,None,2,0.8911557197570801,None,,,,,0,0,0,0,0,135,135,153,479.6189296245575,,,,,,,,,,,,,,,,,,,,,,,,,,,,,,,,,,,,,,,,,,,,,,,,,,,,,,,,,,,,,,,,,,,,,,,,,,,,,,,,,63.362215566476735,91.68418714844972,168.80429217767664,97.9465723606367,98.85269915189389,72.96975203760755,4.0,4.2,-191,-11,0,-275,181,20,479.60187888145447,479.6019608974457,479.60535621643066,479.6189296245575,479.76640129089355,479.76640129089355,479.76640129089355,479.76640129089355,479.76640129089355,479.76640129089355,479.76640129089355,480.5144000053406,2,0.8911557197570801,None,,,,,,,,,,,,,,,,,,237,1,2025-03-12_12h55.56.486,comp,2024.2.4,57.32923100474702,2025-03-12 12h56.04.323890 -0400,
136,136,0,filler_square,None,None,None,None,None,None,None,None,None,None,1,1.2901480197906494,None,,,,,0,0,0,0,0,136,136,185,480.53161096572876,,,,,,,,,,,,,,,,,,,,,,,,,,,,,,,,,,,,,,,,,,,,,,,,,,,,,,,,,,,,,,,,,,,,,,,,,,,,,,,,,108.55547594288029,108.55547594288029,86.64641229465475,84.04070191636234,95.78730073326382,58.32264979414436,4.0,4.1,-192,-288,0,-5,167,-275,480.5162672996521,480.5163459777832,480.51952171325684,480.53161096572876,480.668395280838,480.668395280838,480.668395280838,480.668395280838,480.668395280838,480.668395280838,480.668395280838,481.8299822807312,1,1.2901480197906494,None,,,,,,,,,,,,,,,,,,237,1,2025-03-12_12h55.56.486,comp,2024.2.4,57.32923100474702,2025-03-12 12h56.04.323890 -0400,
137,137,0,catch,None,None,None,None,None,None,None,None,None,None,2,1.0857577323913574,None,,,,,0,0,0,0,0,137,137,128,481.8473320007324,,,,,,,,,,,,,,,,,,,,,,,,,,,,,,,,,,,,,,,,,,,,,,,,,,,,,,,,,,,,,,,,,,,,,,,,,,,,,,,,,87,103,163,162,83,107,2.2,2.22,-228,275,0,-277,230,-286,481.8318796157837,481.8319602012634,481.83492159843445,481.8473320007324,482.00245785713196,482.00245785713196,482.00245785713196,482.00245785713196,482.00245785713196,482.00245785713196,482.00245785713196,482.94973134994507,2,1.0857577323913574,None,,,,,,,,,,,,,,,,,,237,1,2025-03-12_12h55.56.486,comp,2024.2.4,57.32923100474702,2025-03-12 12h56.04.323890 -0400,
138,138,0,filler_square,None,None,None,None,None,None,None,None,None,None,3,0.9917292594909668,None,,,,,0,0,0,0,0,138,138,204,482.96544647216797,,,,,,,,,,,,,,,,,,,,,,,,,,,,,,,,,,,,,,,,,,,,,,,,,,,,,,,,,,,,,,,,,,,,,,,,,,,,,,,,,76.67515867102169,142.29158294009335,112.4029288098371,135.55824242692375,182.33488266139116,182.33488266139116,1.0,1.2,-235,-17,0,19,255,19,482.9516909122467,482.9517734050751,482.9552597999573,482.96544647216797,483.1174669265747,483.1174669265747,483.1174669265747,483.1174669265747,483.1174669265747,483.1174669265747,483.1174669265747,483.96737718582153,3,0.9917292594909668,None,,,,,,,,,,,,,,,,,,237,1,2025-03-12_12h55.56.486,comp,2024.2.4,57.32923100474702,2025-03-12 12h56.04.323890 -0400,
139,139,0,filler_random,None,None,None,None,None,None,None,None,None,None,1,1.2307443618774414,None,,,,,0,0,0,0,0,139,139,131,483.98257637023926,,,,,,,,,,,,,,,,,,,,,,,,,,,,,,,,,,,,,,,,,,,,,,,,,,,,,,,,,,,,,,,,,,,,,,,,,,,,,,,,,170.19252292229305,129.8214251592762,83.30952053550396,131.12606071536987,96.08430801451179,167.87056117825466,4.0,4.2,-226,6,0,-285,245,-7,483.968759059906,483.96879267692566,483.97128772735596,483.98257637023926,484.1348919868469,484.1348919868469,484.1348919868469,484.1348919868469,484.1348919868469,484.1348919868469,484.1348919868469,485.216450214386,1,1.2307443618774414,None,,,,,,,,,,,,,,,,,,237,1,2025-03-12_12h55.56.486,comp,2024.2.4,57.32923100474702,2025-03-12 12h56.04.323890 -0400,
140,140,0,critical,hwd,20.0,4.0,upper,200.0,125.0,125.0,200.0,141.0,141.0,2,2.247533082962036,None,,,,,0,0,0,0,0,140,140,107,485.2320353984833,,,,,,,,,,,,,,,,,,,,,,,,,,,,,,,,,,,,,,,,,,,,,,,,,,,,,,,,,,,,,,,,,,,,,,,,,,,,,,,,,200.0,125.0,125.0,200.0,141.0,141.0,4.0,4.2,-258,-5,0,-253,266,19,485.2177963256836,485.2178521156311,485.2198579311371,485.2320353984833,485.3844563961029,485.3844563961029,485.3844563961029,485.3844563961029,485.3844563961029,485.3844563961029,485.3844563961029,487.4827210903168,2,2.247533082962036,None,,,,,,,,,,,,,,,,,,237,1,2025-03-12_12h55.56.486,comp,2024.2.4,57.32923100474702,2025-03-12 12h56.04.323890 -0400,
