thisN,thisTrialN,thisRepN,effect,order,distance,config,diag,h_1,w_1,h_2,w_2,h_3,w_3,rect_choice.keys,rect_choice.rt,rect_choice.duration,instructions_loop.thisRepN,instructions_loop.thisTrialN,instructions_loop.thisN,instructions_loop.thisIndex,blocks.thisRepN,blocks.thisTrialN,blocks.thisN,blocks.thisIndex,trials.thisRepN,trials.thisTrialN,trials.thisN,trials.thisIndex,thisRow.t,notes,consent.started,agree_button.started,decline_button.started,consent_img.started,mouse.started,consent.stopped,agree_button.numClicks,agree_button.timesOn,agree_button.timesOff,decline_button.numClicks,decline_button.timesOn,decline_button.timesOff,mouse.x,mouse.y,mouse.leftButton,mouse.midButton,mouse.rightButton,mouse.time,mouse.clicked_name,exp_params.started,exp_params.stopped,welcome.started,welcome_text.started,welcome.stopped,instructions_1.started,instructions_1_text_1.started,instructions_1_text_2.started,key_resp.started,instructions_1.stopped,instructions_loop.key_resp.keys,instructions_loop.key_resp.rt,instructions_loop.key_resp.duration,instructions_2.started,instructions_2_text_1.started,instructions_2_text_2.started,key_resp_2.started,instructions_2.stopped,instructions_loop.key_resp_2.keys,instructions_loop.key_resp_2.rt,instructions_loop.key_resp_2.duration,instructions_3.started,instructions_3_text_1.started,r1_instr3.started,r2_instr3.started,r3_instr3.started,r1_instr3_label.started,r2_instr3_label.started,r3_instr3_label.started,instructions_3_text_3.started,instructions_3_text_4.started,key_resp_3.started,instructions_3.stopped,instructions_loop.key_resp_3.keys,instructions_loop.key_resp_3.rt,instructions_loop.key_resp_3.duration,instructions_4.started,instructions_4_text_1.started,instructions_4_text_3.started,instructions_4_text_2.started,key_resp_4.started,instructions_4.stopped,instructions_loop.key_resp_4.keys,instructions_loop.key_resp_4.rt,instructions_loop.key_resp_4.duration,instructions_5.started,instructions_5_text_1.started,instructions_5_text_2.started,key_resp_5.started,instructions_5.stopped,instructions_loop.key_resp_5.keys,instructions_loop.key_resp_5.rt,instructions_loop.key_resp_5.duration,start_exp.started,start_exp_text.started,key_resp_6.started,start_exp.stopped,key_resp_6.keys,key_resp_6.rt,key_resp_6.duration,h_1_tmp,w_1_tmp,h_2_tmp,w_2_tmp,h_3_tmp,w_3_tmp,config_tmp,config_tmp_1,r_1_x,r_1_y,r_2_x,r_2_y,r_3_x,r_3_y,pre_trial.started,pre_trial.stopped,choice_trial.started,rect_choice.started,r_1.started,r_2.started,r_3.started,r_1_label.started,r_2_label.started,r_3_label.started,prompt.started,choice_trial.stopped,trials.rect_choice.keys,trials.rect_choice.rt,trials.rect_choice.duration,end_block.started,end_block_text.started,end_block.stopped,end.started,end_text.started,key_resp_7.started,end.stopped,key_resp_7.keys,key_resp_7.rt,key_resp_7.duration,debriefing.started,debrief_form.started,end_debrief.started,debriefing.stopped,end_debrief.keys,end_debrief.rt,end_debrief.duration,participant,computer,date,expName,psychopyVersion,frameRate,expStart,
,,,,,,,,,,,,,,,,,,,,,,,,,,,,,,,0.014609098434448242,0.037552595138549805,0.037552595138549805,0.037552595138549805,0.014401674270629883,12.049405813217163,1,[12.009066104888916],[12.009089231491089],0,,,[-91.0],[-520.0],[1],[0],[0],[12.0343759059906],['agree_button'],,,,,,,,,,,,,,,,,,,,,,,,,,,,,,,,,,,,,,,,,,,,,,,,,,,,,,,,,,,,,,,,,,,,,,,,,,,,,,,,,,,,,,,,,,,,,,,,,,,,,,,,,,,238,2,2025-03-12_13h08.56.121,comp,2024.2.4,None,2025-03-12 13h09.03.720324 -0400,
,,,,,,,,,,,,,,,,,,,,,,,,,,,,,,,,,,,,,,,,,,,,,,,,,,12.050050973892212,12.050116539001465,,,,,,,,,,,,,,,,,,,,,,,,,,,,,,,,,,,,,,,,,,,,,,,,,,,,,,,,,,,,,,,,,,,,,,,,,,,,,,,,,,,,,,,,,,,,,,,,,,,,,,,,,238,2,2025-03-12_13h08.56.121,comp,2024.2.4,None,2025-03-12 13h09.03.720324 -0400,
,,,,,,,,,,,,,,,,,,,,,,,,,,,,,,,,,,,,,,,,,,,,,,,,,,,,12.050159692764282,12.066735029220581,14.068782567977905,,,,,,,,,,,,,,,,,,,,,,,,,,,,,,,,,,,,,,,,,,,,,,,,,,,,,,,,,,,,,,,,,,,,,,,,,,,,,,,,,,,,,,,,,,,,,,,,,,,,,,238,2,2025-03-12_13h08.56.121,comp,2024.2.4,None,2025-03-12 13h09.03.720324 -0400,
0,0,0,,,,,,,,,,,,,,,0,0,0,0,,,,,,,,,14.08708906173706,,,,,,,,,,,,,,,,,,,,,,,,,,14.069669246673584,14.08708906173706,14.08708906173706,15.550012350082397,20.78661274909973,space,5.228010654449463,None,20.78679084777832,20.803446054458618,20.803446054458618,22.286348342895508,50.52702236175537,space,28.23563313484192,None,50.52717614173889,50.55762243270874,50.55762243270874,50.55762243270874,50.55762243270874,50.55762243270874,50.55762243270874,50.55762243270874,50.55762243270874,50.55762243270874,52.02700233459473,56.19619393348694,space,4.150535821914673,None,56.19635343551636,56.2143497467041,56.2143497467041,56.2143497467041,57.69659161567688,65.38165712356567,space,7.681313991546631,None,65.38180494308472,65.3983371257782,65.3983371257782,66.88145875930786,68.63767218589783,space,1.7360913753509521,None,68.63789701461792,68.65289235115051,68.65289235115051,69.86717915534973,space,1.19657301902771,None,,,,,,,,,,,,,,,,,,,,,,,,,,,,,,,,,,,,,,,,,,,,,,,238,2,2025-03-12_13h08.56.121,comp,2024.2.4,None,2025-03-12 13h09.03.720324 -0400,
0,0,0,critical,whd,35.0,2.1,lower,57.0,133.0,133.0,57.0,70.0,70.0,1,5.643396377563477,None,,,,,0,0,0,0,0,0,0,36,69.95052790641785,,,,,,,,,,,,,,,,,,,,,,,,,,,,,,,,,,,,,,,,,,,,,,,,,,,,,,,,,,,,,,,,,,,,,,,,,,,,,,,,,57.0,133.0,133.0,57.0,70.0,70.0,2.1,2.12,-191,-259,0,-285,160,264,69.93320226669312,69.93324422836304,69.93512511253357,69.95052790641785,70.11812686920166,70.11812686920166,70.11812686920166,70.11812686920166,70.11812686920166,70.11812686920166,70.11812686920166,75.61389756202698,1,5.643396377563477,None,,,,,,,,,,,,,,,,,,238,2,2025-03-12_13h08.56.121,comp,2024.2.4,None,2025-03-12 13h09.03.720324 -0400,
1,1,0,critical,dhw,35.0,4.0,lower,70.0,70.0,133.0,57.0,57.0,133.0,3,8.056557178497314,None,,,,,0,0,0,0,0,1,1,52,75.63268780708313,,,,,,,,,,,,,,,,,,,,,,,,,,,,,,,,,,,,,,,,,,,,,,,,,,,,,,,,,,,,,,,,,,,,,,,,,,,,,,,,,70.0,70.0,133.0,57.0,57.0,133.0,4.0,4.1,-160,-285,0,-18,191,-268,75.61539912223816,75.61547350883484,75.61876702308655,75.63268780708313,75.76680326461792,75.76680326461792,75.76680326461792,75.76680326461792,75.76680326461792,75.76680326461792,75.76680326461792,83.70085763931274,3,8.056557178497314,None,,,,,,,,,,,,,,,,,,238,2,2025-03-12_13h08.56.121,comp,2024.2.4,None,2025-03-12 13h09.03.720324 -0400,
2,2,0,critical,whd,20.0,2.1,upper,125.0,200.0,200.0,125.0,141.0,141.0,1,3.9239816665649414,None,,,,,0,0,0,0,0,2,2,39,83.7179000377655,,,,,,,,,,,,,,,,,,,,,,,,,,,,,,,,,,,,,,,,,,,,,,,,,,,,,,,,,,,,,,,,,,,,,,,,,,,,,,,,,125.0,200.0,200.0,125.0,141.0,141.0,2.1,2.11,-258,274,0,276,229,-261,83.702388048172,83.70246624946594,83.70576071739197,83.7179000377655,83.86216259002686,83.86216259002686,83.86216259002686,83.86216259002686,83.86216259002686,83.86216259002686,83.86216259002686,87.64892482757568,1,3.9239816665649414,None,,,,,,,,,,,,,,,,,,238,2,2025-03-12_13h08.56.121,comp,2024.2.4,None,2025-03-12 13h09.03.720324 -0400,
3,3,0,critical,dwh,20.0,2.1,lower,78.0,78.0,57.0,133.0,133.0,57.0,1,5.550238847732544,None,,,,,0,0,0,0,0,3,3,6,87.66697812080383,,,,,,,,,,,,,,,,,,,,,,,,,,,,,,,,,,,,,,,,,,,,,,,,,,,,,,,,,,,,,,,,,,,,,,,,,,,,,,,,,78.0,78.0,57.0,133.0,133.0,57.0,2.1,2.11,-202,276,0,277,191,-281,87.65038633346558,87.65046191215515,87.65372204780579,87.66697812080383,87.80990147590637,87.80990147590637,87.80990147590637,87.80990147590637,87.80990147590637,87.80990147590637,87.80990147590637,93.22947359085083,1,5.550238847732544,None,,,,,,,,,,,,,,,,,,238,2,2025-03-12_13h08.56.121,comp,2024.2.4,None,2025-03-12 13h09.03.720324 -0400,
4,4,0,critical,whd,35.0,3.0,upper,125.0,200.0,200.0,125.0,127.0,127.0,2,5.81739616394043,None,,,,,0,0,0,0,0,4,4,87,93.24783396720886,,,,,,,,,,,,,,,,,,,,,,,,,,,,,,,,,,,,,,,,,,,,,,,,,,,,,,,,,,,,,,,,,,,,,,,,,,,,,,,,,125.0,200.0,200.0,125.0,127.0,127.0,3.0,3.2,-258,-266,0,7,222,251,93.23141694068909,93.2314977645874,93.23481321334839,93.24783396720886,93.39745759963989,93.39745759963989,93.39745759963989,93.39745759963989,93.39745759963989,93.39745759963989,93.39745759963989,99.07692122459412,2,5.81739616394043,None,,,,,,,,,,,,,,,,,,238,2,2025-03-12_13h08.56.121,comp,2024.2.4,None,2025-03-12 13h09.03.720324 -0400,
5,5,0,critical,hwd,35.0,1.0,lower,133.0,57.0,57.0,133.0,70.0,70.0,2,4.875664710998535,None,,,,,0,0,0,0,0,5,5,96,99.09364676475525,,,,,,,,,,,,,,,,,,,,,,,,,,,,,,,,,,,,,,,,,,,,,,,,,,,,,,,,,,,,,,,,,,,,,,,,,,,,,,,,,133.0,57.0,57.0,133.0,70.0,70.0,1.0,1.3,289,-275,480,-281,678,-269,99.07845520973206,99.07853245735168,99.08196711540222,99.09364676475525,99.24423027038574,99.24423027038574,99.24423027038574,99.24423027038574,99.24423027038574,99.24423027038574,99.24423027038574,103.98928427696228,2,4.875664710998535,None,,,,,,,,,,,,,,,,,,238,2,2025-03-12_13h08.56.121,comp,2024.2.4,None,2025-03-12 13h09.03.720324 -0400,
6,6,0,critical,whd,35.0,2.1,lower,57.0,133.0,133.0,57.0,70.0,70.0,1,9.698822736740112,None,,,,,0,0,0,0,0,6,6,12,104.00686144828796,,,,,,,,,,,,,,,,,,,,,,,,,,,,,,,,,,,,,,,,,,,,,,,,,,,,,,,,,,,,,,,,,,,,,,,,,,,,,,,,,57.0,133.0,133.0,57.0,70.0,70.0,2.1,2.11,-191,285,0,265,160,-285,103.99079465866089,103.99090147018433,103.99421787261963,104.00686144828796,104.1442642211914,104.1442642211914,104.1442642211914,104.1442642211914,104.1442642211914,104.1442642211914,104.1442642211914,113.71738910675049,1,9.698822736740112,None,,,,,,,,,,,,,,,,,,238,2,2025-03-12_13h08.56.121,comp,2024.2.4,None,2025-03-12 13h09.03.720324 -0400,
7,7,0,critical,hwd,20.0,3.0,upper,200.0,125.0,125.0,200.0,141.0,141.0,1,3.4927453994750977,None,,,,,0,0,0,0,0,7,7,105,113.73444676399231,,,,,,,,,,,,,,,,,,,,,,,,,,,,,,,,,,,,,,,,,,,,,,,,,,,,,,,,,,,,,,,,,,,,,,,,,,,,,,,,,200.0,125.0,125.0,200.0,141.0,141.0,3.0,3.2,-258,-268,0,-18,266,251,113.71917057037354,113.71930527687073,113.72365689277649,113.73444676399231,113.88293981552124,113.88293981552124,113.88293981552124,113.88293981552124,113.88293981552124,113.88293981552124,113.88293981552124,117.23221921920776,1,3.4927453994750977,None,,,,,,,,,,,,,,,,,,238,2,2025-03-12_13h08.56.121,comp,2024.2.4,None,2025-03-12 13h09.03.720324 -0400,
8,8,0,critical,hwd,35.0,2.1,lower,133.0,57.0,57.0,133.0,70.0,70.0,3,3.6310572624206543,None,,,,,0,0,0,0,0,8,8,16,117.25054240226746,,,,,,,,,,,,,,,,,,,,,,,,,,,,,,,,,,,,,,,,,,,,,,,,,,,,,,,,,,,,,,,,,,,,,,,,,,,,,,,,,133.0,57.0,57.0,133.0,70.0,70.0,2.1,2.11,-191,282,0,252,198,-260,117.23372459411621,117.23380017280579,117.23729729652405,117.25054240226746,117.40128922462463,117.40128922462463,117.40128922462463,117.40128922462463,117.40128922462463,117.40128922462463,117.40128922462463,120.88947415351868,3,3.6310572624206543,None,,,,,,,,,,,,,,,,,,238,2,2025-03-12_13h08.56.121,comp,2024.2.4,None,2025-03-12 13h09.03.720324 -0400,
9,9,0,filler_random,None,None,None,None,None,None,None,None,None,None,3,3.7000510692596436,None,,,,,0,0,0,0,0,9,9,155,120.9091203212738,,,,,,,,,,,,,,,,,,,,,,,,,,,,,,,,,,,,,,,,,,,,,,,,,,,,,,,,,,,,,,,,,,,,,,,,,,,,,,,,,146.2180590415324,141.25109435875194,118.13911042726397,179.07173489358235,159.89168882975122,183.9724686477004,3.0,3.1,-256,283,0,-5,278,-287,120.8913345336914,120.89141416549683,120.89519882202148,120.9091203212738,121.05286169052124,121.05286169052124,121.05286169052124,121.05286169052124,121.05286169052124,121.05286169052124,121.05286169052124,124.62537264823914,3,3.7000510692596436,None,,,,,,,,,,,,,,,,,,238,2,2025-03-12_13h08.56.121,comp,2024.2.4,None,2025-03-12 13h09.03.720324 -0400,
10,10,0,critical,whd,20.0,2.1,lower,57.0,133.0,133.0,57.0,78.0,78.0,3,7.639620304107666,None,,,,,0,0,0,0,0,10,10,14,124.64166307449341,,,,,,,,,,,,,,,,,,,,,,,,,,,,,,,,,,,,,,,,,,,,,,,,,,,,,,,,,,,,,,,,,,,,,,,,,,,,,,,,,57.0,133.0,133.0,57.0,78.0,78.0,2.1,2.11,-191,256,0,275,164,-287,124.62694120407104,124.62701940536499,124.63033699989319,124.64166307449341,124.78425741195679,124.78425741195679,124.78425741195679,124.78425741195679,124.78425741195679,124.78425741195679,124.78425741195679,132.2916657924652,3,7.639620304107666,None,,,,,,,,,,,,,,,,,,238,2,2025-03-12_13h08.56.121,comp,2024.2.4,None,2025-03-12 13h09.03.720324 -0400,
11,11,0,critical,wdh,20.0,3.0,lower,57.0,133.0,78.0,78.0,133.0,57.0,1,7.02871561050415,None,,,,,0,0,0,0,0,11,11,80,132.3087260723114,,,,,,,,,,,,,,,,,,,,,,,,,,,,,,,,,,,,,,,,,,,,,,,,,,,,,,,,,,,,,,,,,,,,,,,,,,,,,,,,,57.0,133.0,78.0,78.0,133.0,57.0,3.0,3.1,-202,285,0,19,164,-269,132.29369688034058,132.2937798500061,132.29761719703674,132.3087260723114,132.45606637001038,132.45606637001038,132.45606637001038,132.45606637001038,132.45606637001038,132.45606637001038,132.45606637001038,139.35601496696472,1,7.02871561050415,None,,,,,,,,,,,,,,,,,,238,2,2025-03-12_13h08.56.121,comp,2024.2.4,None,2025-03-12 13h09.03.720324 -0400,
12,12,0,critical,hdw,20.0,3.0,upper,200.0,125.0,141.0,141.0,125.0,200.0,3,3.6450753211975098,None,,,,,0,0,0,0,0,12,12,117,139.37292313575745,,,,,,,,,,,,,,,,,,,,,,,,,,,,,,,,,,,,,,,,,,,,,,,,,,,,,,,,,,,,,,,,,,,,,,,,,,,,,,,,,200.0,125.0,141.0,141.0,125.0,200.0,3.0,3.2,-229,-267,0,-3,266,288,139.35760855674744,139.35768270492554,139.36145448684692,139.37292313575745,139.52366089820862,139.52366089820862,139.52366089820862,139.52366089820862,139.52366089820862,139.52366089820862,139.52366089820862,143.02698802947998,3,3.6450753211975098,None,,,,,,,,,,,,,,,,,,238,2,2025-03-12_13h08.56.121,comp,2024.2.4,None,2025-03-12 13h09.03.720324 -0400,
13,13,0,filler_random,None,None,None,None,None,None,None,None,None,None,1,2.7653868198394775,None,,,,,0,0,0,0,0,13,13,143,143.04388189315796,,,,,,,,,,,,,,,,,,,,,,,,,,,,,,,,,,,,,,,,,,,,,,,,,,,,,,,,,,,,,,,,,,,,,,,,,,,,,,,,,199.03223830085258,132.0666531493315,108.44776510551748,154.882930602436,90.67354492320678,150.8660668214579,2.1,2.11,-239,262,0,252,249,-265,143.02874612808228,143.02885222434998,143.03218007087708,143.04388189315796,143.19124937057495,143.19124937057495,143.19124937057495,143.19124937057495,143.19124937057495,143.19124937057495,143.19124937057495,145.81178402900696,1,2.7653868198394775,None,,,,,,,,,,,,,,,,,,238,2,2025-03-12_13h08.56.121,comp,2024.2.4,None,2025-03-12 13h09.03.720324 -0400,
14,14,0,critical,hdw,35.0,2.1,upper,200.0,125.0,127.0,127.0,125.0,200.0,3,1.3605742454528809,None,,,,,0,0,0,0,0,14,14,45,145.83268475532532,,,,,,,,,,,,,,,,,,,,,,,,,,,,,,,,,,,,,,,,,,,,,,,,,,,,,,,,,,,,,,,,,,,,,,,,,,,,,,,,,200.0,125.0,127.0,127.0,125.0,200.0,2.1,2.11,-222,265,0,261,260,-282,145.81340670585632,145.81352758407593,145.81689953804016,145.83268475532532,145.97611546516418,145.97611546516418,145.97611546516418,145.97611546516418,145.97611546516418,145.97611546516418,145.97611546516418,147.20806241035461,3,1.3605742454528809,None,,,,,,,,,,,,,,,,,,238,2,2025-03-12_13h08.56.121,comp,2024.2.4,None,2025-03-12 13h09.03.720324 -0400,
15,15,0,filler_random,None,None,None,None,None,None,None,None,None,None,1,1.248535394668579,None,,,,,0,0,0,0,0,15,15,130,147.22486519813538,,,,,,,,,,,,,,,,,,,,,,,,,,,,,,,,,,,,,,,,,,,,,,,,,,,,,,,,,,,,,,,,,,,,,,,,,,,,,,,,,180.60989887176868,156.41760969055161,74.37557257941965,128.95247731294137,105.98761959814115,63.74756984476095,4.0,4.2,-239,8,0,-255,192,4,147.20976638793945,147.20987701416016,147.2134964466095,147.22486519813538,147.3784818649292,147.3784818649292,147.3784818649292,147.3784818649292,147.3784818649292,147.3784818649292,147.3784818649292,148.47764778137207,1,1.248535394668579,None,,,,,,,,,,,,,,,,,,238,2,2025-03-12_13h08.56.121,comp,2024.2.4,None,2025-03-12 13h09.03.720324 -0400,
16,16,0,critical,hwd,20.0,4.0,lower,133.0,57.0,57.0,133.0,78.0,78.0,2,4.298298358917236,None,,,,,0,0,0,0,0,16,16,106,148.4953122138977,,,,,,,,,,,,,,,,,,,,,,,,,,,,,,,,,,,,,,,,,,,,,,,,,,,,,,,,,,,,,,,,,,,,,,,,,,,,,,,,,133.0,57.0,57.0,133.0,78.0,78.0,4.0,4.2,-191,11,0,-260,202,-19,148.4793004989624,148.47942399978638,148.48351621627808,148.4953122138977,148.64646697044373,148.64646697044373,148.64646697044373,148.64646697044373,148.64646697044373,148.64646697044373,148.64646697044373,152.79848408699036,2,4.298298358917236,None,,,,,,,,,,,,,,,,,,238,2,2025-03-12_13h08.56.121,comp,2024.2.4,None,2025-03-12 13h09.03.720324 -0400,
17,17,0,critical,wdh,35.0,2.1,lower,57.0,133.0,70.0,70.0,133.0,57.0,1,3.738497018814087,None,,,,,0,0,0,0,0,17,17,8,152.81464767456055,,,,,,,,,,,,,,,,,,,,,,,,,,,,,,,,,,,,,,,,,,,,,,,,,,,,,,,,,,,,,,,,,,,,,,,,,,,,,,,,,57.0,133.0,70.0,70.0,133.0,57.0,2.1,2.12,-198,-284,0,-254,160,263,152.80006885528564,152.80014610290527,152.8037931919098,152.81464767456055,152.9670169353485,152.9670169353485,152.9670169353485,152.9670169353485,152.9670169353485,152.9670169353485,152.9670169353485,156.5633988380432,1,3.738497018814087,None,,,,,,,,,,,,,,,,,,238,2,2025-03-12_13h08.56.121,comp,2024.2.4,None,2025-03-12 13h09.03.720324 -0400,
18,18,0,critical,wdh,20.0,1.0,lower,57.0,133.0,78.0,78.0,133.0,57.0,2,8.221130847930908,None,,,,,0,0,0,0,0,18,18,78,156.5800700187683,,,,,,,,,,,,,,,,,,,,,,,,,,,,,,,,,,,,,,,,,,,,,,,,,,,,,,,,,,,,,,,,,,,,,,,,,,,,,,,,,57.0,133.0,78.0,78.0,133.0,57.0,1.0,1.3,278,-257,480,-263,644,-270,156.56503081321716,156.5651388168335,156.5690085887909,156.5800700187683,156.73060250282288,156.73060250282288,156.73060250282288,156.73060250282288,156.73060250282288,156.73060250282288,156.73060250282288,164.8185977935791,2,8.221130847930908,None,,,,,,,,,,,,,,,,,,238,2,2025-03-12_13h08.56.121,comp,2024.2.4,None,2025-03-12 13h09.03.720324 -0400,
19,19,0,critical,dwh,35.0,4.0,lower,70.0,70.0,57.0,133.0,133.0,57.0,2,5.89544153213501,None,,,,,0,0,0,0,0,19,19,64,164.8341567516327,,,,,,,,,,,,,,,,,,,,,,,,,,,,,,,,,,,,,,,,,,,,,,,,,,,,,,,,,,,,,,,,,,,,,,,,,,,,,,,,,70.0,70.0,57.0,133.0,133.0,57.0,4.0,4.1,-198,-284,0,-16,191,-281,164.82012271881104,164.82019877433777,164.8237898349762,164.8341567516327,164.98440766334534,164.98440766334534,164.98440766334534,164.98440766334534,164.98440766334534,164.98440766334534,164.98440766334534,170.7382369041443,2,5.89544153213501,None,,,,,,,,,,,,,,,,,,238,2,2025-03-12_13h08.56.121,comp,2024.2.4,None,2025-03-12 13h09.03.720324 -0400,
20,20,0,critical,dwh,20.0,1.0,lower,78.0,78.0,57.0,133.0,133.0,57.0,1,7.052006483078003,None,,,,,0,0,0,0,0,20,20,66,170.757244348526,,,,,,,,,,,,,,,,,,,,,,,,,,,,,,,,,,,,,,,,,,,,,,,,,,,,,,,,,,,,,,,,,,,,,,,,,,,,,,,,,78.0,78.0,57.0,133.0,133.0,57.0,1.0,1.3,278,-286,480,-276,671,-277,170.73977851867676,170.73988485336304,170.74323320388794,170.757244348526,170.90015268325806,170.90015268325806,170.90015268325806,170.90015268325806,170.90015268325806,170.90015268325806,170.90015268325806,177.81825351715088,1,7.052006483078003,None,,,,,,,,,,,,,,,,,,238,2,2025-03-12_13h08.56.121,comp,2024.2.4,None,2025-03-12 13h09.03.720324 -0400,
21,21,0,critical,wdh,20.0,2.1,lower,57.0,133.0,78.0,78.0,133.0,57.0,2,8.222806930541992,None,,,,,0,0,0,0,0,21,21,10,177.8343026638031,,,,,,,,,,,,,,,,,,,,,,,,,,,,,,,,,,,,,,,,,,,,,,,,,,,,,,,,,,,,,,,,,,,,,,,,,,,,,,,,,57.0,133.0,78.0,78.0,133.0,57.0,2.1,2.11,-202,257,0,279,164,-255,177.81978559494019,177.81989192962646,177.82329630851746,177.8343026638031,177.98614263534546,177.98614263534546,177.98614263534546,177.98614263534546,177.98614263534546,177.98614263534546,177.98614263534546,186.0765540599823,2,8.222806930541992,None,,,,,,,,,,,,,,,,,,238,2,2025-03-12_13h08.56.121,comp,2024.2.4,None,2025-03-12 13h09.03.720324 -0400,
22,22,0,filler_square,None,None,None,None,None,None,None,None,None,None,1,1.3803389072418213,None,,,,,0,0,0,0,0,22,22,183,186.09280133247375,,,,,,,,,,,,,,,,,,,,,,,,,,,,,,,,,,,,,,,,,,,,,,,,,,,,,,,,,,,,,,,,,,,,,,,,,,,,,,,,,158.69076441206457,158.69076441206457,116.84705817556636,124.61251326611195,95.92595451874432,151.47518221772344,4.0,4.1,-238,-265,0,-17,234,-271,186.0789897441864,186.07909035682678,186.08247756958008,186.09280133247375,186.23672533035278,186.23672533035278,186.23672533035278,186.23672533035278,186.23672533035278,186.23672533035278,186.23672533035278,187.4865744113922,1,1.3803389072418213,None,,,,,,,,,,,,,,,,,,238,2,2025-03-12_13h08.56.121,comp,2024.2.4,None,2025-03-12 13h09.03.720324 -0400,
23,23,0,critical,whd,20.0,1.0,lower,57.0,133.0,133.0,57.0,78.0,78.0,1,5.547110080718994,None,,,,,0,0,0,0,0,23,23,90,187.5026891231537,,,,,,,,,,,,,,,,,,,,,,,,,,,,,,,,,,,,,,,,,,,,,,,,,,,,,,,,,,,,,,,,,,,,,,,,,,,,,,,,,57.0,133.0,133.0,57.0,78.0,78.0,1.0,1.1,-671,262,-480,282,-316,281,187.4880928993225,187.4881682395935,187.49146151542664,187.5026891231537,187.65915489196777,187.65915489196777,187.65915489196777,187.65915489196777,187.65915489196777,187.65915489196777,187.65915489196777,193.05667805671692,1,5.547110080718994,None,,,,,,,,,,,,,,,,,,238,2,2025-03-12_13h08.56.121,comp,2024.2.4,None,2025-03-12 13h09.03.720324 -0400,
24,24,0,critical,hdw,20.0,1.0,upper,200.0,125.0,141.0,141.0,125.0,200.0,3,1.743962049484253,None,,,,,0,0,0,0,0,24,24,115,193.07389664649963,,,,,,,,,,,,,,,,,,,,,,,,,,,,,,,,,,,,,,,,,,,,,,,,,,,,,,,,,,,,,,,,,,,,,,,,,,,,,,,,,200.0,125.0,141.0,141.0,125.0,200.0,1.0,1.1,-709,260,-480,267,-214,257,193.0583529472351,193.05843305587769,193.06301403045654,193.07389664649963,193.21346282958984,193.21346282958984,193.21346282958984,193.21346282958984,193.21346282958984,193.21346282958984,193.21346282958984,194.82466411590576,3,1.743962049484253,None,,,,,,,,,,,,,,,,,,238,2,2025-03-12_13h08.56.121,comp,2024.2.4,None,2025-03-12 13h09.03.720324 -0400,
25,25,0,filler_random,None,None,None,None,None,None,None,None,None,None,2,6.661649227142334,None,,,,,0,0,0,0,0,25,25,150,194.84426951408386,,,,,,,,,,,,,,,,,,,,,,,,,,,,,,,,,,,,,,,,,,,,,,,,,,,,,,,,,,,,,,,,,,,,,,,,,,,,,,,,,94.58433749745306,156.14035143210515,106.99088134972408,195.01387679956176,176.44887399543592,132.57024782725907,3.0,3.2,-272,-266,0,-19,260,255,194.82638478279114,194.82646560668945,194.83004021644592,194.84426951408386,194.9916398525238,194.9916398525238,194.9916398525238,194.9916398525238,194.9916398525238,194.9916398525238,194.9916398525238,201.513671875,2,6.661649227142334,None,,,,,,,,,,,,,,,,,,238,2,2025-03-12_13h08.56.121,comp,2024.2.4,None,2025-03-12 13h09.03.720324 -0400,
26,26,0,critical,wdh,35.0,2.1,upper,125.0,200.0,127.0,127.0,200.0,125.0,1,2.7418482303619385,None,,,,,0,0,0,0,0,26,26,33,201.53132271766663,,,,,,,,,,,,,,,,,,,,,,,,,,,,,,,,,,,,,,,,,,,,,,,,,,,,,,,,,,,,,,,,,,,,,,,,,,,,,,,,,125.0,200.0,127.0,127.0,200.0,125.0,2.1,2.12,-260,-260,0,-259,222,258,201.5153148174286,201.51541090011597,201.51945400238037,201.53132271766663,201.67655539512634,201.67655539512634,201.67655539512634,201.67655539512634,201.67655539512634,201.67655539512634,201.67655539512634,204.28786635398865,1,2.7418482303619385,None,,,,,,,,,,,,,,,,,,238,2,2025-03-12_13h08.56.121,comp,2024.2.4,None,2025-03-12 13h09.03.720324 -0400,
27,27,0,filler_square,None,None,None,None,None,None,None,None,None,None,3,3.0879485607147217,None,,,,,0,0,0,0,0,27,27,182,204.3058979511261,,,,,,,,,,,,,,,,,,,,,,,,,,,,,,,,,,,,,,,,,,,,,,,,,,,,,,,,,,,,,,,,,,,,,,,,,,,,,,,,,62.56979156233187,100.22448989281223,65.06898890712898,90.46103261602372,104.34696094208145,104.34696094208145,4.0,4.1,-191,-284,0,-15,193,-268,204.28966546058655,204.2897448539734,204.29309606552124,204.3058979511261,204.44365048408508,204.44365048408508,204.44365048408508,204.44365048408508,204.44365048408508,204.44365048408508,204.44365048408508,207.39806604385376,3,3.0879485607147217,None,,,,,,,,,,,,,,,,,,238,2,2025-03-12_13h08.56.121,comp,2024.2.4,None,2025-03-12 13h09.03.720324 -0400,
28,28,0,critical,dwh,35.0,2.1,upper,127.0,127.0,125.0,200.0,200.0,125.0,2,3.8980472087860107,None,,,,,0,0,0,0,0,28,28,29,207.4153528213501,,,,,,,,,,,,,,,,,,,,,,,,,,,,,,,,,,,,,,,,,,,,,,,,,,,,,,,,,,,,,,,,,,,,,,,,,,,,,,,,,127.0,127.0,125.0,200.0,200.0,125.0,2.1,2.12,-260,-274,0,-268,258,280,207.39973139762878,207.39986658096313,207.4035518169403,207.4153528213501,207.57204818725586,207.57204818725586,207.57204818725586,207.57204818725586,207.57204818725586,207.57204818725586,207.57204818725586,211.32641506195068,2,3.8980472087860107,None,,,,,,,,,,,,,,,,,,238,2,2025-03-12_13h08.56.121,comp,2024.2.4,None,2025-03-12 13h09.03.720324 -0400,
29,29,0,critical,hdw,35.0,2.1,lower,133.0,57.0,70.0,70.0,57.0,133.0,2,10.402625560760498,None,,,,,0,0,0,0,0,29,29,20,211.34285426139832,,,,,,,,,,,,,,,,,,,,,,,,,,,,,,,,,,,,,,,,,,,,,,,,,,,,,,,,,,,,,,,,,,,,,,,,,,,,,,,,,133.0,57.0,70.0,70.0,57.0,133.0,2.1,2.11,-160,250,0,265,198,-254,211.32794046401978,211.3280155658722,211.33142399787903,211.34285426139832,211.49500513076782,211.49500513076782,211.49500513076782,211.49500513076782,211.49500513076782,211.49500513076782,211.49500513076782,221.74785327911377,2,10.402625560760498,None,,,,,,,,,,,,,,,,,,238,2,2025-03-12_13h08.56.121,comp,2024.2.4,None,2025-03-12 13h09.03.720324 -0400,
30,30,0,catch,None,None,None,None,None,None,None,None,None,None,3,1.8158996105194092,None,,,,,0,0,0,0,0,30,30,124,221.76930832862854,,,,,,,,,,,,,,,,,,,,,,,,,,,,,,,,,,,,,,,,,,,,,,,,,,,,,,,,,,,,,,,,,,,,,,,,,,,,,,,,,102,88,115,75,165,160,3.0,3.2,-178,-257,0,-15,214,269,221.74975872039795,221.74985885620117,221.75338649749756,221.76930832862854,221.91666841506958,221.91666841506958,221.91666841506958,221.91666841506958,221.91666841506958,221.91666841506958,221.91666841506958,223.5899133682251,3,1.8158996105194092,None,,,,,,,,,,,,,,,,,,238,2,2025-03-12_13h08.56.121,comp,2024.2.4,None,2025-03-12 13h09.03.720324 -0400,
31,31,0,filler_square,None,None,None,None,None,None,None,None,None,None,1,5.222315073013306,None,,,,,0,0,0,0,0,31,31,192,223.6113669872284,,,,,,,,,,,,,,,,,,,,,,,,,,,,,,,,,,,,,,,,,,,,,,,,,,,,,,,,,,,,,,,,,,,,,,,,,,,,,,,,,100.7322445077214,100.7322445077214,77.8235849904898,63.02878664546635,89.86058096926931,92.47009648524677,2.2,2.22,-178,274,0,-264,174,-277,223.59185695648193,223.59194016456604,223.59549164772034,223.6113669872284,223.74669814109802,223.74669814109802,223.74669814109802,223.74669814109802,223.74669814109802,223.74669814109802,223.74669814109802,228.83877229690552,1,5.222315073013306,None,,,,,,,,,,,,,,,,,,238,2,2025-03-12_13h08.56.121,comp,2024.2.4,None,2025-03-12 13h09.03.720324 -0400,
32,32,0,critical,hwd,35.0,2.1,lower,133.0,57.0,57.0,133.0,70.0,70.0,2,6.039071321487427,None,,,,,0,0,0,0,0,32,32,40,228.8587999343872,,,,,,,,,,,,,,,,,,,,,,,,,,,,,,,,,,,,,,,,,,,,,,,,,,,,,,,,,,,,,,,,,,,,,,,,,,,,,,,,,133.0,57.0,57.0,133.0,70.0,70.0,2.1,2.12,-191,-286,0,-276,198,285,228.8404290676117,228.8405055999756,228.84420680999756,228.8587999343872,229.0036609172821,229.0036609172821,229.0036609172821,229.0036609172821,229.0036609172821,229.0036609172821,229.0036609172821,234.90564608573914,2,6.039071321487427,None,,,,,,,,,,,,,,,,,,238,2,2025-03-12_13h08.56.121,comp,2024.2.4,None,2025-03-12 13h09.03.720324 -0400,
33,33,0,critical,hwd,20.0,4.0,upper,200.0,125.0,125.0,200.0,141.0,141.0,1,14.022402286529541,None,,,,,0,0,0,0,0,33,33,107,234.92272567749023,,,,,,,,,,,,,,,,,,,,,,,,,,,,,,,,,,,,,,,,,,,,,,,,,,,,,,,,,,,,,,,,,,,,,,,,,,,,,,,,,200.0,125.0,125.0,200.0,141.0,141.0,4.0,4.1,-258,-259,0,14,266,-269,234.90736293792725,234.9074409008026,234.91159462928772,234.92272567749023,235.0686960220337,235.0686960220337,235.0686960220337,235.0686960220337,235.0686960220337,235.0686960220337,235.0686960220337,248.95615935325623,1,14.022402286529541,None,,,,,,,,,,,,,,,,,,238,2,2025-03-12_13h08.56.121,comp,2024.2.4,None,2025-03-12 13h09.03.720324 -0400,
34,34,0,filler_random,None,None,None,None,None,None,None,None,None,None,2,1.540621042251587,None,,,,,0,0,0,0,0,34,34,144,248.9725317955017,,,,,,,,,,,,,,,,,,,,,,,,,,,,,,,,,,,,,,,,,,,,,,,,,,,,,,,,,,,,,,,,,,,,,,,,,,,,,,,,,129.38017699947008,99.55392285756754,155.4755934821065,161.07472579924018,87.08520482335057,159.26099336068972,2.1,2.12,-226,-264,0,-271,256,255,248.95787692070007,248.9579577445984,248.96135067939758,248.9725317955017,249.11521291732788,249.11521291732788,249.11521291732788,249.11521291732788,249.11521291732788,249.11521291732788,249.11521291732788,250.531094789505,2,1.540621042251587,None,,,,,,,,,,,,,,,,,,238,2,2025-03-12_13h08.56.121,comp,2024.2.4,None,2025-03-12 13h09.03.720324 -0400,
35,35,0,critical,dhw,35.0,2.1,upper,127.0,127.0,200.0,125.0,125.0,200.0,3,1.877744197845459,None,,,,,0,0,0,0,0,35,35,1,250.5473668575287,,,,,,,,,,,,,,,,,,,,,,,,,,,,,,,,,,,,,,,,,,,,,,,,,,,,,,,,,,,,,,,,,,,,,,,,,,,,,,,,,127.0,127.0,200.0,125.0,125.0,200.0,2.1,2.11,-222,274,0,253,258,-272,250.53278470039368,250.53292608261108,250.5368709564209,250.5473668575287,250.69229912757874,250.69229912757874,250.69229912757874,250.69229912757874,250.69229912757874,250.69229912757874,250.69229912757874,252.44041299819946,3,1.877744197845459,None,,,,,,,,,,,,,,,,,,238,2,2025-03-12_13h08.56.121,comp,2024.2.4,None,2025-03-12 13h09.03.720324 -0400,
36,36,0,critical,dhw,20.0,3.0,upper,141.0,141.0,200.0,125.0,125.0,200.0,1,7.8650572299957275,None,,,,,0,0,0,0,0,36,36,57,252.4567413330078,,,,,,,,,,,,,,,,,,,,,,,,,,,,,,,,,,,,,,,,,,,,,,,,,,,,,,,,,,,,,,,,,,,,,,,,,,,,,,,,,141.0,141.0,200.0,125.0,125.0,200.0,3.0,3.2,-229,-254,0,-3,258,266,252.44202613830566,252.44211721420288,252.44596815109253,252.4567413330078,252.60840797424316,252.60840797424316,252.60840797424316,252.60840797424316,252.60840797424316,252.60840797424316,252.60840797424316,260.32951641082764,1,7.8650572299957275,None,,,,,,,,,,,,,,,,,,238,2,2025-03-12_13h08.56.121,comp,2024.2.4,None,2025-03-12 13h09.03.720324 -0400,
37,37,0,filler_square,None,None,None,None,None,None,None,None,None,None,3,1.190540075302124,None,,,,,0,0,0,0,0,37,37,190,260.346599817276,,,,,,,,,,,,,,,,,,,,,,,,,,,,,,,,,,,,,,,,,,,,,,,,,,,,,,,,,,,,,,,,,,,,,,,,,,,,,,,,,104.77443386288763,79.47711684619725,160.70267437783073,77.55786828242783,174.86540678093903,174.86540678093903,1.0,1.2,-175,-11,0,-17,222,-15,260.33143162727356,260.33151268959045,260.3357343673706,260.346599817276,260.4997582435608,260.4997582435608,260.4997582435608,260.4997582435608,260.4997582435608,260.4997582435608,260.4997582435608,261.54714345932007,3,1.190540075302124,None,,,,,,,,,,,,,,,,,,238,2,2025-03-12_13h08.56.121,comp,2024.2.4,None,2025-03-12 13h09.03.720324 -0400,
38,38,0,critical,whd,35.0,1.0,upper,125.0,200.0,200.0,125.0,127.0,127.0,1,1.365323543548584,None,,,,,0,0,0,0,0,38,38,85,261.563889503479,,,,,,,,,,,,,,,,,,,,,,,,,,,,,,,,,,,,,,,,,,,,,,,,,,,,,,,,,,,,,,,,,,,,,,,,,,,,,,,,,125.0,200.0,200.0,125.0,127.0,127.0,1.0,1.2,-258,-20,0,8,222,-1,261.54885053634644,261.54898738861084,261.55292415618896,261.563889503479,261.7116425037384,261.7116425037384,261.7116425037384,261.7116425037384,261.7116425037384,261.7116425037384,261.7116425037384,262.9405109882355,1,1.365323543548584,None,,,,,,,,,,,,,,,,,,238,2,2025-03-12_13h08.56.121,comp,2024.2.4,None,2025-03-12 13h09.03.720324 -0400,
39,39,0,filler_random,None,None,None,None,None,None,None,None,None,None,1,1.8206963539123535,None,,,,,0,0,0,0,0,39,39,147,262.95657992362976,,,,,,,,,,,,,,,,,,,,,,,,,,,,,,,,,,,,,,,,,,,,,,,,,,,,,,,,,,,,,,,,,,,,,,,,,,,,,,,,,153.379887062064,197.63746186530022,106.80420518746266,146.34844304159088,174.60785674996652,161.11559932037272,3.0,3.2,-268,-287,0,19,250,265,262.9422175884247,262.9422957897186,262.9455819129944,262.95657992362976,263.09547233581543,263.09547233581543,263.09547233581543,263.09547233581543,263.09547233581543,263.09547233581543,263.09547233581543,264.78050351142883,1,1.8206963539123535,None,,,,,,,,,,,,,,,,,,238,2,2025-03-12_13h08.56.121,comp,2024.2.4,None,2025-03-12 13h09.03.720324 -0400,
40,40,0,critical,wdh,35.0,2.1,upper,125.0,200.0,127.0,127.0,200.0,125.0,1,1.6287145614624023,None,,,,,0,0,0,0,0,40,40,9,264.79710125923157,,,,,,,,,,,,,,,,,,,,,,,,,,,,,,,,,,,,,,,,,,,,,,,,,,,,,,,,,,,,,,,,,,,,,,,,,,,,,,,,,125.0,200.0,127.0,127.0,200.0,125.0,2.1,2.12,-260,-274,0,-282,222,260,264.78211212158203,264.7822234630585,264.7855370044708,264.79710125923157,264.9460744857788,264.9460744857788,264.9460744857788,264.9460744857788,264.9460744857788,264.9460744857788,264.9460744857788,266.43040204048157,1,1.6287145614624023,None,,,,,,,,,,,,,,,,,,238,2,2025-03-12_13h08.56.121,comp,2024.2.4,None,2025-03-12 13h09.03.720324 -0400,
41,41,0,critical,hwd,20.0,2.1,lower,133.0,57.0,57.0,133.0,78.0,78.0,3,6.377313852310181,None,,,,,0,0,0,0,0,41,41,42,266.4477481842041,,,,,,,,,,,,,,,,,,,,,,,,,,,,,,,,,,,,,,,,,,,,,,,,,,,,,,,,,,,,,,,,,,,,,,,,,,,,,,,,,133.0,57.0,57.0,133.0,78.0,78.0,2.1,2.11,-191,281,0,278,202,-287,266.43203949928284,266.43211936950684,266.4358983039856,266.4477481842041,266.59948682785034,266.59948682785034,266.59948682785034,266.59948682785034,266.59948682785034,266.59948682785034,266.59948682785034,272.837610244751,3,6.377313852310181,None,,,,,,,,,,,,,,,,,,238,2,2025-03-12_13h08.56.121,comp,2024.2.4,None,2025-03-12 13h09.03.720324 -0400,
42,42,0,filler_random,None,None,None,None,None,None,None,None,None,None,3,1.1717941761016846,None,,,,,0,0,0,0,0,42,42,168,272.8538701534271,,,,,,,,,,,,,,,,,,,,,,,,,,,,,,,,,,,,,,,,,,,,,,,,,,,,,,,,,,,,,,,,,,,,,,,,,,,,,,,,,73.70316132857175,98.14882250807548,60.910812578557156,140.4621257888559,159.80307636064754,181.7994256627311,4.0,4.1,-215,-276,0,8,257,-269,272.8393454551697,272.8394227027893,272.8426833152771,272.8538701534271,273.00504970550537,273.00504970550537,273.00504970550537,273.00504970550537,273.00504970550537,273.00504970550537,273.00504970550537,274.0332100391388,3,1.1717941761016846,None,,,,,,,,,,,,,,,,,,238,2,2025-03-12_13h08.56.121,comp,2024.2.4,None,2025-03-12 13h09.03.720324 -0400,
43,43,0,critical,dwh,35.0,1.0,upper,127.0,127.0,125.0,200.0,200.0,125.0,2,2.5113513469696045,None,,,,,0,0,0,0,0,43,43,61,274.0497512817383,,,,,,,,,,,,,,,,,,,,,,,,,,,,,,,,,,,,,,,,,,,,,,,,,,,,,,,,,,,,,,,,,,,,,,,,,,,,,,,,,127.0,127.0,125.0,200.0,200.0,125.0,1.0,1.1,-740,287,-480,273,-222,274,274.0347762107849,274.03491616249084,274.03884172439575,274.0497512817383,274.19896507263184,274.19896507263184,274.19896507263184,274.19896507263184,274.19896507263184,274.19896507263184,274.19896507263184,276.57618379592896,2,2.5113513469696045,None,,,,,,,,,,,,,,,,,,238,2,2025-03-12_13h08.56.121,comp,2024.2.4,None,2025-03-12 13h09.03.720324 -0400,
44,44,0,filler_random,None,None,None,None,None,None,None,None,None,None,3,1.2715144157409668,None,,,,,0,0,0,0,0,44,44,164,276.59432578086853,,,,,,,,,,,,,,,,,,,,,,,,,,,,,,,,,,,,,,,,,,,,,,,,,,,,,,,,,,,,,,,,,,,,,,,,,,,,,,,,,88.09770162556897,95.97508158743216,129.68162668347384,173.9571027648933,173.11078722004393,190.42124152173452,2.1,2.11,-231,264,0,281,278,-261,276.5778694152832,276.5779552459717,276.58149099349976,276.59432578086853,276.73333859443665,276.73333859443665,276.73333859443665,276.73333859443665,276.73333859443665,276.73333859443665,276.73333859443665,277.86857318878174,3,1.2715144157409668,None,,,,,,,,,,,,,,,,,,238,2,2025-03-12_13h08.56.121,comp,2024.2.4,None,2025-03-12 13h09.03.720324 -0400,
45,45,0,critical,hwd,20.0,1.0,lower,133.0,57.0,57.0,133.0,78.0,78.0,3,8.292425632476807,None,,,,,0,0,0,0,0,45,45,102,277.8850328922272,,,,,,,,,,,,,,,,,,,,,,,,,,,,,,,,,,,,,,,,,,,,,,,,,,,,,,,,,,,,,,,,,,,,,,,,,,,,,,,,,133.0,57.0,57.0,133.0,78.0,78.0,1.0,1.1,-671,275,-480,276,-278,250,277.8702976703644,277.8703787326813,277.87426376342773,277.8850328922272,278.03366208076477,278.03366208076477,278.03366208076477,278.03366208076477,278.03366208076477,278.03366208076477,278.03366208076477,286.1890780925751,3,8.292425632476807,None,,,,,,,,,,,,,,,,,,238,2,2025-03-12_13h08.56.121,comp,2024.2.4,None,2025-03-12 13h09.03.720324 -0400,
46,46,0,critical,hdw,35.0,2.1,upper,200.0,125.0,127.0,127.0,125.0,200.0,1,3.4279885292053223,None,,,,,0,0,0,0,0,46,46,21,286.20592856407166,,,,,,,,,,,,,,,,,,,,,,,,,,,,,,,,,,,,,,,,,,,,,,,,,,,,,,,,,,,,,,,,,,,,,,,,,,,,,,,,,200.0,125.0,127.0,127.0,125.0,200.0,2.1,2.12,-222,-284,0,-254,260,264,286.1905951499939,286.1906735897064,286.1948981285095,286.20592856407166,286.3531506061554,286.3531506061554,286.3531506061554,286.3531506061554,286.3531506061554,286.3531506061554,286.3531506061554,289.6393723487854,1,3.4279885292053223,None,,,,,,,,,,,,,,,,,,238,2,2025-03-12_13h08.56.121,comp,2024.2.4,None,2025-03-12 13h09.03.720324 -0400,
47,47,0,filler_square,None,None,None,None,None,None,None,None,None,None,2,0.904599666595459,None,,,,,0,0,0,0,0,47,47,178,289.65654253959656,,,,,,,,,,,,,,,,,,,,,,,,,,,,,,,,,,,,,,,,,,,,,,,,,,,,,,,,,,,,,,,,,,,,,,,,,,,,,,,,,59.73328400064268,111.91498459040281,144.2064167153748,144.2064167153748,118.16438233341783,84.01251250254435,1.0,1.1,-704,254,-480,279,-270,266,289.6414144039154,289.6414942741394,289.64567279815674,289.65654253959656,289.8073992729187,289.8073992729187,289.8073992729187,289.8073992729187,289.8073992729187,289.8073992729187,289.8073992729187,290.58180570602417,2,0.904599666595459,None,,,,,,,,,,,,,,,,,,238,2,2025-03-12_13h08.56.121,comp,2024.2.4,None,2025-03-12 13h09.03.720324 -0400,
48,48,0,critical,dhw,35.0,2.1,lower,70.0,70.0,133.0,57.0,57.0,133.0,2,1.953845500946045,None,,,,,0,0,0,0,0,48,48,0,290.59974789619446,,,,,,,,,,,,,,,,,,,,,,,,,,,,,,,,,,,,,,,,,,,,,,,,,,,,,,,,,,,,,,,,,,,,,,,,,,,,,,,,,70.0,70.0,133.0,57.0,57.0,133.0,2.1,2.12,-160,-250,0,-253,191,283,290.58340978622437,290.58348393440247,290.5872097015381,290.59974789619446,290.7381145954132,290.7381145954132,290.7381145954132,290.7381145954132,290.7381145954132,290.7381145954132,290.7381145954132,292.5714192390442,2,1.953845500946045,None,,,,,,,,,,,,,,,,,,238,2,2025-03-12_13h08.56.121,comp,2024.2.4,None,2025-03-12 13h09.03.720324 -0400,
49,49,0,critical,hdw,20.0,2.1,upper,200.0,125.0,141.0,141.0,125.0,200.0,3,2.36630916595459,None,,,,,0,0,0,0,0,49,49,47,292.58717012405396,,,,,,,,,,,,,,,,,,,,,,,,,,,,,,,,,,,,,,,,,,,,,,,,,,,,,,,,,,,,,,,,,,,,,,,,,,,,,,,,,200.0,125.0,141.0,141.0,125.0,200.0,2.1,2.11,-229,266,0,252,266,-288,292.57292771339417,292.573002576828,292.57678389549255,292.58717012405396,292.74709272384644,292.74709272384644,292.74709272384644,292.74709272384644,292.74709272384644,292.74709272384644,292.74709272384644,294.9610960483551,3,2.36630916595459,None,,,,,,,,,,,,,,,,,,238,2,2025-03-12_13h08.56.121,comp,2024.2.4,None,2025-03-12 13h09.03.720324 -0400,
50,50,0,filler_square,None,None,None,None,None,None,None,None,None,None,3,1.117417812347412,None,,,,,0,0,0,0,0,50,50,193,294.980633020401,,,,,,,,,,,,,,,,,,,,,,,,,,,,,,,,,,,,,,,,,,,,,,,,,,,,,,,,,,,,,,,,,,,,,,,,,,,,,,,,,164.12938590424397,172.7624767855627,150.39717672724427,165.70561559377637,186.19046180618264,186.19046180618264,4.0,4.1,-265,-278,0,-1,272,-287,294.96271085739136,294.9627728462219,294.9660997390747,294.980633020401,295.1234450340271,295.1234450340271,295.1234450340271,295.1234450340271,295.1234450340271,295.1234450340271,295.1234450340271,296.10550355911255,3,1.117417812347412,None,,,,,,,,,,,,,,,,,,238,2,2025-03-12_13h08.56.121,comp,2024.2.4,None,2025-03-12 13h09.03.720324 -0400,
51,51,0,filler_random,None,None,None,None,None,None,None,None,None,None,2,1.3826444149017334,None,,,,,0,0,0,0,0,51,51,133,296.1226272583008,,,,,,,,,,,,,,,,,,,,,,,,,,,,,,,,,,,,,,,,,,,,,,,,,,,,,,,,,,,,,,,,,,,,,,,,,,,,,,,,,77.30867806588321,63.45341681140596,115.82042385681662,164.61211993011375,169.5785576758983,94.71258426527896,2.1,2.12,-210,-283,0,-289,226,258,296.1070637702942,296.10712575912476,296.1108617782593,296.1226272583008,296.2726273536682,296.2726273536682,296.2726273536682,296.2726273536682,296.2726273536682,296.2726273536682,296.2726273536682,297.5197880268097,2,1.3826444149017334,None,,,,,,,,,,,,,,,,,,238,2,2025-03-12_13h08.56.121,comp,2024.2.4,None,2025-03-12 13h09.03.720324 -0400,
52,52,0,filler_square,None,None,None,None,None,None,None,None,None,None,2,2.6169188022613525,None,,,,,0,0,0,0,0,52,52,197,297.536758184433,,,,,,,,,,,,,,,,,,,,,,,,,,,,,,,,,,,,,,,,,,,,,,,,,,,,,,,,,,,,,,,,,,,,,,,,,,,,,,,,,57.060646583064226,62.19297158923031,71.23538918046118,71.23538918046118,70.42370487311427,68.62273650193566,3.0,3.2,-163,-262,0,15,166,268,297.5217432975769,297.52185463905334,297.52552127838135,297.536758184433,297.6735508441925,297.6735508441925,297.6735508441925,297.6735508441925,297.6735508441925,297.6735508441925,297.6735508441925,300.15787982940674,2,2.6169188022613525,None,,,,,,,,,,,,,,,,,,238,2,2025-03-12_13h08.56.121,comp,2024.2.4,None,2025-03-12 13h09.03.720324 -0400,
53,53,0,critical,wdh,35.0,2.1,lower,57.0,133.0,70.0,70.0,133.0,57.0,3,1.9544000625610352,None,,,,,0,0,0,0,0,53,53,32,300.17474603652954,,,,,,,,,,,,,,,,,,,,,,,,,,,,,,,,,,,,,,,,,,,,,,,,,,,,,,,,,,,,,,,,,,,,,,,,,,,,,,,,,57.0,133.0,70.0,70.0,133.0,57.0,2.1,2.11,-198,276,0,264,160,-290,300.15952706336975,300.159649848938,300.16360306739807,300.17474603652954,300.3251745700836,300.3251745700836,300.3251745700836,300.3251745700836,300.3251745700836,300.3251745700836,300.3251745700836,302.14157605171204,3,1.9544000625610352,None,,,,,,,,,,,,,,,,,,238,2,2025-03-12_13h08.56.121,comp,2024.2.4,None,2025-03-12 13h09.03.720324 -0400,
54,54,0,filler_square,None,None,None,None,None,None,None,None,None,None,1,2.4989171028137207,None,,,,,0,0,0,0,0,54,54,195,302.15811800956726,,,,,,,,,,,,,,,,,,,,,,,,,,,,,,,,,,,,,,,,,,,,,,,,,,,,,,,,,,,,,,,,,,,,,,,,,,,,,,,,,139.8441085367039,139.8441085367039,102.09804652639166,82.84173012748789,133.2263387831877,125.30145152176154,2.1,2.11,-207,289,0,274,200,-255,302.14364409446716,302.14372158050537,302.14771270751953,302.15811800956726,302.307945728302,302.307945728302,302.307945728302,302.307945728302,302.307945728302,302.307945728302,302.307945728302,304.6733822822571,1,2.4989171028137207,None,,,,,,,,,,,,,,,,,,238,2,2025-03-12_13h08.56.121,comp,2024.2.4,None,2025-03-12 13h09.03.720324 -0400,
55,55,0,filler_square,None,None,None,None,None,None,None,None,None,None,3,1.5743792057037354,None,,,,,0,0,0,0,0,55,55,206,304.6906044483185,,,,,,,,,,,,,,,,,,,,,,,,,,,,,,,,,,,,,,,,,,,,,,,,,,,,,,,,,,,,,,,,,,,,,,,,,,,,,,,,,102.8404747768965,157.4455555045368,77.0499368397947,184.93217954637686,197.1460427156034,197.1460427156034,1.0,1.2,-267,-20,0,-13,287,-17,304.6754381656647,304.6755151748657,304.67929220199585,304.6906044483185,304.8460650444031,304.8460650444031,304.8460650444031,304.8460650444031,304.8460650444031,304.8460650444031,304.8460650444031,306.27563428878784,3,1.5743792057037354,None,,,,,,,,,,,,,,,,,,238,2,2025-03-12_13h08.56.121,comp,2024.2.4,None,2025-03-12 13h09.03.720324 -0400,
56,56,0,critical,dhw,20.0,2.1,lower,78.0,78.0,133.0,57.0,57.0,133.0,1,5.279361724853516,None,,,,,0,0,0,0,0,56,56,2,306.29034781455994,,,,,,,,,,,,,,,,,,,,,,,,,,,,,,,,,,,,,,,,,,,,,,,,,,,,,,,,,,,,,,,,,,,,,,,,,,,,,,,,,78.0,78.0,133.0,57.0,57.0,133.0,2.1,2.11,-164,273,0,260,191,-272,306.2771933078766,306.2772698402405,306.2809429168701,306.29034781455994,306.44308376312256,306.44308376312256,306.44308376312256,306.44308376312256,306.44308376312256,306.44308376312256,306.44308376312256,311.5810205936432,1,5.279361724853516,None,,,,,,,,,,,,,,,,,,238,2,2025-03-12_13h08.56.121,comp,2024.2.4,None,2025-03-12 13h09.03.720324 -0400,
57,57,0,critical,hdw,35.0,3.0,upper,200.0,125.0,127.0,127.0,125.0,200.0,1,1.661339282989502,None,,,,,0,0,0,0,0,57,57,111,311.5966079235077,,,,,,,,,,,,,,,,,,,,,,,,,,,,,,,,,,,,,,,,,,,,,,,,,,,,,,,,,,,,,,,,,,,,,,,,,,,,,,,,,200.0,125.0,127.0,127.0,125.0,200.0,3.0,3.2,-222,-252,0,11,260,253,311.58262395858765,311.58270144462585,311.58603405952454,311.5966079235077,311.7444603443146,311.7444603443146,311.7444603443146,311.7444603443146,311.7444603443146,311.7444603443146,311.7444603443146,313.26542353630066,1,1.661339282989502,None,,,,,,,,,,,,,,,,,,238,2,2025-03-12_13h08.56.121,comp,2024.2.4,None,2025-03-12 13h09.03.720324 -0400,
58,58,0,critical,dhw,35.0,2.1,lower,70.0,70.0,133.0,57.0,57.0,133.0,1,4.958377361297607,None,,,,,0,0,0,0,0,58,58,24,313.28278517723083,,,,,,,,,,,,,,,,,,,,,,,,,,,,,,,,,,,,,,,,,,,,,,,,,,,,,,,,,,,,,,,,,,,,,,,,,,,,,,,,,70.0,70.0,133.0,57.0,57.0,133.0,2.1,2.11,-160,256,0,268,191,-289,313.26706528663635,313.26718854904175,313.2715241909027,313.28278517723083,313.4327857494354,313.4327857494354,313.4327857494354,313.4327857494354,313.4327857494354,313.4327857494354,313.4327857494354,318.2452907562256,1,4.958377361297607,None,,,,,,,,,,,,,,,,,,238,2,2025-03-12_13h08.56.121,comp,2024.2.4,None,2025-03-12 13h09.03.720324 -0400,
59,59,0,critical,dhw,20.0,4.0,lower,78.0,78.0,133.0,57.0,57.0,133.0,2,4.894982814788818,None,,,,,0,0,0,0,0,59,59,58,318.2667348384857,,,,,,,,,,,,,,,,,,,,,,,,,,,,,,,,,,,,,,,,,,,,,,,,,,,,,,,,,,,,,,,,,,,,,,,,,,,,,,,,,78.0,78.0,133.0,57.0,57.0,133.0,4.0,4.2,-164,0,0,-257,191,10,318.2468886375427,318.2469656467438,318.2508611679077,318.2667348384857,318.41336703300476,318.41336703300476,318.41336703300476,318.41336703300476,318.41336703300476,318.41336703300476,318.41336703300476,323.1678946018219,2,4.894982814788818,None,,,,,,,,,,,,,,,,,,238,2,2025-03-12_13h08.56.121,comp,2024.2.4,None,2025-03-12 13h09.03.720324 -0400,
60,60,0,filler_random,None,None,None,None,None,None,None,None,None,None,1,2.4726812839508057,None,,,,,0,0,0,0,0,60,60,140,323.1843845844269,,,,,,,,,,,,,,,,,,,,,,,,,,,,,,,,,,,,,,,,,,,,,,,,,,,,,,,,,,,,,,,,,,,,,,,,,,,,,,,,,143.51360823625737,168.1959528976846,160.30718732548152,142.20275739435806,96.64916192490443,133.73906901894526,3.0,3.2,-251,-254,0,-1,234,286,323.1701068878174,323.170193195343,323.1735577583313,323.1843845844269,323.3337097167969,323.3337097167969,323.3337097167969,323.3337097167969,323.3337097167969,323.3337097167969,323.3337097167969,325.6687743663788,1,2.4726812839508057,None,,,,,,,,,,,,,,,,,,238,2,2025-03-12_13h08.56.121,comp,2024.2.4,None,2025-03-12 13h09.03.720324 -0400,
61,61,0,filler_random,None,None,None,None,None,None,None,None,None,None,3,2.596637010574341,None,,,,,0,0,0,0,0,61,61,141,325.68463611602783,,,,,,,,,,,,,,,,,,,,,,,,,,,,,,,,,,,,,,,,,,,,,,,,,,,,,,,,,,,,,,,,,,,,,,,,,,,,,,,,,93.9793440881312,88.81998914872847,126.03478118264158,120.74797006838267,96.16209934047679,172.71871532929907,2.2,2.22,-201,281,0,-286,243,-254,325.6704890727997,325.6705675125122,325.6742317676544,325.68463611602783,325.83067417144775,325.83067417144775,325.83067417144775,325.83067417144775,325.83067417144775,325.83067417144775,325.83067417144775,328.2984070777893,3,2.596637010574341,None,,,,,,,,,,,,,,,,,,238,2,2025-03-12_13h08.56.121,comp,2024.2.4,None,2025-03-12 13h09.03.720324 -0400,
62,62,0,critical,hdw,20.0,1.0,lower,133.0,57.0,78.0,78.0,57.0,133.0,3,12.870747327804565,None,,,,,0,0,0,0,0,62,62,114,328.31477451324463,,,,,,,,,,,,,,,,,,,,,,,,,,,,,,,,,,,,,,,,,,,,,,,,,,,,,,,,,,,,,,,,,,,,,,,,,,,,,,,,,133.0,57.0,78.0,78.0,57.0,133.0,1.0,1.3,316,-250,480,-269,682,-266,328.2999930381775,328.3000671863556,328.3036949634552,328.31477451324463,328.46287727355957,328.46287727355957,328.46287727355957,328.46287727355957,328.46287727355957,328.46287727355957,328.46287727355957,341.1904594898224,3,12.870747327804565,None,,,,,,,,,,,,,,,,,,238,2,2025-03-12_13h08.56.121,comp,2024.2.4,None,2025-03-12 13h09.03.720324 -0400,
63,63,0,critical,hwd,35.0,1.0,upper,200.0,125.0,125.0,200.0,127.0,127.0,2,2.5701394081115723,None,,,,,0,0,0,0,0,63,63,97,341.2069044113159,,,,,,,,,,,,,,,,,,,,,,,,,,,,,,,,,,,,,,,,,,,,,,,,,,,,,,,,,,,,,,,,,,,,,,,,,,,,,,,,,200.0,125.0,125.0,200.0,127.0,127.0,1.0,1.3,222,-255,480,-290,740,-252,341.1920666694641,341.19219493865967,341.19606018066406,341.2069044113159,341.3536603450775,341.3536603450775,341.3536603450775,341.3536603450775,341.3536603450775,341.3536603450775,341.3536603450775,343.78725385665894,2,2.5701394081115723,None,,,,,,,,,,,,,,,,,,238,2,2025-03-12_13h08.56.121,comp,2024.2.4,None,2025-03-12 13h09.03.720324 -0400,
64,64,0,filler_square,None,None,None,None,None,None,None,None,None,None,1,7.901525497436523,None,,,,,0,0,0,0,0,64,64,181,343.80430006980896,,,,,,,,,,,,,,,,,,,,,,,,,,,,,,,,,,,,,,,,,,,,,,,,,,,,,,,,,,,,,,,,,,,,,,,,,,,,,,,,,124.02515986702302,124.02515986702302,58.418764210039164,108.25174460421378,89.16114706058558,111.03507074272524,1.0,1.2,-212,19,0,-10,206,-19,343.7889850139618,343.7890639305115,343.79342317581177,343.80430006980896,343.9564166069031,343.9564166069031,343.9564166069031,343.9564166069031,343.9564166069031,343.9564166069031,343.9564166069031,351.7214033603668,1,7.901525497436523,None,,,,,,,,,,,,,,,,,,238,2,2025-03-12_13h08.56.121,comp,2024.2.4,None,2025-03-12 13h09.03.720324 -0400,
65,65,0,catch,None,None,None,None,None,None,None,None,None,None,2,1.3667378425598145,None,,,,,0,0,0,0,0,65,65,120,351.7387511730194,,,,,,,,,,,,,,,,,,,,,,,,,,,,,,,,,,,,,,,,,,,,,,,,,,,,,,,,,,,,,,,,,,,,,,,,,,,,,,,,,69,121,184,141,111,79,2.1,2.12,-227,-272,0,-255,206,252,351.7240023612976,351.7240843772888,351.72763442993164,351.7387511730194,351.88852858543396,351.88852858543396,351.88852858543396,351.88852858543396,351.88852858543396,351.88852858543396,351.88852858543396,353.12393856048584,2,1.3667378425598145,None,,,,,,,,,,,,,,,,,,238,2,2025-03-12_13h08.56.121,comp,2024.2.4,None,2025-03-12 13h09.03.720324 -0400,
66,66,0,catch,None,None,None,None,None,None,None,None,None,None,3,1.7553985118865967,None,,,,,0,0,0,0,0,66,66,127,353.1417579650879,,,,,,,,,,,,,,,,,,,,,,,,,,,,,,,,,,,,,,,,,,,,,,,,,,,,,,,,,,,,,,,,,,,,,,,,,,,,,,,,,94,96,97,93,167,158,2.2,2.22,-190,259,0,-279,222,-256,353.1258935928345,353.1259710788727,353.129403591156,353.1417579650879,353.29134011268616,353.29134011268616,353.29134011268616,353.29134011268616,353.29134011268616,353.29134011268616,353.29134011268616,354.9003140926361,3,1.7553985118865967,None,,,,,,,,,,,,,,,,,,238,2,2025-03-12_13h08.56.121,comp,2024.2.4,None,2025-03-12 13h09.03.720324 -0400,
67,67,0,critical,dwh,20.0,1.0,upper,141.0,141.0,125.0,200.0,200.0,125.0,2,3.6524271965026855,None,,,,,0,0,0,0,0,67,67,67,354.91675066947937,,,,,,,,,,,,,,,,,,,,,,,,,,,,,,,,,,,,,,,,,,,,,,,,,,,,,,,,,,,,,,,,,,,,,,,,,,,,,,,,,141.0,141.0,125.0,200.0,200.0,125.0,1.0,1.3,214,-283,480,-287,738,-275,354.9019191265106,354.901997089386,354.9056558609009,354.91675066947937,355.05614733695984,355.05614733695984,355.05614733695984,355.05614733695984,355.05614733695984,355.05614733695984,355.05614733695984,358.5883946418762,2,3.6524271965026855,None,,,,,,,,,,,,,,,,,,238,2,2025-03-12_13h08.56.121,comp,2024.2.4,None,2025-03-12 13h09.03.720324 -0400,
68,68,0,critical,whd,35.0,3.0,lower,57.0,133.0,133.0,57.0,70.0,70.0,1,15.436000347137451,None,,,,,0,0,0,0,0,68,68,86,358.605007648468,,,,,,,,,,,,,,,,,,,,,,,,,,,,,,,,,,,,,,,,,,,,,,,,,,,,,,,,,,,,,,,,,,,,,,,,,,,,,,,,,57.0,133.0,133.0,57.0,70.0,70.0,3.0,3.2,-191,-252,0,12,160,251,358.5899953842163,358.5900719165802,358.59372901916504,358.605007648468,358.76085567474365,358.76085567474365,358.76085567474365,358.76085567474365,358.76085567474365,358.76085567474365,358.76085567474365,374.0509259700775,1,15.436000347137451,None,,,,,,,,,,,,,,,,,,238,2,2025-03-12_13h08.56.121,comp,2024.2.4,None,2025-03-12 13h09.03.720324 -0400,
69,69,0,filler_square,None,None,None,None,None,None,None,None,None,None,2,1.4780969619750977,None,,,,,0,0,0,0,0,69,69,187,374.06764912605286,,,,,,,,,,,,,,,,,,,,,,,,,,,,,,,,,,,,,,,,,,,,,,,,,,,,,,,,,,,,,,,,,,,,,,,,,,,,,,,,,142.13673108183224,139.04369634325508,197.9287555425921,197.9287555425921,158.2551556292389,86.64768228891016,4.0,4.2,-264,-9,0,-252,238,16,374.05293798446655,374.0530164241791,374.0567786693573,374.06764912605286,374.21302366256714,374.21302366256714,374.21302366256714,374.21302366256714,374.21302366256714,374.21302366256714,374.21302366256714,375.5483310222626,2,1.4780969619750977,None,,,,,,,,,,,,,,,,,,238,2,2025-03-12_13h08.56.121,comp,2024.2.4,None,2025-03-12 13h09.03.720324 -0400,
70,70,0,critical,hwd,35.0,3.0,upper,200.0,125.0,125.0,200.0,127.0,127.0,2,4.364555597305298,None,,,,,0,0,0,0,0,70,70,99,375.564532995224,,,,,,,,,,,,,,,,,,,,,,,,,,,,,,,,,,,,,,,,,,,,,,,,,,,,,,,,,,,,,,,,,,,,,,,,,,,,,,,,,200.0,125.0,125.0,200.0,127.0,127.0,3.0,3.1,-258,273,0,-4,260,-271,375.5500385761261,375.55014276504517,375.55377554893494,375.564532995224,375.7144863605499,375.7144863605499,375.7144863605499,375.7144863605499,375.7144863605499,375.7144863605499,375.7144863605499,379.9316518306732,2,4.364555597305298,None,,,,,,,,,,,,,,,,,,238,2,2025-03-12_13h08.56.121,comp,2024.2.4,None,2025-03-12 13h09.03.720324 -0400,
71,71,0,filler_random,None,None,None,None,None,None,None,None,None,None,1,2.964966058731079,None,,,,,0,0,0,0,0,71,71,136,379.94841837882996,,,,,,,,,,,,,,,,,,,,,,,,,,,,,,,,,,,,,,,,,,,,,,,,,,,,,,,,,,,,,,,,,,,,,,,,,,,,,,,,,169.83887656631768,158.91862802787256,189.8863936187179,127.0321039069986,199.59123055947725,83.8244512773099,1.0,1.3,241,-265,480,-274,681,-261,379.93366956710815,379.9337730407715,379.93760776519775,379.94841837882996,380.0957260131836,380.0957260131836,380.0957260131836,380.0957260131836,380.0957260131836,380.0957260131836,380.0957260131836,382.932071685791,1,2.964966058731079,None,,,,,,,,,,,,,,,,,,238,2,2025-03-12_13h08.56.121,comp,2024.2.4,None,2025-03-12 13h09.03.720324 -0400,
72,72,0,critical,dwh,35.0,1.0,lower,70.0,70.0,57.0,133.0,133.0,57.0,2,8.080721855163574,None,,,,,0,0,0,0,0,72,72,60,382.9522485733032,,,,,,,,,,,,,,,,,,,,,,,,,,,,,,,,,,,,,,,,,,,,,,,,,,,,,,,,,,,,,,,,,,,,,,,,,,,,,,,,,70.0,70.0,57.0,133.0,133.0,57.0,1.0,1.3,282,-252,480,-281,671,-288,382.933584690094,382.93366050720215,382.9373733997345,382.9522485733032,383.0997738838196,383.0997738838196,383.0997738838196,383.0997738838196,383.0997738838196,383.0997738838196,383.0997738838196,391.0510764122009,2,8.080721855163574,None,,,,,,,,,,,,,,,,,,238,2,2025-03-12_13h08.56.121,comp,2024.2.4,None,2025-03-12 13h09.03.720324 -0400,
73,73,0,filler_square,None,None,None,None,None,None,None,None,None,None,3,3.386324882507324,None,,,,,0,0,0,0,0,73,73,202,391.07063388824463,,,,,,,,,,,,,,,,,,,,,,,,,,,,,,,,,,,,,,,,,,,,,,,,,,,,,,,,,,,,,,,,,,,,,,,,,,,,,,,,,70.11640172493303,158.28056589576414,110.89908666496152,152.93176756873237,162.44729574983444,162.44729574983444,2.2,2.22,-252,258,0,-273,254,-287,391.0530376434326,391.05311584472656,391.0568916797638,391.07063388824463,391.21980023384094,391.21980023384094,391.21980023384094,391.21980023384094,391.21980023384094,391.21980023384094,391.21980023384094,394.4679288864136,3,3.386324882507324,None,,,,,,,,,,,,,,,,,,238,2,2025-03-12_13h08.56.121,comp,2024.2.4,None,2025-03-12 13h09.03.720324 -0400,
74,74,0,filler_random,None,None,None,None,None,None,None,None,None,None,3,0.946904182434082,None,,,,,0,0,0,0,0,74,74,159,394.48612880706787,,,,,,,,,,,,,,,,,,,,,,,,,,,,,,,,,,,,,,,,,,,,,,,,,,,,,,,,,,,,,,,,,,,,,,,,,,,,,,,,,84.14679213305402,176.81681182159366,123.3246350826813,89.80364852949467,151.7403433418578,194.3991382387408,4.0,4.1,-229,-277,0,17,238,-269,394.4697906970978,394.4699122905731,394.4737524986267,394.48612880706787,394.62394976615906,394.62394976615906,394.62394976615906,394.62394976615906,394.62394976615906,394.62394976615906,394.62394976615906,395.43538188934326,3,0.946904182434082,None,,,,,,,,,,,,,,,,,,238,2,2025-03-12_13h08.56.121,comp,2024.2.4,None,2025-03-12 13h09.03.720324 -0400,
75,75,0,filler_square,None,None,None,None,None,None,None,None,None,None,2,2.00325345993042,None,,,,,0,0,0,0,0,75,75,205,395.45387029647827,,,,,,,,,,,,,,,,,,,,,,,,,,,,,,,,,,,,,,,,,,,,,,,,,,,,,,,,,,,,,,,,,,,,,,,,,,,,,,,,,111.82488669186394,108.65254971854064,124.70597188213573,124.70597188213573,84.97136207470786,90.15981359328472,2.1,2.12,-213,-270,0,-263,203,263,395.4372458457947,395.4373290538788,395.4408793449402,395.45387029647827,395.60717153549194,395.60717153549194,395.60717153549194,395.60717153549194,395.60717153549194,395.60717153549194,395.60717153549194,397.4724385738373,2,2.00325345993042,None,,,,,,,,,,,,,,,,,,238,2,2025-03-12_13h08.56.121,comp,2024.2.4,None,2025-03-12 13h09.03.720324 -0400,
76,76,0,catch,None,None,None,None,None,None,None,None,None,None,1,1.112152338027954,None,,,,,0,0,0,0,0,76,76,129,397.4893720149994,,,,,,,,,,,,,,,,,,,,,,,,,,,,,,,,,,,,,,,,,,,,,,,,,,,,,,,,,,,,,,,,,,,,,,,,,,,,,,,,,183,142,84,106,84,106,1.0,1.1,-700,263,-480,275,-278,261,397.47457098960876,397.47465324401855,397.4786343574524,397.4893720149994,397.63104724884033,397.63104724884033,397.63104724884033,397.63104724884033,397.63104724884033,397.63104724884033,397.63104724884033,398.605224609375,1,1.112152338027954,None,,,,,,,,,,,,,,,,,,238,2,2025-03-12_13h08.56.121,comp,2024.2.4,None,2025-03-12 13h09.03.720324 -0400,
77,77,0,filler_random,None,None,None,None,None,None,None,None,None,None,2,2.0751919746398926,None,,,,,0,0,0,0,0,77,77,138,398.6218876838684,,,,,,,,,,,,,,,,,,,,,,,,,,,,,,,,,,,,,,,,,,,,,,,,,,,,,,,,,,,,,,,,,,,,,,,,,,,,,,,,,100.83651400131089,167.95523643258844,187.58050771498006,152.29743551495773,180.42685608603585,120.43069602045117,2.2,2.22,-256,263,0,-290,232,-262,398.6070213317871,398.60715556144714,398.6110951900482,398.6218876838684,398.76107811927795,398.76107811927795,398.76107811927795,398.76107811927795,398.76107811927795,398.76107811927795,398.76107811927795,400.7159821987152,2,2.0751919746398926,None,,,,,,,,,,,,,,,,,,238,2,2025-03-12_13h08.56.121,comp,2024.2.4,None,2025-03-12 13h09.03.720324 -0400,
78,78,0,critical,hwd,20.0,1.0,upper,200.0,125.0,125.0,200.0,141.0,141.0,2,9.73286747932434,None,,,,,0,0,0,0,0,78,78,103,400.7321226596832,,,,,,,,,,,,,,,,,,,,,,,,,,,,,,,,,,,,,,,,,,,,,,,,,,,,,,,,,,,,,,,,,,,,,,,,,,,,,,,,,200.0,125.0,125.0,200.0,141.0,141.0,1.0,1.2,-258,-20,0,-15,266,18,400.7175042629242,400.71757912635803,400.7212851047516,400.7321226596832,400.876131772995,400.876131772995,400.876131772995,400.876131772995,400.876131772995,400.876131772995,400.876131772995,410.48206853866577,2,9.73286747932434,None,,,,,,,,,,,,,,,,,,238,2,2025-03-12_13h08.56.121,comp,2024.2.4,None,2025-03-12 13h09.03.720324 -0400,
79,79,0,critical,hdw,20.0,3.0,lower,133.0,57.0,78.0,78.0,57.0,133.0,3,5.931094169616699,None,,,,,0,0,0,0,0,79,79,116,410.50252389907837,,,,,,,,,,,,,,,,,,,,,,,,,,,,,,,,,,,,,,,,,,,,,,,,,,,,,,,,,,,,,,,,,,,,,,,,,,,,,,,,,133.0,57.0,78.0,78.0,57.0,133.0,3.0,3.1,-164,251,0,4,202,-281,410.4836411476135,410.4837255477905,410.4874098300934,410.50252389907837,410.6426155567169,410.6426155567169,410.6426155567169,410.6426155567169,410.6426155567169,410.6426155567169,410.6426155567169,416.442018032074,3,5.931094169616699,None,,,,,,,,,,,,,,,,,,238,2,2025-03-12_13h08.56.121,comp,2024.2.4,None,2025-03-12 13h09.03.720324 -0400,
80,80,0,critical,dwh,20.0,4.0,lower,78.0,78.0,57.0,133.0,133.0,57.0,1,4.4381396770477295,None,,,,,0,0,0,0,0,80,80,70,416.45891189575195,,,,,,,,,,,,,,,,,,,,,,,,,,,,,,,,,,,,,,,,,,,,,,,,,,,,,,,,,,,,,,,,,,,,,,,,,,,,,,,,,78.0,78.0,57.0,133.0,133.0,57.0,4.0,4.2,-202,19,0,-274,191,-9,416.4434540271759,416.4435307979584,416.4471161365509,416.45891189575195,416.6103811264038,416.6103811264038,416.6103811264038,416.6103811264038,416.6103811264038,416.6103811264038,416.6103811264038,420.9122009277344,1,4.4381396770477295,None,,,,,,,,,,,,,,,,,,238,2,2025-03-12_13h08.56.121,comp,2024.2.4,None,2025-03-12 13h09.03.720324 -0400,
81,81,0,filler_square,None,None,None,None,None,None,None,None,None,None,3,1.416205644607544,None,,,,,0,0,0,0,0,81,81,188,420.9289638996124,,,,,,,,,,,,,,,,,,,,,,,,,,,,,,,,,,,,,,,,,,,,,,,,,,,,,,,,,,,,,,,,,,,,,,,,,,,,,,,,,63.228435558392036,119.15690102336939,85.89476994430046,103.80556556431648,124.50222001855221,124.50222001855221,1.0,1.2,-207,8,0,16,210,16,420.9142816066742,420.9143602848053,420.9183294773102,420.9289638996124,421.08028388023376,421.08028388023376,421.08028388023376,421.08028388023376,421.08028388023376,421.08028388023376,421.08028388023376,422.36596965789795,3,1.416205644607544,None,,,,,,,,,,,,,,,,,,238,2,2025-03-12_13h08.56.121,comp,2024.2.4,None,2025-03-12 13h09.03.720324 -0400,
82,82,0,critical,wdh,20.0,2.1,lower,57.0,133.0,78.0,78.0,133.0,57.0,2,12.610673904418945,None,,,,,0,0,0,0,0,82,82,34,422.3824667930603,,,,,,,,,,,,,,,,,,,,,,,,,,,,,,,,,,,,,,,,,,,,,,,,,,,,,,,,,,,,,,,,,,,,,,,,,,,,,,,,,57.0,133.0,78.0,78.0,133.0,57.0,2.1,2.12,-202,-290,0,-257,164,287,422.36752438545227,422.3676018714905,422.3711988925934,422.3824667930603,422.53042221069336,422.53042221069336,422.53042221069336,422.53042221069336,422.53042221069336,422.53042221069336,422.53042221069336,435.00572967529297,2,12.610673904418945,None,,,,,,,,,,,,,,,,,,238,2,2025-03-12_13h08.56.121,comp,2024.2.4,None,2025-03-12 13h09.03.720324 -0400,
83,83,0,filler_square,None,None,None,None,None,None,None,None,None,None,3,1.3523762226104736,None,,,,,0,0,0,0,0,83,83,175,435.0247149467468,,,,,,,,,,,,,,,,,,,,,,,,,,,,,,,,,,,,,,,,,,,,,,,,,,,,,,,,,,,,,,,,,,,,,,,,,,,,,,,,,98.1942409084215,72.63936849084027,94.81442969344161,80.78915941941638,110.4308537847897,110.4308537847897,2.2,2.22,-173,278,0,-266,192,-283,435.00779247283936,435.00789976119995,435.011745929718,435.0247149467468,435.16677069664,435.16677069664,435.16677069664,435.16677069664,435.16677069664,435.16677069664,435.16677069664,436.3866353034973,3,1.3523762226104736,None,,,,,,,,,,,,,,,,,,238,2,2025-03-12_13h08.56.121,comp,2024.2.4,None,2025-03-12 13h09.03.720324 -0400,
84,84,0,critical,wdh,20.0,2.1,upper,125.0,200.0,141.0,141.0,200.0,125.0,1,2.2226030826568604,None,,,,,0,0,0,0,0,84,84,11,436.40236830711365,,,,,,,,,,,,,,,,,,,,,,,,,,,,,,,,,,,,,,,,,,,,,,,,,,,,,,,,,,,,,,,,,,,,,,,,,,,,,,,,,125.0,200.0,141.0,141.0,200.0,125.0,2.1,2.11,-266,260,0,275,229,-252,436.3881480693817,436.3882269859314,436.3917429447174,436.40236830711365,436.55692625045776,436.55692625045776,436.55692625045776,436.55692625045776,436.55692625045776,436.55692625045776,436.55692625045776,438.6393780708313,1,2.2226030826568604,None,,,,,,,,,,,,,,,,,,238,2,2025-03-12_13h08.56.121,comp,2024.2.4,None,2025-03-12 13h09.03.720324 -0400,
85,85,0,catch,None,None,None,None,None,None,None,None,None,None,3,1.1210224628448486,None,,,,,0,0,0,0,0,85,85,125,438.65602016448975,,,,,,,,,,,,,,,,,,,,,,,,,,,,,,,,,,,,,,,,,,,,,,,,,,,,,,,,,,,,,,,,,,,,,,,,,,,,,,,,,121,69,132,58,167,158,1.0,1.1,-640,290,-480,280,-276,261,438.64127469062805,438.64135122299194,438.6446723937988,438.65602016448975,438.8032433986664,438.8032433986664,438.8032433986664,438.8032433986664,438.8032433986664,438.8032433986664,438.8032433986664,439.78811621665955,3,1.1210224628448486,None,,,,,,,,,,,,,,,,,,238,2,2025-03-12_13h08.56.121,comp,2024.2.4,None,2025-03-12 13h09.03.720324 -0400,
86,86,0,filler_random,None,None,None,None,None,None,None,None,None,None,3,1.3642101287841797,None,,,,,0,0,0,0,0,86,86,131,439.8047568798065,,,,,,,,,,,,,,,,,,,,,,,,,,,,,,,,,,,,,,,,,,,,,,,,,,,,,,,,,,,,,,,,,,,,,,,,,,,,,,,,,58.02865706432421,149.614737195432,65.35084556037846,84.97668625043973,140.63137607798944,156.19375176025574,4.0,4.1,-213,-254,0,-13,217,-278,439.78976702690125,439.78988122940063,439.79407382011414,439.8047568798065,439.95573115348816,439.95573115348816,439.95573115348816,439.95573115348816,439.95573115348816,439.95573115348816,439.95573115348816,441.18528056144714,3,1.3642101287841797,None,,,,,,,,,,,,,,,,,,238,2,2025-03-12_13h08.56.121,comp,2024.2.4,None,2025-03-12 13h09.03.720324 -0400,
87,87,0,filler_square,None,None,None,None,None,None,None,None,None,None,1,1.6784389019012451,None,,,,,0,0,0,0,0,87,87,199,441.20285391807556,,,,,,,,,,,,,,,,,,,,,,,,,,,,,,,,,,,,,,,,,,,,,,,,,,,,,,,,,,,,,,,,,,,,,,,,,,,,,,,,,98.31741406512711,98.31741406512711,71.88623792931489,68.27987535152293,58.534777121651004,76.33884681761762,4.0,4.1,-179,-253,0,5,168,-270,441.1873047351837,441.18740725517273,441.1916434764862,441.20285391807556,441.3516001701355,441.3516001701355,441.3516001701355,441.3516001701355,441.3516001701355,441.3516001701355,441.3516001701355,442.8837113380432,1,1.6784389019012451,None,,,,,,,,,,,,,,,,,,238,2,2025-03-12_13h08.56.121,comp,2024.2.4,None,2025-03-12 13h09.03.720324 -0400,
88,88,0,critical,dwh,20.0,2.1,lower,78.0,78.0,57.0,133.0,133.0,57.0,3,7.595734357833862,None,,,,,0,0,0,0,0,88,88,30,442.90159940719604,,,,,,,,,,,,,,,,,,,,,,,,,,,,,,,,,,,,,,,,,,,,,,,,,,,,,,,,,,,,,,,,,,,,,,,,,,,,,,,,,78.0,78.0,57.0,133.0,133.0,57.0,2.1,2.12,-202,-268,0,-278,191,287,442.88520860671997,442.8852834701538,442.88858366012573,442.90159940719604,443.0403742790222,443.0403742790222,443.0403742790222,443.0403742790222,443.0403742790222,443.0403742790222,443.0403742790222,450.511048078537,3,7.595734357833862,None,,,,,,,,,,,,,,,,,,238,2,2025-03-12_13h08.56.121,comp,2024.2.4,None,2025-03-12 13h09.03.720324 -0400,
89,89,0,filler_square,None,None,None,None,None,None,None,None,None,None,3,1.1962883472442627,None,,,,,0,0,0,0,0,89,89,196,450.5326933860779,,,,,,,,,,,,,,,,,,,,,,,,,,,,,,,,,,,,,,,,,,,,,,,,,,,,,,,,,,,,,,,,,,,,,,,,,,,,,,,,,150.76648060552364,132.2853125474775,133.30342555256593,66.30783662794394,189.02459387361841,189.02459387361841,2.2,2.21,-195,-267,0,262,224,271,450.5130000114441,450.5131356716156,450.5168614387512,450.5326933860779,450.6721079349518,450.6721079349518,450.6721079349518,450.6721079349518,450.6721079349518,450.6721079349518,450.6721079349518,451.7469358444214,3,1.1962883472442627,None,,,,,,,,,,,,,,,,,,238,2,2025-03-12_13h08.56.121,comp,2024.2.4,None,2025-03-12 13h09.03.720324 -0400,
90,90,0,critical,hwd,35.0,3.0,lower,133.0,57.0,57.0,133.0,70.0,70.0,2,2.051401138305664,None,,,,,0,0,0,0,0,90,90,98,451.76553750038147,,,,,,,,,,,,,,,,,,,,,,,,,,,,,,,,,,,,,,,,,,,,,,,,,,,,,,,,,,,,,,,,,,,,,,,,,,,,,,,,,133.0,57.0,57.0,133.0,70.0,70.0,3.0,3.2,-191,-278,0,3,198,264,451.7484519481659,451.7485282421112,451.75181126594543,451.76553750038147,451.9043745994568,451.9043745994568,451.9043745994568,451.9043745994568,451.9043745994568,451.9043745994568,451.9043745994568,453.83296155929565,2,2.051401138305664,None,,,,,,,,,,,,,,,,,,238,2,2025-03-12_13h08.56.121,comp,2024.2.4,None,2025-03-12 13h09.03.720324 -0400,
91,91,0,critical,hdw,35.0,1.0,upper,200.0,125.0,127.0,127.0,125.0,200.0,1,1.8317844867706299,None,,,,,0,0,0,0,0,91,91,109,453.8490993976593,,,,,,,,,,,,,,,,,,,,,,,,,,,,,,,,,,,,,,,,,,,,,,,,,,,,,,,,,,,,,,,,,,,,,,,,,,,,,,,,,200.0,125.0,127.0,127.0,125.0,200.0,1.0,1.2,-222,-19,0,3,260,-4,453.834454536438,453.83453035354614,453.8383045196533,453.8490993976593,453.98924922943115,453.98924922943115,453.98924922943115,453.98924922943115,453.98924922943115,453.98924922943115,453.98924922943115,455.69084787368774,1,1.8317844867706299,None,,,,,,,,,,,,,,,,,,238,2,2025-03-12_13h08.56.121,comp,2024.2.4,None,2025-03-12 13h09.03.720324 -0400,
92,92,0,critical,wdh,35.0,1.0,lower,57.0,133.0,70.0,70.0,133.0,57.0,1,1.205812931060791,None,,,,,0,0,0,0,0,92,92,72,455.70731019973755,,,,,,,,,,,,,,,,,,,,,,,,,,,,,,,,,,,,,,,,,,,,,,,,,,,,,,,,,,,,,,,,,,,,,,,,,,,,,,,,,57.0,133.0,70.0,70.0,133.0,57.0,1.0,1.3,282,-268,480,-282,640,-289,455.6927766799927,455.6929655075073,455.6965618133545,455.70731019973755,455.8584566116333,455.8584566116333,455.8584566116333,455.8584566116333,455.8584566116333,455.8584566116333,455.8584566116333,456.9234821796417,1,1.205812931060791,None,,,,,,,,,,,,,,,,,,238,2,2025-03-12_13h08.56.121,comp,2024.2.4,None,2025-03-12 13h09.03.720324 -0400,
93,93,0,critical,wdh,20.0,4.0,upper,125.0,200.0,141.0,141.0,200.0,125.0,1,2.0486679077148438,None,,,,,0,0,0,0,0,93,93,83,456.94457936286926,,,,,,,,,,,,,,,,,,,,,,,,,,,,,,,,,,,,,,,,,,,,,,,,,,,,,,,,,,,,,,,,,,,,,,,,,,,,,,,,,125.0,200.0,141.0,141.0,200.0,125.0,4.0,4.1,-266,-278,0,8,229,-274,456.9250543117523,456.92513132095337,456.9287734031677,456.94457936286926,457.0945315361023,457.0945315361023,457.0945315361023,457.0945315361023,457.0945315361023,457.0945315361023,457.0945315361023,458.9960639476776,1,2.0486679077148438,None,,,,,,,,,,,,,,,,,,238,2,2025-03-12_13h08.56.121,comp,2024.2.4,None,2025-03-12 13h09.03.720324 -0400,
94,94,0,filler_random,None,None,None,None,None,None,None,None,None,None,1,1.7381434440612793,None,,,,,0,0,0,0,0,94,94,162,459.01519227027893,,,,,,,,,,,,,,,,,,,,,,,,,,,,,,,,,,,,,,,,,,,,,,,,,,,,,,,,,,,,,,,,,,,,,,,,,,,,,,,,,117.71578572656924,188.8964846680881,127.78975292635579,156.01436057053567,101.67659240183922,115.13861903413368,2.2,2.21,-268,-286,0,265,232,261,458.99804186820984,458.9981269836426,459.00187730789185,459.01519227027893,459.15663385391235,459.15663385391235,459.15663385391235,459.15663385391235,459.15663385391235,459.15663385391235,459.15663385391235,460.75561594963074,1,1.7381434440612793,None,,,,,,,,,,,,,,,,,,238,2,2025-03-12_13h08.56.121,comp,2024.2.4,None,2025-03-12 13h09.03.720324 -0400,
95,95,0,critical,whd,20.0,2.1,lower,57.0,133.0,133.0,57.0,78.0,78.0,3,2.2686378955841064,None,,,,,0,0,0,0,0,95,95,38,460.7724027633667,,,,,,,,,,,,,,,,,,,,,,,,,,,,,,,,,,,,,,,,,,,,,,,,,,,,,,,,,,,,,,,,,,,,,,,,,,,,,,,,,57.0,133.0,133.0,57.0,78.0,78.0,2.1,2.12,-191,-275,0,-284,164,285,460.7571437358856,460.75722098350525,460.76070857048035,460.7724027633667,460.9109766483307,460.9109766483307,460.9109766483307,460.9109766483307,460.9109766483307,460.9109766483307,460.9109766483307,463.0430233478546,3,2.2686378955841064,None,,,,,,,,,,,,,,,,,,238,2,2025-03-12_13h08.56.121,comp,2024.2.4,None,2025-03-12 13h09.03.720324 -0400,
96,96,0,critical,hdw,35.0,4.0,lower,133.0,57.0,70.0,70.0,57.0,133.0,3,1.4669673442840576,None,,,,,0,0,0,0,0,96,96,112,463.06209111213684,,,,,,,,,,,,,,,,,,,,,,,,,,,,,,,,,,,,,,,,,,,,,,,,,,,,,,,,,,,,,,,,,,,,,,,,,,,,,,,,,133.0,57.0,70.0,70.0,57.0,133.0,4.0,4.1,-160,-259,0,-6,198,-265,463.04467368125916,463.0448031425476,463.04876923561096,463.06209111213684,463.2117614746094,463.2117614746094,463.2117614746094,463.2117614746094,463.2117614746094,463.2117614746094,463.2117614746094,464.5342004299164,3,1.4669673442840576,None,,,,,,,,,,,,,,,,,,238,2,2025-03-12_13h08.56.121,comp,2024.2.4,None,2025-03-12 13h09.03.720324 -0400,
97,97,0,filler_square,None,None,None,None,None,None,None,None,None,None,2,1.9488980770111084,None,,,,,0,0,0,0,0,97,97,201,464.5560529232025,,,,,,,,,,,,,,,,,,,,,,,,,,,,,,,,,,,,,,,,,,,,,,,,,,,,,,,,,,,,,,,,,,,,,,,,,,,,,,,,,78.69080248356212,84.73644601707383,93.30604694837703,93.30604694837703,66.380645319321,77.55806684636822,4.0,4.2,-185,18,0,-273,181,4,464.5362768173218,464.53636860847473,464.54017996788025,464.5560529232025,464.69367504119873,464.69367504119873,464.69367504119873,464.69367504119873,464.69367504119873,464.69367504119873,464.69367504119873,466.52569031715393,2,1.9488980770111084,None,,,,,,,,,,,,,,,,,,238,2,2025-03-12_13h08.56.121,comp,2024.2.4,None,2025-03-12 13h09.03.720324 -0400,
98,98,0,filler_square,None,None,None,None,None,None,None,None,None,None,3,1.0952544212341309,None,,,,,0,0,0,0,0,98,98,207,466.5462679862976,,,,,,,,,,,,,,,,,,,,,,,,,,,,,,,,,,,,,,,,,,,,,,,,,,,,,,,,,,,,,,,,,,,,,,,,,,,,,,,,,76.3243301246275,60.731589947239435,94.56530116870611,86.40297305079434,124.81096576211931,124.81096576211931,4.0,4.1,-170,-277,0,-19,202,-281,466.52745366096497,466.52753376960754,466.5310056209564,466.5462679862976,466.692054271698,466.692054271698,466.692054271698,466.692054271698,466.692054271698,466.692054271698,466.692054271698,467.6616735458374,3,1.0952544212341309,None,,,,,,,,,,,,,,,,,,238,2,2025-03-12_13h08.56.121,comp,2024.2.4,None,2025-03-12 13h09.03.720324 -0400,
99,99,0,critical,hdw,20.0,4.0,upper,200.0,125.0,141.0,141.0,125.0,200.0,3,1.802551031112671,None,,,,,0,0,0,0,0,99,99,119,467.67843770980835,,,,,,,,,,,,,,,,,,,,,,,,,,,,,,,,,,,,,,,,,,,,,,,,,,,,,,,,,,,,,,,,,,,,,,,,,,,,,,,,,200.0,125.0,141.0,141.0,125.0,200.0,4.0,4.1,-229,-280,0,5,266,-285,467.66345500946045,467.663535118103,467.66752886772156,467.67843770980835,467.8256001472473,467.8256001472473,467.8256001472473,467.8256001472473,467.8256001472473,467.8256001472473,467.8256001472473,469.4912612438202,3,1.802551031112671,None,,,,,,,,,,,,,,,,,,238,2,2025-03-12_13h08.56.121,comp,2024.2.4,None,2025-03-12 13h09.03.720324 -0400,
100,100,0,critical,dhw,20.0,1.0,lower,78.0,78.0,133.0,57.0,57.0,133.0,2,2.7491345405578613,None,,,,,0,0,0,0,0,100,100,54,469.5082051753998,,,,,,,,,,,,,,,,,,,,,,,,,,,,,,,,,,,,,,,,,,,,,,,,,,,,,,,,,,,,,,,,,,,,,,,,,,,,,,,,,78.0,78.0,133.0,57.0,57.0,133.0,1.0,1.1,-644,284,-480,265,-289,276,469.49276328086853,469.49287033081055,469.4964609146118,469.5082051753998,469.648964881897,469.648964881897,469.648964881897,469.648964881897,469.648964881897,469.648964881897,469.648964881897,472.26419281959534,2,2.7491345405578613,None,,,,,,,,,,,,,,,,,,238,2,2025-03-12_13h08.56.121,comp,2024.2.4,None,2025-03-12 13h09.03.720324 -0400,
101,101,0,critical,dhw,35.0,1.0,upper,127.0,127.0,200.0,125.0,125.0,200.0,3,4.287996292114258,None,,,,,0,0,0,0,0,101,101,49,472.2809112071991,,,,,,,,,,,,,,,,,,,,,,,,,,,,,,,,,,,,,,,,,,,,,,,,,,,,,,,,,,,,,,,,,,,,,,,,,,,,,,,,,127.0,127.0,200.0,125.0,125.0,200.0,1.0,1.3,258,-288,480,-262,738,-277,472.2657778263092,472.26590728759766,472.2696530818939,472.2809112071991,472.42796301841736,472.42796301841736,472.42796301841736,472.42796301841736,472.42796301841736,472.42796301841736,472.42796301841736,476.5785496234894,3,4.287996292114258,None,,,,,,,,,,,,,,,,,,238,2,2025-03-12_13h08.56.121,comp,2024.2.4,None,2025-03-12 13h09.03.720324 -0400,
102,102,0,critical,dhw,35.0,3.0,upper,127.0,127.0,200.0,125.0,125.0,200.0,3,1.6217238903045654,None,,,,,0,0,0,0,0,102,102,51,476.59528493881226,,,,,,,,,,,,,,,,,,,,,,,,,,,,,,,,,,,,,,,,,,,,,,,,,,,,,,,,,,,,,,,,,,,,,,,,,,,,,,,,,127.0,127.0,200.0,125.0,125.0,200.0,3.0,3.2,-222,-257,0,4,258,275,476.58024072647095,476.58036279678345,476.58426117897034,476.59528493881226,476.74545335769653,476.74545335769653,476.74545335769653,476.74545335769653,476.74545335769653,476.74545335769653,476.74545335769653,478.2297525405884,3,1.6217238903045654,None,,,,,,,,,,,,,,,,,,238,2,2025-03-12_13h08.56.121,comp,2024.2.4,None,2025-03-12 13h09.03.720324 -0400,
103,103,0,filler_square,None,None,None,None,None,None,None,None,None,None,1,1.2408537864685059,None,,,,,0,0,0,0,0,103,103,177,478.2489149570465,,,,,,,,,,,,,,,,,,,,,,,,,,,,,,,,,,,,,,,,,,,,,,,,,,,,,,,,,,,,,,,,,,,,,,,,,,,,,,,,,182.14199772072806,182.14199772072806,167.57941568046024,174.6257065184463,180.93509104988192,72.87827056419215,1.0,1.3,206,-269,480,-276,700,-265,478.23189210891724,478.23197054862976,478.2357506752014,478.2489149570465,478.3961114883423,478.3961114883423,478.3961114883423,478.3961114883423,478.3961114883423,478.3961114883423,478.3961114883423,479.4939970970154,1,1.2408537864685059,None,,,,,,,,,,,,,,,,,,238,2,2025-03-12_13h08.56.121,comp,2024.2.4,None,2025-03-12 13h09.03.720324 -0400,
104,104,0,filler_random,None,None,None,None,None,None,None,None,None,None,1,2.594949722290039,None,,,,,0,0,0,0,0,104,104,166,479.5109043121338,,,,,,,,,,,,,,,,,,,,,,,,,,,,,,,,,,,,,,,,,,,,,,,,,,,,,,,,,,,,,,,,,,,,,,,,,,,,,,,,,81.21025876387533,166.90198146314196,135.5926106348668,99.9666540623546,133.85648407605635,89.35593680841225,4.0,4.1,-229,-284,0,-13,191,-274,479.4958567619324,479.49599528312683,479.49969816207886,479.5109043121338,479.66271138191223,479.66271138191223,479.66271138191223,479.66271138191223,479.66271138191223,479.66271138191223,479.66271138191223,482.11188197135925,1,2.594949722290039,None,,,,,,,,,,,,,,,,,,238,2,2025-03-12_13h08.56.121,comp,2024.2.4,None,2025-03-12 13h09.03.720324 -0400,
105,105,0,critical,whd,35.0,4.0,lower,57.0,133.0,133.0,57.0,70.0,70.0,1,3.2574944496154785,None,,,,,0,0,0,0,0,105,105,88,482.1289188861847,,,,,,,,,,,,,,,,,,,,,,,,,,,,,,,,,,,,,,,,,,,,,,,,,,,,,,,,,,,,,,,,,,,,,,,,,,,,,,,,,57.0,133.0,133.0,57.0,70.0,70.0,4.0,4.2,-191,3,0,-256,160,2,482.1134030818939,482.1134831905365,482.11729407310486,482.1289188861847,482.2777826786041,482.2777826786041,482.2777826786041,482.2777826786041,482.2777826786041,482.2777826786041,482.2777826786041,485.39793133735657,1,3.2574944496154785,None,,,,,,,,,,,,,,,,,,238,2,2025-03-12_13h08.56.121,comp,2024.2.4,None,2025-03-12 13h09.03.720324 -0400,
106,106,0,critical,hwd,35.0,2.1,upper,200.0,125.0,125.0,200.0,127.0,127.0,2,6.1145594120025635,None,,,,,0,0,0,0,0,106,106,17,485.4147369861603,,,,,,,,,,,,,,,,,,,,,,,,,,,,,,,,,,,,,,,,,,,,,,,,,,,,,,,,,,,,,,,,,,,,,,,,,,,,,,,,,200.0,125.0,125.0,200.0,127.0,127.0,2.1,2.12,-258,-274,0,-281,260,276,485.39948320388794,485.3995668888092,485.4035470485687,485.4147369861603,485.5656580924988,485.5656580924988,485.5656580924988,485.5656580924988,485.5656580924988,485.5656580924988,485.5656580924988,491.5323750972748,2,6.1145594120025635,None,,,,,,,,,,,,,,,,,,238,2,2025-03-12_13h08.56.121,comp,2024.2.4,None,2025-03-12 13h09.03.720324 -0400,
107,107,0,catch,None,None,None,None,None,None,None,None,None,None,1,1.284442663192749,None,,,,,0,0,0,0,0,107,107,122,491.54897570610046,,,,,,,,,,,,,,,,,,,,,,,,,,,,,,,,,,,,,,,,,,,,,,,,,,,,,,,,,,,,,,,,,,,,,,,,,,,,,,,,,144,181,126,64,131,59,2.1,2.11,-218,272,0,288,158,-286,491.53434228897095,491.53442788124084,491.5378665924072,491.54897570610046,491.70065116882324,491.70065116882324,491.70065116882324,491.70065116882324,491.70065116882324,491.70065116882324,491.70065116882324,492.84991240501404,1,1.284442663192749,None,,,,,,,,,,,,,,,,,,238,2,2025-03-12_13h08.56.121,comp,2024.2.4,None,2025-03-12 13h09.03.720324 -0400,
108,108,0,critical,dhw,35.0,4.0,upper,127.0,127.0,200.0,125.0,125.0,200.0,2,2.9511516094207764,None,,,,,0,0,0,0,0,108,108,53,492.86657452583313,,,,,,,,,,,,,,,,,,,,,,,,,,,,,,,,,,,,,,,,,,,,,,,,,,,,,,,,,,,,,,,,,,,,,,,,,,,,,,,,,127.0,127.0,200.0,125.0,125.0,200.0,4.0,4.2,-222,4,0,-268,258,8,492.8516113758087,492.85168838500977,492.85592103004456,492.86657452583313,493.0181279182434,493.0181279182434,493.0181279182434,493.0181279182434,493.0181279182434,493.0181279182434,493.0181279182434,495.82605838775635,2,2.9511516094207764,None,,,,,,,,,,,,,,,,,,238,2,2025-03-12_13h08.56.121,comp,2024.2.4,None,2025-03-12 13h09.03.720324 -0400,
109,109,0,critical,hdw,20.0,4.0,lower,133.0,57.0,78.0,78.0,57.0,133.0,2,8.612759590148926,None,,,,,0,0,0,0,0,109,109,118,495.8442847728729,,,,,,,,,,,,,,,,,,,,,,,,,,,,,,,,,,,,,,,,,,,,,,,,,,,,,,,,,,,,,,,,,,,,,,,,,,,,,,,,,133.0,57.0,78.0,78.0,57.0,133.0,4.0,4.2,-164,9,0,-287,202,2,495.82758355140686,495.8276619911194,495.83101320266724,495.8442847728729,495.9844207763672,495.9844207763672,495.9844207763672,495.9844207763672,495.9844207763672,495.9844207763672,495.9844207763672,504.4702422618866,2,8.612759590148926,None,,,,,,,,,,,,,,,,,,238,2,2025-03-12_13h08.56.121,comp,2024.2.4,None,2025-03-12 13h09.03.720324 -0400,
110,110,0,filler_square,None,None,None,None,None,None,None,None,None,None,2,2.899506092071533,None,,,,,0,0,0,0,0,110,110,173,504.4859662055969,,,,,,,,,,,,,,,,,,,,,,,,,,,,,,,,,,,,,,,,,,,,,,,,,,,,,,,,,,,,,,,,,,,,,,,,,,,,,,,,,83.58122590871116,68.7230161327667,141.1338451989884,141.1338451989884,114.52768917864165,127.53065975287042,4.0,4.1,-201,-288,0,-15,230,-262,504.4720413684845,504.47211933135986,504.4757010936737,504.4859662055969,504.6378619670868,504.6378619670868,504.6378619670868,504.6378619670868,504.6378619670868,504.6378619670868,504.6378619670868,507.39223861694336,2,2.899506092071533,None,,,,,,,,,,,,,,,,,,238,2,2025-03-12_13h08.56.121,comp,2024.2.4,None,2025-03-12 13h09.03.720324 -0400,
111,111,0,filler_square,None,None,None,None,None,None,None,None,None,None,1,0.8812589645385742,None,,,,,0,0,0,0,0,111,111,184,507.40868949890137,,,,,,,,,,,,,,,,,,,,,,,,,,,,,,,,,,,,,,,,,,,,,,,,,,,,,,,,,,,,,,,,,,,,,,,,,,,,,,,,,160.8028219065481,160.8028219065481,106.73740074894636,63.53827045933809,73.9781283326621,62.80430845254213,3.0,3.2,-208,-253,0,-13,159,277,507.39416003227234,507.3942377567291,507.39785957336426,507.40868949890137,507.55549454689026,507.55549454689026,507.55549454689026,507.55549454689026,507.55549454689026,507.55549454689026,507.55549454689026,508.2968873977661,1,0.8812589645385742,None,,,,,,,,,,,,,,,,,,238,2,2025-03-12_13h08.56.121,comp,2024.2.4,None,2025-03-12 13h09.03.720324 -0400,
112,112,0,critical,hwd,35.0,2.1,upper,200.0,125.0,125.0,200.0,127.0,127.0,2,2.0697906017303467,None,,,,,0,0,0,0,0,112,112,41,508.31522011756897,,,,,,,,,,,,,,,,,,,,,,,,,,,,,,,,,,,,,,,,,,,,,,,,,,,,,,,,,,,,,,,,,,,,,,,,,,,,,,,,,200.0,125.0,125.0,200.0,127.0,127.0,2.1,2.11,-258,280,0,268,260,-284,508.29841804504395,508.29849314689636,508.30223321914673,508.31522011756897,508.45522713661194,508.45522713661194,508.45522713661194,508.45522713661194,508.45522713661194,508.45522713661194,508.45522713661194,510.3902053833008,2,2.0697906017303467,None,,,,,,,,,,,,,,,,,,238,2,2025-03-12_13h08.56.121,comp,2024.2.4,None,2025-03-12 13h09.03.720324 -0400,
113,113,0,filler_square,None,None,None,None,None,None,None,None,None,None,2,4.585094451904297,None,,,,,0,0,0,0,0,113,113,200,510.40784978866577,,,,,,,,,,,,,,,,,,,,,,,,,,,,,,,,,,,,,,,,,,,,,,,,,,,,,,,,,,,,,,,,,,,,,,,,,,,,,,,,,107.75264442314199,89.10125264867895,124.42773797548745,124.42773797548745,61.71280013107914,74.30714262339961,2.2,2.22,-203,255,0,-281,195,-269,510.39221477508545,510.39229249954224,510.39612078666687,510.40784978866577,510.5549159049988,510.5549159049988,510.5549159049988,510.5549159049988,510.5549159049988,510.5549159049988,510.5549159049988,515.0075914859772,2,4.585094451904297,None,,,,,,,,,,,,,,,,,,238,2,2025-03-12_13h08.56.121,comp,2024.2.4,None,2025-03-12 13h09.03.720324 -0400,
114,114,0,critical,hwd,20.0,2.1,upper,200.0,125.0,125.0,200.0,141.0,141.0,2,5.809279918670654,None,,,,,0,0,0,0,0,114,114,43,515.0239868164062,,,,,,,,,,,,,,,,,,,,,,,,,,,,,,,,,,,,,,,,,,,,,,,,,,,,,,,,,,,,,,,,,,,,,,,,,,,,,,,,,200.0,125.0,125.0,200.0,141.0,141.0,2.1,2.11,-258,265,0,282,266,-254,515.0092613697052,515.0093774795532,515.0134460926056,515.0239868164062,515.1731886863708,515.1731886863708,515.1731886863708,515.1731886863708,515.1731886863708,515.1731886863708,515.1731886863708,520.8417143821716,2,5.809279918670654,None,,,,,,,,,,,,,,,,,,238,2,2025-03-12_13h08.56.121,comp,2024.2.4,None,2025-03-12 13h09.03.720324 -0400,
115,115,0,critical,whd,20.0,3.0,upper,125.0,200.0,200.0,125.0,141.0,141.0,1,1.9864192008972168,None,,,,,0,0,0,0,0,115,115,93,520.8625345230103,,,,,,,,,,,,,,,,,,,,,,,,,,,,,,,,,,,,,,,,,,,,,,,,,,,,,,,,,,,,,,,,,,,,,,,,,,,,,,,,,125.0,200.0,200.0,125.0,141.0,141.0,3.0,3.1,-258,289,0,11,229,-252,520.843204498291,520.8432984352112,520.8467769622803,520.8625345230103,521.0092089176178,521.0092089176178,521.0092089176178,521.0092089176178,521.0092089176178,521.0092089176178,521.0092089176178,522.8610391616821,1,1.9864192008972168,None,,,,,,,,,,,,,,,,,,238,2,2025-03-12_13h08.56.121,comp,2024.2.4,None,2025-03-12 13h09.03.720324 -0400,
116,116,0,filler_random,None,None,None,None,None,None,None,None,None,None,3,1.385944128036499,None,,,,,0,0,0,0,0,116,116,142,522.8799514770508,,,,,,,,,,,,,,,,,,,,,,,,,,,,,,,,,,,,,,,,,,,,,,,,,,,,,,,,,,,,,,,,,,,,,,,,,,,,,,,,,113.9510272921939,151.10430374674831,78.48090448279135,90.82409930742193,137.27843897362945,153.39203084562263,2.2,2.22,-217,277,0,-265,218,-276,522.862799167633,522.8629007339478,522.8662066459656,522.8799514770508,523.0279896259308,523.0279896259308,523.0279896259308,523.0279896259308,523.0279896259308,523.0279896259308,523.0279896259308,524.27201628685,3,1.385944128036499,None,,,,,,,,,,,,,,,,,,238,2,2025-03-12_13h08.56.121,comp,2024.2.4,None,2025-03-12 13h09.03.720324 -0400,
117,117,0,filler_square,None,None,None,None,None,None,None,None,None,None,3,0.9124753475189209,None,,,,,0,0,0,0,0,117,117,180,524.2887136936188,,,,,,,,,,,,,,,,,,,,,,,,,,,,,,,,,,,,,,,,,,,,,,,,,,,,,,,,,,,,,,,,,,,,,,,,,,,,,,,,,103.82209941208556,160.7290091571372,117.32477950347268,161.07864633259896,178.66008895757767,178.66008895757767,2.2,2.21,-257,-269,0,278,266,277,524.2736854553223,524.2737619876862,524.2769963741302,524.2887136936188,524.4291427135468,524.4291427135468,524.4291427135468,524.4291427135468,524.4291427135468,524.4291427135468,524.4291427135468,525.2150061130524,3,0.9124753475189209,None,,,,,,,,,,,,,,,,,,238,2,2025-03-12_13h08.56.121,comp,2024.2.4,None,2025-03-12 13h09.03.720324 -0400,
118,118,0,critical,hdw,20.0,2.1,upper,200.0,125.0,141.0,141.0,125.0,200.0,3,1.5217409133911133,None,,,,,0,0,0,0,0,118,118,23,525.2311134338379,,,,,,,,,,,,,,,,,,,,,,,,,,,,,,,,,,,,,,,,,,,,,,,,,,,,,,,,,,,,,,,,,,,,,,,,,,,,,,,,,200.0,125.0,141.0,141.0,125.0,200.0,2.1,2.11,-229,271,0,273,266,-257,525.2165603637695,525.2166357040405,525.2207033634186,525.2311134338379,525.3773665428162,525.3773665428162,525.3773665428162,525.3773665428162,525.3773665428162,525.3773665428162,525.3773665428162,526.7631299495697,3,1.5217409133911133,None,,,,,,,,,,,,,,,,,,238,2,2025-03-12_13h08.56.121,comp,2024.2.4,None,2025-03-12 13h09.03.720324 -0400,
119,119,0,critical,dhw,20.0,2.1,upper,141.0,141.0,200.0,125.0,125.0,200.0,2,2.1567599773406982,None,,,,,0,0,0,0,0,119,119,27,526.7801623344421,,,,,,,,,,,,,,,,,,,,,,,,,,,,,,,,,,,,,,,,,,,,,,,,,,,,,,,,,,,,,,,,,,,,,,,,,,,,,,,,,141.0,141.0,200.0,125.0,125.0,200.0,2.1,2.12,-229,-281,0,-282,258,284,526.764809846878,526.7649133205414,526.7691628932953,526.7801623344421,526.9281575679779,526.9281575679779,526.9281575679779,526.9281575679779,526.9281575679779,526.9281575679779,526.9281575679779,528.9476416110992,2,2.1567599773406982,None,,,,,,,,,,,,,,,,,,238,2,2025-03-12_13h08.56.121,comp,2024.2.4,None,2025-03-12 13h09.03.720324 -0400,
120,120,0,filler_random,None,None,None,None,None,None,None,None,None,None,2,2.0760703086853027,None,,,,,0,0,0,0,0,120,120,152,528.9647855758667,,,,,,,,,,,,,,,,,,,,,,,,,,,,,,,,,,,,,,,,,,,,,,,,,,,,,,,,,,,,,,,,,,,,,,,,,,,,,,,,,63.39868661986926,108.47335344232255,144.4356558448119,92.07619516993736,108.72568936860328,100.44892118909502,3.0,3.2,-196,-255,0,-4,192,262,528.9495897293091,528.9496719837189,528.9536700248718,528.9647855758667,529.1111650466919,529.1111650466919,529.1111650466919,529.1111650466919,529.1111650466919,529.1111650466919,529.1111650466919,531.0550243854523,2,2.0760703086853027,None,,,,,,,,,,,,,,,,,,238,2,2025-03-12_13h08.56.121,comp,2024.2.4,None,2025-03-12 13h09.03.720324 -0400,
121,121,0,critical,whd,20.0,2.1,upper,125.0,200.0,200.0,125.0,141.0,141.0,2,2.0691864490509033,None,,,,,0,0,0,0,0,121,121,15,531.0757074356079,,,,,,,,,,,,,,,,,,,,,,,,,,,,,,,,,,,,,,,,,,,,,,,,,,,,,,,,,,,,,,,,,,,,,,,,,,,,,,,,,125.0,200.0,200.0,125.0,141.0,141.0,2.1,2.12,-258,-261,0,-277,229,261,531.056529045105,531.0566067695618,531.0599503517151,531.0757074356079,531.2128973007202,531.2128973007202,531.2128973007202,531.2128973007202,531.2128973007202,531.2128973007202,531.2128973007202,533.1667184829712,2,2.0691864490509033,None,,,,,,,,,,,,,,,,,,238,2,2025-03-12_13h08.56.121,comp,2024.2.4,None,2025-03-12 13h09.03.720324 -0400,
122,122,0,critical,wdh,35.0,3.0,lower,57.0,133.0,70.0,70.0,133.0,57.0,1,4.645784854888916,None,,,,,0,0,0,0,0,122,122,74,533.1872441768646,,,,,,,,,,,,,,,,,,,,,,,,,,,,,,,,,,,,,,,,,,,,,,,,,,,,,,,,,,,,,,,,,,,,,,,,,,,,,,,,,57.0,133.0,70.0,70.0,133.0,57.0,3.0,3.2,-198,-256,0,2,160,264,533.1683492660522,533.1684510707855,533.1719450950623,533.1872441768646,533.3300068378448,533.3300068378448,533.3300068378448,533.3300068378448,533.3300068378448,533.3300068378448,533.3300068378448,537.8377339839935,1,4.645784854888916,None,,,,,,,,,,,,,,,,,,238,2,2025-03-12_13h08.56.121,comp,2024.2.4,None,2025-03-12 13h09.03.720324 -0400,
123,123,0,critical,whd,35.0,1.0,lower,57.0,133.0,133.0,57.0,70.0,70.0,1,2.5899598598480225,None,,,,,0,0,0,0,0,123,123,84,537.8589820861816,,,,,,,,,,,,,,,,,,,,,,,,,,,,,,,,,,,,,,,,,,,,,,,,,,,,,,,,,,,,,,,,,,,,,,,,,,,,,,,,,57.0,133.0,133.0,57.0,70.0,70.0,1.0,1.3,289,-264,480,-285,640,-250,537.8393704891205,537.8394458293915,537.8431224822998,537.8589820861816,537.9987037181854,537.9987037181854,537.9987037181854,537.9987037181854,537.9987037181854,537.9987037181854,537.9987037181854,540.4605183601379,1,2.5899598598480225,None,,,,,,,,,,,,,,,,,,238,2,2025-03-12_13h08.56.121,comp,2024.2.4,None,2025-03-12 13h09.03.720324 -0400,
124,124,0,critical,hdw,35.0,3.0,lower,133.0,57.0,70.0,70.0,57.0,133.0,3,2.0510611534118652,None,,,,,0,0,0,0,0,124,124,110,540.478750705719,,,,,,,,,,,,,,,,,,,,,,,,,,,,,,,,,,,,,,,,,,,,,,,,,,,,,,,,,,,,,,,,,,,,,,,,,,,,,,,,,133.0,57.0,70.0,70.0,57.0,133.0,3.0,3.2,-160,-275,0,-2,198,263,540.4621181488037,540.4622001647949,540.4655473232269,540.478750705719,540.6285090446472,540.6285090446472,540.6285090446472,540.6285090446472,540.6285090446472,540.6285090446472,540.6285090446472,542.537136554718,3,2.0510611534118652,None,,,,,,,,,,,,,,,,,,238,2,2025-03-12_13h08.56.121,comp,2024.2.4,None,2025-03-12 13h09.03.720324 -0400,
125,125,0,critical,dwh,35.0,2.1,lower,70.0,70.0,57.0,133.0,133.0,57.0,2,2.2067344188690186,None,,,,,0,0,0,0,0,125,125,4,542.5541458129883,,,,,,,,,,,,,,,,,,,,,,,,,,,,,,,,,,,,,,,,,,,,,,,,,,,,,,,,,,,,,,,,,,,,,,,,,,,,,,,,,70.0,70.0,57.0,133.0,133.0,57.0,2.1,2.11,-198,278,0,263,191,-275,542.5386552810669,542.5387341976166,542.5425219535828,542.5541458129883,542.6990201473236,542.6990201473236,542.6990201473236,542.6990201473236,542.6990201473236,542.6990201473236,542.6990201473236,544.7738876342773,2,2.2067344188690186,None,,,,,,,,,,,,,,,,,,238,2,2025-03-12_13h08.56.121,comp,2024.2.4,None,2025-03-12 13h09.03.720324 -0400,
126,126,0,filler_square,None,None,None,None,None,None,None,None,None,None,3,1.3208191394805908,None,,,,,0,0,0,0,0,126,126,179,544.7921149730682,,,,,,,,,,,,,,,,,,,,,,,,,,,,,,,,,,,,,,,,,,,,,,,,,,,,,,,,,,,,,,,,,,,,,,,,,,,,,,,,,62.97376774160739,150.73959318922277,81.05541744958276,142.55175121599336,185.03096333412307,185.03096333412307,4.0,4.2,-243,7,0,-263,260,-15,544.7756402492523,544.775719165802,544.7789809703827,544.7921149730682,544.9359736442566,544.9359736442566,544.9359736442566,544.9359736442566,544.9359736442566,544.9359736442566,544.9359736442566,546.1249759197235,3,1.3208191394805908,None,,,,,,,,,,,,,,,,,,238,2,2025-03-12_13h08.56.121,comp,2024.2.4,None,2025-03-12 13h09.03.720324 -0400,
127,127,0,filler_random,None,None,None,None,None,None,None,None,None,None,1,1.4676365852355957,None,,,,,0,0,0,0,0,127,127,157,546.141172170639,,,,,,,,,,,,,,,,,,,,,,,,,,,,,,,,,,,,,,,,,,,,,,,,,,,,,,,,,,,,,,,,,,,,,,,,,,,,,,,,,161.82326076847642,124.0171461829018,97.45967225349261,141.15655227317922,83.20275652726852,172.3455903913275,2.2,2.22,-229,260,0,-262,253,-255,546.1267936229706,546.1269295215607,546.1306397914886,546.141172170639,546.2850065231323,546.2850065231323,546.2850065231323,546.2850065231323,546.2850065231323,546.2850065231323,546.2850065231323,547.6203665733337,1,1.4676365852355957,None,,,,,,,,,,,,,,,,,,238,2,2025-03-12_13h08.56.121,comp,2024.2.4,None,2025-03-12 13h09.03.720324 -0400,
128,128,0,critical,dhw,35.0,3.0,lower,70.0,70.0,133.0,57.0,57.0,133.0,3,5.339853763580322,None,,,,,0,0,0,0,0,128,128,50,547.6372308731079,,,,,,,,,,,,,,,,,,,,,,,,,,,,,,,,,,,,,,,,,,,,,,,,,,,,,,,,,,,,,,,,,,,,,,,,,,,,,,,,,70.0,70.0,133.0,57.0,57.0,133.0,3.0,3.1,-160,289,0,-16,191,-277,547.6221921443939,547.6223292350769,547.6262958049774,547.6372308731079,547.7880854606628,547.7880854606628,547.7880854606628,547.7880854606628,547.7880854606628,547.7880854606628,547.7880854606628,552.9878811836243,3,5.339853763580322,None,,,,,,,,,,,,,,,,,,238,2,2025-03-12_13h08.56.121,comp,2024.2.4,None,2025-03-12 13h09.03.720324 -0400,
129,129,0,critical,dwh,20.0,3.0,upper,141.0,141.0,125.0,200.0,200.0,125.0,2,4.900163888931274,None,,,,,0,0,0,0,0,129,129,69,553.0047934055328,,,,,,,,,,,,,,,,,,,,,,,,,,,,,,,,,,,,,,,,,,,,,,,,,,,,,,,,,,,,,,,,,,,,,,,,,,,,,,,,,141.0,141.0,125.0,200.0,200.0,125.0,3.0,3.2,-266,-272,0,5,258,278,552.9895582199097,552.989639043808,552.9938831329346,553.0047934055328,553.1563081741333,553.1563081741333,553.1563081741333,553.1563081741333,553.1563081741333,553.1563081741333,553.1563081741333,557.9110634326935,2,4.900163888931274,None,,,,,,,,,,,,,,,,,,238,2,2025-03-12_13h08.56.121,comp,2024.2.4,None,2025-03-12 13h09.03.720324 -0400,
130,130,0,filler_random,None,None,None,None,None,None,None,None,None,None,1,1.1490082740783691,None,,,,,0,0,0,0,0,130,130,154,557.9319093227386,,,,,,,,,,,,,,,,,,,,,,,,,,,,,,,,,,,,,,,,,,,,,,,,,,,,,,,,,,,,,,,,,,,,,,,,,,,,,,,,,170.12886387598195,153.69391564578066,130.73791416052137,112.30702241482973,124.05236610126359,124.48580847754617,4.0,4.2,-229,2,0,-273,214,20,557.9127502441406,557.9128482341766,557.9160981178284,557.9319093227386,558.0714094638824,558.0714094638824,558.0714094638824,558.0714094638824,558.0714094638824,558.0714094638824,558.0714094638824,559.0957789421082,1,1.1490082740783691,None,,,,,,,,,,,,,,,,,,238,2,2025-03-12_13h08.56.121,comp,2024.2.4,None,2025-03-12 13h09.03.720324 -0400,
131,131,0,filler_random,None,None,None,None,None,None,None,None,None,None,2,1.2530953884124756,None,,,,,0,0,0,0,0,131,131,137,559.1164464950562,,,,,,,,,,,,,,,,,,,,,,,,,,,,,,,,,,,,,,,,,,,,,,,,,,,,,,,,,,,,,,,,,,,,,,,,,,,,,,,,,111.70772239365112,59.71874893430863,137.14870845476054,151.17883022310673,194.47694506855368,77.2766802510056,2.2,2.22,-201,260,0,-283,210,-272,559.0975275039673,559.0976033210754,559.1008915901184,559.1164464950562,559.2549059391022,559.2549059391022,559.2549059391022,559.2549059391022,559.2549059391022,559.2549059391022,559.2549059391022,560.3870482444763,2,1.2530953884124756,None,,,,,,,,,,,,,,,,,,238,2,2025-03-12_13h08.56.121,comp,2024.2.4,None,2025-03-12 13h09.03.720324 -0400,
132,132,0,critical,whd,35.0,2.1,upper,125.0,200.0,200.0,125.0,127.0,127.0,1,5.679347991943359,None,,,,,0,0,0,0,0,132,132,37,560.4040811061859,,,,,,,,,,,,,,,,,,,,,,,,,,,,,,,,,,,,,,,,,,,,,,,,,,,,,,,,,,,,,,,,,,,,,,,,,,,,,,,,,125.0,200.0,200.0,125.0,127.0,127.0,2.1,2.12,-258,-276,0,-272,222,256,560.3885612487793,560.3886363506317,560.3922650814056,560.4040811061859,560.5553946495056,560.5553946495056,560.5553946495056,560.5553946495056,560.5553946495056,560.5553946495056,560.5553946495056,566.0948672294617,1,5.679347991943359,None,,,,,,,,,,,,,,,,,,238,2,2025-03-12_13h08.56.121,comp,2024.2.4,None,2025-03-12 13h09.03.720324 -0400,
133,133,0,critical,whd,20.0,4.0,lower,57.0,133.0,133.0,57.0,78.0,78.0,3,2.3940000534057617,None,,,,,0,0,0,0,0,133,133,94,566.1109008789062,,,,,,,,,,,,,,,,,,,,,,,,,,,,,,,,,,,,,,,,,,,,,,,,,,,,,,,,,,,,,,,,,,,,,,,,,,,,,,,,,57.0,133.0,133.0,57.0,78.0,78.0,4.0,4.1,-191,-279,0,-2,164,-280,566.0963644981384,566.096442937851,566.1000196933746,566.1109008789062,566.2586538791656,566.2586538791656,566.2586538791656,566.2586538791656,566.2586538791656,566.2586538791656,566.2586538791656,568.525946855545,3,2.3940000534057617,None,,,,,,,,,,,,,,,,,,238,2,2025-03-12_13h08.56.121,comp,2024.2.4,None,2025-03-12 13h09.03.720324 -0400,
134,134,0,filler_square,None,None,None,None,None,None,None,None,None,None,1,1.1706783771514893,None,,,,,0,0,0,0,0,134,134,209,568.542237997055,,,,,,,,,,,,,,,,,,,,,,,,,,,,,,,,,,,,,,,,,,,,,,,,,,,,,,,,,,,,,,,,,,,,,,,,,,,,,,,,,136.75188766702223,136.75188766702223,59.881746514522966,72.87589798522349,104.47137689261025,61.787843173555615,2.1,2.11,-201,266,0,258,163,-277,568.5278058052063,568.5279378890991,568.5317404270172,568.542237997055,568.6914925575256,568.6914925575256,568.6914925575256,568.6914925575256,568.6914925575256,568.6914925575256,568.6914925575256,569.7353549003601,1,1.1706783771514893,None,,,,,,,,,,,,,,,,,,238,2,2025-03-12_13h08.56.121,comp,2024.2.4,None,2025-03-12 13h09.03.720324 -0400,
135,135,0,critical,hdw,20.0,2.1,lower,133.0,57.0,78.0,78.0,57.0,133.0,2,6.591277122497559,None,,,,,0,0,0,0,0,135,135,22,569.7542822360992,,,,,,,,,,,,,,,,,,,,,,,,,,,,,,,,,,,,,,,,,,,,,,,,,,,,,,,,,,,,,,,,,,,,,,,,,,,,,,,,,133.0,57.0,78.0,78.0,57.0,133.0,2.1,2.12,-164,-273,0,-283,202,272,569.736875295639,569.7369549274445,569.7402896881104,569.7542822360992,569.8937063217163,569.8937063217163,569.8937063217163,569.8937063217163,569.8937063217163,569.8937063217163,569.8937063217163,576.3477702140808,2,6.591277122497559,None,,,,,,,,,,,,,,,,,,238,2,2025-03-12_13h08.56.121,comp,2024.2.4,None,2025-03-12 13h09.03.720324 -0400,
136,136,0,filler_random,None,None,None,None,None,None,None,None,None,None,1,1.5884432792663574,None,,,,,0,0,0,0,0,136,136,139,576.3650498390198,,,,,,,,,,,,,,,,,,,,,,,,,,,,,,,,,,,,,,,,,,,,,,,,,,,,,,,,,,,,,,,,,,,,,,,,,,,,,,,,,163.72715889490547,183.92826975863343,98.51717447135968,165.2227454840799,187.185785068362,98.69317062463169,1.0,1.2,-271,-16,0,-8,228,11,576.3495616912842,576.3496935367584,576.3539807796478,576.3650498390198,576.5104713439941,576.5104713439941,576.5104713439941,576.5104713439941,576.5104713439941,576.5104713439941,576.5104713439941,577.9621686935425,1,1.5884432792663574,None,,,,,,,,,,,,,,,,,,238,2,2025-03-12_13h08.56.121,comp,2024.2.4,None,2025-03-12 13h09.03.720324 -0400,
137,137,0,critical,dhw,20.0,3.0,lower,78.0,78.0,133.0,57.0,57.0,133.0,1,6.186062574386597,None,,,,,0,0,0,0,0,137,137,56,577.9828350543976,,,,,,,,,,,,,,,,,,,,,,,,,,,,,,,,,,,,,,,,,,,,,,,,,,,,,,,,,,,,,,,,,,,,,,,,,,,,,,,,,78.0,78.0,133.0,57.0,57.0,133.0,3.0,3.2,-164,-270,0,-3,191,265,577.9637115001678,577.9637899398804,577.9671308994293,577.9828350543976,578.1272449493408,578.1272449493408,578.1272449493408,578.1272449493408,578.1272449493408,578.1272449493408,578.1272449493408,584.1795151233673,1,6.186062574386597,None,,,,,,,,,,,,,,,,,,238,2,2025-03-12_13h08.56.121,comp,2024.2.4,None,2025-03-12 13h09.03.720324 -0400,
138,138,0,critical,dhw,20.0,2.1,upper,141.0,141.0,200.0,125.0,125.0,200.0,2,5.028954744338989,None,,,,,0,0,0,0,0,138,138,3,584.1958458423615,,,,,,,,,,,,,,,,,,,,,,,,,,,,,,,,,,,,,,,,,,,,,,,,,,,,,,,,,,,,,,,,,,,,,,,,,,,,,,,,,141.0,141.0,200.0,125.0,125.0,200.0,2.1,2.12,-229,-288,0,-273,258,281,584.1810891628265,584.1811673641205,584.1849849224091,584.1958458423615,584.3451771736145,584.3451771736145,584.3451771736145,584.3451771736145,584.3451771736145,584.3451771736145,584.3451771736145,589.2392699718475,2,5.028954744338989,None,,,,,,,,,,,,,,,,,,238,2,2025-03-12_13h08.56.121,comp,2024.2.4,None,2025-03-12 13h09.03.720324 -0400,
139,139,0,filler_square,None,None,None,None,None,None,None,None,None,None,1,2.97572660446167,None,,,,,0,0,0,0,0,139,139,186,589.257716178894,,,,,,,,,,,,,,,,,,,,,,,,,,,,,,,,,,,,,,,,,,,,,,,,,,,,,,,,,,,,,,,,,,,,,,,,,,,,,,,,,84.60632260635327,84.60632260635327,65.4130816328151,58.21440493601853,65.00175897814265,81.74825193893162,3.0,3.1,-167,275,0,20,166,-261,589.2410643100739,589.2411427497864,589.2443962097168,589.257716178894,589.3972330093384,589.3972330093384,589.3972330093384,589.3972330093384,589.3972330093384,589.3972330093384,589.3972330093384,592.2392089366913,1,2.97572660446167,None,,,,,,,,,,,,,,,,,,238,2,2025-03-12_13h08.56.121,comp,2024.2.4,None,2025-03-12 13h09.03.720324 -0400,
140,140,0,filler_random,None,None,None,None,None,None,None,None,None,None,2,1.1601066589355469,None,,,,,0,0,0,0,0,140,140,156,592.2567355632782,,,,,,,,,,,,,,,,,,,,,,,,,,,,,,,,,,,,,,,,,,,,,,,,,,,,,,,,,,,,,,,,,,,,,,,,,,,,,,,,,181.51936089978892,103.00550377979968,186.882307503179,155.9714224577424,189.20590987323916,64.45172575393326,3.0,3.2,-225,-257,0,-4,206,277,592.2411036491394,592.2411921024323,592.2450037002563,592.2567355632782,592.3979163169861,592.3979163169861,592.3979163169861,592.3979163169861,592.3979163169861,592.3979163169861,592.3979163169861,593.4350247383118,2,1.1601066589355469,None,,,,,,,,,,,,,,,,,,238,2,2025-03-12_13h08.56.121,comp,2024.2.4,None,2025-03-12 13h09.03.720324 -0400,
141,141,0,critical,hdw,20.0,2.1,lower,133.0,57.0,78.0,78.0,57.0,133.0,3,1.965059518814087,None,,,,,0,0,0,0,0,141,141,46,593.4519362449646,,,,,,,,,,,,,,,,,,,,,,,,,,,,,,,,,,,,,,,,,,,,,,,,,,,,,,,,,,,,,,,,,,,,,,,,,,,,,,,,,133.0,57.0,78.0,78.0,57.0,133.0,2.1,2.11,-164,281,0,263,202,-280,593.4367029666901,593.4367799758911,593.4411549568176,593.4519362449646,593.5994267463684,593.5994267463684,593.5994267463684,593.5994267463684,593.5994267463684,593.5994267463684,593.5994267463684,595.434061050415,3,1.965059518814087,None,,,,,,,,,,,,,,,,,,238,2,2025-03-12_13h08.56.121,comp,2024.2.4,None,2025-03-12 13h09.03.720324 -0400,
142,142,0,catch,None,None,None,None,None,None,None,None,None,None,1,1.0705621242523193,None,,,,,0,0,0,0,0,142,142,123,595.4503376483917,,,,,,,,,,,,,,,,,,,,,,,,,,,,,,,,,,,,,,,,,,,,,,,,,,,,,,,,,,,,,,,,,,,,,,,,,,,,,,,,,129,196,82,108,99,91,2.2,2.22,-248,285,0,-286,196,-260,595.4362051486969,595.4362871646881,595.4399964809418,595.4503376483917,595.5975465774536,595.5975465774536,595.5975465774536,595.5975465774536,595.5975465774536,595.5975465774536,595.5975465774536,596.5227901935577,1,1.0705621242523193,None,,,,,,,,,,,,,,,,,,238,2,2025-03-12_13h08.56.121,comp,2024.2.4,None,2025-03-12 13h09.03.720324 -0400,
143,143,0,filler_random,None,None,None,None,None,None,None,None,None,None,2,0.8660247325897217,None,,,,,0,0,0,0,0,143,143,158,596.5435991287231,,,,,,,,,,,,,,,,,,,,,,,,,,,,,,,,,,,,,,,,,,,,,,,,,,,,,,,,,,,,,,,,,,,,,,,,,,,,,,,,,85.09789908039755,79.7621121068974,194.62942079384223,181.186414380166,118.51053674707595,88.88141840971713,2.2,2.21,-226,-272,0,286,231,276,596.5244886875153,596.5245661735535,596.5279343128204,596.5435991287231,596.6834282875061,596.6834282875061,596.6834282875061,596.6834282875061,596.6834282875061,596.6834282875061,596.6834282875061,597.4164831638336,2,0.8660247325897217,None,,,,,,,,,,,,,,,,,,238,2,2025-03-12_13h08.56.121,comp,2024.2.4,None,2025-03-12 13h09.03.720324 -0400,
