thisN,thisTrialN,thisRepN,effect,order,distance,config,diag,h_1,w_1,h_2,w_2,h_3,w_3,rect_choice.keys,rect_choice.rt,rect_choice.duration,instructions_loop.thisRepN,instructions_loop.thisTrialN,instructions_loop.thisN,instructions_loop.thisIndex,blocks.thisRepN,blocks.thisTrialN,blocks.thisN,blocks.thisIndex,trials.thisRepN,trials.thisTrialN,trials.thisN,trials.thisIndex,thisRow.t,notes,consent.started,agree_button.started,decline_button.started,consent_img.started,mouse.started,consent.stopped,agree_button.numClicks,agree_button.timesOn,agree_button.timesOff,decline_button.numClicks,decline_button.timesOn,decline_button.timesOff,mouse.x,mouse.y,mouse.leftButton,mouse.midButton,mouse.rightButton,mouse.time,mouse.clicked_name,exp_params.started,exp_params.stopped,welcome.started,welcome_text.started,welcome.stopped,instructions_1.started,instructions_1_text_1.started,instructions_1_text_2.started,key_resp.started,instructions_1.stopped,instructions_loop.key_resp.keys,instructions_loop.key_resp.rt,instructions_loop.key_resp.duration,instructions_2.started,instructions_2_text_1.started,instructions_2_text_2.started,key_resp_2.started,instructions_2.stopped,instructions_loop.key_resp_2.keys,instructions_loop.key_resp_2.rt,instructions_loop.key_resp_2.duration,instructions_3.started,instructions_3_text_1.started,r1_instr3.started,r2_instr3.started,r3_instr3.started,r1_instr3_label.started,r2_instr3_label.started,r3_instr3_label.started,instructions_3_text_3.started,instructions_3_text_4.started,key_resp_3.started,instructions_3.stopped,instructions_loop.key_resp_3.keys,instructions_loop.key_resp_3.rt,instructions_loop.key_resp_3.duration,instructions_4.started,instructions_4_text_1.started,instructions_4_text_3.started,instructions_4_text_2.started,key_resp_4.started,instructions_4.stopped,instructions_loop.key_resp_4.keys,instructions_loop.key_resp_4.rt,instructions_loop.key_resp_4.duration,instructions_5.started,instructions_5_text_1.started,instructions_5_text_2.started,key_resp_5.started,instructions_5.stopped,instructions_loop.key_resp_5.keys,instructions_loop.key_resp_5.rt,instructions_loop.key_resp_5.duration,start_exp.started,start_exp_text.started,key_resp_6.started,start_exp.stopped,key_resp_6.keys,key_resp_6.rt,key_resp_6.duration,h_1_tmp,w_1_tmp,h_2_tmp,w_2_tmp,h_3_tmp,w_3_tmp,config_tmp,config_tmp_1,r_1_x,r_1_y,r_2_x,r_2_y,r_3_x,r_3_y,pre_trial.started,pre_trial.stopped,choice_trial.started,rect_choice.started,r_1.started,r_2.started,r_3.started,r_1_label.started,r_2_label.started,r_3_label.started,prompt.started,choice_trial.stopped,trials.rect_choice.keys,trials.rect_choice.rt,trials.rect_choice.duration,end_block.started,end_block_text.started,end_block.stopped,end.started,end_text.started,key_resp_7.started,end.stopped,key_resp_7.keys,key_resp_7.rt,key_resp_7.duration,debriefing.started,debrief_form.started,end_debrief.started,debriefing.stopped,end_debrief.keys,end_debrief.rt,end_debrief.duration,participant,computer,date,expName,psychopyVersion,frameRate,expStart,
,,,,,,,,,,,,,,,,,,,,,,,,,,,,,,,0.014930248260498047,0.03446173667907715,0.03446173667907715,0.03446173667907715,0.014688730239868164,19.298596382141113,1,[19.261361837387085],[19.26138424873352],0,,,[-90.0],[-518.0],[1],[0],[0],[19.283152103424072],['agree_button'],,,,,,,,,,,,,,,,,,,,,,,,,,,,,,,,,,,,,,,,,,,,,,,,,,,,,,,,,,,,,,,,,,,,,,,,,,,,,,,,,,,,,,,,,,,,,,,,,,,,,,,,,,,239,1,2025-03-13_09h28.45.482,comp,2024.2.4,56.33484703793394,2025-03-13 09h28.55.355551 -0400,
,,,,,,,,,,,,,,,,,,,,,,,,,,,,,,,,,,,,,,,,,,,,,,,,,,19.29913592338562,19.29922342300415,,,,,,,,,,,,,,,,,,,,,,,,,,,,,,,,,,,,,,,,,,,,,,,,,,,,,,,,,,,,,,,,,,,,,,,,,,,,,,,,,,,,,,,,,,,,,,,,,,,,,,,,,239,1,2025-03-13_09h28.45.482,comp,2024.2.4,56.33484703793394,2025-03-13 09h28.55.355551 -0400,
,,,,,,,,,,,,,,,,,,,,,,,,,,,,,,,,,,,,,,,,,,,,,,,,,,,,19.299268007278442,19.31744933128357,21.310786724090576,,,,,,,,,,,,,,,,,,,,,,,,,,,,,,,,,,,,,,,,,,,,,,,,,,,,,,,,,,,,,,,,,,,,,,,,,,,,,,,,,,,,,,,,,,,,,,,,,,,,,,239,1,2025-03-13_09h28.45.482,comp,2024.2.4,56.33484703793394,2025-03-13 09h28.55.355551 -0400,
0,0,0,,,,,,,,,,,,,,,0,0,0,0,,,,,,,,,21.332571744918823,,,,,,,,,,,,,,,,,,,,,,,,,,21.311694622039795,21.332571744918823,21.332571744918823,22.811033248901367,25.030333518981934,space,2.201371669769287,None,25.030481815338135,25.045610427856445,25.045610427856445,26.5372576713562,35.382790327072144,space,8.843263864517212,None,35.382938385009766,35.41284203529358,35.41284203529358,35.41284203529358,35.41284203529358,35.41284203529358,35.41284203529358,35.41284203529358,35.41284203529358,35.41284203529358,36.88465142250061,38.82825946807861,space,1.9368889331817627,None,38.82841444015503,38.8456494808197,38.8456494808197,38.8456494808197,40.33289408683777,43.86875939369202,space,3.5195815563201904,None,43.868916273117065,43.88463807106018,43.88463807106018,45.38335728645325,46.202040672302246,space,0.8051114082336426,None,46.20228600502014,46.21716356277466,46.21716356277466,47.770463705062866,space,1.539759874343872,None,,,,,,,,,,,,,,,,,,,,,,,,,,,,,,,,,,,,,,,,,,,,,,,239,1,2025-03-13_09h28.45.482,comp,2024.2.4,56.33484703793394,2025-03-13 09h28.55.355551 -0400,
0,0,0,catch,None,None,None,None,None,None,None,None,None,None,1,1.7351298332214355,None,,,,,0,0,0,0,0,0,0,127,47.846492528915405,,,,,,,,,,,,,,,,,,,,,,,,,,,,,,,,,,,,,,,,,,,,,,,,,,,,,,,,,,,,,,,,,,,,,,,,,,,,,,,,,190,135,82,108,110,80,3.0,3.2,-218,-277,0,1,190,271,47.830031871795654,47.83006477355957,47.8312783241272,47.846492528915405,48.0018572807312,48.0018572807312,48.0018572807312,48.0018572807312,48.0018572807312,48.0018572807312,48.0018572807312,49.58648180961609,1,1.7351298332214355,None,,,,,,,,,,,,,,,,,,239,1,2025-03-13_09h28.45.482,comp,2024.2.4,56.33484703793394,2025-03-13 09h28.55.355551 -0400,
1,1,0,critical,dwh,20.0,4.0,lower,78.0,78.0,57.0,133.0,133.0,57.0,3,5.478765964508057,None,,,,,0,0,0,0,0,1,1,70,49.60577416419983,,,,,,,,,,,,,,,,,,,,,,,,,,,,,,,,,,,,,,,,,,,,,,,,,,,,,,,,,,,,,,,,,,,,,,,,,,,,,,,,,78.0,78.0,57.0,133.0,133.0,57.0,4.0,4.2,-202,-11,0,-272,191,4,49.587960958480835,49.58802890777588,49.59107518196106,49.60577416419983,49.753419160842896,49.753419160842896,49.753419160842896,49.753419160842896,49.753419160842896,49.753419160842896,49.753419160842896,55.09815526008606,3,5.478765964508057,None,,,,,,,,,,,,,,,,,,239,1,2025-03-13_09h28.45.482,comp,2024.2.4,56.33484703793394,2025-03-13 09h28.55.355551 -0400,
2,2,0,filler_random,None,None,None,None,None,None,None,None,None,None,2,2.052741527557373,None,,,,,0,0,0,0,0,2,2,154,55.11393976211548,,,,,,,,,,,,,,,,,,,,,,,,,,,,,,,,,,,,,,,,,,,,,,,,,,,,,,,,,,,,,,,,,,,,,,,,,,,,,,,,,102.13476842443842,69.31557806382018,73.97157058452281,160.63094733982206,59.40776209288538,123.9798465911647,2.2,2.21,-211,-260,0,276,238,267,55.09980797767639,55.09988474845886,55.102646827697754,55.11393976211548,55.25467276573181,55.25467276573181,55.25467276573181,55.25467276573181,55.25467276573181,55.25467276573181,55.25467276573181,57.17155170440674,2,2.052741527557373,None,,,,,,,,,,,,,,,,,,239,1,2025-03-13_09h28.45.482,comp,2024.2.4,56.33484703793394,2025-03-13 09h28.55.355551 -0400,
3,3,0,critical,hdw,20.0,2.1,upper,200.0,125.0,141.0,141.0,125.0,200.0,3,3.240833282470703,None,,,,,0,0,0,0,0,3,3,23,57.18847918510437,,,,,,,,,,,,,,,,,,,,,,,,,,,,,,,,,,,,,,,,,,,,,,,,,,,,,,,,,,,,,,,,,,,,,,,,,,,,,,,,,200.0,125.0,141.0,141.0,125.0,200.0,2.1,2.11,-229,267,0,261,266,-276,57.173242807388306,57.17331886291504,57.176658630371094,57.18847918510437,57.3244092464447,57.3244092464447,57.3244092464447,57.3244092464447,57.3244092464447,57.3244092464447,57.3244092464447,60.4457893371582,3,3.240833282470703,None,,,,,,,,,,,,,,,,,,239,1,2025-03-13_09h28.45.482,comp,2024.2.4,56.33484703793394,2025-03-13 09h28.55.355551 -0400,
4,4,0,critical,dhw,20.0,4.0,lower,78.0,78.0,133.0,57.0,57.0,133.0,3,2.9075565338134766,None,,,,,0,0,0,0,0,4,4,58,60.46489405632019,,,,,,,,,,,,,,,,,,,,,,,,,,,,,,,,,,,,,,,,,,,,,,,,,,,,,,,,,,,,,,,,,,,,,,,,,,,,,,,,,78.0,78.0,133.0,57.0,57.0,133.0,4.0,4.1,-164,-257,0,17,191,-270,60.44729447364807,60.44736909866333,60.450127840042114,60.46489405632019,60.60660362243652,60.60660362243652,60.60660362243652,60.60660362243652,60.60660362243652,60.60660362243652,60.60660362243652,63.39127969741821,3,2.9075565338134766,None,,,,,,,,,,,,,,,,,,239,1,2025-03-13_09h28.45.482,comp,2024.2.4,56.33484703793394,2025-03-13 09h28.55.355551 -0400,
5,5,0,critical,wdh,20.0,2.1,lower,57.0,133.0,78.0,78.0,133.0,57.0,1,1.8357386589050293,None,,,,,0,0,0,0,0,5,5,10,63.408825159072876,,,,,,,,,,,,,,,,,,,,,,,,,,,,,,,,,,,,,,,,,,,,,,,,,,,,,,,,,,,,,,,,,,,,,,,,,,,,,,,,,57.0,133.0,78.0,78.0,133.0,57.0,2.1,2.11,-202,269,0,286,164,-259,63.39288878440857,63.392964124679565,63.396273374557495,63.408825159072876,63.560545921325684,63.560545921325684,63.560545921325684,63.560545921325684,63.560545921325684,63.560545921325684,63.560545921325684,65.25923013687134,1,1.8357386589050293,None,,,,,,,,,,,,,,,,,,239,1,2025-03-13_09h28.45.482,comp,2024.2.4,56.33484703793394,2025-03-13 09h28.55.355551 -0400,
6,6,0,catch,None,None,None,None,None,None,None,None,None,None,3,1.576669692993164,None,,,,,0,0,0,0,0,6,6,121,65.27631139755249,,,,,,,,,,,,,,,,,,,,,,,,,,,,,,,,,,,,,,,,,,,,,,,,,,,,,,,,,,,,,,,,,,,,,,,,,,,,,,,,,79,111,121,69,140,185,2.2,2.22,-186,276,0,-287,223,-271,65.26122093200684,65.26130080223083,65.26525735855103,65.27631139755249,65.43092155456543,65.43092155456543,65.43092155456543,65.43092155456543,65.43092155456543,65.43092155456543,65.43092155456543,66.86193513870239,3,1.576669692993164,None,,,,,,,,,,,,,,,,,,239,1,2025-03-13_09h28.45.482,comp,2024.2.4,56.33484703793394,2025-03-13 09h28.55.355551 -0400,
7,7,0,filler_random,None,None,None,None,None,None,None,None,None,None,1,3.1863720417022705,None,,,,,0,0,0,0,0,7,7,135,66.88208818435669,,,,,,,,,,,,,,,,,,,,,,,,,,,,,,,,,,,,,,,,,,,,,,,,,,,,,,,,,,,,,,,,,,,,,,,,,,,,,,,,,188.74663510754797,185.786297391402,179.81442499631837,184.78476445944844,74.0489740538155,160.08927143319568,1.0,1.1,-761,267,-480,271,-212,251,66.86382007598877,66.86394810676575,66.86743211746216,66.88208818435669,67.02821254730225,67.02821254730225,67.02821254730225,67.02821254730225,67.02821254730225,67.02821254730225,67.02821254730225,70.07781028747559,1,3.1863720417022705,None,,,,,,,,,,,,,,,,,,239,1,2025-03-13_09h28.45.482,comp,2024.2.4,56.33484703793394,2025-03-13 09h28.55.355551 -0400,
8,8,0,filler_square,None,None,None,None,None,None,None,None,None,None,1,3.2453038692474365,None,,,,,0,0,0,0,0,8,8,180,70.09529137611389,,,,,,,,,,,,,,,,,,,,,,,,,,,,,,,,,,,,,,,,,,,,,,,,,,,,,,,,,,,,,,,,,,,,,,,,,,,,,,,,,149.3769896092008,149.3769896092008,67.92546328494447,127.49182778045558,139.95554662081548,99.88107932618291,4.0,4.1,-234,-289,0,12,210,-274,70.07952356338501,70.07959842681885,70.08355903625488,70.09529137611389,70.24272847175598,70.24272847175598,70.24272847175598,70.24272847175598,70.24272847175598,70.24272847175598,70.24272847175598,73.3448555469513,1,3.2453038692474365,None,,,,,,,,,,,,,,,,,,239,1,2025-03-13_09h28.45.482,comp,2024.2.4,56.33484703793394,2025-03-13 09h28.55.355551 -0400,
9,9,0,critical,dhw,20.0,2.1,lower,78.0,78.0,133.0,57.0,57.0,133.0,2,2.63608455657959,None,,,,,0,0,0,0,0,9,9,26,73.3605260848999,,,,,,,,,,,,,,,,,,,,,,,,,,,,,,,,,,,,,,,,,,,,,,,,,,,,,,,,,,,,,,,,,,,,,,,,,,,,,,,,,78.0,78.0,133.0,57.0,57.0,133.0,2.1,2.12,-164,-260,0,-261,191,277,73.34633278846741,73.34642910957336,73.34968757629395,73.3605260848999,73.51490497589111,73.51490497589111,73.51490497589111,73.51490497589111,73.51490497589111,73.51490497589111,73.51490497589111,76.01211905479431,2,2.63608455657959,None,,,,,,,,,,,,,,,,,,239,1,2025-03-13_09h28.45.482,comp,2024.2.4,56.33484703793394,2025-03-13 09h28.55.355551 -0400,
10,10,0,critical,dhw,20.0,2.1,upper,141.0,141.0,200.0,125.0,125.0,200.0,3,3.529012680053711,None,,,,,0,0,0,0,0,10,10,27,76.02765011787415,,,,,,,,,,,,,,,,,,,,,,,,,,,,,,,,,,,,,,,,,,,,,,,,,,,,,,,,,,,,,,,,,,,,,,,,,,,,,,,,,141.0,141.0,200.0,125.0,125.0,200.0,2.1,2.11,-229,269,0,282,258,-257,76.01358318328857,76.0136559009552,76.01672673225403,76.02765011787415,76.17913675308228,76.17913675308228,76.17913675308228,76.17913675308228,76.17913675308228,76.17913675308228,76.17913675308228,79.56019496917725,3,3.529012680053711,None,,,,,,,,,,,,,,,,,,239,1,2025-03-13_09h28.45.482,comp,2024.2.4,56.33484703793394,2025-03-13 09h28.55.355551 -0400,
11,11,0,filler_square,None,None,None,None,None,None,None,None,None,None,3,1.963658094406128,None,,,,,0,0,0,0,0,11,11,179,79.57782244682312,,,,,,,,,,,,,,,,,,,,,,,,,,,,,,,,,,,,,,,,,,,,,,,,,,,,,,,,,,,,,,,,,,,,,,,,,,,,,,,,,179.8940308464734,134.5837347770821,161.30591707060563,102.89496415219429,197.78043264549166,197.78043264549166,2.2,2.22,-215,283,0,-277,246,-263,79.5619101524353,79.56198453903198,79.56476545333862,79.57782244682312,79.71407437324524,79.71407437324524,79.71407437324524,79.71407437324524,79.71407437324524,79.71407437324524,79.71407437324524,81.54802632331848,3,1.963658094406128,None,,,,,,,,,,,,,,,,,,239,1,2025-03-13_09h28.45.482,comp,2024.2.4,56.33484703793394,2025-03-13 09h28.55.355551 -0400,
12,12,0,filler_square,None,None,None,None,None,None,None,None,None,None,3,1.751645565032959,None,,,,,0,0,0,0,0,12,12,196,81.56487321853638,,,,,,,,,,,,,,,,,,,,,,,,,,,,,,,,,,,,,,,,,,,,,,,,,,,,,,,,,,,,,,,,,,,,,,,,,,,,,,,,,114.36967431873497,169.07639340615253,88.54970772229045,152.82507179930224,169.84073406509296,169.84073406509296,2.2,2.21,-257,-257,0,261,257,279,81.54993724822998,81.55001759529114,81.55399537086487,81.56487321853638,81.71403813362122,81.71403813362122,81.71403813362122,81.71403813362122,81.71403813362122,81.71403813362122,81.71403813362122,83.32977938652039,3,1.751645565032959,None,,,,,,,,,,,,,,,,,,239,1,2025-03-13_09h28.45.482,comp,2024.2.4,56.33484703793394,2025-03-13 09h28.55.355551 -0400,
13,13,0,critical,wdh,20.0,4.0,lower,57.0,133.0,78.0,78.0,133.0,57.0,1,2.587766408920288,None,,,,,0,0,0,0,0,13,13,82,83.34469294548035,,,,,,,,,,,,,,,,,,,,,,,,,,,,,,,,,,,,,,,,,,,,,,,,,,,,,,,,,,,,,,,,,,,,,,,,,,,,,,,,,57.0,133.0,78.0,78.0,133.0,57.0,4.0,4.2,-202,20,0,-274,164,15,83.33124232292175,83.33131456375122,83.33406853675842,83.34469294548035,83.48744988441467,83.48744988441467,83.48744988441467,83.48744988441467,83.48744988441467,83.48744988441467,83.48744988441467,85.94974517822266,1,2.587766408920288,None,,,,,,,,,,,,,,,,,,239,1,2025-03-13_09h28.45.482,comp,2024.2.4,56.33484703793394,2025-03-13 09h28.55.355551 -0400,
14,14,0,critical,whd,20.0,3.0,lower,57.0,133.0,133.0,57.0,78.0,78.0,2,2.319972276687622,None,,,,,0,0,0,0,0,14,14,92,85.9650092124939,,,,,,,,,,,,,,,,,,,,,,,,,,,,,,,,,,,,,,,,,,,,,,,,,,,,,,,,,,,,,,,,,,,,,,,,,,,,,,,,,57.0,133.0,133.0,57.0,78.0,78.0,3.0,3.1,-191,267,0,11,164,-271,85.951242685318,85.95131826400757,85.95437479019165,85.9650092124939,86.11137628555298,86.11137628555298,86.11137628555298,86.11137628555298,86.11137628555298,86.11137628555298,86.11137628555298,88.28885102272034,2,2.319972276687622,None,,,,,,,,,,,,,,,,,,239,1,2025-03-13_09h28.45.482,comp,2024.2.4,56.33484703793394,2025-03-13 09h28.55.355551 -0400,
15,15,0,filler_random,None,None,None,None,None,None,None,None,None,None,3,1.2271389961242676,None,,,,,0,0,0,0,0,15,15,134,88.30537605285645,,,,,,,,,,,,,,,,,,,,,,,,,,,,,,,,,,,,,,,,,,,,,,,,,,,,,,,,,,,,,,,,,,,,,,,,,,,,,,,,,95.64924696449205,147.0208572551486,61.2888933038783,164.0260304415189,189.1137061420687,187.06942369797426,2.1,2.12,-252,-277,0,-282,272,271,88.29049348831177,88.29056930541992,88.29373455047607,88.30537605285645,88.44634795188904,88.44634795188904,88.44634795188904,88.44634795188904,88.44634795188904,88.44634795188904,88.44634795188904,89.5501172542572,3,1.2271389961242676,None,,,,,,,,,,,,,,,,,,239,1,2025-03-13_09h28.45.482,comp,2024.2.4,56.33484703793394,2025-03-13 09h28.55.355551 -0400,
16,16,0,filler_square,None,None,None,None,None,None,None,None,None,None,1,1.5022592544555664,None,,,,,0,0,0,0,0,16,16,183,89.56632280349731,,,,,,,,,,,,,,,,,,,,,,,,,,,,,,,,,,,,,,,,,,,,,,,,,,,,,,,,,,,,,,,,,,,,,,,,,,,,,,,,,63.16802162043606,64.45143111422503,68.28069929863565,68.28069929863565,60.152795311415204,62.51048882546881,2.2,2.21,-162,-267,0,275,161,280,89.55187749862671,89.55194997787476,89.55597710609436,89.56632280349731,89.71750807762146,89.71750807762146,89.71750807762146,89.71750807762146,89.71750807762146,89.71750807762146,89.71750807762146,91.07383012771606,1,1.5022592544555664,None,,,,,,,,,,,,,,,,,,239,1,2025-03-13_09h28.45.482,comp,2024.2.4,56.33484703793394,2025-03-13 09h28.55.355551 -0400,
17,17,0,critical,hdw,35.0,2.1,upper,200.0,125.0,127.0,127.0,125.0,200.0,3,2.486595392227173,None,,,,,0,0,0,0,0,17,17,45,91.09396433830261,,,,,,,,,,,,,,,,,,,,,,,,,,,,,,,,,,,,,,,,,,,,,,,,,,,,,,,,,,,,,,,,,,,,,,,,,,,,,,,,,200.0,125.0,127.0,127.0,125.0,200.0,2.1,2.11,-222,267,0,283,260,-272,91.07536101341248,91.07543754577637,91.07823848724365,91.09396433830261,91.23166847229004,91.23166847229004,91.23166847229004,91.23166847229004,91.23166847229004,91.23166847229004,91.23166847229004,93.58439755439758,3,2.486595392227173,None,,,,,,,,,,,,,,,,,,239,1,2025-03-13_09h28.45.482,comp,2024.2.4,56.33484703793394,2025-03-13 09h28.55.355551 -0400,
18,18,0,critical,whd,35.0,4.0,upper,125.0,200.0,200.0,125.0,127.0,127.0,1,1.692988395690918,None,,,,,0,0,0,0,0,18,18,89,93.60062718391418,,,,,,,,,,,,,,,,,,,,,,,,,,,,,,,,,,,,,,,,,,,,,,,,,,,,,,,,,,,,,,,,,,,,,,,,,,,,,,,,,125.0,200.0,200.0,125.0,127.0,127.0,4.0,4.2,-258,-14,0,-259,222,-9,93.58594131469727,93.58601784706116,93.58955979347229,93.60062718391418,93.7502772808075,93.7502772808075,93.7502772808075,93.7502772808075,93.7502772808075,93.7502772808075,93.7502772808075,95.30221128463745,1,1.692988395690918,None,,,,,,,,,,,,,,,,,,239,1,2025-03-13_09h28.45.482,comp,2024.2.4,56.33484703793394,2025-03-13 09h28.55.355551 -0400,
19,19,0,critical,whd,20.0,2.1,upper,125.0,200.0,200.0,125.0,141.0,141.0,1,1.5502474308013916,None,,,,,0,0,0,0,0,19,19,15,95.31830358505249,,,,,,,,,,,,,,,,,,,,,,,,,,,,,,,,,,,,,,,,,,,,,,,,,,,,,,,,,,,,,,,,,,,,,,,,,,,,,,,,,125.0,200.0,200.0,125.0,141.0,141.0,2.1,2.11,-258,257,0,267,229,-273,95.30387163162231,95.30394721031189,95.30741167068481,95.31830358505249,95.46568155288696,95.46568155288696,95.46568155288696,95.46568155288696,95.46568155288696,95.46568155288696,95.46568155288696,96.88665294647217,1,1.5502474308013916,None,,,,,,,,,,,,,,,,,,239,1,2025-03-13_09h28.45.482,comp,2024.2.4,56.33484703793394,2025-03-13 09h28.55.355551 -0400,
20,20,0,filler_square,None,None,None,None,None,None,None,None,None,None,1,1.4222991466522217,None,,,,,0,0,0,0,0,20,20,176,96.90213060379028,,,,,,,,,,,,,,,,,,,,,,,,,,,,,,,,,,,,,,,,,,,,,,,,,,,,,,,,,,,,,,,,,,,,,,,,,,,,,,,,,93.3637877480798,99.49307522313202,99.91147277277943,99.91147277277943,86.16101531689742,90.00459691392624,2.2,2.21,-196,-259,0,261,191,261,96.88845705986023,96.88853311538696,96.89182996749878,96.90213060379028,97.05687093734741,97.05687093734741,97.05687093734741,97.05687093734741,97.05687093734741,97.05687093734741,97.05687093734741,98.33524370193481,1,1.4222991466522217,None,,,,,,,,,,,,,,,,,,239,1,2025-03-13_09h28.45.482,comp,2024.2.4,56.33484703793394,2025-03-13 09h28.55.355551 -0400,
21,21,0,filler_square,None,None,None,None,None,None,None,None,None,None,3,2.420769453048706,None,,,,,0,0,0,0,0,21,21,199,98.3525083065033,,,,,,,,,,,,,,,,,,,,,,,,,,,,,,,,,,,,,,,,,,,,,,,,,,,,,,,,,,,,,,,,,,,,,,,,,,,,,,,,,64.48903860569195,64.48903860569195,63.14366287226185,58.847990602177994,60.16504280189278,60.53290806299351,4.0,4.2,-158,-20,0,-273,156,-2,98.33702254295349,98.33710074424744,98.34027743339539,98.3525083065033,98.50415849685669,98.50415849685669,98.50415849685669,98.50415849685669,98.50415849685669,98.50415849685669,98.50415849685669,100.77682042121887,3,2.420769453048706,None,,,,,,,,,,,,,,,,,,239,1,2025-03-13_09h28.45.482,comp,2024.2.4,56.33484703793394,2025-03-13 09h28.55.355551 -0400,
22,22,0,critical,dwh,35.0,4.0,lower,70.0,70.0,57.0,133.0,133.0,57.0,2,1.7803046703338623,None,,,,,0,0,0,0,0,22,22,64,100.7922420501709,,,,,,,,,,,,,,,,,,,,,,,,,,,,,,,,,,,,,,,,,,,,,,,,,,,,,,,,,,,,,,,,,,,,,,,,,,,,,,,,,70.0,70.0,57.0,133.0,133.0,57.0,4.0,4.1,-198,-262,0,-19,191,-266,100.77836298942566,100.77844142913818,100.78125047683716,100.7922420501709,100.93639039993286,100.93639039993286,100.93639039993286,100.93639039993286,100.93639039993286,100.93639039993286,100.93639039993286,102.58716702461243,2,1.7803046703338623,None,,,,,,,,,,,,,,,,,,239,1,2025-03-13_09h28.45.482,comp,2024.2.4,56.33484703793394,2025-03-13 09h28.55.355551 -0400,
23,23,0,critical,whd,35.0,2.1,upper,125.0,200.0,200.0,125.0,127.0,127.0,2,2.594064235687256,None,,,,,0,0,0,0,0,23,23,13,102.60254526138306,,,,,,,,,,,,,,,,,,,,,,,,,,,,,,,,,,,,,,,,,,,,,,,,,,,,,,,,,,,,,,,,,,,,,,,,,,,,,,,,,125.0,200.0,200.0,125.0,127.0,127.0,2.1,2.12,-258,-288,0,-259,222,258,102.5886960029602,102.58877038955688,102.59210205078125,102.60254526138306,102.75384593009949,102.75384593009949,102.75384593009949,102.75384593009949,102.75384593009949,102.75384593009949,102.75384593009949,105.21296858787537,2,2.594064235687256,None,,,,,,,,,,,,,,,,,,239,1,2025-03-13_09h28.45.482,comp,2024.2.4,56.33484703793394,2025-03-13 09h28.55.355551 -0400,
24,24,0,critical,hdw,35.0,3.0,lower,133.0,57.0,70.0,70.0,57.0,133.0,3,1.8208017349243164,None,,,,,0,0,0,0,0,24,24,110,105.23193407058716,,,,,,,,,,,,,,,,,,,,,,,,,,,,,,,,,,,,,,,,,,,,,,,,,,,,,,,,,,,,,,,,,,,,,,,,,,,,,,,,,133.0,57.0,70.0,70.0,57.0,133.0,3.0,3.1,-160,280,0,-5,198,-265,105.21456098556519,105.21463656425476,105.21785569190979,105.23193407058716,105.37209367752075,105.37209367752075,105.37209367752075,105.37209367752075,105.37209367752075,105.37209367752075,105.37209367752075,107.0715503692627,3,1.8208017349243164,None,,,,,,,,,,,,,,,,,,239,1,2025-03-13_09h28.45.482,comp,2024.2.4,56.33484703793394,2025-03-13 09h28.55.355551 -0400,
25,25,0,filler_square,None,None,None,None,None,None,None,None,None,None,3,3.331404685974121,None,,,,,0,0,0,0,0,25,25,172,107.08910393714905,,,,,,,,,,,,,,,,,,,,,,,,,,,,,,,,,,,,,,,,,,,,,,,,,,,,,,,,,,,,,,,,,,,,,,,,,,,,,,,,,60.055448536168484,69.53223169238413,85.58403537450047,85.58403537450047,80.49018288175105,83.49811028577264,4.0,4.2,-174,0,0,-260,181,11,107.07339596748352,107.07347202301025,107.07665419578552,107.08910393714905,107.23930501937866,107.23930501937866,107.23930501937866,107.23930501937866,107.23930501937866,107.23930501937866,107.23930501937866,110.42319869995117,3,3.331404685974121,None,,,,,,,,,,,,,,,,,,239,1,2025-03-13_09h28.45.482,comp,2024.2.4,56.33484703793394,2025-03-13 09h28.55.355551 -0400,
26,26,0,critical,hwd,35.0,1.0,upper,200.0,125.0,125.0,200.0,127.0,127.0,2,2.2216663360595703,None,,,,,0,0,0,0,0,26,26,97,110.43895483016968,,,,,,,,,,,,,,,,,,,,,,,,,,,,,,,,,,,,,,,,,,,,,,,,,,,,,,,,,,,,,,,,,,,,,,,,,,,,,,,,,200.0,125.0,125.0,200.0,127.0,127.0,1.0,1.2,-258,3,0,16,260,-1,110.42472243309021,110.42480182647705,110.42816615104675,110.43895483016968,110.58676099777222,110.58676099777222,110.58676099777222,110.58676099777222,110.58676099777222,110.58676099777222,110.58676099777222,112.67251253128052,2,2.2216663360595703,None,,,,,,,,,,,,,,,,,,239,1,2025-03-13_09h28.45.482,comp,2024.2.4,56.33484703793394,2025-03-13 09h28.55.355551 -0400,
27,27,0,critical,dwh,35.0,3.0,lower,70.0,70.0,57.0,133.0,133.0,57.0,2,1.819629430770874,None,,,,,0,0,0,0,0,27,27,62,112.68892931938171,,,,,,,,,,,,,,,,,,,,,,,,,,,,,,,,,,,,,,,,,,,,,,,,,,,,,,,,,,,,,,,,,,,,,,,,,,,,,,,,,70.0,70.0,57.0,133.0,133.0,57.0,3.0,3.1,-198,258,0,-18,191,-269,112.67402219772339,112.67409324645996,112.67737221717834,112.68892931938171,112.82765245437622,112.82765245437622,112.82765245437622,112.82765245437622,112.82765245437622,112.82765245437622,112.82765245437622,114.51091575622559,2,1.819629430770874,None,,,,,,,,,,,,,,,,,,239,1,2025-03-13_09h28.45.482,comp,2024.2.4,56.33484703793394,2025-03-13 09h28.55.355551 -0400,
28,28,0,critical,whd,35.0,3.0,lower,57.0,133.0,133.0,57.0,70.0,70.0,1,1.6661217212677002,None,,,,,0,0,0,0,0,28,28,86,114.53158617019653,,,,,,,,,,,,,,,,,,,,,,,,,,,,,,,,,,,,,,,,,,,,,,,,,,,,,,,,,,,,,,,,,,,,,,,,,,,,,,,,,57.0,133.0,133.0,57.0,70.0,70.0,3.0,3.2,-191,-257,0,7,160,269,114.51243019104004,114.51250576972961,114.51579594612122,114.53158617019653,114.67810344696045,114.67810344696045,114.67810344696045,114.67810344696045,114.67810344696045,114.67810344696045,114.67810344696045,116.20866918563843,1,1.6661217212677002,None,,,,,,,,,,,,,,,,,,239,1,2025-03-13_09h28.45.482,comp,2024.2.4,56.33484703793394,2025-03-13 09h28.55.355551 -0400,
29,29,0,critical,whd,35.0,2.1,lower,57.0,133.0,133.0,57.0,70.0,70.0,2,1.9965968132019043,None,,,,,0,0,0,0,0,29,29,12,116.22492265701294,,,,,,,,,,,,,,,,,,,,,,,,,,,,,,,,,,,,,,,,,,,,,,,,,,,,,,,,,,,,,,,,,,,,,,,,,,,,,,,,,57.0,133.0,133.0,57.0,70.0,70.0,2.1,2.11,-191,277,0,285,160,-261,116.21032166481018,116.21046710014343,116.21400761604309,116.22492265701294,116.3633394241333,116.3633394241333,116.3633394241333,116.3633394241333,116.3633394241333,116.3633394241333,116.3633394241333,118.2268533706665,2,1.9965968132019043,None,,,,,,,,,,,,,,,,,,239,1,2025-03-13_09h28.45.482,comp,2024.2.4,56.33484703793394,2025-03-13 09h28.55.355551 -0400,
30,30,0,filler_random,None,None,None,None,None,None,None,None,None,None,3,1.7622952461242676,None,,,,,0,0,0,0,0,30,30,153,118.24275612831116,,,,,,,,,,,,,,,,,,,,,,,,,,,,,,,,,,,,,,,,,,,,,,,,,,,,,,,,,,,,,,,,,,,,,,,,,,,,,,,,,152.40007655864923,137.40904860833217,77.21339696737228,130.96831285025007,167.12651886113468,178.41153747501124,2.1,2.11,-230,278,0,275,251,-252,118.2285897731781,118.22866892814636,118.23196268081665,118.24275612831116,118.39743280410767,118.39743280410767,118.39743280410767,118.39743280410767,118.39743280410767,118.39743280410767,118.39743280410767,120.00997948646545,3,1.7622952461242676,None,,,,,,,,,,,,,,,,,,239,1,2025-03-13_09h28.45.482,comp,2024.2.4,56.33484703793394,2025-03-13 09h28.55.355551 -0400,
31,31,0,filler_random,None,None,None,None,None,None,None,None,None,None,2,1.7945778369903564,None,,,,,0,0,0,0,0,31,31,137,120.02667284011841,,,,,,,,,,,,,,,,,,,,,,,,,,,,,,,,,,,,,,,,,,,,,,,,,,,,,,,,,,,,,,,,,,,,,,,,,,,,,,,,,83.27120559366305,69.54881992684149,185.05378536801697,128.56071118923285,90.95206011254328,195.93111294936344,2.1,2.12,-195,-274,0,-284,258,274,120.01174187660217,120.01182055473328,120.01575994491577,120.02667284011841,120.17392253875732,120.17392253875732,120.17392253875732,120.17392253875732,120.17392253875732,120.17392253875732,120.17392253875732,121.82729864120483,2,1.7945778369903564,None,,,,,,,,,,,,,,,,,,239,1,2025-03-13_09h28.45.482,comp,2024.2.4,56.33484703793394,2025-03-13 09h28.55.355551 -0400,
32,32,0,filler_square,None,None,None,None,None,None,None,None,None,None,2,2.0483031272888184,None,,,,,0,0,0,0,0,32,32,207,121.84422993659973,,,,,,,,,,,,,,,,,,,,,,,,,,,,,,,,,,,,,,,,,,,,,,,,,,,,,,,,,,,,,,,,,,,,,,,,,,,,,,,,,67.4942084041545,75.8972314773134,135.36113556233641,135.36113556233641,87.7571545708664,103.39411105065125,1.0,1.3,278,-273,480,-258,695,-283,121.82931518554688,121.82941913604736,121.83334636688232,121.84422993659973,121.99300837516785,121.99300837516785,121.99300837516785,121.99300837516785,121.99300837516785,121.99300837516785,121.99300837516785,123.91029739379883,2,2.0483031272888184,None,,,,,,,,,,,,,,,,,,239,1,2025-03-13_09h28.45.482,comp,2024.2.4,56.33484703793394,2025-03-13 09h28.55.355551 -0400,
33,33,0,critical,wdh,20.0,1.0,lower,57.0,133.0,78.0,78.0,133.0,57.0,1,2.6547913551330566,None,,,,,0,0,0,0,0,33,33,78,123.92598462104797,,,,,,,,,,,,,,,,,,,,,,,,,,,,,,,,,,,,,,,,,,,,,,,,,,,,,,,,,,,,,,,,,,,,,,,,,,,,,,,,,57.0,133.0,78.0,78.0,133.0,57.0,1.0,1.3,278,-276,480,-253,644,-270,123.91172194480896,123.91179728507996,123.91462278366089,123.92598462104797,124.0767469406128,124.0767469406128,124.0767469406128,124.0767469406128,124.0767469406128,124.0767469406128,124.0767469406128,126.59956455230713,1,2.6547913551330566,None,,,,,,,,,,,,,,,,,,239,1,2025-03-13_09h28.45.482,comp,2024.2.4,56.33484703793394,2025-03-13 09h28.55.355551 -0400,
34,34,0,critical,whd,35.0,2.1,lower,57.0,133.0,133.0,57.0,70.0,70.0,2,1.7942919731140137,None,,,,,0,0,0,0,0,34,34,36,126.61827492713928,,,,,,,,,,,,,,,,,,,,,,,,,,,,,,,,,,,,,,,,,,,,,,,,,,,,,,,,,,,,,,,,,,,,,,,,,,,,,,,,,57.0,133.0,133.0,57.0,70.0,70.0,2.1,2.11,-191,275,0,263,160,-283,126.60115146636963,126.60125279426575,126.60453176498413,126.61827492713928,126.76414895057678,126.76414895057678,126.76414895057678,126.76414895057678,126.76414895057678,126.76414895057678,126.76414895057678,128.42857122421265,2,1.7942919731140137,None,,,,,,,,,,,,,,,,,,239,1,2025-03-13_09h28.45.482,comp,2024.2.4,56.33484703793394,2025-03-13 09h28.55.355551 -0400,
35,35,0,critical,wdh,20.0,2.1,lower,57.0,133.0,78.0,78.0,133.0,57.0,3,2.817453384399414,None,,,,,0,0,0,0,0,35,35,34,128.44384837150574,,,,,,,,,,,,,,,,,,,,,,,,,,,,,,,,,,,,,,,,,,,,,,,,,,,,,,,,,,,,,,,,,,,,,,,,,,,,,,,,,57.0,133.0,78.0,78.0,133.0,57.0,2.1,2.12,-202,-280,0,-271,164,287,128.430100440979,128.43019199371338,128.43308663368225,128.44384837150574,128.58650875091553,128.58650875091553,128.58650875091553,128.58650875091553,128.58650875091553,128.58650875091553,128.58650875091553,131.28067803382874,3,2.817453384399414,None,,,,,,,,,,,,,,,,,,239,1,2025-03-13_09h28.45.482,comp,2024.2.4,56.33484703793394,2025-03-13 09h28.55.355551 -0400,
36,36,0,critical,hdw,20.0,2.1,lower,133.0,57.0,78.0,78.0,57.0,133.0,3,2.1163318157196045,None,,,,,0,0,0,0,0,36,36,46,131.296245098114,,,,,,,,,,,,,,,,,,,,,,,,,,,,,,,,,,,,,,,,,,,,,,,,,,,,,,,,,,,,,,,,,,,,,,,,,,,,,,,,,133.0,57.0,78.0,78.0,57.0,133.0,2.1,2.11,-164,277,0,278,202,-274,131.28226780891418,131.28234004974365,131.28578853607178,131.296245098114,131.44627213478088,131.44627213478088,131.44627213478088,131.44627213478088,131.44627213478088,131.44627213478088,131.44627213478088,133.43157076835632,3,2.1163318157196045,None,,,,,,,,,,,,,,,,,,239,1,2025-03-13_09h28.45.482,comp,2024.2.4,56.33484703793394,2025-03-13 09h28.55.355551 -0400,
37,37,0,filler_random,None,None,None,None,None,None,None,None,None,None,3,1.7800805568695068,None,,,,,0,0,0,0,0,37,37,136,133.4491674900055,,,,,,,,,,,,,,,,,,,,,,,,,,,,,,,,,,,,,,,,,,,,,,,,,,,,,,,,,,,,,,,,,,,,,,,,,,,,,,,,,76.41208862701006,81.77052220594834,66.81058052046264,168.45765385034068,187.74866196765277,96.86709837276734,2.2,2.22,-221,276,0,-280,229,-272,133.43323397636414,133.4333610534668,133.4363317489624,133.4491674900055,133.5955159664154,133.5955159664154,133.5955159664154,133.5955159664154,133.5955159664154,133.5955159664154,133.5955159664154,135.23524451255798,3,1.7800805568695068,None,,,,,,,,,,,,,,,,,,239,1,2025-03-13_09h28.45.482,comp,2024.2.4,56.33484703793394,2025-03-13 09h28.55.355551 -0400,
38,38,0,critical,hdw,20.0,2.1,upper,200.0,125.0,141.0,141.0,125.0,200.0,1,2.233229398727417,None,,,,,0,0,0,0,0,38,38,47,135.25143694877625,,,,,,,,,,,,,,,,,,,,,,,,,,,,,,,,,,,,,,,,,,,,,,,,,,,,,,,,,,,,,,,,,,,,,,,,,,,,,,,,,200.0,125.0,141.0,141.0,125.0,200.0,2.1,2.12,-229,-262,0,-252,266,267,135.23679304122925,135.23686861991882,135.2406930923462,135.25143694877625,135.39646816253662,135.39646816253662,135.39646816253662,135.39646816253662,135.39646816253662,135.39646816253662,135.39646816253662,137.4979703426361,1,2.233229398727417,None,,,,,,,,,,,,,,,,,,239,1,2025-03-13_09h28.45.482,comp,2024.2.4,56.33484703793394,2025-03-13 09h28.55.355551 -0400,
39,39,0,critical,dwh,35.0,1.0,upper,127.0,127.0,125.0,200.0,200.0,125.0,2,2.8868184089660645,None,,,,,0,0,0,0,0,39,39,61,137.51769137382507,,,,,,,,,,,,,,,,,,,,,,,,,,,,,,,,,,,,,,,,,,,,,,,,,,,,,,,,,,,,,,,,,,,,,,,,,,,,,,,,,127.0,127.0,125.0,200.0,200.0,125.0,1.0,1.2,-260,12,0,12,258,5,137.4994375705719,137.49951028823853,137.50267457962036,137.51769137382507,137.66564989089966,137.66564989089966,137.66564989089966,137.66564989089966,137.66564989089966,137.66564989089966,137.66564989089966,140.41639232635498,2,2.8868184089660645,None,,,,,,,,,,,,,,,,,,239,1,2025-03-13_09h28.45.482,comp,2024.2.4,56.33484703793394,2025-03-13 09h28.55.355551 -0400,
40,40,0,filler_random,None,None,None,None,None,None,None,None,None,None,1,2.2775347232818604,None,,,,,0,0,0,0,0,40,40,132,140.4324336051941,,,,,,,,,,,,,,,,,,,,,,,,,,,,,,,,,,,,,,,,,,,,,,,,,,,,,,,,,,,,,,,,,,,,,,,,,,,,,,,,,120.23459158520461,194.0413901638144,132.94163129362397,113.30928545758005,91.3378385940244,197.57158399574064,3.0,3.2,-250,-253,0,10,251,285,140.41803908348083,140.41811513900757,140.42108035087585,140.4324336051941,140.5817277431488,140.5817277431488,140.5817277431488,140.5817277431488,140.5817277431488,140.5817277431488,140.5817277431488,142.71571373939514,1,2.2775347232818604,None,,,,,,,,,,,,,,,,,,239,1,2025-03-13_09h28.45.482,comp,2024.2.4,56.33484703793394,2025-03-13 09h28.55.355551 -0400,
41,41,0,critical,dwh,35.0,3.0,upper,127.0,127.0,125.0,200.0,200.0,125.0,2,2.1287693977355957,None,,,,,0,0,0,0,0,41,41,63,142.7318093776703,,,,,,,,,,,,,,,,,,,,,,,,,,,,,,,,,,,,,,,,,,,,,,,,,,,,,,,,,,,,,,,,,,,,,,,,,,,,,,,,,127.0,127.0,125.0,200.0,200.0,125.0,3.0,3.2,-260,-289,0,-6,258,254,142.71714735031128,142.7172601222992,142.72002291679382,142.7318093776703,142.88279819488525,142.88279819488525,142.88279819488525,142.88279819488525,142.88279819488525,142.88279819488525,142.88279819488525,144.87364864349365,2,2.1287693977355957,None,,,,,,,,,,,,,,,,,,239,1,2025-03-13_09h28.45.482,comp,2024.2.4,56.33484703793394,2025-03-13 09h28.55.355551 -0400,
42,42,0,critical,dhw,20.0,1.0,upper,141.0,141.0,200.0,125.0,125.0,200.0,3,2.241823196411133,None,,,,,0,0,0,0,0,42,42,55,144.891450881958,,,,,,,,,,,,,,,,,,,,,,,,,,,,,,,,,,,,,,,,,,,,,,,,,,,,,,,,,,,,,,,,,,,,,,,,,,,,,,,,,141.0,141.0,200.0,125.0,125.0,200.0,1.0,1.1,-709,253,-480,264,-222,265,144.87570667266846,144.87580490112305,144.8796467781067,144.891450881958,145.03326296806335,145.03326296806335,145.03326296806335,145.03326296806335,145.03326296806335,145.03326296806335,145.03326296806335,147.15116834640503,3,2.241823196411133,None,,,,,,,,,,,,,,,,,,239,1,2025-03-13_09h28.45.482,comp,2024.2.4,56.33484703793394,2025-03-13 09h28.55.355551 -0400,
43,43,0,filler_square,None,None,None,None,None,None,None,None,None,None,1,2.0057621002197266,None,,,,,0,0,0,0,0,43,43,208,147.16670441627502,,,,,,,,,,,,,,,,,,,,,,,,,,,,,,,,,,,,,,,,,,,,,,,,,,,,,,,,,,,,,,,,,,,,,,,,,,,,,,,,,152.37189241649185,152.37189241649185,84.88886005426336,102.39312260164843,83.42257267235519,127.92682133291845,2.2,2.21,-223,-275,0,268,211,253,147.15295815467834,147.15303492546082,147.15641069412231,147.16670441627502,147.31760263442993,147.31760263442993,147.31760263442993,147.31760263442993,147.31760263442993,147.31760263442993,147.31760263442993,149.18433690071106,1,2.0057621002197266,None,,,,,,,,,,,,,,,,,,239,1,2025-03-13_09h28.45.482,comp,2024.2.4,56.33484703793394,2025-03-13 09h28.55.355551 -0400,
44,44,0,critical,dwh,20.0,2.1,upper,141.0,141.0,125.0,200.0,200.0,125.0,2,4.3643879890441895,None,,,,,0,0,0,0,0,44,44,31,149.2005853652954,,,,,,,,,,,,,,,,,,,,,,,,,,,,,,,,,,,,,,,,,,,,,,,,,,,,,,,,,,,,,,,,,,,,,,,,,,,,,,,,,141.0,141.0,125.0,200.0,200.0,125.0,2.1,2.11,-266,259,0,253,258,-286,149.1859233379364,149.18601846694946,149.18926000595093,149.2005853652954,149.35643458366394,149.35643458366394,149.35643458366394,149.35643458366394,149.35643458366394,149.35643458366394,149.35643458366394,153.56900310516357,2,4.3643879890441895,None,,,,,,,,,,,,,,,,,,239,1,2025-03-13_09h28.45.482,comp,2024.2.4,56.33484703793394,2025-03-13 09h28.55.355551 -0400,
45,45,0,critical,wdh,35.0,2.1,upper,125.0,200.0,127.0,127.0,200.0,125.0,1,3.7082881927490234,None,,,,,0,0,0,0,0,45,45,33,153.58569240570068,,,,,,,,,,,,,,,,,,,,,,,,,,,,,,,,,,,,,,,,,,,,,,,,,,,,,,,,,,,,,,,,,,,,,,,,,,,,,,,,,125.0,200.0,127.0,127.0,200.0,125.0,2.1,2.12,-260,-258,0,-260,222,251,153.5706090927124,153.57068371772766,153.5739552974701,153.58569240570068,153.72531723976135,153.72531723976135,153.72531723976135,153.72531723976135,153.72531723976135,153.72531723976135,153.72531723976135,157.30477905273438,1,3.7082881927490234,None,,,,,,,,,,,,,,,,,,239,1,2025-03-13_09h28.45.482,comp,2024.2.4,56.33484703793394,2025-03-13 09h28.55.355551 -0400,
46,46,0,critical,dhw,20.0,4.0,upper,141.0,141.0,200.0,125.0,125.0,200.0,3,2.3399243354797363,None,,,,,0,0,0,0,0,46,46,59,157.32059812545776,,,,,,,,,,,,,,,,,,,,,,,,,,,,,,,,,,,,,,,,,,,,,,,,,,,,,,,,,,,,,,,,,,,,,,,,,,,,,,,,,141.0,141.0,200.0,125.0,125.0,200.0,4.0,4.2,-229,-7,0,-255,258,-12,157.3062698841095,157.3063449859619,157.3097231388092,157.32059812545776,157.47646355628967,157.47646355628967,157.47646355628967,157.47646355628967,157.47646355628967,157.47646355628967,157.47646355628967,159.67314076423645,3,2.3399243354797363,None,,,,,,,,,,,,,,,,,,239,1,2025-03-13_09h28.45.482,comp,2024.2.4,56.33484703793394,2025-03-13 09h28.55.355551 -0400,
47,47,0,critical,dwh,20.0,3.0,lower,78.0,78.0,57.0,133.0,133.0,57.0,2,2.1625730991363525,None,,,,,0,0,0,0,0,47,47,68,159.6909396648407,,,,,,,,,,,,,,,,,,,,,,,,,,,,,,,,,,,,,,,,,,,,,,,,,,,,,,,,,,,,,,,,,,,,,,,,,,,,,,,,,78.0,78.0,57.0,133.0,133.0,57.0,3.0,3.1,-202,268,0,-18,191,-262,159.67463779449463,159.6747431755066,159.67772793769836,159.6909396648407,159.8371012210846,159.8371012210846,159.8371012210846,159.8371012210846,159.8371012210846,159.8371012210846,159.8371012210846,161.8603549003601,2,2.1625730991363525,None,,,,,,,,,,,,,,,,,,239,1,2025-03-13_09h28.45.482,comp,2024.2.4,56.33484703793394,2025-03-13 09h28.55.355551 -0400,
48,48,0,critical,hdw,35.0,2.1,lower,133.0,57.0,70.0,70.0,57.0,133.0,3,2.544628143310547,None,,,,,0,0,0,0,0,48,48,20,161.87627792358398,,,,,,,,,,,,,,,,,,,,,,,,,,,,,,,,,,,,,,,,,,,,,,,,,,,,,,,,,,,,,,,,,,,,,,,,,,,,,,,,,133.0,57.0,70.0,70.0,57.0,133.0,2.1,2.11,-160,286,0,257,198,-279,161.86194586753845,161.8620252609253,161.8653781414032,161.87627792358398,162.0224609375,162.0224609375,162.0224609375,162.0224609375,162.0224609375,162.0224609375,162.0224609375,164.4344265460968,3,2.544628143310547,None,,,,,,,,,,,,,,,,,,239,1,2025-03-13_09h28.45.482,comp,2024.2.4,56.33484703793394,2025-03-13 09h28.55.355551 -0400,
49,49,0,critical,hwd,20.0,3.0,upper,200.0,125.0,125.0,200.0,141.0,141.0,2,2.954758405685425,None,,,,,0,0,0,0,0,49,49,105,164.44979429244995,,,,,,,,,,,,,,,,,,,,,,,,,,,,,,,,,,,,,,,,,,,,,,,,,,,,,,,,,,,,,,,,,,,,,,,,,,,,,,,,,200.0,125.0,125.0,200.0,141.0,141.0,3.0,3.1,-258,276,0,-17,266,-288,164.43622612953186,164.4363615512848,164.43934321403503,164.44979429244995,164.58782076835632,164.58782076835632,164.58782076835632,164.58782076835632,164.58782076835632,164.58782076835632,164.58782076835632,167.4082043170929,2,2.954758405685425,None,,,,,,,,,,,,,,,,,,239,1,2025-03-13_09h28.45.482,comp,2024.2.4,56.33484703793394,2025-03-13 09h28.55.355551 -0400,
50,50,0,filler_random,None,None,None,None,None,None,None,None,None,None,1,2.2992658615112305,None,,,,,0,0,0,0,0,50,50,130,167.42530608177185,,,,,,,,,,,,,,,,,,,,,,,,,,,,,,,,,,,,,,,,,,,,,,,,,,,,,,,,,,,,,,,,,,,,,,,,,,,,,,,,,141.907956345098,121.5242556435862,96.66637503309458,100.89758687880152,72.05928168550022,98.31402936641418,4.0,4.2,-207,7,0,-266,196,-2,167.41006779670715,167.41022849082947,167.41449689865112,167.42530608177185,167.57960152626038,167.57960152626038,167.57960152626038,167.57960152626038,167.57960152626038,167.57960152626038,167.57960152626038,169.74261379241943,1,2.2992658615112305,None,,,,,,,,,,,,,,,,,,239,1,2025-03-13_09h28.45.482,comp,2024.2.4,56.33484703793394,2025-03-13 09h28.55.355551 -0400,
51,51,0,critical,dhw,35.0,2.1,lower,70.0,70.0,133.0,57.0,57.0,133.0,3,2.1808841228485107,None,,,,,0,0,0,0,0,51,51,0,169.7598774433136,,,,,,,,,,,,,,,,,,,,,,,,,,,,,,,,,,,,,,,,,,,,,,,,,,,,,,,,,,,,,,,,,,,,,,,,,,,,,,,,,70.0,70.0,133.0,57.0,57.0,133.0,2.1,2.12,-160,-256,0,-271,191,272,169.74416089057922,169.74425745010376,169.74719905853271,169.7598774433136,169.90488982200623,169.90488982200623,169.90488982200623,169.90488982200623,169.90488982200623,169.90488982200623,169.90488982200623,171.94707226753235,3,2.1808841228485107,None,,,,,,,,,,,,,,,,,,239,1,2025-03-13_09h28.45.482,comp,2024.2.4,56.33484703793394,2025-03-13 09h28.55.355551 -0400,
52,52,0,critical,hdw,20.0,1.0,upper,200.0,125.0,141.0,141.0,125.0,200.0,1,3.037525177001953,None,,,,,0,0,0,0,0,52,52,115,171.96738004684448,,,,,,,,,,,,,,,,,,,,,,,,,,,,,,,,,,,,,,,,,,,,,,,,,,,,,,,,,,,,,,,,,,,,,,,,,,,,,,,,,200.0,125.0,141.0,141.0,125.0,200.0,1.0,1.1,-709,262,-480,284,-214,258,171.94862866401672,171.94870495796204,171.9516303539276,171.96738004684448,172.1095745563507,172.1095745563507,172.1095745563507,172.1095745563507,172.1095745563507,172.1095745563507,172.1095745563507,175.01714372634888,1,3.037525177001953,None,,,,,,,,,,,,,,,,,,239,1,2025-03-13_09h28.45.482,comp,2024.2.4,56.33484703793394,2025-03-13 09h28.55.355551 -0400,
53,53,0,filler_random,None,None,None,None,None,None,None,None,None,None,1,1.8551661968231201,None,,,,,0,0,0,0,0,53,53,143,175.03748297691345,,,,,,,,,,,,,,,,,,,,,,,,,,,,,,,,,,,,,,,,,,,,,,,,,,,,,,,,,,,,,,,,,,,,,,,,,,,,,,,,,107.05502397403485,193.8021513387014,69.8525385832059,94.3650741990275,166.17053222421725,79.48467792165339,4.0,4.1,-240,-258,0,-12,183,-289,175.0188045501709,175.0188810825348,175.0217480659485,175.03748297691345,175.17572784423828,175.17572784423828,175.17572784423828,175.17572784423828,175.17572784423828,175.17572784423828,175.17572784423828,176.89466953277588,1,1.8551661968231201,None,,,,,,,,,,,,,,,,,,239,1,2025-03-13_09h28.45.482,comp,2024.2.4,56.33484703793394,2025-03-13 09h28.55.355551 -0400,
54,54,0,critical,dwh,20.0,4.0,upper,141.0,141.0,125.0,200.0,200.0,125.0,2,3.1903066635131836,None,,,,,0,0,0,0,0,54,54,71,176.91053009033203,,,,,,,,,,,,,,,,,,,,,,,,,,,,,,,,,,,,,,,,,,,,,,,,,,,,,,,,,,,,,,,,,,,,,,,,,,,,,,,,,141.0,141.0,125.0,200.0,200.0,125.0,4.0,4.2,-266,-1,0,-256,258,6,176.89616441726685,176.8962686061859,176.89965558052063,176.91053009033203,177.06220149993896,177.06220149993896,177.06220149993896,177.06220149993896,177.06220149993896,177.06220149993896,177.06220149993896,180.112135887146,2,3.1903066635131836,None,,,,,,,,,,,,,,,,,,239,1,2025-03-13_09h28.45.482,comp,2024.2.4,56.33484703793394,2025-03-13 09h28.55.355551 -0400,
55,55,0,critical,hwd,35.0,1.0,lower,133.0,57.0,57.0,133.0,70.0,70.0,1,2.5530776977539062,None,,,,,0,0,0,0,0,55,55,96,180.1317000389099,,,,,,,,,,,,,,,,,,,,,,,,,,,,,,,,,,,,,,,,,,,,,,,,,,,,,,,,,,,,,,,,,,,,,,,,,,,,,,,,,133.0,57.0,57.0,133.0,70.0,70.0,1.0,1.3,289,-257,480,-252,678,-289,180.11366963386536,180.11374354362488,180.11704683303833,180.1317000389099,180.280348777771,180.280348777771,180.280348777771,180.280348777771,180.280348777771,180.280348777771,180.280348777771,182.6867778301239,1,2.5530776977539062,None,,,,,,,,,,,,,,,,,,239,1,2025-03-13_09h28.45.482,comp,2024.2.4,56.33484703793394,2025-03-13 09h28.55.355551 -0400,
56,56,0,critical,dwh,35.0,4.0,upper,127.0,127.0,125.0,200.0,200.0,125.0,2,2.1338696479797363,None,,,,,0,0,0,0,0,56,56,65,182.70345163345337,,,,,,,,,,,,,,,,,,,,,,,,,,,,,,,,,,,,,,,,,,,,,,,,,,,,,,,,,,,,,,,,,,,,,,,,,,,,,,,,,127.0,127.0,125.0,200.0,200.0,125.0,4.0,4.1,-260,-282,0,11,258,-261,182.68839645385742,182.6884732246399,182.69165444374084,182.70345163345337,182.84342455863953,182.84342455863953,182.84342455863953,182.84342455863953,182.84342455863953,182.84342455863953,182.84342455863953,184.84580278396606,2,2.1338696479797363,None,,,,,,,,,,,,,,,,,,239,1,2025-03-13_09h28.45.482,comp,2024.2.4,56.33484703793394,2025-03-13 09h28.55.355551 -0400,
57,57,0,critical,hdw,35.0,4.0,lower,133.0,57.0,70.0,70.0,57.0,133.0,1,1.9571573734283447,None,,,,,0,0,0,0,0,57,57,112,184.86440896987915,,,,,,,,,,,,,,,,,,,,,,,,,,,,,,,,,,,,,,,,,,,,,,,,,,,,,,,,,,,,,,,,,,,,,,,,,,,,,,,,,133.0,57.0,70.0,70.0,57.0,133.0,4.0,4.2,-160,1,0,-252,198,-2,184.84746956825256,184.84760546684265,184.85107827186584,184.86440896987915,185.01219749450684,185.01219749450684,185.01219749450684,185.01219749450684,185.01219749450684,185.01219749450684,185.01219749450684,186.82978415489197,1,1.9571573734283447,None,,,,,,,,,,,,,,,,,,239,1,2025-03-13_09h28.45.482,comp,2024.2.4,56.33484703793394,2025-03-13 09h28.55.355551 -0400,
58,58,0,catch,None,None,None,None,None,None,None,None,None,None,3,1.1481196880340576,None,,,,,0,0,0,0,0,58,58,125,186.84983825683594,,,,,,,,,,,,,,,,,,,,,,,,,,,,,,,,,,,,,,,,,,,,,,,,,,,,,,,,,,,,,,,,,,,,,,,,,,,,,,,,,85,105,70,120,141,184,2.1,2.12,-208,-263,0,-254,248,257,186.83159279823303,186.83166909217834,186.83443474769592,186.84983825683594,186.99678945541382,186.99678945541382,186.99678945541382,186.99678945541382,186.99678945541382,186.99678945541382,186.99678945541382,188.0005567073822,3,1.1481196880340576,None,,,,,,,,,,,,,,,,,,239,1,2025-03-13_09h28.45.482,comp,2024.2.4,56.33484703793394,2025-03-13 09h28.55.355551 -0400,
59,59,0,filler_random,None,None,None,None,None,None,None,None,None,None,2,1.8695659637451172,None,,,,,0,0,0,0,0,59,59,156,188.01520109176636,,,,,,,,,,,,,,,,,,,,,,,,,,,,,,,,,,,,,,,,,,,,,,,,,,,,,,,,,,,,,,,,,,,,,,,,,,,,,,,,,160.24656174146367,82.83925983733546,164.38146112755823,129.4648768612317,163.28998529757683,129.65683067200683,2.2,2.21,-202,-282,0,266,226,281,188.00239372253418,188.00247287750244,188.00530529022217,188.01520109176636,188.16292476654053,188.16292476654053,188.16292476654053,188.16292476654053,188.16292476654053,188.16292476654053,188.16292476654053,189.8992600440979,2,1.8695659637451172,None,,,,,,,,,,,,,,,,,,239,1,2025-03-13_09h28.45.482,comp,2024.2.4,56.33484703793394,2025-03-13 09h28.55.355551 -0400,
60,60,0,critical,hdw,20.0,4.0,upper,200.0,125.0,141.0,141.0,125.0,200.0,3,2.659360408782959,None,,,,,0,0,0,0,0,60,60,119,189.91451406478882,,,,,,,,,,,,,,,,,,,,,,,,,,,,,,,,,,,,,,,,,,,,,,,,,,,,,,,,,,,,,,,,,,,,,,,,,,,,,,,,,200.0,125.0,141.0,141.0,125.0,200.0,4.0,4.2,-229,-1,0,-290,266,-1,189.90080285072327,189.90090894699097,189.90419363975525,189.91451406478882,190.06894326210022,190.06894326210022,190.06894326210022,190.06894326210022,190.06894326210022,190.06894326210022,190.06894326210022,192.58275699615479,3,2.659360408782959,None,,,,,,,,,,,,,,,,,,239,1,2025-03-13_09h28.45.482,comp,2024.2.4,56.33484703793394,2025-03-13 09h28.55.355551 -0400,
61,61,0,filler_square,None,None,None,None,None,None,None,None,None,None,2,1.4057211875915527,None,,,,,0,0,0,0,0,61,61,198,192.5988130569458,,,,,,,,,,,,,,,,,,,,,,,,,,,,,,,,,,,,,,,,,,,,,,,,,,,,,,,,,,,,,,,,,,,,,,,,,,,,,,,,,89.95279358493323,100.5138516271488,137.33109428543912,137.33109428543912,100.89976422487113,103.26826922120893,2.2,2.21,-215,-272,0,265,216,261,192.5845296382904,192.58460927009583,192.5879774093628,192.5988130569458,192.74713492393494,192.74713492393494,192.74713492393494,192.74713492393494,192.74713492393494,192.74713492393494,192.74713492393494,194.01408052444458,2,1.4057211875915527,None,,,,,,,,,,,,,,,,,,239,1,2025-03-13_09h28.45.482,comp,2024.2.4,56.33484703793394,2025-03-13 09h28.55.355551 -0400,
62,62,0,critical,dhw,35.0,4.0,lower,70.0,70.0,133.0,57.0,57.0,133.0,3,1.8553893566131592,None,,,,,0,0,0,0,0,62,62,52,194.02981972694397,,,,,,,,,,,,,,,,,,,,,,,,,,,,,,,,,,,,,,,,,,,,,,,,,,,,,,,,,,,,,,,,,,,,,,,,,,,,,,,,,70.0,70.0,133.0,57.0,57.0,133.0,4.0,4.1,-160,-259,0,-18,191,-275,194.01556825637817,194.01564621925354,194.01846551895142,194.02981972694397,194.1703221797943,194.1703221797943,194.1703221797943,194.1703221797943,194.1703221797943,194.1703221797943,194.1703221797943,195.903240442276,3,1.8553893566131592,None,,,,,,,,,,,,,,,,,,239,1,2025-03-13_09h28.45.482,comp,2024.2.4,56.33484703793394,2025-03-13 09h28.55.355551 -0400,
63,63,0,critical,whd,35.0,3.0,upper,125.0,200.0,200.0,125.0,127.0,127.0,1,2.005563259124756,None,,,,,0,0,0,0,0,63,63,87,195.91903614997864,,,,,,,,,,,,,,,,,,,,,,,,,,,,,,,,,,,,,,,,,,,,,,,,,,,,,,,,,,,,,,,,,,,,,,,,,,,,,,,,,125.0,200.0,200.0,125.0,127.0,127.0,3.0,3.1,-258,261,0,-9,222,-289,195.90488052368164,195.90495944023132,195.90783786773682,195.91903614997864,196.0716574192047,196.0716574192047,196.0716574192047,196.0716574192047,196.0716574192047,196.0716574192047,196.0716574192047,197.9349365234375,1,2.005563259124756,None,,,,,,,,,,,,,,,,,,239,1,2025-03-13_09h28.45.482,comp,2024.2.4,56.33484703793394,2025-03-13 09h28.55.355551 -0400,
64,64,0,filler_random,None,None,None,None,None,None,None,None,None,None,2,2.116273880004883,None,,,,,0,0,0,0,0,64,64,160,197.95227932929993,,,,,,,,,,,,,,,,,,,,,,,,,,,,,,,,,,,,,,,,,,,,,,,,,,,,,,,,,,,,,,,,,,,,,,,,,,,,,,,,,82.70594642510365,99.76960464080778,134.2855059965608,65.40800123602915,86.98594981460434,62.45488822998613,2.2,2.21,-179,-287,0,267,160,284,197.9366316795349,197.93672060966492,197.94071507453918,197.95227932929993,198.1011278629303,198.1011278629303,198.1011278629303,198.1011278629303,198.1011278629303,198.1011278629303,198.1011278629303,200.08529353141785,2,2.116273880004883,None,,,,,,,,,,,,,,,,,,239,1,2025-03-13_09h28.45.482,comp,2024.2.4,56.33484703793394,2025-03-13 09h28.55.355551 -0400,
65,65,0,critical,wdh,35.0,4.0,upper,125.0,200.0,127.0,127.0,200.0,125.0,3,2.503282308578491,None,,,,,0,0,0,0,0,65,65,77,200.10132789611816,,,,,,,,,,,,,,,,,,,,,,,,,,,,,,,,,,,,,,,,,,,,,,,,,,,,,,,,,,,,,,,,,,,,,,,,,,,,,,,,,125.0,200.0,127.0,127.0,200.0,125.0,4.0,4.1,-260,-251,0,1,222,-257,200.08677768707275,200.08685541152954,200.09082579612732,200.10132789611816,200.2499213218689,200.2499213218689,200.2499213218689,200.2499213218689,200.2499213218689,200.2499213218689,200.2499213218689,202.6198320388794,3,2.503282308578491,None,,,,,,,,,,,,,,,,,,239,1,2025-03-13_09h28.45.482,comp,2024.2.4,56.33484703793394,2025-03-13 09h28.55.355551 -0400,
66,66,0,filler_random,None,None,None,None,None,None,None,None,None,None,2,1.9693660736083984,None,,,,,0,0,0,0,0,66,66,148,202.6352517604828,,,,,,,,,,,,,,,,,,,,,,,,,,,,,,,,,,,,,,,,,,,,,,,,,,,,,,,,,,,,,,,,,,,,,,,,,,,,,,,,,66.88399286789274,127.46306096404683,91.07989633775267,146.9259440657172,114.9540093080021,115.48063766337854,3.0,3.2,-233,-258,0,3,227,263,202.62152099609375,202.62162375450134,202.62490153312683,202.6352517604828,202.783709526062,202.783709526062,202.783709526062,202.783709526062,202.783709526062,202.783709526062,202.783709526062,204.62114834785461,2,1.9693660736083984,None,,,,,,,,,,,,,,,,,,239,1,2025-03-13_09h28.45.482,comp,2024.2.4,56.33484703793394,2025-03-13 09h28.55.355551 -0400,
67,67,0,filler_square,None,None,None,None,None,None,None,None,None,None,1,2.327514886856079,None,,,,,0,0,0,0,0,67,67,203,204.63792610168457,,,,,,,,,,,,,,,,,,,,,,,,,,,,,,,,,,,,,,,,,,,,,,,,,,,,,,,,,,,,,,,,,,,,,,,,,,,,,,,,,164.4518128939484,164.4518128939484,150.86386638515927,84.76789456440252,117.97060382059206,119.29452557122293,2.1,2.11,-221,288,0,268,198,-263,204.6232886314392,204.62336349487305,204.6265971660614,204.63792610168457,204.78196334838867,204.78196334838867,204.78196334838867,204.78196334838867,204.78196334838867,204.78196334838867,204.78196334838867,206.97354793548584,1,2.327514886856079,None,,,,,,,,,,,,,,,,,,239,1,2025-03-13_09h28.45.482,comp,2024.2.4,56.33484703793394,2025-03-13 09h28.55.355551 -0400,
68,68,0,critical,hdw,35.0,1.0,lower,133.0,57.0,70.0,70.0,57.0,133.0,1,1.966620683670044,None,,,,,0,0,0,0,0,68,68,108,206.99004745483398,,,,,,,,,,,,,,,,,,,,,,,,,,,,,,,,,,,,,,,,,,,,,,,,,,,,,,,,,,,,,,,,,,,,,,,,,,,,,,,,,133.0,57.0,70.0,70.0,57.0,133.0,1.0,1.1,-640,275,-480,270,-282,256,206.97503566741943,206.97509145736694,206.97729229927063,206.99004745483398,207.13641834259033,207.13641834259033,207.13641834259033,207.13641834259033,207.13641834259033,207.13641834259033,207.13641834259033,208.97726607322693,1,1.966620683670044,None,,,,,,,,,,,,,,,,,,239,1,2025-03-13_09h28.45.482,comp,2024.2.4,56.33484703793394,2025-03-13 09h28.55.355551 -0400,
69,69,0,critical,whd,20.0,2.1,lower,57.0,133.0,133.0,57.0,78.0,78.0,2,2.5141289234161377,None,,,,,0,0,0,0,0,69,69,38,208.99436688423157,,,,,,,,,,,,,,,,,,,,,,,,,,,,,,,,,,,,,,,,,,,,,,,,,,,,,,,,,,,,,,,,,,,,,,,,,,,,,,,,,57.0,133.0,133.0,57.0,78.0,78.0,2.1,2.11,-191,261,0,282,164,-252,208.978773355484,208.97885036468506,208.9816770553589,208.99436688423157,209.13685154914856,209.13685154914856,209.13685154914856,209.13685154914856,209.13685154914856,209.13685154914856,209.13685154914856,211.52361178398132,2,2.5141289234161377,None,,,,,,,,,,,,,,,,,,239,1,2025-03-13_09h28.45.482,comp,2024.2.4,56.33484703793394,2025-03-13 09h28.55.355551 -0400,
70,70,0,catch,None,None,None,None,None,None,None,None,None,None,1,1.297330617904663,None,,,,,0,0,0,0,0,70,70,126,211.53992199897766,,,,,,,,,,,,,,,,,,,,,,,,,,,,,,,,,,,,,,,,,,,,,,,,,,,,,,,,,,,,,,,,,,,,,,,,,,,,,,,,,137,188,86,104,93,97,2.2,2.21,-242,-269,0,270,196,283,211.52567052841187,211.5257489681244,211.5290343761444,211.53992199897766,211.68876814842224,211.68876814842224,211.68876814842224,211.68876814842224,211.68876814842224,211.68876814842224,211.68876814842224,212.8461573123932,1,1.297330617904663,None,,,,,,,,,,,,,,,,,,239,1,2025-03-13_09h28.45.482,comp,2024.2.4,56.33484703793394,2025-03-13 09h28.55.355551 -0400,
71,71,0,filler_random,None,None,None,None,None,None,None,None,None,None,1,2.148984909057617,None,,,,,0,0,0,0,0,71,71,152,212.86378931999207,,,,,,,,,,,,,,,,,,,,,,,,,,,,,,,,,,,,,,,,,,,,,,,,,,,,,,,,,,,,,,,,,,,,,,,,,,,,,,,,,109.66049980555745,172.72900327829097,76.80995330799243,194.18947404936876,172.65954132010654,80.73261798119822,3.0,3.1,-279,265,0,15,233,-283,212.84778261184692,212.84785532951355,212.8506350517273,212.86378931999207,213.00604248046875,213.00604248046875,213.00604248046875,213.00604248046875,213.00604248046875,213.00604248046875,213.00604248046875,215.02851128578186,1,2.148984909057617,None,,,,,,,,,,,,,,,,,,239,1,2025-03-13_09h28.45.482,comp,2024.2.4,56.33484703793394,2025-03-13 09h28.55.355551 -0400,
72,72,0,filler_square,None,None,None,None,None,None,None,None,None,None,2,3.080333948135376,None,,,,,0,0,0,0,0,72,72,205,215.04427981376648,,,,,,,,,,,,,,,,,,,,,,,,,,,,,,,,,,,,,,,,,,,,,,,,,,,,,,,,,,,,,,,,,,,,,,,,,,,,,,,,,57.522194583037304,58.62576626986228,58.41057688713682,60.869018617382146,61.35419947971367,61.35419947971367,2.1,2.12,-156,-254,0,-254,157,270,215.03019785881042,215.03027629852295,215.03301548957825,215.04427981376648,215.19016361236572,215.19016361236572,215.19016361236572,215.19016361236572,215.19016361236572,215.19016361236572,215.19016361236572,218.13968110084534,2,3.080333948135376,None,,,,,,,,,,,,,,,,,,239,1,2025-03-13_09h28.45.482,comp,2024.2.4,56.33484703793394,2025-03-13 09h28.55.355551 -0400,
73,73,0,filler_random,None,None,None,None,None,None,None,None,None,None,2,1.3691396713256836,None,,,,,0,0,0,0,0,73,73,159,218.15586757659912,,,,,,,,,,,,,,,,,,,,,,,,,,,,,,,,,,,,,,,,,,,,,,,,,,,,,,,,,,,,,,,,,,,,,,,,,,,,,,,,,120.22468442568567,123.78435625928343,165.41827512382423,162.24165686200055,140.95950048849363,96.22673077423775,3.0,3.2,-239,-265,0,13,225,284,218.14152264595032,218.14162397384644,218.1450595855713,218.15586757659912,218.31262254714966,218.31262254714966,218.31262254714966,218.31262254714966,218.31262254714966,218.31262254714966,218.31262254714966,219.526997089386,2,1.3691396713256836,None,,,,,,,,,,,,,,,,,,239,1,2025-03-13_09h28.45.482,comp,2024.2.4,56.33484703793394,2025-03-13 09h28.55.355551 -0400,
74,74,0,critical,hdw,20.0,3.0,lower,133.0,57.0,78.0,78.0,57.0,133.0,3,2.2211265563964844,None,,,,,0,0,0,0,0,74,74,116,219.54342103004456,,,,,,,,,,,,,,,,,,,,,,,,,,,,,,,,,,,,,,,,,,,,,,,,,,,,,,,,,,,,,,,,,,,,,,,,,,,,,,,,,133.0,57.0,78.0,78.0,57.0,133.0,3.0,3.2,-164,-263,0,18,202,280,219.5287163257599,219.52879667282104,219.53259992599487,219.54342103004456,219.69095063209534,219.69095063209534,219.69095063209534,219.69095063209534,219.69095063209534,219.69095063209534,219.69095063209534,221.7745316028595,3,2.2211265563964844,None,,,,,,,,,,,,,,,,,,239,1,2025-03-13_09h28.45.482,comp,2024.2.4,56.33484703793394,2025-03-13 09h28.55.355551 -0400,
75,75,0,critical,wdh,35.0,3.0,lower,57.0,133.0,70.0,70.0,133.0,57.0,1,2.799607038497925,None,,,,,0,0,0,0,0,75,75,74,221.78988242149353,,,,,,,,,,,,,,,,,,,,,,,,,,,,,,,,,,,,,,,,,,,,,,,,,,,,,,,,,,,,,,,,,,,,,,,,,,,,,,,,,57.0,133.0,70.0,70.0,133.0,57.0,3.0,3.2,-198,-265,0,-11,160,266,221.77594685554504,221.77602076530457,221.7790229320526,221.78988242149353,221.94145607948303,221.94145607948303,221.94145607948303,221.94145607948303,221.94145607948303,221.94145607948303,221.94145607948303,224.59639358520508,1,2.799607038497925,None,,,,,,,,,,,,,,,,,,239,1,2025-03-13_09h28.45.482,comp,2024.2.4,56.33484703793394,2025-03-13 09h28.55.355551 -0400,
76,76,0,filler_random,None,None,None,None,None,None,None,None,None,None,2,2.380509614944458,None,,,,,0,0,0,0,0,76,76,133,224.61625409126282,,,,,,,,,,,,,,,,,,,,,,,,,,,,,,,,,,,,,,,,,,,,,,,,,,,,,,,,,,,,,,,,,,,,,,,,,,,,,,,,,186.07641935969758,157.83233845101728,197.74758112505828,199.16108026125235,74.64216388298587,187.88875044353082,1.0,1.3,206,-281,480,-279,770,-268,224.59814620018005,224.59824562072754,224.60098028182983,224.61625409126282,224.76662683486938,224.76662683486938,224.76662683486938,224.76662683486938,224.76662683486938,224.76662683486938,224.76662683486938,227.0081181526184,2,2.380509614944458,None,,,,,,,,,,,,,,,,,,239,1,2025-03-13_09h28.45.482,comp,2024.2.4,56.33484703793394,2025-03-13 09h28.55.355551 -0400,
77,77,0,filler_random,None,None,None,None,None,None,None,None,None,None,1,2.080636978149414,None,,,,,0,0,0,0,0,77,77,138,227.02816772460938,,,,,,,,,,,,,,,,,,,,,,,,,,,,,,,,,,,,,,,,,,,,,,,,,,,,,,,,,,,,,,,,,,,,,,,,,,,,,,,,,175.45792998544476,176.3866790823786,92.25243573615396,110.37813264630974,137.72798943635394,159.83467149605843,1.0,1.3,241,-282,480,-284,711,-287,227.00981283187866,227.00988793373108,227.0128002166748,227.02816772460938,227.17629837989807,227.17629837989807,227.17629837989807,227.17629837989807,227.17629837989807,227.17629837989807,227.17629837989807,229.1114194393158,1,2.080636978149414,None,,,,,,,,,,,,,,,,,,239,1,2025-03-13_09h28.45.482,comp,2024.2.4,56.33484703793394,2025-03-13 09h28.55.355551 -0400,
78,78,0,catch,None,None,None,None,None,None,None,None,None,None,2,1.8272626399993896,None,,,,,0,0,0,0,0,78,78,128,229.12973499298096,,,,,,,,,,,,,,,,,,,,,,,,,,,,,,,,,,,,,,,,,,,,,,,,,,,,,,,,,,,,,,,,,,,,,,,,,,,,,,,,,124,66,143,182,105,85,1.0,1.1,-700,278,-480,255,-250,286,229.11322927474976,229.11332488059998,229.11647510528564,229.12973499298096,229.27699732780457,229.27699732780457,229.27699732780457,229.27699732780457,229.27699732780457,229.27699732780457,229.27699732780457,230.9602336883545,2,1.8272626399993896,None,,,,,,,,,,,,,,,,,,239,1,2025-03-13_09h28.45.482,comp,2024.2.4,56.33484703793394,2025-03-13 09h28.55.355551 -0400,
79,79,0,filler_square,None,None,None,None,None,None,None,None,None,None,2,3.0797698497772217,None,,,,,0,0,0,0,0,79,79,191,230.98109674453735,,,,,,,,,,,,,,,,,,,,,,,,,,,,,,,,,,,,,,,,,,,,,,,,,,,,,,,,,,,,,,,,,,,,,,,,,,,,,,,,,171.389754357786,171.389754357786,165.91165477635306,167.58101193803134,92.65807094657282,87.36280730660269,2.1,2.11,-265,253,0,288,223,-265,230.9621615409851,230.96227025985718,230.96569895744324,230.98109674453735,231.1286392211914,231.1286392211914,231.1286392211914,231.1286392211914,231.1286392211914,231.1286392211914,231.1286392211914,234.077401638031,2,3.0797698497772217,None,,,,,,,,,,,,,,,,,,239,1,2025-03-13_09h28.45.482,comp,2024.2.4,56.33484703793394,2025-03-13 09h28.55.355551 -0400,
80,80,0,catch,None,None,None,None,None,None,None,None,None,None,2,1.5502662658691406,None,,,,,0,0,0,0,0,80,80,123,234.09436464309692,,,,,,,,,,,,,,,,,,,,,,,,,,,,,,,,,,,,,,,,,,,,,,,,,,,,,,,,,,,,,,,,,,,,,,,,,,,,,,,,,129,61,173,152,105,85,2.1,2.12,-202,-286,0,-262,214,277,234.07948851585388,234.0795660018921,234.0827555656433,234.09436464309692,234.24339270591736,234.24339270591736,234.24339270591736,234.24339270591736,234.24339270591736,234.24339270591736,234.24339270591736,235.66170263290405,2,1.5502662658691406,None,,,,,,,,,,,,,,,,,,239,1,2025-03-13_09h28.45.482,comp,2024.2.4,56.33484703793394,2025-03-13 09h28.55.355551 -0400,
81,81,0,critical,hwd,20.0,4.0,upper,200.0,125.0,125.0,200.0,141.0,141.0,1,2.2067513465881348,None,,,,,0,0,0,0,0,81,81,107,235.67794275283813,,,,,,,,,,,,,,,,,,,,,,,,,,,,,,,,,,,,,,,,,,,,,,,,,,,,,,,,,,,,,,,,,,,,,,,,,,,,,,,,,200.0,125.0,125.0,200.0,141.0,141.0,4.0,4.1,-258,-272,0,7,266,-268,235.66328501701355,235.66335892677307,235.6666498184204,235.67794275283813,235.82825326919556,235.82825326919556,235.82825326919556,235.82825326919556,235.82825326919556,235.82825326919556,235.82825326919556,237.8977131843567,1,2.2067513465881348,None,,,,,,,,,,,,,,,,,,239,1,2025-03-13_09h28.45.482,comp,2024.2.4,56.33484703793394,2025-03-13 09h28.55.355551 -0400,
82,82,0,filler_square,None,None,None,None,None,None,None,None,None,None,2,1.8100183010101318,None,,,,,0,0,0,0,0,82,82,186,237.91514992713928,,,,,,,,,,,,,,,,,,,,,,,,,,,,,,,,,,,,,,,,,,,,,,,,,,,,,,,,,,,,,,,,,,,,,,,,,,,,,,,,,77.35228261098574,87.62518412657556,169.3142913033871,169.3142913033871,145.43309650712018,119.13914516360441,4.0,4.2,-224,13,0,-266,240,4,237.89977312088013,237.89985346794128,237.90326189994812,237.91514992713928,238.06390857696533,238.06390857696533,238.06390857696533,238.06390857696533,238.06390857696533,238.06390857696533,238.06390857696533,239.7310471534729,2,1.8100183010101318,None,,,,,,,,,,,,,,,,,,239,1,2025-03-13_09h28.45.482,comp,2024.2.4,56.33484703793394,2025-03-13 09h28.55.355551 -0400,
83,83,0,filler_square,None,None,None,None,None,None,None,None,None,None,1,2.560389757156372,None,,,,,0,0,0,0,0,83,83,195,239.74831581115723,,,,,,,,,,,,,,,,,,,,,,,,,,,,,,,,,,,,,,,,,,,,,,,,,,,,,,,,,,,,,,,,,,,,,,,,,,,,,,,,,108.62318365305094,108.62318365305094,81.04442311873747,87.82652943461574,64.70260388926977,84.64035717685519,2.2,2.22,-194,289,0,-272,182,-275,239.73284268379211,239.73292064666748,239.7361273765564,239.74831581115723,239.8968493938446,239.8968493938446,239.8968493938446,239.8968493938446,239.8968493938446,239.8968493938446,239.8968493938446,242.32598090171814,1,2.560389757156372,None,,,,,,,,,,,,,,,,,,239,1,2025-03-13_09h28.45.482,comp,2024.2.4,56.33484703793394,2025-03-13 09h28.55.355551 -0400,
84,84,0,filler_square,None,None,None,None,None,None,None,None,None,None,2,1.3998665809631348,None,,,,,0,0,0,0,0,84,84,189,242.3424928188324,,,,,,,,,,,,,,,,,,,,,,,,,,,,,,,,,,,,,,,,,,,,,,,,,,,,,,,,,,,,,,,,,,,,,,,,,,,,,,,,,71.08015725405674,60.60829029284415,132.73516366559312,132.73516366559312,106.22126495683568,95.65706026265254,4.0,4.1,-193,-280,0,-16,210,-276,242.32792735099792,242.3280165195465,242.33125352859497,242.3424928188324,242.47980952262878,242.47980952262878,242.47980952262878,242.47980952262878,242.47980952262878,242.47980952262878,242.47980952262878,243.74742722511292,2,1.3998665809631348,None,,,,,,,,,,,,,,,,,,239,1,2025-03-13_09h28.45.482,comp,2024.2.4,56.33484703793394,2025-03-13 09h28.55.355551 -0400,
85,85,0,filler_random,None,None,None,None,None,None,None,None,None,None,2,1.2886500358581543,None,,,,,0,0,0,0,0,85,85,149,243.7640573978424,,,,,,,,,,,,,,,,,,,,,,,,,,,,,,,,,,,,,,,,,,,,,,,,,,,,,,,,,,,,,,,,,,,,,,,,,,,,,,,,,104.86251011045852,99.18534196726907,189.62668462928747,160.347316578961,133.47722168552016,106.69633906291037,2.2,2.22,-226,278,0,-270,230,-253,243.74905920028687,243.7491364479065,243.7521288394928,243.7640573978424,243.91480207443237,243.91480207443237,243.91480207443237,243.91480207443237,243.91480207443237,243.91480207443237,243.91480207443237,245.06532430648804,2,1.2886500358581543,None,,,,,,,,,,,,,,,,,,239,1,2025-03-13_09h28.45.482,comp,2024.2.4,56.33484703793394,2025-03-13 09h28.55.355551 -0400,
86,86,0,filler_square,None,None,None,None,None,None,None,None,None,None,3,3.403902053833008,None,,,,,0,0,0,0,0,86,86,181,245.08095598220825,,,,,,,,,,,,,,,,,,,,,,,,,,,,,,,,,,,,,,,,,,,,,,,,,,,,,,,,,,,,,,,,,,,,,,,,,,,,,,,,,66.86786512136982,66.86786512136982,57.78964773037828,65.79375762840392,61.8448567849733,58.15779110796368,2.2,2.21,-162,-284,0,284,158,259,245.0670554637909,245.0671329498291,245.0701880455017,245.08095598220825,245.23159193992615,245.23159193992615,245.23159193992615,245.23159193992615,245.23159193992615,245.23159193992615,245.23159193992615,248.4869875907898,3,3.403902053833008,None,,,,,,,,,,,,,,,,,,239,1,2025-03-13_09h28.45.482,comp,2024.2.4,56.33484703793394,2025-03-13 09h28.55.355551 -0400,
87,87,0,critical,hwd,20.0,1.0,upper,200.0,125.0,125.0,200.0,141.0,141.0,2,4.075261116027832,None,,,,,0,0,0,0,0,87,87,103,248.50550174713135,,,,,,,,,,,,,,,,,,,,,,,,,,,,,,,,,,,,,,,,,,,,,,,,,,,,,,,,,,,,,,,,,,,,,,,,,,,,,,,,,200.0,125.0,125.0,200.0,141.0,141.0,1.0,1.3,222,-264,480,-281,746,-283,248.48859858512878,248.488676071167,248.4915087223053,248.50550174713135,248.6492784023285,248.6492784023285,248.6492784023285,248.6492784023285,248.6492784023285,248.6492784023285,248.6492784023285,252.58478236198425,2,4.075261116027832,None,,,,,,,,,,,,,,,,,,239,1,2025-03-13_09h28.45.482,comp,2024.2.4,56.33484703793394,2025-03-13 09h28.55.355551 -0400,
88,88,0,catch,None,None,None,None,None,None,None,None,None,None,2,2.2819128036499023,None,,,,,0,0,0,0,0,88,88,124,252.60282588005066,,,,,,,,,,,,,,,,,,,,,,,,,,,,,,,,,,,,,,,,,,,,,,,,,,,,,,,,,,,,,,,,,,,,,,,,,,,,,,,,,86,104,199,126,112,78,2.1,2.11,-211,264,0,264,198,-277,252.58661651611328,252.58669567108154,252.58972096443176,252.60282588005066,252.75503396987915,252.75503396987915,252.75503396987915,252.75503396987915,252.75503396987915,252.75503396987915,252.75503396987915,254.90443468093872,2,2.2819128036499023,None,,,,,,,,,,,,,,,,,,239,1,2025-03-13_09h28.45.482,comp,2024.2.4,56.33484703793394,2025-03-13 09h28.55.355551 -0400,
89,89,0,catch,None,None,None,None,None,None,None,None,None,None,3,1.6608612537384033,None,,,,,0,0,0,0,0,89,89,129,254.92058610916138,,,,,,,,,,,,,,,,,,,,,,,,,,,,,,,,,,,,,,,,,,,,,,,,,,,,,,,,,,,,,,,,,,,,,,,,,,,,,,,,,97,93,61,129,187,138,2.1,2.12,-207,-278,0,-280,230,281,254.90684270858765,254.90692114830017,254.9102213382721,254.92058610916138,255.06815767288208,255.06815767288208,255.06815767288208,255.06815767288208,255.06815767288208,255.06815767288208,255.06815767288208,256.5882432460785,3,1.6608612537384033,None,,,,,,,,,,,,,,,,,,239,1,2025-03-13_09h28.45.482,comp,2024.2.4,56.33484703793394,2025-03-13 09h28.55.355551 -0400,
90,90,0,critical,dhw,35.0,3.0,lower,70.0,70.0,133.0,57.0,57.0,133.0,3,2.3835790157318115,None,,,,,0,0,0,0,0,90,90,50,256.6054675579071,,,,,,,,,,,,,,,,,,,,,,,,,,,,,,,,,,,,,,,,,,,,,,,,,,,,,,,,,,,,,,,,,,,,,,,,,,,,,,,,,70.0,70.0,133.0,57.0,57.0,133.0,3.0,3.1,-160,266,0,1,191,-271,256.5899603366852,256.5900409221649,256.59388422966003,256.6054675579071,256.75736713409424,256.75736713409424,256.75736713409424,256.75736713409424,256.75736713409424,256.75736713409424,256.75736713409424,259.0054895877838,3,2.3835790157318115,None,,,,,,,,,,,,,,,,,,239,1,2025-03-13_09h28.45.482,comp,2024.2.4,56.33484703793394,2025-03-13 09h28.55.355551 -0400,
91,91,0,critical,wdh,35.0,2.1,upper,125.0,200.0,127.0,127.0,200.0,125.0,3,2.752228021621704,None,,,,,0,0,0,0,0,91,91,9,259.02059674263,,,,,,,,,,,,,,,,,,,,,,,,,,,,,,,,,,,,,,,,,,,,,,,,,,,,,,,,,,,,,,,,,,,,,,,,,,,,,,,,,125.0,200.0,127.0,127.0,200.0,125.0,2.1,2.11,-260,274,0,275,222,-257,259.0070791244507,259.00715732574463,259.0102860927582,259.02059674263,259.1701238155365,259.1701238155365,259.1701238155365,259.1701238155365,259.1701238155365,259.1701238155365,259.1701238155365,261.77639174461365,3,2.752228021621704,None,,,,,,,,,,,,,,,,,,239,1,2025-03-13_09h28.45.482,comp,2024.2.4,56.33484703793394,2025-03-13 09h28.55.355551 -0400,
92,92,0,critical,hdw,35.0,4.0,upper,200.0,125.0,127.0,127.0,125.0,200.0,1,1.530928134918213,None,,,,,0,0,0,0,0,92,92,113,261.7938325405121,,,,,,,,,,,,,,,,,,,,,,,,,,,,,,,,,,,,,,,,,,,,,,,,,,,,,,,,,,,,,,,,,,,,,,,,,,,,,,,,,200.0,125.0,127.0,127.0,125.0,200.0,4.0,4.2,-222,-7,0,-284,260,-2,261.77780866622925,261.7778813838959,261.78075981140137,261.7938325405121,261.9382634162903,261.9382634162903,261.9382634162903,261.9382634162903,261.9382634162903,261.9382634162903,261.9382634162903,263.33766317367554,1,1.530928134918213,None,,,,,,,,,,,,,,,,,,239,1,2025-03-13_09h28.45.482,comp,2024.2.4,56.33484703793394,2025-03-13 09h28.55.355551 -0400,
93,93,0,filler_square,None,None,None,None,None,None,None,None,None,None,2,1.1827309131622314,None,,,,,0,0,0,0,0,93,93,194,263.3579912185669,,,,,,,,,,,,,,,,,,,,,,,,,,,,,,,,,,,,,,,,,,,,,,,,,,,,,,,,,,,,,,,,,,,,,,,,,,,,,,,,,72.1735306041072,67.60466941748406,111.21238712502651,111.21238712502651,97.02263646001803,61.7822933520871,2.1,2.12,-185,-268,0,-282,182,269,263.3394010066986,263.33947491645813,263.34258127212524,263.3579912185669,263.5050356388092,263.5050356388092,263.5050356388092,263.5050356388092,263.5050356388092,263.5050356388092,263.5050356388092,264.55415415763855,2,1.1827309131622314,None,,,,,,,,,,,,,,,,,,239,1,2025-03-13_09h28.45.482,comp,2024.2.4,56.33484703793394,2025-03-13 09h28.55.355551 -0400,
94,94,0,critical,wdh,20.0,3.0,lower,57.0,133.0,78.0,78.0,133.0,57.0,1,2.3182945251464844,None,,,,,0,0,0,0,0,94,94,80,264.5744092464447,,,,,,,,,,,,,,,,,,,,,,,,,,,,,,,,,,,,,,,,,,,,,,,,,,,,,,,,,,,,,,,,,,,,,,,,,,,,,,,,,57.0,133.0,78.0,78.0,133.0,57.0,3.0,3.2,-202,-261,0,-16,164,286,264.55573558807373,264.55580854415894,264.55924582481384,264.5744092464447,264.7214422225952,264.7214422225952,264.7214422225952,264.7214422225952,264.7214422225952,264.7214422225952,264.7214422225952,266.9065647125244,1,2.3182945251464844,None,,,,,,,,,,,,,,,,,,239,1,2025-03-13_09h28.45.482,comp,2024.2.4,56.33484703793394,2025-03-13 09h28.55.355551 -0400,
95,95,0,filler_random,None,None,None,None,None,None,None,None,None,None,1,1.6339712142944336,None,,,,,0,0,0,0,0,95,95,155,266.9227137565613,,,,,,,,,,,,,,,,,,,,,,,,,,,,,,,,,,,,,,,,,,,,,,,,,,,,,,,,,,,,,,,,,,,,,,,,,,,,,,,,,168.17833096986172,171.0121464826351,153.60194232374542,73.67369658996846,196.19294081514158,131.3365898907632,4.0,4.1,-218,-251,0,15,199,-274,266.9082934856415,266.9084098339081,266.91230034828186,266.9227137565613,267.0741081237793,267.0741081237793,267.0741081237793,267.0741081237793,267.0741081237793,267.0741081237793,267.0741081237793,268.5728495121002,1,1.6339712142944336,None,,,,,,,,,,,,,,,,,,239,1,2025-03-13_09h28.45.482,comp,2024.2.4,56.33484703793394,2025-03-13 09h28.55.355551 -0400,
96,96,0,critical,wdh,20.0,1.0,upper,125.0,200.0,141.0,141.0,200.0,125.0,1,3.000577688217163,None,,,,,0,0,0,0,0,96,96,79,268.5888080596924,,,,,,,,,,,,,,,,,,,,,,,,,,,,,,,,,,,,,,,,,,,,,,,,,,,,,,,,,,,,,,,,,,,,,,,,,,,,,,,,,125.0,200.0,141.0,141.0,200.0,125.0,1.0,1.3,214,-283,480,-273,709,-253,268.5743844509125,268.57446098327637,268.5784447193146,268.5888080596924,268.7392272949219,268.7392272949219,268.7392272949219,268.7392272949219,268.7392272949219,268.7392272949219,268.7392272949219,271.59843945503235,1,3.000577688217163,None,,,,,,,,,,,,,,,,,,239,1,2025-03-13_09h28.45.482,comp,2024.2.4,56.33484703793394,2025-03-13 09h28.55.355551 -0400,
97,97,0,filler_random,None,None,None,None,None,None,None,None,None,None,3,1.4551961421966553,None,,,,,0,0,0,0,0,97,97,140,271.61446142196655,,,,,,,,,,,,,,,,,,,,,,,,,,,,,,,,,,,,,,,,,,,,,,,,,,,,,,,,,,,,,,,,,,,,,,,,,,,,,,,,,67.16251952709761,167.64555690613366,129.26072050501313,171.28450219562077,119.14044205012905,170.74542914848774,2.1,2.12,-265,-275,0,-258,267,275,271.6001467704773,271.6002826690674,271.60346817970276,271.61446142196655,271.7623038291931,271.7623038291931,271.7623038291931,271.7623038291931,271.7623038291931,271.7623038291931,271.7623038291931,273.0775992870331,3,1.4551961421966553,None,,,,,,,,,,,,,,,,,,239,1,2025-03-13_09h28.45.482,comp,2024.2.4,56.33484703793394,2025-03-13 09h28.55.355551 -0400,
98,98,0,filler_square,None,None,None,None,None,None,None,None,None,None,3,1.5009679794311523,None,,,,,0,0,0,0,0,98,98,190,273.09571170806885,,,,,,,,,,,,,,,,,,,,,,,,,,,,,,,,,,,,,,,,,,,,,,,,,,,,,,,,,,,,,,,,,,,,,,,,,,,,,,,,,119.93340750878232,61.958216503003456,66.34387421047644,74.80749947967414,143.8815979860243,143.8815979860243,4.0,4.2,-164,8,0,-262,205,-18,273.07937717437744,273.0794792175293,273.08268547058105,273.09571170806885,273.23850178718567,273.23850178718567,273.23850178718567,273.23850178718567,273.23850178718567,273.23850178718567,273.23850178718567,274.6100356578827,3,1.5009679794311523,None,,,,,,,,,,,,,,,,,,239,1,2025-03-13_09h28.45.482,comp,2024.2.4,56.33484703793394,2025-03-13 09h28.55.355551 -0400,
99,99,0,filler_random,None,None,None,None,None,None,None,None,None,None,2,1.4504272937774658,None,,,,,0,0,0,0,0,99,99,144,274.6262717247009,,,,,,,,,,,,,,,,,,,,,,,,,,,,,,,,,,,,,,,,,,,,,,,,,,,,,,,,,,,,,,,,,,,,,,,,,,,,,,,,,115.3225784834082,60.4788829394421,187.5088960004502,80.97377787049399,167.6143544983259,99.78367864966728,4.0,4.2,-167,12,0,-274,186,14,274.6118133068085,274.6119215488434,274.6149311065674,274.6262717247009,274.77449917793274,274.77449917793274,274.77449917793274,274.77449917793274,274.77449917793274,274.77449917793274,274.77449917793274,276.09306740760803,2,1.4504272937774658,None,,,,,,,,,,,,,,,,,,239,1,2025-03-13_09h28.45.482,comp,2024.2.4,56.33484703793394,2025-03-13 09h28.55.355551 -0400,
100,100,0,critical,hdw,35.0,2.1,lower,133.0,57.0,70.0,70.0,57.0,133.0,3,2.280186176300049,None,,,,,0,0,0,0,0,100,100,44,276.1089234352112,,,,,,,,,,,,,,,,,,,,,,,,,,,,,,,,,,,,,,,,,,,,,,,,,,,,,,,,,,,,,,,,,,,,,,,,,,,,,,,,,133.0,57.0,70.0,70.0,57.0,133.0,2.1,2.12,-160,-268,0,-253,198,264,276.0945451259613,276.09466648101807,276.09859561920166,276.1089234352112,276.26505947113037,276.26505947113037,276.26505947113037,276.26505947113037,276.26505947113037,276.26505947113037,276.26505947113037,278.39360427856445,3,2.280186176300049,None,,,,,,,,,,,,,,,,,,239,1,2025-03-13_09h28.45.482,comp,2024.2.4,56.33484703793394,2025-03-13 09h28.55.355551 -0400,
101,101,0,critical,hwd,35.0,2.1,lower,133.0,57.0,57.0,133.0,70.0,70.0,2,2.892521858215332,None,,,,,0,0,0,0,0,101,101,16,278.4094159603119,,,,,,,,,,,,,,,,,,,,,,,,,,,,,,,,,,,,,,,,,,,,,,,,,,,,,,,,,,,,,,,,,,,,,,,,,,,,,,,,,133.0,57.0,57.0,133.0,70.0,70.0,2.1,2.11,-191,261,0,288,198,-276,278.39506673812866,278.3951404094696,278.3980803489685,278.4094159603119,278.55992317199707,278.55992317199707,278.55992317199707,278.55992317199707,278.55992317199707,278.55992317199707,278.55992317199707,281.3124191761017,2,2.892521858215332,None,,,,,,,,,,,,,,,,,,239,1,2025-03-13_09h28.45.482,comp,2024.2.4,56.33484703793394,2025-03-13 09h28.55.355551 -0400,
102,102,0,critical,wdh,20.0,2.1,upper,125.0,200.0,141.0,141.0,200.0,125.0,3,2.6815733909606934,None,,,,,0,0,0,0,0,102,102,35,281.3316650390625,,,,,,,,,,,,,,,,,,,,,,,,,,,,,,,,,,,,,,,,,,,,,,,,,,,,,,,,,,,,,,,,,,,,,,,,,,,,,,,,,125.0,200.0,141.0,141.0,200.0,125.0,2.1,2.11,-266,278,0,284,229,-276,281.3143892288208,281.3145182132721,281.31747245788574,281.3316650390625,281.4772870540619,281.4772870540619,281.4772870540619,281.4772870540619,281.4772870540619,281.4772870540619,281.4772870540619,284.01878595352173,3,2.6815733909606934,None,,,,,,,,,,,,,,,,,,239,1,2025-03-13_09h28.45.482,comp,2024.2.4,56.33484703793394,2025-03-13 09h28.55.355551 -0400,
103,103,0,filler_random,None,None,None,None,None,None,None,None,None,None,1,1.506096601486206,None,,,,,0,0,0,0,0,103,103,162,284.03508496284485,,,,,,,,,,,,,,,,,,,,,,,,,,,,,,,,,,,,,,,,,,,,,,,,,,,,,,,,,,,,,,,,,,,,,,,,,,,,,,,,,181.3721968643633,145.69059381493037,80.6328981104532,115.48732418227078,86.9828764274447,62.12591692335729,2.2,2.21,-227,-271,0,289,185,267,284.0204927921295,284.0205674171448,284.0233428478241,284.03508496284485,284.17431139945984,284.17431139945984,284.17431139945984,284.17431139945984,284.17431139945984,284.17431139945984,284.17431139945984,285.54667496681213,1,1.506096601486206,None,,,,,,,,,,,,,,,,,,239,1,2025-03-13_09h28.45.482,comp,2024.2.4,56.33484703793394,2025-03-13 09h28.55.355551 -0400,
104,104,0,critical,dwh,35.0,2.1,upper,127.0,127.0,125.0,200.0,200.0,125.0,3,2.2981607913970947,None,,,,,0,0,0,0,0,104,104,29,285.56272411346436,,,,,,,,,,,,,,,,,,,,,,,,,,,,,,,,,,,,,,,,,,,,,,,,,,,,,,,,,,,,,,,,,,,,,,,,,,,,,,,,,127.0,127.0,125.0,200.0,200.0,125.0,2.1,2.11,-260,284,0,269,258,-281,285.54830288887024,285.5484244823456,285.55190682411194,285.56272411346436,285.7109899520874,285.7109899520874,285.7109899520874,285.7109899520874,285.7109899520874,285.7109899520874,285.7109899520874,287.86460638046265,3,2.2981607913970947,None,,,,,,,,,,,,,,,,,,239,1,2025-03-13_09h28.45.482,comp,2024.2.4,56.33484703793394,2025-03-13 09h28.55.355551 -0400,
105,105,0,critical,hwd,35.0,3.0,upper,200.0,125.0,125.0,200.0,127.0,127.0,2,2.6644725799560547,None,,,,,0,0,0,0,0,105,105,99,287.88426446914673,,,,,,,,,,,,,,,,,,,,,,,,,,,,,,,,,,,,,,,,,,,,,,,,,,,,,,,,,,,,,,,,,,,,,,,,,,,,,,,,,200.0,125.0,125.0,200.0,127.0,127.0,3.0,3.2,-258,-274,0,9,260,251,287.8663547039032,287.8664846420288,287.86984968185425,287.88426446914673,288.0309431552887,288.0309431552887,288.0309431552887,288.0309431552887,288.0309431552887,288.0309431552887,288.0309431552887,290.564168214798,2,2.6644725799560547,None,,,,,,,,,,,,,,,,,,239,1,2025-03-13_09h28.45.482,comp,2024.2.4,56.33484703793394,2025-03-13 09h28.55.355551 -0400,
106,106,0,filler_random,None,None,None,None,None,None,None,None,None,None,3,4.797733306884766,None,,,,,0,0,0,0,0,106,106,158,290.5829863548279,,,,,,,,,,,,,,,,,,,,,,,,,,,,,,,,,,,,,,,,,,,,,,,,,,,,,,,,,,,,,,,,,,,,,,,,,,,,,,,,,62.34300953735869,112.09252248342628,131.578325914454,71.61216796167338,194.10594968099525,72.19133276507728,1.0,1.3,292,-278,480,-277,648,-288,290.56602478027344,290.56614899635315,290.56898760795593,290.5829863548279,290.730783700943,290.730783700943,290.730783700943,290.730783700943,290.730783700943,290.730783700943,290.730783700943,295.3985936641693,3,4.797733306884766,None,,,,,,,,,,,,,,,,,,239,1,2025-03-13_09h28.45.482,comp,2024.2.4,56.33484703793394,2025-03-13 09h28.55.355551 -0400,
107,107,0,filler_random,None,None,None,None,None,None,None,None,None,None,1,2.9701552391052246,None,,,,,0,0,0,0,0,107,107,146,295.418580532074,,,,,,,,,,,,,,,,,,,,,,,,,,,,,,,,,,,,,,,,,,,,,,,,,,,,,,,,,,,,,,,,,,,,,,,,,,,,,,,,,139.50982460510193,155.36453483040754,89.80984597311028,183.26298114703656,59.49846385778609,179.91610706711532,1.0,1.1,-745,276,-480,258,-202,284,295.4002890586853,295.40036725997925,295.4031705856323,295.418580532074,295.56535053253174,295.56535053253174,295.56535053253174,295.56535053253174,295.56535053253174,295.56535053253174,295.56535053253174,298.3941237926483,1,2.9701552391052246,None,,,,,,,,,,,,,,,,,,239,1,2025-03-13_09h28.45.482,comp,2024.2.4,56.33484703793394,2025-03-13 09h28.55.355551 -0400,
108,108,0,critical,dhw,35.0,3.0,upper,127.0,127.0,200.0,125.0,125.0,200.0,2,1.758434772491455,None,,,,,0,0,0,0,0,108,108,51,298.41431736946106,,,,,,,,,,,,,,,,,,,,,,,,,,,,,,,,,,,,,,,,,,,,,,,,,,,,,,,,,,,,,,,,,,,,,,,,,,,,,,,,,127.0,127.0,200.0,125.0,125.0,200.0,3.0,3.1,-222,255,0,1,258,-259,298.39567136764526,298.3957495689392,298.39858865737915,298.41431736946106,298.5497033596039,298.5497033596039,298.5497033596039,298.5497033596039,298.5497033596039,298.5497033596039,298.5497033596039,300.18976283073425,2,1.758434772491455,None,,,,,,,,,,,,,,,,,,239,1,2025-03-13_09h28.45.482,comp,2024.2.4,56.33484703793394,2025-03-13 09h28.55.355551 -0400,
109,109,0,critical,hwd,35.0,2.1,upper,200.0,125.0,125.0,200.0,127.0,127.0,2,2.8520071506500244,None,,,,,0,0,0,0,0,109,109,41,300.20951867103577,,,,,,,,,,,,,,,,,,,,,,,,,,,,,,,,,,,,,,,,,,,,,,,,,,,,,,,,,,,,,,,,,,,,,,,,,,,,,,,,,200.0,125.0,125.0,200.0,127.0,127.0,2.1,2.11,-258,267,0,269,260,-289,300.1912784576416,300.19137263298035,300.1941890716553,300.20951867103577,300.34462690353394,300.34462690353394,300.34462690353394,300.34462690353394,300.34462690353394,300.34462690353394,300.34462690353394,303.0683329105377,2,2.8520071506500244,None,,,,,,,,,,,,,,,,,,239,1,2025-03-13_09h28.45.482,comp,2024.2.4,56.33484703793394,2025-03-13 09h28.55.355551 -0400,
110,110,0,critical,hdw,35.0,1.0,upper,200.0,125.0,127.0,127.0,125.0,200.0,3,2.3687684535980225,None,,,,,0,0,0,0,0,110,110,109,303.08397006988525,,,,,,,,,,,,,,,,,,,,,,,,,,,,,,,,,,,,,,,,,,,,,,,,,,,,,,,,,,,,,,,,,,,,,,,,,,,,,,,,,200.0,125.0,127.0,127.0,125.0,200.0,1.0,1.2,-222,15,0,5,260,5,303.06986117362976,303.069940328598,303.07315158843994,303.08397006988525,303.2400279045105,303.2400279045105,303.2400279045105,303.2400279045105,303.2400279045105,303.2400279045105,303.2400279045105,305.4670875072479,3,2.3687684535980225,None,,,,,,,,,,,,,,,,,,239,1,2025-03-13_09h28.45.482,comp,2024.2.4,56.33484703793394,2025-03-13 09h28.55.355551 -0400,
111,111,0,critical,hwd,20.0,3.0,lower,133.0,57.0,57.0,133.0,78.0,78.0,2,2.1375114917755127,None,,,,,0,0,0,0,0,111,111,104,305.4833023548126,,,,,,,,,,,,,,,,,,,,,,,,,,,,,,,,,,,,,,,,,,,,,,,,,,,,,,,,,,,,,,,,,,,,,,,,,,,,,,,,,133.0,57.0,57.0,133.0,78.0,78.0,3.0,3.2,-191,-268,0,5,202,260,305.46878457069397,305.46886134147644,305.47254967689514,305.4833023548126,305.63880681991577,305.63880681991577,305.63880681991577,305.63880681991577,305.63880681991577,305.63880681991577,305.63880681991577,307.6353931427002,2,2.1375114917755127,None,,,,,,,,,,,,,,,,,,239,1,2025-03-13_09h28.45.482,comp,2024.2.4,56.33484703793394,2025-03-13 09h28.55.355551 -0400,
112,112,0,filler_square,None,None,None,None,None,None,None,None,None,None,1,2.353302240371704,None,,,,,0,0,0,0,0,112,112,209,307.651447057724,,,,,,,,,,,,,,,,,,,,,,,,,,,,,,,,,,,,,,,,,,,,,,,,,,,,,,,,,,,,,,,,,,,,,,,,,,,,,,,,,119.0865818901475,119.0865818901475,86.66718534922973,63.76538731292742,108.90695672377258,74.65872552555963,1.0,1.2,-187,12,0,-1,165,6,307.6371042728424,307.6372034549713,307.6411323547363,307.651447057724,307.8061571121216,307.8061571121216,307.8061571121216,307.8061571121216,307.8061571121216,307.8061571121216,307.8061571121216,310.02262258529663,1,2.353302240371704,None,,,,,,,,,,,,,,,,,,239,1,2025-03-13_09h28.45.482,comp,2024.2.4,56.33484703793394,2025-03-13 09h28.55.355551 -0400,
113,113,0,filler_square,None,None,None,None,None,None,None,None,None,None,1,1.8363101482391357,None,,,,,0,0,0,0,0,113,113,188,310.04106545448303,,,,,,,,,,,,,,,,,,,,,,,,,,,,,,,,,,,,,,,,,,,,,,,,,,,,,,,,,,,,,,,,,,,,,,,,,,,,,,,,,169.92381234944597,169.92381234944597,110.99771898590393,63.27720672125271,155.69364643960046,149.3041430698492,3.0,3.2,-213,-283,0,17,202,269,310.02484345436096,310.0249729156494,310.0279309749603,310.04106545448303,310.18569016456604,310.18569016456604,310.18569016456604,310.18569016456604,310.18569016456604,310.18569016456604,310.18569016456604,311.8867712020874,1,1.8363101482391357,None,,,,,,,,,,,,,,,,,,239,1,2025-03-13_09h28.45.482,comp,2024.2.4,56.33484703793394,2025-03-13 09h28.55.355551 -0400,
114,114,0,critical,dwh,20.0,1.0,upper,141.0,141.0,125.0,200.0,200.0,125.0,3,3.9646084308624268,None,,,,,0,0,0,0,0,114,114,67,311.90495467185974,,,,,,,,,,,,,,,,,,,,,,,,,,,,,,,,,,,,,,,,,,,,,,,,,,,,,,,,,,,,,,,,,,,,,,,,,,,,,,,,,141.0,141.0,125.0,200.0,200.0,125.0,1.0,1.1,-746,288,-480,277,-222,265,311.8884983062744,311.8885860443115,311.89202666282654,311.90495467185974,312.0538601875305,312.0538601875305,312.0538601875305,312.0538601875305,312.0538601875305,312.0538601875305,312.0538601875305,315.8758418560028,3,3.9646084308624268,None,,,,,,,,,,,,,,,,,,239,1,2025-03-13_09h28.45.482,comp,2024.2.4,56.33484703793394,2025-03-13 09h28.55.355551 -0400,
115,115,0,filler_square,None,None,None,None,None,None,None,None,None,None,1,2.541539192199707,None,,,,,0,0,0,0,0,115,115,175,315.8952851295471,,,,,,,,,,,,,,,,,,,,,,,,,,,,,,,,,,,,,,,,,,,,,,,,,,,,,,,,,,,,,,,,,,,,,,,,,,,,,,,,,183.81125135339073,183.81125135339073,181.1625473725975,160.34205443450946,154.1749004807687,142.03509541581576,1.0,1.1,-748,263,-480,261,-233,257,315.87764716148376,315.87772822380066,315.88060450553894,315.8952851295471,316.0432331562042,316.0432331562042,316.0432331562042,316.0432331562042,316.0432331562042,316.0432331562042,316.0432331562042,318.4388635158539,1,2.541539192199707,None,,,,,,,,,,,,,,,,,,239,1,2025-03-13_09h28.45.482,comp,2024.2.4,56.33484703793394,2025-03-13 09h28.55.355551 -0400,
116,116,0,filler_square,None,None,None,None,None,None,None,None,None,None,2,2.23776912689209,None,,,,,0,0,0,0,0,116,116,173,318.4550201892853,,,,,,,,,,,,,,,,,,,,,,,,,,,,,,,,,,,,,,,,,,,,,,,,,,,,,,,,,,,,,,,,,,,,,,,,,,,,,,,,,65.0780223061615,65.0780223061615,57.51736605545163,62.31428827745262,58.65425700619629,57.424751472722264,3.0,3.2,-160,-255,0,20,156,280,318.44070982933044,318.44078850746155,318.4441430568695,318.4550201892853,318.604838848114,318.604838848114,318.604838848114,318.604838848114,318.604838848114,318.604838848114,318.604838848114,320.70597672462463,2,2.23776912689209,None,,,,,,,,,,,,,,,,,,239,1,2025-03-13_09h28.45.482,comp,2024.2.4,56.33484703793394,2025-03-13 09h28.55.355551 -0400,
117,117,0,filler_square,None,None,None,None,None,None,None,None,None,None,2,3.243204355239868,None,,,,,0,0,0,0,0,117,117,202,320.72229170799255,,,,,,,,,,,,,,,,,,,,,,,,,,,,,,,,,,,,,,,,,,,,,,,,,,,,,,,,,,,,,,,,,,,,,,,,,,,,,,,,,110.56749628908838,89.71527430873613,151.88373457402423,151.88373457402423,115.64436043555848,62.69231236573588,4.0,4.2,-217,2,0,-259,203,15,320.7080533504486,320.70813179016113,320.7118937969208,320.72229170799255,320.87999749183655,320.87999749183655,320.87999749183655,320.87999749183655,320.87999749183655,320.87999749183655,320.87999749183655,323.9809274673462,2,3.243204355239868,None,,,,,,,,,,,,,,,,,,239,1,2025-03-13_09h28.45.482,comp,2024.2.4,56.33484703793394,2025-03-13 09h28.55.355551 -0400,
118,118,0,critical,hwd,20.0,2.1,lower,133.0,57.0,57.0,133.0,78.0,78.0,1,2.0077145099639893,None,,,,,0,0,0,0,0,118,118,42,323.9971489906311,,,,,,,,,,,,,,,,,,,,,,,,,,,,,,,,,,,,,,,,,,,,,,,,,,,,,,,,,,,,,,,,,,,,,,,,,,,,,,,,,133.0,57.0,57.0,133.0,78.0,78.0,2.1,2.11,-191,277,0,258,202,-261,323.9824848175049,323.98255944252014,323.98574447631836,323.9971489906311,324.1398494243622,324.1398494243622,324.1398494243622,324.1398494243622,324.1398494243622,324.1398494243622,324.1398494243622,326.00824904441833,1,2.0077145099639893,None,,,,,,,,,,,,,,,,,,239,1,2025-03-13_09h28.45.482,comp,2024.2.4,56.33484703793394,2025-03-13 09h28.55.355551 -0400,
119,119,0,critical,dhw,20.0,2.1,upper,141.0,141.0,200.0,125.0,125.0,200.0,3,2.3090078830718994,None,,,,,0,0,0,0,0,119,119,3,326.02399492263794,,,,,,,,,,,,,,,,,,,,,,,,,,,,,,,,,,,,,,,,,,,,,,,,,,,,,,,,,,,,,,,,,,,,,,,,,,,,,,,,,141.0,141.0,200.0,125.0,125.0,200.0,2.1,2.11,-229,260,0,272,258,-265,326.0098009109497,326.00988006591797,326.01326060295105,326.02399492263794,326.1772532463074,326.1772532463074,326.1772532463074,326.1772532463074,326.1772532463074,326.1772532463074,326.1772532463074,328.3487479686737,3,2.3090078830718994,None,,,,,,,,,,,,,,,,,,239,1,2025-03-13_09h28.45.482,comp,2024.2.4,56.33484703793394,2025-03-13 09h28.55.355551 -0400,
120,120,0,critical,whd,20.0,1.0,upper,125.0,200.0,200.0,125.0,141.0,141.0,2,2.456233263015747,None,,,,,0,0,0,0,0,120,120,91,328.3649938106537,,,,,,,,,,,,,,,,,,,,,,,,,,,,,,,,,,,,,,,,,,,,,,,,,,,,,,,,,,,,,,,,,,,,,,,,,,,,,,,,,125.0,200.0,200.0,125.0,141.0,141.0,1.0,1.3,222,-279,480,-270,709,-264,328.3503477573395,328.35042095184326,328.3536419868469,328.3649938106537,328.50673365592957,328.50673365592957,328.50673365592957,328.50673365592957,328.50673365592957,328.50673365592957,328.50673365592957,330.82811188697815,2,2.456233263015747,None,,,,,,,,,,,,,,,,,,239,1,2025-03-13_09h28.45.482,comp,2024.2.4,56.33484703793394,2025-03-13 09h28.55.355551 -0400,
121,121,0,filler_square,None,None,None,None,None,None,None,None,None,None,3,0.9641814231872559,None,,,,,0,0,0,0,0,121,121,184,330.84913539886475,,,,,,,,,,,,,,,,,,,,,,,,,,,,,,,,,,,,,,,,,,,,,,,,,,,,,,,,,,,,,,,,,,,,,,,,,,,,,,,,,126.79709004545991,87.10097428609572,124.38004119901368,124.07369226230897,174.31959727103316,174.31959727103316,2.1,2.12,-202,-256,0,-259,245,277,330.8299491405487,330.83006954193115,330.8333349227905,330.84913539886475,330.99267625808716,330.99267625808716,330.99267625808716,330.99267625808716,330.99267625808716,330.99267625808716,330.99267625808716,331.815931558609,3,0.9641814231872559,None,,,,,,,,,,,,,,,,,,239,1,2025-03-13_09h28.45.482,comp,2024.2.4,56.33484703793394,2025-03-13 09h28.55.355551 -0400,
122,122,0,critical,hdw,20.0,2.1,lower,133.0,57.0,78.0,78.0,57.0,133.0,3,1.4857141971588135,None,,,,,0,0,0,0,0,122,122,22,331.83178186416626,,,,,,,,,,,,,,,,,,,,,,,,,,,,,,,,,,,,,,,,,,,,,,,,,,,,,,,,,,,,,,,,,,,,,,,,,,,,,,,,,133.0,57.0,78.0,78.0,57.0,133.0,2.1,2.11,-164,260,0,273,202,-261,331.81751441955566,331.81758856773376,331.82077503204346,331.83178186416626,331.97504711151123,331.97504711151123,331.97504711151123,331.97504711151123,331.97504711151123,331.97504711151123,331.97504711151123,333.3281412124634,3,1.4857141971588135,None,,,,,,,,,,,,,,,,,,239,1,2025-03-13_09h28.45.482,comp,2024.2.4,56.33484703793394,2025-03-13 09h28.55.355551 -0400,
123,123,0,filler_random,None,None,None,None,None,None,None,None,None,None,1,2.0288584232330322,None,,,,,0,0,0,0,0,123,123,139,333.3445100784302,,,,,,,,,,,,,,,,,,,,,,,,,,,,,,,,,,,,,,,,,,,,,,,,,,,,,,,,,,,,,,,,,,,,,,,,,,,,,,,,,175.97317569535423,100.3967137594787,105.88556130270112,117.65786578982747,176.42792607312958,70.83998582106747,1.0,1.1,-685,274,-480,289,-290,285,333.32998514175415,333.33006286621094,333.33381247520447,333.3445100784302,333.49314427375793,333.49314427375793,333.49314427375793,333.49314427375793,333.49314427375793,333.49314427375793,333.49314427375793,335.3778827190399,1,2.0288584232330322,None,,,,,,,,,,,,,,,,,,239,1,2025-03-13_09h28.45.482,comp,2024.2.4,56.33484703793394,2025-03-13 09h28.55.355551 -0400,
124,124,0,filler_square,None,None,None,None,None,None,None,None,None,None,1,2.147134780883789,None,,,,,0,0,0,0,0,124,124,177,335.39401149749756,,,,,,,,,,,,,,,,,,,,,,,,,,,,,,,,,,,,,,,,,,,,,,,,,,,,,,,,,,,,,,,,,,,,,,,,,,,,,,,,,100.74302792144377,100.74302792144377,72.05296345091371,86.9095159341594,92.14549957699981,58.98485356719605,4.0,4.1,-190,-288,0,-6,169,-286,335.379718542099,335.37983679771423,335.3830997943878,335.39401149749756,335.5503017902374,335.5503017902374,335.5503017902374,335.5503017902374,335.5503017902374,335.5503017902374,335.5503017902374,337.54332304000854,1,2.147134780883789,None,,,,,,,,,,,,,,,,,,239,1,2025-03-13_09h28.45.482,comp,2024.2.4,56.33484703793394,2025-03-13 09h28.55.355551 -0400,
125,125,0,critical,hdw,35.0,3.0,upper,200.0,125.0,127.0,127.0,125.0,200.0,3,1.5651531219482422,None,,,,,0,0,0,0,0,125,125,111,337.5602571964264,,,,,,,,,,,,,,,,,,,,,,,,,,,,,,,,,,,,,,,,,,,,,,,,,,,,,,,,,,,,,,,,,,,,,,,,,,,,,,,,,200.0,125.0,127.0,127.0,125.0,200.0,3.0,3.2,-222,-287,0,-6,260,290,337.5448431968689,337.5449182987213,337.5483326911926,337.5602571964264,337.711608171463,337.711608171463,337.711608171463,337.711608171463,337.711608171463,337.711608171463,337.711608171463,339.12900280952454,3,1.5651531219482422,None,,,,,,,,,,,,,,,,,,239,1,2025-03-13_09h28.45.482,comp,2024.2.4,56.33484703793394,2025-03-13 09h28.55.355551 -0400,
126,126,0,filler_random,None,None,None,None,None,None,None,None,None,None,3,1.395491123199463,None,,,,,0,0,0,0,0,126,126,147,339.14633321762085,,,,,,,,,,,,,,,,,,,,,,,,,,,,,,,,,,,,,,,,,,,,,,,,,,,,,,,,,,,,,,,,,,,,,,,,,,,,,,,,,84.29463120673027,165.70451239663706,127.94731978569492,112.94764984465388,152.40779518774727,119.36606686456531,2.1,2.11,-235,281,0,276,212,-268,339.13090085983276,339.13102626800537,339.1349151134491,339.14633321762085,339.2936580181122,339.2936580181122,339.2936580181122,339.2936580181122,339.2936580181122,339.2936580181122,339.2936580181122,340.54908442497253,3,1.395491123199463,None,,,,,,,,,,,,,,,,,,239,1,2025-03-13_09h28.45.482,comp,2024.2.4,56.33484703793394,2025-03-13 09h28.55.355551 -0400,
127,127,0,critical,wdh,20.0,4.0,upper,125.0,200.0,141.0,141.0,200.0,125.0,3,1.9676487445831299,None,,,,,0,0,0,0,0,127,127,83,340.5653314590454,,,,,,,,,,,,,,,,,,,,,,,,,,,,,,,,,,,,,,,,,,,,,,,,,,,,,,,,,,,,,,,,,,,,,,,,,,,,,,,,,125.0,200.0,141.0,141.0,200.0,125.0,4.0,4.1,-266,-262,0,10,229,-285,340.5507426261902,340.55082154273987,340.5536894798279,340.5653314590454,340.71173644065857,340.71173644065857,340.71173644065857,340.71173644065857,340.71173644065857,340.71173644065857,340.71173644065857,342.5481331348419,3,1.9676487445831299,None,,,,,,,,,,,,,,,,,,239,1,2025-03-13_09h28.45.482,comp,2024.2.4,56.33484703793394,2025-03-13 09h28.55.355551 -0400,
128,128,0,critical,dhw,35.0,2.1,upper,127.0,127.0,200.0,125.0,125.0,200.0,3,2.4006619453430176,None,,,,,0,0,0,0,0,128,128,25,342.56405234336853,,,,,,,,,,,,,,,,,,,,,,,,,,,,,,,,,,,,,,,,,,,,,,,,,,,,,,,,,,,,,,,,,,,,,,,,,,,,,,,,,127.0,127.0,200.0,125.0,125.0,200.0,2.1,2.12,-222,-256,0,-288,258,281,342.5498380661011,342.54992032051086,342.55369901657104,342.56405234336853,342.713166475296,342.713166475296,342.713166475296,342.713166475296,342.713166475296,342.713166475296,342.713166475296,344.97999715805054,3,2.4006619453430176,None,,,,,,,,,,,,,,,,,,239,1,2025-03-13_09h28.45.482,comp,2024.2.4,56.33484703793394,2025-03-13 09h28.55.355551 -0400,
129,129,0,filler_random,None,None,None,None,None,None,None,None,None,None,1,1.1621928215026855,None,,,,,0,0,0,0,0,129,129,131,344.9953715801239,,,,,,,,,,,,,,,,,,,,,,,,,,,,,,,,,,,,,,,,,,,,,,,,,,,,,,,,,,,,,,,,,,,,,,,,,,,,,,,,,156.57708858937377,163.47757494998223,61.53747427803262,60.136582096170216,64.73601061528232,176.71102425092317,2.2,2.22,-208,263,0,-264,214,-261,344.98170614242554,344.9817807674408,344.98503708839417,344.9953715801239,345.1462073326111,345.1462073326111,345.1462073326111,345.1462073326111,345.1462073326111,345.1462073326111,345.1462073326111,346.16448163986206,1,1.1621928215026855,None,,,,,,,,,,,,,,,,,,239,1,2025-03-13_09h28.45.482,comp,2024.2.4,56.33484703793394,2025-03-13 09h28.55.355551 -0400,
130,130,0,filler_square,None,None,None,None,None,None,None,None,None,None,1,3.5784828662872314,None,,,,,0,0,0,0,0,130,130,178,346.18069791793823,,,,,,,,,,,,,,,,,,,,,,,,,,,,,,,,,,,,,,,,,,,,,,,,,,,,,,,,,,,,,,,,,,,,,,,,,,,,,,,,,192.14246115849278,192.14246115849278,129.34997284344854,157.22435977359328,183.35865373974525,154.42127534260217,1.0,1.1,-751,259,-480,288,-228,286,346.1662766933441,346.1663544178009,346.169308423996,346.18069791793823,346.33079648017883,346.33079648017883,346.33079648017883,346.33079648017883,346.33079648017883,346.33079648017883,346.33079648017883,349.76413917541504,1,3.5784828662872314,None,,,,,,,,,,,,,,,,,,239,1,2025-03-13_09h28.45.482,comp,2024.2.4,56.33484703793394,2025-03-13 09h28.55.355551 -0400,
131,131,0,critical,hwd,35.0,4.0,lower,133.0,57.0,57.0,133.0,70.0,70.0,2,2.6209070682525635,None,,,,,0,0,0,0,0,131,131,100,349.7847146987915,,,,,,,,,,,,,,,,,,,,,,,,,,,,,,,,,,,,,,,,,,,,,,,,,,,,,,,,,,,,,,,,,,,,,,,,,,,,,,,,,133.0,57.0,57.0,133.0,70.0,70.0,4.0,4.2,-191,-17,0,-257,198,2,349.7657549381256,349.7658324241638,349.76914715766907,349.7847146987915,349.93122959136963,349.93122959136963,349.93122959136963,349.93122959136963,349.93122959136963,349.93122959136963,349.93122959136963,352.41710805892944,2,2.6209070682525635,None,,,,,,,,,,,,,,,,,,239,1,2025-03-13_09h28.45.482,comp,2024.2.4,56.33484703793394,2025-03-13 09h28.55.355551 -0400,
132,132,0,critical,hwd,20.0,2.1,upper,200.0,125.0,125.0,200.0,141.0,141.0,3,3.4996044635772705,None,,,,,0,0,0,0,0,132,132,43,352.4331362247467,,,,,,,,,,,,,,,,,,,,,,,,,,,,,,,,,,,,,,,,,,,,,,,,,,,,,,,,,,,,,,,,,,,,,,,,,,,,,,,,,200.0,125.0,125.0,200.0,141.0,141.0,2.1,2.12,-258,-257,0,-284,266,281,352.418785572052,352.418865442276,352.422260761261,352.4331362247467,352.5828080177307,352.5828080177307,352.5828080177307,352.5828080177307,352.5828080177307,352.5828080177307,352.5828080177307,355.9519109725952,3,3.4996044635772705,None,,,,,,,,,,,,,,,,,,239,1,2025-03-13_09h28.45.482,comp,2024.2.4,56.33484703793394,2025-03-13 09h28.55.355551 -0400,
133,133,0,filler_square,None,None,None,None,None,None,None,None,None,None,1,1.1871140003204346,None,,,,,0,0,0,0,0,133,133,200,355.9703903198242,,,,,,,,,,,,,,,,,,,,,,,,,,,,,,,,,,,,,,,,,,,,,,,,,,,,,,,,,,,,,,,,,,,,,,,,,,,,,,,,,191.42108561699348,191.42108561699348,73.35521964942804,149.84482037638992,179.26897478393428,157.2346300425448,3.0,3.1,-267,253,0,-7,250,-259,355.9540264606476,355.9541039466858,355.9573142528534,355.9703903198242,356.11621046066284,356.11621046066284,356.11621046066284,356.11621046066284,356.11621046066284,356.11621046066284,356.11621046066284,357.1684412956238,1,1.1871140003204346,None,,,,,,,,,,,,,,,,,,239,1,2025-03-13_09h28.45.482,comp,2024.2.4,56.33484703793394,2025-03-13 09h28.55.355551 -0400,
134,134,0,filler_square,None,None,None,None,None,None,None,None,None,None,3,1.2518784999847412,None,,,,,0,0,0,0,0,134,134,192,357.18490171432495,,,,,,,,,,,,,,,,,,,,,,,,,,,,,,,,,,,,,,,,,,,,,,,,,,,,,,,,,,,,,,,,,,,,,,,,,,,,,,,,,57.1592198498122,152.00581377951377,63.78101595000134,145.51556486754578,166.04322675380175,166.04322675380175,2.2,2.21,-245,-265,0,281,252,255,357.1704807281494,357.17060565948486,357.1741716861725,357.18490171432495,357.3315601348877,357.3315601348877,357.3315601348877,357.3315601348877,357.3315601348877,357.3315601348877,357.3315601348877,358.4521675109863,3,1.2518784999847412,None,,,,,,,,,,,,,,,,,,239,1,2025-03-13_09h28.45.482,comp,2024.2.4,56.33484703793394,2025-03-13 09h28.55.355551 -0400,
135,135,0,critical,dhw,35.0,1.0,upper,127.0,127.0,200.0,125.0,125.0,200.0,2,4.0628767013549805,None,,,,,0,0,0,0,0,135,135,49,358.4700186252594,,,,,,,,,,,,,,,,,,,,,,,,,,,,,,,,,,,,,,,,,,,,,,,,,,,,,,,,,,,,,,,,,,,,,,,,,,,,,,,,,127.0,127.0,200.0,125.0,125.0,200.0,1.0,1.3,258,-274,480,-254,738,-266,358.4537019729614,358.4538187980652,358.4574177265167,358.4700186252594,358.6179053783417,358.6179053783417,358.6179053783417,358.6179053783417,358.6179053783417,358.6179053783417,358.6179053783417,362.55060267448425,2,4.0628767013549805,None,,,,,,,,,,,,,,,,,,239,1,2025-03-13_09h28.45.482,comp,2024.2.4,56.33484703793394,2025-03-13 09h28.55.355551 -0400,
136,136,0,critical,whd,35.0,1.0,upper,125.0,200.0,200.0,125.0,127.0,127.0,1,1.335477590560913,None,,,,,0,0,0,0,0,136,136,85,362.56582045555115,,,,,,,,,,,,,,,,,,,,,,,,,,,,,,,,,,,,,,,,,,,,,,,,,,,,,,,,,,,,,,,,,,,,,,,,,,,,,,,,,125.0,200.0,200.0,125.0,127.0,127.0,1.0,1.2,-258,-6,0,8,222,20,362.55206656455994,362.5521409511566,362.5549554824829,362.56582045555115,362.70581126213074,362.70581126213074,362.70581126213074,362.70581126213074,362.70581126213074,362.70581126213074,362.70581126213074,363.90333557128906,1,1.335477590560913,None,,,,,,,,,,,,,,,,,,239,1,2025-03-13_09h28.45.482,comp,2024.2.4,56.33484703793394,2025-03-13 09h28.55.355551 -0400,
137,137,0,filler_random,None,None,None,None,None,None,None,None,None,None,1,1.156681776046753,None,,,,,0,0,0,0,0,137,137,157,363.92001843452454,,,,,,,,,,,,,,,,,,,,,,,,,,,,,,,,,,,,,,,,,,,,,,,,,,,,,,,,,,,,,,,,,,,,,,,,,,,,,,,,,82.65849893431728,133.20659602755472,178.85594861908334,60.68767306446462,177.6550914073767,63.011882340232034,1.0,1.2,-193,16,0,-17,158,-16,363.90515542030334,363.9053227901459,363.90902066230774,363.92001843452454,364.06983947753906,364.06983947753906,364.06983947753906,364.06983947753906,364.06983947753906,364.06983947753906,364.06983947753906,365.08890771865845,1,1.156681776046753,None,,,,,,,,,,,,,,,,,,239,1,2025-03-13_09h28.45.482,comp,2024.2.4,56.33484703793394,2025-03-13 09h28.55.355551 -0400,
138,138,0,critical,hwd,20.0,2.1,lower,133.0,57.0,57.0,133.0,78.0,78.0,1,1.8025047779083252,None,,,,,0,0,0,0,0,138,138,18,365.10726022720337,,,,,,,,,,,,,,,,,,,,,,,,,,,,,,,,,,,,,,,,,,,,,,,,,,,,,,,,,,,,,,,,,,,,,,,,,,,,,,,,,133.0,57.0,57.0,133.0,78.0,78.0,2.1,2.12,-191,-254,0,-260,202,253,365.0906090736389,365.09068846702576,365.0938959121704,365.10726022720337,365.25259160995483,365.25259160995483,365.25259160995483,365.25259160995483,365.25259160995483,365.25259160995483,365.25259160995483,366.9207284450531,1,1.8025047779083252,None,,,,,,,,,,,,,,,,,,239,1,2025-03-13_09h28.45.482,comp,2024.2.4,56.33484703793394,2025-03-13 09h28.55.355551 -0400,
139,139,0,critical,wdh,35.0,3.0,upper,125.0,200.0,127.0,127.0,200.0,125.0,3,2.41984224319458,None,,,,,0,0,0,0,0,139,139,75,366.93696212768555,,,,,,,,,,,,,,,,,,,,,,,,,,,,,,,,,,,,,,,,,,,,,,,,,,,,,,,,,,,,,,,,,,,,,,,,,,,,,,,,,125.0,200.0,127.0,127.0,200.0,125.0,3.0,3.2,-260,-284,0,-20,222,274,366.9222013950348,366.92227602005005,366.92628359794617,366.93696212768555,367.0843198299408,367.0843198299408,367.0843198299408,367.0843198299408,367.0843198299408,367.0843198299408,367.0843198299408,369.3715355396271,3,2.41984224319458,None,,,,,,,,,,,,,,,,,,239,1,2025-03-13_09h28.45.482,comp,2024.2.4,56.33484703793394,2025-03-13 09h28.55.355551 -0400,
