thisN,thisTrialN,thisRepN,effect,order,distance,config,diag,h_1,w_1,h_2,w_2,h_3,w_3,rect_choice.keys,rect_choice.rt,rect_choice.duration,instructions_loop.thisRepN,instructions_loop.thisTrialN,instructions_loop.thisN,instructions_loop.thisIndex,blocks.thisRepN,blocks.thisTrialN,blocks.thisN,blocks.thisIndex,trials.thisRepN,trials.thisTrialN,trials.thisN,trials.thisIndex,thisRow.t,notes,consent.started,agree_button.started,decline_button.started,consent_img.started,mouse.started,consent.stopped,agree_button.numClicks,agree_button.timesOn,agree_button.timesOff,decline_button.numClicks,decline_button.timesOn,decline_button.timesOff,mouse.x,mouse.y,mouse.leftButton,mouse.midButton,mouse.rightButton,mouse.time,mouse.clicked_name,exp_params.started,exp_params.stopped,welcome.started,welcome_text.started,welcome.stopped,instructions_1.started,instructions_1_text_1.started,instructions_1_text_2.started,key_resp.started,instructions_1.stopped,instructions_loop.key_resp.keys,instructions_loop.key_resp.rt,instructions_loop.key_resp.duration,instructions_2.started,instructions_2_text_1.started,instructions_2_text_2.started,key_resp_2.started,instructions_2.stopped,instructions_loop.key_resp_2.keys,instructions_loop.key_resp_2.rt,instructions_loop.key_resp_2.duration,instructions_3.started,instructions_3_text_1.started,r1_instr3.started,r2_instr3.started,r3_instr3.started,r1_instr3_label.started,r2_instr3_label.started,r3_instr3_label.started,instructions_3_text_3.started,instructions_3_text_4.started,key_resp_3.started,instructions_3.stopped,instructions_loop.key_resp_3.keys,instructions_loop.key_resp_3.rt,instructions_loop.key_resp_3.duration,instructions_4.started,instructions_4_text_1.started,instructions_4_text_3.started,instructions_4_text_2.started,key_resp_4.started,instructions_4.stopped,instructions_loop.key_resp_4.keys,instructions_loop.key_resp_4.rt,instructions_loop.key_resp_4.duration,instructions_5.started,instructions_5_text_1.started,instructions_5_text_2.started,key_resp_5.started,instructions_5.stopped,instructions_loop.key_resp_5.keys,instructions_loop.key_resp_5.rt,instructions_loop.key_resp_5.duration,start_exp.started,start_exp_text.started,key_resp_6.started,start_exp.stopped,key_resp_6.keys,key_resp_6.rt,key_resp_6.duration,h_1_tmp,w_1_tmp,h_2_tmp,w_2_tmp,h_3_tmp,w_3_tmp,config_tmp,config_tmp_1,r_1_x,r_1_y,r_2_x,r_2_y,r_3_x,r_3_y,pre_trial.started,pre_trial.stopped,choice_trial.started,rect_choice.started,r_1.started,r_2.started,r_3.started,r_1_label.started,r_2_label.started,r_3_label.started,prompt.started,choice_trial.stopped,trials.rect_choice.keys,trials.rect_choice.rt,trials.rect_choice.duration,end_block.started,end_block_text.started,end_block.stopped,end.started,end_text.started,key_resp_7.started,end.stopped,key_resp_7.keys,key_resp_7.rt,key_resp_7.duration,debriefing.started,debrief_form.started,end_debrief.started,debriefing.stopped,end_debrief.keys,end_debrief.rt,end_debrief.duration,participant,computer,date,expName,psychopyVersion,frameRate,expStart,
,,,,,,,,,,,,,,,,,,,,,,,,,,,,,,,0.015263080596923828,0.04214930534362793,0.04214930534362793,0.04214930534362793,0.01473093032836914,12.937734127044678,1,[12.894309282302856],[12.894319295883179],0,,,[-92.0],[-490.0],[1],[0],[0],[12.921672105789185],['agree_button'],,,,,,,,,,,,,,,,,,,,,,,,,,,,,,,,,,,,,,,,,,,,,,,,,,,,,,,,,,,,,,,,,,,,,,,,,,,,,,,,,,,,,,,,,,,,,,,,,,,,,,,,,,,23,3,2025-02-18_16h04.40.153,comp,2024.2.4,60.08222388388957,2025-02-18 16h04.50.459068 -0500,
,,,,,,,,,,,,,,,,,,,,,,,,,,,,,,,,,,,,,,,,,,,,,,,,,,12.938011884689331,12.938046932220459,,,,,,,,,,,,,,,,,,,,,,,,,,,,,,,,,,,,,,,,,,,,,,,,,,,,,,,,,,,,,,,,,,,,,,,,,,,,,,,,,,,,,,,,,,,,,,,,,,,,,,,,,23,3,2025-02-18_16h04.40.153,comp,2024.2.4,60.08222388388957,2025-02-18 16h04.50.459068 -0500,
,,,,,,,,,,,,,,,,,,,,,,,,,,,,,,,,,,,,,,,,,,,,,,,,,,,,12.938069343566895,12.95125150680542,14.948074102401733,,,,,,,,,,,,,,,,,,,,,,,,,,,,,,,,,,,,,,,,,,,,,,,,,,,,,,,,,,,,,,,,,,,,,,,,,,,,,,,,,,,,,,,,,,,,,,,,,,,,,,23,3,2025-02-18_16h04.40.153,comp,2024.2.4,60.08222388388957,2025-02-18 16h04.50.459068 -0500,
0,0,0,,,,,,,,,,,,,,,0,0,0,0,,,,,,,,,14.964897871017456,,,,,,,,,,,,,,,,,,,,,,,,,,14.948610305786133,14.964897871017456,14.964897871017456,16.447980642318726,19.116267919540405,space,2.6613149642944336,None,19.116348266601562,19.132057428359985,19.132057428359985,20.631407022476196,37.882298707962036,space,17.2368745803833,None,37.88238286972046,37.90406847000122,37.90406847000122,37.90406847000122,37.90406847000122,37.90406847000122,37.90406847000122,37.90406847000122,37.90406847000122,37.90406847000122,39.3816602230072,44.84959006309509,space,5.465491771697998,None,44.84967565536499,44.865060329437256,44.865060329437256,44.865060329437256,46.36447024345398,53.44906234741211,space,7.071557998657227,None,53.44914889335632,53.4644775390625,53.4644775390625,54.96445345878601,55.582115650177,space,0.6005387306213379,None,55.58222770690918,55.59774112701416,55.59774112701416,56.732073068618774,space,1.1271982192993164,None,,,,,,,,,,,,,,,,,,,,,,,,,,,,,,,,,,,,,,,,,,,,,,,23,3,2025-02-18_16h04.40.153,comp,2024.2.4,60.08222388388957,2025-02-18 16h04.50.459068 -0500,
0,0,0,critical,dwh,20.0,3.0,upper,141.0,141.0,125.0,200.0,200.0,125.0,2,4.132215261459351,None,,,,,0,0,0,0,0,0,0,69,56.792659759521484,,,,,,,,,,,,,,,,,,,,,,,,,,,,,,,,,,,,,,,,,,,,,,,,,,,,,,,,,,,,,,,,,,,,,,,,,,,,,,,,,141.0,141.0,125.0,200.0,200.0,125.0,3.0,3.1,-266,269,0,13,258,-283,56.77890157699585,56.778948068618774,56.78097057342529,56.792659759521484,56.938151359558105,56.938151359558105,56.938151359558105,56.938151359558105,56.938151359558105,56.938151359558105,56.938151359558105,60.93240833282471,2,4.132215261459351,None,,,,,,,,,,,,,,,,,,23,3,2025-02-18_16h04.40.153,comp,2024.2.4,60.08222388388957,2025-02-18 16h04.50.459068 -0500,
1,1,0,critical,dhw,20.0,1.0,lower,78.0,78.0,133.0,57.0,57.0,133.0,3,5.455886363983154,None,,,,,0,0,0,0,0,1,1,54,60.947903871536255,,,,,,,,,,,,,,,,,,,,,,,,,,,,,,,,,,,,,,,,,,,,,,,,,,,,,,,,,,,,,,,,,,,,,,,,,,,,,,,,,78.0,78.0,133.0,57.0,57.0,133.0,1.0,1.2,-164,8,0,-6,191,6,60.93318462371826,60.93322515487671,60.93567609786987,60.947903871536255,61.0977246761322,61.0977246761322,61.0977246761322,61.0977246761322,61.0977246761322,61.0977246761322,61.0977246761322,66.4160726070404,3,5.455886363983154,None,,,,,,,,,,,,,,,,,,23,3,2025-02-18_16h04.40.153,comp,2024.2.4,60.08222388388957,2025-02-18 16h04.50.459068 -0500,
2,2,0,critical,dwh,20.0,4.0,lower,78.0,78.0,57.0,133.0,133.0,57.0,2,2.237074851989746,None,,,,,0,0,0,0,0,2,2,70,66.43096590042114,,,,,,,,,,,,,,,,,,,,,,,,,,,,,,,,,,,,,,,,,,,,,,,,,,,,,,,,,,,,,,,,,,,,,,,,,,,,,,,,,78.0,78.0,57.0,133.0,133.0,57.0,4.0,4.1,-202,-261,0,-19,191,-268,66.41687870025635,66.41691780090332,66.4190080165863,66.43096590042114,66.58121013641357,66.58121013641357,66.58121013641357,66.58121013641357,66.58121013641357,66.58121013641357,66.58121013641357,68.68221926689148,2,2.237074851989746,None,,,,,,,,,,,,,,,,,,23,3,2025-02-18_16h04.40.153,comp,2024.2.4,60.08222388388957,2025-02-18 16h04.50.459068 -0500,
3,3,0,filler_random,None,None,None,None,None,None,None,None,None,None,3,1.5004327297210693,None,,,,,0,0,0,0,0,3,3,149,68.69760465621948,,,,,,,,,,,,,,,,,,,,,,,,,,,,,,,,,,,,,,,,,,,,,,,,,,,,,,,,,,,,,,,,,,,,,,,,,,,,,,,,,95.62156083902913,169.73364176605352,83.63557748174578,100.87520751202955,178.57792794272675,187.80252370698403,3.0,3.1,-231,290,0,7,240,-273,68.6831693649292,68.68321132659912,68.68566751480103,68.69760465621948,68.84798240661621,68.84798240661621,68.84798240661621,68.84798240661621,68.84798240661621,68.84798240661621,68.84798240661621,70.21576237678528,3,1.5004327297210693,None,,,,,,,,,,,,,,,,,,23,3,2025-02-18_16h04.40.153,comp,2024.2.4,60.08222388388957,2025-02-18 16h04.50.459068 -0500,
4,4,0,filler_random,None,None,None,None,None,None,None,None,None,None,2,5.05309796333313,None,,,,,0,0,0,0,0,4,4,165,70.2310380935669,,,,,,,,,,,,,,,,,,,,,,,,,,,,,,,,,,,,,,,,,,,,,,,,,,,,,,,,,,,,,,,,,,,,,,,,,,,,,,,,,121.11545339373099,83.62789524835014,80.33343941960851,186.79569513628172,108.38856501982674,152.04774304983633,2.2,2.21,-231,-256,0,257,265,251,70.21668982505798,70.21673226356506,70.21933650970459,70.2310380935669,70.38124132156372,70.38124132156372,70.38124132156372,70.38124132156372,70.38124132156372,70.38124132156372,70.38124132156372,75.29894948005676,2,5.05309796333313,None,,,,,,,,,,,,,,,,,,23,3,2025-02-18_16h04.40.153,comp,2024.2.4,60.08222388388957,2025-02-18 16h04.50.459068 -0500,
5,5,0,critical,dwh,20.0,1.0,upper,141.0,141.0,125.0,200.0,200.0,125.0,2,4.753681182861328,None,,,,,0,0,0,0,0,5,5,67,75.31418442726135,,,,,,,,,,,,,,,,,,,,,,,,,,,,,,,,,,,,,,,,,,,,,,,,,,,,,,,,,,,,,,,,,,,,,,,,,,,,,,,,,141.0,141.0,125.0,200.0,200.0,125.0,1.0,1.1,-746,279,-480,270,-222,264,75.29975581169128,75.29980874061584,75.30218720436096,75.31418442726135,75.4648814201355,75.4648814201355,75.4648814201355,75.4648814201355,75.4648814201355,75.4648814201355,75.4648814201355,80.08230757713318,2,4.753681182861328,None,,,,,,,,,,,,,,,,,,23,3,2025-02-18_16h04.40.153,comp,2024.2.4,60.08222388388957,2025-02-18 16h04.50.459068 -0500,
6,6,0,critical,hwd,20.0,1.0,lower,133.0,57.0,57.0,133.0,78.0,78.0,1,2.2183163166046143,None,,,,,0,0,0,0,0,6,6,102,80.09761667251587,,,,,,,,,,,,,,,,,,,,,,,,,,,,,,,,,,,,,,,,,,,,,,,,,,,,,,,,,,,,,,,,,,,,,,,,,,,,,,,,,133.0,57.0,57.0,133.0,78.0,78.0,1.0,1.1,-671,251,-480,274,-278,274,80.0831036567688,80.08314418792725,80.08647608757019,80.09761667251587,80.24781560897827,80.24781560897827,80.24781560897827,80.24781560897827,80.24781560897827,80.24781560897827,80.24781560897827,82.33195090293884,1,2.2183163166046143,None,,,,,,,,,,,,,,,,,,23,3,2025-02-18_16h04.40.153,comp,2024.2.4,60.08222388388957,2025-02-18 16h04.50.459068 -0500,
7,7,0,critical,wdh,20.0,3.0,upper,125.0,200.0,141.0,141.0,200.0,125.0,3,6.456079006195068,None,,,,,0,0,0,0,0,7,7,81,82.34751987457275,,,,,,,,,,,,,,,,,,,,,,,,,,,,,,,,,,,,,,,,,,,,,,,,,,,,,,,,,,,,,,,,,,,,,,,,,,,,,,,,,125.0,200.0,141.0,141.0,200.0,125.0,3.0,3.1,-266,277,0,-5,229,-255,82.3327202796936,82.33276128768921,82.33515548706055,82.34751987457275,82.49814438819885,82.49814438819885,82.49814438819885,82.49814438819885,82.49814438819885,82.49814438819885,82.49814438819885,88.81606912612915,3,6.456079006195068,None,,,,,,,,,,,,,,,,,,23,3,2025-02-18_16h04.40.153,comp,2024.2.4,60.08222388388957,2025-02-18 16h04.50.459068 -0500,
8,8,0,filler_random,None,None,None,None,None,None,None,None,None,None,2,1.8850412368774414,None,,,,,0,0,0,0,0,8,8,146,88.83080697059631,,,,,,,,,,,,,,,,,,,,,,,,,,,,,,,,,,,,,,,,,,,,,,,,,,,,,,,,,,,,,,,,,,,,,,,,,,,,,,,,,172.6603596115308,90.89074507004213,152.62216084378116,129.72366533405528,190.63396286891467,101.19010770519753,4.0,4.1,-206,-267,0,-19,211,-254,88.81697368621826,88.81701636314392,88.81912612915039,88.83080697059631,88.98111367225647,88.98111367225647,88.98111367225647,88.98111367225647,88.98111367225647,88.98111367225647,88.98111367225647,90.73205780982971,2,1.8850412368774414,None,,,,,,,,,,,,,,,,,,23,3,2025-02-18_16h04.40.153,comp,2024.2.4,60.08222388388957,2025-02-18 16h04.50.459068 -0500,
9,9,0,filler_random,None,None,None,None,None,None,None,None,None,None,2,1.3048181533813477,None,,,,,0,0,0,0,0,9,9,169,90.74743676185608,,,,,,,,,,,,,,,,,,,,,,,,,,,,,,,,,,,,,,,,,,,,,,,,,,,,,,,,,,,,,,,,,,,,,,,,,,,,,,,,,88.28183684499695,193.9552770275352,153.72071656349516,175.44259978960056,169.74549658983938,129.76858165330043,2.1,2.12,-281,-261,0,-270,249,275,90.73297381401062,90.73301601409912,90.73537564277649,90.74743676185608,90.89772248268127,90.89772248268127,90.89772248268127,90.89772248268127,90.89772248268127,90.89772248268127,90.89772248268127,92.06540560722351,2,1.3048181533813477,None,,,,,,,,,,,,,,,,,,23,3,2025-02-18_16h04.40.153,comp,2024.2.4,60.08222388388957,2025-02-18 16h04.50.459068 -0500,
10,10,0,critical,whd,35.0,2.1,upper,125.0,200.0,200.0,125.0,127.0,127.0,2,1.6510469913482666,None,,,,,0,0,0,0,0,10,10,13,92.08065533638,,,,,,,,,,,,,,,,,,,,,,,,,,,,,,,,,,,,,,,,,,,,,,,,,,,,,,,,,,,,,,,,,,,,,,,,,,,,,,,,,125.0,200.0,200.0,125.0,127.0,127.0,2.1,2.11,-258,262,0,268,222,-286,92.06623411178589,92.06627535820007,92.0687575340271,92.08065533638,92.230966091156,92.230966091156,92.230966091156,92.230966091156,92.230966091156,92.230966091156,92.230966091156,93.74890232086182,2,1.6510469913482666,None,,,,,,,,,,,,,,,,,,23,3,2025-02-18_16h04.40.153,comp,2024.2.4,60.08222388388957,2025-02-18 16h04.50.459068 -0500,
11,11,0,catch,None,None,None,None,None,None,None,None,None,None,1,0.9445908069610596,None,,,,,0,0,0,0,0,11,11,124,93.76407837867737,,,,,,,,,,,,,,,,,,,,,,,,,,,,,,,,,,,,,,,,,,,,,,,,,,,,,,,,,,,,,,,,,,,,,,,,,,,,,,,,,154,171,63,127,120,70,4.0,4.1,-245,-256,0,19,194,-276,93.74995541572571,93.74999737739563,93.7521493434906,93.76407837867737,93.91418957710266,93.91418957710266,93.91418957710266,93.91418957710266,93.91418957710266,93.91418957710266,93.91418957710266,94.71530032157898,1,0.9445908069610596,None,,,,,,,,,,,,,,,,,,23,3,2025-02-18_16h04.40.153,comp,2024.2.4,60.08222388388957,2025-02-18 16h04.50.459068 -0500,
12,12,0,filler_random,None,None,None,None,None,None,None,None,None,None,3,1.2885913848876953,None,,,,,0,0,0,0,0,12,12,156,94.73094630241394,,,,,,,,,,,,,,,,,,,,,,,,,,,,,,,,,,,,,,,,,,,,,,,,,,,,,,,,,,,,,,,,,,,,,,,,,,,,,,,,,166.87019213650444,59.028639791909605,154.21014987525467,74.36591166529317,181.44270138333295,150.61507910960805,3.0,3.2,-163,-277,0,-9,208,275,94.71620845794678,94.71625018119812,94.71864414215088,94.73094630241394,94.88095426559448,94.88095426559448,94.88095426559448,94.88095426559448,94.88095426559448,94.88095426559448,94.88095426559448,96.0320930480957,3,1.2885913848876953,None,,,,,,,,,,,,,,,,,,23,3,2025-02-18_16h04.40.153,comp,2024.2.4,60.08222388388957,2025-02-18 16h04.50.459068 -0500,
13,13,0,filler_square,None,None,None,None,None,None,None,None,None,None,2,9.684065580368042,None,,,,,0,0,0,0,0,13,13,203,96.04756474494934,,,,,,,,,,,,,,,,,,,,,,,,,,,,,,,,,,,,,,,,,,,,,,,,,,,,,,,,,,,,,,,,,,,,,,,,,,,,,,,,,60.55713141494626,59.91760298296937,61.4976805532556,61.4976805532556,61.04990629595531,60.454866088664865,2.1,2.11,-157,259,0,256,157,-281,96.0330536365509,96.0330970287323,96.0355715751648,96.04756474494934,96.19743490219116,96.19743490219116,96.19743490219116,96.19743490219116,96.19743490219116,96.19743490219116,96.19743490219116,105.74868702888489,2,9.684065580368042,None,,,,,,,,,,,,,,,,,,23,3,2025-02-18_16h04.40.153,comp,2024.2.4,60.08222388388957,2025-02-18 16h04.50.459068 -0500,
14,14,0,filler_square,None,None,None,None,None,None,None,None,None,None,2,2.5285680294036865,None,,,,,0,0,0,0,0,14,14,194,105.76389622688293,,,,,,,,,,,,,,,,,,,,,,,,,,,,,,,,,,,,,,,,,,,,,,,,,,,,,,,,,,,,,,,,,,,,,,,,,,,,,,,,,63.05271557119153,62.247378480183514,65.31379220156326,60.66012723190882,66.71355328203535,66.71355328203535,3.0,3.2,-157,-251,0,7,160,273,105.74962449073792,105.74966597557068,105.75232744216919,105.76389622688293,105.91402912139893,105.91402912139893,105.91402912139893,105.91402912139893,105.91402912139893,105.91402912139893,105.91402912139893,108.29843258857727,2,2.5285680294036865,None,,,,,,,,,,,,,,,,,,23,3,2025-02-18_16h04.40.153,comp,2024.2.4,60.08222388388957,2025-02-18 16h04.50.459068 -0500,
15,15,0,critical,hwd,20.0,2.1,upper,200.0,125.0,125.0,200.0,141.0,141.0,2,2.817392587661743,None,,,,,0,0,0,0,0,15,15,43,108.31408762931824,,,,,,,,,,,,,,,,,,,,,,,,,,,,,,,,,,,,,,,,,,,,,,,,,,,,,,,,,,,,,,,,,,,,,,,,,,,,,,,,,200.0,125.0,125.0,200.0,141.0,141.0,2.1,2.12,-258,-258,0,-261,266,252,108.29925584793091,108.29929733276367,108.30182075500488,108.31408762931824,108.4642596244812,108.4642596244812,108.4642596244812,108.4642596244812,108.4642596244812,108.4642596244812,108.4642596244812,111.14863753318787,2,2.817392587661743,None,,,,,,,,,,,,,,,,,,23,3,2025-02-18_16h04.40.153,comp,2024.2.4,60.08222388388957,2025-02-18 16h04.50.459068 -0500,
16,16,0,filler_square,None,None,None,None,None,None,None,None,None,None,2,1.176729440689087,None,,,,,0,0,0,0,0,16,16,200,111.1638355255127,,,,,,,,,,,,,,,,,,,,,,,,,,,,,,,,,,,,,,,,,,,,,,,,,,,,,,,,,,,,,,,,,,,,,,,,,,,,,,,,,112.7267594000441,139.26261421111508,155.1216252728238,155.1216252728238,113.23645391514344,84.21128174624482,2.2,2.22,-243,252,0,-255,216,-272,111.14960622787476,111.14964771270752,111.15216159820557,111.1638355255127,111.3141417503357,111.3141417503357,111.3141417503357,111.3141417503357,111.3141417503357,111.3141417503357,111.3141417503357,112.34872508049011,2,1.176729440689087,None,,,,,,,,,,,,,,,,,,23,3,2025-02-18_16h04.40.153,comp,2024.2.4,60.08222388388957,2025-02-18 16h04.50.459068 -0500,
17,17,0,filler_random,None,None,None,None,None,None,None,None,None,None,2,13.528411388397217,None,,,,,0,0,0,0,0,17,17,166,112.36409902572632,,,,,,,,,,,,,,,,,,,,,,,,,,,,,,,,,,,,,,,,,,,,,,,,,,,,,,,,,,,,,,,,,,,,,,,,,,,,,,,,,105.18988430962135,80.38868080760433,96.37102506639937,114.11611362625435,196.37126651040677,57.236562440591726,4.0,4.2,-193,4,0,-263,182,3,112.34963083267212,112.34967184066772,112.35203337669373,112.36409902572632,112.5140528678894,112.5140528678894,112.5140528678894,112.5140528678894,112.5140528678894,112.5140528678894,112.5140528678894,125.8984215259552,2,13.528411388397217,None,,,,,,,,,,,,,,,,,,23,3,2025-02-18_16h04.40.153,comp,2024.2.4,60.08222388388957,2025-02-18 16h04.50.459068 -0500,
18,18,0,filler_random,None,None,None,None,None,None,None,None,None,None,2,2.6182336807250977,None,,,,,0,0,0,0,0,18,18,168,125.91390085220337,,,,,,,,,,,,,,,,,,,,,,,,,,,,,,,,,,,,,,,,,,,,,,,,,,,,,,,,,,,,,,,,,,,,,,,,,,,,,,,,,60.604307129540345,143.23241396225814,189.82376766601945,145.49189962152437,175.19697674156842,133.49824096218663,2.1,2.11,-240,267,0,289,235,-259,125.89929485321045,125.89933514595032,125.90185832977295,125.91390085220337,126.06391263008118,126.06391263008118,126.06391263008118,126.06391263008118,126.06391263008118,126.06391263008118,126.06391263008118,128.54843831062317,2,2.6182336807250977,None,,,,,,,,,,,,,,,,,,23,3,2025-02-18_16h04.40.153,comp,2024.2.4,60.08222388388957,2025-02-18 16h04.50.459068 -0500,
19,19,0,filler_random,None,None,None,None,None,None,None,None,None,None,1,2.103675603866577,None,,,,,0,0,0,0,0,19,19,152,128.56360030174255,,,,,,,,,,,,,,,,,,,,,,,,,,,,,,,,,,,,,,,,,,,,,,,,,,,,,,,,,,,,,,,,,,,,,,,,,,,,,,,,,126.06485318942954,190.4385805317012,73.49203113409263,191.72019293500014,144.19144247352637,135.4344070314475,2.2,2.21,-287,-259,0,258,260,263,128.5493631362915,128.54940342903137,128.5519094467163,128.56360030174255,128.7139608860016,128.7139608860016,128.7139608860016,128.7139608860016,128.7139608860016,128.7139608860016,128.7139608860016,130.68198418617249,1,2.103675603866577,None,,,,,,,,,,,,,,,,,,23,3,2025-02-18_16h04.40.153,comp,2024.2.4,60.08222388388957,2025-02-18 16h04.50.459068 -0500,
20,20,0,catch,None,None,None,None,None,None,None,None,None,None,2,1.2836289405822754,None,,,,,0,0,0,0,0,20,20,121,130.69716429710388,,,,,,,,,,,,,,,,,,,,,,,,,,,,,,,,,,,,,,,,,,,,,,,,,,,,,,,,,,,,,,,,,,,,,,,,,,,,,,,,,109,81,183,142,61,129,4.0,4.1,-208,-283,0,-1,232,-272,130.68305563926697,130.68309926986694,130.68519377708435,130.69716429710388,130.84729504585266,130.84729504585266,130.84729504585266,130.84729504585266,130.84729504585266,130.84729504585266,130.84729504585266,131.98197484016418,2,1.2836289405822754,None,,,,,,,,,,,,,,,,,,23,3,2025-02-18_16h04.40.153,comp,2024.2.4,60.08222388388957,2025-02-18 16h04.50.459068 -0500,
21,21,0,critical,hwd,20.0,4.0,upper,200.0,125.0,125.0,200.0,141.0,141.0,1,1.4639739990234375,None,,,,,0,0,0,0,0,21,21,107,131.99741315841675,,,,,,,,,,,,,,,,,,,,,,,,,,,,,,,,,,,,,,,,,,,,,,,,,,,,,,,,,,,,,,,,,,,,,,,,,,,,,,,,,200.0,125.0,125.0,200.0,141.0,141.0,4.0,4.1,-258,-255,0,13,266,-258,131.982764005661,131.98282170295715,131.98567533493042,131.99741315841675,132.14741158485413,132.14741158485413,132.14741158485413,132.14741158485413,132.14741158485413,132.14741158485413,132.14741158485413,133.46514749526978,1,1.4639739990234375,None,,,,,,,,,,,,,,,,,,23,3,2025-02-18_16h04.40.153,comp,2024.2.4,60.08222388388957,2025-02-18 16h04.50.459068 -0500,
22,22,0,critical,whd,35.0,3.0,upper,125.0,200.0,200.0,125.0,127.0,127.0,2,1.6435673236846924,None,,,,,0,0,0,0,0,22,22,87,133.4806203842163,,,,,,,,,,,,,,,,,,,,,,,,,,,,,,,,,,,,,,,,,,,,,,,,,,,,,,,,,,,,,,,,,,,,,,,,,,,,,,,,,125.0,200.0,200.0,125.0,127.0,127.0,3.0,3.2,-258,-277,0,4,222,257,133.46596503257751,133.46600723266602,133.46810626983643,133.4806203842163,133.63088750839233,133.63088750839233,133.63088750839233,133.63088750839233,133.63088750839233,133.63088750839233,133.63088750839233,135.13201642036438,2,1.6435673236846924,None,,,,,,,,,,,,,,,,,,23,3,2025-02-18_16h04.40.153,comp,2024.2.4,60.08222388388957,2025-02-18 16h04.50.459068 -0500,
23,23,0,critical,dwh,35.0,2.1,upper,127.0,127.0,125.0,200.0,200.0,125.0,2,2.087937593460083,None,,,,,0,0,0,0,0,23,23,29,135.1473352909088,,,,,,,,,,,,,,,,,,,,,,,,,,,,,,,,,,,,,,,,,,,,,,,,,,,,,,,,,,,,,,,,,,,,,,,,,,,,,,,,,127.0,127.0,125.0,200.0,200.0,125.0,2.1,2.12,-260,-275,0,-284,258,251,135.13279581069946,135.13284063339233,135.13492679595947,135.1473352909088,135.29726481437683,135.29726481437683,135.29726481437683,135.29726481437683,135.29726481437683,135.29726481437683,135.29726481437683,137.24851179122925,2,2.087937593460083,None,,,,,,,,,,,,,,,,,,23,3,2025-02-18_16h04.40.153,comp,2024.2.4,60.08222388388957,2025-02-18 16h04.50.459068 -0500,
24,24,0,critical,dwh,20.0,4.0,upper,141.0,141.0,125.0,200.0,200.0,125.0,2,1.412487268447876,None,,,,,0,0,0,0,0,24,24,71,137.26361060142517,,,,,,,,,,,,,,,,,,,,,,,,,,,,,,,,,,,,,,,,,,,,,,,,,,,,,,,,,,,,,,,,,,,,,,,,,,,,,,,,,141.0,141.0,125.0,200.0,200.0,125.0,4.0,4.2,-266,-8,0,-263,258,14,137.249329328537,137.2493703365326,137.25186443328857,137.26361060142517,137.41409969329834,137.41409969329834,137.41409969329834,137.41409969329834,137.41409969329834,137.41409969329834,137.41409969329834,138.68175101280212,2,1.412487268447876,None,,,,,,,,,,,,,,,,,,23,3,2025-02-18_16h04.40.153,comp,2024.2.4,60.08222388388957,2025-02-18 16h04.50.459068 -0500,
25,25,0,critical,wdh,35.0,2.1,lower,57.0,133.0,70.0,70.0,133.0,57.0,1,2.634000778198242,None,,,,,0,0,0,0,0,25,25,32,138.69728589057922,,,,,,,,,,,,,,,,,,,,,,,,,,,,,,,,,,,,,,,,,,,,,,,,,,,,,,,,,,,,,,,,,,,,,,,,,,,,,,,,,57.0,133.0,70.0,70.0,133.0,57.0,2.1,2.11,-198,270,0,250,160,-283,138.6825566291809,138.6825978755951,138.68492102622986,138.69728589057922,138.8469455242157,138.8469455242157,138.8469455242157,138.8469455242157,138.8469455242157,138.8469455242157,138.8469455242157,141.34823513031006,1,2.634000778198242,None,,,,,,,,,,,,,,,,,,23,3,2025-02-18_16h04.40.153,comp,2024.2.4,60.08222388388957,2025-02-18 16h04.50.459068 -0500,
26,26,0,critical,hdw,20.0,2.1,lower,133.0,57.0,78.0,78.0,57.0,133.0,3,2.6170284748077393,None,,,,,0,0,0,0,0,26,26,46,141.36363792419434,,,,,,,,,,,,,,,,,,,,,,,,,,,,,,,,,,,,,,,,,,,,,,,,,,,,,,,,,,,,,,,,,,,,,,,,,,,,,,,,,133.0,57.0,78.0,78.0,57.0,133.0,2.1,2.11,-164,276,0,284,202,-284,141.3490493297577,141.3490927219391,141.3515646457672,141.36363792419434,141.51373291015625,141.51373291015625,141.51373291015625,141.51373291015625,141.51373291015625,141.51373291015625,141.51373291015625,143.9818458557129,3,2.6170284748077393,None,,,,,,,,,,,,,,,,,,23,3,2025-02-18_16h04.40.153,comp,2024.2.4,60.08222388388957,2025-02-18 16h04.50.459068 -0500,
27,27,0,filler_square,None,None,None,None,None,None,None,None,None,None,1,1.6788859367370605,None,,,,,0,0,0,0,0,27,27,206,143.99727869033813,,,,,,,,,,,,,,,,,,,,,,,,,,,,,,,,,,,,,,,,,,,,,,,,,,,,,,,,,,,,,,,,,,,,,,,,,,,,,,,,,116.18538963030218,116.18538963030218,102.06490169015498,87.37173157580364,77.28766673057517,66.84717864847721,3.0,3.2,-198,-270,0,8,173,286,143.98276495933533,143.9828269481659,143.984925031662,143.99727869033813,144.14710545539856,144.14710545539856,144.14710545539856,144.14710545539856,144.14710545539856,144.14710545539856,144.14710545539856,145.6815004348755,1,1.6788859367370605,None,,,,,,,,,,,,,,,,,,23,3,2025-02-18_16h04.40.153,comp,2024.2.4,60.08222388388957,2025-02-18 16h04.50.459068 -0500,
28,28,0,critical,whd,20.0,3.0,upper,125.0,200.0,200.0,125.0,141.0,141.0,1,2.043023109436035,None,,,,,0,0,0,0,0,28,28,93,145.69716787338257,,,,,,,,,,,,,,,,,,,,,,,,,,,,,,,,,,,,,,,,,,,,,,,,,,,,,,,,,,,,,,,,,,,,,,,,,,,,,,,,,125.0,200.0,200.0,125.0,141.0,141.0,3.0,3.2,-258,-261,0,-10,229,280,145.68225574493408,145.68229389190674,145.68481349945068,145.69716787338257,145.84739303588867,145.84739303588867,145.84739303588867,145.84739303588867,145.84739303588867,145.84739303588867,145.84739303588867,147.7484152317047,1,2.043023109436035,None,,,,,,,,,,,,,,,,,,23,3,2025-02-18_16h04.40.153,comp,2024.2.4,60.08222388388957,2025-02-18 16h04.50.459068 -0500,
29,29,0,critical,hwd,20.0,2.1,upper,200.0,125.0,125.0,200.0,141.0,141.0,2,1.200425624847412,None,,,,,0,0,0,0,0,29,29,19,147.76374435424805,,,,,,,,,,,,,,,,,,,,,,,,,,,,,,,,,,,,,,,,,,,,,,,,,,,,,,,,,,,,,,,,,,,,,,,,,,,,,,,,,200.0,125.0,125.0,200.0,141.0,141.0,2.1,2.12,-258,-271,0,-290,266,279,147.7492311000824,147.74927353858948,147.7518332004547,147.76374435424805,147.9139142036438,147.9139142036438,147.9139142036438,147.9139142036438,147.9139142036438,147.9139142036438,147.9139142036438,148.9816644191742,2,1.200425624847412,None,,,,,,,,,,,,,,,,,,23,3,2025-02-18_16h04.40.153,comp,2024.2.4,60.08222388388957,2025-02-18 16h04.50.459068 -0500,
30,30,0,critical,dhw,20.0,4.0,lower,78.0,78.0,133.0,57.0,57.0,133.0,3,2.0644524097442627,None,,,,,0,0,0,0,0,30,30,58,148.99698162078857,,,,,,,,,,,,,,,,,,,,,,,,,,,,,,,,,,,,,,,,,,,,,,,,,,,,,,,,,,,,,,,,,,,,,,,,,,,,,,,,,78.0,78.0,133.0,57.0,57.0,133.0,4.0,4.1,-164,-285,0,7,191,-257,148.98247981071472,148.98252129554749,148.9850571155548,148.99698162078857,149.14692044258118,149.14692044258118,149.14692044258118,149.14692044258118,149.14692044258118,149.14692044258118,149.14692044258118,151.06486010551453,3,2.0644524097442627,None,,,,,,,,,,,,,,,,,,23,3,2025-02-18_16h04.40.153,comp,2024.2.4,60.08222388388957,2025-02-18 16h04.50.459068 -0500,
31,31,0,critical,hdw,35.0,1.0,upper,200.0,125.0,127.0,127.0,125.0,200.0,3,1.4508156776428223,None,,,,,0,0,0,0,0,31,31,109,151.08039021492004,,,,,,,,,,,,,,,,,,,,,,,,,,,,,,,,,,,,,,,,,,,,,,,,,,,,,,,,,,,,,,,,,,,,,,,,,,,,,,,,,200.0,125.0,127.0,127.0,125.0,200.0,1.0,1.1,-702,280,-480,260,-220,265,151.06564664840698,151.06568837165833,151.06802463531494,151.08039021492004,151.23043942451477,151.23043942451477,151.23043942451477,151.23043942451477,151.23043942451477,151.23043942451477,151.23043942451477,152.54834723472595,3,1.4508156776428223,None,,,,,,,,,,,,,,,,,,23,3,2025-02-18_16h04.40.153,comp,2024.2.4,60.08222388388957,2025-02-18 16h04.50.459068 -0500,
32,32,0,critical,dwh,35.0,2.1,lower,70.0,70.0,57.0,133.0,133.0,57.0,2,2.8882102966308594,None,,,,,0,0,0,0,0,32,32,28,152.56356716156006,,,,,,,,,,,,,,,,,,,,,,,,,,,,,,,,,,,,,,,,,,,,,,,,,,,,,,,,,,,,,,,,,,,,,,,,,,,,,,,,,70.0,70.0,57.0,133.0,133.0,57.0,2.1,2.12,-198,-276,0,-251,191,259,152.54915189743042,152.54919338226318,152.55159544944763,152.56356716156006,152.71363925933838,152.71363925933838,152.71363925933838,152.71363925933838,152.71363925933838,152.71363925933838,152.71363925933838,155.46475410461426,2,2.8882102966308594,None,,,,,,,,,,,,,,,,,,23,3,2025-02-18_16h04.40.153,comp,2024.2.4,60.08222388388957,2025-02-18 16h04.50.459068 -0500,
33,33,0,critical,wdh,35.0,3.0,upper,125.0,200.0,127.0,127.0,200.0,125.0,3,1.349848985671997,None,,,,,0,0,0,0,0,33,33,75,155.4800946712494,,,,,,,,,,,,,,,,,,,,,,,,,,,,,,,,,,,,,,,,,,,,,,,,,,,,,,,,,,,,,,,,,,,,,,,,,,,,,,,,,125.0,200.0,127.0,127.0,200.0,125.0,3.0,3.2,-260,-272,0,-13,222,258,155.4655511379242,155.46559143066406,155.4679036140442,155.4800946712494,155.63042187690735,155.63042187690735,155.63042187690735,155.63042187690735,155.63042187690735,155.63042187690735,155.63042187690735,156.84831476211548,3,1.349848985671997,None,,,,,,,,,,,,,,,,,,23,3,2025-02-18_16h04.40.153,comp,2024.2.4,60.08222388388957,2025-02-18 16h04.50.459068 -0500,
34,34,0,critical,dwh,35.0,4.0,upper,127.0,127.0,125.0,200.0,200.0,125.0,2,1.292788028717041,None,,,,,0,0,0,0,0,34,34,65,156.8635392189026,,,,,,,,,,,,,,,,,,,,,,,,,,,,,,,,,,,,,,,,,,,,,,,,,,,,,,,,,,,,,,,,,,,,,,,,,,,,,,,,,127.0,127.0,125.0,200.0,200.0,125.0,4.0,4.1,-260,-250,0,16,258,-280,156.84911251068115,156.84915375709534,156.85161185264587,156.8635392189026,157.0138475894928,157.0138475894928,157.0138475894928,157.0138475894928,157.0138475894928,157.0138475894928,157.0138475894928,158.16485905647278,2,1.292788028717041,None,,,,,,,,,,,,,,,,,,23,3,2025-02-18_16h04.40.153,comp,2024.2.4,60.08222388388957,2025-02-18 16h04.50.459068 -0500,
35,35,0,critical,whd,20.0,4.0,lower,57.0,133.0,133.0,57.0,78.0,78.0,2,0.9508647918701172,None,,,,,0,0,0,0,0,35,35,94,158.18034267425537,,,,,,,,,,,,,,,,,,,,,,,,,,,,,,,,,,,,,,,,,,,,,,,,,,,,,,,,,,,,,,,,,,,,,,,,,,,,,,,,,57.0,133.0,133.0,57.0,78.0,78.0,4.0,4.1,-191,-282,0,-5,164,-278,158.16564965248108,158.1656894683838,158.16799235343933,158.18034267425537,158.33028435707092,158.33028435707092,158.33028435707092,158.33028435707092,158.33028435707092,158.33028435707092,158.33028435707092,159.14796948432922,2,0.9508647918701172,None,,,,,,,,,,,,,,,,,,23,3,2025-02-18_16h04.40.153,comp,2024.2.4,60.08222388388957,2025-02-18 16h04.50.459068 -0500,
36,36,0,filler_random,None,None,None,None,None,None,None,None,None,None,1,0.9925954341888428,None,,,,,0,0,0,0,0,36,36,130,159.16355633735657,,,,,,,,,,,,,,,,,,,,,,,,,,,,,,,,,,,,,,,,,,,,,,,,,,,,,,,,,,,,,,,,,,,,,,,,,,,,,,,,,191.17168537748967,97.381857214102,192.24115384110922,69.6779919027203,162.83872786466088,57.66452697748151,3.0,3.2,-180,-265,0,-7,160,251,159.14889359474182,159.14893317222595,159.15131378173828,159.16355633735657,159.3138017654419,159.3138017654419,159.3138017654419,159.3138017654419,159.3138017654419,159.3138017654419,159.3138017654419,160.164692401886,1,0.9925954341888428,None,,,,,,,,,,,,,,,,,,23,3,2025-02-18_16h04.40.153,comp,2024.2.4,60.08222388388957,2025-02-18 16h04.50.459068 -0500,
37,37,0,critical,dhw,35.0,1.0,upper,127.0,127.0,200.0,125.0,125.0,200.0,3,2.791761636734009,None,,,,,0,0,0,0,0,37,37,49,160.18032312393188,,,,,,,,,,,,,,,,,,,,,,,,,,,,,,,,,,,,,,,,,,,,,,,,,,,,,,,,,,,,,,,,,,,,,,,,,,,,,,,,,127.0,127.0,200.0,125.0,125.0,200.0,1.0,1.3,258,-264,480,-288,738,-290,160.16547870635986,160.16552186012268,160.16773915290833,160.18032312393188,160.3304648399353,160.3304648399353,160.3304648399353,160.3304648399353,160.3304648399353,160.3304648399353,160.3304648399353,162.9815354347229,3,2.791761636734009,None,,,,,,,,,,,,,,,,,,23,3,2025-02-18_16h04.40.153,comp,2024.2.4,60.08222388388957,2025-02-18 16h04.50.459068 -0500,
38,38,0,critical,wdh,35.0,1.0,upper,125.0,200.0,127.0,127.0,200.0,125.0,3,1.783508539199829,None,,,,,0,0,0,0,0,38,38,73,162.99705386161804,,,,,,,,,,,,,,,,,,,,,,,,,,,,,,,,,,,,,,,,,,,,,,,,,,,,,,,,,,,,,,,,,,,,,,,,,,,,,,,,,125.0,200.0,127.0,127.0,200.0,125.0,1.0,1.3,220,-288,480,-254,702,-290,162.98233270645142,162.98237252235413,162.98490476608276,162.99705386161804,163.14707851409912,163.14707851409912,163.14707851409912,163.14707851409912,163.14707851409912,163.14707851409912,163.14707851409912,164.78174829483032,3,1.783508539199829,None,,,,,,,,,,,,,,,,,,23,3,2025-02-18_16h04.40.153,comp,2024.2.4,60.08222388388957,2025-02-18 16h04.50.459068 -0500,
39,39,0,critical,hdw,20.0,1.0,upper,200.0,125.0,141.0,141.0,125.0,200.0,3,2.952399492263794,None,,,,,0,0,0,0,0,39,39,115,164.79701566696167,,,,,,,,,,,,,,,,,,,,,,,,,,,,,,,,,,,,,,,,,,,,,,,,,,,,,,,,,,,,,,,,,,,,,,,,,,,,,,,,,200.0,125.0,141.0,141.0,125.0,200.0,1.0,1.2,-229,9,0,-17,266,12,164.78255033493042,164.78259325027466,164.78507280349731,164.79701566696167,164.9473102092743,164.9473102092743,164.9473102092743,164.9473102092743,164.9473102092743,164.9473102092743,164.9473102092743,167.76524543762207,3,2.952399492263794,None,,,,,,,,,,,,,,,,,,23,3,2025-02-18_16h04.40.153,comp,2024.2.4,60.08222388388957,2025-02-18 16h04.50.459068 -0500,
40,40,0,filler_square,None,None,None,None,None,None,None,None,None,None,3,1.8224246501922607,None,,,,,0,0,0,0,0,40,40,199,167.7804398536682,,,,,,,,,,,,,,,,,,,,,,,,,,,,,,,,,,,,,,,,,,,,,,,,,,,,,,,,,,,,,,,,,,,,,,,,,,,,,,,,,59.65598593513796,63.73887173311409,59.822998360445716,62.38177277940217,64.68835661461652,64.68835661461652,4.0,4.1,-159,-265,0,4,160,-277,167.766122341156,167.76616048812866,167.7681496143341,167.7804398536682,167.93046021461487,167.93046021461487,167.93046021461487,167.93046021461487,167.93046021461487,167.93046021461487,167.93046021461487,169.615065574646,3,1.8224246501922607,None,,,,,,,,,,,,,,,,,,23,3,2025-02-18_16h04.40.153,comp,2024.2.4,60.08222388388957,2025-02-18 16h04.50.459068 -0500,
41,41,0,filler_random,None,None,None,None,None,None,None,None,None,None,2,1.1338257789611816,None,,,,,0,0,0,0,0,41,41,164,169.63005900382996,,,,,,,,,,,,,,,,,,,,,,,,,,,,,,,,,,,,,,,,,,,,,,,,,,,,,,,,,,,,,,,,,,,,,,,,,,,,,,,,,100.08719184930287,78.74894571391393,123.69419882138698,158.2942364968914,197.47578939657453,72.41407433442528,2.1,2.11,-215,258,0,289,211,-282,169.6159861087799,169.6160283088684,169.61812782287598,169.63005900382996,169.78025436401367,169.78025436401367,169.78025436401367,169.78025436401367,169.78025436401367,169.78025436401367,169.78025436401367,170.7650167942047,2,1.1338257789611816,None,,,,,,,,,,,,,,,,,,23,3,2025-02-18_16h04.40.153,comp,2024.2.4,60.08222388388957,2025-02-18 16h04.50.459068 -0500,
42,42,0,critical,wdh,35.0,3.0,lower,57.0,133.0,70.0,70.0,133.0,57.0,3,1.3435611724853516,None,,,,,0,0,0,0,0,42,42,74,170.7804412841797,,,,,,,,,,,,,,,,,,,,,,,,,,,,,,,,,,,,,,,,,,,,,,,,,,,,,,,,,,,,,,,,,,,,,,,,,,,,,,,,,57.0,133.0,70.0,70.0,133.0,57.0,3.0,3.1,-198,286,0,17,160,-271,170.76583290100098,170.76587390899658,170.7679250240326,170.7804412841797,170.93028664588928,170.93028664588928,170.93028664588928,170.93028664588928,170.93028664588928,170.93028664588928,170.93028664588928,172.13116908073425,3,1.3435611724853516,None,,,,,,,,,,,,,,,,,,23,3,2025-02-18_16h04.40.153,comp,2024.2.4,60.08222388388957,2025-02-18 16h04.50.459068 -0500,
43,43,0,filler_random,None,None,None,None,None,None,None,None,None,None,1,1.1609716415405273,None,,,,,0,0,0,0,0,43,43,136,172.14690923690796,,,,,,,,,,,,,,,,,,,,,,,,,,,,,,,,,,,,,,,,,,,,,,,,,,,,,,,,,,,,,,,,,,,,,,,,,,,,,,,,,187.40405884014822,146.8036397994788,187.12461481301887,90.1704201012497,58.03210649364056,147.75397971599406,2.2,2.21,-214,-289,0,289,215,283,172.13207817077637,172.13211798667908,172.13467359542847,172.14690923690796,172.29689240455627,172.29689240455627,172.29689240455627,172.29689240455627,172.29689240455627,172.29689240455627,172.29689240455627,173.3148341178894,1,1.1609716415405273,None,,,,,,,,,,,,,,,,,,23,3,2025-02-18_16h04.40.153,comp,2024.2.4,60.08222388388957,2025-02-18 16h04.50.459068 -0500,
44,44,0,filler_random,None,None,None,None,None,None,None,None,None,None,2,1.3304274082183838,None,,,,,0,0,0,0,0,44,44,144,173.33029699325562,,,,,,,,,,,,,,,,,,,,,,,,,,,,,,,,,,,,,,,,,,,,,,,,,,,,,,,,,,,,,,,,,,,,,,,,,,,,,,,,,128.15239089830203,158.78792674405742,118.73665467733267,180.092816694973,117.86701045987007,115.58879333122191,1.0,1.3,215,-273,480,-266,724,-278,173.31572318077087,173.31576466560364,173.3179829120636,173.33029699325562,173.48043751716614,173.48043751716614,173.48043751716614,173.48043751716614,173.48043751716614,173.48043751716614,173.48043751716614,174.66486525535583,2,1.3304274082183838,None,,,,,,,,,,,,,,,,,,23,3,2025-02-18_16h04.40.153,comp,2024.2.4,60.08222388388957,2025-02-18 16h04.50.459068 -0500,
45,45,0,catch,None,None,None,None,None,None,None,None,None,None,1,0.8835203647613525,None,,,,,0,0,0,0,0,45,45,122,174.6803252696991,,,,,,,,,,,,,,,,,,,,,,,,,,,,,,,,,,,,,,,,,,,,,,,,,,,,,,,,,,,,,,,,,,,,,,,,,,,,,,,,,158,167,123,67,121,69,3.0,3.2,-213,-257,0,-14,164,288,174.66592931747437,174.66597199440002,174.6681010723114,174.6803252696991,174.8303554058075,174.8303554058075,174.8303554058075,174.8303554058075,174.8303554058075,174.8303554058075,174.8303554058075,175.581139087677,1,0.8835203647613525,None,,,,,,,,,,,,,,,,,,23,3,2025-02-18_16h04.40.153,comp,2024.2.4,60.08222388388957,2025-02-18 16h04.50.459068 -0500,
46,46,0,filler_square,None,None,None,None,None,None,None,None,None,None,2,0.9508709907531738,None,,,,,0,0,0,0,0,46,46,209,175.59660530090332,,,,,,,,,,,,,,,,,,,,,,,,,,,,,,,,,,,,,,,,,,,,,,,,,,,,,,,,,,,,,,,,,,,,,,,,,,,,,,,,,140.96743461806005,107.96268094807485,167.1667339449821,167.1667339449821,84.23076401226679,121.11192310154277,1.0,1.1,-714,256,-480,271,-240,285,175.5820996761322,175.58213925361633,175.58459782600403,175.59660530090332,175.747145652771,175.747145652771,175.747145652771,175.747145652771,175.747145652771,175.747145652771,175.747145652771,176.56466579437256,2,0.9508709907531738,None,,,,,,,,,,,,,,,,,,23,3,2025-02-18_16h04.40.153,comp,2024.2.4,60.08222388388957,2025-02-18 16h04.50.459068 -0500,
47,47,0,critical,hdw,35.0,3.0,upper,200.0,125.0,127.0,127.0,125.0,200.0,3,1.495985984802246,None,,,,,0,0,0,0,0,47,47,111,176.57990717887878,,,,,,,,,,,,,,,,,,,,,,,,,,,,,,,,,,,,,,,,,,,,,,,,,,,,,,,,,,,,,,,,,,,,,,,,,,,,,,,,,200.0,125.0,127.0,127.0,125.0,200.0,3.0,3.1,-222,277,0,2,260,-284,176.56545400619507,176.56549286842346,176.56753134727478,176.57990717887878,176.7303695678711,176.7303695678711,176.7303695678711,176.7303695678711,176.7303695678711,176.7303695678711,176.7303695678711,178.08155179023743,3,1.495985984802246,None,,,,,,,,,,,,,,,,,,23,3,2025-02-18_16h04.40.153,comp,2024.2.4,60.08222388388957,2025-02-18 16h04.50.459068 -0500,
48,48,0,critical,hdw,35.0,4.0,upper,200.0,125.0,127.0,127.0,125.0,200.0,3,1.2021141052246094,None,,,,,0,0,0,0,0,48,48,113,178.09698176383972,,,,,,,,,,,,,,,,,,,,,,,,,,,,,,,,,,,,,,,,,,,,,,,,,,,,,,,,,,,,,,,,,,,,,,,,,,,,,,,,,200.0,125.0,127.0,127.0,125.0,200.0,4.0,4.1,-222,-256,0,0,260,-272,178.08234286308289,178.08238315582275,178.08493614196777,178.09698176383972,178.24715638160706,178.24715638160706,178.24715638160706,178.24715638160706,178.24715638160706,178.24715638160706,178.24715638160706,179.3146903514862,3,1.2021141052246094,None,,,,,,,,,,,,,,,,,,23,3,2025-02-18_16h04.40.153,comp,2024.2.4,60.08222388388957,2025-02-18 16h04.50.459068 -0500,
49,49,0,critical,whd,35.0,2.1,lower,57.0,133.0,133.0,57.0,70.0,70.0,1,2.6341774463653564,None,,,,,0,0,0,0,0,49,49,36,179.3298463821411,,,,,,,,,,,,,,,,,,,,,,,,,,,,,,,,,,,,,,,,,,,,,,,,,,,,,,,,,,,,,,,,,,,,,,,,,,,,,,,,,57.0,133.0,133.0,57.0,70.0,70.0,2.1,2.11,-191,264,0,277,160,-266,179.31546425819397,179.3155014514923,179.31755876541138,179.3298463821411,179.48006582260132,179.48006582260132,179.48006582260132,179.48006582260132,179.48006582260132,179.48006582260132,179.48006582260132,181.98121857643127,1,2.6341774463653564,None,,,,,,,,,,,,,,,,,,23,3,2025-02-18_16h04.40.153,comp,2024.2.4,60.08222388388957,2025-02-18 16h04.50.459068 -0500,
50,50,0,filler_square,None,None,None,None,None,None,None,None,None,None,3,1.1021678447723389,None,,,,,0,0,0,0,0,50,50,183,181.99677205085754,,,,,,,,,,,,,,,,,,,,,,,,,,,,,,,,,,,,,,,,,,,,,,,,,,,,,,,,,,,,,,,,,,,,,,,,,,,,,,,,,69.78465533481177,60.95705751323523,140.18684098123026,94.84493700288495,141.62092796864806,141.62092796864806,2.2,2.22,-174,265,0,-268,214,-272,181.98218512535095,181.98222541809082,181.9847240447998,181.99677205085754,182.14686036109924,182.14686036109924,182.14686036109924,182.14686036109924,182.14686036109924,182.14686036109924,182.14686036109924,183.1145360469818,3,1.1021678447723389,None,,,,,,,,,,,,,,,,,,23,3,2025-02-18_16h04.40.153,comp,2024.2.4,60.08222388388957,2025-02-18 16h04.50.459068 -0500,
51,51,0,critical,dwh,35.0,4.0,lower,70.0,70.0,57.0,133.0,133.0,57.0,2,1.226095199584961,None,,,,,0,0,0,0,0,51,51,64,183.12988233566284,,,,,,,,,,,,,,,,,,,,,,,,,,,,,,,,,,,,,,,,,,,,,,,,,,,,,,,,,,,,,,,,,,,,,,,,,,,,,,,,,70.0,70.0,57.0,133.0,133.0,57.0,4.0,4.1,-198,-281,0,9,191,-276,183.11548733711243,183.1155285835266,183.1180865764618,183.12988233566284,183.27997016906738,183.27997016906738,183.27997016906738,183.27997016906738,183.27997016906738,183.27997016906738,183.27997016906738,184.36459827423096,2,1.226095199584961,None,,,,,,,,,,,,,,,,,,23,3,2025-02-18_16h04.40.153,comp,2024.2.4,60.08222388388957,2025-02-18 16h04.50.459068 -0500,
52,52,0,critical,wdh,35.0,2.1,upper,125.0,200.0,127.0,127.0,200.0,125.0,3,1.2712280750274658,None,,,,,0,0,0,0,0,52,52,33,184.38017416000366,,,,,,,,,,,,,,,,,,,,,,,,,,,,,,,,,,,,,,,,,,,,,,,,,,,,,,,,,,,,,,,,,,,,,,,,,,,,,,,,,125.0,200.0,127.0,127.0,200.0,125.0,2.1,2.11,-260,253,0,280,222,-279,184.3654124736786,184.36545515060425,184.36793875694275,184.38017416000366,184.530198097229,184.530198097229,184.530198097229,184.530198097229,184.530198097229,184.530198097229,184.530198097229,185.6646270751953,3,1.2712280750274658,None,,,,,,,,,,,,,,,,,,23,3,2025-02-18_16h04.40.153,comp,2024.2.4,60.08222388388957,2025-02-18 16h04.50.459068 -0500,
53,53,0,critical,wdh,20.0,2.1,lower,57.0,133.0,78.0,78.0,133.0,57.0,3,1.171689510345459,None,,,,,0,0,0,0,0,53,53,10,185.67984199523926,,,,,,,,,,,,,,,,,,,,,,,,,,,,,,,,,,,,,,,,,,,,,,,,,,,,,,,,,,,,,,,,,,,,,,,,,,,,,,,,,57.0,133.0,78.0,78.0,133.0,57.0,2.1,2.11,-202,253,0,288,164,-287,185.66548204421997,185.66552090644836,185.66817498207092,185.67984199523926,185.82995986938477,185.82995986938477,185.82995986938477,185.82995986938477,185.82995986938477,185.82995986938477,185.82995986938477,186.86457180976868,3,1.171689510345459,None,,,,,,,,,,,,,,,,,,23,3,2025-02-18_16h04.40.153,comp,2024.2.4,60.08222388388957,2025-02-18 16h04.50.459068 -0500,
54,54,0,filler_square,None,None,None,None,None,None,None,None,None,None,2,1.0920379161834717,None,,,,,0,0,0,0,0,54,54,182,186.87988758087158,,,,,,,,,,,,,,,,,,,,,,,,,,,,,,,,,,,,,,,,,,,,,,,,,,,,,,,,,,,,,,,,,,,,,,,,,,,,,,,,,59.789339912330874,68.25162437721431,111.47339513741665,111.47339513741665,66.66643149078894,104.50499843009581,3.0,3.1,-186,259,0,7,204,-289,186.86552929878235,186.86557054519653,186.86769366264343,186.87988758087158,187.0299780368805,187.0299780368805,187.0299780368805,187.0299780368805,187.0299780368805,187.0299780368805,187.0299780368805,187.98099279403687,2,1.0920379161834717,None,,,,,,,,,,,,,,,,,,23,3,2025-02-18_16h04.40.153,comp,2024.2.4,60.08222388388957,2025-02-18 16h04.50.459068 -0500,
55,55,0,critical,dwh,35.0,1.0,upper,127.0,127.0,125.0,200.0,200.0,125.0,3,1.03275465965271,None,,,,,0,0,0,0,0,55,55,61,187.9968240261078,,,,,,,,,,,,,,,,,,,,,,,,,,,,,,,,,,,,,,,,,,,,,,,,,,,,,,,,,,,,,,,,,,,,,,,,,,,,,,,,,127.0,127.0,125.0,200.0,200.0,125.0,1.0,1.2,-260,5,0,17,258,-4,187.98174715042114,187.98179960250854,187.98410844802856,187.9968240261078,188.1470148563385,188.1470148563385,188.1470148563385,188.1470148563385,188.1470148563385,188.1470148563385,188.1470148563385,189.04816055297852,3,1.03275465965271,None,,,,,,,,,,,,,,,,,,23,3,2025-02-18_16h04.40.153,comp,2024.2.4,60.08222388388957,2025-02-18 16h04.50.459068 -0500,
56,56,0,filler_random,None,None,None,None,None,None,None,None,None,None,1,0.9715549945831299,None,,,,,0,0,0,0,0,56,56,167,189.0632848739624,,,,,,,,,,,,,,,,,,,,,,,,,,,,,,,,,,,,,,,,,,,,,,,,,,,,,,,,,,,,,,,,,,,,,,,,,,,,,,,,,144.57141851270356,107.66511109699903,58.509324090986574,191.9292133387237,105.1638075490477,59.99162088956806,1.0,1.2,-246,10,0,-4,222,16,189.0490608215332,189.04910230636597,189.05141472816467,189.0632848739624,189.21369552612305,189.21369552612305,189.21369552612305,189.21369552612305,189.21369552612305,189.21369552612305,189.21369552612305,190.04774403572083,1,0.9715549945831299,None,,,,,,,,,,,,,,,,,,23,3,2025-02-18_16h04.40.153,comp,2024.2.4,60.08222388388957,2025-02-18 16h04.50.459068 -0500,
57,57,0,filler_square,None,None,None,None,None,None,None,None,None,None,2,1.0766589641571045,None,,,,,0,0,0,0,0,57,57,193,190.06318855285645,,,,,,,,,,,,,,,,,,,,,,,,,,,,,,,,,,,,,,,,,,,,,,,,,,,,,,,,,,,,,,,,,,,,,,,,,,,,,,,,,71.156668096048,89.81341942256702,108.5698811767413,108.5698811767413,90.3936210650697,82.01780809085176,2.2,2.21,-195,-287,0,258,191,273,190.04869747161865,190.0487380027771,190.05107927322388,190.06318855285645,190.21333718299866,190.21333718299866,190.21333718299866,190.21333718299866,190.21333718299866,190.21333718299866,190.21333718299866,191.14788722991943,2,1.0766589641571045,None,,,,,,,,,,,,,,,,,,23,3,2025-02-18_16h04.40.153,comp,2024.2.4,60.08222388388957,2025-02-18 16h04.50.459068 -0500,
58,58,0,critical,dwh,20.0,2.1,upper,141.0,141.0,125.0,200.0,200.0,125.0,2,1.0879542827606201,None,,,,,0,0,0,0,0,58,58,7,191.1635491847992,,,,,,,,,,,,,,,,,,,,,,,,,,,,,,,,,,,,,,,,,,,,,,,,,,,,,,,,,,,,,,,,,,,,,,,,,,,,,,,,,141.0,141.0,125.0,200.0,200.0,125.0,2.1,2.11,-266,272,0,254,258,-259,191.14867162704468,191.1487123966217,191.15091395378113,191.1635491847992,191.31343579292297,191.31343579292297,191.31343579292297,191.31343579292297,191.31343579292297,191.31343579292297,191.31343579292297,192.2646496295929,2,1.0879542827606201,None,,,,,,,,,,,,,,,,,,23,3,2025-02-18_16h04.40.153,comp,2024.2.4,60.08222388388957,2025-02-18 16h04.50.459068 -0500,
59,59,0,filler_random,None,None,None,None,None,None,None,None,None,None,2,1.0509862899780273,None,,,,,0,0,0,0,0,59,59,158,192.27984952926636,,,,,,,,,,,,,,,,,,,,,,,,,,,,,,,,,,,,,,,,,,,,,,,,,,,,,,,,,,,,,,,,,,,,,,,,,,,,,,,,,98.60997898519256,167.77502572553556,195.05610281154685,185.87899336654164,58.29506561665677,92.53472939079866,2.2,2.22,-273,259,0,-265,235,-280,192.26554036140442,192.2655794620514,192.26810097694397,192.27984952926636,192.43007349967957,192.43007349967957,192.43007349967957,192.43007349967957,192.43007349967957,192.43007349967957,192.43007349967957,193.34818243980408,2,1.0509862899780273,None,,,,,,,,,,,,,,,,,,23,3,2025-02-18_16h04.40.153,comp,2024.2.4,60.08222388388957,2025-02-18 16h04.50.459068 -0500,
60,60,0,critical,hwd,35.0,3.0,lower,133.0,57.0,57.0,133.0,70.0,70.0,2,1.225393533706665,None,,,,,0,0,0,0,0,60,60,98,193.3631694316864,,,,,,,,,,,,,,,,,,,,,,,,,,,,,,,,,,,,,,,,,,,,,,,,,,,,,,,,,,,,,,,,,,,,,,,,,,,,,,,,,133.0,57.0,57.0,133.0,70.0,70.0,3.0,3.1,-191,252,0,-12,198,-289,193.34898972511292,193.34903192520142,193.35110902786255,193.3631694316864,193.51328420639038,193.51328420639038,193.51328420639038,193.51328420639038,193.51328420639038,193.51328420639038,193.51328420639038,194.59771060943604,2,1.225393533706665,None,,,,,,,,,,,,,,,,,,23,3,2025-02-18_16h04.40.153,comp,2024.2.4,60.08222388388957,2025-02-18 16h04.50.459068 -0500,
61,61,0,filler_square,None,None,None,None,None,None,None,None,None,None,3,1.174626111984253,None,,,,,0,0,0,0,0,61,61,197,194.61346054077148,,,,,,,,,,,,,,,,,,,,,,,,,,,,,,,,,,,,,,,,,,,,,,,,,,,,,,,,,,,,,,,,,,,,,,,,,,,,,,,,,101.7383639689179,101.03547167409702,86.99243953624344,83.0507906240895,141.42922295490473,141.42922295490473,1.0,1.3,292,-255,480,-281,688,-279,194.59868741035461,194.5987298488617,194.60130548477173,194.61346054077148,194.76345086097717,194.76345086097717,194.76345086097717,194.76345086097717,194.76345086097717,194.76345086097717,194.76345086097717,195.79777455329895,3,1.174626111984253,None,,,,,,,,,,,,,,,,,,23,3,2025-02-18_16h04.40.153,comp,2024.2.4,60.08222388388957,2025-02-18 16h04.50.459068 -0500,
62,62,0,filler_random,None,None,None,None,None,None,None,None,None,None,2,2.0533480644226074,None,,,,,0,0,0,0,0,62,62,139,195.81349086761475,,,,,,,,,,,,,,,,,,,,,,,,,,,,,,,,,,,,,,,,,,,,,,,,,,,,,,,,,,,,,,,,,,,,,,,,,,,,,,,,,74.3097259990195,164.66074616509695,112.93752927201429,83.31994703517165,77.25673723107116,85.60969903946182,2.1,2.11,-220,269,0,275,180,-260,195.79868149757385,195.79872250556946,195.8009865283966,195.81349086761475,195.96341609954834,195.96341609954834,195.96341609954834,195.96341609954834,195.96341609954834,195.96341609954834,195.96341609954834,197.88107109069824,2,2.0533480644226074,None,,,,,,,,,,,,,,,,,,23,3,2025-02-18_16h04.40.153,comp,2024.2.4,60.08222388388957,2025-02-18 16h04.50.459068 -0500,
63,63,0,critical,dhw,35.0,4.0,upper,127.0,127.0,200.0,125.0,125.0,200.0,2,1.2593674659729004,None,,,,,0,0,0,0,0,63,63,53,197.89651250839233,,,,,,,,,,,,,,,,,,,,,,,,,,,,,,,,,,,,,,,,,,,,,,,,,,,,,,,,,,,,,,,,,,,,,,,,,,,,,,,,,127.0,127.0,200.0,125.0,125.0,200.0,4.0,4.2,-222,-1,0,-261,258,16,197.88186597824097,197.8819055557251,197.88430976867676,197.89651250839233,198.04670929908752,198.04670929908752,198.04670929908752,198.04670929908752,198.04670929908752,198.04670929908752,198.04670929908752,199.16449213027954,2,1.2593674659729004,None,,,,,,,,,,,,,,,,,,23,3,2025-02-18_16h04.40.153,comp,2024.2.4,60.08222388388957,2025-02-18 16h04.50.459068 -0500,
64,64,0,catch,None,None,None,None,None,None,None,None,None,None,3,0.9032955169677734,None,,,,,0,0,0,0,0,64,64,127,199.17999124526978,,,,,,,,,,,,,,,,,,,,,,,,,,,,,,,,,,,,,,,,,,,,,,,,,,,,,,,,,,,,,,,,,,,,,,,,,,,,,,,,,103,87,80,110,129,196,4.0,4.1,-194,-286,0,3,249,-256,199.16554808616638,199.16558933258057,199.16809725761414,199.17999124526978,199.32999539375305,199.32999539375305,199.32999539375305,199.32999539375305,199.32999539375305,199.32999539375305,199.32999539375305,200.09763741493225,3,0.9032955169677734,None,,,,,,,,,,,,,,,,,,23,3,2025-02-18_16h04.40.153,comp,2024.2.4,60.08222388388957,2025-02-18 16h04.50.459068 -0500,
65,65,0,catch,None,None,None,None,None,None,None,None,None,None,3,1.1537845134735107,None,,,,,0,0,0,0,0,65,65,126,200.11306190490723,,,,,,,,,,,,,,,,,,,,,,,,,,,,,,,,,,,,,,,,,,,,,,,,,,,,,,,,,,,,,,,,,,,,,,,,,,,,,,,,,129,61,64,126,168,157,2.2,2.21,-190,-262,0,250,238,276,200.09869599342346,200.09873628616333,200.1013457775116,200.11306190490723,200.26381874084473,200.26381874084473,200.26381874084473,200.26381874084473,200.26381874084473,200.26381874084473,200.26381874084473,201.28119373321533,3,1.1537845134735107,None,,,,,,,,,,,,,,,,,,23,3,2025-02-18_16h04.40.153,comp,2024.2.4,60.08222388388957,2025-02-18 16h04.50.459068 -0500,
66,66,0,filler_random,None,None,None,None,None,None,None,None,None,None,3,1.1168925762176514,None,,,,,0,0,0,0,0,66,66,147,201.2964587211609,,,,,,,,,,,,,,,,,,,,,,,,,,,,,,,,,,,,,,,,,,,,,,,,,,,,,,,,,,,,,,,,,,,,,,,,,,,,,,,,,143.1485614999268,127.84775174433922,167.03422517209515,105.06258302155017,168.91963288889235,173.42073191823292,2.1,2.11,-212,283,0,255,235,-281,201.28210377693176,201.282146692276,201.28527164459229,201.2964587211609,201.4467134475708,201.4467134475708,201.4467134475708,201.4467134475708,201.4467134475708,201.4467134475708,201.4467134475708,202.431476354599,3,1.1168925762176514,None,,,,,,,,,,,,,,,,,,23,3,2025-02-18_16h04.40.153,comp,2024.2.4,60.08222388388957,2025-02-18 16h04.50.459068 -0500,
67,67,0,catch,None,None,None,None,None,None,None,None,None,None,2,1.1562249660491943,None,,,,,0,0,0,0,0,67,67,123,202.44641780853271,,,,,,,,,,,,,,,,,,,,,,,,,,,,,,,,,,,,,,,,,,,,,,,,,,,,,,,,,,,,,,,,,,,,,,,,,,,,,,,,,117,73,150,175,89,101,1.0,1.3,260,-279,480,-264,714,-281,202.4324963092804,202.43253779411316,202.4350037574768,202.44641780853271,202.59657859802246,202.59657859802246,202.59657859802246,202.59657859802246,202.59657859802246,202.59657859802246,202.59657859802246,203.6144871711731,2,1.1562249660491943,None,,,,,,,,,,,,,,,,,,23,3,2025-02-18_16h04.40.153,comp,2024.2.4,60.08222388388957,2025-02-18 16h04.50.459068 -0500,
68,68,0,critical,dhw,20.0,4.0,upper,141.0,141.0,200.0,125.0,125.0,200.0,3,2.2306134700775146,None,,,,,0,0,0,0,0,68,68,59,203.62973070144653,,,,,,,,,,,,,,,,,,,,,,,,,,,,,,,,,,,,,,,,,,,,,,,,,,,,,,,,,,,,,,,,,,,,,,,,,,,,,,,,,141.0,141.0,200.0,125.0,125.0,200.0,4.0,4.1,-229,-256,0,18,258,-271,203.61529779434204,203.61533737182617,203.6178650856018,203.62973070144653,203.7801034450531,203.7801034450531,203.7801034450531,203.7801034450531,203.7801034450531,203.7801034450531,203.7801034450531,205.86455297470093,3,2.2306134700775146,None,,,,,,,,,,,,,,,,,,23,3,2025-02-18_16h04.40.153,comp,2024.2.4,60.08222388388957,2025-02-18 16h04.50.459068 -0500,
69,69,0,critical,dhw,20.0,2.1,upper,141.0,141.0,200.0,125.0,125.0,200.0,2,0.9386663436889648,None,,,,,0,0,0,0,0,69,69,27,205.87989807128906,,,,,,,,,,,,,,,,,,,,,,,,,,,,,,,,,,,,,,,,,,,,,,,,,,,,,,,,,,,,,,,,,,,,,,,,,,,,,,,,,141.0,141.0,200.0,125.0,125.0,200.0,2.1,2.12,-229,-260,0,-284,258,268,205.8653383255005,205.86538004875183,205.86749005317688,205.87989807128906,206.03019309043884,206.03019309043884,206.03019309043884,206.03019309043884,206.03019309043884,206.03019309043884,206.03019309043884,206.83137011528015,2,0.9386663436889648,None,,,,,,,,,,,,,,,,,,23,3,2025-02-18_16h04.40.153,comp,2024.2.4,60.08222388388957,2025-02-18 16h04.50.459068 -0500,
70,70,0,filler_random,None,None,None,None,None,None,None,None,None,None,3,1.109300136566162,None,,,,,0,0,0,0,0,70,70,160,206.84632849693298,,,,,,,,,,,,,,,,,,,,,,,,,,,,,,,,,,,,,,,,,,,,,,,,,,,,,,,,,,,,,,,,,,,,,,,,,,,,,,,,,163.7530931030342,68.28607761504992,191.53602311211228,93.40714745505429,155.19509587054145,181.34339592268543,1.0,1.2,-177,10,0,10,233,3,206.8322389125824,206.8322787284851,206.834810256958,206.84632849693298,206.99668073654175,206.99668073654175,206.99668073654175,206.99668073654175,206.99668073654175,206.99668073654175,206.99668073654175,207.9643657207489,3,1.109300136566162,None,,,,,,,,,,,,,,,,,,23,3,2025-02-18_16h04.40.153,comp,2024.2.4,60.08222388388957,2025-02-18 16h04.50.459068 -0500,
71,71,0,critical,hdw,35.0,3.0,lower,133.0,57.0,70.0,70.0,57.0,133.0,3,3.480468511581421,None,,,,,0,0,0,0,0,71,71,110,207.9798903465271,,,,,,,,,,,,,,,,,,,,,,,,,,,,,,,,,,,,,,,,,,,,,,,,,,,,,,,,,,,,,,,,,,,,,,,,,,,,,,,,,133.0,57.0,70.0,70.0,57.0,133.0,3.0,3.1,-160,261,0,-3,198,-286,207.96516394615173,207.96520352363586,207.96731638908386,207.9798903465271,208.1298394203186,208.1298394203186,208.1298394203186,208.1298394203186,208.1298394203186,208.1298394203186,208.1298394203186,211.46506929397583,3,3.480468511581421,None,,,,,,,,,,,,,,,,,,23,3,2025-02-18_16h04.40.153,comp,2024.2.4,60.08222388388957,2025-02-18 16h04.50.459068 -0500,
72,72,0,critical,hwd,35.0,1.0,lower,133.0,57.0,57.0,133.0,70.0,70.0,2,0.9955027103424072,None,,,,,0,0,0,0,0,72,72,96,211.48002171516418,,,,,,,,,,,,,,,,,,,,,,,,,,,,,,,,,,,,,,,,,,,,,,,,,,,,,,,,,,,,,,,,,,,,,,,,,,,,,,,,,133.0,57.0,57.0,133.0,70.0,70.0,1.0,1.1,-671,268,-480,263,-282,287,211.46583080291748,211.46586894989014,211.4677495956421,211.48002171516418,211.62981700897217,211.62981700897217,211.62981700897217,211.62981700897217,211.62981700897217,211.62981700897217,211.62981700897217,212.48115944862366,2,0.9955027103424072,None,,,,,,,,,,,,,,,,,,23,3,2025-02-18_16h04.40.153,comp,2024.2.4,60.08222388388957,2025-02-18 16h04.50.459068 -0500,
73,73,0,critical,whd,20.0,4.0,upper,125.0,200.0,200.0,125.0,141.0,141.0,3,1.2339859008789062,None,,,,,0,0,0,0,0,73,73,95,212.49669313430786,,,,,,,,,,,,,,,,,,,,,,,,,,,,,,,,,,,,,,,,,,,,,,,,,,,,,,,,,,,,,,,,,,,,,,,,,,,,,,,,,125.0,200.0,200.0,125.0,141.0,141.0,4.0,4.1,-258,-276,0,-19,229,-265,212.48192524909973,212.48196387290955,212.48436164855957,212.49669313430786,212.64662885665894,212.64662885665894,212.64662885665894,212.64662885665894,212.64662885665894,212.64662885665894,212.64662885665894,213.74775624275208,3,1.2339859008789062,None,,,,,,,,,,,,,,,,,,23,3,2025-02-18_16h04.40.153,comp,2024.2.4,60.08222388388957,2025-02-18 16h04.50.459068 -0500,
74,74,0,critical,dwh,35.0,2.1,upper,127.0,127.0,125.0,200.0,200.0,125.0,2,1.2250018119812012,None,,,,,0,0,0,0,0,74,74,5,213.76303911209106,,,,,,,,,,,,,,,,,,,,,,,,,,,,,,,,,,,,,,,,,,,,,,,,,,,,,,,,,,,,,,,,,,,,,,,,,,,,,,,,,127.0,127.0,125.0,200.0,200.0,125.0,2.1,2.12,-260,-262,0,-262,258,251,213.7485489845276,213.74858784675598,213.75056982040405,213.76303911209106,213.91339421272278,213.91339421272278,213.91339421272278,213.91339421272278,213.91339421272278,213.91339421272278,213.91339421272278,214.99774026870728,2,1.2250018119812012,None,,,,,,,,,,,,,,,,,,23,3,2025-02-18_16h04.40.153,comp,2024.2.4,60.08222388388957,2025-02-18 16h04.50.459068 -0500,
75,75,0,critical,dwh,20.0,3.0,lower,78.0,78.0,57.0,133.0,133.0,57.0,2,0.9571943283081055,None,,,,,0,0,0,0,0,75,75,68,215.01327276229858,,,,,,,,,,,,,,,,,,,,,,,,,,,,,,,,,,,,,,,,,,,,,,,,,,,,,,,,,,,,,,,,,,,,,,,,,,,,,,,,,78.0,78.0,57.0,133.0,133.0,57.0,3.0,3.2,-202,-277,0,-1,191,279,214.99854254722595,214.9985830783844,215.00088715553284,215.01327276229858,215.16309523582458,215.16309523582458,215.16309523582458,215.16309523582458,215.16309523582458,215.16309523582458,215.16309523582458,215.9860701560974,2,0.9571943283081055,None,,,,,,,,,,,,,,,,,,23,3,2025-02-18_16h04.40.153,comp,2024.2.4,60.08222388388957,2025-02-18 16h04.50.459068 -0500,
76,76,0,filler_square,None,None,None,None,None,None,None,None,None,None,2,1.8122575283050537,None,,,,,0,0,0,0,0,76,76,185,216.0009195804596,,,,,,,,,,,,,,,,,,,,,,,,,,,,,,,,,,,,,,,,,,,,,,,,,,,,,,,,,,,,,,,,,,,,,,,,,,,,,,,,,59.28300866629459,81.50488069196773,88.18167200919396,88.18167200919396,69.11066400082372,62.43999409007362,2.2,2.22,-181,254,0,-260,171,-278,215.98718571662903,215.98722290992737,215.98919415473938,216.0009195804596,216.14665341377258,216.14665341377258,216.14665341377258,216.14665341377258,216.14665341377258,216.14665341377258,216.14665341377258,217.81444811820984,2,1.8122575283050537,None,,,,,,,,,,,,,,,,,,23,3,2025-02-18_16h04.40.153,comp,2024.2.4,60.08222388388957,2025-02-18 16h04.50.459068 -0500,
77,77,0,critical,dwh,20.0,2.1,lower,78.0,78.0,57.0,133.0,133.0,57.0,2,3.821298360824585,None,,,,,0,0,0,0,0,77,77,6,217.8298728466034,,,,,,,,,,,,,,,,,,,,,,,,,,,,,,,,,,,,,,,,,,,,,,,,,,,,,,,,,,,,,,,,,,,,,,,,,,,,,,,,,78.0,78.0,57.0,133.0,133.0,57.0,2.1,2.11,-202,282,0,273,191,-275,217.81527400016785,217.81531429290771,217.81745195388794,217.8298728466034,217.97997117042542,217.97997117042542,217.97997117042542,217.97997117042542,217.97997117042542,217.97997117042542,217.97997117042542,221.66420531272888,2,3.821298360824585,None,,,,,,,,,,,,,,,,,,23,3,2025-02-18_16h04.40.153,comp,2024.2.4,60.08222388388957,2025-02-18 16h04.50.459068 -0500,
78,78,0,filler_random,None,None,None,None,None,None,None,None,None,None,2,1.1498692035675049,None,,,,,0,0,0,0,0,78,78,150,221.67957043647766,,,,,,,,,,,,,,,,,,,,,,,,,,,,,,,,,,,,,,,,,,,,,,,,,,,,,,,,,,,,,,,,,,,,,,,,,,,,,,,,,138.29655484681592,72.85705019877796,198.73653104224167,141.93796205671381,108.93928462442918,187.7349108349955,3.0,3.1,-203,272,0,4,261,-290,221.66511273384094,221.66515350341797,221.667573928833,221.67957043647766,221.82996129989624,221.82996129989624,221.82996129989624,221.82996129989624,221.82996129989624,221.82996129989624,221.82996129989624,222.83126616477966,2,1.1498692035675049,None,,,,,,,,,,,,,,,,,,23,3,2025-02-18_16h04.40.153,comp,2024.2.4,60.08222388388957,2025-02-18 16h04.50.459068 -0500,
79,79,0,filler_random,None,None,None,None,None,None,None,None,None,None,1,1.052182674407959,None,,,,,0,0,0,0,0,79,79,142,222.84649872779846,,,,,,,,,,,,,,,,,,,,,,,,,,,,,,,,,,,,,,,,,,,,,,,,,,,,,,,,,,,,,,,,,,,,,,,,,,,,,,,,,192.63102834850065,93.9971064317182,109.5795013795537,67.01493695068588,104.89756319296171,139.22136888365003,1.0,1.2,-177,8,0,-5,199,-4,222.8321087360382,222.83214902877808,222.83446788787842,222.84649872779846,222.9965581893921,222.9965581893921,222.9965581893921,222.9965581893921,222.9965581893921,222.9965581893921,222.9965581893921,223.91436648368835,1,1.052182674407959,None,,,,,,,,,,,,,,,,,,23,3,2025-02-18_16h04.40.153,comp,2024.2.4,60.08222388388957,2025-02-18 16h04.50.459068 -0500,
80,80,0,filler_random,None,None,None,None,None,None,None,None,None,None,2,0.9369535446166992,None,,,,,0,0,0,0,0,80,80,135,223.92961502075195,,,,,,,,,,,,,,,,,,,,,,,,,,,,,,,,,,,,,,,,,,,,,,,,,,,,,,,,,,,,,,,,,,,,,,,,,,,,,,,,,97.4599006330663,97.70562063308857,79.76723599878642,179.29046132771407,76.89760806729934,100.91512251263927,3.0,3.2,-234,-261,0,1,236,278,223.9152729511261,223.91531491279602,223.91776752471924,223.92961502075195,224.08008646965027,224.08008646965027,224.08008646965027,224.08008646965027,224.08008646965027,224.08008646965027,224.08008646965027,224.880845785141,2,0.9369535446166992,None,,,,,,,,,,,,,,,,,,23,3,2025-02-18_16h04.40.153,comp,2024.2.4,60.08222388388957,2025-02-18 16h04.50.459068 -0500,
81,81,0,filler_square,None,None,None,None,None,None,None,None,None,None,3,3.0839667320251465,None,,,,,0,0,0,0,0,81,81,201,224.8962426185608,,,,,,,,,,,,,,,,,,,,,,,,,,,,,,,,,,,,,,,,,,,,,,,,,,,,,,,,,,,,,,,,,,,,,,,,,,,,,,,,,59.576322459515794,60.24664925927063,66.6837664096415,61.469366146517835,67.43816657563173,67.43816657563173,2.2,2.21,-157,-266,0,255,160,282,224.88182044029236,224.8818633556366,224.8842318058014,224.8962426185608,225.04613399505615,225.04613399505615,225.04613399505615,225.04613399505615,225.04613399505615,225.04613399505615,225.04613399505615,227.99742913246155,3,3.0839667320251465,None,,,,,,,,,,,,,,,,,,23,3,2025-02-18_16h04.40.153,comp,2024.2.4,60.08222388388957,2025-02-18 16h04.50.459068 -0500,
82,82,0,filler_random,None,None,None,None,None,None,None,None,None,None,3,2.4055984020233154,None,,,,,0,0,0,0,0,82,82,134,228.0128276348114,,,,,,,,,,,,,,,,,,,,,,,,,,,,,,,,,,,,,,,,,,,,,,,,,,,,,,,,,,,,,,,,,,,,,,,,,,,,,,,,,58.123844196897466,67.00693469144156,107.33044392803828,69.62996910649927,179.41473706631535,91.5620685972903,3.0,3.2,-164,-257,0,18,177,257,227.99835634231567,227.9983971118927,228.00088667869568,228.0128276348114,228.16305017471313,228.16305017471313,228.16305017471313,228.16305017471313,228.16305017471313,228.16305017471313,228.16305017471313,230.43095922470093,3,2.4055984020233154,None,,,,,,,,,,,,,,,,,,23,3,2025-02-18_16h04.40.153,comp,2024.2.4,60.08222388388957,2025-02-18 16h04.50.459068 -0500,
83,83,0,catch,None,None,None,None,None,None,None,None,None,None,3,1.229358196258545,None,,,,,0,0,0,0,0,83,83,120,230.44609022140503,,,,,,,,,,,,,,,,,,,,,,,,,,,,,,,,,,,,,,,,,,,,,,,,,,,,,,,,,,,,,,,,,,,,,,,,,,,,,,,,,97,93,62,128,136,189,2.2,2.21,-206,-283,0,281,254,264,230.43201065063477,230.43205213546753,230.43446588516235,230.44609022140503,230.59653544425964,230.59653544425964,230.59653544425964,230.59653544425964,230.59653544425964,230.59653544425964,230.59653544425964,231.68084239959717,3,1.229358196258545,None,,,,,,,,,,,,,,,,,,23,3,2025-02-18_16h04.40.153,comp,2024.2.4,60.08222388388957,2025-02-18 16h04.50.459068 -0500,
84,84,0,critical,hwd,35.0,2.1,upper,200.0,125.0,125.0,200.0,127.0,127.0,2,1.794848918914795,None,,,,,0,0,0,0,0,84,84,17,231.69660711288452,,,,,,,,,,,,,,,,,,,,,,,,,,,,,,,,,,,,,,,,,,,,,,,,,,,,,,,,,,,,,,,,,,,,,,,,,,,,,,,,,200.0,125.0,125.0,200.0,127.0,127.0,2.1,2.11,-258,265,0,261,260,-284,231.6816234588623,231.68166422843933,231.68373823165894,231.69660711288452,231.84648180007935,231.84648180007935,231.84648180007935,231.84648180007935,231.84648180007935,231.84648180007935,231.84648180007935,233.49776554107666,2,1.794848918914795,None,,,,,,,,,,,,,,,,,,23,3,2025-02-18_16h04.40.153,comp,2024.2.4,60.08222388388957,2025-02-18 16h04.50.459068 -0500,
85,85,0,critical,hwd,20.0,2.1,lower,133.0,57.0,57.0,133.0,78.0,78.0,1,1.8016026020050049,None,,,,,0,0,0,0,0,85,85,42,233.51300644874573,,,,,,,,,,,,,,,,,,,,,,,,,,,,,,,,,,,,,,,,,,,,,,,,,,,,,,,,,,,,,,,,,,,,,,,,,,,,,,,,,133.0,57.0,57.0,133.0,78.0,78.0,2.1,2.11,-191,268,0,279,202,-264,233.4985909461975,233.49863195419312,233.50096917152405,233.51300644874573,233.66298079490662,233.66298079490662,233.66298079490662,233.66298079490662,233.66298079490662,233.66298079490662,233.66298079490662,235.33065128326416,1,1.8016026020050049,None,,,,,,,,,,,,,,,,,,23,3,2025-02-18_16h04.40.153,comp,2024.2.4,60.08222388388957,2025-02-18 16h04.50.459068 -0500,
86,86,0,critical,hdw,35.0,4.0,lower,133.0,57.0,70.0,70.0,57.0,133.0,1,1.3771841526031494,None,,,,,0,0,0,0,0,86,86,112,235.34610533714294,,,,,,,,,,,,,,,,,,,,,,,,,,,,,,,,,,,,,,,,,,,,,,,,,,,,,,,,,,,,,,,,,,,,,,,,,,,,,,,,,133.0,57.0,70.0,70.0,57.0,133.0,4.0,4.1,-160,-277,0,-5,198,-261,235.33146810531616,235.33150959014893,235.33408617973328,235.34610533714294,235.49654412269592,235.49654412269592,235.49654412269592,235.49654412269592,235.49654412269592,235.49654412269592,235.49654412269592,236.73064136505127,1,1.3771841526031494,None,,,,,,,,,,,,,,,,,,23,3,2025-02-18_16h04.40.153,comp,2024.2.4,60.08222388388957,2025-02-18 16h04.50.459068 -0500,
87,87,0,critical,hdw,35.0,2.1,upper,200.0,125.0,127.0,127.0,125.0,200.0,3,2.960747718811035,None,,,,,0,0,0,0,0,87,87,45,236.74655389785767,,,,,,,,,,,,,,,,,,,,,,,,,,,,,,,,,,,,,,,,,,,,,,,,,,,,,,,,,,,,,,,,,,,,,,,,,,,,,,,,,200.0,125.0,127.0,127.0,125.0,200.0,2.1,2.12,-222,-285,0,-272,260,262,236.73144435882568,236.7314841747284,236.73408389091492,236.74655389785767,236.89647960662842,236.89647960662842,236.89647960662842,236.89647960662842,236.89647960662842,236.89647960662842,236.89647960662842,239.7142436504364,3,2.960747718811035,None,,,,,,,,,,,,,,,,,,23,3,2025-02-18_16h04.40.153,comp,2024.2.4,60.08222388388957,2025-02-18 16h04.50.459068 -0500,
88,88,0,critical,dhw,35.0,2.1,lower,70.0,70.0,133.0,57.0,57.0,133.0,3,2.8334696292877197,None,,,,,0,0,0,0,0,88,88,0,239.72961950302124,,,,,,,,,,,,,,,,,,,,,,,,,,,,,,,,,,,,,,,,,,,,,,,,,,,,,,,,,,,,,,,,,,,,,,,,,,,,,,,,,70.0,70.0,133.0,57.0,57.0,133.0,2.1,2.11,-160,285,0,254,191,-270,239.7150435447693,239.71508502960205,239.71719336509705,239.72961950302124,239.87990951538086,239.87990951538086,239.87990951538086,239.87990951538086,239.87990951538086,239.87990951538086,239.87990951538086,242.58069276809692,3,2.8334696292877197,None,,,,,,,,,,,,,,,,,,23,3,2025-02-18_16h04.40.153,comp,2024.2.4,60.08222388388957,2025-02-18 16h04.50.459068 -0500,
89,89,0,filler_square,None,None,None,None,None,None,None,None,None,None,3,2.2060935497283936,None,,,,,0,0,0,0,0,89,89,195,242.59615921974182,,,,,,,,,,,,,,,,,,,,,,,,,,,,,,,,,,,,,,,,,,,,,,,,,,,,,,,,,,,,,,,,,,,,,,,,,,,,,,,,,61.58284355117581,86.85212704090476,112.12916215706318,109.20188353157607,124.11358095873818,124.11358095873818,2.2,2.21,-194,-269,0,278,213,277,242.5816843509674,242.5817265510559,242.58429837226868,242.59615921974182,242.7463071346283,242.7463071346283,242.7463071346283,242.7463071346283,242.7463071346283,242.7463071346283,242.7463071346283,244.81418132781982,3,2.2060935497283936,None,,,,,,,,,,,,,,,,,,23,3,2025-02-18_16h04.40.153,comp,2024.2.4,60.08222388388957,2025-02-18 16h04.50.459068 -0500,
90,90,0,critical,hdw,20.0,2.1,upper,200.0,125.0,141.0,141.0,125.0,200.0,1,2.167066812515259,None,,,,,0,0,0,0,0,90,90,47,244.82945942878723,,,,,,,,,,,,,,,,,,,,,,,,,,,,,,,,,,,,,,,,,,,,,,,,,,,,,,,,,,,,,,,,,,,,,,,,,,,,,,,,,200.0,125.0,141.0,141.0,125.0,200.0,2.1,2.11,-229,271,0,267,266,-274,244.81499528884888,244.8150360584259,244.81841921806335,244.82945942878723,244.97976994514465,244.97976994514465,244.97976994514465,244.97976994514465,244.97976994514465,244.97976994514465,244.97976994514465,246.99782013893127,1,2.167066812515259,None,,,,,,,,,,,,,,,,,,23,3,2025-02-18_16h04.40.153,comp,2024.2.4,60.08222388388957,2025-02-18 16h04.50.459068 -0500,
91,91,0,critical,hdw,20.0,4.0,upper,200.0,125.0,141.0,141.0,125.0,200.0,3,2.975003480911255,None,,,,,0,0,0,0,0,91,91,119,247.01295590400696,,,,,,,,,,,,,,,,,,,,,,,,,,,,,,,,,,,,,,,,,,,,,,,,,,,,,,,,,,,,,,,,,,,,,,,,,,,,,,,,,200.0,125.0,141.0,141.0,125.0,200.0,4.0,4.2,-229,12,0,-253,266,-15,246.99857711791992,246.9986174106598,247.00116300582886,247.01295590400696,247.1632206439972,247.1632206439972,247.1632206439972,247.1632206439972,247.1632206439972,247.1632206439972,247.1632206439972,249.99746417999268,3,2.975003480911255,None,,,,,,,,,,,,,,,,,,23,3,2025-02-18_16h04.40.153,comp,2024.2.4,60.08222388388957,2025-02-18 16h04.50.459068 -0500,
92,92,0,critical,wdh,35.0,2.1,lower,57.0,133.0,70.0,70.0,133.0,57.0,1,3.1500864028930664,None,,,,,0,0,0,0,0,92,92,8,250.01293659210205,,,,,,,,,,,,,,,,,,,,,,,,,,,,,,,,,,,,,,,,,,,,,,,,,,,,,,,,,,,,,,,,,,,,,,,,,,,,,,,,,57.0,133.0,70.0,70.0,133.0,57.0,2.1,2.12,-198,-263,0,-272,160,256,249.99824285507202,249.99828267097473,250.00072765350342,250.01293659210205,250.163090467453,250.163090467453,250.163090467453,250.163090467453,250.163090467453,250.163090467453,250.163090467453,253.18058156967163,1,3.1500864028930664,None,,,,,,,,,,,,,,,,,,23,3,2025-02-18_16h04.40.153,comp,2024.2.4,60.08222388388957,2025-02-18 16h04.50.459068 -0500,
93,93,0,critical,dwh,35.0,1.0,lower,70.0,70.0,57.0,133.0,133.0,57.0,3,1.7756428718566895,None,,,,,0,0,0,0,0,93,93,60,253.1959297657013,,,,,,,,,,,,,,,,,,,,,,,,,,,,,,,,,,,,,,,,,,,,,,,,,,,,,,,,,,,,,,,,,,,,,,,,,,,,,,,,,70.0,70.0,57.0,133.0,133.0,57.0,1.0,1.1,-678,269,-480,270,-289,253,253.18138456344604,253.18142437934875,253.18400526046753,253.1959297657013,253.3459780216217,253.3459780216217,253.3459780216217,253.3459780216217,253.3459780216217,253.3459780216217,253.3459780216217,254.98066902160645,3,1.7756428718566895,None,,,,,,,,,,,,,,,,,,23,3,2025-02-18_16h04.40.153,comp,2024.2.4,60.08222388388957,2025-02-18 16h04.50.459068 -0500,
94,94,0,critical,wdh,20.0,1.0,upper,125.0,200.0,141.0,141.0,200.0,125.0,1,1.2167894840240479,None,,,,,0,0,0,0,0,94,94,79,254.99632501602173,,,,,,,,,,,,,,,,,,,,,,,,,,,,,,,,,,,,,,,,,,,,,,,,,,,,,,,,,,,,,,,,,,,,,,,,,,,,,,,,,125.0,200.0,141.0,141.0,200.0,125.0,1.0,1.2,-266,-8,0,19,229,10,254.98149275779724,254.98153376579285,254.98434472084045,254.99632501602173,255.14622020721436,255.14622020721436,255.14622020721436,255.14622020721436,255.14622020721436,255.14622020721436,255.14622020721436,256.2307622432709,1,1.2167894840240479,None,,,,,,,,,,,,,,,,,,23,3,2025-02-18_16h04.40.153,comp,2024.2.4,60.08222388388957,2025-02-18 16h04.50.459068 -0500,
95,95,0,critical,wdh,35.0,4.0,lower,57.0,133.0,70.0,70.0,133.0,57.0,1,1.6290311813354492,None,,,,,0,0,0,0,0,95,95,76,256.24623918533325,,,,,,,,,,,,,,,,,,,,,,,,,,,,,,,,,,,,,,,,,,,,,,,,,,,,,,,,,,,,,,,,,,,,,,,,,,,,,,,,,57.0,133.0,70.0,70.0,133.0,57.0,4.0,4.2,-198,18,0,-289,160,17,256.23154878616333,256.23158979415894,256.23436975479126,256.24623918533325,256.3960611820221,256.3960611820221,256.3960611820221,256.3960611820221,256.3960611820221,256.3960611820221,256.3960611820221,257.88053345680237,1,1.6290311813354492,None,,,,,,,,,,,,,,,,,,23,3,2025-02-18_16h04.40.153,comp,2024.2.4,60.08222388388957,2025-02-18 16h04.50.459068 -0500,
96,96,0,critical,dhw,20.0,2.1,upper,141.0,141.0,200.0,125.0,125.0,200.0,3,1.3327720165252686,None,,,,,0,0,0,0,0,96,96,3,257.89619541168213,,,,,,,,,,,,,,,,,,,,,,,,,,,,,,,,,,,,,,,,,,,,,,,,,,,,,,,,,,,,,,,,,,,,,,,,,,,,,,,,,141.0,141.0,200.0,125.0,125.0,200.0,2.1,2.11,-229,282,0,279,258,-269,257.88130950927734,257.8813498020172,257.88388109207153,257.89619541168213,258.04625368118286,258.04625368118286,258.04625368118286,258.04625368118286,258.04625368118286,258.04625368118286,258.04625368118286,259.24745893478394,3,1.3327720165252686,None,,,,,,,,,,,,,,,,,,23,3,2025-02-18_16h04.40.153,comp,2024.2.4,60.08222388388957,2025-02-18 16h04.50.459068 -0500,
97,97,0,filler_random,None,None,None,None,None,None,None,None,None,None,3,0.9716908931732178,None,,,,,0,0,0,0,0,97,97,148,259.26254534721375,,,,,,,,,,,,,,,,,,,,,,,,,,,,,,,,,,,,,,,,,,,,,,,,,,,,,,,,,,,,,,,,,,,,,,,,,,,,,,,,,76.28170624310658,175.85518036979914,94.63872620539375,167.17451392899665,169.9903162682386,198.37807060144885,4.0,4.1,-268,-250,0,10,279,-271,259.2483649253845,259.2484064102173,259.25091671943665,259.26254534721375,259.41305470466614,259.41305470466614,259.41305470466614,259.41305470466614,259.41305470466614,259.41305470466614,259.41305470466614,260.24745202064514,3,0.9716908931732178,None,,,,,,,,,,,,,,,,,,23,3,2025-02-18_16h04.40.153,comp,2024.2.4,60.08222388388957,2025-02-18 16h04.50.459068 -0500,
98,98,0,critical,hdw,35.0,2.1,lower,133.0,57.0,70.0,70.0,57.0,133.0,1,1.3979499340057373,None,,,,,0,0,0,0,0,98,98,44,260.2625870704651,,,,,,,,,,,,,,,,,,,,,,,,,,,,,,,,,,,,,,,,,,,,,,,,,,,,,,,,,,,,,,,,,,,,,,,,,,,,,,,,,133.0,57.0,70.0,70.0,57.0,133.0,2.1,2.12,-160,-287,0,-259,198,281,260.24824619293213,260.2482862472534,260.2507076263428,260.2625870704651,260.4127731323242,260.4127731323242,260.4127731323242,260.4127731323242,260.4127731323242,260.4127731323242,260.4127731323242,261.6638414859772,1,1.3979499340057373,None,,,,,,,,,,,,,,,,,,23,3,2025-02-18_16h04.40.153,comp,2024.2.4,60.08222388388957,2025-02-18 16h04.50.459068 -0500,
99,99,0,filler_square,None,None,None,None,None,None,None,None,None,None,3,1.0507879257202148,None,,,,,0,0,0,0,0,99,99,186,261.67944288253784,,,,,,,,,,,,,,,,,,,,,,,,,,,,,,,,,,,,,,,,,,,,,,,,,,,,,,,,,,,,,,,,,,,,,,,,,,,,,,,,,94.74759459971236,69.03602908460577,74.27418203596453,92.97600905081569,96.77640734981537,96.77640734981537,1.0,1.2,-177,8,0,-12,191,0,261.6647627353668,261.6648168563843,261.66716599464417,261.67944288253784,261.829297542572,261.829297542572,261.829297542572,261.829297542572,261.829297542572,261.829297542572,261.829297542572,262.7470703125,3,1.0507879257202148,None,,,,,,,,,,,,,,,,,,23,3,2025-02-18_16h04.40.153,comp,2024.2.4,60.08222388388957,2025-02-18 16h04.50.459068 -0500,
100,100,0,critical,whd,20.0,3.0,lower,57.0,133.0,133.0,57.0,78.0,78.0,2,1.0171756744384766,None,,,,,0,0,0,0,0,100,100,92,262.76238322257996,,,,,,,,,,,,,,,,,,,,,,,,,,,,,,,,,,,,,,,,,,,,,,,,,,,,,,,,,,,,,,,,,,,,,,,,,,,,,,,,,57.0,133.0,133.0,57.0,78.0,78.0,3.0,3.2,-191,-265,0,15,164,255,262.7478702068329,262.7479100227356,262.7503283023834,262.76238322257996,262.9126687049866,262.9126687049866,262.9126687049866,262.9126687049866,262.9126687049866,262.9126687049866,262.9126687049866,263.7971622943878,2,1.0171756744384766,None,,,,,,,,,,,,,,,,,,23,3,2025-02-18_16h04.40.153,comp,2024.2.4,60.08222388388957,2025-02-18 16h04.50.459068 -0500,
101,101,0,critical,whd,35.0,3.0,lower,57.0,133.0,133.0,57.0,70.0,70.0,1,1.1266136169433594,None,,,,,0,0,0,0,0,101,101,86,263.81248450279236,,,,,,,,,,,,,,,,,,,,,,,,,,,,,,,,,,,,,,,,,,,,,,,,,,,,,,,,,,,,,,,,,,,,,,,,,,,,,,,,,57.0,133.0,133.0,57.0,70.0,70.0,3.0,3.2,-191,-273,0,-19,160,252,263.7979645729065,263.7980070114136,263.80047249794006,263.81248450279236,263.96267104148865,263.96267104148865,263.96267104148865,263.96267104148865,263.96267104148865,263.96267104148865,263.96267104148865,264.9470944404602,1,1.1266136169433594,None,,,,,,,,,,,,,,,,,,23,3,2025-02-18_16h04.40.153,comp,2024.2.4,60.08222388388957,2025-02-18 16h04.50.459068 -0500,
102,102,0,filler_square,None,None,None,None,None,None,None,None,None,None,3,0.8665957450866699,None,,,,,0,0,0,0,0,102,102,190,264.96265983581543,,,,,,,,,,,,,,,,,,,,,,,,,,,,,,,,,,,,,,,,,,,,,,,,,,,,,,,,,,,,,,,,,,,,,,,,,,,,,,,,,57.90445578848551,90.20072853509043,78.94629488557065,58.32455383852381,108.41631953693886,108.41631953693886,3.0,3.1,-170,287,0,-6,179,-260,264.94803953170776,264.9480800628662,264.9504859447479,264.96265983581543,265.11264085769653,265.11264085769653,265.11264085769653,265.11264085769653,265.11264085769653,265.11264085769653,265.11264085769653,265.8308880329132,3,0.8665957450866699,None,,,,,,,,,,,,,,,,,,23,3,2025-02-18_16h04.40.153,comp,2024.2.4,60.08222388388957,2025-02-18 16h04.50.459068 -0500,
103,103,0,filler_random,None,None,None,None,None,None,None,None,None,None,1,0.8929390907287598,None,,,,,0,0,0,0,0,103,103,153,265.8461444377899,,,,,,,,,,,,,,,,,,,,,,,,,,,,,,,,,,,,,,,,,,,,,,,,,,,,,,,,,,,,,,,,,,,,,,,,,,,,,,,,,180.99033722287072,169.0348906364659,123.69982872369681,165.16156228679756,121.88272071402984,112.37635974864445,2.1,2.11,-263,287,0,257,235,-281,265.8318250179291,265.83186650276184,265.8340413570404,265.8461444377899,265.99628019332886,265.99628019332886,265.99628019332886,265.99628019332886,265.99628019332886,265.99628019332886,265.99628019332886,266.7474389076233,1,0.8929390907287598,None,,,,,,,,,,,,,,,,,,23,3,2025-02-18_16h04.40.153,comp,2024.2.4,60.08222388388957,2025-02-18 16h04.50.459068 -0500,
104,104,0,filler_square,None,None,None,None,None,None,None,None,None,None,1,1.4005367755889893,None,,,,,0,0,0,0,0,104,104,189,266.7627148628235,,,,,,,,,,,,,,,,,,,,,,,,,,,,,,,,,,,,,,,,,,,,,,,,,,,,,,,,,,,,,,,,,,,,,,,,,,,,,,,,,120.95370977214233,120.95370977214233,80.12076865704337,64.90851986735187,98.83733230453278,119.64837716288764,1.0,1.3,291,-273,480,-263,668,-276,266.74839448928833,266.7484350204468,266.7509696483612,266.7627148628235,266.91261172294617,266.91261172294617,266.91261172294617,266.91261172294617,266.91261172294617,266.91261172294617,266.91261172294617,268.1805944442749,1,1.4005367755889893,None,,,,,,,,,,,,,,,,,,23,3,2025-02-18_16h04.40.153,comp,2024.2.4,60.08222388388957,2025-02-18 16h04.50.459068 -0500,
105,105,0,filler_square,None,None,None,None,None,None,None,None,None,None,2,1.4548494815826416,None,,,,,0,0,0,0,0,105,105,170,268.1958484649658,,,,,,,,,,,,,,,,,,,,,,,,,,,,,,,,,,,,,,,,,,,,,,,,,,,,,,,,,,,,,,,,,,,,,,,,,,,,,,,,,166.78651321329622,151.73163423193566,171.12062234891135,171.12062234891135,90.46976461039387,104.62301736171229,1.0,1.3,223,-260,480,-288,714,-286,268.1815507411957,268.18159008026123,268.18416571617126,268.1958484649658,268.34608030319214,268.34608030319214,268.34608030319214,268.34608030319214,268.34608030319214,268.34608030319214,268.34608030319214,269.6640169620514,2,1.4548494815826416,None,,,,,,,,,,,,,,,,,,23,3,2025-02-18_16h04.40.153,comp,2024.2.4,60.08222388388957,2025-02-18 16h04.50.459068 -0500,
106,106,0,critical,whd,35.0,1.0,upper,125.0,200.0,200.0,125.0,127.0,127.0,2,1.1086673736572266,None,,,,,0,0,0,0,0,106,106,85,269.6792047023773,,,,,,,,,,,,,,,,,,,,,,,,,,,,,,,,,,,,,,,,,,,,,,,,,,,,,,,,,,,,,,,,,,,,,,,,,,,,,,,,,125.0,200.0,200.0,125.0,127.0,127.0,1.0,1.1,-738,267,-480,280,-258,263,269.66477823257446,269.6648302078247,269.6681170463562,269.6792047023773,269.829617023468,269.829617023468,269.829617023468,269.829617023468,269.829617023468,269.829617023468,269.829617023468,270.7972741127014,2,1.1086673736572266,None,,,,,,,,,,,,,,,,,,23,3,2025-02-18_16h04.40.153,comp,2024.2.4,60.08222388388957,2025-02-18 16h04.50.459068 -0500,
107,107,0,critical,dhw,20.0,3.0,lower,78.0,78.0,133.0,57.0,57.0,133.0,2,1.2000586986541748,None,,,,,0,0,0,0,0,107,107,56,270.8126595020294,,,,,,,,,,,,,,,,,,,,,,,,,,,,,,,,,,,,,,,,,,,,,,,,,,,,,,,,,,,,,,,,,,,,,,,,,,,,,,,,,78.0,78.0,133.0,57.0,57.0,133.0,3.0,3.1,-164,277,0,-14,191,-265,270.7981081008911,270.79814863204956,270.80059838294983,270.8126595020294,270.96263909339905,270.96263909339905,270.96263909339905,270.96263909339905,270.96263909339905,270.96263909339905,270.96263909339905,272.0140657424927,2,1.2000586986541748,None,,,,,,,,,,,,,,,,,,23,3,2025-02-18_16h04.40.153,comp,2024.2.4,60.08222388388957,2025-02-18 16h04.50.459068 -0500,
108,108,0,critical,wdh,35.0,2.1,upper,125.0,200.0,127.0,127.0,200.0,125.0,3,1.4046316146850586,None,,,,,0,0,0,0,0,108,108,9,272.0294120311737,,,,,,,,,,,,,,,,,,,,,,,,,,,,,,,,,,,,,,,,,,,,,,,,,,,,,,,,,,,,,,,,,,,,,,,,,,,,,,,,,125.0,200.0,127.0,127.0,200.0,125.0,2.1,2.11,-260,287,0,285,222,-288,272.01487135887146,272.0149145126343,272.01780366897583,272.0294120311737,272.179395198822,272.179395198822,272.179395198822,272.179395198822,272.179395198822,272.179395198822,272.179395198822,273.4473810195923,3,1.4046316146850586,None,,,,,,,,,,,,,,,,,,23,3,2025-02-18_16h04.40.153,comp,2024.2.4,60.08222388388957,2025-02-18 16h04.50.459068 -0500,
109,109,0,filler_square,None,None,None,None,None,None,None,None,None,None,2,1.0838592052459717,None,,,,,0,0,0,0,0,109,109,204,273.46243047714233,,,,,,,,,,,,,,,,,,,,,,,,,,,,,,,,,,,,,,,,,,,,,,,,,,,,,,,,,,,,,,,,,,,,,,,,,,,,,,,,,66.638199124137,71.51345290621234,74.08279444565984,74.08279444565984,66.74818758453432,73.13438336057928,4.0,4.1,-169,-276,0,7,170,-285,273.4483428001404,273.44838428497314,273.4508230686188,273.46243047714233,273.6125078201294,273.6125078201294,273.6125078201294,273.6125078201294,273.6125078201294,273.6125078201294,273.6125078201294,274.5637061595917,2,1.0838592052459717,None,,,,,,,,,,,,,,,,,,23,3,2025-02-18_16h04.40.153,comp,2024.2.4,60.08222388388957,2025-02-18 16h04.50.459068 -0500,
110,110,0,critical,wdh,20.0,3.0,lower,57.0,133.0,78.0,78.0,133.0,57.0,3,0.9600214958190918,None,,,,,0,0,0,0,0,110,110,80,274.57899832725525,,,,,,,,,,,,,,,,,,,,,,,,,,,,,,,,,,,,,,,,,,,,,,,,,,,,,,,,,,,,,,,,,,,,,,,,,,,,,,,,,57.0,133.0,78.0,78.0,133.0,57.0,3.0,3.1,-202,252,0,14,164,-257,274.56451058387756,274.56455063819885,274.5671434402466,274.57899832725525,274.72925782203674,274.72925782203674,274.72925782203674,274.72925782203674,274.72925782203674,274.72925782203674,274.72925782203674,275.54700112342834,3,0.9600214958190918,None,,,,,,,,,,,,,,,,,,23,3,2025-02-18_16h04.40.153,comp,2024.2.4,60.08222388388957,2025-02-18 16h04.50.459068 -0500,
111,111,0,critical,wdh,35.0,1.0,lower,57.0,133.0,70.0,70.0,133.0,57.0,1,1.1764774322509766,None,,,,,0,0,0,0,0,111,111,72,275.5626301765442,,,,,,,,,,,,,,,,,,,,,,,,,,,,,,,,,,,,,,,,,,,,,,,,,,,,,,,,,,,,,,,,,,,,,,,,,,,,,,,,,57.0,133.0,70.0,70.0,133.0,57.0,1.0,1.3,282,-286,480,-259,640,-288,275.54784321784973,275.5478835105896,275.55018520355225,275.5626301765442,275.7124831676483,275.7124831676483,275.7124831676483,275.7124831676483,275.7124831676483,275.7124831676483,275.7124831676483,276.7471716403961,1,1.1764774322509766,None,,,,,,,,,,,,,,,,,,23,3,2025-02-18_16h04.40.153,comp,2024.2.4,60.08222388388957,2025-02-18 16h04.50.459068 -0500,
112,112,0,critical,hwd,35.0,4.0,lower,133.0,57.0,57.0,133.0,70.0,70.0,2,1.0248749256134033,None,,,,,0,0,0,0,0,112,112,100,276.7626473903656,,,,,,,,,,,,,,,,,,,,,,,,,,,,,,,,,,,,,,,,,,,,,,,,,,,,,,,,,,,,,,,,,,,,,,,,,,,,,,,,,133.0,57.0,57.0,133.0,70.0,70.0,4.0,4.2,-191,-3,0,-279,198,-18,276.74793100357056,276.7479705810547,276.75007915496826,276.7626473903656,276.91239953041077,276.91239953041077,276.91239953041077,276.91239953041077,276.91239953041077,276.91239953041077,276.91239953041077,277.79695320129395,2,1.0248749256134033,None,,,,,,,,,,,,,,,,,,23,3,2025-02-18_16h04.40.153,comp,2024.2.4,60.08222388388957,2025-02-18 16h04.50.459068 -0500,
113,113,0,filler_square,None,None,None,None,None,None,None,None,None,None,3,0.8318507671356201,None,,,,,0,0,0,0,0,113,113,196,277.81260347366333,,,,,,,,,,,,,,,,,,,,,,,,,,,,,,,,,,,,,,,,,,,,,,,,,,,,,,,,,,,,,,,,,,,,,,,,,,,,,,,,,81.22537362426142,111.90857766239506,66.0879012498865,60.0864923973764,128.15185957447994,128.15185957447994,2.2,2.22,-182,283,0,-254,190,-288,277.7980227470398,277.79806542396545,277.8002014160156,277.81260347366333,277.96254086494446,277.96254086494446,277.96254086494446,277.96254086494446,277.96254086494446,277.96254086494446,277.96254086494446,278.6472978591919,3,0.8318507671356201,None,,,,,,,,,,,,,,,,,,23,3,2025-02-18_16h04.40.153,comp,2024.2.4,60.08222388388957,2025-02-18 16h04.50.459068 -0500,
114,114,0,filler_random,None,None,None,None,None,None,None,None,None,None,1,1.0034654140472412,None,,,,,0,0,0,0,0,114,114,157,278.66266679763794,,,,,,,,,,,,,,,,,,,,,,,,,,,,,,,,,,,,,,,,,,,,,,,,,,,,,,,,,,,,,,,,,,,,,,,,,,,,,,,,,129.78484779004503,155.47583192629304,177.17567629239704,77.24046557179751,62.35526313090994,141.88554560880704,3.0,3.1,-212,272,0,-19,206,-286,278.6482026576996,278.64824509620667,278.65033411979675,278.66266679763794,278.81257581710815,278.81257581710815,278.81257581710815,278.81257581710815,278.81257581710815,278.81257581710815,278.81257581710815,279.68030643463135,1,1.0034654140472412,None,,,,,,,,,,,,,,,,,,23,3,2025-02-18_16h04.40.153,comp,2024.2.4,60.08222388388957,2025-02-18 16h04.50.459068 -0500,
115,115,0,filler_random,None,None,None,None,None,None,None,None,None,None,3,1.1956405639648438,None,,,,,0,0,0,0,0,115,115,155,279.69559931755066,,,,,,,,,,,,,,,,,,,,,,,,,,,,,,,,,,,,,,,,,,,,,,,,,,,,,,,,,,,,,,,,,,,,,,,,,,,,,,,,,67.68588150351958,88.33447544742734,105.608603555267,124.82246523617515,191.33334549832287,109.79563976412562,2.1,2.11,-203,285,0,270,213,-290,279.6812160015106,279.6812570095062,279.68385434150696,279.69559931755066,279.8458812236786,279.8458812236786,279.8458812236786,279.8458812236786,279.8458812236786,279.8458812236786,279.8458812236786,280.8971004486084,3,1.1956405639648438,None,,,,,,,,,,,,,,,,,,23,3,2025-02-18_16h04.40.153,comp,2024.2.4,60.08222388388957,2025-02-18 16h04.50.459068 -0500,
116,116,0,filler_random,None,None,None,None,None,None,None,None,None,None,3,0.8264119625091553,None,,,,,0,0,0,0,0,116,116,133,280.912558555603,,,,,,,,,,,,,,,,,,,,,,,,,,,,,,,,,,,,,,,,,,,,,,,,,,,,,,,,,,,,,,,,,,,,,,,,,,,,,,,,,170.19340079573468,64.70532630115208,113.67492730064883,57.6722862504976,133.08344104363053,196.14150259030382,3.0,3.2,-157,-265,0,-2,223,263,280.89797043800354,280.8980107307434,280.90042185783386,280.912558555603,281.06248688697815,281.06248688697815,281.06248688697815,281.06248688697815,281.06248688697815,281.06248688697815,281.06248688697815,281.74705028533936,3,0.8264119625091553,None,,,,,,,,,,,,,,,,,,23,3,2025-02-18_16h04.40.153,comp,2024.2.4,60.08222388388957,2025-02-18 16h04.50.459068 -0500,
117,117,0,filler_square,None,None,None,None,None,None,None,None,None,None,1,1.62485933303833,None,,,,,0,0,0,0,0,117,117,172,281.7625091075897,,,,,,,,,,,,,,,,,,,,,,,,,,,,,,,,,,,,,,,,,,,,,,,,,,,,,,,,,,,,,,,,,,,,,,,,,,,,,,,,,89.81609895975933,89.81609895975933,77.51194030634072,64.05285421073029,67.14145006915409,64.16339772810981,3.0,3.1,-173,264,0,11,160,-264,281.74804639816284,281.748087644577,281.75026750564575,281.7625091075897,281.9123411178589,281.9123411178589,281.9123411178589,281.9123411178589,281.9123411178589,281.9123411178589,281.9123411178589,283.3968005180359,1,1.62485933303833,None,,,,,,,,,,,,,,,,,,23,3,2025-02-18_16h04.40.153,comp,2024.2.4,60.08222388388957,2025-02-18 16h04.50.459068 -0500,
118,118,0,filler_square,None,None,None,None,None,None,None,None,None,None,1,1.0623180866241455,None,,,,,0,0,0,0,0,118,118,202,283.41255044937134,,,,,,,,,,,,,,,,,,,,,,,,,,,,,,,,,,,,,,,,,,,,,,,,,,,,,,,,,,,,,,,,,,,,,,,,,,,,,,,,,172.4379390338901,172.4379390338901,82.69170930725758,62.282902355872515,124.01407823836203,100.25818080758057,2.2,2.21,-213,-285,0,257,177,268,283.3977038860321,283.3977448940277,283.39974069595337,283.41255044937134,283.56261372566223,283.56261372566223,283.56261372566223,283.56261372566223,283.56261372566223,283.56261372566223,283.56261372566223,284.48044538497925,1,1.0623180866241455,None,,,,,,,,,,,,,,,,,,23,3,2025-02-18_16h04.40.153,comp,2024.2.4,60.08222388388957,2025-02-18 16h04.50.459068 -0500,
119,119,0,filler_square,None,None,None,None,None,None,None,None,None,None,3,0.9490079879760742,None,,,,,0,0,0,0,0,119,119,181,284.49603486061096,,,,,,,,,,,,,,,,,,,,,,,,,,,,,,,,,,,,,,,,,,,,,,,,,,,,,,,,,,,,,,,,,,,,,,,,,,,,,,,,,117.02625586744922,65.95618557870591,123.51634027540423,154.86683114262422,164.0112689332659,164.0112689332659,3.0,3.1,-206,273,0,-5,255,-272,284.48138451576233,284.4814248085022,284.48395586013794,284.49603486061096,284.64584708213806,284.64584708213806,284.64584708213806,284.64584708213806,284.64584708213806,284.64584708213806,284.64584708213806,285.44708776474,3,0.9490079879760742,None,,,,,,,,,,,,,,,,,,23,3,2025-02-18_16h04.40.153,comp,2024.2.4,60.08222388388957,2025-02-18 16h04.50.459068 -0500,
120,120,0,critical,hdw,35.0,1.0,lower,133.0,57.0,70.0,70.0,57.0,133.0,3,1.2356126308441162,None,,,,,0,0,0,0,0,120,120,108,285.46264600753784,,,,,,,,,,,,,,,,,,,,,,,,,,,,,,,,,,,,,,,,,,,,,,,,,,,,,,,,,,,,,,,,,,,,,,,,,,,,,,,,,133.0,57.0,70.0,70.0,57.0,133.0,1.0,1.1,-640,265,-480,252,-282,266,285.44787883758545,285.4479167461395,285.4505455493927,285.46264600753784,285.6124212741852,285.6124212741852,285.6124212741852,285.6124212741852,285.6124212741852,285.6124212741852,285.6124212741852,286.7136342525482,3,1.2356126308441162,None,,,,,,,,,,,,,,,,,,23,3,2025-02-18_16h04.40.153,comp,2024.2.4,60.08222388388957,2025-02-18 16h04.50.459068 -0500,
121,121,0,filler_square,None,None,None,None,None,None,None,None,None,None,3,1.233698844909668,None,,,,,0,0,0,0,0,121,121,207,286.72906374931335,,,,,,,,,,,,,,,,,,,,,,,,,,,,,,,,,,,,,,,,,,,,,,,,,,,,,,,,,,,,,,,,,,,,,,,,,,,,,,,,,63.28327646054024,57.571747177382534,58.50128532107174,72.81796494197793,76.25727742445142,76.25727742445142,1.0,1.1,-641,254,-480,251,-309,266,286.7146010398865,286.71464133262634,286.7172152996063,286.72906374931335,286.87911081314087,286.87911081314087,286.87911081314087,286.87911081314087,286.87911081314087,286.87911081314087,286.87911081314087,287.98028087615967,3,1.233698844909668,None,,,,,,,,,,,,,,,,,,23,3,2025-02-18_16h04.40.153,comp,2024.2.4,60.08222388388957,2025-02-18 16h04.50.459068 -0500,
122,122,0,critical,dhw,20.0,3.0,upper,141.0,141.0,200.0,125.0,125.0,200.0,3,1.4644336700439453,None,,,,,0,0,0,0,0,122,122,57,287.9956314563751,,,,,,,,,,,,,,,,,,,,,,,,,,,,,,,,,,,,,,,,,,,,,,,,,,,,,,,,,,,,,,,,,,,,,,,,,,,,,,,,,141.0,141.0,200.0,125.0,125.0,200.0,3.0,3.1,-229,258,0,16,258,-288,287.9810857772827,287.98112630844116,287.98360872268677,287.9956314563751,288.145868062973,288.145868062973,288.145868062973,288.145868062973,288.145868062973,288.145868062973,288.145868062973,289.46382880210876,3,1.4644336700439453,None,,,,,,,,,,,,,,,,,,23,3,2025-02-18_16h04.40.153,comp,2024.2.4,60.08222388388957,2025-02-18 16h04.50.459068 -0500,
123,123,0,critical,hwd,35.0,2.1,lower,133.0,57.0,57.0,133.0,70.0,70.0,2,1.2836472988128662,None,,,,,0,0,0,0,0,123,123,16,289.4793417453766,,,,,,,,,,,,,,,,,,,,,,,,,,,,,,,,,,,,,,,,,,,,,,,,,,,,,,,,,,,,,,,,,,,,,,,,,,,,,,,,,133.0,57.0,57.0,133.0,70.0,70.0,2.1,2.11,-191,289,0,288,198,-252,289.46461844444275,289.46465826034546,289.46684312820435,289.4793417453766,289.6290431022644,289.6290431022644,289.6290431022644,289.6290431022644,289.6290431022644,289.6290431022644,289.6290431022644,290.7800714969635,2,1.2836472988128662,None,,,,,,,,,,,,,,,,,,23,3,2025-02-18_16h04.40.153,comp,2024.2.4,60.08222388388957,2025-02-18 16h04.50.459068 -0500,
124,124,0,critical,wdh,20.0,2.1,lower,57.0,133.0,78.0,78.0,133.0,57.0,3,1.2643513679504395,None,,,,,0,0,0,0,0,124,124,34,290.7955505847931,,,,,,,,,,,,,,,,,,,,,,,,,,,,,,,,,,,,,,,,,,,,,,,,,,,,,,,,,,,,,,,,,,,,,,,,,,,,,,,,,57.0,133.0,78.0,78.0,133.0,57.0,2.1,2.12,-202,-260,0,-284,164,259,290.7808828353882,290.7809250354767,290.7833061218262,290.7955505847931,290.9457404613495,290.9457404613495,290.9457404613495,290.9457404613495,290.9457404613495,290.9457404613495,290.9457404613495,292.0636239051819,3,1.2643513679504395,None,,,,,,,,,,,,,,,,,,23,3,2025-02-18_16h04.40.153,comp,2024.2.4,60.08222388388957,2025-02-18 16h04.50.459068 -0500,
125,125,0,filler_random,None,None,None,None,None,None,None,None,None,None,2,0.7802472114562988,None,,,,,0,0,0,0,0,125,125,137,292.0792672634125,,,,,,,,,,,,,,,,,,,,,,,,,,,,,,,,,,,,,,,,,,,,,,,,,,,,,,,,,,,,,,,,,,,,,,,,,,,,,,,,,156.10412480529726,72.72583497838865,195.10407714118853,175.86123387054886,63.48860791004308,178.71487689284245,1.0,1.2,-220,-11,0,9,273,-19,292.0645158290863,292.06455636024475,292.06808495521545,292.0792672634125,292.22925543785095,292.22925543785095,292.22925543785095,292.22925543785095,292.22925543785095,292.22925543785095,292.22925543785095,292.8637537956238,2,0.7802472114562988,None,,,,,,,,,,,,,,,,,,23,3,2025-02-18_16h04.40.153,comp,2024.2.4,60.08222388388957,2025-02-18 16h04.50.459068 -0500,
126,126,0,critical,whd,35.0,4.0,upper,125.0,200.0,200.0,125.0,127.0,127.0,1,1.0116305351257324,None,,,,,0,0,0,0,0,126,126,89,292.8791928291321,,,,,,,,,,,,,,,,,,,,,,,,,,,,,,,,,,,,,,,,,,,,,,,,,,,,,,,,,,,,,,,,,,,,,,,,,,,,,,,,,125.0,200.0,200.0,125.0,127.0,127.0,4.0,4.1,-258,-263,0,16,222,-274,292.86454582214355,292.86458587646484,292.8667769432068,292.8791928291321,293.0292739868164,293.0292739868164,293.0292739868164,293.0292739868164,293.0292739868164,293.0292739868164,293.0292739868164,293.8969991207123,1,1.0116305351257324,None,,,,,,,,,,,,,,,,,,23,3,2025-02-18_16h04.40.153,comp,2024.2.4,60.08222388388957,2025-02-18 16h04.50.459068 -0500,
127,127,0,filler_square,None,None,None,None,None,None,None,None,None,None,1,1.0666911602020264,None,,,,,0,0,0,0,0,127,127,191,293.91260409355164,,,,,,,,,,,,,,,,,,,,,,,,,,,,,,,,,,,,,,,,,,,,,,,,,,,,,,,,,,,,,,,,,,,,,,,,,,,,,,,,,113.44031719799595,113.44031719799595,85.67541791818009,61.16470691777285,102.09011494069902,91.53179859696476,1.0,1.3,297,-268,480,-276,652,-290,293.89798521995544,293.89802718162537,293.9004406929016,293.91260409355164,294.062331199646,294.062331199646,294.062331199646,294.062331199646,294.062331199646,294.062331199646,294.062331199646,294.99701285362244,1,1.0666911602020264,None,,,,,,,,,,,,,,,,,,23,3,2025-02-18_16h04.40.153,comp,2024.2.4,60.08222388388957,2025-02-18 16h04.50.459068 -0500,
128,128,0,critical,hwd,35.0,2.1,upper,200.0,125.0,125.0,200.0,127.0,127.0,2,1.0166044235229492,None,,,,,0,0,0,0,0,128,128,41,295.0122027397156,,,,,,,,,,,,,,,,,,,,,,,,,,,,,,,,,,,,,,,,,,,,,,,,,,,,,,,,,,,,,,,,,,,,,,,,,,,,,,,,,200.0,125.0,125.0,200.0,127.0,127.0,2.1,2.11,-258,290,0,278,260,-275,294.99781036376953,294.99785017967224,295.00021028518677,295.0122027397156,295.1625945568085,295.1625945568085,295.1625945568085,295.1625945568085,295.1625945568085,295.1625945568085,295.1625945568085,296.0304796695709,2,1.0166044235229492,None,,,,,,,,,,,,,,,,,,23,3,2025-02-18_16h04.40.153,comp,2024.2.4,60.08222388388957,2025-02-18 16h04.50.459068 -0500,
129,129,0,critical,dhw,35.0,2.1,upper,127.0,127.0,200.0,125.0,125.0,200.0,3,0.9337508678436279,None,,,,,0,0,0,0,0,129,129,1,296.04570841789246,,,,,,,,,,,,,,,,,,,,,,,,,,,,,,,,,,,,,,,,,,,,,,,,,,,,,,,,,,,,,,,,,,,,,,,,,,,,,,,,,127.0,127.0,200.0,125.0,125.0,200.0,2.1,2.11,-222,270,0,277,258,-268,296.0312683582306,296.0313103199005,296.03347730636597,296.04570841789246,296.1960017681122,296.1960017681122,296.1960017681122,296.1960017681122,296.1960017681122,296.1960017681122,296.1960017681122,296.98060965538025,3,0.9337508678436279,None,,,,,,,,,,,,,,,,,,23,3,2025-02-18_16h04.40.153,comp,2024.2.4,60.08222388388957,2025-02-18 16h04.50.459068 -0500,
130,130,0,critical,hwd,20.0,1.0,upper,200.0,125.0,125.0,200.0,141.0,141.0,1,1.0164463520050049,None,,,,,0,0,0,0,0,130,130,103,296.99590015411377,,,,,,,,,,,,,,,,,,,,,,,,,,,,,,,,,,,,,,,,,,,,,,,,,,,,,,,,,,,,,,,,,,,,,,,,,,,,,,,,,200.0,125.0,125.0,200.0,141.0,141.0,1.0,1.1,-738,260,-480,285,-214,286,296.98136925697327,296.98140716552734,296.98347306251526,296.99590015411377,297.1463711261749,297.1463711261749,297.1463711261749,297.1463711261749,297.1463711261749,297.1463711261749,297.1463711261749,298.01393365859985,1,1.0164463520050049,None,,,,,,,,,,,,,,,,,,23,3,2025-02-18_16h04.40.153,comp,2024.2.4,60.08222388388957,2025-02-18 16h04.50.459068 -0500,
131,131,0,filler_random,None,None,None,None,None,None,None,None,None,None,2,0.7885417938232422,None,,,,,0,0,0,0,0,131,131,145,298.02921175956726,,,,,,,,,,,,,,,,,,,,,,,,,,,,,,,,,,,,,,,,,,,,,,,,,,,,,,,,,,,,,,,,,,,,,,,,,,,,,,,,,75.65079053859428,58.00328045431926,177.76502192845493,168.37532064051112,91.34752946756663,184.5663262346843,3.0,3.1,-209,267,0,10,272,-282,298.01481461524963,298.0148549079895,298.01697278022766,298.02921175956726,298.1791298389435,298.1791298389435,298.1791298389435,298.1791298389435,298.1791298389435,298.1791298389435,298.1791298389435,298.8303301334381,2,0.7885417938232422,None,,,,,,,,,,,,,,,,,,23,3,2025-02-18_16h04.40.153,comp,2024.2.4,60.08222388388957,2025-02-18 16h04.50.459068 -0500,
132,132,0,critical,whd,35.0,1.0,lower,57.0,133.0,133.0,57.0,70.0,70.0,1,2.7335259914398193,None,,,,,0,0,0,0,0,132,132,84,298.8456828594208,,,,,,,,,,,,,,,,,,,,,,,,,,,,,,,,,,,,,,,,,,,,,,,,,,,,,,,,,,,,,,,,,,,,,,,,,,,,,,,,,57.0,133.0,133.0,57.0,70.0,70.0,1.0,1.1,-671,290,-480,262,-320,256,298.83124232292175,298.8312826156616,298.8338506221771,298.8456828594208,298.99585700035095,298.99585700035095,298.99585700035095,298.99585700035095,298.99585700035095,298.99585700035095,298.99585700035095,301.59673523902893,1,2.7335259914398193,None,,,,,,,,,,,,,,,,,,23,3,2025-02-18_16h04.40.153,comp,2024.2.4,60.08222388388957,2025-02-18 16h04.50.459068 -0500,
133,133,0,critical,dhw,35.0,1.0,lower,70.0,70.0,133.0,57.0,57.0,133.0,3,1.501701831817627,None,,,,,0,0,0,0,0,133,133,48,301.61213731765747,,,,,,,,,,,,,,,,,,,,,,,,,,,,,,,,,,,,,,,,,,,,,,,,,,,,,,,,,,,,,,,,,,,,,,,,,,,,,,,,,70.0,70.0,133.0,57.0,57.0,133.0,1.0,1.2,-160,-6,0,-10,191,13,301.5975396633148,301.59758043289185,301.60020756721497,301.61213731765747,301.76223492622375,301.76223492622375,301.76223492622375,301.76223492622375,301.76223492622375,301.76223492622375,301.76223492622375,303.1301634311676,3,1.501701831817627,None,,,,,,,,,,,,,,,,,,23,3,2025-02-18_16h04.40.153,comp,2024.2.4,60.08222388388957,2025-02-18 16h04.50.459068 -0500,
134,134,0,critical,whd,20.0,1.0,lower,57.0,133.0,133.0,57.0,78.0,78.0,1,1.817249059677124,None,,,,,0,0,0,0,0,134,134,90,303.14553236961365,,,,,,,,,,,,,,,,,,,,,,,,,,,,,,,,,,,,,,,,,,,,,,,,,,,,,,,,,,,,,,,,,,,,,,,,,,,,,,,,,57.0,133.0,133.0,57.0,78.0,78.0,1.0,1.2,-191,-9,0,-10,164,-19,303.130934715271,303.13097643852234,303.1334116458893,303.14553236961365,303.29565715789795,303.29565715789795,303.29565715789795,303.29565715789795,303.29565715789795,303.29565715789795,303.29565715789795,304.9801094532013,1,1.817249059677124,None,,,,,,,,,,,,,,,,,,23,3,2025-02-18_16h04.40.153,comp,2024.2.4,60.08222388388957,2025-02-18 16h04.50.459068 -0500,
135,135,0,critical,whd,20.0,2.1,upper,125.0,200.0,200.0,125.0,141.0,141.0,1,3.63820481300354,None,,,,,0,0,0,0,0,135,135,39,304.99554538726807,,,,,,,,,,,,,,,,,,,,,,,,,,,,,,,,,,,,,,,,,,,,,,,,,,,,,,,,,,,,,,,,,,,,,,,,,,,,,,,,,125.0,200.0,200.0,125.0,141.0,141.0,2.1,2.12,-258,-257,0,-269,229,276,304.98091220855713,304.9809522628784,304.98331212997437,304.99554538726807,305.145854473114,305.145854473114,305.145854473114,305.145854473114,305.145854473114,305.145854473114,305.145854473114,308.6469581127167,1,3.63820481300354,None,,,,,,,,,,,,,,,,,,23,3,2025-02-18_16h04.40.153,comp,2024.2.4,60.08222388388957,2025-02-18 16h04.50.459068 -0500,
136,136,0,critical,whd,20.0,2.1,upper,125.0,200.0,200.0,125.0,141.0,141.0,1,0.9506609439849854,None,,,,,0,0,0,0,0,136,136,15,308.6620533466339,,,,,,,,,,,,,,,,,,,,,,,,,,,,,,,,,,,,,,,,,,,,,,,,,,,,,,,,,,,,,,,,,,,,,,,,,,,,,,,,,125.0,200.0,200.0,125.0,141.0,141.0,2.1,2.12,-258,-280,0,-255,229,259,308.64773988723755,308.6477930545807,308.6501157283783,308.6620533466339,308.8124964237213,308.8124964237213,308.8124964237213,308.8124964237213,308.8124964237213,308.8124964237213,308.8124964237213,309.6139895915985,1,0.9506609439849854,None,,,,,,,,,,,,,,,,,,23,3,2025-02-18_16h04.40.153,comp,2024.2.4,60.08222388388957,2025-02-18 16h04.50.459068 -0500,
137,137,0,critical,wdh,20.0,1.0,lower,57.0,133.0,78.0,78.0,133.0,57.0,1,1.316725730895996,None,,,,,0,0,0,0,0,137,137,78,309.6292369365692,,,,,,,,,,,,,,,,,,,,,,,,,,,,,,,,,,,,,,,,,,,,,,,,,,,,,,,,,,,,,,,,,,,,,,,,,,,,,,,,,57.0,133.0,78.0,78.0,133.0,57.0,1.0,1.3,278,-273,480,-267,644,-265,309.61480164527893,309.6148467063904,309.617290019989,309.6292369365692,309.7790057659149,309.7790057659149,309.7790057659149,309.7790057659149,309.7790057659149,309.7790057659149,309.7790057659149,310.96341371536255,1,1.316725730895996,None,,,,,,,,,,,,,,,,,,23,3,2025-02-18_16h04.40.153,comp,2024.2.4,60.08222388388957,2025-02-18 16h04.50.459068 -0500,
138,138,0,filler_square,None,None,None,None,None,None,None,None,None,None,3,0.895946741104126,None,,,,,0,0,0,0,0,138,138,192,310.978773355484,,,,,,,,,,,,,,,,,,,,,,,,,,,,,,,,,,,,,,,,,,,,,,,,,,,,,,,,,,,,,,,,,,,,,,,,,,,,,,,,,147.55757439147285,57.056535290796575,81.2616646195244,140.28147156893942,161.49407108090048,161.49407108090048,3.0,3.2,-195,-250,0,12,247,252,310.96434569358826,310.96438550949097,310.96688437461853,310.978773355484,311.1290531158447,311.1290531158447,311.1290531158447,311.1290531158447,311.1290531158447,311.1290531158447,311.1290531158447,311.8802318572998,3,0.895946741104126,None,,,,,,,,,,,,,,,,,,23,3,2025-02-18_16h04.40.153,comp,2024.2.4,60.08222388388957,2025-02-18 16h04.50.459068 -0500,
139,139,0,critical,dwh,20.0,2.1,upper,141.0,141.0,125.0,200.0,200.0,125.0,2,0.8837080001831055,None,,,,,0,0,0,0,0,139,139,31,311.895699262619,,,,,,,,,,,,,,,,,,,,,,,,,,,,,,,,,,,,,,,,,,,,,,,,,,,,,,,,,,,,,,,,,,,,,,,,,,,,,,,,,141.0,141.0,125.0,200.0,200.0,125.0,2.1,2.12,-266,-267,0,-255,258,273,311.8810284137726,311.8810684680939,311.88344955444336,311.895699262619,312.04572224617004,312.04572224617004,312.04572224617004,312.04572224617004,312.04572224617004,312.04572224617004,312.04572224617004,312.79685282707214,2,0.8837080001831055,None,,,,,,,,,,,,,,,,,,23,3,2025-02-18_16h04.40.153,comp,2024.2.4,60.08222388388957,2025-02-18 16h04.50.459068 -0500,
