thisN,thisTrialN,thisRepN,effect,order,distance,config,diag,h_1,w_1,h_2,w_2,h_3,w_3,rect_choice.keys,rect_choice.rt,rect_choice.duration,instructions_loop.thisRepN,instructions_loop.thisTrialN,instructions_loop.thisN,instructions_loop.thisIndex,blocks.thisRepN,blocks.thisTrialN,blocks.thisN,blocks.thisIndex,trials.thisRepN,trials.thisTrialN,trials.thisN,trials.thisIndex,thisRow.t,notes,consent.started,agree_button.started,decline_button.started,consent_img.started,mouse.started,consent.stopped,agree_button.numClicks,agree_button.timesOn,agree_button.timesOff,decline_button.numClicks,decline_button.timesOn,decline_button.timesOff,mouse.x,mouse.y,mouse.leftButton,mouse.midButton,mouse.rightButton,mouse.time,mouse.clicked_name,exp_params.started,exp_params.stopped,welcome.started,welcome_text.started,welcome_text.stopped,welcome.stopped,instructions_1.started,instructions_1_text_1.started,instructions_1_text_2.started,key_resp.started,instructions_1.stopped,instructions_loop.key_resp.keys,instructions_loop.key_resp.rt,instructions_loop.key_resp.duration,instructions_2.started,instructions_2_text_1.started,instructions_2_text_2.started,key_resp_2.started,instructions_2.stopped,instructions_loop.key_resp_2.keys,instructions_loop.key_resp_2.rt,instructions_loop.key_resp_2.duration,instructions_3.started,instructions_3_text_1.started,r1_instr3.started,r2_instr3.started,r3_instr3.started,r1_instr3_label.started,r2_instr3_label.started,r3_instr3_label.started,instructions_3_text_3.started,instructions_3_text_4.started,key_resp_3.started,instructions_3.stopped,instructions_loop.key_resp_3.keys,instructions_loop.key_resp_3.rt,instructions_loop.key_resp_3.duration,instructions_4.started,instructions_4_text_1.started,instructions_4_text_3.started,instructions_4_text_2.started,key_resp_4.started,instructions_4.stopped,instructions_loop.key_resp_4.keys,instructions_loop.key_resp_4.rt,instructions_loop.key_resp_4.duration,instructions_5.started,instructions_5_text_1.started,instructions_5_text_2.started,key_resp_5.started,instructions_5.stopped,instructions_loop.key_resp_5.keys,instructions_loop.key_resp_5.rt,instructions_loop.key_resp_5.duration,start_exp.started,start_exp_text.started,key_resp_6.started,start_exp.stopped,key_resp_6.keys,key_resp_6.rt,key_resp_6.duration,h_1_tmp,w_1_tmp,h_2_tmp,w_2_tmp,h_3_tmp,w_3_tmp,config_tmp,config_tmp_1,r_1_x,r_1_y,r_2_x,r_2_y,r_3_x,r_3_y,pre_trial.started,pre_trial.stopped,choice_trial.started,rect_choice.started,r_1.started,r_2.started,r_3.started,r_1_label.started,r_2_label.started,r_3_label.started,prompt.started,choice_trial.stopped,trials.rect_choice.keys,trials.rect_choice.rt,trials.rect_choice.duration,end_block.started,end_block_text.started,end_block.stopped,end.started,end_text.started,key_resp_7.started,end.stopped,key_resp_7.keys,key_resp_7.rt,key_resp_7.duration,debriefing.started,debrief_form.started,end_debrief.started,debriefing.stopped,end_debrief.keys,end_debrief.rt,end_debrief.duration,participant,computer,date,expName,psychopyVersion,frameRate,expStart,
,,,,,,,,,,,,,,,,,,,,,,,,,,,,,,,0.019456148147583008,0.03426980972290039,0.03426980972290039,0.03426980972290039,0.019253969192504883,64.209716796875,1,[64.17306208610535],[64.17308640480042],0,,,[-53.0],[-503.0],[1],[0],[0],[64.18985342979431],['agree_button'],,,,,,,,,,,,,,,,,,,,,,,,,,,,,,,,,,,,,,,,,,,,,,,,,,,,,,,,,,,,,,,,,,,,,,,,,,,,,,,,,,,,,,,,,,,,,,,,,,,,,,,,,,,,240,1,2025-03-13_14h50.02.396,comp,2024.2.4,54.8531013819521,2025-03-13 14h50.12.517999 -0400,
,,,,,,,,,,,,,,,,,,,,,,,,,,,,,,,,,,,,,,,,,,,,,,,,,,64.21025276184082,64.21031951904297,,,,,,,,,,,,,,,,,,,,,,,,,,,,,,,,,,,,,,,,,,,,,,,,,,,,,,,,,,,,,,,,,,,,,,,,,,,,,,,,,,,,,,,,,,,,,,,,,,,,,,,,,,240,1,2025-03-13_14h50.02.396,comp,2024.2.4,54.8531013819521,2025-03-13 14h50.12.517999 -0400,
,,,,,,,,,,,,,,,,,,,,,,,,,,,,,,,,,,,,,,,,,,,,,,,,,,,,64.210364818573,64.22589039802551,66.22659993171692,66.20966148376465,,,,,,,,,,,,,,,,,,,,,,,,,,,,,,,,,,,,,,,,,,,,,,,,,,,,,,,,,,,,,,,,,,,,,,,,,,,,,,,,,,,,,,,,,,,,,,,,,,,,,,240,1,2025-03-13_14h50.02.396,comp,2024.2.4,54.8531013819521,2025-03-13 14h50.12.517999 -0400,
0,0,0,,,,,,,,,,,,,,,0,0,0,0,,,,,,,,,66.22659993171692,,,,,,,,,,,,,,,,,,,,,,,,,,,66.21052694320679,66.22659993171692,66.22659993171692,67.7099130153656,69.74548196792603,space,2.029754400253296,None,69.74563312530518,69.7622902393341,69.7622902393341,71.25981879234314,76.61413073539734,space,5.343473434448242,None,76.61432003974915,76.64716386795044,76.64716386795044,76.64716386795044,76.64716386795044,76.64716386795044,76.64716386795044,76.64716386795044,76.64716386795044,76.64716386795044,78.11411213874817,83.29238653182983,space,5.161043405532837,None,83.29254698753357,83.3131992816925,83.3131992816925,83.3131992816925,84.79865550994873,93.45289301872253,space,8.64508605003357,None,93.45304298400879,93.46832227706909,93.46832227706909,94.96658778190613,97.68750309944153,space,2.7103207111358643,None,97.68769931793213,97.70325493812561,97.70325493812561,99.13646602630615,space,1.428462028503418,None,,,,,,,,,,,,,,,,,,,,,,,,,,,,,,,,,,,,,,,,,,,,,,,240,1,2025-03-13_14h50.02.396,comp,2024.2.4,54.8531013819521,2025-03-13 14h50.12.517999 -0400,
0,0,0,critical,hdw,35.0,2.1,upper,200.0,125.0,127.0,127.0,125.0,200.0,3,13.61964201927185,None,,,,,0,0,0,0,0,0,0,21,99.21555304527283,,,,,,,,,,,,,,,,,,,,,,,,,,,,,,,,,,,,,,,,,,,,,,,,,,,,,,,,,,,,,,,,,,,,,,,,,,,,,,,,,,200.0,125.0,127.0,127.0,125.0,200.0,2.1,2.11,-222,274,0,271,260,-281,99.19932198524475,99.19936752319336,99.20100927352905,99.21555304527283,99.36108756065369,99.36108756065369,99.36108756065369,99.36108756065369,99.36108756065369,99.36108756065369,99.36108756065369,112.84862303733826,3,13.61964201927185,None,,,,,,,,,,,,,,,,,,240,1,2025-03-13_14h50.02.396,comp,2024.2.4,54.8531013819521,2025-03-13 14h50.12.517999 -0400,
1,1,0,critical,hdw,35.0,3.0,lower,133.0,57.0,70.0,70.0,57.0,133.0,1,21.821763038635254,None,,,,,0,0,0,0,0,1,1,110,112.86948537826538,,,,,,,,,,,,,,,,,,,,,,,,,,,,,,,,,,,,,,,,,,,,,,,,,,,,,,,,,,,,,,,,,,,,,,,,,,,,,,,,,,133.0,57.0,70.0,70.0,57.0,133.0,3.0,3.2,-160,-254,0,19,198,284,112.85022568702698,112.85030245780945,112.85371279716492,112.86948537826538,113.01049304008484,113.01049304008484,113.01049304008484,113.01049304008484,113.01049304008484,113.01049304008484,113.01049304008484,134.70661115646362,1,21.821763038635254,None,,,,,,,,,,,,,,,,,,240,1,2025-03-13_14h50.02.396,comp,2024.2.4,54.8531013819521,2025-03-13 14h50.12.517999 -0400,
2,2,0,filler_square,None,None,None,None,None,None,None,None,None,None,1,1.80855131149292,None,,,,,0,0,0,0,0,2,2,186,134.7226550579071,,,,,,,,,,,,,,,,,,,,,,,,,,,,,,,,,,,,,,,,,,,,,,,,,,,,,,,,,,,,,,,,,,,,,,,,,,,,,,,,,,105.50443851460427,105.50443851460427,91.44074826338685,92.03620747825559,72.32841216839621,104.80922296581639,1.0,1.2,-195,-14,0,-3,194,2,134.70865440368652,134.70873522758484,134.71204710006714,134.7226550579071,134.86493492126465,134.86493492126465,134.86493492126465,134.86493492126465,134.86493492126465,134.86493492126465,134.86493492126465,136.53579092025757,1,1.80855131149292,None,,,,,,,,,,,,,,,,,,240,1,2025-03-13_14h50.02.396,comp,2024.2.4,54.8531013819521,2025-03-13 14h50.12.517999 -0400,
3,3,0,filler_square,None,None,None,None,None,None,None,None,None,None,1,5.259224891662598,None,,,,,0,0,0,0,0,3,3,203,136.55249643325806,,,,,,,,,,,,,,,,,,,,,,,,,,,,,,,,,,,,,,,,,,,,,,,,,,,,,,,,,,,,,,,,,,,,,,,,,,,,,,,,,,77.61988492819746,77.61988492819746,76.21131007933113,69.91445988902032,76.73233149688464,73.07371184758671,2.2,2.22,-170,253,0,-273,167,-254,136.5377254486084,136.5378029346466,136.5415530204773,136.55249643325806,136.7001211643219,136.7001211643219,136.7001211643219,136.7001211643219,136.7001211643219,136.7001211643219,136.7001211643219,141.81688499450684,1,5.259224891662598,None,,,,,,,,,,,,,,,,,,240,1,2025-03-13_14h50.02.396,comp,2024.2.4,54.8531013819521,2025-03-13 14h50.12.517999 -0400,
4,4,0,catch,None,None,None,None,None,None,None,None,None,None,2,2.201596260070801,None,,,,,0,0,0,0,0,4,4,127,141.83361220359802,,,,,,,,,,,,,,,,,,,,,,,,,,,,,,,,,,,,,,,,,,,,,,,,,,,,,,,,,,,,,,,,,,,,,,,,,,,,,,,,,,90,100,164,161,132,58,4.0,4.1,-226,-287,0,-15,206,-256,141.8188717365265,141.81894993782043,141.82196879386902,141.83361220359802,141.9908046722412,141.9908046722412,141.9908046722412,141.9908046722412,141.9908046722412,141.9908046722412,141.9908046722412,144.050541639328,2,2.201596260070801,None,,,,,,,,,,,,,,,,,,240,1,2025-03-13_14h50.02.396,comp,2024.2.4,54.8531013819521,2025-03-13 14h50.12.517999 -0400,
5,5,0,critical,dhw,35.0,4.0,upper,127.0,127.0,200.0,125.0,125.0,200.0,3,3.433278799057007,None,,,,,0,0,0,0,0,5,5,53,144.06588220596313,,,,,,,,,,,,,,,,,,,,,,,,,,,,,,,,,,,,,,,,,,,,,,,,,,,,,,,,,,,,,,,,,,,,,,,,,,,,,,,,,,127.0,127.0,200.0,125.0,125.0,200.0,4.0,4.1,-222,-257,0,5,258,-286,144.05198860168457,144.05206418037415,144.05525922775269,144.06588220596313,144.20987153053284,144.20987153053284,144.20987153053284,144.20987153053284,144.20987153053284,144.20987153053284,144.20987153053284,147.51461243629456,3,3.433278799057007,None,,,,,,,,,,,,,,,,,,240,1,2025-03-13_14h50.02.396,comp,2024.2.4,54.8531013819521,2025-03-13 14h50.12.517999 -0400,
6,6,0,critical,wdh,35.0,1.0,lower,57.0,133.0,70.0,70.0,133.0,57.0,1,12.62490200996399,None,,,,,0,0,0,0,0,6,6,72,147.53063654899597,,,,,,,,,,,,,,,,,,,,,,,,,,,,,,,,,,,,,,,,,,,,,,,,,,,,,,,,,,,,,,,,,,,,,,,,,,,,,,,,,,57.0,133.0,70.0,70.0,133.0,57.0,1.0,1.3,282,-286,480,-258,640,-284,147.51621007919312,147.51628923416138,147.51916122436523,147.53063654899597,147.66927647590637,147.66927647590637,147.66927647590637,147.66927647590637,147.66927647590637,147.66927647590637,147.66927647590637,160.15987086296082,1,12.62490200996399,None,,,,,,,,,,,,,,,,,,240,1,2025-03-13_14h50.02.396,comp,2024.2.4,54.8531013819521,2025-03-13 14h50.12.517999 -0400,
7,7,0,filler_square,None,None,None,None,None,None,None,None,None,None,2,None,None,,,,,0,0,0,0,0,7,7,209,160.17809915542603,,,,,,,,,,,,,,,,,,,,,,,,,,,,,,,,,,,,,,,,,,,,,,,,,,,,,,,,,,,,,,,,,,,,,,,,,,,,,,,,,,57.96338338848748,61.56463218260814,61.89093116727235,61.89093116727235,57.52542564672721,58.08250916389487,2.1,2.11,-158,270,0,259,156,-263,160.16184067726135,160.16192388534546,160.16488790512085,160.17809915542603,160.32317852973938,160.32317852973938,160.32317852973938,160.32317852973938,160.32317852973938,160.32317852973938,160.32317852973938,160.3402454853058,2,None,None,,,,,,,,,,,,,,,,,,240,1,2025-03-13_14h50.02.396,comp,2024.2.4,54.8531013819521,2025-03-13 14h50.12.517999 -0400,
8,8,0,filler_square,None,None,None,None,None,None,None,None,None,None,3,4.759612083435059,None,,,,,0,0,0,0,0,8,8,197,160.35623860359192,,,,,,,,,,,,,,,,,,,,,,,,,,,,,,,,,,,,,,,,,,,,,,,,,,,,,,,,,,,,,,,,,,,,,,,,,,,,,,,,,,70.33087087757417,59.147747428197746,61.61157576062209,82.49359254308612,95.83744178135785,95.83744178135785,2.2,2.21,-167,-273,0,264,185,258,160.34201908111572,160.3420979976654,160.34556007385254,160.35623860359192,160.50537943840027,160.50537943840027,160.50537943840027,160.50537943840027,160.50537943840027,160.50537943840027,160.50537943840027,165.1242401599884,3,4.759612083435059,None,,,,,,,,,,,,,,,,,,240,1,2025-03-13_14h50.02.396,comp,2024.2.4,54.8531013819521,2025-03-13 14h50.12.517999 -0400,
9,9,0,filler_square,None,None,None,None,None,None,None,None,None,None,1,1.7640819549560547,None,,,,,0,0,0,0,0,9,9,170,165.1432511806488,,,,,,,,,,,,,,,,,,,,,,,,,,,,,,,,,,,,,,,,,,,,,,,,,,,,,,,,,,,,,,,,,,,,,,,,,,,,,,,,,,96.66015597278715,96.66015597278715,64.61366935760752,83.30647832387027,58.460669281098255,69.46088217606618,4.0,4.2,-186,-16,0,-285,172,19,165.12619256973267,165.12627577781677,165.13034844398499,165.1432511806488,165.29858255386353,165.29858255386353,165.29858255386353,165.29858255386353,165.29858255386353,165.29858255386353,165.29858255386353,166.92645692825317,1,1.7640819549560547,None,,,,,,,,,,,,,,,,,,240,1,2025-03-13_14h50.02.396,comp,2024.2.4,54.8531013819521,2025-03-13 14h50.12.517999 -0400,
10,10,0,filler_square,None,None,None,None,None,None,None,None,None,None,1,1.316816806793213,None,,,,,0,0,0,0,0,10,10,185,166.94234466552734,,,,,,,,,,,,,,,,,,,,,,,,,,,,,,,,,,,,,,,,,,,,,,,,,,,,,,,,,,,,,,,,,,,,,,,,,,,,,,,,,,173.51123542507588,173.51123542507588,162.4039416298114,108.05995998660296,61.90721605112676,161.8714958568056,2.1,2.11,-237,263,0,266,231,-277,166.9284324645996,166.92851901054382,166.9316051006317,166.94234466552734,167.09109687805176,167.09109687805176,167.09109687805176,167.09109687805176,167.09109687805176,167.09109687805176,167.09109687805176,168.26897883415222,1,1.316816806793213,None,,,,,,,,,,,,,,,,,,240,1,2025-03-13_14h50.02.396,comp,2024.2.4,54.8531013819521,2025-03-13 14h50.12.517999 -0400,
11,11,0,critical,dwh,20.0,4.0,lower,78.0,78.0,57.0,133.0,133.0,57.0,1,2.3193836212158203,None,,,,,0,0,0,0,0,11,11,70,168.28447771072388,,,,,,,,,,,,,,,,,,,,,,,,,,,,,,,,,,,,,,,,,,,,,,,,,,,,,,,,,,,,,,,,,,,,,,,,,,,,,,,,,,78.0,78.0,57.0,133.0,133.0,57.0,4.0,4.2,-202,16,0,-278,191,-5,168.27056860923767,168.27064561843872,168.27355337142944,168.28447771072388,168.42652559280396,168.42652559280396,168.42652559280396,168.42652559280396,168.42652559280396,168.42652559280396,168.42652559280396,170.6124131679535,1,2.3193836212158203,None,,,,,,,,,,,,,,,,,,240,1,2025-03-13_14h50.02.396,comp,2024.2.4,54.8531013819521,2025-03-13 14h50.12.517999 -0400,
12,12,0,filler_random,None,None,None,None,None,None,None,None,None,None,2,1.25565767288208,None,,,,,0,0,0,0,0,12,12,155,170.62831592559814,,,,,,,,,,,,,,,,,,,,,,,,,,,,,,,,,,,,,,,,,,,,,,,,,,,,,,,,,,,,,,,,,,,,,,,,,,,,,,,,,,70.77697675452016,191.1494275954184,179.91051512162525,180.04514476966716,97.93544172372742,138.25584142523496,3.0,3.1,-282,271,0,2,255,-277,170.61418962478638,170.61432909965515,170.61752104759216,170.62831592559814,170.77641201019287,170.77641201019287,170.77641201019287,170.77641201019287,170.77641201019287,170.77641201019287,170.77641201019287,171.89127826690674,2,1.25565767288208,None,,,,,,,,,,,,,,,,,,240,1,2025-03-13_14h50.02.396,comp,2024.2.4,54.8531013819521,2025-03-13 14h50.12.517999 -0400,
13,13,0,filler_random,None,None,None,None,None,None,None,None,None,None,2,1.4549181461334229,None,,,,,0,0,0,0,0,13,13,153,171.90836453437805,,,,,,,,,,,,,,,,,,,,,,,,,,,,,,,,,,,,,,,,,,,,,,,,,,,,,,,,,,,,,,,,,,,,,,,,,,,,,,,,,,101.41243055205962,93.71400687332881,158.66997117523056,155.713936566195,105.15334991831332,167.864640292193,2.2,2.21,-221,-267,0,285,258,273,171.892963886261,171.89304566383362,171.89596033096313,171.90836453437805,172.04430747032166,172.04430747032166,172.04430747032166,172.04430747032166,172.04430747032166,172.04430747032166,172.04430747032166,173.36563920974731,2,1.4549181461334229,None,,,,,,,,,,,,,,,,,,240,1,2025-03-13_14h50.02.396,comp,2024.2.4,54.8531013819521,2025-03-13 14h50.12.517999 -0400,
14,14,0,critical,hwd,35.0,3.0,lower,133.0,57.0,57.0,133.0,70.0,70.0,3,3.33733868598938,None,,,,,0,0,0,0,0,14,14,98,173.38671326637268,,,,,,,,,,,,,,,,,,,,,,,,,,,,,,,,,,,,,,,,,,,,,,,,,,,,,,,,,,,,,,,,,,,,,,,,,,,,,,,,,,133.0,57.0,57.0,133.0,70.0,70.0,3.0,3.2,-191,-264,0,-14,198,283,173.3673665523529,173.3674464225769,173.37081122398376,173.38671326637268,173.52811813354492,173.52811813354492,173.52811813354492,173.52811813354492,173.52811813354492,173.52811813354492,173.52811813354492,176.72885274887085,3,3.33733868598938,None,,,,,,,,,,,,,,,,,,240,1,2025-03-13_14h50.02.396,comp,2024.2.4,54.8531013819521,2025-03-13 14h50.12.517999 -0400,
15,15,0,filler_random,None,None,None,None,None,None,None,None,None,None,2,15.977681636810303,None,,,,,0,0,0,0,0,15,15,167,176.74577021598816,,,,,,,,,,,,,,,,,,,,,,,,,,,,,,,,,,,,,,,,,,,,,,,,,,,,,,,,,,,,,,,,,,,,,,,,,,,,,,,,,,189.94043344054518,156.1055687484181,181.4429701179416,149.4693818795244,168.02772866826848,79.50887356382827,2.2,2.22,-249,251,0,-265,210,-260,176.73056769371033,176.73064708709717,176.73402214050293,176.74577021598816,176.89539098739624,176.89539098739624,176.89539098739624,176.89539098739624,176.89539098739624,176.89539098739624,176.89539098739624,192.7400929927826,2,15.977681636810303,None,,,,,,,,,,,,,,,,,,240,1,2025-03-13_14h50.02.396,comp,2024.2.4,54.8531013819521,2025-03-13 14h50.12.517999 -0400,
16,16,0,filler_square,None,None,None,None,None,None,None,None,None,None,3,1.2891175746917725,None,,,,,0,0,0,0,0,16,16,188,192.75607919692993,,,,,,,,,,,,,,,,,,,,,,,,,,,,,,,,,,,,,,,,,,,,,,,,,,,,,,,,,,,,,,,,,,,,,,,,,,,,,,,,,,129.98120021205068,108.47908153835178,70.18489266529195,61.95658541521255,156.86941372160584,156.86941372160584,1.0,1.1,-661,253,-480,278,-275,253,192.74188256263733,192.74196100234985,192.74486374855042,192.75607919692993,192.90130925178528,192.90130925178528,192.90130925178528,192.90130925178528,192.90130925178528,192.90130925178528,192.90130925178528,194.04965615272522,3,1.2891175746917725,None,,,,,,,,,,,,,,,,,,240,1,2025-03-13_14h50.02.396,comp,2024.2.4,54.8531013819521,2025-03-13 14h50.12.517999 -0400,
17,17,0,critical,wdh,35.0,4.0,lower,57.0,133.0,70.0,70.0,133.0,57.0,3,5.658929109573364,None,,,,,0,0,0,0,0,17,17,76,194.06643962860107,,,,,,,,,,,,,,,,,,,,,,,,,,,,,,,,,,,,,,,,,,,,,,,,,,,,,,,,,,,,,,,,,,,,,,,,,,,,,,,,,,57.0,133.0,70.0,70.0,133.0,57.0,4.0,4.1,-198,-257,0,2,160,-277,194.05113768577576,194.05124497413635,194.05445647239685,194.06643962860107,194.20340824127197,194.20340824127197,194.20340824127197,194.20340824127197,194.20340824127197,194.20340824127197,194.20340824127197,199.73334193229675,3,5.658929109573364,None,,,,,,,,,,,,,,,,,,240,1,2025-03-13_14h50.02.396,comp,2024.2.4,54.8531013819521,2025-03-13 14h50.12.517999 -0400,
18,18,0,filler_random,None,None,None,None,None,None,None,None,None,None,3,1.337430477142334,None,,,,,0,0,0,0,0,18,18,168,199.75381064414978,,,,,,,,,,,,,,,,,,,,,,,,,,,,,,,,,,,,,,,,,,,,,,,,,,,,,,,,,,,,,,,,,,,,,,,,,,,,,,,,,,119.00606697475068,88.7115560244895,115.51614467150301,178.4054142850532,161.71037426384953,178.50241869186237,2.1,2.12,-230,-267,0,-253,274,264,199.73505687713623,199.7351381778717,199.738028049469,199.75381064414978,199.88806462287903,199.88806462287903,199.88806462287903,199.88806462287903,199.88806462287903,199.88806462287903,199.88806462287903,201.10219645500183,3,1.337430477142334,None,,,,,,,,,,,,,,,,,,240,1,2025-03-13_14h50.02.396,comp,2024.2.4,54.8531013819521,2025-03-13 14h50.12.517999 -0400,
19,19,0,critical,wdh,20.0,2.1,upper,125.0,200.0,141.0,141.0,200.0,125.0,1,6.25346827507019,None,,,,,0,0,0,0,0,19,19,11,201.11822938919067,,,,,,,,,,,,,,,,,,,,,,,,,,,,,,,,,,,,,,,,,,,,,,,,,,,,,,,,,,,,,,,,,,,,,,,,,,,,,,,,,,125.0,200.0,141.0,141.0,200.0,125.0,2.1,2.12,-266,-257,0,-287,229,280,201.10372829437256,201.1038055419922,201.10690069198608,201.11822938919067,201.27446293830872,201.27446293830872,201.27446293830872,201.27446293830872,201.27446293830872,201.27446293830872,201.27446293830872,207.38298082351685,1,6.25346827507019,None,,,,,,,,,,,,,,,,,,240,1,2025-03-13_14h50.02.396,comp,2024.2.4,54.8531013819521,2025-03-13 14h50.12.517999 -0400,
20,20,0,critical,whd,20.0,2.1,lower,57.0,133.0,133.0,57.0,78.0,78.0,3,2.8638665676116943,None,,,,,0,0,0,0,0,20,20,38,207.40390944480896,,,,,,,,,,,,,,,,,,,,,,,,,,,,,,,,,,,,,,,,,,,,,,,,,,,,,,,,,,,,,,,,,,,,,,,,,,,,,,,,,,57.0,133.0,133.0,57.0,78.0,78.0,2.1,2.12,-191,-251,0,-257,164,253,207.38466572761536,207.3847951889038,207.38807678222656,207.40390944480896,207.53856348991394,207.53856348991394,207.53856348991394,207.53856348991394,207.53856348991394,207.53856348991394,207.53856348991394,210.2699887752533,3,2.8638665676116943,None,,,,,,,,,,,,,,,,,,240,1,2025-03-13_14h50.02.396,comp,2024.2.4,54.8531013819521,2025-03-13 14h50.12.517999 -0400,
21,21,0,critical,hwd,35.0,2.1,upper,200.0,125.0,125.0,200.0,127.0,127.0,2,7.1964287757873535,None,,,,,0,0,0,0,0,21,21,41,210.28743171691895,,,,,,,,,,,,,,,,,,,,,,,,,,,,,,,,,,,,,,,,,,,,,,,,,,,,,,,,,,,,,,,,,,,,,,,,,,,,,,,,,,200.0,125.0,125.0,200.0,127.0,127.0,2.1,2.11,-258,253,0,288,260,-272,210.27157044410706,210.27164697647095,210.27458024024963,210.28743171691895,210.4224944114685,210.4224944114685,210.4224944114685,210.4224944114685,210.4224944114685,210.4224944114685,210.4224944114685,217.4922571182251,2,7.1964287757873535,None,,,,,,,,,,,,,,,,,,240,1,2025-03-13_14h50.02.396,comp,2024.2.4,54.8531013819521,2025-03-13 14h50.12.517999 -0400,
22,22,0,filler_random,None,None,None,None,None,None,None,None,None,None,1,1.5824604034423828,None,,,,,0,0,0,0,0,22,22,130,217.50905323028564,,,,,,,,,,,,,,,,,,,,,,,,,,,,,,,,,,,,,,,,,,,,,,,,,,,,,,,,,,,,,,,,,,,,,,,,,,,,,,,,,,166.70165779395882,135.86230501260468,145.85068913098434,119.2142625476498,109.43072684493477,77.41533831436536,4.0,4.1,-224,-260,0,-3,194,-278,217.49397468566895,217.49405670166016,217.49818515777588,217.50905323028564,217.65701031684875,217.65701031684875,217.65701031684875,217.65701031684875,217.65701031684875,217.65701031684875,217.65701031684875,219.096209526062,1,1.5824604034423828,None,,,,,,,,,,,,,,,,,,240,1,2025-03-13_14h50.02.396,comp,2024.2.4,54.8531013819521,2025-03-13 14h50.12.517999 -0400,
23,23,0,critical,dwh,20.0,4.0,upper,141.0,141.0,125.0,200.0,200.0,125.0,1,2.387387275695801,None,,,,,0,0,0,0,0,23,23,71,219.11194038391113,,,,,,,,,,,,,,,,,,,,,,,,,,,,,,,,,,,,,,,,,,,,,,,,,,,,,,,,,,,,,,,,,,,,,,,,,,,,,,,,,,141.0,141.0,125.0,200.0,200.0,125.0,4.0,4.2,-266,1,0,-266,258,-1,219.09779977798462,219.09787559509277,219.10117268562317,219.11194038391113,219.25885701179504,219.25885701179504,219.25885701179504,219.25885701179504,219.25885701179504,219.25885701179504,219.25885701179504,221.5154037475586,1,2.387387275695801,None,,,,,,,,,,,,,,,,,,240,1,2025-03-13_14h50.02.396,comp,2024.2.4,54.8531013819521,2025-03-13 14h50.12.517999 -0400,
24,24,0,filler_random,None,None,None,None,None,None,None,None,None,None,1,1.7121033668518066,None,,,,,0,0,0,0,0,24,24,147,221.5312192440033,,,,,,,,,,,,,,,,,,,,,,,,,,,,,,,,,,,,,,,,,,,,,,,,,,,,,,,,,,,,,,,,,,,,,,,,,,,,,,,,,,181.06634809217167,134.20838733064386,97.94174211620903,102.01803182671887,108.95716599667023,181.04978872130022,4.0,4.2,-214,9,0,-261,238,6,221.5170454978943,221.51712155342102,221.5200092792511,221.5312192440033,221.68024158477783,221.68024158477783,221.68024158477783,221.68024158477783,221.68024158477783,221.68024158477783,221.68024158477783,223.26071763038635,1,1.7121033668518066,None,,,,,,,,,,,,,,,,,,240,1,2025-03-13_14h50.02.396,comp,2024.2.4,54.8531013819521,2025-03-13 14h50.12.517999 -0400,
25,25,0,critical,dwh,35.0,2.1,lower,70.0,70.0,57.0,133.0,133.0,57.0,2,7.589932918548584,None,,,,,0,0,0,0,0,25,25,28,223.27772068977356,,,,,,,,,,,,,,,,,,,,,,,,,,,,,,,,,,,,,,,,,,,,,,,,,,,,,,,,,,,,,,,,,,,,,,,,,,,,,,,,,,70.0,70.0,57.0,133.0,133.0,57.0,2.1,2.12,-198,-255,0,-257,191,254,223.2622332572937,223.2623107433319,223.26563954353333,223.27772068977356,223.4294695854187,223.4294695854187,223.4294695854187,223.4294695854187,223.4294695854187,223.4294695854187,223.4294695854187,230.87316465377808,2,7.589932918548584,None,,,,,,,,,,,,,,,,,,240,1,2025-03-13_14h50.02.396,comp,2024.2.4,54.8531013819521,2025-03-13 14h50.12.517999 -0400,
26,26,0,filler_random,None,None,None,None,None,None,None,None,None,None,2,2.055938243865967,None,,,,,0,0,0,0,0,26,26,132,230.8923065662384,,,,,,,,,,,,,,,,,,,,,,,,,,,,,,,,,,,,,,,,,,,,,,,,,,,,,,,,,,,,,,,,,,,,,,,,,,,,,,,,,,141.68315665771183,123.53817988380206,140.6487697140921,154.12415618020572,57.7022769397596,188.69732376968454,2.2,2.21,-235,-274,0,268,267,272,230.87488174438477,230.8749589920044,230.87788367271423,230.8923065662384,231.02491784095764,231.02491784095764,231.02491784095764,231.02491784095764,231.02491784095764,231.02491784095764,231.02491784095764,232.95621395111084,2,2.055938243865967,None,,,,,,,,,,,,,,,,,,240,1,2025-03-13_14h50.02.396,comp,2024.2.4,54.8531013819521,2025-03-13 14h50.12.517999 -0400,
27,27,0,filler_random,None,None,None,None,None,None,None,None,None,None,3,1.9522182941436768,None,,,,,0,0,0,0,0,27,27,162,232.97190952301025,,,,,,,,,,,,,,,,,,,,,,,,,,,,,,,,,,,,,,,,,,,,,,,,,,,,,,,,,,,,,,,,,,,,,,,,,,,,,,,,,,115.81335409297424,163.77745593961902,144.1100000709614,86.64263614865926,120.34140367649596,189.6289425299648,4.0,4.1,-221,-253,0,11,234,-251,232.9579017162323,232.95798063278198,232.96086406707764,232.97190952301025,233.11588287353516,233.11588287353516,233.11588287353516,233.11588287353516,233.11588287353516,233.11588287353516,233.11588287353516,234.92776322364807,3,1.9522182941436768,None,,,,,,,,,,,,,,,,,,240,1,2025-03-13_14h50.02.396,comp,2024.2.4,54.8531013819521,2025-03-13 14h50.12.517999 -0400,
28,28,0,filler_square,None,None,None,None,None,None,None,None,None,None,2,7.0706260204315186,None,,,,,0,0,0,0,0,28,28,190,234.9488980770111,,,,,,,,,,,,,,,,,,,,,,,,,,,,,,,,,,,,,,,,,,,,,,,,,,,,,,,,,,,,,,,,,,,,,,,,,,,,,,,,,,61.62508783361763,57.96830052471053,62.61423651352923,62.61423651352923,61.4654795365698,58.29838403500349,2.2,2.22,-156,251,0,-289,156,-259,234.92940950393677,234.92948865890503,234.9323649406433,234.9488980770111,235.08060216903687,235.08060216903687,235.08060216903687,235.08060216903687,235.08060216903687,235.08060216903687,235.08060216903687,242.02247309684753,2,7.0706260204315186,None,,,,,,,,,,,,,,,,,,240,1,2025-03-13_14h50.02.396,comp,2024.2.4,54.8531013819521,2025-03-13 14h50.12.517999 -0400,
29,29,0,filler_square,None,None,None,None,None,None,None,None,None,None,2,1.8247559070587158,None,,,,,0,0,0,0,0,29,29,176,242.04263997077942,,,,,,,,,,,,,,,,,,,,,,,,,,,,,,,,,,,,,,,,,,,,,,,,,,,,,,,,,,,,,,,,,,,,,,,,,,,,,,,,,,76.41270860332389,88.42555643083716,142.8924433327981,142.8924433327981,136.4461199864797,85.58615471764188,2.2,2.21,-212,-286,0,264,210,271,242.0244619846344,242.0245430469513,242.02752208709717,242.04263997077942,242.18217301368713,242.18217301368713,242.18217301368713,242.18217301368713,242.18217301368713,242.18217301368713,242.18217301368713,243.88379335403442,2,1.8247559070587158,None,,,,,,,,,,,,,,,,,,240,1,2025-03-13_14h50.02.396,comp,2024.2.4,54.8531013819521,2025-03-13 14h50.12.517999 -0400,
30,30,0,critical,wdh,20.0,3.0,lower,57.0,133.0,78.0,78.0,133.0,57.0,2,4.25614070892334,None,,,,,0,0,0,0,0,30,30,80,243.90036034584045,,,,,,,,,,,,,,,,,,,,,,,,,,,,,,,,,,,,,,,,,,,,,,,,,,,,,,,,,,,,,,,,,,,,,,,,,,,,,,,,,,57.0,133.0,78.0,78.0,133.0,57.0,3.0,3.2,-202,-286,0,-18,164,272,243.88529539108276,243.8853931427002,243.88951468467712,243.90036034584045,244.05395603179932,244.05395603179932,244.05395603179932,244.05395603179932,244.05395603179932,244.05395603179932,244.05395603179932,248.16874837875366,2,4.25614070892334,None,,,,,,,,,,,,,,,,,,240,1,2025-03-13_14h50.02.396,comp,2024.2.4,54.8531013819521,2025-03-13 14h50.12.517999 -0400,
31,31,0,critical,dhw,20.0,2.1,upper,141.0,141.0,200.0,125.0,125.0,200.0,3,3.4272842407226562,None,,,,,0,0,0,0,0,31,31,27,248.1848647594452,,,,,,,,,,,,,,,,,,,,,,,,,,,,,,,,,,,,,,,,,,,,,,,,,,,,,,,,,,,,,,,,,,,,,,,,,,,,,,,,,,141.0,141.0,200.0,125.0,125.0,200.0,2.1,2.12,-229,-264,0,-289,258,271,248.1702995300293,248.17037558555603,248.17447805404663,248.1848647594452,248.3369493484497,248.3369493484497,248.3369493484497,248.3369493484497,248.3369493484497,248.3369493484497,248.3369493484497,251.6199541091919,3,3.4272842407226562,None,,,,,,,,,,,,,,,,,,240,1,2025-03-13_14h50.02.396,comp,2024.2.4,54.8531013819521,2025-03-13 14h50.12.517999 -0400,
32,32,0,filler_random,None,None,None,None,None,None,None,None,None,None,3,1.2797904014587402,None,,,,,0,0,0,0,0,32,32,136,251.63606142997742,,,,,,,,,,,,,,,,,,,,,,,,,,,,,,,,,,,,,,,,,,,,,,,,,,,,,,,,,,,,,,,,,,,,,,,,,,,,,,,,,,183.79973302560654,97.08452460918204,144.74459730891647,142.95978844317833,183.454942729143,195.08257970830402,2.2,2.21,-216,-280,0,271,265,261,251.62176203727722,251.6218717098236,251.6252326965332,251.63606142997742,251.78636693954468,251.78636693954468,251.78636693954468,251.78636693954468,251.78636693954468,251.78636693954468,251.78636693954468,252.91835379600525,3,1.2797904014587402,None,,,,,,,,,,,,,,,,,,240,1,2025-03-13_14h50.02.396,comp,2024.2.4,54.8531013819521,2025-03-13 14h50.12.517999 -0400,
33,33,0,filler_random,None,None,None,None,None,None,None,None,None,None,2,1.4643926620483398,None,,,,,0,0,0,0,0,33,33,143,252.9389510154724,,,,,,,,,,,,,,,,,,,,,,,,,,,,,,,,,,,,,,,,,,,,,,,,,,,,,,,,,,,,,,,,,,,,,,,,,,,,,,,,,,119.02084169159569,145.59833999393385,156.5883199424113,178.9040299945635,187.18873140401732,96.81699721378347,2.1,2.11,-258,273,0,255,234,-272,252.9203634262085,252.92044401168823,252.9237642288208,252.9389510154724,253.0877401828766,253.0877401828766,253.0877401828766,253.0877401828766,253.0877401828766,253.0877401828766,253.0877401828766,254.41929125785828,2,1.4643926620483398,None,,,,,,,,,,,,,,,,,,240,1,2025-03-13_14h50.02.396,comp,2024.2.4,54.8531013819521,2025-03-13 14h50.12.517999 -0400,
34,34,0,critical,dhw,20.0,1.0,lower,78.0,78.0,133.0,57.0,57.0,133.0,1,2.3736748695373535,None,,,,,0,0,0,0,0,34,34,54,254.43785524368286,,,,,,,,,,,,,,,,,,,,,,,,,,,,,,,,,,,,,,,,,,,,,,,,,,,,,,,,,,,,,,,,,,,,,,,,,,,,,,,,,,78.0,78.0,133.0,57.0,57.0,133.0,1.0,1.2,-164,-3,0,-5,191,-2,254.4208266735077,254.42090344429016,254.42421579360962,254.43785524368286,254.5876259803772,254.5876259803772,254.5876259803772,254.5876259803772,254.5876259803772,254.5876259803772,254.5876259803772,256.8236126899719,1,2.3736748695373535,None,,,,,,,,,,,,,,,,,,240,1,2025-03-13_14h50.02.396,comp,2024.2.4,54.8531013819521,2025-03-13 14h50.12.517999 -0400,
35,35,0,critical,hdw,35.0,2.1,lower,133.0,57.0,70.0,70.0,57.0,133.0,1,6.593099117279053,None,,,,,0,0,0,0,0,35,35,44,256.8422248363495,,,,,,,,,,,,,,,,,,,,,,,,,,,,,,,,,,,,,,,,,,,,,,,,,,,,,,,,,,,,,,,,,,,,,,,,,,,,,,,,,,133.0,57.0,70.0,70.0,57.0,133.0,2.1,2.12,-160,-253,0,-256,198,285,256.82526206970215,256.8253412246704,256.8284180164337,256.8422248363495,256.9877088069916,256.9877088069916,256.9877088069916,256.9877088069916,256.9877088069916,256.9877088069916,256.9877088069916,263.4392395019531,1,6.593099117279053,None,,,,,,,,,,,,,,,,,,240,1,2025-03-13_14h50.02.396,comp,2024.2.4,54.8531013819521,2025-03-13 14h50.12.517999 -0400,
36,36,0,critical,hwd,35.0,1.0,upper,200.0,125.0,125.0,200.0,127.0,127.0,2,5.700997591018677,None,,,,,0,0,0,0,0,36,36,97,263.4552390575409,,,,,,,,,,,,,,,,,,,,,,,,,,,,,,,,,,,,,,,,,,,,,,,,,,,,,,,,,,,,,,,,,,,,,,,,,,,,,,,,,,200.0,125.0,125.0,200.0,127.0,127.0,1.0,1.1,-738,289,-480,259,-220,271,263.44076776504517,263.4408481121063,263.4443325996399,263.4552390575409,263.60424757003784,263.60424757003784,263.60424757003784,263.60424757003784,263.60424757003784,263.60424757003784,263.60424757003784,269.16331696510315,2,5.700997591018677,None,,,,,,,,,,,,,,,,,,240,1,2025-03-13_14h50.02.396,comp,2024.2.4,54.8531013819521,2025-03-13 14h50.12.517999 -0400,
37,37,0,critical,dhw,35.0,4.0,lower,70.0,70.0,133.0,57.0,57.0,133.0,3,3.8602747917175293,None,,,,,0,0,0,0,0,37,37,52,269.18305253982544,,,,,,,,,,,,,,,,,,,,,,,,,,,,,,,,,,,,,,,,,,,,,,,,,,,,,,,,,,,,,,,,,,,,,,,,,,,,,,,,,,70.0,70.0,133.0,57.0,57.0,133.0,4.0,4.2,-160,5,0,-256,191,17,269.1647913455963,269.164870262146,269.16780042648315,269.18305253982544,269.3240978717804,269.3240978717804,269.3240978717804,269.3240978717804,269.3240978717804,269.3240978717804,269.3240978717804,273.06075167655945,3,3.8602747917175293,None,,,,,,,,,,,,,,,,,,240,1,2025-03-13_14h50.02.396,comp,2024.2.4,54.8531013819521,2025-03-13 14h50.12.517999 -0400,
38,38,0,critical,hdw,35.0,4.0,lower,133.0,57.0,70.0,70.0,57.0,133.0,3,3.1828200817108154,None,,,,,0,0,0,0,0,38,38,112,273.07661294937134,,,,,,,,,,,,,,,,,,,,,,,,,,,,,,,,,,,,,,,,,,,,,,,,,,,,,,,,,,,,,,,,,,,,,,,,,,,,,,,,,,133.0,57.0,70.0,70.0,57.0,133.0,4.0,4.2,-160,5,0,-267,198,-10,273.06245136260986,273.06253027915955,273.06609773635864,273.07661294937134,273.22622752189636,273.22622752189636,273.22622752189636,273.22622752189636,273.22622752189636,273.22622752189636,273.22622752189636,276.2769205570221,3,3.1828200817108154,None,,,,,,,,,,,,,,,,,,240,1,2025-03-13_14h50.02.396,comp,2024.2.4,54.8531013819521,2025-03-13 14h50.12.517999 -0400,
39,39,0,critical,hdw,35.0,3.0,upper,200.0,125.0,127.0,127.0,125.0,200.0,3,5.902990102767944,None,,,,,0,0,0,0,0,39,39,111,276.2924132347107,,,,,,,,,,,,,,,,,,,,,,,,,,,,,,,,,,,,,,,,,,,,,,,,,,,,,,,,,,,,,,,,,,,,,,,,,,,,,,,,,,200.0,125.0,127.0,127.0,125.0,200.0,3.0,3.2,-222,-264,0,18,260,268,276.2785096168518,276.27858662605286,276.2820107936859,276.2924132347107,276.4476659297943,276.4476659297943,276.4476659297943,276.4476659297943,276.4476659297943,276.4476659297943,276.4476659297943,282.210866689682,3,5.902990102767944,None,,,,,,,,,,,,,,,,,,240,1,2025-03-13_14h50.02.396,comp,2024.2.4,54.8531013819521,2025-03-13 14h50.12.517999 -0400,
40,40,0,critical,wdh,35.0,2.1,upper,125.0,200.0,127.0,127.0,200.0,125.0,3,1.7758452892303467,None,,,,,0,0,0,0,0,40,40,33,282.22745299339294,,,,,,,,,,,,,,,,,,,,,,,,,,,,,,,,,,,,,,,,,,,,,,,,,,,,,,,,,,,,,,,,,,,,,,,,,,,,,,,,,,125.0,200.0,127.0,127.0,200.0,125.0,2.1,2.12,-260,-289,0,-260,222,289,282.2125463485718,282.21266174316406,282.2160453796387,282.22745299339294,282.3791902065277,282.3791902065277,282.3791902065277,282.3791902065277,282.3791902065277,282.3791902065277,282.3791902065277,284.012836933136,3,1.7758452892303467,None,,,,,,,,,,,,,,,,,,240,1,2025-03-13_14h50.02.396,comp,2024.2.4,54.8531013819521,2025-03-13 14h50.12.517999 -0400,
41,41,0,critical,hwd,20.0,3.0,lower,133.0,57.0,57.0,133.0,78.0,78.0,1,3.9179370403289795,None,,,,,0,0,0,0,0,41,41,104,284.02941942214966,,,,,,,,,,,,,,,,,,,,,,,,,,,,,,,,,,,,,,,,,,,,,,,,,,,,,,,,,,,,,,,,,,,,,,,,,,,,,,,,,,133.0,57.0,57.0,133.0,78.0,78.0,3.0,3.2,-191,-271,0,15,202,281,284.01438307762146,284.0144648551941,284.01858830451965,284.02941942214966,284.1761908531189,284.1761908531189,284.1761908531189,284.1761908531189,284.1761908531189,284.1761908531189,284.1761908531189,287.9635787010193,1,3.9179370403289795,None,,,,,,,,,,,,,,,,,,240,1,2025-03-13_14h50.02.396,comp,2024.2.4,54.8531013819521,2025-03-13 14h50.12.517999 -0400,
42,42,0,critical,dwh,20.0,2.1,upper,141.0,141.0,125.0,200.0,200.0,125.0,2,1.979621410369873,None,,,,,0,0,0,0,0,42,42,7,287.98373651504517,,,,,,,,,,,,,,,,,,,,,,,,,,,,,,,,,,,,,,,,,,,,,,,,,,,,,,,,,,,,,,,,,,,,,,,,,,,,,,,,,,141.0,141.0,125.0,200.0,200.0,125.0,2.1,2.11,-266,282,0,268,258,-287,287.9651038646698,287.965206861496,287.96836590766907,287.98373651504517,288.131231546402,288.131231546402,288.131231546402,288.131231546402,288.131231546402,288.131231546402,288.131231546402,289.965678691864,2,1.979621410369873,None,,,,,,,,,,,,,,,,,,240,1,2025-03-13_14h50.02.396,comp,2024.2.4,54.8531013819521,2025-03-13 14h50.12.517999 -0400,
43,43,0,filler_square,None,None,None,None,None,None,None,None,None,None,1,2.5436410903930664,None,,,,,0,0,0,0,0,43,43,208,289.98201084136963,,,,,,,,,,,,,,,,,,,,,,,,,,,,,,,,,,,,,,,,,,,,,,,,,,,,,,,,,,,,,,,,,,,,,,,,,,,,,,,,,,85.22882934843454,85.22882934843454,80.43262230420322,79.7585798000079,71.51268651340291,62.48124273811799,3.0,3.1,-178,255,0,-10,167,-254,289.96751523017883,289.9676377773285,289.97106289863586,289.98201084136963,290.13126134872437,290.13126134872437,290.13126134872437,290.13126134872437,290.13126134872437,290.13126134872437,290.13126134872437,292.532972574234,1,2.5436410903930664,None,,,,,,,,,,,,,,,,,,240,1,2025-03-13_14h50.02.396,comp,2024.2.4,54.8531013819521,2025-03-13 14h50.12.517999 -0400,
44,44,0,critical,dhw,35.0,1.0,lower,70.0,70.0,133.0,57.0,57.0,133.0,2,2.7248167991638184,None,,,,,0,0,0,0,0,44,44,48,292.55061650276184,,,,,,,,,,,,,,,,,,,,,,,,,,,,,,,,,,,,,,,,,,,,,,,,,,,,,,,,,,,,,,,,,,,,,,,,,,,,,,,,,,70.0,70.0,133.0,57.0,57.0,133.0,1.0,1.2,-160,15,0,1,191,-12,292.53445744514465,292.5345356464386,292.5376172065735,292.55061650276184,292.69689989089966,292.69689989089966,292.69689989089966,292.69689989089966,292.69689989089966,292.69689989089966,292.69689989089966,295.29533100128174,2,2.7248167991638184,None,,,,,,,,,,,,,,,,,,240,1,2025-03-13_14h50.02.396,comp,2024.2.4,54.8531013819521,2025-03-13 14h50.12.517999 -0400,
45,45,0,critical,dwh,35.0,3.0,lower,70.0,70.0,57.0,133.0,133.0,57.0,2,1.552248477935791,None,,,,,0,0,0,0,0,45,45,62,295.3151214122772,,,,,,,,,,,,,,,,,,,,,,,,,,,,,,,,,,,,,,,,,,,,,,,,,,,,,,,,,,,,,,,,,,,,,,,,,,,,,,,,,,70.0,70.0,57.0,133.0,133.0,57.0,3.0,3.2,-198,-274,0,3,191,279,295.2968122959137,295.2968895435333,295.29978036880493,295.3151214122772,295.4486622810364,295.4486622810364,295.4486622810364,295.4486622810364,295.4486622810364,295.4486622810364,295.4486622810364,296.88249254226685,2,1.552248477935791,None,,,,,,,,,,,,,,,,,,240,1,2025-03-13_14h50.02.396,comp,2024.2.4,54.8531013819521,2025-03-13 14h50.12.517999 -0400,
46,46,0,critical,dhw,35.0,2.1,lower,70.0,70.0,133.0,57.0,57.0,133.0,3,3.8130970001220703,None,,,,,0,0,0,0,0,46,46,0,296.9022660255432,,,,,,,,,,,,,,,,,,,,,,,,,,,,,,,,,,,,,,,,,,,,,,,,,,,,,,,,,,,,,,,,,,,,,,,,,,,,,,,,,,70.0,70.0,133.0,57.0,57.0,133.0,2.1,2.12,-160,-258,0,-253,191,279,296.8841071128845,296.88423895835876,296.8876097202301,296.9022660255432,297.0497200489044,297.0497200489044,297.0497200489044,297.0497200489044,297.0497200489044,297.0497200489044,297.0497200489044,300.71868896484375,3,3.8130970001220703,None,,,,,,,,,,,,,,,,,,240,1,2025-03-13_14h50.02.396,comp,2024.2.4,54.8531013819521,2025-03-13 14h50.12.517999 -0400,
47,47,0,critical,dwh,20.0,3.0,upper,141.0,141.0,125.0,200.0,200.0,125.0,2,10.652897596359253,None,,,,,0,0,0,0,0,47,47,69,300.7345988750458,,,,,,,,,,,,,,,,,,,,,,,,,,,,,,,,,,,,,,,,,,,,,,,,,,,,,,,,,,,,,,,,,,,,,,,,,,,,,,,,,,141.0,141.0,125.0,200.0,200.0,125.0,3.0,3.1,-266,282,0,19,258,-270,300.72020626068115,300.7202858924866,300.72378730773926,300.7345988750458,300.8862855434418,300.8862855434418,300.8862855434418,300.8862855434418,300.8862855434418,300.8862855434418,300.8862855434418,311.4043564796448,2,10.652897596359253,None,,,,,,,,,,,,,,,,,,240,1,2025-03-13_14h50.02.396,comp,2024.2.4,54.8531013819521,2025-03-13 14h50.12.517999 -0400,
48,48,0,filler_random,None,None,None,None,None,None,None,None,None,None,2,1.024690866470337,None,,,,,0,0,0,0,0,48,48,134,311.4186086654663,,,,,,,,,,,,,,,,,,,,,,,,,,,,,,,,,,,,,,,,,,,,,,,,,,,,,,,,,,,,,,,,,,,,,,,,,,,,,,,,,,70.20130916790427,87.08881220308878,195.53660876228747,193.6596252956119,127.37043178646402,146.46134805229553,3.0,3.2,-236,-289,0,9,266,279,311.40605640411377,311.4061369895935,311.4093542098999,311.4186086654663,311.57118368148804,311.57118368148804,311.57118368148804,311.57118368148804,311.57118368148804,311.57118368148804,311.57118368148804,312.4538006782532,2,1.024690866470337,None,,,,,,,,,,,,,,,,,,240,1,2025-03-13_14h50.02.396,comp,2024.2.4,54.8531013819521,2025-03-13 14h50.12.517999 -0400,
49,49,0,critical,hwd,35.0,1.0,lower,133.0,57.0,57.0,133.0,70.0,70.0,2,7.077216625213623,None,,,,,0,0,0,0,0,49,49,96,312.4701159000397,,,,,,,,,,,,,,,,,,,,,,,,,,,,,,,,,,,,,,,,,,,,,,,,,,,,,,,,,,,,,,,,,,,,,,,,,,,,,,,,,,133.0,57.0,57.0,133.0,70.0,70.0,1.0,1.3,289,-282,480,-270,678,-278,312.4554145336151,312.45549297332764,312.4591066837311,312.4701159000397,312.6252477169037,312.6252477169037,312.6252477169037,312.6252477169037,312.6252477169037,312.6252477169037,312.6252477169037,319.5633738040924,2,7.077216625213623,None,,,,,,,,,,,,,,,,,,240,1,2025-03-13_14h50.02.396,comp,2024.2.4,54.8531013819521,2025-03-13 14h50.12.517999 -0400,
50,50,0,critical,wdh,20.0,4.0,upper,125.0,200.0,141.0,141.0,200.0,125.0,1,2.079568862915039,None,,,,,0,0,0,0,0,50,50,83,319.5798861980438,,,,,,,,,,,,,,,,,,,,,,,,,,,,,,,,,,,,,,,,,,,,,,,,,,,,,,,,,,,,,,,,,,,,,,,,,,,,,,,,,,125.0,200.0,141.0,141.0,200.0,125.0,4.0,4.2,-266,-8,0,-251,229,-13,319.56495213508606,319.5650541782379,319.56847739219666,319.5798861980438,319.72368812561035,319.72368812561035,319.72368812561035,319.72368812561035,319.72368812561035,319.72368812561035,319.72368812561035,321.6726052761078,1,2.079568862915039,None,,,,,,,,,,,,,,,,,,240,1,2025-03-13_14h50.02.396,comp,2024.2.4,54.8531013819521,2025-03-13 14h50.12.517999 -0400,
51,51,0,critical,whd,20.0,1.0,lower,57.0,133.0,133.0,57.0,78.0,78.0,1,5.2353127002716064,None,,,,,0,0,0,0,0,51,51,90,321.6880717277527,,,,,,,,,,,,,,,,,,,,,,,,,,,,,,,,,,,,,,,,,,,,,,,,,,,,,,,,,,,,,,,,,,,,,,,,,,,,,,,,,,57.0,133.0,133.0,57.0,78.0,78.0,1.0,1.2,-191,-8,0,5,164,10,321.67411637306213,321.67423701286316,321.6771297454834,321.6880717277527,321.8406035900116,321.8406035900116,321.8406035900116,321.8406035900116,321.8406035900116,321.8406035900116,321.8406035900116,326.9372913837433,1,5.2353127002716064,None,,,,,,,,,,,,,,,,,,240,1,2025-03-13_14h50.02.396,comp,2024.2.4,54.8531013819521,2025-03-13 14h50.12.517999 -0400,
52,52,0,filler_random,None,None,None,None,None,None,None,None,None,None,2,1.2650411128997803,None,,,,,0,0,0,0,0,52,52,161,326.955363035202,,,,,,,,,,,,,,,,,,,,,,,,,,,,,,,,,,,,,,,,,,,,,,,,,,,,,,,,,,,,,,,,,,,,,,,,,,,,,,,,,,105.35669557739601,81.88655241676682,176.74750629158945,153.9406727069075,168.9872885918588,110.30579407786912,1.0,1.1,-694,251,-480,261,-252,265,326.9389271736145,326.9390058517456,326.9419641494751,326.955363035202,327.0916817188263,327.0916817188263,327.0916817188263,327.0916817188263,327.0916817188263,327.0916817188263,327.0916817188263,328.22744369506836,2,1.2650411128997803,None,,,,,,,,,,,,,,,,,,240,1,2025-03-13_14h50.02.396,comp,2024.2.4,54.8531013819521,2025-03-13 14h50.12.517999 -0400,
53,53,0,critical,whd,35.0,2.1,upper,125.0,200.0,200.0,125.0,127.0,127.0,1,3.279893636703491,None,,,,,0,0,0,0,0,53,53,37,328.2434775829315,,,,,,,,,,,,,,,,,,,,,,,,,,,,,,,,,,,,,,,,,,,,,,,,,,,,,,,,,,,,,,,,,,,,,,,,,,,,,,,,,,125.0,200.0,200.0,125.0,127.0,127.0,2.1,2.11,-258,269,0,271,222,-263,328.22897696495056,328.2290549278259,328.2323715686798,328.2434775829315,328.3932728767395,328.3932728767395,328.3932728767395,328.3932728767395,328.3932728767395,328.3932728767395,328.3932728767395,331.5273871421814,1,3.279893636703491,None,,,,,,,,,,,,,,,,,,240,1,2025-03-13_14h50.02.396,comp,2024.2.4,54.8531013819521,2025-03-13 14h50.12.517999 -0400,
54,54,0,critical,dwh,35.0,4.0,lower,70.0,70.0,57.0,133.0,133.0,57.0,2,3.0280210971832275,None,,,,,0,0,0,0,0,54,54,64,331.5433120727539,,,,,,,,,,,,,,,,,,,,,,,,,,,,,,,,,,,,,,,,,,,,,,,,,,,,,,,,,,,,,,,,,,,,,,,,,,,,,,,,,,70.0,70.0,57.0,133.0,133.0,57.0,4.0,4.1,-198,-273,0,10,191,-260,331.5289454460144,331.5290262699127,331.5325119495392,331.5433120727539,331.6804566383362,331.6804566383362,331.6804566383362,331.6804566383362,331.6804566383362,331.6804566383362,331.6804566383362,334.5833909511566,2,3.0280210971832275,None,,,,,,,,,,,,,,,,,,240,1,2025-03-13_14h50.02.396,comp,2024.2.4,54.8531013819521,2025-03-13 14h50.12.517999 -0400,
55,55,0,critical,hdw,35.0,1.0,lower,133.0,57.0,70.0,70.0,57.0,133.0,1,10.193616151809692,None,,,,,0,0,0,0,0,55,55,108,334.6018075942993,,,,,,,,,,,,,,,,,,,,,,,,,,,,,,,,,,,,,,,,,,,,,,,,,,,,,,,,,,,,,,,,,,,,,,,,,,,,,,,,,,133.0,57.0,70.0,70.0,57.0,133.0,1.0,1.2,-160,0,0,-8,198,-17,334.5848865509033,334.5849657058716,334.5878894329071,334.6018075942993,334.74253511428833,334.74253511428833,334.74253511428833,334.74253511428833,334.74253511428833,334.74253511428833,334.74253511428833,344.7983274459839,1,10.193616151809692,None,,,,,,,,,,,,,,,,,,240,1,2025-03-13_14h50.02.396,comp,2024.2.4,54.8531013819521,2025-03-13 14h50.12.517999 -0400,
56,56,0,critical,dhw,35.0,2.1,lower,70.0,70.0,133.0,57.0,57.0,133.0,2,4.845690488815308,None,,,,,0,0,0,0,0,56,56,24,344.8144955635071,,,,,,,,,,,,,,,,,,,,,,,,,,,,,,,,,,,,,,,,,,,,,,,,,,,,,,,,,,,,,,,,,,,,,,,,,,,,,,,,,,70.0,70.0,133.0,57.0,57.0,133.0,2.1,2.12,-160,-255,0,-268,191,272,344.7999053001404,344.7999861240387,344.80343294143677,344.8144955635071,344.9638946056366,344.9638946056366,344.9638946056366,344.9638946056366,344.9638946056366,344.9638946056366,344.9638946056366,349.67104840278625,2,4.845690488815308,None,,,,,,,,,,,,,,,,,,240,1,2025-03-13_14h50.02.396,comp,2024.2.4,54.8531013819521,2025-03-13 14h50.12.517999 -0400,
57,57,0,filler_random,None,None,None,None,None,None,None,None,None,None,2,5.306987047195435,None,,,,,0,0,0,0,0,57,57,169,349.688951253891,,,,,,,,,,,,,,,,,,,,,,,,,,,,,,,,,,,,,,,,,,,,,,,,,,,,,,,,,,,,,,,,,,,,,,,,,,,,,,,,,,197.91561507127773,179.78139314754782,194.77282842032983,197.47675042318184,169.72709701794076,163.9420119445893,2.1,2.11,-285,287,0,251,277,-277,349.6727638244629,349.6728446483612,349.67579793930054,349.688951253891,349.83396577835083,349.83396577835083,349.83396577835083,349.83396577835083,349.83396577835083,349.83396577835083,349.83396577835083,355.0025029182434,2,5.306987047195435,None,,,,,,,,,,,,,,,,,,240,1,2025-03-13_14h50.02.396,comp,2024.2.4,54.8531013819521,2025-03-13 14h50.12.517999 -0400,
58,58,0,critical,dwh,35.0,2.1,upper,127.0,127.0,125.0,200.0,200.0,125.0,2,8.120678901672363,None,,,,,0,0,0,0,0,58,58,29,355.0187478065491,,,,,,,,,,,,,,,,,,,,,,,,,,,,,,,,,,,,,,,,,,,,,,,,,,,,,,,,,,,,,,,,,,,,,,,,,,,,,,,,,,127.0,127.0,125.0,200.0,200.0,125.0,2.1,2.11,-260,275,0,254,258,-282,355.0042173862457,355.00431990623474,355.00788831710815,355.0187478065491,355.1724293231964,355.1724293231964,355.1724293231964,355.1724293231964,355.1724293231964,355.1724293231964,355.1724293231964,363.1505923271179,2,8.120678901672363,None,,,,,,,,,,,,,,,,,,240,1,2025-03-13_14h50.02.396,comp,2024.2.4,54.8531013819521,2025-03-13 14h50.12.517999 -0400,
59,59,0,critical,dhw,35.0,3.0,upper,127.0,127.0,200.0,125.0,125.0,200.0,3,14.523464441299438,None,,,,,0,0,0,0,0,59,59,51,363.1688630580902,,,,,,,,,,,,,,,,,,,,,,,,,,,,,,,,,,,,,,,,,,,,,,,,,,,,,,,,,,,,,,,,,,,,,,,,,,,,,,,,,,127.0,127.0,200.0,125.0,125.0,200.0,3.0,3.2,-222,-271,0,9,258,251,363.1522626876831,363.1523413658142,363.1556897163391,363.1688630580902,363.30498027801514,363.30498027801514,363.30498027801514,363.30498027801514,363.30498027801514,363.30498027801514,363.30498027801514,377.6987965106964,3,14.523464441299438,None,,,,,,,,,,,,,,,,,,240,1,2025-03-13_14h50.02.396,comp,2024.2.4,54.8531013819521,2025-03-13 14h50.12.517999 -0400,
60,60,0,catch,None,None,None,None,None,None,None,None,None,None,1,1.3121204376220703,None,,,,,0,0,0,0,0,60,60,120,377.7155342102051,,,,,,,,,,,,,,,,,,,,,,,,,,,,,,,,,,,,,,,,,,,,,,,,,,,,,,,,,,,,,,,,,,,,,,,,,,,,,,,,,,167,158,110,80,95,95,1.0,1.2,-215,-1,0,-12,184,11,377.70071506500244,377.7007999420166,377.70373821258545,377.7155342102051,377.8592426776886,377.8592426776886,377.8592426776886,377.8592426776886,377.8592426776886,377.8592426776886,377.8592426776886,379.03270649909973,1,1.3121204376220703,None,,,,,,,,,,,,,,,,,,240,1,2025-03-13_14h50.02.396,comp,2024.2.4,54.8531013819521,2025-03-13 14h50.12.517999 -0400,
61,61,0,filler_random,None,None,None,None,None,None,None,None,None,None,2,1.9451687335968018,None,,,,,0,0,0,0,0,61,61,141,379.0510597229004,,,,,,,,,,,,,,,,,,,,,,,,,,,,,,,,,,,,,,,,,,,,,,,,,,,,,,,,,,,,,,,,,,,,,,,,,,,,,,,,,,160.13378409977906,87.46129884203441,189.54107625383375,141.28309168512288,98.54735104197066,105.24998026873646,2.1,2.12,-210,-285,0,-278,219,266,379.0344045162201,379.03448486328125,379.0374507904053,379.0510597229004,379.19211077690125,379.19211077690125,379.19211077690125,379.19211077690125,379.19211077690125,379.19211077690125,379.19211077690125,380.9985806941986,2,1.9451687335968018,None,,,,,,,,,,,,,,,,,,240,1,2025-03-13_14h50.02.396,comp,2024.2.4,54.8531013819521,2025-03-13 14h50.12.517999 -0400,
62,62,0,critical,whd,20.0,4.0,upper,125.0,200.0,200.0,125.0,141.0,141.0,2,4.5248026847839355,None,,,,,0,0,0,0,0,62,62,95,381.0151319503784,,,,,,,,,,,,,,,,,,,,,,,,,,,,,,,,,,,,,,,,,,,,,,,,,,,,,,,,,,,,,,,,,,,,,,,,,,,,,,,,,,125.0,200.0,200.0,125.0,141.0,141.0,4.0,4.2,-258,-18,0,-259,229,16,381.0002703666687,381.0003535747528,381.00369143486023,381.0151319503784,381.1590175628662,381.1590175628662,381.1590175628662,381.1590175628662,381.1590175628662,381.1590175628662,381.1590175628662,385.54553723335266,2,4.5248026847839355,None,,,,,,,,,,,,,,,,,,240,1,2025-03-13_14h50.02.396,comp,2024.2.4,54.8531013819521,2025-03-13 14h50.12.517999 -0400,
63,63,0,catch,None,None,None,None,None,None,None,None,None,None,1,1.1852667331695557,None,,,,,0,0,0,0,0,63,63,129,385.56245946884155,,,,,,,,,,,,,,,,,,,,,,,,,,,,,,,,,,,,,,,,,,,,,,,,,,,,,,,,,,,,,,,,,,,,,,,,,,,,,,,,,,146,179,101,89,125,65,3.0,3.2,-230,-280,0,19,173,254,385.54788517951965,385.54801988601685,385.5515902042389,385.56245946884155,385.71079874038696,385.71079874038696,385.71079874038696,385.71079874038696,385.71079874038696,385.71079874038696,385.71079874038696,386.74987292289734,1,1.1852667331695557,None,,,,,,,,,,,,,,,,,,240,1,2025-03-13_14h50.02.396,comp,2024.2.4,54.8531013819521,2025-03-13 14h50.12.517999 -0400,
64,64,0,catch,None,None,None,None,None,None,None,None,None,None,2,2.163837432861328,None,,,,,0,0,0,0,0,64,64,125,386.7676570415497,,,,,,,,,,,,,,,,,,,,,,,,,,,,,,,,,,,,,,,,,,,,,,,,,,,,,,,,,,,,,,,,,,,,,,,,,,,,,,,,,,106,84,150,175,78,112,2.2,2.21,-226,-272,0,250,240,274,386.7522614002228,386.7523424625397,386.75587368011475,386.7676570415497,386.9112198352814,386.9112198352814,386.9112198352814,386.9112198352814,386.9112198352814,386.9112198352814,386.9112198352814,388.94547271728516,2,2.163837432861328,None,,,,,,,,,,,,,,,,,,240,1,2025-03-13_14h50.02.396,comp,2024.2.4,54.8531013819521,2025-03-13 14h50.12.517999 -0400,
65,65,0,catch,None,None,None,None,None,None,None,None,None,None,3,0.9545235633850098,None,,,,,0,0,0,0,0,65,65,123,388.961364030838,,,,,,,,,,,,,,,,,,,,,,,,,,,,,,,,,,,,,,,,,,,,,,,,,,,,,,,,,,,,,,,,,,,,,,,,,,,,,,,,,,75,115,94,96,140,185,4.0,4.2,-202,13,0,-282,236,20,388.9474244117737,388.9475026130676,388.9509153366089,388.961364030838,389.11478304862976,389.11478304862976,389.11478304862976,389.11478304862976,389.11478304862976,389.11478304862976,389.11478304862976,389.92275881767273,3,0.9545235633850098,None,,,,,,,,,,,,,,,,,,240,1,2025-03-13_14h50.02.396,comp,2024.2.4,54.8531013819521,2025-03-13 14h50.12.517999 -0400,
66,66,0,critical,hdw,35.0,4.0,upper,200.0,125.0,127.0,127.0,125.0,200.0,1,1.5247151851654053,None,,,,,0,0,0,0,0,66,66,113,389.94290113449097,,,,,,,,,,,,,,,,,,,,,,,,,,,,,,,,,,,,,,,,,,,,,,,,,,,,,,,,,,,,,,,,,,,,,,,,,,,,,,,,,,200.0,125.0,127.0,127.0,125.0,200.0,4.0,4.2,-222,-3,0,-265,260,3,389.92425894737244,389.92434906959534,389.927298784256,389.94290113449097,390.07872247695923,390.07872247695923,390.07872247695923,390.07872247695923,390.07872247695923,390.07872247695923,390.07872247695923,391.47883105278015,1,1.5247151851654053,None,,,,,,,,,,,,,,,,,,240,1,2025-03-13_14h50.02.396,comp,2024.2.4,54.8531013819521,2025-03-13 14h50.12.517999 -0400,
67,67,0,filler_square,None,None,None,None,None,None,None,None,None,None,2,0.8810114860534668,None,,,,,0,0,0,0,0,67,67,204,391.49871468544006,,,,,,,,,,,,,,,,,,,,,,,,,,,,,,,,,,,,,,,,,,,,,,,,,,,,,,,,,,,,,,,,,,,,,,,,,,,,,,,,,,131.78843215696693,93.61606061523906,141.66379652538927,141.66379652538927,80.28680701207107,107.18283539659481,3.0,3.1,-214,264,0,1,220,-284,391.4806625843048,391.48074173927307,391.4836702346802,391.49871468544006,391.646954536438,391.646954536438,391.646954536438,391.646954536438,391.646954536438,391.646954536438,391.646954536438,392.3961877822876,2,0.8810114860534668,None,,,,,,,,,,,,,,,,,,240,1,2025-03-13_14h50.02.396,comp,2024.2.4,54.8531013819521,2025-03-13 14h50.12.517999 -0400,
68,68,0,critical,whd,20.0,2.1,lower,57.0,133.0,133.0,57.0,78.0,78.0,2,2.0169100761413574,None,,,,,0,0,0,0,0,68,68,14,392.4108090400696,,,,,,,,,,,,,,,,,,,,,,,,,,,,,,,,,,,,,,,,,,,,,,,,,,,,,,,,,,,,,,,,,,,,,,,,,,,,,,,,,,57.0,133.0,133.0,57.0,78.0,78.0,2.1,2.12,-191,-279,0,-281,164,262,392.39786434173584,392.3979938030243,392.40150213241577,392.4108090400696,392.5515899658203,392.5515899658203,392.5515899658203,392.5515899658203,392.5515899658203,392.5515899658203,392.5515899658203,394.4320342540741,2,2.0169100761413574,None,,,,,,,,,,,,,,,,,,240,1,2025-03-13_14h50.02.396,comp,2024.2.4,54.8531013819521,2025-03-13 14h50.12.517999 -0400,
69,69,0,filler_square,None,None,None,None,None,None,None,None,None,None,3,1.2189173698425293,None,,,,,0,0,0,0,0,69,69,182,394.44883966445923,,,,,,,,,,,,,,,,,,,,,,,,,,,,,,,,,,,,,,,,,,,,,,,,,,,,,,,,,,,,,,,,,,,,,,,,,,,,,,,,,,67.36512306186462,70.85679520890326,97.2107196820219,78.37346541536434,138.32763023890575,138.32763023890575,2.1,2.11,-171,263,0,256,204,-257,394.43403577804565,394.4341194629669,394.4379839897156,394.44883966445923,394.59797978401184,394.59797978401184,394.59797978401184,394.59797978401184,394.59797978401184,394.59797978401184,394.59797978401184,395.68530797958374,3,1.2189173698425293,None,,,,,,,,,,,,,,,,,,240,1,2025-03-13_14h50.02.396,comp,2024.2.4,54.8531013819521,2025-03-13 14h50.12.517999 -0400,
70,70,0,filler_random,None,None,None,None,None,None,None,None,None,None,3,1.2515745162963867,None,,,,,0,0,0,0,0,70,70,160,395.70392537117004,,,,,,,,,,,,,,,,,,,,,,,,,,,,,,,,,,,,,,,,,,,,,,,,,,,,,,,,,,,,,,,,,,,,,,,,,,,,,,,,,,68.78788823879593,173.8824721833555,104.65072028958735,75.068780641004,169.77532818852995,94.1397286265293,3.0,3.2,-220,-271,0,15,181,271,395.6875593662262,395.6876401901245,395.6911370754242,395.70392537117004,395.8573410511017,395.8573410511017,395.8573410511017,395.8573410511017,395.8573410511017,395.8573410511017,395.8573410511017,396.9645428657532,3,1.2515745162963867,None,,,,,,,,,,,,,,,,,,240,1,2025-03-13_14h50.02.396,comp,2024.2.4,54.8531013819521,2025-03-13 14h50.12.517999 -0400,
71,71,0,filler_square,None,None,None,None,None,None,None,None,None,None,1,1.2868726253509521,None,,,,,0,0,0,0,0,71,71,205,396.98056387901306,,,,,,,,,,,,,,,,,,,,,,,,,,,,,,,,,,,,,,,,,,,,,,,,,,,,,,,,,,,,,,,,,,,,,,,,,,,,,,,,,,130.7655035284219,130.7655035284219,77.50021658685257,110.64491593925592,74.26792763115364,112.64479286515765,4.0,4.1,-217,-280,0,-18,208,-279,396.96629428863525,396.96637511253357,396.9697256088257,396.98056387901306,397.13645100593567,397.13645100593567,397.13645100593567,397.13645100593567,397.13645100593567,397.13645100593567,397.13645100593567,398.2809295654297,1,1.2868726253509521,None,,,,,,,,,,,,,,,,,,240,1,2025-03-13_14h50.02.396,comp,2024.2.4,54.8531013819521,2025-03-13 14h50.12.517999 -0400,
72,72,0,critical,dwh,35.0,3.0,upper,127.0,127.0,125.0,200.0,200.0,125.0,3,1.6461944580078125,None,,,,,0,0,0,0,0,72,72,63,398.301260471344,,,,,,,,,,,,,,,,,,,,,,,,,,,,,,,,,,,,,,,,,,,,,,,,,,,,,,,,,,,,,,,,,,,,,,,,,,,,,,,,,,127.0,127.0,125.0,200.0,200.0,125.0,3.0,3.2,-260,-271,0,-8,258,264,398.28256487846375,398.2826581001282,398.28632616996765,398.301260471344,398.4486417770386,398.4486417770386,398.4486417770386,398.4486417770386,398.4486417770386,398.4486417770386,398.4486417770386,399.9655022621155,3,1.6461944580078125,None,,,,,,,,,,,,,,,,,,240,1,2025-03-13_14h50.02.396,comp,2024.2.4,54.8531013819521,2025-03-13 14h50.12.517999 -0400,
73,73,0,filler_random,None,None,None,None,None,None,None,None,None,None,2,0.7745158672332764,None,,,,,0,0,0,0,0,73,73,139,399.981897354126,,,,,,,,,,,,,,,,,,,,,,,,,,,,,,,,,,,,,,,,,,,,,,,,,,,,,,,,,,,,,,,,,,,,,,,,,,,,,,,,,,87.83031272681735,114.19447240556214,178.63086569392624,194.6557287690297,112.2708500906682,185.6423406753054,3.0,3.1,-250,269,0,4,286,-271,399.96731519699097,399.967422246933,399.97070121765137,399.981897354126,400.13351941108704,400.13351941108704,400.13351941108704,400.13351941108704,400.13351941108704,400.13351941108704,400.13351941108704,400.7642912864685,2,0.7745158672332764,None,,,,,,,,,,,,,,,,,,240,1,2025-03-13_14h50.02.396,comp,2024.2.4,54.8531013819521,2025-03-13 14h50.12.517999 -0400,
74,74,0,filler_square,None,None,None,None,None,None,None,None,None,None,2,0.7903995513916016,None,,,,,0,0,0,0,0,74,74,173,400.78146505355835,,,,,,,,,,,,,,,,,,,,,,,,,,,,,,,,,,,,,,,,,,,,,,,,,,,,,,,,,,,,,,,,,,,,,,,,,,,,,,,,,,92.05510066224241,83.69673113016098,140.16891449329813,140.16891449329813,108.95691403853877,113.16528469728237,3.0,3.2,-208,-268,0,-19,223,267,400.7663359642029,400.766414642334,400.7698185443878,400.78146505355835,400.91722106933594,400.91722106933594,400.91722106933594,400.91722106933594,400.91722106933594,400.91722106933594,400.91722106933594,401.59113669395447,2,0.7903995513916016,None,,,,,,,,,,,,,,,,,,240,1,2025-03-13_14h50.02.396,comp,2024.2.4,54.8531013819521,2025-03-13 14h50.12.517999 -0400,
75,75,0,critical,dhw,35.0,3.0,lower,70.0,70.0,133.0,57.0,57.0,133.0,3,3.083104372024536,None,,,,,0,0,0,0,0,75,75,50,401.60881185531616,,,,,,,,,,,,,,,,,,,,,,,,,,,,,,,,,,,,,,,,,,,,,,,,,,,,,,,,,,,,,,,,,,,,,,,,,,,,,,,,,,70.0,70.0,133.0,57.0,57.0,133.0,3.0,3.1,-160,284,0,-5,191,-285,401.5927469730377,401.59282636642456,401.59582114219666,401.60881185531616,401.7505316734314,401.7505316734314,401.7505316734314,401.7505316734314,401.7505316734314,401.7505316734314,401.7505316734314,404.7004220485687,3,3.083104372024536,None,,,,,,,,,,,,,,,,,,240,1,2025-03-13_14h50.02.396,comp,2024.2.4,54.8531013819521,2025-03-13 14h50.12.517999 -0400,
76,76,0,critical,whd,35.0,2.1,lower,57.0,133.0,133.0,57.0,70.0,70.0,1,4.550191640853882,None,,,,,0,0,0,0,0,76,76,12,404.7172677516937,,,,,,,,,,,,,,,,,,,,,,,,,,,,,,,,,,,,,,,,,,,,,,,,,,,,,,,,,,,,,,,,,,,,,,,,,,,,,,,,,,57.0,133.0,133.0,57.0,70.0,70.0,2.1,2.12,-191,-285,0,-267,160,281,404.70213055610657,404.70229172706604,404.70581102371216,404.7172677516937,404.8660743236542,404.8660743236542,404.8660743236542,404.8660743236542,404.8660743236542,404.8660743236542,404.8660743236542,409.28446197509766,1,4.550191640853882,None,,,,,,,,,,,,,,,,,,240,1,2025-03-13_14h50.02.396,comp,2024.2.4,54.8531013819521,2025-03-13 14h50.12.517999 -0400,
77,77,0,filler_square,None,None,None,None,None,None,None,None,None,None,1,1.1437792778015137,None,,,,,0,0,0,0,0,77,77,192,409.30096530914307,,,,,,,,,,,,,,,,,,,,,,,,,,,,,,,,,,,,,,,,,,,,,,,,,,,,,,,,,,,,,,,,,,,,,,,,,,,,,,,,,,198.8529040376352,198.8529040376352,90.17404471797315,185.18031763132055,76.2358213818639,81.3680499378876,1.0,1.1,-768,254,-480,254,-251,252,409.2864089012146,409.2865324020386,409.28978085517883,409.30096530914307,409.4520854949951,409.4520854949951,409.4520854949951,409.4520854949951,409.4520854949951,409.4520854949951,409.4520854949951,410.45182156562805,1,1.1437792778015137,None,,,,,,,,,,,,,,,,,,240,1,2025-03-13_14h50.02.396,comp,2024.2.4,54.8531013819521,2025-03-13 14h50.12.517999 -0400,
78,78,0,critical,hdw,20.0,4.0,lower,133.0,57.0,78.0,78.0,57.0,133.0,1,3.5271100997924805,None,,,,,0,0,0,0,0,78,78,118,410.4685802459717,,,,,,,,,,,,,,,,,,,,,,,,,,,,,,,,,,,,,,,,,,,,,,,,,,,,,,,,,,,,,,,,,,,,,,,,,,,,,,,,,,133.0,57.0,78.0,78.0,57.0,133.0,4.0,4.1,-164,-264,0,11,202,-280,410.4534182548523,410.45349860191345,410.45698142051697,410.4685802459717,410.6181116104126,410.6181116104126,410.6181116104126,410.6181116104126,410.6181116104126,410.6181116104126,410.6181116104126,413.99875116348267,1,3.5271100997924805,None,,,,,,,,,,,,,,,,,,240,1,2025-03-13_14h50.02.396,comp,2024.2.4,54.8531013819521,2025-03-13 14h50.12.517999 -0400,
79,79,0,critical,hwd,35.0,4.0,upper,200.0,125.0,125.0,200.0,127.0,127.0,2,4.260695934295654,None,,,,,0,0,0,0,0,79,79,101,414.0147633552551,,,,,,,,,,,,,,,,,,,,,,,,,,,,,,,,,,,,,,,,,,,,,,,,,,,,,,,,,,,,,,,,,,,,,,,,,,,,,,,,,,200.0,125.0,125.0,200.0,127.0,127.0,4.0,4.2,-258,-19,0,-256,260,-7,414.0003614425659,414.00047063827515,414.00381565093994,414.0147633552551,414.15385389328003,414.15385389328003,414.15385389328003,414.15385389328003,414.15385389328003,414.15385389328003,414.15385389328003,418.28725123405457,2,4.260695934295654,None,,,,,,,,,,,,,,,,,,240,1,2025-03-13_14h50.02.396,comp,2024.2.4,54.8531013819521,2025-03-13 14h50.12.517999 -0400,
80,80,0,critical,hwd,20.0,4.0,upper,200.0,125.0,125.0,200.0,141.0,141.0,1,5.842394828796387,None,,,,,0,0,0,0,0,80,80,107,418.30682134628296,,,,,,,,,,,,,,,,,,,,,,,,,,,,,,,,,,,,,,,,,,,,,,,,,,,,,,,,,,,,,,,,,,,,,,,,,,,,,,,,,,200.0,125.0,125.0,200.0,141.0,141.0,4.0,4.1,-258,-261,0,-9,266,-279,418.28889513015747,418.28897500038147,418.2923831939697,418.30682134628296,418.4541199207306,418.4541199207306,418.4541199207306,418.4541199207306,418.4541199207306,418.4541199207306,418.4541199207306,424.1569821834564,1,5.842394828796387,None,,,,,,,,,,,,,,,,,,240,1,2025-03-13_14h50.02.396,comp,2024.2.4,54.8531013819521,2025-03-13 14h50.12.517999 -0400,
81,81,0,critical,hdw,20.0,2.1,upper,200.0,125.0,141.0,141.0,125.0,200.0,3,2.1856043338775635,None,,,,,0,0,0,0,0,81,81,23,424.17783641815186,,,,,,,,,,,,,,,,,,,,,,,,,,,,,,,,,,,,,,,,,,,,,,,,,,,,,,,,,,,,,,,,,,,,,,,,,,,,,,,,,,200.0,125.0,141.0,141.0,125.0,200.0,2.1,2.11,-229,270,0,252,266,-284,424.1585147380829,424.1585919857025,424.1618068218231,424.17783641815186,424.32487750053406,424.32487750053406,424.32487750053406,424.32487750053406,424.32487750053406,424.32487750053406,424.32487750053406,426.3736684322357,3,2.1856043338775635,None,,,,,,,,,,,,,,,,,,240,1,2025-03-13_14h50.02.396,comp,2024.2.4,54.8531013819521,2025-03-13 14h50.12.517999 -0400,
82,82,0,critical,dhw,35.0,1.0,upper,127.0,127.0,200.0,125.0,125.0,200.0,2,3.5594828128814697,None,,,,,0,0,0,0,0,82,82,49,426.3895525932312,,,,,,,,,,,,,,,,,,,,,,,,,,,,,,,,,,,,,,,,,,,,,,,,,,,,,,,,,,,,,,,,,,,,,,,,,,,,,,,,,,127.0,127.0,200.0,125.0,125.0,200.0,1.0,1.3,258,-287,480,-265,738,-256,426.3751618862152,426.375244140625,426.3786630630493,426.3895525932312,426.5407633781433,426.5407633781433,426.5407633781433,426.5407633781433,426.5407633781433,426.5407633781433,426.5407633781433,429.960547208786,2,3.5594828128814697,None,,,,,,,,,,,,,,,,,,240,1,2025-03-13_14h50.02.396,comp,2024.2.4,54.8531013819521,2025-03-13 14h50.12.517999 -0400,
83,83,0,critical,dwh,20.0,3.0,lower,78.0,78.0,57.0,133.0,133.0,57.0,1,2.994755506515503,None,,,,,0,0,0,0,0,83,83,68,429.97702193260193,,,,,,,,,,,,,,,,,,,,,,,,,,,,,,,,,,,,,,,,,,,,,,,,,,,,,,,,,,,,,,,,,,,,,,,,,,,,,,,,,,78.0,78.0,57.0,133.0,133.0,57.0,3.0,3.1,-202,255,0,15,191,-279,429.96216797828674,429.96230149269104,429.96619296073914,429.97702193260193,430.131991147995,430.131991147995,430.131991147995,430.131991147995,430.131991147995,430.131991147995,430.131991147995,432.9760820865631,1,2.994755506515503,None,,,,,,,,,,,,,,,,,,240,1,2025-03-13_14h50.02.396,comp,2024.2.4,54.8531013819521,2025-03-13 14h50.12.517999 -0400,
84,84,0,critical,hwd,20.0,2.1,lower,133.0,57.0,57.0,133.0,78.0,78.0,3,4.017499685287476,None,,,,,0,0,0,0,0,84,84,42,432.99399876594543,,,,,,,,,,,,,,,,,,,,,,,,,,,,,,,,,,,,,,,,,,,,,,,,,,,,,,,,,,,,,,,,,,,,,,,,,,,,,,,,,,133.0,57.0,57.0,133.0,78.0,78.0,2.1,2.12,-191,-280,0,-286,202,270,432.97762155532837,432.9776997566223,432.98083567619324,432.99399876594543,433.14513778686523,433.14513778686523,433.14513778686523,433.14513778686523,433.14513778686523,433.14513778686523,433.14513778686523,437.02912497520447,3,4.017499685287476,None,,,,,,,,,,,,,,,,,,240,1,2025-03-13_14h50.02.396,comp,2024.2.4,54.8531013819521,2025-03-13 14h50.12.517999 -0400,
85,85,0,critical,hdw,20.0,4.0,upper,200.0,125.0,141.0,141.0,125.0,200.0,2,4.766947269439697,None,,,,,0,0,0,0,0,85,85,119,437.0449938774109,,,,,,,,,,,,,,,,,,,,,,,,,,,,,,,,,,,,,,,,,,,,,,,,,,,,,,,,,,,,,,,,,,,,,,,,,,,,,,,,,,200.0,125.0,141.0,141.0,125.0,200.0,4.0,4.2,-229,6,0,-252,266,4,437.03084921836853,437.03095388412476,437.0345242023468,437.0449938774109,437.1942138671875,437.1942138671875,437.1942138671875,437.1942138671875,437.1942138671875,437.1942138671875,437.1942138671875,441.81885027885437,2,4.766947269439697,None,,,,,,,,,,,,,,,,,,240,1,2025-03-13_14h50.02.396,comp,2024.2.4,54.8531013819521,2025-03-13 14h50.12.517999 -0400,
86,86,0,critical,hwd,20.0,2.1,lower,133.0,57.0,57.0,133.0,78.0,78.0,1,5.907371282577515,None,,,,,0,0,0,0,0,86,86,18,441.8400914669037,,,,,,,,,,,,,,,,,,,,,,,,,,,,,,,,,,,,,,,,,,,,,,,,,,,,,,,,,,,,,,,,,,,,,,,,,,,,,,,,,,133.0,57.0,57.0,133.0,78.0,78.0,2.1,2.11,-191,282,0,260,202,-276,441.8204827308655,441.8205728530884,441.8242573738098,441.8400914669037,441.9829857349396,441.9829857349396,441.9829857349396,441.9829857349396,441.9829857349396,441.9829857349396,441.9829857349396,447.7623960971832,1,5.907371282577515,None,,,,,,,,,,,,,,,,,,240,1,2025-03-13_14h50.02.396,comp,2024.2.4,54.8531013819521,2025-03-13 14h50.12.517999 -0400,
87,87,0,critical,wdh,35.0,3.0,lower,57.0,133.0,70.0,70.0,133.0,57.0,1,2.0820236206054688,None,,,,,0,0,0,0,0,87,87,74,447.7780873775482,,,,,,,,,,,,,,,,,,,,,,,,,,,,,,,,,,,,,,,,,,,,,,,,,,,,,,,,,,,,,,,,,,,,,,,,,,,,,,,,,,57.0,133.0,70.0,70.0,133.0,57.0,3.0,3.1,-198,288,0,-7,160,-278,447.7639980316162,447.7640845775604,447.76749181747437,447.7780873775482,447.9207262992859,447.9207262992859,447.9207262992859,447.9207262992859,447.9207262992859,447.9207262992859,447.9207262992859,449.86276745796204,1,2.0820236206054688,None,,,,,,,,,,,,,,,,,,240,1,2025-03-13_14h50.02.396,comp,2024.2.4,54.8531013819521,2025-03-13 14h50.12.517999 -0400,
88,88,0,filler_random,None,None,None,None,None,None,None,None,None,None,1,1.8994874954223633,None,,,,,0,0,0,0,0,88,88,140,449.88000440597534,,,,,,,,,,,,,,,,,,,,,,,,,,,,,,,,,,,,,,,,,,,,,,,,,,,,,,,,,,,,,,,,,,,,,,,,,,,,,,,,,,195.71082344673812,180.6444469805001,184.208743840922,64.21694425169729,105.66473486916618,74.05890303199175,4.0,4.1,-218,-260,0,-8,165,-286,449.8646183013916,449.8647503852844,449.8680431842804,449.88000440597534,450.02834916114807,450.02834916114807,450.02834916114807,450.02834916114807,450.02834916114807,450.02834916114807,450.02834916114807,451.7816119194031,1,1.8994874954223633,None,,,,,,,,,,,,,,,,,,240,1,2025-03-13_14h50.02.396,comp,2024.2.4,54.8531013819521,2025-03-13 14h50.12.517999 -0400,
89,89,0,filler_square,None,None,None,None,None,None,None,None,None,None,2,1.4058446884155273,None,,,,,0,0,0,0,0,89,89,201,451.79808259010315,,,,,,,,,,,,,,,,,,,,,,,,,,,,,,,,,,,,,,,,,,,,,,,,,,,,,,,,,,,,,,,,,,,,,,,,,,,,,,,,,,163.46104133996997,115.8072495573162,179.27025396963205,179.27025396963205,128.4216012214502,138.76048277229626,2.2,2.21,-244,-283,0,257,255,280,451.7836174964905,451.78369975090027,451.78715991973877,451.79808259010315,451.94628500938416,451.94628500938416,451.94628500938416,451.94628500938416,451.94628500938416,451.94628500938416,451.94628500938416,453.2068929672241,2,1.4058446884155273,None,,,,,,,,,,,,,,,,,,240,1,2025-03-13_14h50.02.396,comp,2024.2.4,54.8531013819521,2025-03-13 14h50.12.517999 -0400,
90,90,0,critical,dwh,35.0,2.1,lower,70.0,70.0,57.0,133.0,133.0,57.0,1,1.9122724533081055,None,,,,,0,0,0,0,0,90,90,4,453.22727632522583,,,,,,,,,,,,,,,,,,,,,,,,,,,,,,,,,,,,,,,,,,,,,,,,,,,,,,,,,,,,,,,,,,,,,,,,,,,,,,,,,,70.0,70.0,57.0,133.0,133.0,57.0,2.1,2.11,-198,254,0,263,191,-275,453.208615064621,453.2086970806122,453.21160340309143,453.22727632522583,453.3617618083954,453.3617618083954,453.3617618083954,453.3617618083954,453.3617618083954,453.3617618083954,453.3617618083954,455.1542558670044,1,1.9122724533081055,None,,,,,,,,,,,,,,,,,,240,1,2025-03-13_14h50.02.396,comp,2024.2.4,54.8531013819521,2025-03-13 14h50.12.517999 -0400,
91,91,0,critical,hdw,35.0,2.1,upper,200.0,125.0,127.0,127.0,125.0,200.0,3,2.0500640869140625,None,,,,,0,0,0,0,0,91,91,45,455.1695463657379,,,,,,,,,,,,,,,,,,,,,,,,,,,,,,,,,,,,,,,,,,,,,,,,,,,,,,,,,,,,,,,,,,,,,,,,,,,,,,,,,,200.0,125.0,127.0,127.0,125.0,200.0,2.1,2.12,-222,-262,0,-262,260,267,455.15580463409424,455.1558840274811,455.1591730117798,455.1695463657379,455.3125579357147,455.3125579357147,455.3125579357147,455.3125579357147,455.3125579357147,455.3125579357147,455.3125579357147,457.2358853816986,3,2.0500640869140625,None,,,,,,,,,,,,,,,,,,240,1,2025-03-13_14h50.02.396,comp,2024.2.4,54.8531013819521,2025-03-13 14h50.12.517999 -0400,
92,92,0,filler_random,None,None,None,None,None,None,None,None,None,None,2,1.4294993877410889,None,,,,,0,0,0,0,0,92,92,148,457.25424551963806,,,,,,,,,,,,,,,,,,,,,,,,,,,,,,,,,,,,,,,,,,,,,,,,,,,,,,,,,,,,,,,,,,,,,,,,,,,,,,,,,,59.474012387992644,184.67145184028018,80.34605899331612,147.53441207426283,138.487908057004,95.36010226053864,4.0,4.1,-262,-273,0,0,217,-253,457.2379150390625,457.2380459308624,457.2415232658386,457.25424551963806,457.3990921974182,457.3990921974182,457.3990921974182,457.3990921974182,457.3990921974182,457.3990921974182,457.3990921974182,458.69984340667725,2,1.4294993877410889,None,,,,,,,,,,,,,,,,,,240,1,2025-03-13_14h50.02.396,comp,2024.2.4,54.8531013819521,2025-03-13 14h50.12.517999 -0400,
93,93,0,critical,whd,35.0,2.1,upper,125.0,200.0,200.0,125.0,127.0,127.0,3,2.195929527282715,None,,,,,0,0,0,0,0,93,93,13,458.71956729888916,,,,,,,,,,,,,,,,,,,,,,,,,,,,,,,,,,,,,,,,,,,,,,,,,,,,,,,,,,,,,,,,,,,,,,,,,,,,,,,,,,125.0,200.0,200.0,125.0,127.0,127.0,2.1,2.12,-258,-257,0,-265,222,260,458.70141434669495,458.70149302482605,458.70469427108765,458.71956729888916,458.8673565387726,458.8673565387726,458.8673565387726,458.8673565387726,458.8673565387726,458.8673565387726,458.8673565387726,460.934113740921,3,2.195929527282715,None,,,,,,,,,,,,,,,,,,240,1,2025-03-13_14h50.02.396,comp,2024.2.4,54.8531013819521,2025-03-13 14h50.12.517999 -0400,
94,94,0,critical,wdh,35.0,3.0,upper,125.0,200.0,127.0,127.0,200.0,125.0,1,3.6291589736938477,None,,,,,0,0,0,0,0,94,94,75,460.9508352279663,,,,,,,,,,,,,,,,,,,,,,,,,,,,,,,,,,,,,,,,,,,,,,,,,,,,,,,,,,,,,,,,,,,,,,,,,,,,,,,,,,125.0,200.0,127.0,127.0,200.0,125.0,3.0,3.2,-260,-254,0,16,222,281,460.93572211265564,460.9357991218567,460.9392921924591,460.9508352279663,461.10106468200684,461.10106468200684,461.10106468200684,461.10106468200684,461.10106468200684,461.10106468200684,461.10106468200684,464.586385011673,1,3.6291589736938477,None,,,,,,,,,,,,,,,,,,240,1,2025-03-13_14h50.02.396,comp,2024.2.4,54.8531013819521,2025-03-13 14h50.12.517999 -0400,
95,95,0,filler_random,None,None,None,None,None,None,None,None,None,None,1,2.4090840816497803,None,,,,,0,0,0,0,0,95,95,154,464.60325169563293,,,,,,,,,,,,,,,,,,,,,,,,,,,,,,,,,,,,,,,,,,,,,,,,,,,,,,,,,,,,,,,,,,,,,,,,,,,,,,,,,,174.12263524642486,140.62594057931778,93.17366090977397,169.66651686579507,104.4398820952513,159.9544583941258,4.0,4.1,-251,-257,0,20,261,-268,464.5881869792938,464.5882775783539,464.59212851524353,464.60325169563293,464.7514696121216,464.7514696121216,464.7514696121216,464.7514696121216,464.7514696121216,464.7514696121216,464.7514696121216,467.0202476978302,1,2.4090840816497803,None,,,,,,,,,,,,,,,,,,240,1,2025-03-13_14h50.02.396,comp,2024.2.4,54.8531013819521,2025-03-13 14h50.12.517999 -0400,
96,96,0,filler_random,None,None,None,None,None,None,None,None,None,None,1,2.214947462081909,None,,,,,0,0,0,0,0,96,96,164,467.0365538597107,,,,,,,,,,,,,,,,,,,,,,,,,,,,,,,,,,,,,,,,,,,,,,,,,,,,,,,,,,,,,,,,,,,,,,,,,,,,,,,,,,191.04428047418966,142.11365840298015,161.83493133668406,104.35963770296675,127.87282472949607,133.1475690965198,2.1,2.12,-219,-263,0,-278,215,289,467.0220739841461,467.0222373008728,467.0256063938141,467.0365538597107,467.1897978782654,467.1897978782654,467.1897978782654,467.1897978782654,467.1897978782654,467.1897978782654,467.1897978782654,469.25365138053894,1,2.214947462081909,None,,,,,,,,,,,,,,,,,,240,1,2025-03-13_14h50.02.396,comp,2024.2.4,54.8531013819521,2025-03-13 14h50.12.517999 -0400,
97,97,0,filler_square,None,None,None,None,None,None,None,None,None,None,3,2.829463481903076,None,,,,,0,0,0,0,0,97,97,202,469.270583152771,,,,,,,,,,,,,,,,,,,,,,,,,,,,,,,,,,,,,,,,,,,,,,,,,,,,,,,,,,,,,,,,,,,,,,,,,,,,,,,,,,70.09246381562158,90.78478893642912,99.23629844232387,74.984261829379,117.09991950416064,117.09991950416064,3.0,3.1,-179,260,0,-10,192,-265,469.2554976940155,469.25558042526245,469.2596592903137,469.270583152771,469.42237162590027,469.42237162590027,469.42237162590027,469.42237162590027,469.42237162590027,469.42237162590027,469.42237162590027,472.10567712783813,3,2.829463481903076,None,,,,,,,,,,,,,,,,,,240,1,2025-03-13_14h50.02.396,comp,2024.2.4,54.8531013819521,2025-03-13 14h50.12.517999 -0400,
98,98,0,critical,dhw,35.0,2.1,upper,127.0,127.0,200.0,125.0,125.0,200.0,3,1.5700006484985352,None,,,,,0,0,0,0,0,98,98,25,472.1216926574707,,,,,,,,,,,,,,,,,,,,,,,,,,,,,,,,,,,,,,,,,,,,,,,,,,,,,,,,,,,,,,,,,,,,,,,,,,,,,,,,,,127.0,127.0,200.0,125.0,125.0,200.0,2.1,2.12,-222,-279,0,-270,258,266,472.10735750198364,472.1074740886688,472.1108658313751,472.1216926574707,472.2708213329315,472.2708213329315,472.2708213329315,472.2708213329315,472.2708213329315,472.2708213329315,472.2708213329315,473.7055616378784,3,1.5700006484985352,None,,,,,,,,,,,,,,,,,,240,1,2025-03-13_14h50.02.396,comp,2024.2.4,54.8531013819521,2025-03-13 14h50.12.517999 -0400,
99,99,0,critical,whd,20.0,4.0,lower,57.0,133.0,133.0,57.0,78.0,78.0,3,2.737774133682251,None,,,,,0,0,0,0,0,99,99,94,473.7217175960541,,,,,,,,,,,,,,,,,,,,,,,,,,,,,,,,,,,,,,,,,,,,,,,,,,,,,,,,,,,,,,,,,,,,,,,,,,,,,,,,,,57.0,133.0,133.0,57.0,78.0,78.0,4.0,4.1,-191,-256,0,1,164,-255,473.70703768730164,473.70711612701416,473.71131348609924,473.7217175960541,473.87704825401306,473.87704825401306,473.87704825401306,473.87704825401306,473.87704825401306,473.87704825401306,473.87704825401306,476.4767150878906,3,2.737774133682251,None,,,,,,,,,,,,,,,,,,240,1,2025-03-13_14h50.02.396,comp,2024.2.4,54.8531013819521,2025-03-13 14h50.12.517999 -0400,
100,100,0,filler_square,None,None,None,None,None,None,None,None,None,None,1,1.1750760078430176,None,,,,,0,0,0,0,0,100,100,174,476.4923815727234,,,,,,,,,,,,,,,,,,,,,,,,,,,,,,,,,,,,,,,,,,,,,,,,,,,,,,,,,,,,,,,,,,,,,,,,,,,,,,,,,,153.06256890342826,153.06256890342826,71.86445278877929,90.85185439815486,57.45444432825342,94.64935742680032,2.2,2.22,-218,254,0,-261,189,-262,476.4786388874054,476.47872519493103,476.48195910453796,476.4923815727234,476.63923239707947,476.63923239707947,476.63923239707947,476.63923239707947,476.63923239707947,476.63923239707947,476.63923239707947,477.6816523075104,1,1.1750760078430176,None,,,,,,,,,,,,,,,,,,240,1,2025-03-13_14h50.02.396,comp,2024.2.4,54.8531013819521,2025-03-13 14h50.12.517999 -0400,
101,101,0,critical,wdh,35.0,1.0,upper,125.0,200.0,127.0,127.0,200.0,125.0,1,1.9127089977264404,None,,,,,0,0,0,0,0,101,101,73,477.6993510723114,,,,,,,,,,,,,,,,,,,,,,,,,,,,,,,,,,,,,,,,,,,,,,,,,,,,,,,,,,,,,,,,,,,,,,,,,,,,,,,,,,125.0,200.0,127.0,127.0,200.0,125.0,1.0,1.1,-740,274,-480,252,-258,281,477.6832182407379,477.6833007335663,477.6862554550171,477.6993510723114,477.8405990600586,477.8405990600586,477.8405990600586,477.8405990600586,477.8405990600586,477.8405990600586,477.8405990600586,479.62485909461975,1,1.9127089977264404,None,,,,,,,,,,,,,,,,,,240,1,2025-03-13_14h50.02.396,comp,2024.2.4,54.8531013819521,2025-03-13 14h50.12.517999 -0400,
102,102,0,critical,dwh,20.0,1.0,upper,141.0,141.0,125.0,200.0,200.0,125.0,2,1.667090892791748,None,,,,,0,0,0,0,0,102,102,67,479.64065861701965,,,,,,,,,,,,,,,,,,,,,,,,,,,,,,,,,,,,,,,,,,,,,,,,,,,,,,,,,,,,,,,,,,,,,,,,,,,,,,,,,,141.0,141.0,125.0,200.0,200.0,125.0,1.0,1.3,214,-262,480,-252,738,-274,479.62661838531494,479.6267249584198,479.63028025627136,479.64065861701965,479.7907552719116,479.7907552719116,479.7907552719116,479.7907552719116,479.7907552719116,479.7907552719116,479.7907552719116,481.32554483413696,2,1.667090892791748,None,,,,,,,,,,,,,,,,,,240,1,2025-03-13_14h50.02.396,comp,2024.2.4,54.8531013819521,2025-03-13 14h50.12.517999 -0400,
103,103,0,filler_random,None,None,None,None,None,None,None,None,None,None,2,2.5826990604400635,None,,,,,0,0,0,0,0,103,103,152,481.34183716773987,,,,,,,,,,,,,,,,,,,,,,,,,,,,,,,,,,,,,,,,,,,,,,,,,,,,,,,,,,,,,,,,,,,,,,,,,,,,,,,,,,131.75595062883906,187.47245782788525,160.36504566028682,166.71767731521203,96.34976417178866,109.15902348069915,3.0,3.1,-273,255,0,15,234,-254,481.3275134563446,481.3276267051697,481.3315496444702,481.34183716773987,481.4909372329712,481.4909372329712,481.4909372329712,481.4909372329712,481.4909372329712,481.4909372329712,481.4909372329712,483.9327144622803,2,2.5826990604400635,None,,,,,,,,,,,,,,,,,,240,1,2025-03-13_14h50.02.396,comp,2024.2.4,54.8531013819521,2025-03-13 14h50.12.517999 -0400,
104,104,0,critical,hwd,35.0,4.0,lower,133.0,57.0,57.0,133.0,70.0,70.0,1,3.8670365810394287,None,,,,,0,0,0,0,0,104,104,100,483.9524886608124,,,,,,,,,,,,,,,,,,,,,,,,,,,,,,,,,,,,,,,,,,,,,,,,,,,,,,,,,,,,,,,,,,,,,,,,,,,,,,,,,,133.0,57.0,57.0,133.0,70.0,70.0,4.0,4.2,-191,3,0,-284,198,-9,483.93447828292847,483.93461751937866,483.9381158351898,483.9524886608124,484.088613986969,484.088613986969,484.088613986969,484.088613986969,484.088613986969,484.088613986969,484.088613986969,487.8318154811859,1,3.8670365810394287,None,,,,,,,,,,,,,,,,,,240,1,2025-03-13_14h50.02.396,comp,2024.2.4,54.8531013819521,2025-03-13 14h50.12.517999 -0400,
105,105,0,filler_random,None,None,None,None,None,None,None,None,None,None,2,2.3778176307678223,None,,,,,0,0,0,0,0,105,105,151,487.8497664928436,,,,,,,,,,,,,,,,,,,,,,,,,,,,,,,,,,,,,,,,,,,,,,,,,,,,,,,,,,,,,,,,,,,,,,,,,,,,,,,,,,85.97879971888209,175.8841644825775,148.88287451010234,161.50430393321386,157.665916790967,78.4526066287329,2.2,2.21,-265,-268,0,253,216,272,487.8336751461029,487.83375334739685,487.8366799354553,487.8497664928436,487.9924602508545,487.9924602508545,487.9924602508545,487.9924602508545,487.9924602508545,487.9924602508545,487.9924602508545,490.24249148368835,2,2.3778176307678223,None,,,,,,,,,,,,,,,,,,240,1,2025-03-13_14h50.02.396,comp,2024.2.4,54.8531013819521,2025-03-13 14h50.12.517999 -0400,
106,106,0,critical,hwd,35.0,3.0,upper,200.0,125.0,125.0,200.0,127.0,127.0,2,1.8718812465667725,None,,,,,0,0,0,0,0,106,106,99,490.2599482536316,,,,,,,,,,,,,,,,,,,,,,,,,,,,,,,,,,,,,,,,,,,,,,,,,,,,,,,,,,,,,,,,,,,,,,,,,,,,,,,,,,200.0,125.0,125.0,200.0,127.0,127.0,3.0,3.2,-258,-285,0,-8,260,274,490.24399304389954,490.24407029151917,490.2473723888397,490.2599482536316,490.41324067115784,490.41324067115784,490.41324067115784,490.41324067115784,490.41324067115784,490.41324067115784,490.41324067115784,492.14331459999084,2,1.8718812465667725,None,,,,,,,,,,,,,,,,,,240,1,2025-03-13_14h50.02.396,comp,2024.2.4,54.8531013819521,2025-03-13 14h50.12.517999 -0400,
107,107,0,critical,dhw,20.0,4.0,upper,141.0,141.0,200.0,125.0,125.0,200.0,3,1.6285738945007324,None,,,,,0,0,0,0,0,107,107,59,492.16002655029297,,,,,,,,,,,,,,,,,,,,,,,,,,,,,,,,,,,,,,,,,,,,,,,,,,,,,,,,,,,,,,,,,,,,,,,,,,,,,,,,,,141.0,141.0,200.0,125.0,125.0,200.0,4.0,4.2,-229,1,0,-283,258,10,492.14475083351135,492.14482498168945,492.14811062812805,492.16002655029297,492.31426191329956,492.31426191329956,492.31426191329956,492.31426191329956,492.31426191329956,492.31426191329956,492.31426191329956,493.79555320739746,3,1.6285738945007324,None,,,,,,,,,,,,,,,,,,240,1,2025-03-13_14h50.02.396,comp,2024.2.4,54.8531013819521,2025-03-13 14h50.12.517999 -0400,
108,108,0,filler_square,None,None,None,None,None,None,None,None,None,None,2,1.4082951545715332,None,,,,,0,0,0,0,0,108,108,193,493.8121905326843,,,,,,,,,,,,,,,,,,,,,,,,,,,,,,,,,,,,,,,,,,,,,,,,,,,,,,,,,,,,,,,,,,,,,,,,,,,,,,,,,,59.215630131131476,122.6389960614008,157.20851485579996,157.20851485579996,116.05515506516552,140.59922005011686,2.2,2.22,-236,260,0,-269,245,-255,493.79736328125,493.79744362831116,493.8008713722229,493.8121905326843,493.96066427230835,493.96066427230835,493.96066427230835,493.96066427230835,493.96066427230835,493.96066427230835,493.96066427230835,495.231778383255,2,1.4082951545715332,None,,,,,,,,,,,,,,,,,,240,1,2025-03-13_14h50.02.396,comp,2024.2.4,54.8531013819521,2025-03-13 14h50.12.517999 -0400,
109,109,0,critical,hdw,20.0,2.1,lower,133.0,57.0,78.0,78.0,57.0,133.0,2,4.230988502502441,None,,,,,0,0,0,0,0,109,109,46,495.2528007030487,,,,,,,,,,,,,,,,,,,,,,,,,,,,,,,,,,,,,,,,,,,,,,,,,,,,,,,,,,,,,,,,,,,,,,,,,,,,,,,,,,133.0,57.0,78.0,78.0,57.0,133.0,2.1,2.12,-164,-261,0,-274,202,280,495.23331022262573,495.23344254493713,495.23702239990234,495.2528007030487,495.39510798454285,495.39510798454285,495.39510798454285,495.39510798454285,495.39510798454285,495.39510798454285,495.39510798454285,499.49839305877686,2,4.230988502502441,None,,,,,,,,,,,,,,,,,,240,1,2025-03-13_14h50.02.396,comp,2024.2.4,54.8531013819521,2025-03-13 14h50.12.517999 -0400,
110,110,0,critical,hwd,35.0,2.1,upper,200.0,125.0,125.0,200.0,127.0,127.0,2,2.521674633026123,None,,,,,0,0,0,0,0,110,110,17,499.513867855072,,,,,,,,,,,,,,,,,,,,,,,,,,,,,,,,,,,,,,,,,,,,,,,,,,,,,,,,,,,,,,,,,,,,,,,,,,,,,,,,,,200.0,125.0,125.0,200.0,127.0,127.0,2.1,2.12,-258,-273,0,-268,260,269,499.4999806880951,499.50006103515625,499.50318002700806,499.513867855072,499.66309452056885,499.66309452056885,499.66309452056885,499.66309452056885,499.66309452056885,499.66309452056885,499.66309452056885,502.0465519428253,2,2.521674633026123,None,,,,,,,,,,,,,,,,,,240,1,2025-03-13_14h50.02.396,comp,2024.2.4,54.8531013819521,2025-03-13 14h50.12.517999 -0400,
111,111,0,critical,hwd,35.0,2.1,lower,133.0,57.0,57.0,133.0,70.0,70.0,1,1.7250761985778809,None,,,,,0,0,0,0,0,111,111,16,502.06321835517883,,,,,,,,,,,,,,,,,,,,,,,,,,,,,,,,,,,,,,,,,,,,,,,,,,,,,,,,,,,,,,,,,,,,,,,,,,,,,,,,,,133.0,57.0,57.0,133.0,70.0,70.0,2.1,2.12,-191,-282,0,-282,198,261,502.04803013801575,502.04810976982117,502.0513310432434,502.06321835517883,502.2117416858673,502.2117416858673,502.2117416858673,502.2117416858673,502.2117416858673,502.2117416858673,502.2117416858673,503.7964141368866,1,1.7250761985778809,None,,,,,,,,,,,,,,,,,,240,1,2025-03-13_14h50.02.396,comp,2024.2.4,54.8531013819521,2025-03-13 14h50.12.517999 -0400,
112,112,0,filler_square,None,None,None,None,None,None,None,None,None,None,2,1.4054028987884521,None,,,,,0,0,0,0,0,112,112,200,503.81465673446655,,,,,,,,,,,,,,,,,,,,,,,,,,,,,,,,,,,,,,,,,,,,,,,,,,,,,,,,,,,,,,,,,,,,,,,,,,,,,,,,,,67.27955380115765,135.97453623160095,153.3002929961633,153.3002929961633,90.86773139773845,108.12459130414203,3.0,3.2,-241,-278,0,5,227,252,503.79820942878723,503.79829025268555,503.8014602661133,503.81465673446655,503.9665012359619,503.9665012359619,503.9665012359619,503.9665012359619,503.9665012359619,503.9665012359619,503.9665012359619,505.23167395591736,2,1.4054028987884521,None,,,,,,,,,,,,,,,,,,240,1,2025-03-13_14h50.02.396,comp,2024.2.4,54.8531013819521,2025-03-13 14h50.12.517999 -0400,
113,113,0,critical,dwh,35.0,1.0,upper,127.0,127.0,125.0,200.0,200.0,125.0,2,2.7312827110290527,None,,,,,0,0,0,0,0,113,113,61,505.2483353614807,,,,,,,,,,,,,,,,,,,,,,,,,,,,,,,,,,,,,,,,,,,,,,,,,,,,,,,,,,,,,,,,,,,,,,,,,,,,,,,,,,127.0,127.0,125.0,200.0,200.0,125.0,1.0,1.3,220,-281,480,-253,738,-278,505.2333242893219,505.23343658447266,505.2370026111603,505.2483353614807,505.39840602874756,505.39840602874756,505.39840602874756,505.39840602874756,505.39840602874756,505.39840602874756,505.39840602874756,507.98403429985046,2,2.7312827110290527,None,,,,,,,,,,,,,,,,,,240,1,2025-03-13_14h50.02.396,comp,2024.2.4,54.8531013819521,2025-03-13 14h50.12.517999 -0400,
114,114,0,critical,wdh,20.0,4.0,lower,57.0,133.0,78.0,78.0,133.0,57.0,2,2.92254638671875,None,,,,,0,0,0,0,0,114,114,82,508.00122332572937,,,,,,,,,,,,,,,,,,,,,,,,,,,,,,,,,,,,,,,,,,,,,,,,,,,,,,,,,,,,,,,,,,,,,,,,,,,,,,,,,,57.0,133.0,78.0,78.0,133.0,57.0,4.0,4.2,-202,-15,0,-272,164,16,507.98570489883423,507.98583912849426,507.98893570899963,508.00122332572937,508.15144085884094,508.15144085884094,508.15144085884094,508.15144085884094,508.15144085884094,508.15144085884094,508.15144085884094,510.9405791759491,2,2.92254638671875,None,,,,,,,,,,,,,,,,,,240,1,2025-03-13_14h50.02.396,comp,2024.2.4,54.8531013819521,2025-03-13 14h50.12.517999 -0400,
115,115,0,catch,None,None,None,None,None,None,None,None,None,None,3,1.239750862121582,None,,,,,0,0,0,0,0,115,115,128,510.95662569999695,,,,,,,,,,,,,,,,,,,,,,,,,,,,,,,,,,,,,,,,,,,,,,,,,,,,,,,,,,,,,,,,,,,,,,,,,,,,,,,,,,112,78,73,117,149,176,2.1,2.12,-194,-269,0,-273,242,279,510.942675113678,510.94275641441345,510.94602847099304,510.95662569999695,511.10018730163574,511.10018730163574,511.10018730163574,511.10018730163574,511.10018730163574,511.10018730163574,511.10018730163574,512.2007203102112,3,1.239750862121582,None,,,,,,,,,,,,,,,,,,240,1,2025-03-13_14h50.02.396,comp,2024.2.4,54.8531013819521,2025-03-13 14h50.12.517999 -0400,
116,116,0,filler_random,None,None,None,None,None,None,None,None,None,None,2,1.7535393238067627,None,,,,,0,0,0,0,0,116,116,149,512.2180755138397,,,,,,,,,,,,,,,,,,,,,,,,,,,,,,,,,,,,,,,,,,,,,,,,,,,,,,,,,,,,,,,,,,,,,,,,,,,,,,,,,,105.89321277883926,156.76224585214464,181.93278002949427,139.55601190830836,59.6435599833738,195.6544623024821,3.0,3.2,-244,-267,0,6,264,259,512.2026896476746,512.2028007507324,512.2065114974976,512.2180755138397,512.3731150627136,512.3731150627136,512.3731150627136,512.3731150627136,512.3731150627136,512.3731150627136,512.3731150627136,513.9823622703552,2,1.7535393238067627,None,,,,,,,,,,,,,,,,,,240,1,2025-03-13_14h50.02.396,comp,2024.2.4,54.8531013819521,2025-03-13 14h50.12.517999 -0400,
117,117,0,critical,dhw,35.0,2.1,upper,127.0,127.0,200.0,125.0,125.0,200.0,3,1.4845070838928223,None,,,,,0,0,0,0,0,117,117,1,513.9990239143372,,,,,,,,,,,,,,,,,,,,,,,,,,,,,,,,,,,,,,,,,,,,,,,,,,,,,,,,,,,,,,,,,,,,,,,,,,,,,,,,,,127.0,127.0,200.0,125.0,125.0,200.0,2.1,2.12,-222,-269,0,-260,258,268,513.9839472770691,513.9840271472931,513.9874439239502,513.9990239143372,514.1590664386749,514.1590664386749,514.1590664386749,514.1590664386749,514.1590664386749,514.1590664386749,514.1590664386749,515.4855999946594,3,1.4845070838928223,None,,,,,,,,,,,,,,,,,,240,1,2025-03-13_14h50.02.396,comp,2024.2.4,54.8531013819521,2025-03-13 14h50.12.517999 -0400,
118,118,0,filler_square,None,None,None,None,None,None,None,None,None,None,3,1.6219866275787354,None,,,,,0,0,0,0,0,118,118,206,515.5015814304352,,,,,,,,,,,,,,,,,,,,,,,,,,,,,,,,,,,,,,,,,,,,,,,,,,,,,,,,,,,,,,,,,,,,,,,,,,,,,,,,,,76.68387642681658,116.5793314113653,68.84719144304168,93.53059192433055,131.72236417953656,131.72236417953656,1.0,1.1,-681,269,-480,285,-271,251,515.4874074459076,515.4874894618988,515.4908821582794,515.5015814304352,515.6553072929382,515.6553072929382,515.6553072929382,515.6553072929382,515.6553072929382,515.6553072929382,515.6553072929382,517.1380641460419,3,1.6219866275787354,None,,,,,,,,,,,,,,,,,,240,1,2025-03-13_14h50.02.396,comp,2024.2.4,54.8531013819521,2025-03-13 14h50.12.517999 -0400,
119,119,0,critical,hdw,20.0,1.0,upper,200.0,125.0,141.0,141.0,125.0,200.0,3,4.626187801361084,None,,,,,0,0,0,0,0,119,119,115,517.1537992954254,,,,,,,,,,,,,,,,,,,,,,,,,,,,,,,,,,,,,,,,,,,,,,,,,,,,,,,,,,,,,,,,,,,,,,,,,,,,,,,,,,200.0,125.0,141.0,141.0,125.0,200.0,1.0,1.2,-229,2,0,15,266,2,517.1397004127502,517.1397829055786,517.1429286003113,517.1537992954254,517.302241563797,517.302241563797,517.302241563797,517.302241563797,517.302241563797,517.302241563797,517.302241563797,521.7888307571411,3,4.626187801361084,None,,,,,,,,,,,,,,,,,,240,1,2025-03-13_14h50.02.396,comp,2024.2.4,54.8531013819521,2025-03-13 14h50.12.517999 -0400,
120,120,0,critical,wdh,20.0,1.0,lower,57.0,133.0,78.0,78.0,133.0,57.0,1,3.646415948867798,None,,,,,0,0,0,0,0,120,120,78,521.8056130409241,,,,,,,,,,,,,,,,,,,,,,,,,,,,,,,,,,,,,,,,,,,,,,,,,,,,,,,,,,,,,,,,,,,,,,,,,,,,,,,,,,57.0,133.0,78.0,78.0,133.0,57.0,1.0,1.3,278,-283,480,-266,644,-252,521.7905352115631,521.790619134903,521.7939672470093,521.8056130409241,521.9572625160217,521.9572625160217,521.9572625160217,521.9572625160217,521.9572625160217,521.9572625160217,521.9572625160217,525.4540195465088,1,3.646415948867798,None,,,,,,,,,,,,,,,,,,240,1,2025-03-13_14h50.02.396,comp,2024.2.4,54.8531013819521,2025-03-13 14h50.12.517999 -0400,
121,121,0,critical,dwh,35.0,2.1,upper,127.0,127.0,125.0,200.0,200.0,125.0,2,3.4448904991149902,None,,,,,0,0,0,0,0,121,121,5,525.4711244106293,,,,,,,,,,,,,,,,,,,,,,,,,,,,,,,,,,,,,,,,,,,,,,,,,,,,,,,,,,,,,,,,,,,,,,,,,,,,,,,,,,127.0,127.0,125.0,200.0,200.0,125.0,2.1,2.11,-260,255,0,256,258,-284,525.4556596279144,525.4557383060455,525.4594149589539,525.4711244106293,525.6114466190338,525.6114466190338,525.6114466190338,525.6114466190338,525.6114466190338,525.6114466190338,525.6114466190338,528.9249234199524,2,3.4448904991149902,None,,,,,,,,,,,,,,,,,,240,1,2025-03-13_14h50.02.396,comp,2024.2.4,54.8531013819521,2025-03-13 14h50.12.517999 -0400,
122,122,0,critical,hwd,20.0,2.1,upper,200.0,125.0,125.0,200.0,141.0,141.0,2,3.420827865600586,None,,,,,0,0,0,0,0,122,122,19,528.9428973197937,,,,,,,,,,,,,,,,,,,,,,,,,,,,,,,,,,,,,,,,,,,,,,,,,,,,,,,,,,,,,,,,,,,,,,,,,,,,,,,,,,200.0,125.0,125.0,200.0,141.0,141.0,2.1,2.11,-258,256,0,267,266,-250,528.9265675544739,528.9266438484192,528.9298315048218,528.9428973197937,529.0902497768402,529.0902497768402,529.0902497768402,529.0902497768402,529.0902497768402,529.0902497768402,529.0902497768402,532.3806791305542,2,3.420827865600586,None,,,,,,,,,,,,,,,,,,240,1,2025-03-13_14h50.02.396,comp,2024.2.4,54.8531013819521,2025-03-13 14h50.12.517999 -0400,
123,123,0,filler_random,None,None,None,None,None,None,None,None,None,None,2,2.565194845199585,None,,,,,0,0,0,0,0,123,123,158,532.3980495929718,,,,,,,,,,,,,,,,,,,,,,,,,,,,,,,,,,,,,,,,,,,,,,,,,,,,,,,,,,,,,,,,,,,,,,,,,,,,,,,,,,81.44082237482903,149.47852676694154,165.71632326340531,194.71182776385373,148.25619415200225,179.61644912002015,1.0,1.3,212,-250,480,-260,763,-256,532.382331609726,532.382408618927,532.3853721618652,532.3980495929718,532.5403280258179,532.5403280258179,532.5403280258179,532.5403280258179,532.5403280258179,532.5403280258179,532.5403280258179,534.972814321518,2,2.565194845199585,None,,,,,,,,,,,,,,,,,,240,1,2025-03-13_14h50.02.396,comp,2024.2.4,54.8531013819521,2025-03-13 14h50.12.517999 -0400,
124,124,0,critical,wdh,20.0,2.1,lower,57.0,133.0,78.0,78.0,133.0,57.0,2,3.168456792831421,None,,,,,0,0,0,0,0,124,124,10,534.9879379272461,,,,,,,,,,,,,,,,,,,,,,,,,,,,,,,,,,,,,,,,,,,,,,,,,,,,,,,,,,,,,,,,,,,,,,,,,,,,,,,,,,57.0,133.0,78.0,78.0,133.0,57.0,2.1,2.12,-202,-284,0,-277,164,263,534.9735145568848,534.9735496044159,534.9748086929321,534.9879379272461,535.1384434700012,535.1384434700012,535.1384434700012,535.1384434700012,535.1384434700012,535.1384434700012,535.1384434700012,538.1588869094849,2,3.168456792831421,None,,,,,,,,,,,,,,,,,,240,1,2025-03-13_14h50.02.396,comp,2024.2.4,54.8531013819521,2025-03-13 14h50.12.517999 -0400,
125,125,0,filler_random,None,None,None,None,None,None,None,None,None,None,3,0.9724180698394775,None,,,,,0,0,0,0,0,125,125,133,538.1752445697784,,,,,,,,,,,,,,,,,,,,,,,,,,,,,,,,,,,,,,,,,,,,,,,,,,,,,,,,,,,,,,,,,,,,,,,,,,,,,,,,,,105.45537530014438,62.58072545487207,58.49247904753337,68.25996435857222,172.35456376042407,135.6539438125939,1.0,1.2,-161,-9,0,-12,198,-8,538.160754442215,538.1608774662018,538.1644184589386,538.1752445697784,538.322233915329,538.322233915329,538.322233915329,538.322233915329,538.322233915329,538.322233915329,538.322233915329,539.1587882041931,3,0.9724180698394775,None,,,,,,,,,,,,,,,,,,240,1,2025-03-13_14h50.02.396,comp,2024.2.4,54.8531013819521,2025-03-13 14h50.12.517999 -0400,
126,126,0,critical,dwh,35.0,4.0,upper,127.0,127.0,125.0,200.0,200.0,125.0,2,1.9421277046203613,None,,,,,0,0,0,0,0,126,126,65,539.1735491752625,,,,,,,,,,,,,,,,,,,,,,,,,,,,,,,,,,,,,,,,,,,,,,,,,,,,,,,,,,,,,,,,,,,,,,,,,,,,,,,,,,127.0,127.0,125.0,200.0,200.0,125.0,4.0,4.1,-260,-257,0,-6,258,-285,539.1599214076996,539.1599612236023,539.161584854126,539.1735491752625,539.3265542984009,539.3265542984009,539.3265542984009,539.3265542984009,539.3265542984009,539.3265542984009,539.3265542984009,541.1309130191803,2,1.9421277046203613,None,,,,,,,,,,,,,,,,,,240,1,2025-03-13_14h50.02.396,comp,2024.2.4,54.8531013819521,2025-03-13 14h50.12.517999 -0400,
127,127,0,filler_random,None,None,None,None,None,None,None,None,None,None,1,1.9613640308380127,None,,,,,0,0,0,0,0,127,127,146,541.1466999053955,,,,,,,,,,,,,,,,,,,,,,,,,,,,,,,,,,,,,,,,,,,,,,,,,,,,,,,,,,,,,,,,,,,,,,,,,,,,,,,,,,183.0481052027505,114.27422023911541,147.38068754705836,86.58260661744296,80.4705647741976,122.56465104225883,4.0,4.2,-196,-2,0,-263,201,1,541.1325616836548,541.1326420307159,541.1355843544006,541.1466999053955,541.2927870750427,541.2927870750427,541.2927870750427,541.2927870750427,541.2927870750427,541.2927870750427,541.2927870750427,543.1150126457214,1,1.9613640308380127,None,,,,,,,,,,,,,,,,,,240,1,2025-03-13_14h50.02.396,comp,2024.2.4,54.8531013819521,2025-03-13 14h50.12.517999 -0400,
128,128,0,filler_random,None,None,None,None,None,None,None,None,None,None,3,3.2951385974884033,None,,,,,0,0,0,0,0,128,128,135,543.1327719688416,,,,,,,,,,,,,,,,,,,,,,,,,,,,,,,,,,,,,,,,,,,,,,,,,,,,,,,,,,,,,,,,,,,,,,,,,,,,,,,,,,111.11359061546194,67.72492030995882,132.59770661141778,73.22042448921862,83.29964611172633,129.70226903254755,1.0,1.2,-166,-1,0,9,197,-18,543.1167116165161,543.1167829036713,543.1197488307953,543.1327719688416,543.2777659893036,543.2777659893036,543.2777659893036,543.2777659893036,543.2777659893036,543.2777659893036,543.2777659893036,546.4298822879791,3,3.2951385974884033,None,,,,,,,,,,,,,,,,,,240,1,2025-03-13_14h50.02.396,comp,2024.2.4,54.8531013819521,2025-03-13 14h50.12.517999 -0400,
129,129,0,filler_square,None,None,None,None,None,None,None,None,None,None,2,10.062169551849365,None,,,,,0,0,0,0,0,129,129,196,546.4463465213776,,,,,,,,,,,,,,,,,,,,,,,,,,,,,,,,,,,,,,,,,,,,,,,,,,,,,,,,,,,,,,,,,,,,,,,,,,,,,,,,,,62.54714331852789,58.07992559175565,65.25465480479907,65.25465480479907,57.371147105378235,59.39102066252872,2.1,2.11,-158,284,0,255,158,-265,546.432475566864,546.4326100349426,546.4356608390808,546.4463465213776,546.5945844650269,546.5945844650269,546.5945844650269,546.5945844650269,546.5945844650269,546.5945844650269,546.5945844650269,556.5147190093994,2,10.062169551849365,None,,,,,,,,,,,,,,,,,,240,1,2025-03-13_14h50.02.396,comp,2024.2.4,54.8531013819521,2025-03-13 14h50.12.517999 -0400,
130,130,0,filler_square,None,None,None,None,None,None,None,None,None,None,3,1.3370697498321533,None,,,,,0,0,0,0,0,130,130,191,556.5314962863922,,,,,,,,,,,,,,,,,,,,,,,,,,,,,,,,,,,,,,,,,,,,,,,,,,,,,,,,,,,,,,,,,,,,,,,,,,,,,,,,,,115.39093510287441,132.74077390120175,61.43253088341197,79.25232971019983,148.2027904374715,148.2027904374715,1.0,1.2,-202,20,0,-2,210,-15,556.5166914463043,556.5167751312256,556.520557641983,556.5314962863922,556.6798341274261,556.6798341274261,556.6798341274261,556.6798341274261,556.6798341274261,556.6798341274261,556.6798341274261,557.8711888790131,3,1.3370697498321533,None,,,,,,,,,,,,,,,,,,240,1,2025-03-13_14h50.02.396,comp,2024.2.4,54.8531013819521,2025-03-13 14h50.12.517999 -0400,
131,131,0,critical,whd,35.0,2.1,lower,57.0,133.0,133.0,57.0,70.0,70.0,3,1.7649521827697754,None,,,,,0,0,0,0,0,131,131,36,557.8867452144623,,,,,,,,,,,,,,,,,,,,,,,,,,,,,,,,,,,,,,,,,,,,,,,,,,,,,,,,,,,,,,,,,,,,,,,,,,,,,,,,,,57.0,133.0,133.0,57.0,70.0,70.0,2.1,2.12,-191,-267,0,-250,160,277,557.8726968765259,557.8727736473083,557.8757336139679,557.8867452144623,558.032185792923,558.032185792923,558.032185792923,558.032185792923,558.032185792923,558.032185792923,558.032185792923,559.6655580997467,3,1.7649521827697754,None,,,,,,,,,,,,,,,,,,240,1,2025-03-13_14h50.02.396,comp,2024.2.4,54.8531013819521,2025-03-13 14h50.12.517999 -0400,
132,132,0,filler_square,None,None,None,None,None,None,None,None,None,None,2,1.0757265090942383,None,,,,,0,0,0,0,0,132,132,184,559.6799099445343,,,,,,,,,,,,,,,,,,,,,,,,,,,,,,,,,,,,,,,,,,,,,,,,,,,,,,,,,,,,,,,,,,,,,,,,,,,,,,,,,,110.16988168474097,114.1892976053227,144.28501943530577,144.28501943530577,66.57551430850646,57.54057111310746,1.0,1.3,255,-251,480,-290,677,-270,559.6674501895905,559.6675291061401,559.6708397865295,559.6799099445343,559.830415725708,559.830415725708,559.830415725708,559.830415725708,559.830415725708,559.830415725708,559.830415725708,560.7680687904358,2,1.0757265090942383,None,,,,,,,,,,,,,,,,,,240,1,2025-03-13_14h50.02.396,comp,2024.2.4,54.8531013819521,2025-03-13 14h50.12.517999 -0400,
133,133,0,filler_square,None,None,None,None,None,None,None,None,None,None,1,1.088202953338623,None,,,,,0,0,0,0,0,133,133,189,560.7887146472931,,,,,,,,,,,,,,,,,,,,,,,,,,,,,,,,,,,,,,,,,,,,,,,,,,,,,,,,,,,,,,,,,,,,,,,,,,,,,,,,,,106.85195635526648,106.85195635526648,96.71486486835099,101.32240025844163,87.4896423357261,102.59017599648278,2.1,2.11,-200,254,0,265,198,-268,560.7700712680817,560.7701783180237,560.7731144428253,560.7887146472931,560.932088136673,560.932088136673,560.932088136673,560.932088136673,560.932088136673,560.932088136673,560.932088136673,561.8819494247437,1,1.088202953338623,None,,,,,,,,,,,,,,,,,,240,1,2025-03-13_14h50.02.396,comp,2024.2.4,54.8531013819521,2025-03-13 14h50.12.517999 -0400,
134,134,0,critical,whd,35.0,4.0,lower,57.0,133.0,133.0,57.0,70.0,70.0,2,1.897705078125,None,,,,,0,0,0,0,0,134,134,88,561.8988711833954,,,,,,,,,,,,,,,,,,,,,,,,,,,,,,,,,,,,,,,,,,,,,,,,,,,,,,,,,,,,,,,,,,,,,,,,,,,,,,,,,,57.0,133.0,133.0,57.0,70.0,70.0,4.0,4.1,-191,-255,0,-12,160,-254,561.883496761322,561.8835768699646,561.8866741657257,561.8988711833954,562.0499200820923,562.0499200820923,562.0499200820923,562.0499200820923,562.0499200820923,562.0499200820923,562.0499200820923,563.802214384079,2,1.897705078125,None,,,,,,,,,,,,,,,,,,240,1,2025-03-13_14h50.02.396,comp,2024.2.4,54.8531013819521,2025-03-13 14h50.12.517999 -0400,
135,135,0,critical,dhw,20.0,2.1,lower,78.0,78.0,133.0,57.0,57.0,133.0,3,1.9932284355163574,None,,,,,0,0,0,0,0,135,135,2,563.8184900283813,,,,,,,,,,,,,,,,,,,,,,,,,,,,,,,,,,,,,,,,,,,,,,,,,,,,,,,,,,,,,,,,,,,,,,,,,,,,,,,,,,78.0,78.0,133.0,57.0,57.0,133.0,2.1,2.12,-164,-260,0,-254,191,275,563.8037195205688,563.8038003444672,563.8068060874939,563.8184900283813,563.9662079811096,563.9662079811096,563.9662079811096,563.9662079811096,563.9662079811096,563.9662079811096,563.9662079811096,565.8276119232178,3,1.9932284355163574,None,,,,,,,,,,,,,,,,,,240,1,2025-03-13_14h50.02.396,comp,2024.2.4,54.8531013819521,2025-03-13 14h50.12.517999 -0400,
136,136,0,critical,whd,35.0,3.0,lower,57.0,133.0,133.0,57.0,70.0,70.0,1,3.3042144775390625,None,,,,,0,0,0,0,0,136,136,86,565.8441689014435,,,,,,,,,,,,,,,,,,,,,,,,,,,,,,,,,,,,,,,,,,,,,,,,,,,,,,,,,,,,,,,,,,,,,,,,,,,,,,,,,,57.0,133.0,133.0,57.0,70.0,70.0,3.0,3.2,-191,-252,0,-2,160,284,565.8292534351349,565.829329252243,565.8326189517975,565.8441689014435,565.983003616333,565.983003616333,565.983003616333,565.983003616333,565.983003616333,565.983003616333,565.983003616333,569.1521751880646,1,3.3042144775390625,None,,,,,,,,,,,,,,,,,,240,1,2025-03-13_14h50.02.396,comp,2024.2.4,54.8531013819521,2025-03-13 14h50.12.517999 -0400,
137,137,0,filler_square,None,None,None,None,None,None,None,None,None,None,2,1.2669687271118164,None,,,,,0,0,0,0,0,137,137,198,569.1689534187317,,,,,,,,,,,,,,,,,,,,,,,,,,,,,,,,,,,,,,,,,,,,,,,,,,,,,,,,,,,,,,,,,,,,,,,,,,,,,,,,,,80.50164147891896,63.12969046150218,89.80348509184739,89.80348509184739,58.29510636519144,67.67701963214401,2.2,2.22,-172,285,0,-289,175,-276,569.1539752483368,569.1540536880493,569.1580955982208,569.1689534187317,569.3185858726501,569.3185858726501,569.3185858726501,569.3185858726501,569.3185858726501,569.3185858726501,569.3185858726501,570.4538860321045,2,1.2669687271118164,None,,,,,,,,,,,,,,,,,,240,1,2025-03-13_14h50.02.396,comp,2024.2.4,54.8531013819521,2025-03-13 14h50.12.517999 -0400,
138,138,0,critical,hwd,20.0,3.0,upper,200.0,125.0,125.0,200.0,141.0,141.0,2,4.214322328567505,None,,,,,0,0,0,0,0,138,138,105,570.4699420928955,,,,,,,,,,,,,,,,,,,,,,,,,,,,,,,,,,,,,,,,,,,,,,,,,,,,,,,,,,,,,,,,,,,,,,,,,,,,,,,,,,200.0,125.0,125.0,200.0,141.0,141.0,3.0,3.2,-258,-287,0,15,266,282,570.4555230140686,570.4556198120117,570.4594542980194,570.4699420928955,570.6242201328278,570.6242201328278,570.6242201328278,570.6242201328278,570.6242201328278,570.6242201328278,570.6242201328278,574.6936731338501,2,4.214322328567505,None,,,,,,,,,,,,,,,,,,240,1,2025-03-13_14h50.02.396,comp,2024.2.4,54.8531013819521,2025-03-13 14h50.12.517999 -0400,
139,139,0,critical,dwh,35.0,1.0,lower,70.0,70.0,57.0,133.0,133.0,57.0,1,1.9218471050262451,None,,,,,0,0,0,0,0,139,139,60,574.7088520526886,,,,,,,,,,,,,,,,,,,,,,,,,,,,,,,,,,,,,,,,,,,,,,,,,,,,,,,,,,,,,,,,,,,,,,,,,,,,,,,,,,70.0,70.0,57.0,133.0,133.0,57.0,1.0,1.3,282,-279,480,-278,671,-270,574.6951377391815,574.695237159729,574.6980886459351,574.7088520526886,574.8526141643524,574.8526141643524,574.8526141643524,574.8526141643524,574.8526141643524,574.8526141643524,574.8526141643524,576.6344170570374,1,1.9218471050262451,None,,,,,,,,,,,,,,,,,,240,1,2025-03-13_14h50.02.396,comp,2024.2.4,54.8531013819521,2025-03-13 14h50.12.517999 -0400,
140,140,0,critical,dhw,20.0,2.1,lower,78.0,78.0,133.0,57.0,57.0,133.0,1,1.6162984371185303,None,,,,,0,0,0,0,0,140,140,26,576.6522114276886,,,,,,,,,,,,,,,,,,,,,,,,,,,,,,,,,,,,,,,,,,,,,,,,,,,,,,,,,,,,,,,,,,,,,,,,,,,,,,,,,,78.0,78.0,133.0,57.0,57.0,133.0,2.1,2.11,-164,286,0,285,191,-251,576.6359159946442,576.635995388031,576.6389598846436,576.6522114276886,576.7878034114838,576.7878034114838,576.7878034114838,576.7878034114838,576.7878034114838,576.7878034114838,576.7878034114838,578.2712435722351,1,1.6162984371185303,None,,,,,,,,,,,,,,,,,,240,1,2025-03-13_14h50.02.396,comp,2024.2.4,54.8531013819521,2025-03-13 14h50.12.517999 -0400,
