thisN,thisTrialN,thisRepN,effect,order,distance,config,diag,h_1,w_1,h_2,w_2,h_3,w_3,rect_choice.keys,rect_choice.rt,rect_choice.duration,instructions_loop.thisRepN,instructions_loop.thisTrialN,instructions_loop.thisN,instructions_loop.thisIndex,blocks.thisRepN,blocks.thisTrialN,blocks.thisN,blocks.thisIndex,trials.thisRepN,trials.thisTrialN,trials.thisN,trials.thisIndex,thisRow.t,notes,consent.started,agree_button.started,decline_button.started,consent_img.started,mouse.started,consent.stopped,agree_button.numClicks,agree_button.timesOn,agree_button.timesOff,decline_button.numClicks,decline_button.timesOn,decline_button.timesOff,mouse.x,mouse.y,mouse.leftButton,mouse.midButton,mouse.rightButton,mouse.time,mouse.clicked_name,exp_params.started,exp_params.stopped,welcome.started,welcome_text.started,welcome.stopped,instructions_1.started,instructions_1_text_1.started,instructions_1_text_2.started,key_resp.started,instructions_1.stopped,instructions_loop.key_resp.keys,instructions_loop.key_resp.rt,instructions_loop.key_resp.duration,instructions_2.started,instructions_2_text_1.started,instructions_2_text_2.started,key_resp_2.started,instructions_2.stopped,instructions_loop.key_resp_2.keys,instructions_loop.key_resp_2.rt,instructions_loop.key_resp_2.duration,instructions_3.started,instructions_3_text_1.started,r1_instr3.started,r2_instr3.started,r3_instr3.started,r1_instr3_label.started,r2_instr3_label.started,r3_instr3_label.started,instructions_3_text_3.started,instructions_3_text_4.started,key_resp_3.started,instructions_3.stopped,instructions_loop.key_resp_3.keys,instructions_loop.key_resp_3.rt,instructions_loop.key_resp_3.duration,instructions_4.started,instructions_4_text_1.started,instructions_4_text_3.started,instructions_4_text_2.started,key_resp_4.started,instructions_4.stopped,instructions_loop.key_resp_4.keys,instructions_loop.key_resp_4.rt,instructions_loop.key_resp_4.duration,instructions_5.started,instructions_5_text_1.started,instructions_5_text_2.started,key_resp_5.started,instructions_5.stopped,instructions_loop.key_resp_5.keys,instructions_loop.key_resp_5.rt,instructions_loop.key_resp_5.duration,start_exp.started,start_exp_text.started,key_resp_6.started,start_exp.stopped,key_resp_6.keys,key_resp_6.rt,key_resp_6.duration,h_1_tmp,w_1_tmp,h_2_tmp,w_2_tmp,h_3_tmp,w_3_tmp,config_tmp,config_tmp_1,r_1_x,r_1_y,r_2_x,r_2_y,r_3_x,r_3_y,pre_trial.started,pre_trial.stopped,choice_trial.started,rect_choice.started,r_1.started,r_2.started,r_3.started,r_1_label.started,r_2_label.started,r_3_label.started,prompt.started,choice_trial.stopped,trials.rect_choice.keys,trials.rect_choice.rt,trials.rect_choice.duration,end_block.started,end_block_text.started,end_block.stopped,end.started,end_text.started,key_resp_7.started,end.stopped,key_resp_7.keys,key_resp_7.rt,key_resp_7.duration,debriefing.started,debrief_form.started,end_debrief.started,debriefing.stopped,end_debrief.keys,end_debrief.rt,end_debrief.duration,participant,computer,date,expName,psychopyVersion,frameRate,expStart,
,,,,,,,,,,,,,,,,,,,,,,,,,,,,,,,0.015515565872192383,0.03239178657531738,0.03239178657531738,0.03239178657531738,0.015332221984863281,11.541934728622437,1,[11.507261514663696],[11.507290363311768],0,,,[-95.0],[-505.0],[1],[0],[0],[11.525905847549438],['agree_button'],,,,,,,,,,,,,,,,,,,,,,,,,,,,,,,,,,,,,,,,,,,,,,,,,,,,,,,,,,,,,,,,,,,,,,,,,,,,,,,,,,,,,,,,,,,,,,,,,,,,,,,,,,,241,1,2025-03-13_17h04.54.401,comp,2024.2.4,56.62981180120785,2025-03-13 17h05.30.751917 -0400,
,,,,,,,,,,,,,,,,,,,,,,,,,,,,,,,,,,,,,,,,,,,,,,,,,,11.542528629302979,11.542590379714966,,,,,,,,,,,,,,,,,,,,,,,,,,,,,,,,,,,,,,,,,,,,,,,,,,,,,,,,,,,,,,,,,,,,,,,,,,,,,,,,,,,,,,,,,,,,,,,,,,,,,,,,,241,1,2025-03-13_17h04.54.401,comp,2024.2.4,56.62981180120785,2025-03-13 17h05.30.751917 -0400,
,,,,,,,,,,,,,,,,,,,,,,,,,,,,,,,,,,,,,,,,,,,,,,,,,,,,11.542629480361938,11.56049919128418,13.548888444900513,,,,,,,,,,,,,,,,,,,,,,,,,,,,,,,,,,,,,,,,,,,,,,,,,,,,,,,,,,,,,,,,,,,,,,,,,,,,,,,,,,,,,,,,,,,,,,,,,,,,,,241,1,2025-03-13_17h04.54.401,comp,2024.2.4,56.62981180120785,2025-03-13 17h05.30.751917 -0400,
0,0,0,,,,,,,,,,,,,,,0,0,0,0,,,,,,,,,13.566502571105957,,,,,,,,,,,,,,,,,,,,,,,,,,13.549802303314209,13.566502571105957,13.566502571105957,15.051353693008423,17.339758157730103,space,2.2754223346710205,None,17.3399076461792,17.355600357055664,17.355600357055664,18.851613998413086,26.68875479698181,space,7.834446907043457,None,26.688905954360962,26.71763300895691,26.71763300895691,26.71763300895691,26.71763300895691,26.71763300895691,26.71763300895691,26.71763300895691,26.71763300895691,26.71763300895691,28.190622091293335,31.808937311172485,space,3.5994536876678467,None,31.809097051620483,31.827556371688843,31.827556371688843,31.827556371688843,33.3263623714447,41.49316930770874,space,8.151720762252808,None,41.49332094192505,41.50874733924866,41.50874733924866,42.99355745315552,44.71104097366333,space,1.7090933322906494,None,44.711235761642456,44.726723194122314,44.726723194122314,45.64513659477234,space,0.9033992290496826,None,,,,,,,,,,,,,,,,,,,,,,,,,,,,,,,,,,,,,,,,,,,,,,,241,1,2025-03-13_17h04.54.401,comp,2024.2.4,56.62981180120785,2025-03-13 17h05.30.751917 -0400,
0,0,0,critical,wdh,35.0,2.1,lower,57.0,133.0,70.0,70.0,133.0,57.0,1,6.54242205619812,None,,,,,0,0,0,0,0,0,0,8,45.7203586101532,,,,,,,,,,,,,,,,,,,,,,,,,,,,,,,,,,,,,,,,,,,,,,,,,,,,,,,,,,,,,,,,,,,,,,,,,,,,,,,,,57.0,133.0,70.0,70.0,133.0,57.0,2.1,2.12,-198,-265,0,-269,160,255,45.704692363739014,45.704724073410034,45.70583391189575,45.7203586101532,45.86599516868591,45.86599516868591,45.86599516868591,45.86599516868591,45.86599516868591,45.86599516868591,45.86599516868591,52.26569628715515,1,6.54242205619812,None,,,,,,,,,,,,,,,,,,241,1,2025-03-13_17h04.54.401,comp,2024.2.4,56.62981180120785,2025-03-13 17h05.30.751917 -0400,
1,1,0,filler_random,None,None,None,None,None,None,None,None,None,None,1,1.9976661205291748,None,,,,,0,0,0,0,0,1,1,130,52.28098273277283,,,,,,,,,,,,,,,,,,,,,,,,,,,,,,,,,,,,,,,,,,,,,,,,,,,,,,,,,,,,,,,,,,,,,,,,,,,,,,,,,142.0279525932553,158.90675156065652,81.91255979154128,85.25440032349711,94.56041530440572,194.21253507189851,1.0,1.3,262,-255,480,-287,716,-250,52.267459869384766,52.26756834983826,52.27031397819519,52.28098273277283,52.41826772689819,52.41826772689819,52.41826772689819,52.41826772689819,52.41826772689819,52.41826772689819,52.41826772689819,54.28124690055847,1,1.9976661205291748,None,,,,,,,,,,,,,,,,,,241,1,2025-03-13_17h04.54.401,comp,2024.2.4,56.62981180120785,2025-03-13 17h05.30.751917 -0400,
2,2,0,critical,hdw,35.0,2.1,upper,200.0,125.0,127.0,127.0,125.0,200.0,3,3.812410593032837,None,,,,,0,0,0,0,0,2,2,45,54.29815721511841,,,,,,,,,,,,,,,,,,,,,,,,,,,,,,,,,,,,,,,,,,,,,,,,,,,,,,,,,,,,,,,,,,,,,,,,,,,,,,,,,200.0,125.0,127.0,127.0,125.0,200.0,2.1,2.12,-222,-282,0,-266,260,254,54.28273940086365,54.28281211853027,54.286877155303955,54.29815721511841,54.44633197784424,54.44633197784424,54.44633197784424,54.44633197784424,54.44633197784424,54.44633197784424,54.44633197784424,58.11372900009155,3,3.812410593032837,None,,,,,,,,,,,,,,,,,,241,1,2025-03-13_17h04.54.401,comp,2024.2.4,56.62981180120785,2025-03-13 17h05.30.751917 -0400,
3,3,0,filler_random,None,None,None,None,None,None,None,None,None,None,1,3.6611478328704834,None,,,,,0,0,0,0,0,3,3,137,58.129501819610596,,,,,,,,,,,,,,,,,,,,,,,,,,,,,,,,,,,,,,,,,,,,,,,,,,,,,,,,,,,,,,,,,,,,,,,,,,,,,,,,,144.59565223351353,196.64331931557865,122.31761818848517,80.9681235325964,184.0282399496068,164.83150204928793,2.1,2.12,-235,-276,0,-256,219,260,58.11540341377258,58.11548328399658,58.1183648109436,58.129501819610596,58.278427600860596,58.278427600860596,58.278427600860596,58.278427600860596,58.278427600860596,58.278427600860596,58.278427600860596,61.80097842216492,1,3.6611478328704834,None,,,,,,,,,,,,,,,,,,241,1,2025-03-13_17h04.54.401,comp,2024.2.4,56.62981180120785,2025-03-13 17h05.30.751917 -0400,
4,4,0,critical,hdw,35.0,4.0,lower,133.0,57.0,70.0,70.0,57.0,133.0,3,6.259543418884277,None,,,,,0,0,0,0,0,4,4,112,61.819236516952515,,,,,,,,,,,,,,,,,,,,,,,,,,,,,,,,,,,,,,,,,,,,,,,,,,,,,,,,,,,,,,,,,,,,,,,,,,,,,,,,,133.0,57.0,70.0,70.0,57.0,133.0,4.0,4.2,-160,12,0,-277,198,-11,61.802568197250366,61.802666664123535,61.806100606918335,61.819236516952515,61.96954011917114,61.96954011917114,61.96954011917114,61.96954011917114,61.96954011917114,61.96954011917114,61.96954011917114,68.08409547805786,3,6.259543418884277,None,,,,,,,,,,,,,,,,,,241,1,2025-03-13_17h04.54.401,comp,2024.2.4,56.62981180120785,2025-03-13 17h05.30.751917 -0400,
5,5,0,critical,wdh,20.0,2.1,lower,57.0,133.0,78.0,78.0,133.0,57.0,1,4.113896131515503,None,,,,,0,0,0,0,0,5,5,34,68.10083532333374,,,,,,,,,,,,,,,,,,,,,,,,,,,,,,,,,,,,,,,,,,,,,,,,,,,,,,,,,,,,,,,,,,,,,,,,,,,,,,,,,57.0,133.0,78.0,78.0,133.0,57.0,2.1,2.12,-202,-265,0,-258,164,284,68.08568692207336,68.08576273918152,68.08901906013489,68.10083532333374,68.25227165222168,68.25227165222168,68.25227165222168,68.25227165222168,68.25227165222168,68.25227165222168,68.25227165222168,72.22002959251404,1,4.113896131515503,None,,,,,,,,,,,,,,,,,,241,1,2025-03-13_17h04.54.401,comp,2024.2.4,56.62981180120785,2025-03-13 17h05.30.751917 -0400,
6,6,0,critical,whd,20.0,4.0,lower,57.0,133.0,133.0,57.0,78.0,78.0,2,4.994189262390137,None,,,,,0,0,0,0,0,6,6,94,72.23583769798279,,,,,,,,,,,,,,,,,,,,,,,,,,,,,,,,,,,,,,,,,,,,,,,,,,,,,,,,,,,,,,,,,,,,,,,,,,,,,,,,,57.0,133.0,133.0,57.0,78.0,78.0,4.0,4.2,-191,4,0,-259,164,-6,72.22159838676453,72.22167825698853,72.22500157356262,72.23583769798279,72.38436841964722,72.38436841964722,72.38436841964722,72.38436841964722,72.38436841964722,72.38436841964722,72.38436841964722,77.23944544792175,2,4.994189262390137,None,,,,,,,,,,,,,,,,,,241,1,2025-03-13_17h04.54.401,comp,2024.2.4,56.62981180120785,2025-03-13 17h05.30.751917 -0400,
7,7,0,critical,wdh,20.0,4.0,lower,57.0,133.0,78.0,78.0,133.0,57.0,3,3.783860206604004,None,,,,,0,0,0,0,0,7,7,82,77.25502181053162,,,,,,,,,,,,,,,,,,,,,,,,,,,,,,,,,,,,,,,,,,,,,,,,,,,,,,,,,,,,,,,,,,,,,,,,,,,,,,,,,57.0,133.0,78.0,78.0,133.0,57.0,4.0,4.1,-202,-268,0,-2,164,-280,77.24096918106079,77.24104738235474,77.24423623085022,77.25502181053162,77.40520095825195,77.40520095825195,77.40520095825195,77.40520095825195,77.40520095825195,77.40520095825195,77.40520095825195,81.0435643196106,3,3.783860206604004,None,,,,,,,,,,,,,,,,,,241,1,2025-03-13_17h04.54.401,comp,2024.2.4,56.62981180120785,2025-03-13 17h05.30.751917 -0400,
8,8,0,critical,hwd,20.0,3.0,lower,133.0,57.0,57.0,133.0,78.0,78.0,1,3.633842945098877,None,,,,,0,0,0,0,0,8,8,104,81.06027960777283,,,,,,,,,,,,,,,,,,,,,,,,,,,,,,,,,,,,,,,,,,,,,,,,,,,,,,,,,,,,,,,,,,,,,,,,,,,,,,,,,133.0,57.0,57.0,133.0,78.0,78.0,3.0,3.2,-191,-271,0,-7,202,261,81.04513835906982,81.04521703720093,81.04809880256653,81.06027960777283,81.20536303520203,81.20536303520203,81.20536303520203,81.20536303520203,81.20536303520203,81.20536303520203,81.20536303520203,84.70861268043518,1,3.633842945098877,None,,,,,,,,,,,,,,,,,,241,1,2025-03-13_17h04.54.401,comp,2024.2.4,56.62981180120785,2025-03-13 17h05.30.751917 -0400,
9,9,0,critical,dhw,20.0,2.1,lower,78.0,78.0,133.0,57.0,57.0,133.0,2,1.5694446563720703,None,,,,,0,0,0,0,0,9,9,2,84.7246584892273,,,,,,,,,,,,,,,,,,,,,,,,,,,,,,,,,,,,,,,,,,,,,,,,,,,,,,,,,,,,,,,,,,,,,,,,,,,,,,,,,78.0,78.0,133.0,57.0,57.0,133.0,2.1,2.11,-164,265,0,279,191,-258,84.7103168964386,84.71045064926147,84.71421694755554,84.7246584892273,84.88295221328735,84.88295221328735,84.88295221328735,84.88295221328735,84.88295221328735,84.88295221328735,84.88295221328735,86.30702018737793,2,1.5694446563720703,None,,,,,,,,,,,,,,,,,,241,1,2025-03-13_17h04.54.401,comp,2024.2.4,56.62981180120785,2025-03-13 17h05.30.751917 -0400,
10,10,0,critical,wdh,20.0,2.1,lower,57.0,133.0,78.0,78.0,133.0,57.0,3,1.7679390907287598,None,,,,,0,0,0,0,0,10,10,10,86.32616662979126,,,,,,,,,,,,,,,,,,,,,,,,,,,,,,,,,,,,,,,,,,,,,,,,,,,,,,,,,,,,,,,,,,,,,,,,,,,,,,,,,57.0,133.0,78.0,78.0,133.0,57.0,2.1,2.12,-202,-287,0,-268,164,272,86.30848956108093,86.30856585502625,86.31169486045837,86.32616662979126,86.4738416671753,86.4738416671753,86.4738416671753,86.4738416671753,86.4738416671753,86.4738416671753,86.4738416671753,88.10961818695068,3,1.7679390907287598,None,,,,,,,,,,,,,,,,,,241,1,2025-03-13_17h04.54.401,comp,2024.2.4,56.62981180120785,2025-03-13 17h05.30.751917 -0400,
11,11,0,critical,hwd,20.0,2.1,upper,200.0,125.0,125.0,200.0,141.0,141.0,1,2.041853666305542,None,,,,,0,0,0,0,0,11,11,19,88.12541270256042,,,,,,,,,,,,,,,,,,,,,,,,,,,,,,,,,,,,,,,,,,,,,,,,,,,,,,,,,,,,,,,,,,,,,,,,,,,,,,,,,200.0,125.0,125.0,200.0,141.0,141.0,2.1,2.12,-258,-276,0,-255,266,269,88.11128211021423,88.11144065856934,88.11505126953125,88.12541270256042,88.27536225318909,88.27536225318909,88.27536225318909,88.27536225318909,88.27536225318909,88.27536225318909,88.27536225318909,90.17984914779663,1,2.041853666305542,None,,,,,,,,,,,,,,,,,,241,1,2025-03-13_17h04.54.401,comp,2024.2.4,56.62981180120785,2025-03-13 17h05.30.751917 -0400,
12,12,0,catch,None,None,None,None,None,None,None,None,None,None,2,1.2978172302246094,None,,,,,0,0,0,0,0,12,12,127,90.19625568389893,,,,,,,,,,,,,,,,,,,,,,,,,,,,,,,,,,,,,,,,,,,,,,,,,,,,,,,,,,,,,,,,,,,,,,,,,,,,,,,,,101,89,193,132,84,106,4.0,4.2,-206,-14,0,-260,215,9,90.18171501159668,90.18179821968079,90.18553042411804,90.19625568389893,90.3448417186737,90.3448417186737,90.3448417186737,90.3448417186737,90.3448417186737,90.3448417186737,90.3448417186737,91.50845336914062,2,1.2978172302246094,None,,,,,,,,,,,,,,,,,,241,1,2025-03-13_17h04.54.401,comp,2024.2.4,56.62981180120785,2025-03-13 17h05.30.751917 -0400,
13,13,0,critical,hwd,20.0,3.0,upper,200.0,125.0,125.0,200.0,141.0,141.0,2,3.546734571456909,None,,,,,0,0,0,0,0,13,13,105,91.52403020858765,,,,,,,,,,,,,,,,,,,,,,,,,,,,,,,,,,,,,,,,,,,,,,,,,,,,,,,,,,,,,,,,,,,,,,,,,,,,,,,,,200.0,125.0,125.0,200.0,141.0,141.0,3.0,3.2,-258,-255,0,16,266,265,91.51000332832336,91.51007962226868,91.51316452026367,91.52403020858765,91.68308568000793,91.68308568000793,91.68308568000793,91.68308568000793,91.68308568000793,91.68308568000793,91.68308568000793,95.0771872997284,2,3.546734571456909,None,,,,,,,,,,,,,,,,,,241,1,2025-03-13_17h04.54.401,comp,2024.2.4,56.62981180120785,2025-03-13 17h05.30.751917 -0400,
14,14,0,critical,hwd,35.0,2.1,lower,133.0,57.0,57.0,133.0,70.0,70.0,1,5.232063293457031,None,,,,,0,0,0,0,0,14,14,16,95.09404230117798,,,,,,,,,,,,,,,,,,,,,,,,,,,,,,,,,,,,,,,,,,,,,,,,,,,,,,,,,,,,,,,,,,,,,,,,,,,,,,,,,133.0,57.0,57.0,133.0,70.0,70.0,2.1,2.12,-191,-267,0,-285,198,262,95.07879567146301,95.07887125015259,95.08235287666321,95.09404230117798,95.24963974952698,95.24963974952698,95.24963974952698,95.24963974952698,95.24963974952698,95.24963974952698,95.24963974952698,100.32974696159363,1,5.232063293457031,None,,,,,,,,,,,,,,,,,,241,1,2025-03-13_17h04.54.401,comp,2024.2.4,56.62981180120785,2025-03-13 17h05.30.751917 -0400,
15,15,0,critical,hwd,20.0,1.0,lower,133.0,57.0,57.0,133.0,78.0,78.0,2,2.9233450889587402,None,,,,,0,0,0,0,0,15,15,102,100.34674263000488,,,,,,,,,,,,,,,,,,,,,,,,,,,,,,,,,,,,,,,,,,,,,,,,,,,,,,,,,,,,,,,,,,,,,,,,,,,,,,,,,133.0,57.0,57.0,133.0,78.0,78.0,1.0,1.1,-671,282,-480,269,-278,286,100.33131527900696,100.3314278125763,100.334876537323,100.34674263000488,100.49552965164185,100.49552965164185,100.49552965164185,100.49552965164185,100.49552965164185,100.49552965164185,100.49552965164185,103.2853410243988,2,2.9233450889587402,None,,,,,,,,,,,,,,,,,,241,1,2025-03-13_17h04.54.401,comp,2024.2.4,56.62981180120785,2025-03-13 17h05.30.751917 -0400,
16,16,0,critical,wdh,20.0,2.1,upper,125.0,200.0,141.0,141.0,200.0,125.0,3,2.305894613265991,None,,,,,0,0,0,0,0,16,16,35,103.30015110969543,,,,,,,,,,,,,,,,,,,,,,,,,,,,,,,,,,,,,,,,,,,,,,,,,,,,,,,,,,,,,,,,,,,,,,,,,,,,,,,,,125.0,200.0,141.0,141.0,200.0,125.0,2.1,2.12,-266,-261,0,-280,229,260,103.28683662414551,103.2869131565094,103.28977656364441,103.30015110969543,103.44671106338501,103.44671106338501,103.44671106338501,103.44671106338501,103.44671106338501,103.44671106338501,103.44671106338501,105.61756610870361,3,2.305894613265991,None,,,,,,,,,,,,,,,,,,241,1,2025-03-13_17h04.54.401,comp,2024.2.4,56.62981180120785,2025-03-13 17h05.30.751917 -0400,
17,17,0,filler_random,None,None,None,None,None,None,None,None,None,None,3,2.2504515647888184,None,,,,,0,0,0,0,0,17,17,151,105.63561272621155,,,,,,,,,,,,,,,,,,,,,,,,,,,,,,,,,,,,,,,,,,,,,,,,,,,,,,,,,,,,,,,,,,,,,,,,,,,,,,,,,84.0857320324272,193.1106329280561,96.06433966432867,181.66062271001897,153.24767473130285,140.73955023481938,2.2,2.22,-283,258,0,-287,257,-265,105.61944007873535,105.61951971054077,105.62243485450745,105.63561272621155,105.78098511695862,105.78098511695862,105.78098511695862,105.78098511695862,105.78098511695862,105.78098511695862,105.78098511695862,107.90371799468994,3,2.2504515647888184,None,,,,,,,,,,,,,,,,,,241,1,2025-03-13_17h04.54.401,comp,2024.2.4,56.62981180120785,2025-03-13 17h05.30.751917 -0400,
18,18,0,filler_square,None,None,None,None,None,None,None,None,None,None,1,1.7944495677947998,None,,,,,0,0,0,0,0,18,18,189,107.92370176315308,,,,,,,,,,,,,,,,,,,,,,,,,,,,,,,,,,,,,,,,,,,,,,,,,,,,,,,,,,,,,,,,,,,,,,,,,,,,,,,,,144.7038305924348,144.7038305924348,70.71819353834042,135.0114090222194,133.73135642612414,71.57417378427928,1.0,1.2,-236,-5,0,-1,199,-12,107.90537238121033,107.90548133850098,107.9083297252655,107.92370176315308,108.06423425674438,108.06423425674438,108.06423425674438,108.06423425674438,108.06423425674438,108.06423425674438,108.06423425674438,109.72878766059875,1,1.7944495677947998,None,,,,,,,,,,,,,,,,,,241,1,2025-03-13_17h04.54.401,comp,2024.2.4,56.62981180120785,2025-03-13 17h05.30.751917 -0400,
19,19,0,filler_random,None,None,None,None,None,None,None,None,None,None,2,2.1259944438934326,None,,,,,0,0,0,0,0,19,19,158,109.74573969841003,,,,,,,,,,,,,,,,,,,,,,,,,,,,,,,,,,,,,,,,,,,,,,,,,,,,,,,,,,,,,,,,,,,,,,,,,,,,,,,,,139.13433119070567,75.15551213729132,150.33865709558233,89.15102481936796,109.91798615152906,66.21972345386715,1.0,1.1,-658,274,-480,276,-306,272,109.73044013977051,109.73051643371582,109.7333664894104,109.74573969841003,109.88479542732239,109.88479542732239,109.88479542732239,109.88479542732239,109.88479542732239,109.88479542732239,109.88479542732239,111.88260102272034,2,2.1259944438934326,None,,,,,,,,,,,,,,,,,,241,1,2025-03-13_17h04.54.401,comp,2024.2.4,56.62981180120785,2025-03-13 17h05.30.751917 -0400,
20,20,0,filler_square,None,None,None,None,None,None,None,None,None,None,3,2.9466676712036133,None,,,,,0,0,0,0,0,20,20,196,111.89937663078308,,,,,,,,,,,,,,,,,,,,,,,,,,,,,,,,,,,,,,,,,,,,,,,,,,,,,,,,,,,,,,,,,,,,,,,,,,,,,,,,,71.14821323532549,71.14821323532549,63.95741027086061,65.94047899004488,60.39163832869845,70.07651234939604,4.0,4.2,-165,9,0,-250,164,12,111.88452386856079,111.8846492767334,111.88841819763184,111.89937663078308,112.04680514335632,112.04680514335632,112.04680514335632,112.04680514335632,112.04680514335632,112.04680514335632,112.04680514335632,114.8500006198883,3,2.9466676712036133,None,,,,,,,,,,,,,,,,,,241,1,2025-03-13_17h04.54.401,comp,2024.2.4,56.62981180120785,2025-03-13 17h05.30.751917 -0400,
21,21,0,critical,dhw,20.0,1.0,upper,141.0,141.0,200.0,125.0,125.0,200.0,3,4.061310529708862,None,,,,,0,0,0,0,0,21,21,55,114.86557340621948,,,,,,,,,,,,,,,,,,,,,,,,,,,,,,,,,,,,,,,,,,,,,,,,,,,,,,,,,,,,,,,,,,,,,,,,,,,,,,,,,141.0,141.0,200.0,125.0,125.0,200.0,1.0,1.1,-709,285,-480,283,-222,273,114.8515112400055,114.85160636901855,114.85479187965393,114.86557340621948,115.01446008682251,115.01446008682251,115.01446008682251,115.01446008682251,115.01446008682251,115.01446008682251,115.01446008682251,118.93470549583435,3,4.061310529708862,None,,,,,,,,,,,,,,,,,,241,1,2025-03-13_17h04.54.401,comp,2024.2.4,56.62981180120785,2025-03-13 17h05.30.751917 -0400,
22,22,0,filler_random,None,None,None,None,None,None,None,None,None,None,1,1.639801263809204,None,,,,,0,0,0,0,0,22,22,160,118.95163321495056,,,,,,,,,,,,,,,,,,,,,,,,,,,,,,,,,,,,,,,,,,,,,,,,,,,,,,,,,,,,,,,,,,,,,,,,,,,,,,,,,191.32841318154428,157.24245808846786,116.84731342521532,124.54231600338022,133.60589764873325,68.3289330738043,3.0,3.2,-237,-283,0,-16,192,272,118.93648290634155,118.93656015396118,118.94058156013489,118.95163321495056,119.10763502120972,119.10763502120972,119.10763502120972,119.10763502120972,119.10763502120972,119.10763502120972,119.10763502120972,120.60291314125061,1,1.639801263809204,None,,,,,,,,,,,,,,,,,,241,1,2025-03-13_17h04.54.401,comp,2024.2.4,56.62981180120785,2025-03-13 17h05.30.751917 -0400,
23,23,0,critical,wdh,20.0,2.1,upper,125.0,200.0,141.0,141.0,200.0,125.0,1,4.04323935508728,None,,,,,0,0,0,0,0,23,23,11,120.6194396018982,,,,,,,,,,,,,,,,,,,,,,,,,,,,,,,,,,,,,,,,,,,,,,,,,,,,,,,,,,,,,,,,,,,,,,,,,,,,,,,,,125.0,200.0,141.0,141.0,200.0,125.0,2.1,2.12,-266,-252,0,-286,229,263,120.6043381690979,120.60445976257324,120.60847091674805,120.6194396018982,120.77153754234314,120.77153754234314,120.77153754234314,120.77153754234314,120.77153754234314,120.77153754234314,120.77153754234314,124.67062139511108,1,4.04323935508728,None,,,,,,,,,,,,,,,,,,241,1,2025-03-13_17h04.54.401,comp,2024.2.4,56.62981180120785,2025-03-13 17h05.30.751917 -0400,
24,24,0,critical,hdw,35.0,3.0,lower,133.0,57.0,70.0,70.0,57.0,133.0,1,2.28828501701355,None,,,,,0,0,0,0,0,24,24,110,124.68700647354126,,,,,,,,,,,,,,,,,,,,,,,,,,,,,,,,,,,,,,,,,,,,,,,,,,,,,,,,,,,,,,,,,,,,,,,,,,,,,,,,,133.0,57.0,70.0,70.0,57.0,133.0,3.0,3.1,-160,261,0,-11,198,-254,124.67207598686218,124.67215704917908,124.67615342140198,124.68700647354126,124.83919525146484,124.83919525146484,124.83919525146484,124.83919525146484,124.83919525146484,124.83919525146484,124.83919525146484,126.98893308639526,1,2.28828501701355,None,,,,,,,,,,,,,,,,,,241,1,2025-03-13_17h04.54.401,comp,2024.2.4,56.62981180120785,2025-03-13 17h05.30.751917 -0400,
25,25,0,filler_square,None,None,None,None,None,None,None,None,None,None,3,1.5691890716552734,None,,,,,0,0,0,0,0,25,25,171,127.00495600700378,,,,,,,,,,,,,,,,,,,,,,,,,,,,,,,,,,,,,,,,,,,,,,,,,,,,,,,,,,,,,,,,,,,,,,,,,,,,,,,,,166.75909282391348,57.02473544711736,87.71238029123353,58.27011387738279,179.10452972709487,179.10452972709487,3.0,3.2,-154,-280,0,12,215,266,126.99117422103882,126.9912531375885,126.99449801445007,127.00495600700378,127.15323400497437,127.15323400497437,127.15323400497437,127.15323400497437,127.15323400497437,127.15323400497437,127.15323400497437,128.5876784324646,3,1.5691890716552734,None,,,,,,,,,,,,,,,,,,241,1,2025-03-13_17h04.54.401,comp,2024.2.4,56.62981180120785,2025-03-13 17h05.30.751917 -0400,
26,26,0,filler_random,None,None,None,None,None,None,None,None,None,None,2,1.163137674331665,None,,,,,0,0,0,0,0,26,26,154,128.60349678993225,,,,,,,,,,,,,,,,,,,,,,,,,,,,,,,,,,,,,,,,,,,,,,,,,,,,,,,,,,,,,,,,,,,,,,,,,,,,,,,,,90.25379597451948,99.10012508487745,156.0362430304131,118.50420039654634,65.03171795303396,81.27013820991131,2.1,2.12,-205,-262,0,-275,196,269,128.58946537971497,128.5895802974701,128.5930676460266,128.60349678993225,128.76195740699768,128.76195740699768,128.76195740699768,128.76195740699768,128.76195740699768,128.76195740699768,128.76195740699768,129.7717182636261,2,1.163137674331665,None,,,,,,,,,,,,,,,,,,241,1,2025-03-13_17h04.54.401,comp,2024.2.4,56.62981180120785,2025-03-13 17h05.30.751917 -0400,
27,27,0,critical,dwh,20.0,1.0,upper,141.0,141.0,125.0,200.0,200.0,125.0,3,1.4498708248138428,None,,,,,0,0,0,0,0,27,27,67,129.78817200660706,,,,,,,,,,,,,,,,,,,,,,,,,,,,,,,,,,,,,,,,,,,,,,,,,,,,,,,,,,,,,,,,,,,,,,,,,,,,,,,,,141.0,141.0,125.0,200.0,200.0,125.0,1.0,1.1,-746,287,-480,267,-222,266,129.7732377052307,129.77331590652466,129.77731370925903,129.78817200660706,129.93774819374084,129.93774819374084,129.93774819374084,129.93774819374084,129.93774819374084,129.93774819374084,129.93774819374084,131.2552285194397,3,1.4498708248138428,None,,,,,,,,,,,,,,,,,,241,1,2025-03-13_17h04.54.401,comp,2024.2.4,56.62981180120785,2025-03-13 17h05.30.751917 -0400,
28,28,0,critical,wdh,35.0,2.1,upper,125.0,200.0,127.0,127.0,200.0,125.0,3,1.5434350967407227,None,,,,,0,0,0,0,0,28,28,9,131.27077841758728,,,,,,,,,,,,,,,,,,,,,,,,,,,,,,,,,,,,,,,,,,,,,,,,,,,,,,,,,,,,,,,,,,,,,,,,,,,,,,,,,125.0,200.0,127.0,127.0,200.0,125.0,2.1,2.12,-260,-279,0,-288,222,259,131.2568438053131,131.25692081451416,131.26030588150024,131.27077841758728,131.4083046913147,131.4083046913147,131.4083046913147,131.4083046913147,131.4083046913147,131.4083046913147,131.4083046913147,132.8232753276825,3,1.5434350967407227,None,,,,,,,,,,,,,,,,,,241,1,2025-03-13_17h04.54.401,comp,2024.2.4,56.62981180120785,2025-03-13 17h05.30.751917 -0400,
29,29,0,critical,whd,20.0,3.0,lower,57.0,133.0,133.0,57.0,78.0,78.0,2,1.1187145709991455,None,,,,,0,0,0,0,0,29,29,92,132.8394434452057,,,,,,,,,,,,,,,,,,,,,,,,,,,,,,,,,,,,,,,,,,,,,,,,,,,,,,,,,,,,,,,,,,,,,,,,,,,,,,,,,57.0,133.0,133.0,57.0,78.0,78.0,3.0,3.1,-191,269,0,-4,164,-275,132.8248734474182,132.82495045661926,132.8282015323639,132.8394434452057,132.99257111549377,132.99257111549377,132.99257111549377,132.99257111549377,132.99257111549377,132.99257111549377,132.99257111549377,133.9750804901123,2,1.1187145709991455,None,,,,,,,,,,,,,,,,,,241,1,2025-03-13_17h04.54.401,comp,2024.2.4,56.62981180120785,2025-03-13 17h05.30.751917 -0400,
30,30,0,critical,hwd,20.0,2.1,upper,200.0,125.0,125.0,200.0,141.0,141.0,1,1.7785694599151611,None,,,,,0,0,0,0,0,30,30,43,133.9955313205719,,,,,,,,,,,,,,,,,,,,,,,,,,,,,,,,,,,,,,,,,,,,,,,,,,,,,,,,,,,,,,,,,,,,,,,,,,,,,,,,,200.0,125.0,125.0,200.0,141.0,141.0,2.1,2.12,-258,-263,0,-277,266,267,133.97664332389832,133.97677063941956,133.9801046848297,133.9955313205719,134.13936257362366,134.13936257362366,134.13936257362366,134.13936257362366,134.13936257362366,134.13936257362366,134.13936257362366,135.78913712501526,1,1.7785694599151611,None,,,,,,,,,,,,,,,,,,241,1,2025-03-13_17h04.54.401,comp,2024.2.4,56.62981180120785,2025-03-13 17h05.30.751917 -0400,
31,31,0,critical,hwd,20.0,4.0,lower,133.0,57.0,57.0,133.0,78.0,78.0,2,1.4089388847351074,None,,,,,0,0,0,0,0,31,31,106,135.80512523651123,,,,,,,,,,,,,,,,,,,,,,,,,,,,,,,,,,,,,,,,,,,,,,,,,,,,,,,,,,,,,,,,,,,,,,,,,,,,,,,,,133.0,57.0,57.0,133.0,78.0,78.0,4.0,4.1,-191,-277,0,4,202,-290,135.79066252708435,135.7907371520996,135.79383993148804,135.80512523651123,135.95433592796326,135.95433592796326,135.95433592796326,135.95433592796326,135.95433592796326,135.95433592796326,135.95433592796326,137.2270486354828,2,1.4089388847351074,None,,,,,,,,,,,,,,,,,,241,1,2025-03-13_17h04.54.401,comp,2024.2.4,56.62981180120785,2025-03-13 17h05.30.751917 -0400,
32,32,0,critical,whd,20.0,4.0,upper,125.0,200.0,200.0,125.0,141.0,141.0,2,1.8112049102783203,None,,,,,0,0,0,0,0,32,32,95,137.24298906326294,,,,,,,,,,,,,,,,,,,,,,,,,,,,,,,,,,,,,,,,,,,,,,,,,,,,,,,,,,,,,,,,,,,,,,,,,,,,,,,,,125.0,200.0,200.0,125.0,141.0,141.0,4.0,4.1,-258,-262,0,8,229,-281,137.2286341190338,137.2287094593048,137.23170256614685,137.24298906326294,137.39201617240906,137.39201617240906,137.39201617240906,137.39201617240906,137.39201617240906,137.39201617240906,137.39201617240906,139.0672972202301,2,1.8112049102783203,None,,,,,,,,,,,,,,,,,,241,1,2025-03-13_17h04.54.401,comp,2024.2.4,56.62981180120785,2025-03-13 17h05.30.751917 -0400,
33,33,0,filler_square,None,None,None,None,None,None,None,None,None,None,3,1.4112639427185059,None,,,,,0,0,0,0,0,33,33,183,139.08314418792725,,,,,,,,,,,,,,,,,,,,,,,,,,,,,,,,,,,,,,,,,,,,,,,,,,,,,,,,,,,,,,,,,,,,,,,,,,,,,,,,,126.71282127265813,137.0010125449191,136.84098907674704,117.4885215775052,155.4653962840992,155.4653962840992,4.0,4.1,-223,-261,0,-13,232,-284,139.06918668746948,139.06927609443665,139.07247376441956,139.08314418792725,139.2219955921173,139.2219955921173,139.2219955921173,139.2219955921173,139.2219955921173,139.2219955921173,139.2219955921173,140.49848532676697,3,1.4112639427185059,None,,,,,,,,,,,,,,,,,,241,1,2025-03-13_17h04.54.401,comp,2024.2.4,56.62981180120785,2025-03-13 17h05.30.751917 -0400,
34,34,0,critical,whd,20.0,2.1,lower,57.0,133.0,133.0,57.0,78.0,78.0,2,1.9753613471984863,None,,,,,0,0,0,0,0,34,34,38,140.51871156692505,,,,,,,,,,,,,,,,,,,,,,,,,,,,,,,,,,,,,,,,,,,,,,,,,,,,,,,,,,,,,,,,,,,,,,,,,,,,,,,,,57.0,133.0,133.0,57.0,78.0,78.0,2.1,2.11,-191,279,0,266,164,-284,140.4999897480011,140.50006866455078,140.50292539596558,140.51871156692505,140.65776014328003,140.65776014328003,140.65776014328003,140.65776014328003,140.65776014328003,140.65776014328003,140.65776014328003,142.50767874717712,2,1.9753613471984863,None,,,,,,,,,,,,,,,,,,241,1,2025-03-13_17h04.54.401,comp,2024.2.4,56.62981180120785,2025-03-13 17h05.30.751917 -0400,
35,35,0,critical,dhw,20.0,2.1,lower,78.0,78.0,133.0,57.0,57.0,133.0,3,1.4984064102172852,None,,,,,0,0,0,0,0,35,35,26,142.5242326259613,,,,,,,,,,,,,,,,,,,,,,,,,,,,,,,,,,,,,,,,,,,,,,,,,,,,,,,,,,,,,,,,,,,,,,,,,,,,,,,,,78.0,78.0,133.0,57.0,57.0,133.0,2.1,2.11,-164,270,0,276,191,-290,142.509179353714,142.50925397872925,142.51234030723572,142.5242326259613,142.67583775520325,142.67583775520325,142.67583775520325,142.67583775520325,142.67583775520325,142.67583775520325,142.67583775520325,144.024760723114,3,1.4984064102172852,None,,,,,,,,,,,,,,,,,,241,1,2025-03-13_17h04.54.401,comp,2024.2.4,56.62981180120785,2025-03-13 17h05.30.751917 -0400,
36,36,0,filler_random,None,None,None,None,None,None,None,None,None,None,1,1.6256232261657715,None,,,,,0,0,0,0,0,36,36,165,144.04505825042725,,,,,,,,,,,,,,,,,,,,,,,,,,,,,,,,,,,,,,,,,,,,,,,,,,,,,,,,,,,,,,,,,,,,,,,,,,,,,,,,,147.34602956214633,100.71069959788869,77.33479845058213,177.5075560659185,101.76423785569231,93.06994172403591,4.0,4.1,-235,-259,0,7,231,-265,144.02645325660706,144.02656769752502,144.0299928188324,144.04505825042725,144.19266510009766,144.19266510009766,144.19266510009766,144.19266510009766,144.19266510009766,144.19266510009766,144.19266510009766,145.67472124099731,1,1.6256232261657715,None,,,,,,,,,,,,,,,,,,241,1,2025-03-13_17h04.54.401,comp,2024.2.4,56.62981180120785,2025-03-13 17h05.30.751917 -0400,
37,37,0,filler_random,None,None,None,None,None,None,None,None,None,None,1,1.203317642211914,None,,,,,0,0,0,0,0,37,37,131,145.691344499588,,,,,,,,,,,,,,,,,,,,,,,,,,,,,,,,,,,,,,,,,,,,,,,,,,,,,,,,,,,,,,,,,,,,,,,,,,,,,,,,,189.2914911225759,94.41582117495093,165.01008088823096,90.15043941456256,85.59777738583429,59.25743261065739,3.0,3.2,-188,-284,0,18,171,279,145.6763255596161,145.67643451690674,145.67949414253235,145.691344499588,145.82846760749817,145.82846760749817,145.82846760749817,145.82846760749817,145.82846760749817,145.82846760749817,145.82846760749817,146.89721202850342,1,1.203317642211914,None,,,,,,,,,,,,,,,,,,241,1,2025-03-13_17h04.54.401,comp,2024.2.4,56.62981180120785,2025-03-13 17h05.30.751917 -0400,
38,38,0,critical,dwh,20.0,1.0,lower,78.0,78.0,57.0,133.0,133.0,57.0,3,5.429450273513794,None,,,,,0,0,0,0,0,38,38,66,146.91344571113586,,,,,,,,,,,,,,,,,,,,,,,,,,,,,,,,,,,,,,,,,,,,,,,,,,,,,,,,,,,,,,,,,,,,,,,,,,,,,,,,,78.0,78.0,57.0,133.0,133.0,57.0,1.0,1.3,278,-255,480,-269,671,-289,146.89884901046753,146.89892888069153,146.90181732177734,146.91344571113586,147.0604441165924,147.0604441165924,147.0604441165924,147.0604441165924,147.0604441165924,147.0604441165924,147.0604441165924,152.3507113456726,3,5.429450273513794,None,,,,,,,,,,,,,,,,,,241,1,2025-03-13_17h04.54.401,comp,2024.2.4,56.62981180120785,2025-03-13 17h05.30.751917 -0400,
39,39,0,catch,None,None,None,None,None,None,None,None,None,None,2,1.0564663410186768,None,,,,,0,0,0,0,0,39,39,121,152.36630249023438,,,,,,,,,,,,,,,,,,,,,,,,,,,,,,,,,,,,,,,,,,,,,,,,,,,,,,,,,,,,,,,,,,,,,,,,,,,,,,,,,62,128,157,168,96,94,4.0,4.1,-244,-270,0,-16,227,-284,152.35252809524536,152.35260677337646,152.35549426078796,152.36630249023438,152.51170873641968,152.51170873641968,152.51170873641968,152.51170873641968,152.51170873641968,152.51170873641968,152.51170873641968,153.42883586883545,2,1.0564663410186768,None,,,,,,,,,,,,,,,,,,241,1,2025-03-13_17h04.54.401,comp,2024.2.4,56.62981180120785,2025-03-13 17h05.30.751917 -0400,
40,40,0,filler_random,None,None,None,None,None,None,None,None,None,None,2,2.8650784492492676,None,,,,,0,0,0,0,0,40,40,132,153.44546747207642,,,,,,,,,,,,,,,,,,,,,,,,,,,,,,,,,,,,,,,,,,,,,,,,,,,,,,,,,,,,,,,,,,,,,,,,,,,,,,,,,130.1909718826035,73.39505580049294,107.88333107389961,119.52893537105345,87.66585260036534,95.69135416661092,2.1,2.12,-192,-256,0,-251,204,260,153.4305019378662,153.430579662323,153.43358421325684,153.44546747207642,153.59790349006653,153.59790349006653,153.59790349006653,153.59790349006653,153.59790349006653,153.59790349006653,153.59790349006653,156.3124086856842,2,2.8650784492492676,None,,,,,,,,,,,,,,,,,,241,1,2025-03-13_17h04.54.401,comp,2024.2.4,56.62981180120785,2025-03-13 17h05.30.751917 -0400,
41,41,0,critical,hdw,20.0,2.1,upper,200.0,125.0,141.0,141.0,125.0,200.0,3,2.7492387294769287,None,,,,,0,0,0,0,0,41,41,23,156.32889771461487,,,,,,,,,,,,,,,,,,,,,,,,,,,,,,,,,,,,,,,,,,,,,,,,,,,,,,,,,,,,,,,,,,,,,,,,,,,,,,,,,200.0,125.0,141.0,141.0,125.0,200.0,2.1,2.11,-229,250,0,250,266,-278,156.31391716003418,156.31399512290955,156.31702661514282,156.32889771461487,156.4829978942871,156.4829978942871,156.4829978942871,156.4829978942871,156.4829978942871,156.4829978942871,156.4829978942871,159.08028531074524,3,2.7492387294769287,None,,,,,,,,,,,,,,,,,,241,1,2025-03-13_17h04.54.401,comp,2024.2.4,56.62981180120785,2025-03-13 17h05.30.751917 -0400,
42,42,0,critical,dhw,35.0,1.0,upper,127.0,127.0,200.0,125.0,125.0,200.0,2,0.9342541694641113,None,,,,,0,0,0,0,0,42,42,49,159.0964436531067,,,,,,,,,,,,,,,,,,,,,,,,,,,,,,,,,,,,,,,,,,,,,,,,,,,,,,,,,,,,,,,,,,,,,,,,,,,,,,,,,127.0,127.0,200.0,125.0,125.0,200.0,1.0,1.2,-222,-19,0,14,258,-16,159.08187341690063,159.08194971084595,159.0853750705719,159.0964436531067,159.24619722366333,159.24619722366333,159.24619722366333,159.24619722366333,159.24619722366333,159.24619722366333,159.24619722366333,160.04520225524902,2,0.9342541694641113,None,,,,,,,,,,,,,,,,,,241,1,2025-03-13_17h04.54.401,comp,2024.2.4,56.62981180120785,2025-03-13 17h05.30.751917 -0400,
43,43,0,critical,whd,35.0,2.1,lower,57.0,133.0,133.0,57.0,70.0,70.0,2,1.465266227722168,None,,,,,0,0,0,0,0,43,43,36,160.06116199493408,,,,,,,,,,,,,,,,,,,,,,,,,,,,,,,,,,,,,,,,,,,,,,,,,,,,,,,,,,,,,,,,,,,,,,,,,,,,,,,,,57.0,133.0,133.0,57.0,70.0,70.0,2.1,2.12,-191,-261,0,-278,160,277,160.04681658744812,160.0468943119049,160.05021214485168,160.06116199493408,160.2124843597412,160.2124843597412,160.2124843597412,160.2124843597412,160.2124843597412,160.2124843597412,160.2124843597412,161.53014373779297,2,1.465266227722168,None,,,,,,,,,,,,,,,,,,241,1,2025-03-13_17h04.54.401,comp,2024.2.4,56.62981180120785,2025-03-13 17h05.30.751917 -0400,
44,44,0,filler_random,None,None,None,None,None,None,None,None,None,None,1,0.8719151020050049,None,,,,,0,0,0,0,0,44,44,138,161.550146818161,,,,,,,,,,,,,,,,,,,,,,,,,,,,,,,,,,,,,,,,,,,,,,,,,,,,,,,,,,,,,,,,,,,,,,,,,,,,,,,,,192.18136950213596,152.5853056263931,85.54606724419037,78.76950373223937,94.01568536009066,78.61480083736947,2.2,2.22,-212,260,0,-264,175,-275,161.53179693222046,161.53187322616577,161.53486108779907,161.550146818161,161.6972517967224,161.6972517967224,161.6972517967224,161.6972517967224,161.6972517967224,161.6972517967224,161.6972517967224,162.43256831169128,1,0.8719151020050049,None,,,,,,,,,,,,,,,,,,241,1,2025-03-13_17h04.54.401,comp,2024.2.4,56.62981180120785,2025-03-13 17h05.30.751917 -0400,
45,45,0,critical,whd,20.0,1.0,lower,57.0,133.0,133.0,57.0,78.0,78.0,2,0.8937063217163086,None,,,,,0,0,0,0,0,45,45,90,162.44896411895752,,,,,,,,,,,,,,,,,,,,,,,,,,,,,,,,,,,,,,,,,,,,,,,,,,,,,,,,,,,,,,,,,,,,,,,,,,,,,,,,,57.0,133.0,133.0,57.0,78.0,78.0,1.0,1.3,289,-273,480,-251,644,-253,162.4341218471527,162.4342029094696,162.4374053478241,162.44896411895752,162.59879517555237,162.59879517555237,162.59879517555237,162.59879517555237,162.59879517555237,162.59879517555237,162.59879517555237,163.35068893432617,2,0.8937063217163086,None,,,,,,,,,,,,,,,,,,241,1,2025-03-13_17h04.54.401,comp,2024.2.4,56.62981180120785,2025-03-13 17h05.30.751917 -0400,
46,46,0,catch,None,None,None,None,None,None,None,None,None,None,1,0.8932168483734131,None,,,,,0,0,0,0,0,46,46,120,163.36952710151672,,,,,,,,,,,,,,,,,,,,,,,,,,,,,,,,,,,,,,,,,,,,,,,,,,,,,,,,,,,,,,,,,,,,,,,,,,,,,,,,,166,159,67,123,74,116,2.1,2.11,-237,279,0,264,216,-276,163.35291528701782,163.3530237674713,163.35598826408386,163.36952710151672,163.5145969390869,163.5145969390869,163.5145969390869,163.5145969390869,163.5145969390869,163.5145969390869,163.5145969390869,164.26653051376343,1,0.8932168483734131,None,,,,,,,,,,,,,,,,,,241,1,2025-03-13_17h04.54.401,comp,2024.2.4,56.62981180120785,2025-03-13 17h05.30.751917 -0400,
47,47,0,filler_random,None,None,None,None,None,None,None,None,None,None,1,1.4753508567810059,None,,,,,0,0,0,0,0,47,47,146,164.28269720077515,,,,,,,,,,,,,,,,,,,,,,,,,,,,,,,,,,,,,,,,,,,,,,,,,,,,,,,,,,,,,,,,,,,,,,,,,,,,,,,,,118.40311205116166,131.87218196263325,147.80684091919676,66.26281577319206,107.30525814321113,150.61466252412387,1.0,1.2,-195,9,0,-7,204,-20,164.26833081245422,164.26846408843994,164.2719428539276,164.28269720077515,164.4329376220703,164.4329376220703,164.4329376220703,164.4329376220703,164.4329376220703,164.4329376220703,164.4329376220703,165.76720929145813,1,1.4753508567810059,None,,,,,,,,,,,,,,,,,,241,1,2025-03-13_17h04.54.401,comp,2024.2.4,56.62981180120785,2025-03-13 17h05.30.751917 -0400,
48,48,0,filler_square,None,None,None,None,None,None,None,None,None,None,3,1.7803645133972168,None,,,,,0,0,0,0,0,48,48,187,165.78630113601685,,,,,,,,,,,,,,,,,,,,,,,,,,,,,,,,,,,,,,,,,,,,,,,,,,,,,,,,,,,,,,,,,,,,,,,,,,,,,,,,,69.98702782914152,58.357434109005624,70.15613215092985,68.7041268856031,75.49737514143423,75.49737514143423,3.0,3.1,-160,266,0,11,168,-287,165.76922917366028,165.76930809020996,165.7722508907318,165.78630113601685,165.9338788986206,165.9338788986206,165.9338788986206,165.9338788986206,165.9338788986206,165.9338788986206,165.9338788986206,167.5768060684204,3,1.7803645133972168,None,,,,,,,,,,,,,,,,,,241,1,2025-03-13_17h04.54.401,comp,2024.2.4,56.62981180120785,2025-03-13 17h05.30.751917 -0400,
49,49,0,filler_square,None,None,None,None,None,None,None,None,None,None,3,3.0493597984313965,None,,,,,0,0,0,0,0,49,49,191,167.59723162651062,,,,,,,,,,,,,,,,,,,,,,,,,,,,,,,,,,,,,,,,,,,,,,,,,,,,,,,,,,,,,,,,,,,,,,,,,,,,,,,,,72.56258532085297,63.965871368029326,70.81629257610633,75.38943494370344,75.61741881776028,75.61741881776028,4.0,4.1,-166,-259,0,-15,172,-283,167.57856941223145,167.5786452293396,167.58145689964294,167.59723162651062,167.73336482048035,167.73336482048035,167.73336482048035,167.73336482048035,167.73336482048035,167.73336482048035,167.73336482048035,170.65386581420898,3,3.0493597984313965,None,,,,,,,,,,,,,,,,,,241,1,2025-03-13_17h04.54.401,comp,2024.2.4,56.62981180120785,2025-03-13 17h05.30.751917 -0400,
50,50,0,filler_square,None,None,None,None,None,None,None,None,None,None,2,1.7795538902282715,None,,,,,0,0,0,0,0,50,50,193,170.67460536956787,,,,,,,,,,,,,,,,,,,,,,,,,,,,,,,,,,,,,,,,,,,,,,,,,,,,,,,,,,,,,,,,,,,,,,,,,,,,,,,,,185.0542353910995,165.33826602421914,185.53228760533273,185.53228760533273,147.65051713604802,98.18154530689556,4.0,4.2,-271,11,0,-255,238,11,170.65571117401123,170.65578866004944,170.65883231163025,170.67460536956787,170.8176145553589,170.8176145553589,170.8176145553589,170.8176145553589,170.8176145553589,170.8176145553589,170.8176145553589,172.46733140945435,2,1.7795538902282715,None,,,,,,,,,,,,,,,,,,241,1,2025-03-13_17h04.54.401,comp,2024.2.4,56.62981180120785,2025-03-13 17h05.30.751917 -0400,
51,51,0,critical,hwd,20.0,2.1,lower,133.0,57.0,57.0,133.0,78.0,78.0,1,1.541473388671875,None,,,,,0,0,0,0,0,51,51,42,172.48313665390015,,,,,,,,,,,,,,,,,,,,,,,,,,,,,,,,,,,,,,,,,,,,,,,,,,,,,,,,,,,,,,,,,,,,,,,,,,,,,,,,,133.0,57.0,57.0,133.0,78.0,78.0,2.1,2.12,-191,-287,0,-265,202,251,172.4688937664032,172.46896815299988,172.4718873500824,172.48313665390015,172.62331199645996,172.62331199645996,172.62331199645996,172.62331199645996,172.62331199645996,172.62331199645996,172.62331199645996,174.03596687316895,1,1.541473388671875,None,,,,,,,,,,,,,,,,,,241,1,2025-03-13_17h04.54.401,comp,2024.2.4,56.62981180120785,2025-03-13 17h05.30.751917 -0400,
52,52,0,critical,hwd,35.0,2.1,upper,200.0,125.0,125.0,200.0,127.0,127.0,1,2.211256742477417,None,,,,,0,0,0,0,0,52,52,17,174.05162286758423,,,,,,,,,,,,,,,,,,,,,,,,,,,,,,,,,,,,,,,,,,,,,,,,,,,,,,,,,,,,,,,,,,,,,,,,,,,,,,,,,200.0,125.0,125.0,200.0,127.0,127.0,2.1,2.11,-258,289,0,277,260,-279,174.03744077682495,174.0375633239746,174.04086232185364,174.05162286758423,174.20592665672302,174.20592665672302,174.20592665672302,174.20592665672302,174.20592665672302,174.20592665672302,174.20592665672302,176.26959943771362,1,2.211256742477417,None,,,,,,,,,,,,,,,,,,241,1,2025-03-13_17h04.54.401,comp,2024.2.4,56.62981180120785,2025-03-13 17h05.30.751917 -0400,
53,53,0,critical,whd,35.0,4.0,upper,125.0,200.0,200.0,125.0,127.0,127.0,2,1.2968969345092773,None,,,,,0,0,0,0,0,53,53,89,176.2860279083252,,,,,,,,,,,,,,,,,,,,,,,,,,,,,,,,,,,,,,,,,,,,,,,,,,,,,,,,,,,,,,,,,,,,,,,,,,,,,,,,,125.0,200.0,200.0,125.0,127.0,127.0,4.0,4.1,-258,-273,0,7,222,-254,176.2712070941925,176.27128529548645,176.27471232414246,176.2860279083252,176.43505358695984,176.43505358695984,176.43505358695984,176.43505358695984,176.43505358695984,176.43505358695984,176.43505358695984,177.58742475509644,2,1.2968969345092773,None,,,,,,,,,,,,,,,,,,241,1,2025-03-13_17h04.54.401,comp,2024.2.4,56.62981180120785,2025-03-13 17h05.30.751917 -0400,
54,54,0,filler_square,None,None,None,None,None,None,None,None,None,None,1,2.2819998264312744,None,,,,,0,0,0,0,0,54,54,198,177.60502123832703,,,,,,,,,,,,,,,,,,,,,,,,,,,,,,,,,,,,,,,,,,,,,,,,,,,,,,,,,,,,,,,,,,,,,,,,,,,,,,,,,132.26355698854246,132.26355698854246,85.936959697892,77.57732107947402,96.67495831479692,88.19803902881814,3.0,3.2,-201,-269,0,6,179,287,177.58964276313782,177.58971977233887,177.59354519844055,177.60502123832703,177.75375699996948,177.75375699996948,177.75375699996948,177.75375699996948,177.75375699996948,177.75375699996948,177.75375699996948,179.8913233280182,1,2.2819998264312744,None,,,,,,,,,,,,,,,,,,241,1,2025-03-13_17h04.54.401,comp,2024.2.4,56.62981180120785,2025-03-13 17h05.30.751917 -0400,
55,55,0,filler_square,None,None,None,None,None,None,None,None,None,None,2,1.2921714782714844,None,,,,,0,0,0,0,0,55,55,182,179.90670728683472,,,,,,,,,,,,,,,,,,,,,,,,,,,,,,,,,,,,,,,,,,,,,,,,,,,,,,,,,,,,,,,,,,,,,,,,,,,,,,,,,63.059793106677525,63.42454280578992,64.25673580300547,64.25673580300547,57.030369036577596,62.44985228495289,1.0,1.2,-160,4,0,11,159,7,179.89307403564453,179.89315009117126,179.89599180221558,179.90670728683472,180.0537564754486,180.0537564754486,180.0537564754486,180.0537564754486,180.0537564754486,180.0537564754486,180.0537564754486,181.20554208755493,2,1.2921714782714844,None,,,,,,,,,,,,,,,,,,241,1,2025-03-13_17h04.54.401,comp,2024.2.4,56.62981180120785,2025-03-13 17h05.30.751917 -0400,
56,56,0,critical,whd,35.0,3.0,lower,57.0,133.0,133.0,57.0,70.0,70.0,2,1.1130197048187256,None,,,,,0,0,0,0,0,56,56,86,181.22175192832947,,,,,,,,,,,,,,,,,,,,,,,,,,,,,,,,,,,,,,,,,,,,,,,,,,,,,,,,,,,,,,,,,,,,,,,,,,,,,,,,,57.0,133.0,133.0,57.0,70.0,70.0,3.0,3.1,-191,281,0,-13,160,-278,181.20721912384033,181.2073199748993,181.2109341621399,181.22175192832947,181.3720133304596,181.3720133304596,181.3720133304596,181.3720133304596,181.3720133304596,181.3720133304596,181.3720133304596,182.34252405166626,2,1.1130197048187256,None,,,,,,,,,,,,,,,,,,241,1,2025-03-13_17h04.54.401,comp,2024.2.4,56.62981180120785,2025-03-13 17h05.30.751917 -0400,
57,57,0,filler_random,None,None,None,None,None,None,None,None,None,None,1,1.6675288677215576,None,,,,,0,0,0,0,0,57,57,157,182.362628698349,,,,,,,,,,,,,,,,,,,,,,,,,,,,,,,,,,,,,,,,,,,,,,,,,,,,,,,,,,,,,,,,,,,,,,,,,,,,,,,,,82.77724722579603,116.1075865785237,75.60025261059175,83.83311770202398,141.08448437802042,70.35204069470635,2.1,2.11,-196,263,0,286,173,-276,182.34418654441833,182.34426307678223,182.3471179008484,182.362628698349,182.5046157836914,182.5046157836914,182.5046157836914,182.5046157836914,182.5046157836914,182.5046157836914,182.5046157836914,184.04299330711365,1,1.6675288677215576,None,,,,,,,,,,,,,,,,,,241,1,2025-03-13_17h04.54.401,comp,2024.2.4,56.62981180120785,2025-03-13 17h05.30.751917 -0400,
58,58,0,filler_random,None,None,None,None,None,None,None,None,None,None,1,2.9044454097747803,None,,,,,0,0,0,0,0,58,58,133,184.06344604492188,,,,,,,,,,,,,,,,,,,,,,,,,,,,,,,,,,,,,,,,,,,,,,,,,,,,,,,,,,,,,,,,,,,,,,,,,,,,,,,,,171.44755544752155,107.801261350794,80.00878280526308,174.0446546222634,92.56798335107982,172.6073157714638,1.0,1.3,243,-276,480,-277,749,-281,184.04475903511047,184.04486083984375,184.04808688163757,184.06344604492188,184.20561504364014,184.20561504364014,184.20561504364014,184.20561504364014,184.20561504364014,184.20561504364014,184.20561504364014,186.97161316871643,1,2.9044454097747803,None,,,,,,,,,,,,,,,,,,241,1,2025-03-13_17h04.54.401,comp,2024.2.4,56.62981180120785,2025-03-13 17h05.30.751917 -0400,
59,59,0,critical,hdw,35.0,2.1,lower,133.0,57.0,70.0,70.0,57.0,133.0,3,1.459575891494751,None,,,,,0,0,0,0,0,59,59,44,186.98851251602173,,,,,,,,,,,,,,,,,,,,,,,,,,,,,,,,,,,,,,,,,,,,,,,,,,,,,,,,,,,,,,,,,,,,,,,,,,,,,,,,,133.0,57.0,70.0,70.0,57.0,133.0,2.1,2.11,-160,253,0,276,198,-268,186.97316718101501,186.97324347496033,186.97656154632568,186.98851251602173,187.14597344398499,187.14597344398499,187.14597344398499,187.14597344398499,187.14597344398499,187.14597344398499,187.14597344398499,188.4548614025116,3,1.459575891494751,None,,,,,,,,,,,,,,,,,,241,1,2025-03-13_17h04.54.401,comp,2024.2.4,56.62981180120785,2025-03-13 17h05.30.751917 -0400,
60,60,0,critical,dhw,35.0,3.0,lower,70.0,70.0,133.0,57.0,57.0,133.0,2,0.9679338932037354,None,,,,,0,0,0,0,0,60,60,50,188.47109937667847,,,,,,,,,,,,,,,,,,,,,,,,,,,,,,,,,,,,,,,,,,,,,,,,,,,,,,,,,,,,,,,,,,,,,,,,,,,,,,,,,70.0,70.0,133.0,57.0,57.0,133.0,3.0,3.1,-160,281,0,18,191,-272,188.45631742477417,188.4564278125763,188.45940685272217,188.47109937667847,188.606427192688,188.606427192688,188.606427192688,188.606427192688,188.606427192688,188.606427192688,188.606427192688,189.4471971988678,2,0.9679338932037354,None,,,,,,,,,,,,,,,,,,241,1,2025-03-13_17h04.54.401,comp,2024.2.4,56.62981180120785,2025-03-13 17h05.30.751917 -0400,
61,61,0,critical,hwd,20.0,4.0,upper,200.0,125.0,125.0,200.0,141.0,141.0,1,0.9975593090057373,None,,,,,0,0,0,0,0,61,61,107,189.46465945243835,,,,,,,,,,,,,,,,,,,,,,,,,,,,,,,,,,,,,,,,,,,,,,,,,,,,,,,,,,,,,,,,,,,,,,,,,,,,,,,,,200.0,125.0,125.0,200.0,141.0,141.0,4.0,4.1,-258,-281,0,-1,266,-258,189.4486961364746,189.44877195358276,189.45164561271667,189.46465945243835,189.60633850097656,189.60633850097656,189.60633850097656,189.60633850097656,189.60633850097656,189.60633850097656,189.60633850097656,190.477285861969,1,0.9975593090057373,None,,,,,,,,,,,,,,,,,,241,1,2025-03-13_17h04.54.401,comp,2024.2.4,56.62981180120785,2025-03-13 17h05.30.751917 -0400,
62,62,0,filler_random,None,None,None,None,None,None,None,None,None,None,3,0.9216570854187012,None,,,,,0,0,0,0,0,62,62,140,190.49247789382935,,,,,,,,,,,,,,,,,,,,,,,,,,,,,,,,,,,,,,,,,,,,,,,,,,,,,,,,,,,,,,,,,,,,,,,,,,,,,,,,,63.22090822801577,129.25255953746748,97.06641546763866,191.48614749921947,167.49570848310788,137.91439514455976,1.0,1.1,-736,287,-480,279,-219,273,190.47902274131775,190.47909688949585,190.48211908340454,190.49247789382935,190.6410572528839,190.6410572528839,190.6410572528839,190.6410572528839,190.6410572528839,190.6410572528839,190.6410572528839,191.42371940612793,3,0.9216570854187012,None,,,,,,,,,,,,,,,,,,241,1,2025-03-13_17h04.54.401,comp,2024.2.4,56.62981180120785,2025-03-13 17h05.30.751917 -0400,
63,63,0,filler_square,None,None,None,None,None,None,None,None,None,None,2,0.9501955509185791,None,,,,,0,0,0,0,0,63,63,170,191.43998789787292,,,,,,,,,,,,,,,,,,,,,,,,,,,,,,,,,,,,,,,,,,,,,,,,,,,,,,,,,,,,,,,,,,,,,,,,,,,,,,,,,81.36889467070048,90.47803155670196,145.75566644374712,145.75566644374712,95.15767595845537,57.47124644276572,1.0,1.3,266,-262,480,-272,678,-274,191.42562818527222,191.42570543289185,191.42910814285278,191.43998789787292,191.58810567855835,191.58810567855835,191.58810567855835,191.58810567855835,191.58810567855835,191.58810567855835,191.58810567855835,192.41102027893066,2,0.9501955509185791,None,,,,,,,,,,,,,,,,,,241,1,2025-03-13_17h04.54.401,comp,2024.2.4,56.62981180120785,2025-03-13 17h05.30.751917 -0400,
64,64,0,critical,hwd,35.0,4.0,lower,133.0,57.0,57.0,133.0,70.0,70.0,1,0.9591970443725586,None,,,,,0,0,0,0,0,64,64,100,192.43154525756836,,,,,,,,,,,,,,,,,,,,,,,,,,,,,,,,,,,,,,,,,,,,,,,,,,,,,,,,,,,,,,,,,,,,,,,,,,,,,,,,,133.0,57.0,57.0,133.0,70.0,70.0,4.0,4.1,-191,-258,0,20,198,-280,192.41260814666748,192.41272687911987,192.41615986824036,192.43154525756836,192.57475876808167,192.57475876808167,192.57475876808167,192.57475876808167,192.57475876808167,192.57475876808167,192.57475876808167,193.4089126586914,1,0.9591970443725586,None,,,,,,,,,,,,,,,,,,241,1,2025-03-13_17h04.54.401,comp,2024.2.4,56.62981180120785,2025-03-13 17h05.30.751917 -0400,
65,65,0,critical,whd,35.0,2.1,lower,57.0,133.0,133.0,57.0,70.0,70.0,2,1.0372707843780518,None,,,,,0,0,0,0,0,65,65,12,193.4248285293579,,,,,,,,,,,,,,,,,,,,,,,,,,,,,,,,,,,,,,,,,,,,,,,,,,,,,,,,,,,,,,,,,,,,,,,,,,,,,,,,,57.0,133.0,133.0,57.0,70.0,70.0,2.1,2.12,-191,-255,0,-258,160,289,193.41039896011353,193.41048455238342,193.41444206237793,193.4248285293579,193.57267713546753,193.57267713546753,193.57267713546753,193.57267713546753,193.57267713546753,193.57267713546753,193.57267713546753,194.47522258758545,2,1.0372707843780518,None,,,,,,,,,,,,,,,,,,241,1,2025-03-13_17h04.54.401,comp,2024.2.4,56.62981180120785,2025-03-13 17h05.30.751917 -0400,
66,66,0,critical,hdw,35.0,4.0,upper,200.0,125.0,127.0,127.0,125.0,200.0,3,2.6184561252593994,None,,,,,0,0,0,0,0,66,66,113,194.4916718006134,,,,,,,,,,,,,,,,,,,,,,,,,,,,,,,,,,,,,,,,,,,,,,,,,,,,,,,,,,,,,,,,,,,,,,,,,,,,,,,,,200.0,125.0,127.0,127.0,125.0,200.0,4.0,4.2,-222,-7,0,-276,260,13,194.47672319412231,194.4767963886261,194.479877948761,194.4916718006134,194.6470971107483,194.6470971107483,194.6470971107483,194.6470971107483,194.6470971107483,194.6470971107483,194.6470971107483,197.12561225891113,3,2.6184561252593994,None,,,,,,,,,,,,,,,,,,241,1,2025-03-13_17h04.54.401,comp,2024.2.4,56.62981180120785,2025-03-13 17h05.30.751917 -0400,
67,67,0,critical,dhw,20.0,3.0,upper,141.0,141.0,200.0,125.0,125.0,200.0,2,2.1528401374816895,None,,,,,0,0,0,0,0,67,67,57,197.1414394378662,,,,,,,,,,,,,,,,,,,,,,,,,,,,,,,,,,,,,,,,,,,,,,,,,,,,,,,,,,,,,,,,,,,,,,,,,,,,,,,,,141.0,141.0,200.0,125.0,125.0,200.0,3.0,3.2,-229,-250,0,10,258,274,197.12710738182068,197.1271834373474,197.13021659851074,197.1414394378662,197.2924325466156,197.2924325466156,197.2924325466156,197.2924325466156,197.2924325466156,197.2924325466156,197.2924325466156,199.30980443954468,2,2.1528401374816895,None,,,,,,,,,,,,,,,,,,241,1,2025-03-13_17h04.54.401,comp,2024.2.4,56.62981180120785,2025-03-13 17h05.30.751917 -0400,
68,68,0,critical,whd,20.0,2.1,upper,125.0,200.0,200.0,125.0,141.0,141.0,2,3.584461212158203,None,,,,,0,0,0,0,0,68,68,15,199.32592582702637,,,,,,,,,,,,,,,,,,,,,,,,,,,,,,,,,,,,,,,,,,,,,,,,,,,,,,,,,,,,,,,,,,,,,,,,,,,,,,,,,125.0,200.0,200.0,125.0,141.0,141.0,2.1,2.12,-258,-252,0,-252,229,270,199.31137442588806,199.31147360801697,199.31552696228027,199.32592582702637,199.47533631324768,199.47533631324768,199.47533631324768,199.47533631324768,199.47533631324768,199.47533631324768,199.47533631324768,202.92732977867126,2,3.584461212158203,None,,,,,,,,,,,,,,,,,,241,1,2025-03-13_17h04.54.401,comp,2024.2.4,56.62981180120785,2025-03-13 17h05.30.751917 -0400,
69,69,0,critical,whd,20.0,3.0,upper,125.0,200.0,200.0,125.0,141.0,141.0,3,3.4003210067749023,None,,,,,0,0,0,0,0,69,69,93,202.9418909549713,,,,,,,,,,,,,,,,,,,,,,,,,,,,,,,,,,,,,,,,,,,,,,,,,,,,,,,,,,,,,,,,,,,,,,,,,,,,,,,,,125.0,200.0,200.0,125.0,141.0,141.0,3.0,3.1,-258,288,0,-15,229,-284,202.92887663841248,202.9289526939392,202.9323446750641,202.9418909549713,203.0946078300476,203.0946078300476,203.0946078300476,203.0946078300476,203.0946078300476,203.0946078300476,203.0946078300476,206.34568572044373,3,3.4003210067749023,None,,,,,,,,,,,,,,,,,,241,1,2025-03-13_17h04.54.401,comp,2024.2.4,56.62981180120785,2025-03-13 17h05.30.751917 -0400,
70,70,0,critical,hwd,35.0,2.1,lower,133.0,57.0,57.0,133.0,70.0,70.0,1,1.9323723316192627,None,,,,,0,0,0,0,0,70,70,40,206.3622281551361,,,,,,,,,,,,,,,,,,,,,,,,,,,,,,,,,,,,,,,,,,,,,,,,,,,,,,,,,,,,,,,,,,,,,,,,,,,,,,,,,133.0,57.0,57.0,133.0,70.0,70.0,2.1,2.11,-191,279,0,278,198,-271,206.3472876548767,206.34736323356628,206.35137104988098,206.3622281551361,206.50944876670837,206.50944876670837,206.50944876670837,206.50944876670837,206.50944876670837,206.50944876670837,206.50944876670837,208.31340956687927,1,1.9323723316192627,None,,,,,,,,,,,,,,,,,,241,1,2025-03-13_17h04.54.401,comp,2024.2.4,56.62981180120785,2025-03-13 17h05.30.751917 -0400,
71,71,0,filler_square,None,None,None,None,None,None,None,None,None,None,2,1.5806779861450195,None,,,,,0,0,0,0,0,71,71,207,208.3295271396637,,,,,,,,,,,,,,,,,,,,,,,,,,,,,,,,,,,,,,,,,,,,,,,,,,,,,,,,,,,,,,,,,,,,,,,,,,,,,,,,,61.902279348491106,60.50252091048864,62.42805436109797,62.42805436109797,58.81818204702812,59.94182100957246,1.0,1.2,-157,3,0,-19,157,-9,208.3151557445526,208.3152322769165,208.3191545009613,208.3295271396637,208.47716236114502,208.47716236114502,208.47716236114502,208.47716236114502,208.47716236114502,208.47716236114502,208.47716236114502,209.91359663009644,2,1.5806779861450195,None,,,,,,,,,,,,,,,,,,241,1,2025-03-13_17h04.54.401,comp,2024.2.4,56.62981180120785,2025-03-13 17h05.30.751917 -0400,
72,72,0,critical,dhw,35.0,2.1,upper,127.0,127.0,200.0,125.0,125.0,200.0,2,2.180903911590576,None,,,,,0,0,0,0,0,72,72,25,209.93004274368286,,,,,,,,,,,,,,,,,,,,,,,,,,,,,,,,,,,,,,,,,,,,,,,,,,,,,,,,,,,,,,,,,,,,,,,,,,,,,,,,,127.0,127.0,200.0,125.0,125.0,200.0,2.1,2.11,-222,288,0,289,258,-278,209.9150686264038,209.91514611244202,209.91921710968018,209.93004274368286,210.08126997947693,210.08126997947693,210.08126997947693,210.08126997947693,210.08126997947693,210.08126997947693,210.08126997947693,212.1154134273529,2,2.180903911590576,None,,,,,,,,,,,,,,,,,,241,1,2025-03-13_17h04.54.401,comp,2024.2.4,56.62981180120785,2025-03-13 17h05.30.751917 -0400,
73,73,0,critical,dhw,35.0,4.0,lower,70.0,70.0,133.0,57.0,57.0,133.0,2,1.418656587600708,None,,,,,0,0,0,0,0,73,73,52,212.1315143108368,,,,,,,,,,,,,,,,,,,,,,,,,,,,,,,,,,,,,,,,,,,,,,,,,,,,,,,,,,,,,,,,,,,,,,,,,,,,,,,,,70.0,70.0,133.0,57.0,57.0,133.0,4.0,4.2,-160,-12,0,-253,191,-2,212.11700987815857,212.1170883178711,212.12019777297974,212.1315143108368,212.27787828445435,212.27787828445435,212.27787828445435,212.27787828445435,212.27787828445435,212.27787828445435,212.27787828445435,213.56290888786316,2,1.418656587600708,None,,,,,,,,,,,,,,,,,,241,1,2025-03-13_17h04.54.401,comp,2024.2.4,56.62981180120785,2025-03-13 17h05.30.751917 -0400,
74,74,0,catch,None,None,None,None,None,None,None,None,None,None,3,0.9951162338256836,None,,,,,0,0,0,0,0,74,74,123,213.5796082019806,,,,,,,,,,,,,,,,,,,,,,,,,,,,,,,,,,,,,,,,,,,,,,,,,,,,,,,,,,,,,,,,,,,,,,,,,,,,,,,,,123,67,87,103,175,150,2.2,2.22,-181,256,0,-277,222,-272,213.5649552345276,213.56502890586853,213.5682761669159,213.5796082019806,213.73073506355286,213.73073506355286,213.73073506355286,213.73073506355286,213.73073506355286,213.73073506355286,213.73073506355286,214.58145332336426,3,0.9951162338256836,None,,,,,,,,,,,,,,,,,,241,1,2025-03-13_17h04.54.401,comp,2024.2.4,56.62981180120785,2025-03-13 17h05.30.751917 -0400,
75,75,0,filler_random,None,None,None,None,None,None,None,None,None,None,2,1.1134498119354248,None,,,,,0,0,0,0,0,75,75,135,214.59754133224487,,,,,,,,,,,,,,,,,,,,,,,,,,,,,,,,,,,,,,,,,,,,,,,,,,,,,,,,,,,,,,,,,,,,,,,,,,,,,,,,,83.22758907850084,101.9168275297838,89.58400224571547,138.55653243638335,68.09454508509003,103.40333610113854,2.1,2.12,-216,-276,0,-275,217,261,214.58326625823975,214.5833716392517,214.58674240112305,214.59754133224487,214.7495174407959,214.7495174407959,214.7495174407959,214.7495174407959,214.7495174407959,214.7495174407959,214.7495174407959,215.71698117256165,2,1.1134498119354248,None,,,,,,,,,,,,,,,,,,241,1,2025-03-13_17h04.54.401,comp,2024.2.4,56.62981180120785,2025-03-13 17h05.30.751917 -0400,
76,76,0,critical,wdh,35.0,3.0,upper,125.0,200.0,127.0,127.0,200.0,125.0,3,1.4407458305358887,None,,,,,0,0,0,0,0,76,76,75,215.7333767414093,,,,,,,,,,,,,,,,,,,,,,,,,,,,,,,,,,,,,,,,,,,,,,,,,,,,,,,,,,,,,,,,,,,,,,,,,,,,,,,,,125.0,200.0,127.0,127.0,200.0,125.0,3.0,3.1,-260,273,0,-8,222,-266,215.7187101840973,215.71878671646118,215.72268295288086,215.7333767414093,215.88146829605103,215.88146829605103,215.88146829605103,215.88146829605103,215.88146829605103,215.88146829605103,215.88146829605103,217.18658900260925,3,1.4407458305358887,None,,,,,,,,,,,,,,,,,,241,1,2025-03-13_17h04.54.401,comp,2024.2.4,56.62981180120785,2025-03-13 17h05.30.751917 -0400,
77,77,0,critical,wdh,35.0,2.1,upper,125.0,200.0,127.0,127.0,200.0,125.0,1,1.4969000816345215,None,,,,,0,0,0,0,0,77,77,33,217.205313205719,,,,,,,,,,,,,,,,,,,,,,,,,,,,,,,,,,,,,,,,,,,,,,,,,,,,,,,,,,,,,,,,,,,,,,,,,,,,,,,,,125.0,200.0,127.0,127.0,200.0,125.0,2.1,2.12,-260,-274,0,-258,222,271,217.18804001808167,217.18811798095703,217.19095921516418,217.205313205719,217.34946393966675,217.34946393966675,217.34946393966675,217.34946393966675,217.34946393966675,217.34946393966675,217.34946393966675,218.71695470809937,1,1.4969000816345215,None,,,,,,,,,,,,,,,,,,241,1,2025-03-13_17h04.54.401,comp,2024.2.4,56.62981180120785,2025-03-13 17h05.30.751917 -0400,
78,78,0,critical,whd,20.0,1.0,upper,125.0,200.0,200.0,125.0,141.0,141.0,2,2.423779249191284,None,,,,,0,0,0,0,0,78,78,91,218.73510646820068,,,,,,,,,,,,,,,,,,,,,,,,,,,,,,,,,,,,,,,,,,,,,,,,,,,,,,,,,,,,,,,,,,,,,,,,,,,,,,,,,125.0,200.0,200.0,125.0,141.0,141.0,1.0,1.1,-738,259,-480,286,-251,278,218.71852040290833,218.71859574317932,218.72234392166138,218.73510646820068,218.882572889328,218.882572889328,218.882572889328,218.882572889328,218.882572889328,218.882572889328,218.882572889328,221.1666624546051,2,2.423779249191284,None,,,,,,,,,,,,,,,,,,241,1,2025-03-13_17h04.54.401,comp,2024.2.4,56.62981180120785,2025-03-13 17h05.30.751917 -0400,
79,79,0,filler_square,None,None,None,None,None,None,None,None,None,None,3,0.8157825469970703,None,,,,,0,0,0,0,0,79,79,186,221.18265557289124,,,,,,,,,,,,,,,,,,,,,,,,,,,,,,,,,,,,,,,,,,,,,,,,,,,,,,,,,,,,,,,,,,,,,,,,,,,,,,,,,68.59964661271408,132.69068833869187,99.9891754726439,105.15939215317115,156.92301612380197,156.92301612380197,1.0,1.2,-215,-7,0,-16,227,12,221.16842126846313,221.1685025691986,221.1718225479126,221.18265557289124,221.33146119117737,221.33146119117737,221.33146119117737,221.33146119117737,221.33146119117737,221.33146119117737,221.33146119117737,222.01601600646973,3,0.8157825469970703,None,,,,,,,,,,,,,,,,,,241,1,2025-03-13_17h04.54.401,comp,2024.2.4,56.62981180120785,2025-03-13 17h05.30.751917 -0400,
80,80,0,critical,dhw,35.0,2.1,lower,70.0,70.0,133.0,57.0,57.0,133.0,2,0.934028148651123,None,,,,,0,0,0,0,0,80,80,24,222.03220129013062,,,,,,,,,,,,,,,,,,,,,,,,,,,,,,,,,,,,,,,,,,,,,,,,,,,,,,,,,,,,,,,,,,,,,,,,,,,,,,,,,70.0,70.0,133.0,57.0,57.0,133.0,2.1,2.12,-160,-285,0,-287,191,286,222.01760363578796,222.0176784992218,222.02093625068665,222.03220129013062,222.19309520721436,222.19309520721436,222.19309520721436,222.19309520721436,222.19309520721436,222.19309520721436,222.19309520721436,222.98210835456848,2,0.934028148651123,None,,,,,,,,,,,,,,,,,,241,1,2025-03-13_17h04.54.401,comp,2024.2.4,56.62981180120785,2025-03-13 17h05.30.751917 -0400,
81,81,0,critical,dhw,35.0,1.0,lower,70.0,70.0,133.0,57.0,57.0,133.0,2,0.9321963787078857,None,,,,,0,0,0,0,0,81,81,48,222.99575972557068,,,,,,,,,,,,,,,,,,,,,,,,,,,,,,,,,,,,,,,,,,,,,,,,,,,,,,,,,,,,,,,,,,,,,,,,,,,,,,,,,70.0,70.0,133.0,57.0,57.0,133.0,1.0,1.2,-160,-8,0,8,191,14,222.98355531692505,222.983628988266,222.98673582077026,222.99575972557068,223.13395977020264,223.13395977020264,223.13395977020264,223.13395977020264,223.13395977020264,223.13395977020264,223.13395977020264,223.93303537368774,2,0.9321963787078857,None,,,,,,,,,,,,,,,,,,241,1,2025-03-13_17h04.54.401,comp,2024.2.4,56.62981180120785,2025-03-13 17h05.30.751917 -0400,
82,82,0,critical,dhw,35.0,4.0,upper,127.0,127.0,200.0,125.0,125.0,200.0,2,1.6867949962615967,None,,,,,0,0,0,0,0,82,82,53,223.95144629478455,,,,,,,,,,,,,,,,,,,,,,,,,,,,,,,,,,,,,,,,,,,,,,,,,,,,,,,,,,,,,,,,,,,,,,,,,,,,,,,,,127.0,127.0,200.0,125.0,125.0,200.0,4.0,4.1,-222,-255,0,-6,258,-290,223.934508562088,223.93458533287048,223.9377179145813,223.95144629478455,224.10199642181396,224.10199642181396,224.10199642181396,224.10199642181396,224.10199642181396,224.10199642181396,224.10199642181396,225.65179419517517,2,1.6867949962615967,None,,,,,,,,,,,,,,,,,,241,1,2025-03-13_17h04.54.401,comp,2024.2.4,56.62981180120785,2025-03-13 17h05.30.751917 -0400,
83,83,0,filler_square,None,None,None,None,None,None,None,None,None,None,3,1.154146432876587,None,,,,,0,0,0,0,0,83,83,200,225.66794633865356,,,,,,,,,,,,,,,,,,,,,,,,,,,,,,,,,,,,,,,,,,,,,,,,,,,,,,,,,,,,,,,,,,,,,,,,,,,,,,,,,88.61297195780952,86.68696624290014,86.7086955014302,104.05004042332148,112.86758478643243,112.86758478643243,2.2,2.21,-191,-273,0,288,204,265,225.65349435806274,225.65359234809875,225.6575427055359,225.66794633865356,225.82145142555237,225.82145142555237,225.82145142555237,225.82145142555237,225.82145142555237,225.82145142555237,225.82145142555237,226.83400535583496,3,1.154146432876587,None,,,,,,,,,,,,,,,,,,241,1,2025-03-13_17h04.54.401,comp,2024.2.4,56.62981180120785,2025-03-13 17h05.30.751917 -0400,
84,84,0,filler_random,None,None,None,None,None,None,None,None,None,None,1,1.386498212814331,None,,,,,0,0,0,0,0,84,84,164,226.8517415523529,,,,,,,,,,,,,,,,,,,,,,,,,,,,,,,,,,,,,,,,,,,,,,,,,,,,,,,,,,,,,,,,,,,,,,,,,,,,,,,,,169.8595328722579,188.3195964880764,187.6928633717937,120.72598967605101,149.60794136456832,84.80125647234439,4.0,4.1,-251,-262,0,8,199,-253,226.83567714691162,226.8357527256012,226.83874535560608,226.8517415523529,227.00148558616638,227.00148558616638,227.00148558616638,227.00148558616638,227.00148558616638,227.00148558616638,227.00148558616638,228.25398921966553,1,1.386498212814331,None,,,,,,,,,,,,,,,,,,241,1,2025-03-13_17h04.54.401,comp,2024.2.4,56.62981180120785,2025-03-13 17h05.30.751917 -0400,
85,85,0,filler_random,None,None,None,None,None,None,None,None,None,None,1,1.1113154888153076,None,,,,,0,0,0,0,0,85,85,150,228.27126836776733,,,,,,,,,,,,,,,,,,,,,,,,,,,,,,,,,,,,,,,,,,,,,,,,,,,,,,,,,,,,,,,,,,,,,,,,,,,,,,,,,185.08629776106272,136.12465300131788,59.42591122968173,159.3249336155966,162.92049227082552,134.3536027934254,1.0,1.3,236,-278,480,-279,723,-258,228.25574326515198,228.25582194328308,228.25872230529785,228.27126836776733,228.41942954063416,228.41942954063416,228.41942954063416,228.41942954063416,228.41942954063416,228.41942954063416,228.41942954063416,229.38467168807983,1,1.1113154888153076,None,,,,,,,,,,,,,,,,,,241,1,2025-03-13_17h04.54.401,comp,2024.2.4,56.62981180120785,2025-03-13 17h05.30.751917 -0400,
86,86,0,filler_square,None,None,None,None,None,None,None,None,None,None,3,0.8540458679199219,None,,,,,0,0,0,0,0,86,86,195,229.4003608226776,,,,,,,,,,,,,,,,,,,,,,,,,,,,,,,,,,,,,,,,,,,,,,,,,,,,,,,,,,,,,,,,,,,,,,,,,,,,,,,,,126.522010058686,114.06057738138247,95.05919732495866,133.03244860746264,170.4661289996475,170.4661289996475,2.2,2.22,-220,276,0,-281,248,-262,229.3865213394165,229.3866000175476,229.38981175422668,229.4003608226776,229.55167770385742,229.55167770385742,229.55167770385742,229.55167770385742,229.55167770385742,229.55167770385742,229.55167770385742,230.2566101551056,3,0.8540458679199219,None,,,,,,,,,,,,,,,,,,241,1,2025-03-13_17h04.54.401,comp,2024.2.4,56.62981180120785,2025-03-13 17h05.30.751917 -0400,
87,87,0,critical,hwd,20.0,1.0,upper,200.0,125.0,125.0,200.0,141.0,141.0,1,0.9559938907623291,None,,,,,0,0,0,0,0,87,87,103,230.27490615844727,,,,,,,,,,,,,,,,,,,,,,,,,,,,,,,,,,,,,,,,,,,,,,,,,,,,,,,,,,,,,,,,,,,,,,,,,,,,,,,,,200.0,125.0,125.0,200.0,141.0,141.0,1.0,1.3,222,-276,480,-254,746,-251,230.25819087028503,230.25826740264893,230.26119136810303,230.27490615844727,230.41956877708435,230.41956877708435,230.41956877708435,230.41956877708435,230.41956877708435,230.41956877708435,230.41956877708435,231.23733520507812,1,0.9559938907623291,None,,,,,,,,,,,,,,,,,,241,1,2025-03-13_17h04.54.401,comp,2024.2.4,56.62981180120785,2025-03-13 17h05.30.751917 -0400,
88,88,0,critical,hwd,35.0,1.0,upper,200.0,125.0,125.0,200.0,127.0,127.0,1,0.9152562618255615,None,,,,,0,0,0,0,0,88,88,97,231.25891041755676,,,,,,,,,,,,,,,,,,,,,,,,,,,,,,,,,,,,,,,,,,,,,,,,,,,,,,,,,,,,,,,,,,,,,,,,,,,,,,,,,200.0,125.0,125.0,200.0,127.0,127.0,1.0,1.1,-738,276,-480,253,-220,257,231.23887825012207,231.23895502090454,231.2419729232788,231.25891041755676,231.40495777130127,231.40495777130127,231.40495777130127,231.40495777130127,231.40495777130127,231.40495777130127,231.40495777130127,232.18595337867737,1,0.9152562618255615,None,,,,,,,,,,,,,,,,,,241,1,2025-03-13_17h04.54.401,comp,2024.2.4,56.62981180120785,2025-03-13 17h05.30.751917 -0400,
89,89,0,filler_square,None,None,None,None,None,None,None,None,None,None,2,0.9156711101531982,None,,,,,0,0,0,0,0,89,89,181,232.20309925079346,,,,,,,,,,,,,,,,,,,,,,,,,,,,,,,,,,,,,,,,,,,,,,,,,,,,,,,,,,,,,,,,,,,,,,,,,,,,,,,,,129.73272815588095,172.47252331774365,181.43537203469987,181.43537203469987,92.64132983158454,134.83808778263932,2.1,2.12,-273,-252,0,-264,254,265,232.18778038024902,232.18785667419434,232.19089341163635,232.20309925079346,232.34951281547546,232.34951281547546,232.34951281547546,232.34951281547546,232.34951281547546,232.34951281547546,232.34951281547546,233.13728404045105,2,0.9156711101531982,None,,,,,,,,,,,,,,,,,,241,1,2025-03-13_17h04.54.401,comp,2024.2.4,56.62981180120785,2025-03-13 17h05.30.751917 -0400,
90,90,0,filler_square,None,None,None,None,None,None,None,None,None,None,3,0.9106230735778809,None,,,,,0,0,0,0,0,90,90,203,233.15321850776672,,,,,,,,,,,,,,,,,,,,,,,,,,,,,,,,,,,,,,,,,,,,,,,,,,,,,,,,,,,,,,,,,,,,,,,,,,,,,,,,,138.93132780515242,67.10686819697254,109.00927578335966,147.53182397387562,197.67887680185186,197.67887680185186,2.1,2.11,-203,260,0,278,269,-277,233.1392412185669,233.1393756866455,233.1427617073059,233.15321850776672,233.3065083026886,233.3065083026886,233.3065083026886,233.3065083026886,233.3065083026886,233.3065083026886,233.3065083026886,234.07186913490295,3,0.9106230735778809,None,,,,,,,,,,,,,,,,,,241,1,2025-03-13_17h04.54.401,comp,2024.2.4,56.62981180120785,2025-03-13 17h05.30.751917 -0400,
91,91,0,critical,hwd,20.0,2.1,lower,133.0,57.0,57.0,133.0,78.0,78.0,1,1.7808716297149658,None,,,,,0,0,0,0,0,91,91,18,234.0893657207489,,,,,,,,,,,,,,,,,,,,,,,,,,,,,,,,,,,,,,,,,,,,,,,,,,,,,,,,,,,,,,,,,,,,,,,,,,,,,,,,,133.0,57.0,57.0,133.0,78.0,78.0,2.1,2.12,-191,-253,0,-250,202,276,234.07329726219177,234.07343888282776,234.0763716697693,234.0893657207489,234.23596358299255,234.23596358299255,234.23596358299255,234.23596358299255,234.23596358299255,234.23596358299255,234.23596358299255,235.87249779701233,1,1.7808716297149658,None,,,,,,,,,,,,,,,,,,241,1,2025-03-13_17h04.54.401,comp,2024.2.4,56.62981180120785,2025-03-13 17h05.30.751917 -0400,
92,92,0,filler_square,None,None,None,None,None,None,None,None,None,None,2,1.046250820159912,None,,,,,0,0,0,0,0,92,92,177,235.8883559703827,,,,,,,,,,,,,,,,,,,,,,,,,,,,,,,,,,,,,,,,,,,,,,,,,,,,,,,,,,,,,,,,,,,,,,,,,,,,,,,,,57.87947394176754,78.60624030696286,151.61748081552656,151.61748081552656,95.47083377817934,110.14459943982267,2.1,2.12,-211,-279,0,-270,227,250,235.87433123588562,235.87447381019592,235.8776090145111,235.8883559703827,236.03623628616333,236.03623628616333,236.03623628616333,236.03623628616333,236.03623628616333,236.03623628616333,236.03623628616333,236.93711709976196,2,1.046250820159912,None,,,,,,,,,,,,,,,,,,241,1,2025-03-13_17h04.54.401,comp,2024.2.4,56.62981180120785,2025-03-13 17h05.30.751917 -0400,
93,93,0,critical,dwh,35.0,2.1,lower,70.0,70.0,57.0,133.0,133.0,57.0,2,2.2376270294189453,None,,,,,0,0,0,0,0,93,93,4,236.95257258415222,,,,,,,,,,,,,,,,,,,,,,,,,,,,,,,,,,,,,,,,,,,,,,,,,,,,,,,,,,,,,,,,,,,,,,,,,,,,,,,,,70.0,70.0,57.0,133.0,133.0,57.0,2.1,2.11,-198,282,0,264,191,-270,236.9386487007141,236.9387264251709,236.94184970855713,236.95257258415222,237.10496139526367,237.10496139526367,237.10496139526367,237.10496139526367,237.10496139526367,237.10496139526367,237.10496139526367,239.2055160999298,2,2.2376270294189453,None,,,,,,,,,,,,,,,,,,241,1,2025-03-13_17h04.54.401,comp,2024.2.4,56.62981180120785,2025-03-13 17h05.30.751917 -0400,
94,94,0,critical,wdh,20.0,1.0,upper,125.0,200.0,141.0,141.0,200.0,125.0,3,2.2492549419403076,None,,,,,0,0,0,0,0,94,94,79,239.22177052497864,,,,,,,,,,,,,,,,,,,,,,,,,,,,,,,,,,,,,,,,,,,,,,,,,,,,,,,,,,,,,,,,,,,,,,,,,,,,,,,,,125.0,200.0,141.0,141.0,200.0,125.0,1.0,1.3,214,-287,480,-286,709,-280,239.2071349620819,239.20721077919006,239.21135663986206,239.22177052497864,239.37082314491272,239.37082314491272,239.37082314491272,239.37082314491272,239.37082314491272,239.37082314491272,239.37082314491272,241.49019765853882,3,2.2492549419403076,None,,,,,,,,,,,,,,,,,,241,1,2025-03-13_17h04.54.401,comp,2024.2.4,56.62981180120785,2025-03-13 17h05.30.751917 -0400,
95,95,0,filler_random,None,None,None,None,None,None,None,None,None,None,3,2.6532058715820312,None,,,,,0,0,0,0,0,95,95,168,241.5053162574768,,,,,,,,,,,,,,,,,,,,,,,,,,,,,,,,,,,,,,,,,,,,,,,,,,,,,,,,,,,,,,,,,,,,,,,,,,,,,,,,,112.25137317318311,103.26029024301201,74.2516380078421,148.8492643706387,111.33675469050353,138.8140420798008,2.1,2.11,-222,266,0,259,240,-282,241.49191665649414,241.49199318885803,241.49500131607056,241.5053162574768,241.65420389175415,241.65420389175415,241.65420389175415,241.65420389175415,241.65420389175415,241.65420389175415,241.65420389175415,244.17654395103455,3,2.6532058715820312,None,,,,,,,,,,,,,,,,,,241,1,2025-03-13_17h04.54.401,comp,2024.2.4,56.62981180120785,2025-03-13 17h05.30.751917 -0400,
96,96,0,critical,whd,35.0,1.0,upper,125.0,200.0,200.0,125.0,127.0,127.0,2,1.198587417602539,None,,,,,0,0,0,0,0,96,96,85,244.19164204597473,,,,,,,,,,,,,,,,,,,,,,,,,,,,,,,,,,,,,,,,,,,,,,,,,,,,,,,,,,,,,,,,,,,,,,,,,,,,,,,,,125.0,200.0,200.0,125.0,127.0,127.0,1.0,1.3,222,-283,480,-273,702,-270,244.17813730239868,244.17821526527405,244.18131732940674,244.19164204597473,244.34131693840027,244.34131693840027,244.34131693840027,244.34131693840027,244.34131693840027,244.34131693840027,244.34131693840027,245.40947127342224,2,1.198587417602539,None,,,,,,,,,,,,,,,,,,241,1,2025-03-13_17h04.54.401,comp,2024.2.4,56.62981180120785,2025-03-13 17h05.30.751917 -0400,
97,97,0,critical,hdw,35.0,2.1,lower,133.0,57.0,70.0,70.0,57.0,133.0,1,2.2325966358184814,None,,,,,0,0,0,0,0,97,97,20,245.42961955070496,,,,,,,,,,,,,,,,,,,,,,,,,,,,,,,,,,,,,,,,,,,,,,,,,,,,,,,,,,,,,,,,,,,,,,,,,,,,,,,,,133.0,57.0,70.0,70.0,57.0,133.0,2.1,2.11,-160,255,0,256,198,-256,245.41108441352844,245.41118335723877,245.41431784629822,245.42961955070496,245.5734474658966,245.5734474658966,245.5734474658966,245.5734474658966,245.5734474658966,245.5734474658966,245.5734474658966,247.6778461933136,1,2.2325966358184814,None,,,,,,,,,,,,,,,,,,241,1,2025-03-13_17h04.54.401,comp,2024.2.4,56.62981180120785,2025-03-13 17h05.30.751917 -0400,
98,98,0,filler_square,None,None,None,None,None,None,None,None,None,None,2,1.2112610340118408,None,,,,,0,0,0,0,0,98,98,188,247.69898128509521,,,,,,,,,,,,,,,,,,,,,,,,,,,,,,,,,,,,,,,,,,,,,,,,,,,,,,,,,,,,,,,,,,,,,,,,,,,,,,,,,67.22026636301828,67.79942348456254,77.98998610886389,77.98998610886389,67.24824925625362,66.01602170671958,1.0,1.2,-169,16,0,-8,168,2,247.67987632751465,247.6800343990326,247.68320393562317,247.69898128509521,247.84173679351807,247.84173679351807,247.84173679351807,247.84173679351807,247.84173679351807,247.84173679351807,247.84173679351807,248.92622137069702,2,1.2112610340118408,None,,,,,,,,,,,,,,,,,,241,1,2025-03-13_17h04.54.401,comp,2024.2.4,56.62981180120785,2025-03-13 17h05.30.751917 -0400,
99,99,0,filler_square,None,None,None,None,None,None,None,None,None,None,3,0.793013334274292,None,,,,,0,0,0,0,0,99,99,173,248.94300079345703,,,,,,,,,,,,,,,,,,,,,,,,,,,,,,,,,,,,,,,,,,,,,,,,,,,,,,,,,,,,,,,,,,,,,,,,,,,,,,,,,139.46080925603218,186.93728367238364,97.84382913093452,148.6388696894195,193.55933628710537,193.55933628710537,4.0,4.1,-264,-258,0,3,267,-288,248.92821049690247,248.92830896377563,248.93169450759888,248.94300079345703,249.08066606521606,249.08066606521606,249.08066606521606,249.08066606521606,249.08066606521606,249.08066606521606,249.08066606521606,249.73898816108704,3,0.793013334274292,None,,,,,,,,,,,,,,,,,,241,1,2025-03-13_17h04.54.401,comp,2024.2.4,56.62981180120785,2025-03-13 17h05.30.751917 -0400,
100,100,0,critical,dwh,20.0,4.0,upper,141.0,141.0,125.0,200.0,200.0,125.0,2,1.0021986961364746,None,,,,,0,0,0,0,0,100,100,71,249.75669646263123,,,,,,,,,,,,,,,,,,,,,,,,,,,,,,,,,,,,,,,,,,,,,,,,,,,,,,,,,,,,,,,,,,,,,,,,,,,,,,,,,141.0,141.0,125.0,200.0,200.0,125.0,4.0,4.1,-266,-257,0,3,258,-273,249.7405083179474,249.74058389663696,249.74348258972168,249.75669646263123,249.89234495162964,249.89234495162964,249.89234495162964,249.89234495162964,249.89234495162964,249.89234495162964,249.89234495162964,250.76565289497375,2,1.0021986961364746,None,,,,,,,,,,,,,,,,,,241,1,2025-03-13_17h04.54.401,comp,2024.2.4,56.62981180120785,2025-03-13 17h05.30.751917 -0400,
101,101,0,catch,None,None,None,None,None,None,None,None,None,None,2,0.8070688247680664,None,,,,,0,0,0,0,0,101,101,124,250.7835693359375,,,,,,,,,,,,,,,,,,,,,,,,,,,,,,,,,,,,,,,,,,,,,,,,,,,,,,,,,,,,,,,,,,,,,,,,,,,,,,,,,84,106,144,181,85,105,4.0,4.2,-240,-15,0,-285,239,5,250.76752924919128,250.76760721206665,250.7704176902771,250.7835693359375,250.9258873462677,250.9258873462677,250.9258873462677,250.9258873462677,250.9258873462677,250.9258873462677,250.9258873462677,251.6125659942627,2,0.8070688247680664,None,,,,,,,,,,,,,,,,,,241,1,2025-03-13_17h04.54.401,comp,2024.2.4,56.62981180120785,2025-03-13 17h05.30.751917 -0400,
102,102,0,filler_square,None,None,None,None,None,None,None,None,None,None,3,0.9438090324401855,None,,,,,0,0,0,0,0,102,102,176,251.63041019439697,,,,,,,,,,,,,,,,,,,,,,,,,,,,,,,,,,,,,,,,,,,,,,,,,,,,,,,,,,,,,,,,,,,,,,,,,,,,,,,,,105.1070205179055,110.76010823262322,146.42930324946013,130.99244522462055,155.3238836072317,155.3238836072317,3.0,3.1,-217,251,0,19,239,-260,251.61441159248352,251.6145122051239,251.61742639541626,251.63041019439697,251.77606511116028,251.77606511116028,251.77606511116028,251.77606511116028,251.77606511116028,251.77606511116028,251.77606511116028,252.59163069725037,3,0.9438090324401855,None,,,,,,,,,,,,,,,,,,241,1,2025-03-13_17h04.54.401,comp,2024.2.4,56.62981180120785,2025-03-13 17h05.30.751917 -0400,
103,103,0,critical,hwd,35.0,1.0,lower,133.0,57.0,57.0,133.0,70.0,70.0,2,0.9191112518310547,None,,,,,0,0,0,0,0,103,103,96,252.6073136329651,,,,,,,,,,,,,,,,,,,,,,,,,,,,,,,,,,,,,,,,,,,,,,,,,,,,,,,,,,,,,,,,,,,,,,,,,,,,,,,,,133.0,57.0,57.0,133.0,70.0,70.0,1.0,1.2,-191,-5,0,11,198,19,252.5930416584015,252.59311723709106,252.5961434841156,252.6073136329651,252.74343872070312,252.74343872070312,252.74343872070312,252.74343872070312,252.74343872070312,252.74343872070312,252.74343872070312,253.54305744171143,2,0.9191112518310547,None,,,,,,,,,,,,,,,,,,241,1,2025-03-13_17h04.54.401,comp,2024.2.4,56.62981180120785,2025-03-13 17h05.30.751917 -0400,
104,104,0,filler_square,None,None,None,None,None,None,None,None,None,None,3,1.0870416164398193,None,,,,,0,0,0,0,0,104,104,174,253.55919575691223,,,,,,,,,,,,,,,,,,,,,,,,,,,,,,,,,,,,,,,,,,,,,,,,,,,,,,,,,,,,,,,,,,,,,,,,,,,,,,,,,167.01805541101623,151.71527612682073,160.24508602886726,117.00021471607602,196.58658611112867,196.58658611112867,3.0,3.2,-230,-272,0,20,253,272,253.54510617256165,253.54518151283264,253.54856133460999,253.55919575691223,253.7093002796173,253.7093002796173,253.7093002796173,253.7093002796173,253.7093002796173,253.7093002796173,253.7093002796173,254.65991926193237,3,1.0870416164398193,None,,,,,,,,,,,,,,,,,,241,1,2025-03-13_17h04.54.401,comp,2024.2.4,56.62981180120785,2025-03-13 17h05.30.751917 -0400,
105,105,0,catch,None,None,None,None,None,None,None,None,None,None,3,0.986720085144043,None,,,,,0,0,0,0,0,105,105,126,254.67606282234192,,,,,,,,,,,,,,,,,,,,,,,,,,,,,,,,,,,,,,,,,,,,,,,,,,,,,,,,,,,,,,,,,,,,,,,,,,,,,,,,,110,80,85,105,200,125,4.0,4.2,-188,19,0,-277,211,-17,254.6617476940155,254.6618230342865,254.66487979888916,254.67606282234192,254.82696413993835,254.82696413993835,254.82696413993835,254.82696413993835,254.82696413993835,254.82696413993835,254.82696413993835,255.6742286682129,3,0.986720085144043,None,,,,,,,,,,,,,,,,,,241,1,2025-03-13_17h04.54.401,comp,2024.2.4,56.62981180120785,2025-03-13 17h05.30.751917 -0400,
106,106,0,critical,wdh,35.0,4.0,upper,125.0,200.0,127.0,127.0,200.0,125.0,3,1.0746872425079346,None,,,,,0,0,0,0,0,106,106,77,255.69151711463928,,,,,,,,,,,,,,,,,,,,,,,,,,,,,,,,,,,,,,,,,,,,,,,,,,,,,,,,,,,,,,,,,,,,,,,,,,,,,,,,,125.0,200.0,127.0,127.0,200.0,125.0,4.0,4.2,-260,16,0,-283,222,-7,255.67578220367432,255.67585611343384,255.67910647392273,255.69151711463928,255.84551310539246,255.84551310539246,255.84551310539246,255.84551310539246,255.84551310539246,255.84551310539246,255.84551310539246,256.77748441696167,3,1.0746872425079346,None,,,,,,,,,,,,,,,,,,241,1,2025-03-13_17h04.54.401,comp,2024.2.4,56.62981180120785,2025-03-13 17h05.30.751917 -0400,
107,107,0,critical,dhw,20.0,1.0,lower,78.0,78.0,133.0,57.0,57.0,133.0,2,0.9485161304473877,None,,,,,0,0,0,0,0,107,107,54,256.79383158683777,,,,,,,,,,,,,,,,,,,,,,,,,,,,,,,,,,,,,,,,,,,,,,,,,,,,,,,,,,,,,,,,,,,,,,,,,,,,,,,,,78.0,78.0,133.0,57.0,57.0,133.0,1.0,1.1,-644,270,-480,289,-289,251,256.77892303466797,256.7789969444275,256.78215289115906,256.79383158683777,256.9448273181915,256.9448273181915,256.9448273181915,256.9448273181915,256.9448273181915,256.9448273181915,256.9448273181915,257.7472634315491,2,0.9485161304473877,None,,,,,,,,,,,,,,,,,,241,1,2025-03-13_17h04.54.401,comp,2024.2.4,56.62981180120785,2025-03-13 17h05.30.751917 -0400,
108,108,0,critical,dwh,35.0,2.1,upper,127.0,127.0,125.0,200.0,200.0,125.0,2,2.920896053314209,None,,,,,0,0,0,0,0,108,108,29,257.76531744003296,,,,,,,,,,,,,,,,,,,,,,,,,,,,,,,,,,,,,,,,,,,,,,,,,,,,,,,,,,,,,,,,,,,,,,,,,,,,,,,,,127.0,127.0,125.0,200.0,200.0,125.0,2.1,2.11,-260,284,0,259,258,-271,257.7488474845886,257.748925447464,257.7522931098938,257.76531744003296,257.9113268852234,257.9113268852234,257.9113268852234,257.9113268852234,257.9113268852234,257.9113268852234,257.9113268852234,260.69867968559265,2,2.920896053314209,None,,,,,,,,,,,,,,,,,,241,1,2025-03-13_17h04.54.401,comp,2024.2.4,56.62981180120785,2025-03-13 17h05.30.751917 -0400,
109,109,0,critical,hwd,35.0,3.0,upper,200.0,125.0,125.0,200.0,127.0,127.0,2,1.059762954711914,None,,,,,0,0,0,0,0,109,109,99,260.7150523662567,,,,,,,,,,,,,,,,,,,,,,,,,,,,,,,,,,,,,,,,,,,,,,,,,,,,,,,,,,,,,,,,,,,,,,,,,,,,,,,,,200.0,125.0,125.0,200.0,127.0,127.0,3.0,3.1,-258,262,0,-10,260,-278,260.7003252506256,260.70044326782227,260.70376539230347,260.7150523662567,260.86249923706055,260.86249923706055,260.86249923706055,260.86249923706055,260.86249923706055,260.86249923706055,260.86249923706055,261.78198742866516,2,1.059762954711914,None,,,,,,,,,,,,,,,,,,241,1,2025-03-13_17h04.54.401,comp,2024.2.4,56.62981180120785,2025-03-13 17h05.30.751917 -0400,
110,110,0,critical,dhw,20.0,2.1,upper,141.0,141.0,200.0,125.0,125.0,200.0,3,1.4006152153015137,None,,,,,0,0,0,0,0,110,110,27,261.7976086139679,,,,,,,,,,,,,,,,,,,,,,,,,,,,,,,,,,,,,,,,,,,,,,,,,,,,,,,,,,,,,,,,,,,,,,,,,,,,,,,,,141.0,141.0,200.0,125.0,125.0,200.0,2.1,2.11,-229,276,0,269,258,-273,261.7835931777954,261.783668756485,261.7869703769684,261.7976086139679,261.9447777271271,261.9447777271271,261.9447777271271,261.9447777271271,261.9447777271271,261.9447777271271,261.9447777271271,263.21247363090515,3,1.4006152153015137,None,,,,,,,,,,,,,,,,,,241,1,2025-03-13_17h04.54.401,comp,2024.2.4,56.62981180120785,2025-03-13 17h05.30.751917 -0400,
111,111,0,filler_square,None,None,None,None,None,None,None,None,None,None,2,1.018247127532959,None,,,,,0,0,0,0,0,111,111,190,263.2280366420746,,,,,,,,,,,,,,,,,,,,,,,,,,,,,,,,,,,,,,,,,,,,,,,,,,,,,,,,,,,,,,,,,,,,,,,,,,,,,,,,,74.35646685356078,90.06907545839246,96.94525370494837,96.94525370494837,58.39200634435015,71.54251227767311,2.2,2.22,-190,279,0,-259,180,-277,263.21419072151184,263.21426701545715,263.21733927726746,263.2280366420746,263.38240909576416,263.38240909576416,263.38240909576416,263.38240909576416,263.38240909576416,263.38240909576416,263.38240909576416,264.260990858078,2,1.018247127532959,None,,,,,,,,,,,,,,,,,,241,1,2025-03-13_17h04.54.401,comp,2024.2.4,56.62981180120785,2025-03-13 17h05.30.751917 -0400,
112,112,0,critical,dwh,20.0,3.0,lower,78.0,78.0,57.0,133.0,133.0,57.0,2,2.2260735034942627,None,,,,,0,0,0,0,0,112,112,68,264.2776310443878,,,,,,,,,,,,,,,,,,,,,,,,,,,,,,,,,,,,,,,,,,,,,,,,,,,,,,,,,,,,,,,,,,,,,,,,,,,,,,,,,78.0,78.0,57.0,133.0,133.0,57.0,3.0,3.2,-202,-280,0,1,191,283,264.2624533176422,264.2625277042389,264.2653651237488,264.2776310443878,264.41432929039,264.41432929039,264.41432929039,264.41432929039,264.41432929039,264.41432929039,264.41432929039,266.51434683799744,2,2.2260735034942627,None,,,,,,,,,,,,,,,,,,241,1,2025-03-13_17h04.54.401,comp,2024.2.4,56.62981180120785,2025-03-13 17h05.30.751917 -0400,
113,113,0,critical,wdh,35.0,2.1,lower,57.0,133.0,70.0,70.0,133.0,57.0,3,1.2201321125030518,None,,,,,0,0,0,0,0,113,113,32,266.53010082244873,,,,,,,,,,,,,,,,,,,,,,,,,,,,,,,,,,,,,,,,,,,,,,,,,,,,,,,,,,,,,,,,,,,,,,,,,,,,,,,,,57.0,133.0,70.0,70.0,133.0,57.0,2.1,2.12,-198,-256,0,-267,160,269,266.5158314704895,266.51590514183044,266.51930832862854,266.53010082244873,266.6803390979767,266.6803390979767,266.6803390979767,266.6803390979767,266.6803390979767,266.6803390979767,266.6803390979767,267.76181292533875,3,1.2201321125030518,None,,,,,,,,,,,,,,,,,,241,1,2025-03-13_17h04.54.401,comp,2024.2.4,56.62981180120785,2025-03-13 17h05.30.751917 -0400,
114,114,0,filler_square,None,None,None,None,None,None,None,None,None,None,2,0.891883373260498,None,,,,,0,0,0,0,0,114,114,172,267.77851963043213,,,,,,,,,,,,,,,,,,,,,,,,,,,,,,,,,,,,,,,,,,,,,,,,,,,,,,,,,,,,,,,,,,,,,,,,,,,,,,,,,129.177878640549,159.66012487858515,162.51414608234143,162.51414608234143,76.1097016147223,64.78197173020422,3.0,3.1,-257,256,0,-9,210,-288,267.7637701034546,267.7638506889343,267.7670052051544,267.77851963043213,267.91380643844604,267.91380643844604,267.91380643844604,267.91380643844604,267.91380643844604,267.91380643844604,267.91380643844604,268.6852147579193,2,0.891883373260498,None,,,,,,,,,,,,,,,,,,241,1,2025-03-13_17h04.54.401,comp,2024.2.4,56.62981180120785,2025-03-13 17h05.30.751917 -0400,
115,115,0,catch,None,None,None,None,None,None,None,None,None,None,1,0.98291015625,None,,,,,0,0,0,0,0,115,115,125,268.7034044265747,,,,,,,,,,,,,,,,,,,,,,,,,,,,,,,,,,,,,,,,,,,,,,,,,,,,,,,,,,,,,,,,,,,,,,,,,,,,,,,,,184,141,79,111,106,84,3.0,3.2,-222,-255,0,1,194,259,268.68755173683167,268.68763041496277,268.6906359195709,268.7034044265747,268.84754395484924,268.84754395484924,268.84754395484924,268.84754395484924,268.84754395484924,268.84754395484924,268.84754395484924,269.6995940208435,1,0.98291015625,None,,,,,,,,,,,,,,,,,,241,1,2025-03-13_17h04.54.401,comp,2024.2.4,56.62981180120785,2025-03-13 17h05.30.751917 -0400,
116,116,0,critical,whd,35.0,4.0,lower,57.0,133.0,133.0,57.0,70.0,70.0,2,1.0594491958618164,None,,,,,0,0,0,0,0,116,116,88,269.7156593799591,,,,,,,,,,,,,,,,,,,,,,,,,,,,,,,,,,,,,,,,,,,,,,,,,,,,,,,,,,,,,,,,,,,,,,,,,,,,,,,,,57.0,133.0,133.0,57.0,70.0,70.0,4.0,4.2,-191,5,0,-263,160,-18,269.70112800598145,269.7012028694153,269.70509576797485,269.7156593799591,269.87019991874695,269.87019991874695,269.87019991874695,269.87019991874695,269.87019991874695,269.87019991874695,269.87019991874695,270.7808201313019,2,1.0594491958618164,None,,,,,,,,,,,,,,,,,,241,1,2025-03-13_17h04.54.401,comp,2024.2.4,56.62981180120785,2025-03-13 17h05.30.751917 -0400,
117,117,0,filler_square,None,None,None,None,None,None,None,None,None,None,3,0.8333003520965576,None,,,,,0,0,0,0,0,117,117,199,270.7974922657013,,,,,,,,,,,,,,,,,,,,,,,,,,,,,,,,,,,,,,,,,,,,,,,,,,,,,,,,,,,,,,,,,,,,,,,,,,,,,,,,,70.57850577228879,72.79038045391626,73.85426979780691,84.61755454332734,104.16229432899095,104.16229432899095,2.2,2.21,-175,-268,0,270,190,267,270.7826018333435,270.7826793193817,270.7858428955078,270.7974922657013,270.9388620853424,270.9388620853424,270.9388620853424,270.9388620853424,270.9388620853424,270.9388620853424,270.9388620853424,271.64784598350525,3,0.8333003520965576,None,,,,,,,,,,,,,,,,,,241,1,2025-03-13_17h04.54.401,comp,2024.2.4,56.62981180120785,2025-03-13 17h05.30.751917 -0400,
118,118,0,critical,wdh,20.0,3.0,lower,57.0,133.0,78.0,78.0,133.0,57.0,1,2.2785491943359375,None,,,,,0,0,0,0,0,118,118,80,271.6638412475586,,,,,,,,,,,,,,,,,,,,,,,,,,,,,,,,,,,,,,,,,,,,,,,,,,,,,,,,,,,,,,,,,,,,,,,,,,,,,,,,,57.0,133.0,78.0,78.0,133.0,57.0,3.0,3.1,-202,272,0,-7,164,-280,271.64932084083557,271.64941453933716,271.65240120887756,271.6638412475586,271.80360412597656,271.80360412597656,271.80360412597656,271.80360412597656,271.80360412597656,271.80360412597656,271.80360412597656,273.94755244255066,1,2.2785491943359375,None,,,,,,,,,,,,,,,,,,241,1,2025-03-13_17h04.54.401,comp,2024.2.4,56.62981180120785,2025-03-13 17h05.30.751917 -0400,
119,119,0,critical,dwh,20.0,2.1,lower,78.0,78.0,57.0,133.0,133.0,57.0,3,1.114616870880127,None,,,,,0,0,0,0,0,119,119,30,273.9643335342407,,,,,,,,,,,,,,,,,,,,,,,,,,,,,,,,,,,,,,,,,,,,,,,,,,,,,,,,,,,,,,,,,,,,,,,,,,,,,,,,,78.0,78.0,57.0,133.0,133.0,57.0,2.1,2.11,-202,286,0,264,191,-279,273.9491636753082,273.9492394924164,273.9525272846222,273.9643335342407,274.099734544754,274.099734544754,274.099734544754,274.099734544754,274.099734544754,274.099734544754,274.099734544754,275.0839788913727,3,1.114616870880127,None,,,,,,,,,,,,,,,,,,241,1,2025-03-13_17h04.54.401,comp,2024.2.4,56.62981180120785,2025-03-13 17h05.30.751917 -0400,
120,120,0,critical,hdw,20.0,2.1,lower,133.0,57.0,78.0,78.0,57.0,133.0,1,1.6184241771697998,None,,,,,0,0,0,0,0,120,120,22,275.1000609397888,,,,,,,,,,,,,,,,,,,,,,,,,,,,,,,,,,,,,,,,,,,,,,,,,,,,,,,,,,,,,,,,,,,,,,,,,,,,,,,,,133.0,57.0,78.0,78.0,57.0,133.0,2.1,2.11,-164,273,0,264,202,-284,275.08556270599365,275.0856628417969,275.0891363620758,275.1000609397888,275.25305247306824,275.25305247306824,275.25305247306824,275.25305247306824,275.25305247306824,275.25305247306824,275.25305247306824,276.7368550300598,1,1.6184241771697998,None,,,,,,,,,,,,,,,,,,241,1,2025-03-13_17h04.54.401,comp,2024.2.4,56.62981180120785,2025-03-13 17h05.30.751917 -0400,
121,121,0,filler_random,None,None,None,None,None,None,None,None,None,None,3,0.7791521549224854,None,,,,,0,0,0,0,0,121,121,152,276.7554750442505,,,,,,,,,,,,,,,,,,,,,,,,,,,,,,,,,,,,,,,,,,,,,,,,,,,,,,,,,,,,,,,,,,,,,,,,,,,,,,,,,177.53939217033007,73.45575971943423,196.47561471936626,107.72968439023033,167.90683141734087,141.9769327572988,2.2,2.21,-187,-262,0,270,221,283,276.7386612892151,276.738737821579,276.7416203022003,276.7554750442505,276.90115761756897,276.90115761756897,276.90115761756897,276.90115761756897,276.90115761756897,276.90115761756897,276.90115761756897,277.5498204231262,3,0.7791521549224854,None,,,,,,,,,,,,,,,,,,241,1,2025-03-13_17h04.54.401,comp,2024.2.4,56.62981180120785,2025-03-13 17h05.30.751917 -0400,
122,122,0,critical,hwd,35.0,2.1,upper,200.0,125.0,125.0,200.0,127.0,127.0,1,0.9831109046936035,None,,,,,0,0,0,0,0,122,122,41,277.5672745704651,,,,,,,,,,,,,,,,,,,,,,,,,,,,,,,,,,,,,,,,,,,,,,,,,,,,,,,,,,,,,,,,,,,,,,,,,,,,,,,,,200.0,125.0,125.0,200.0,127.0,127.0,2.1,2.12,-258,-286,0,-264,260,256,277.5513117313385,277.55141377449036,277.55459451675415,277.5672745704651,277.7031841278076,277.7031841278076,277.7031841278076,277.7031841278076,277.7031841278076,277.7031841278076,277.7031841278076,278.5661745071411,1,0.9831109046936035,None,,,,,,,,,,,,,,,,,,241,1,2025-03-13_17h04.54.401,comp,2024.2.4,56.62981180120785,2025-03-13 17h05.30.751917 -0400,
123,123,0,filler_random,None,None,None,None,None,None,None,None,None,None,3,0.8801546096801758,None,,,,,0,0,0,0,0,123,123,163,278.5825548171997,,,,,,,,,,,,,,,,,,,,,,,,,,,,,,,,,,,,,,,,,,,,,,,,,,,,,,,,,,,,,,,,,,,,,,,,,,,,,,,,,59.0281223483147,151.9303953866132,166.09192842532633,78.34424549691173,93.83656361355133,164.52576986277404,4.0,4.1,-211,-270,0,-20,217,-254,278.567902803421,278.56797766685486,278.57108068466187,278.5825548171997,278.7355570793152,278.7355570793152,278.7355570793152,278.7355570793152,278.7355570793152,278.7355570793152,278.7355570793152,279.47552466392517,3,0.8801546096801758,None,,,,,,,,,,,,,,,,,,241,1,2025-03-13_17h04.54.401,comp,2024.2.4,56.62981180120785,2025-03-13 17h05.30.751917 -0400,
124,124,0,filler_random,None,None,None,None,None,None,None,None,None,None,3,1.838341236114502,None,,,,,0,0,0,0,0,124,124,167,279.4879033565521,,,,,,,,,,,,,,,,,,,,,,,,,,,,,,,,,,,,,,,,,,,,,,,,,,,,,,,,,,,,,,,,,,,,,,,,,,,,,,,,,59.80834611518371,77.38400789389664,65.50262291025591,108.8468474295388,121.4674603967815,70.38112575961594,1.0,1.3,291,-284,480,-262,666,-286,279.47628021240234,279.4763374328613,279.4778137207031,279.4879033565521,279.63409543037415,279.63409543037415,279.63409543037415,279.63409543037415,279.63409543037415,279.63409543037415,279.63409543037415,281.33626890182495,3,1.838341236114502,None,,,,,,,,,,,,,,,,,,241,1,2025-03-13_17h04.54.401,comp,2024.2.4,56.62981180120785,2025-03-13 17h05.30.751917 -0400,
125,125,0,filler_random,None,None,None,None,None,None,None,None,None,None,3,0.886157751083374,None,,,,,0,0,0,0,0,125,125,159,281.3521580696106,,,,,,,,,,,,,,,,,,,,,,,,,,,,,,,,,,,,,,,,,,,,,,,,,,,,,,,,,,,,,,,,,,,,,,,,,,,,,,,,,69.7190445886923,104.37605425435422,102.85837991974347,138.7368942852189,94.47391732757856,171.72077414555486,4.0,4.2,-218,18,0,-264,251,-7,281.3379054069519,281.3379819393158,281.34130239486694,281.3521580696106,281.5085709095001,281.5085709095001,281.5085709095001,281.5085709095001,281.5085709095001,281.5085709095001,281.5085709095001,282.2536268234253,3,0.886157751083374,None,,,,,,,,,,,,,,,,,,241,1,2025-03-13_17h04.54.401,comp,2024.2.4,56.62981180120785,2025-03-13 17h05.30.751917 -0400,
126,126,0,critical,whd,20.0,2.1,lower,57.0,133.0,133.0,57.0,78.0,78.0,2,1.4728503227233887,None,,,,,0,0,0,0,0,126,126,14,282.26955127716064,,,,,,,,,,,,,,,,,,,,,,,,,,,,,,,,,,,,,,,,,,,,,,,,,,,,,,,,,,,,,,,,,,,,,,,,,,,,,,,,,57.0,133.0,133.0,57.0,78.0,78.0,2.1,2.11,-191,269,0,289,164,-285,282.2551257610321,282.2552466392517,282.2591817378998,282.26955127716064,282.4240548610687,282.4240548610687,282.4240548610687,282.4240548610687,282.4240548610687,282.4240548610687,282.4240548610687,283.75587821006775,2,1.4728503227233887,None,,,,,,,,,,,,,,,,,,241,1,2025-03-13_17h04.54.401,comp,2024.2.4,56.62981180120785,2025-03-13 17h05.30.751917 -0400,
127,127,0,critical,dwh,35.0,4.0,upper,127.0,127.0,125.0,200.0,200.0,125.0,2,1.0268287658691406,None,,,,,0,0,0,0,0,127,127,65,283.77147936820984,,,,,,,,,,,,,,,,,,,,,,,,,,,,,,,,,,,,,,,,,,,,,,,,,,,,,,,,,,,,,,,,,,,,,,,,,,,,,,,,,127.0,127.0,125.0,200.0,200.0,125.0,4.0,4.2,-260,-16,0,-284,258,-6,283.75744438171387,283.7575798034668,283.76100158691406,283.77147936820984,283.92074728012085,283.92074728012085,283.92074728012085,283.92074728012085,283.92074728012085,283.92074728012085,283.92074728012085,284.8158824443817,2,1.0268287658691406,None,,,,,,,,,,,,,,,,,,241,1,2025-03-13_17h04.54.401,comp,2024.2.4,56.62981180120785,2025-03-13 17h05.30.751917 -0400,
128,128,0,critical,hdw,35.0,2.1,upper,200.0,125.0,127.0,127.0,125.0,200.0,3,1.0434730052947998,None,,,,,0,0,0,0,0,128,128,21,284.83549666404724,,,,,,,,,,,,,,,,,,,,,,,,,,,,,,,,,,,,,,,,,,,,,,,,,,,,,,,,,,,,,,,,,,,,,,,,,,,,,,,,,200.0,125.0,127.0,127.0,125.0,200.0,2.1,2.11,-222,271,0,289,260,-262,284.8172719478607,284.817346572876,284.8202154636383,284.83549666404724,284.9693121910095,284.9693121910095,284.9693121910095,284.9693121910095,284.9693121910095,284.9693121910095,284.9693121910095,285.88711762428284,3,1.0434730052947998,None,,,,,,,,,,,,,,,,,,241,1,2025-03-13_17h04.54.401,comp,2024.2.4,56.62981180120785,2025-03-13 17h05.30.751917 -0400,
129,129,0,filler_random,None,None,None,None,None,None,None,None,None,None,2,0.91147780418396,None,,,,,0,0,0,0,0,129,129,169,285.9034550189972,,,,,,,,,,,,,,,,,,,,,,,,,,,,,,,,,,,,,,,,,,,,,,,,,,,,,,,,,,,,,,,,,,,,,,,,,,,,,,,,,95.45645128905701,113.61027945710703,101.62065423557628,129.93419738381618,116.14307311701353,111.13970051686971,4.0,4.2,-218,12,0,-283,217,-14,285.8887836933136,285.8888592720032,285.89234828948975,285.9034550189972,286.05599212646484,286.05599212646484,286.05599212646484,286.05599212646484,286.05599212646484,286.05599212646484,286.05599212646484,286.82085156440735,2,0.91147780418396,None,,,,,,,,,,,,,,,,,,241,1,2025-03-13_17h04.54.401,comp,2024.2.4,56.62981180120785,2025-03-13 17h05.30.751917 -0400,
130,130,0,filler_square,None,None,None,None,None,None,None,None,None,None,1,1.2878713607788086,None,,,,,0,0,0,0,0,130,130,209,286.8383696079254,,,,,,,,,,,,,,,,,,,,,,,,,,,,,,,,,,,,,,,,,,,,,,,,,,,,,,,,,,,,,,,,,,,,,,,,,,,,,,,,,173.14307046000658,173.14307046000658,130.6779373507504,67.00739145791398,138.57131926609367,137.82332894624105,2.1,2.12,-216,-284,0,-260,198,287,286.822705745697,286.8228349685669,286.8260443210602,286.8383696079254,286.9904100894928,286.9904100894928,286.9904100894928,286.9904100894928,286.9904100894928,286.9904100894928,286.9904100894928,288.13733983039856,1,1.2878713607788086,None,,,,,,,,,,,,,,,,,,241,1,2025-03-13_17h04.54.401,comp,2024.2.4,56.62981180120785,2025-03-13 17h05.30.751917 -0400,
131,131,0,critical,wdh,20.0,4.0,upper,125.0,200.0,141.0,141.0,200.0,125.0,3,1.308873176574707,None,,,,,0,0,0,0,0,131,131,83,288.1543519496918,,,,,,,,,,,,,,,,,,,,,,,,,,,,,,,,,,,,,,,,,,,,,,,,,,,,,,,,,,,,,,,,,,,,,,,,,,,,,,,,,125.0,200.0,141.0,141.0,200.0,125.0,4.0,4.1,-266,-254,0,19,229,-276,288.1389901638031,288.1390736103058,288.1431531906128,288.1543519496918,288.30293369293213,288.30293369293213,288.30293369293213,288.30293369293213,288.30293369293213,288.30293369293213,288.30293369293213,289.4707667827606,3,1.308873176574707,None,,,,,,,,,,,,,,,,,,241,1,2025-03-13_17h04.54.401,comp,2024.2.4,56.62981180120785,2025-03-13 17h05.30.751917 -0400,
132,132,0,filler_square,None,None,None,None,None,None,None,None,None,None,1,1.2236518859863281,None,,,,,0,0,0,0,0,132,132,204,289.4874348640442,,,,,,,,,,,,,,,,,,,,,,,,,,,,,,,,,,,,,,,,,,,,,,,,,,,,,,,,,,,,,,,,,,,,,,,,,,,,,,,,,128.13595341440822,128.13595341440822,87.91695726539315,101.80733429120723,96.3520359563421,75.66170333261363,2.1,2.12,-211,-273,0,-275,185,278,289.47250294685364,289.47257947921753,289.4758539199829,289.4874348640442,289.6388475894928,289.6388475894928,289.6388475894928,289.6388475894928,289.6388475894928,289.6388475894928,289.6388475894928,290.722558259964,1,1.2236518859863281,None,,,,,,,,,,,,,,,,,,241,1,2025-03-13_17h04.54.401,comp,2024.2.4,56.62981180120785,2025-03-13 17h05.30.751917 -0400,
133,133,0,critical,dhw,35.0,2.1,lower,70.0,70.0,133.0,57.0,57.0,133.0,2,1.207122802734375,None,,,,,0,0,0,0,0,133,133,0,290.74348497390747,,,,,,,,,,,,,,,,,,,,,,,,,,,,,,,,,,,,,,,,,,,,,,,,,,,,,,,,,,,,,,,,,,,,,,,,,,,,,,,,,70.0,70.0,133.0,57.0,57.0,133.0,2.1,2.11,-160,270,0,266,191,-281,290.7239818572998,290.7240581512451,290.72784447669983,290.74348497390747,290.8888490200043,290.8888490200043,290.8888490200043,290.8888490200043,290.8888490200043,290.8888490200043,290.8888490200043,291.9545245170593,2,1.207122802734375,None,,,,,,,,,,,,,,,,,,241,1,2025-03-13_17h04.54.401,comp,2024.2.4,56.62981180120785,2025-03-13 17h05.30.751917 -0400,
134,134,0,catch,None,None,None,None,None,None,None,None,None,None,2,0.9483997821807861,None,,,,,0,0,0,0,0,134,134,129,291.9706664085388,,,,,,,,,,,,,,,,,,,,,,,,,,,,,,,,,,,,,,,,,,,,,,,,,,,,,,,,,,,,,,,,,,,,,,,,,,,,,,,,,89,101,173,152,126,64,1.0,1.1,-702,284,-480,275,-276,250,291.9563412666321,291.9564411640167,291.9594895839691,291.9706664085388,292.12374329566956,292.12374329566956,292.12374329566956,292.12374329566956,292.12374329566956,292.12374329566956,292.12374329566956,292.92380595207214,2,0.9483997821807861,None,,,,,,,,,,,,,,,,,,241,1,2025-03-13_17h04.54.401,comp,2024.2.4,56.62981180120785,2025-03-13 17h05.30.751917 -0400,
135,135,0,filler_square,None,None,None,None,None,None,None,None,None,None,2,0.8506138324737549,None,,,,,0,0,0,0,0,135,135,192,292.939870595932,,,,,,,,,,,,,,,,,,,,,,,,,,,,,,,,,,,,,,,,,,,,,,,,,,,,,,,,,,,,,,,,,,,,,,,,,,,,,,,,,152.14479382722192,71.30808193747102,160.92110407928033,160.92110407928033,72.77799844459585,119.9459098317774,4.0,4.1,-212,-252,0,-2,236,-285,292.9256055355072,292.92571353912354,292.9288694858551,292.939870595932,293.09185671806335,293.09185671806335,293.09185671806335,293.09185671806335,293.09185671806335,293.09185671806335,293.09185671806335,293.7938663959503,2,0.8506138324737549,None,,,,,,,,,,,,,,,,,,241,1,2025-03-13_17h04.54.401,comp,2024.2.4,56.62981180120785,2025-03-13 17h05.30.751917 -0400,
136,136,0,critical,dwh,35.0,1.0,lower,70.0,70.0,57.0,133.0,133.0,57.0,3,0.8561227321624756,None,,,,,0,0,0,0,0,136,136,60,293.8142249584198,,,,,,,,,,,,,,,,,,,,,,,,,,,,,,,,,,,,,,,,,,,,,,,,,,,,,,,,,,,,,,,,,,,,,,,,,,,,,,,,,70.0,70.0,57.0,133.0,133.0,57.0,1.0,1.1,-678,266,-480,254,-289,259,293.7953667640686,293.7954761981964,293.7983362674713,293.8142249584198,293.95666217803955,293.95666217803955,293.95666217803955,293.95666217803955,293.95666217803955,293.95666217803955,293.95666217803955,294.6724781990051,3,0.8561227321624756,None,,,,,,,,,,,,,,,,,,241,1,2025-03-13_17h04.54.401,comp,2024.2.4,56.62981180120785,2025-03-13 17h05.30.751917 -0400,
137,137,0,critical,dhw,20.0,4.0,upper,141.0,141.0,200.0,125.0,125.0,200.0,3,1.9203836917877197,None,,,,,0,0,0,0,0,137,137,59,294.6946470737457,,,,,,,,,,,,,,,,,,,,,,,,,,,,,,,,,,,,,,,,,,,,,,,,,,,,,,,,,,,,,,,,,,,,,,,,,,,,,,,,,141.0,141.0,200.0,125.0,125.0,200.0,4.0,4.1,-229,-252,0,-11,258,-270,294.6739182472229,294.6739947795868,294.6770529747009,294.6946470737457,294.83999705314636,294.83999705314636,294.83999705314636,294.83999705314636,294.83999705314636,294.83999705314636,294.83999705314636,296.62491035461426,3,1.9203836917877197,None,,,,,,,,,,,,,,,,,,241,1,2025-03-13_17h04.54.401,comp,2024.2.4,56.62981180120785,2025-03-13 17h05.30.751917 -0400,
138,138,0,critical,hdw,20.0,4.0,upper,200.0,125.0,141.0,141.0,125.0,200.0,1,1.1743781566619873,None,,,,,0,0,0,0,0,138,138,119,296.64096331596375,,,,,,,,,,,,,,,,,,,,,,,,,,,,,,,,,,,,,,,,,,,,,,,,,,,,,,,,,,,,,,,,,,,,,,,,,,,,,,,,,200.0,125.0,141.0,141.0,125.0,200.0,4.0,4.2,-229,3,0,-262,266,4,296.6264486312866,296.6265699863434,296.6300702095032,296.64096331596375,296.7914009094238,296.7914009094238,296.7914009094238,296.7914009094238,296.7914009094238,296.7914009094238,296.7914009094238,297.82087445259094,1,1.1743781566619873,None,,,,,,,,,,,,,,,,,,241,1,2025-03-13_17h04.54.401,comp,2024.2.4,56.62981180120785,2025-03-13 17h05.30.751917 -0400,
139,139,0,critical,dwh,35.0,3.0,lower,70.0,70.0,57.0,133.0,133.0,57.0,2,0.8965780735015869,None,,,,,0,0,0,0,0,139,139,62,297.83772826194763,,,,,,,,,,,,,,,,,,,,,,,,,,,,,,,,,,,,,,,,,,,,,,,,,,,,,,,,,,,,,,,,,,,,,,,,,,,,,,,,,70.0,70.0,57.0,133.0,133.0,57.0,3.0,3.1,-198,286,0,6,191,-281,297.82231545448303,297.8224265575409,297.82529640197754,297.83772826194763,297.9788935184479,297.9788935184479,297.9788935184479,297.9788935184479,297.9788935184479,297.9788935184479,297.9788935184479,298.745263338089,2,0.8965780735015869,None,,,,,,,,,,,,,,,,,,241,1,2025-03-13_17h04.54.401,comp,2024.2.4,56.62981180120785,2025-03-13 17h05.30.751917 -0400,
