thisN,thisTrialN,thisRepN,effect,order,distance,config,diag,h_1,w_1,h_2,w_2,h_3,w_3,rect_choice.keys,rect_choice.rt,rect_choice.duration,instructions_loop.thisRepN,instructions_loop.thisTrialN,instructions_loop.thisN,instructions_loop.thisIndex,blocks.thisRepN,blocks.thisTrialN,blocks.thisN,blocks.thisIndex,trials.thisRepN,trials.thisTrialN,trials.thisN,trials.thisIndex,thisRow.t,notes,consent.started,agree_button.started,decline_button.started,consent_img.started,mouse.started,consent.stopped,agree_button.numClicks,agree_button.timesOn,agree_button.timesOff,decline_button.numClicks,decline_button.timesOn,decline_button.timesOff,mouse.x,mouse.y,mouse.leftButton,mouse.midButton,mouse.rightButton,mouse.time,mouse.clicked_name,exp_params.started,exp_params.stopped,welcome.started,welcome_text.started,welcome.stopped,instructions_1.started,instructions_1_text_1.started,instructions_1_text_2.started,key_resp.started,instructions_1.stopped,instructions_loop.key_resp.keys,instructions_loop.key_resp.rt,instructions_loop.key_resp.duration,instructions_2.started,instructions_2_text_1.started,instructions_2_text_2.started,key_resp_2.started,instructions_2.stopped,instructions_loop.key_resp_2.keys,instructions_loop.key_resp_2.rt,instructions_loop.key_resp_2.duration,instructions_3.started,instructions_3_text_1.started,r1_instr3.started,r2_instr3.started,r3_instr3.started,r1_instr3_label.started,r2_instr3_label.started,r3_instr3_label.started,instructions_3_text_3.started,instructions_3_text_4.started,key_resp_3.started,instructions_3.stopped,instructions_loop.key_resp_3.keys,instructions_loop.key_resp_3.rt,instructions_loop.key_resp_3.duration,instructions_4.started,instructions_4_text_1.started,instructions_4_text_3.started,instructions_4_text_2.started,key_resp_4.started,instructions_4.stopped,instructions_loop.key_resp_4.keys,instructions_loop.key_resp_4.rt,instructions_loop.key_resp_4.duration,instructions_5.started,instructions_5_text_1.started,instructions_5_text_2.started,key_resp_5.started,instructions_5.stopped,instructions_loop.key_resp_5.keys,instructions_loop.key_resp_5.rt,instructions_loop.key_resp_5.duration,start_exp.started,start_exp_text.started,key_resp_6.started,start_exp.stopped,key_resp_6.keys,key_resp_6.rt,key_resp_6.duration,h_1_tmp,w_1_tmp,h_2_tmp,w_2_tmp,h_3_tmp,w_3_tmp,config_tmp,config_tmp_1,r_1_x,r_1_y,r_2_x,r_2_y,r_3_x,r_3_y,pre_trial.started,pre_trial.stopped,choice_trial.started,rect_choice.started,r_1.started,r_2.started,r_3.started,r_1_label.started,r_2_label.started,r_3_label.started,prompt.started,choice_trial.stopped,trials.rect_choice.keys,trials.rect_choice.rt,trials.rect_choice.duration,end_block.started,end_block_text.started,end_block.stopped,end.started,end_text.started,key_resp_7.started,end.stopped,key_resp_7.keys,key_resp_7.rt,key_resp_7.duration,debriefing.started,debrief_form.started,end_debrief.started,debriefing.stopped,end_debrief.keys,end_debrief.rt,end_debrief.duration,participant,computer,date,expName,psychopyVersion,frameRate,expStart,
,,,,,,,,,,,,,,,,,,,,,,,,,,,,,,,0.015159130096435547,0.03714871406555176,0.03714871406555176,0.03714871406555176,0.014930486679077148,6.303755044937134,1,[6.26413106918335],[6.264154672622681],0,,,[-78.0],[-508.0],[1],[0],[0],[6.28800892829895],['agree_button'],,,,,,,,,,,,,,,,,,,,,,,,,,,,,,,,,,,,,,,,,,,,,,,,,,,,,,,,,,,,,,,,,,,,,,,,,,,,,,,,,,,,,,,,,,,,,,,,,,,,,,,,,,,242,1,2025-03-14_09h56.33.850,comp,2024.2.4,54.07239813171102,2025-03-14 09h56.43.596128 -0400,
,,,,,,,,,,,,,,,,,,,,,,,,,,,,,,,,,,,,,,,,,,,,,,,,,,6.3042731285095215,6.3043434619903564,,,,,,,,,,,,,,,,,,,,,,,,,,,,,,,,,,,,,,,,,,,,,,,,,,,,,,,,,,,,,,,,,,,,,,,,,,,,,,,,,,,,,,,,,,,,,,,,,,,,,,,,,242,1,2025-03-14_09h56.33.850,comp,2024.2.4,54.07239813171102,2025-03-14 09h56.43.596128 -0400,
,,,,,,,,,,,,,,,,,,,,,,,,,,,,,,,,,,,,,,,,,,,,,,,,,,,,6.30438756942749,6.320329189300537,8.305747747421265,,,,,,,,,,,,,,,,,,,,,,,,,,,,,,,,,,,,,,,,,,,,,,,,,,,,,,,,,,,,,,,,,,,,,,,,,,,,,,,,,,,,,,,,,,,,,,,,,,,,,,242,1,2025-03-14_09h56.33.850,comp,2024.2.4,54.07239813171102,2025-03-14 09h56.43.596128 -0400,
0,0,0,,,,,,,,,,,,,,,0,0,0,0,,,,,,,,,8.32545018196106,,,,,,,,,,,,,,,,,,,,,,,,,,8.30681586265564,8.32545018196106,8.32545018196106,9.807116031646729,12.043322324752808,space,2.220288038253784,None,12.04347848892212,12.058964729309082,12.058964729309082,13.545483112335205,22.11225128173828,space,8.561568260192871,None,22.112399339675903,22.142364025115967,22.142364025115967,22.142364025115967,22.142364025115967,22.142364025115967,22.142364025115967,22.142364025115967,22.142364025115967,22.142364025115967,23.62079691886902,27.41769003868103,space,3.7905852794647217,None,27.41787838935852,27.436565160751343,27.436565160751343,27.436565160751343,28.930796146392822,34.899686098098755,space,5.960611820220947,None,34.89987516403198,34.915178537368774,34.915178537368774,36.39860248565674,37.90137958526611,space,1.4923644065856934,None,37.9015793800354,37.91554260253906,37.91554260253906,39.63489389419556,space,1.7113945484161377,None,,,,,,,,,,,,,,,,,,,,,,,,,,,,,,,,,,,,,,,,,,,,,,,242,1,2025-03-14_09h56.33.850,comp,2024.2.4,54.07239813171102,2025-03-14 09h56.43.596128 -0400,
0,0,0,filler_random,None,None,None,None,None,None,None,None,None,None,1,2.943507432937622,None,,,,,0,0,0,0,0,0,0,145,39.714922189712524,,,,,,,,,,,,,,,,,,,,,,,,,,,,,,,,,,,,,,,,,,,,,,,,,,,,,,,,,,,,,,,,,,,,,,,,,,,,,,,,,188.2625904922426,114.0347300291296,115.22232450364945,136.00206958250243,84.25496585578776,68.09240254058938,2.1,2.12,-221,-262,0,-269,198,290,39.69792699813843,39.69797468185425,39.69977259635925,39.714922189712524,39.87800717353821,39.87800717353821,39.87800717353821,39.87800717353821,39.87800717353821,39.87800717353821,39.87800717353821,42.66866421699524,1,2.943507432937622,None,,,,,,,,,,,,,,,,,,242,1,2025-03-14_09h56.33.850,comp,2024.2.4,54.07239813171102,2025-03-14 09h56.43.596128 -0400,
1,1,0,critical,dwh,35.0,2.1,upper,127.0,127.0,125.0,200.0,200.0,125.0,2,9.933375597000122,None,,,,,0,0,0,0,0,1,1,29,42.68603229522705,,,,,,,,,,,,,,,,,,,,,,,,,,,,,,,,,,,,,,,,,,,,,,,,,,,,,,,,,,,,,,,,,,,,,,,,,,,,,,,,,127.0,127.0,125.0,200.0,200.0,125.0,2.1,2.11,-260,288,0,283,258,-251,42.670363426208496,42.670499324798584,42.67486095428467,42.68603229522705,42.83463263511658,42.83463263511658,42.83463263511658,42.83463263511658,42.83463263511658,42.83463263511658,42.83463263511658,52.62223815917969,2,9.933375597000122,None,,,,,,,,,,,,,,,,,,242,1,2025-03-14_09h56.33.850,comp,2024.2.4,54.07239813171102,2025-03-14 09h56.43.596128 -0400,
2,2,0,filler_square,None,None,None,None,None,None,None,None,None,None,2,2.1476352214813232,None,,,,,0,0,0,0,0,2,2,200,52.639768838882446,,,,,,,,,,,,,,,,,,,,,,,,,,,,,,,,,,,,,,,,,,,,,,,,,,,,,,,,,,,,,,,,,,,,,,,,,,,,,,,,,168.0534502047374,70.5817899915521,173.64234232087347,173.64234232087347,58.34715599821013,65.91501645302961,1.0,1.3,262,-267,480,-275,696,-288,52.62441825866699,52.6245002746582,52.62856364250183,52.639768838882446,52.789265394210815,52.789265394210815,52.789265394210815,52.789265394210815,52.789265394210815,52.789265394210815,52.789265394210815,54.789555072784424,2,2.1476352214813232,None,,,,,,,,,,,,,,,,,,242,1,2025-03-14_09h56.33.850,comp,2024.2.4,54.07239813171102,2025-03-14 09h56.43.596128 -0400,
3,3,0,filler_random,None,None,None,None,None,None,None,None,None,None,3,10.389217376708984,None,,,,,0,0,0,0,0,3,3,166,54.80586099624634,,,,,,,,,,,,,,,,,,,,,,,,,,,,,,,,,,,,,,,,,,,,,,,,,,,,,,,,,,,,,,,,,,,,,,,,,,,,,,,,,104.14018993104577,99.74530408529523,73.22387072304528,192.42743564298564,137.95446689857474,140.6749907620794,1.0,1.1,-722,267,-480,267,-217,279,54.79130744934082,54.79138731956482,54.794933557510376,54.80586099624634,54.95511722564697,54.95511722564697,54.95511722564697,54.95511722564697,54.95511722564697,54.95511722564697,54.95511722564697,65.2133936882019,3,10.389217376708984,None,,,,,,,,,,,,,,,,,,242,1,2025-03-14_09h56.33.850,comp,2024.2.4,54.07239813171102,2025-03-14 09h56.43.596128 -0400,
4,4,0,filler_square,None,None,None,None,None,None,None,None,None,None,1,2.0670251846313477,None,,,,,0,0,0,0,0,4,4,191,65.23141121864319,,,,,,,,,,,,,,,,,,,,,,,,,,,,,,,,,,,,,,,,,,,,,,,,,,,,,,,,,,,,,,,,,,,,,,,,,,,,,,,,,130.1198771995991,130.1198771995991,70.26741967857997,111.43383007877159,121.48659093204536,103.41464108926064,2.2,2.21,-217,-254,0,273,203,284,65.21592593193054,65.21600794792175,65.21918296813965,65.23141121864319,65.37578058242798,65.37578058242798,65.37578058242798,65.37578058242798,65.37578058242798,65.37578058242798,65.37578058242798,67.30886149406433,1,2.0670251846313477,None,,,,,,,,,,,,,,,,,,242,1,2025-03-14_09h56.33.850,comp,2024.2.4,54.07239813171102,2025-03-14 09h56.43.596128 -0400,
5,5,0,filler_random,None,None,None,None,None,None,None,None,None,None,3,3.1967427730560303,None,,,,,0,0,0,0,0,5,5,167,67.32641506195068,,,,,,,,,,,,,,,,,,,,,,,,,,,,,,,,,,,,,,,,,,,,,,,,,,,,,,,,,,,,,,,,,,,,,,,,,,,,,,,,,149.6269794571735,149.46170381434717,127.07644738485705,152.8997231605665,58.52944935304355,195.5688699812525,2.1,2.12,-247,-266,0,-266,270,271,67.31078267097473,67.31086301803589,67.31432461738586,67.32641506195068,67.48266339302063,67.48266339302063,67.48266339302063,67.48266339302063,67.48266339302063,67.48266339302063,67.48266339302063,70.52859878540039,3,3.1967427730560303,None,,,,,,,,,,,,,,,,,,242,1,2025-03-14_09h56.33.850,comp,2024.2.4,54.07239813171102,2025-03-14 09h56.43.596128 -0400,
6,6,0,filler_random,None,None,None,None,None,None,None,None,None,None,1,1.7668542861938477,None,,,,,0,0,0,0,0,6,6,150,70.54767680168152,,,,,,,,,,,,,,,,,,,,,,,,,,,,,,,,,,,,,,,,,,,,,,,,,,,,,,,,,,,,,,,,,,,,,,,,,,,,,,,,,137.07773262466392,168.93729751741452,141.71264135610815,112.66721327771216,67.2228028851801,78.31745507528971,2.2,2.22,-237,261,0,-260,191,-271,70.53052043914795,70.53065848350525,70.53396511077881,70.54767680168152,70.69363021850586,70.69363021850586,70.69363021850586,70.69363021850586,70.69363021850586,70.69363021850586,70.69363021850586,72.3292887210846,1,1.7668542861938477,None,,,,,,,,,,,,,,,,,,242,1,2025-03-14_09h56.33.850,comp,2024.2.4,54.07239813171102,2025-03-14 09h56.43.596128 -0400,
7,7,0,critical,wdh,35.0,2.1,lower,57.0,133.0,70.0,70.0,133.0,57.0,1,2.6577062606811523,None,,,,,0,0,0,0,0,7,7,8,72.3448851108551,,,,,,,,,,,,,,,,,,,,,,,,,,,,,,,,,,,,,,,,,,,,,,,,,,,,,,,,,,,,,,,,,,,,,,,,,,,,,,,,,57.0,133.0,70.0,70.0,133.0,57.0,2.1,2.11,-198,277,0,253,160,-266,72.33090353012085,72.33098125457764,72.33452534675598,72.3448851108551,72.49458074569702,72.49458074569702,72.49458074569702,72.49458074569702,72.49458074569702,72.49458074569702,72.49458074569702,75.01661014556885,1,2.6577062606811523,None,,,,,,,,,,,,,,,,,,242,1,2025-03-14_09h56.33.850,comp,2024.2.4,54.07239813171102,2025-03-14 09h56.43.596128 -0400,
8,8,0,critical,whd,20.0,3.0,lower,57.0,133.0,133.0,57.0,78.0,78.0,2,3.433140277862549,None,,,,,0,0,0,0,0,8,8,92,75.0337827205658,,,,,,,,,,,,,,,,,,,,,,,,,,,,,,,,,,,,,,,,,,,,,,,,,,,,,,,,,,,,,,,,,,,,,,,,,,,,,,,,,57.0,133.0,133.0,57.0,78.0,78.0,3.0,3.2,-191,-260,0,7,164,288,75.01821947097778,75.01830101013184,75.02244091033936,75.0337827205658,75.18122601509094,75.18122601509094,75.18122601509094,75.18122601509094,75.18122601509094,75.18122601509094,75.18122601509094,78.48400831222534,2,3.433140277862549,None,,,,,,,,,,,,,,,,,,242,1,2025-03-14_09h56.33.850,comp,2024.2.4,54.07239813171102,2025-03-14 09h56.43.596128 -0400,
9,9,0,critical,dhw,35.0,1.0,upper,127.0,127.0,200.0,125.0,125.0,200.0,2,1.3576405048370361,None,,,,,0,0,0,0,0,9,9,49,78.50082755088806,,,,,,,,,,,,,,,,,,,,,,,,,,,,,,,,,,,,,,,,,,,,,,,,,,,,,,,,,,,,,,,,,,,,,,,,,,,,,,,,,127.0,127.0,200.0,125.0,125.0,200.0,1.0,1.2,-222,-18,0,-6,258,6,78.48556613922119,78.48564434051514,78.48977565765381,78.50082755088806,78.64753365516663,78.64753365516663,78.64753365516663,78.64753365516663,78.64753365516663,78.64753365516663,78.64753365516663,79.86853575706482,2,1.3576405048370361,None,,,,,,,,,,,,,,,,,,242,1,2025-03-14_09h56.33.850,comp,2024.2.4,54.07239813171102,2025-03-14 09h56.43.596128 -0400,
10,10,0,filler_square,None,None,None,None,None,None,None,None,None,None,2,2.1576476097106934,None,,,,,0,0,0,0,0,10,10,190,79.88545203208923,,,,,,,,,,,,,,,,,,,,,,,,,,,,,,,,,,,,,,,,,,,,,,,,,,,,,,,,,,,,,,,,,,,,,,,,,,,,,,,,,98.23727828086416,98.23727828086416,77.19871179522417,98.19074432028111,60.00959577832968,85.13256131905322,2.2,2.21,-194,-256,0,278,188,272,79.87035083770752,79.870432138443,79.87357950210571,79.88545203208923,80.03019905090332,80.03019905090332,80.03019905090332,80.03019905090332,80.03019905090332,80.03019905090332,80.03019905090332,82.05038046836853,2,2.1576476097106934,None,,,,,,,,,,,,,,,,,,242,1,2025-03-14_09h56.33.850,comp,2024.2.4,54.07239813171102,2025-03-14 09h56.43.596128 -0400,
11,11,0,critical,wdh,20.0,1.0,lower,57.0,133.0,78.0,78.0,133.0,57.0,1,2.283201217651367,None,,,,,0,0,0,0,0,11,11,78,82.07164311408997,,,,,,,,,,,,,,,,,,,,,,,,,,,,,,,,,,,,,,,,,,,,,,,,,,,,,,,,,,,,,,,,,,,,,,,,,,,,,,,,,57.0,133.0,78.0,78.0,133.0,57.0,1.0,1.3,278,-271,480,-268,644,-256,82.05204033851624,82.05212306976318,82.05569171905518,82.07164311408997,82.21577167510986,82.21577167510986,82.21577167510986,82.21577167510986,82.21577167510986,82.21577167510986,82.21577167510986,84.36422085762024,1,2.283201217651367,None,,,,,,,,,,,,,,,,,,242,1,2025-03-14_09h56.33.850,comp,2024.2.4,54.07239813171102,2025-03-14 09h56.43.596128 -0400,
12,12,0,filler_random,None,None,None,None,None,None,None,None,None,None,1,1.1017868518829346,None,,,,,0,0,0,0,0,12,12,134,84.38113284111023,,,,,,,,,,,,,,,,,,,,,,,,,,,,,,,,,,,,,,,,,,,,,,,,,,,,,,,,,,,,,,,,,,,,,,,,,,,,,,,,,111.43977060411899,169.54151547595762,61.59948849452374,84.96877206853742,160.1401365500037,66.03723413711472,1.0,1.2,-223,14,0,16,172,1,84.36600756645203,84.36608862876892,84.36942100524902,84.38113284111023,84.5331928730011,84.5331928730011,84.5331928730011,84.5331928730011,84.5331928730011,84.5331928730011,84.5331928730011,85.49867582321167,1,1.1017868518829346,None,,,,,,,,,,,,,,,,,,242,1,2025-03-14_09h56.33.850,comp,2024.2.4,54.07239813171102,2025-03-14 09h56.43.596128 -0400,
13,13,0,critical,dwh,35.0,1.0,lower,70.0,70.0,57.0,133.0,133.0,57.0,2,1.9950149059295654,None,,,,,0,0,0,0,0,13,13,60,85.51480412483215,,,,,,,,,,,,,,,,,,,,,,,,,,,,,,,,,,,,,,,,,,,,,,,,,,,,,,,,,,,,,,,,,,,,,,,,,,,,,,,,,70.0,70.0,57.0,133.0,133.0,57.0,1.0,1.2,-198,-16,0,0,191,-1,85.50038766860962,85.50052165985107,85.50430583953857,85.51480412483215,85.666086435318,85.666086435318,85.666086435318,85.666086435318,85.666086435318,85.666086435318,85.666086435318,87.51538443565369,2,1.9950149059295654,None,,,,,,,,,,,,,,,,,,242,1,2025-03-14_09h56.33.850,comp,2024.2.4,54.07239813171102,2025-03-14 09h56.43.596128 -0400,
14,14,0,critical,dwh,35.0,3.0,upper,127.0,127.0,125.0,200.0,200.0,125.0,3,2.8267080783843994,None,,,,,0,0,0,0,0,14,14,63,87.53635215759277,,,,,,,,,,,,,,,,,,,,,,,,,,,,,,,,,,,,,,,,,,,,,,,,,,,,,,,,,,,,,,,,,,,,,,,,,,,,,,,,,127.0,127.0,125.0,200.0,200.0,125.0,3.0,3.1,-260,253,0,-2,258,-288,87.51693058013916,87.51700758934021,87.52033543586731,87.53635215759277,87.68300008773804,87.68300008773804,87.68300008773804,87.68300008773804,87.68300008773804,87.68300008773804,87.68300008773804,90.36635780334473,3,2.8267080783843994,None,,,,,,,,,,,,,,,,,,242,1,2025-03-14_09h56.33.850,comp,2024.2.4,54.07239813171102,2025-03-14 09h56.43.596128 -0400,
15,15,0,filler_square,None,None,None,None,None,None,None,None,None,None,3,1.3519260883331299,None,,,,,0,0,0,0,0,15,15,205,90.38651943206787,,,,,,,,,,,,,,,,,,,,,,,,,,,,,,,,,,,,,,,,,,,,,,,,,,,,,,,,,,,,,,,,,,,,,,,,,,,,,,,,,62.508405771167446,102.26215983241842,145.5503048723641,115.70851333696345,149.1281245662585,149.1281245662585,2.2,2.21,-205,-255,0,266,228,275,90.36868834495544,90.36879515647888,90.3721992969513,90.38651943206787,90.53532481193542,90.53532481193542,90.53532481193542,90.53532481193542,90.53532481193542,90.53532481193542,90.53532481193542,91.74980878829956,3,1.3519260883331299,None,,,,,,,,,,,,,,,,,,242,1,2025-03-14_09h56.33.850,comp,2024.2.4,54.07239813171102,2025-03-14 09h56.43.596128 -0400,
16,16,0,critical,whd,35.0,1.0,upper,125.0,200.0,200.0,125.0,127.0,127.0,2,1.3245265483856201,None,,,,,0,0,0,0,0,16,16,85,91.76625370979309,,,,,,,,,,,,,,,,,,,,,,,,,,,,,,,,,,,,,,,,,,,,,,,,,,,,,,,,,,,,,,,,,,,,,,,,,,,,,,,,,125.0,200.0,200.0,125.0,127.0,127.0,1.0,1.2,-258,-15,0,17,222,-6,91.75129795074463,91.75137424468994,91.75479674339294,91.76625370979309,91.92130637168884,91.92130637168884,91.92130637168884,91.92130637168884,91.92130637168884,91.92130637168884,91.92130637168884,93.10491919517517,2,1.3245265483856201,None,,,,,,,,,,,,,,,,,,242,1,2025-03-14_09h56.33.850,comp,2024.2.4,54.07239813171102,2025-03-14 09h56.43.596128 -0400,
17,17,0,critical,wdh,35.0,1.0,upper,125.0,200.0,127.0,127.0,200.0,125.0,1,4.936802864074707,None,,,,,0,0,0,0,0,17,17,73,93.12167620658875,,,,,,,,,,,,,,,,,,,,,,,,,,,,,,,,,,,,,,,,,,,,,,,,,,,,,,,,,,,,,,,,,,,,,,,,,,,,,,,,,125.0,200.0,127.0,127.0,200.0,125.0,1.0,1.3,220,-275,480,-271,702,-272,93.10661292076111,93.1067705154419,93.11025810241699,93.12167620658875,93.26856231689453,93.26856231689453,93.26856231689453,93.26856231689453,93.26856231689453,93.26856231689453,93.26856231689453,98.06876611709595,1,4.936802864074707,None,,,,,,,,,,,,,,,,,,242,1,2025-03-14_09h56.33.850,comp,2024.2.4,54.07239813171102,2025-03-14 09h56.43.596128 -0400,
18,18,0,filler_random,None,None,None,None,None,None,None,None,None,None,1,2.3094682693481445,None,,,,,0,0,0,0,0,18,18,159,98.08547735214233,,,,,,,,,,,,,,,,,,,,,,,,,,,,,,,,,,,,,,,,,,,,,,,,,,,,,,,,,,,,,,,,,,,,,,,,,,,,,,,,,196.38253623390221,105.07570613262533,188.59970747104373,66.68639279916673,186.98675108570606,133.5935512660982,2.1,2.12,-182,-259,0,-274,196,258,98.07061910629272,98.07072806358337,98.07428979873657,98.08547735214233,98.23908424377441,98.23908424377441,98.23908424377441,98.23908424377441,98.23908424377441,98.23908424377441,98.23908424377441,100.39715909957886,1,2.3094682693481445,None,,,,,,,,,,,,,,,,,,242,1,2025-03-14_09h56.33.850,comp,2024.2.4,54.07239813171102,2025-03-14 09h56.43.596128 -0400,
19,19,0,filler_square,None,None,None,None,None,None,None,None,None,None,3,2.029222249984741,None,,,,,0,0,0,0,0,19,19,203,100.41403651237488,,,,,,,,,,,,,,,,,,,,,,,,,,,,,,,,,,,,,,,,,,,,,,,,,,,,,,,,,,,,,,,,,,,,,,,,,,,,,,,,,57.91731534429559,80.32062687403491,80.283252290391,93.05759969382483,99.67262506088225,99.67262506088225,2.1,2.11,-183,257,0,289,192,-285,100.39897966384888,100.39905977249146,100.40217900276184,100.41403651237488,100.55360746383667,100.55360746383667,100.55360746383667,100.55360746383667,100.55360746383667,100.55360746383667,100.55360746383667,102.45093107223511,3,2.029222249984741,None,,,,,,,,,,,,,,,,,,242,1,2025-03-14_09h56.33.850,comp,2024.2.4,54.07239813171102,2025-03-14 09h56.43.596128 -0400,
20,20,0,filler_square,None,None,None,None,None,None,None,None,None,None,1,2.6797831058502197,None,,,,,0,0,0,0,0,20,20,176,102.46778583526611,,,,,,,,,,,,,,,,,,,,,,,,,,,,,,,,,,,,,,,,,,,,,,,,,,,,,,,,,,,,,,,,,,,,,,,,,,,,,,,,,58.748877480097626,58.748877480097626,58.303112880449405,57.35960909296702,58.648063156239026,57.56661546249837,1.0,1.2,-154,18,0,15,153,14,102.45291018486023,102.45298767089844,102.45659518241882,102.46778583526611,102.60530376434326,102.60530376434326,102.60530376434326,102.60530376434326,102.60530376434326,102.60530376434326,102.60530376434326,105.15499186515808,1,2.6797831058502197,None,,,,,,,,,,,,,,,,,,242,1,2025-03-14_09h56.33.850,comp,2024.2.4,54.07239813171102,2025-03-14 09h56.43.596128 -0400,
21,21,0,filler_random,None,None,None,None,None,None,None,None,None,None,1,1.420874834060669,None,,,,,0,0,0,0,0,21,21,168,105.17373180389404,,,,,,,,,,,,,,,,,,,,,,,,,,,,,,,,,,,,,,,,,,,,,,,,,,,,,,,,,,,,,,,,,,,,,,,,,,,,,,,,,194.35319008388788,175.93665391141946,169.56858008352594,98.1515784426611,122.86168434687039,184.5441541241239,2.1,2.12,-233,-288,0,-290,237,278,105.15683913230896,105.15697717666626,105.1604573726654,105.17373180389404,105.32007646560669,105.32007646560669,105.32007646560669,105.32007646560669,105.32007646560669,105.32007646560669,105.32007646560669,106.6051766872406,1,1.420874834060669,None,,,,,,,,,,,,,,,,,,242,1,2025-03-14_09h56.33.850,comp,2024.2.4,54.07239813171102,2025-03-14 09h56.43.596128 -0400,
22,22,0,critical,whd,35.0,4.0,lower,57.0,133.0,133.0,57.0,70.0,70.0,1,2.153449058532715,None,,,,,0,0,0,0,0,22,22,88,106.62566542625427,,,,,,,,,,,,,,,,,,,,,,,,,,,,,,,,,,,,,,,,,,,,,,,,,,,,,,,,,,,,,,,,,,,,,,,,,,,,,,,,,57.0,133.0,133.0,57.0,70.0,70.0,4.0,4.2,-191,16,0,-286,160,16,106.60679793357849,106.60687732696533,106.61041116714478,106.62566542625427,106.77162599563599,106.77162599563599,106.77162599563599,106.77162599563599,106.77162599563599,106.77162599563599,106.77162599563599,108.78833985328674,1,2.153449058532715,None,,,,,,,,,,,,,,,,,,242,1,2025-03-14_09h56.33.850,comp,2024.2.4,54.07239813171102,2025-03-14 09h56.43.596128 -0400,
23,23,0,critical,hwd,35.0,2.1,lower,133.0,57.0,57.0,133.0,70.0,70.0,2,1.3982384204864502,None,,,,,0,0,0,0,0,23,23,40,108.80524849891663,,,,,,,,,,,,,,,,,,,,,,,,,,,,,,,,,,,,,,,,,,,,,,,,,,,,,,,,,,,,,,,,,,,,,,,,,,,,,,,,,133.0,57.0,57.0,133.0,70.0,70.0,2.1,2.11,-191,254,0,259,198,-287,108.78993201255798,108.7900116443634,108.79338526725769,108.80524849891663,108.95577430725098,108.95577430725098,108.95577430725098,108.95577430725098,108.95577430725098,108.95577430725098,108.95577430725098,110.21111345291138,2,1.3982384204864502,None,,,,,,,,,,,,,,,,,,242,1,2025-03-14_09h56.33.850,comp,2024.2.4,54.07239813171102,2025-03-14 09h56.43.596128 -0400,
24,24,0,filler_random,None,None,None,None,None,None,None,None,None,None,1,1.687011480331421,None,,,,,0,0,0,0,0,24,24,146,110.22750973701477,,,,,,,,,,,,,,,,,,,,,,,,,,,,,,,,,,,,,,,,,,,,,,,,,,,,,,,,,,,,,,,,,,,,,,,,,,,,,,,,,90.06952546792851,193.4107367876668,60.20540227234579,67.25185133724048,149.42726604131215,89.49476531224863,2.1,2.11,-226,255,0,270,174,-285,110.21289920806885,110.21298170089722,110.21640682220459,110.22750973701477,110.37357211112976,110.37357211112976,110.37357211112976,110.37357211112976,110.37357211112976,110.37357211112976,110.37357211112976,111.93200349807739,1,1.687011480331421,None,,,,,,,,,,,,,,,,,,242,1,2025-03-14_09h56.33.850,comp,2024.2.4,54.07239813171102,2025-03-14 09h56.43.596128 -0400,
25,25,0,critical,wdh,20.0,2.1,upper,125.0,200.0,141.0,141.0,200.0,125.0,1,1.6534521579742432,None,,,,,0,0,0,0,0,25,25,35,111.94963502883911,,,,,,,,,,,,,,,,,,,,,,,,,,,,,,,,,,,,,,,,,,,,,,,,,,,,,,,,,,,,,,,,,,,,,,,,,,,,,,,,,125.0,200.0,141.0,141.0,200.0,125.0,2.1,2.12,-266,-274,0,-288,229,272,111.93353581428528,111.93361234664917,111.9368257522583,111.94963502883911,112.09099626541138,112.09099626541138,112.09099626541138,112.09099626541138,112.09099626541138,112.09099626541138,112.09099626541138,113.60965371131897,1,1.6534521579742432,None,,,,,,,,,,,,,,,,,,242,1,2025-03-14_09h56.33.850,comp,2024.2.4,54.07239813171102,2025-03-14 09h56.43.596128 -0400,
26,26,0,filler_random,None,None,None,None,None,None,None,None,None,None,2,1.5345790386199951,None,,,,,0,0,0,0,0,26,26,169,113.6279616355896,,,,,,,,,,,,,,,,,,,,,,,,,,,,,,,,,,,,,,,,,,,,,,,,,,,,,,,,,,,,,,,,,,,,,,,,,,,,,,,,,72.2529182672424,103.86950133698326,176.71516802404355,169.81269091762977,102.37930203584568,195.83511127944683,2.1,2.11,-233,252,0,286,279,-287,113.61151170730591,113.6115951538086,113.61473298072815,113.6279616355896,113.77480721473694,113.77480721473694,113.77480721473694,113.77480721473694,113.77480721473694,113.77480721473694,113.77480721473694,115.17943286895752,2,1.5345790386199951,None,,,,,,,,,,,,,,,,,,242,1,2025-03-14_09h56.33.850,comp,2024.2.4,54.07239813171102,2025-03-14 09h56.43.596128 -0400,
27,27,0,filler_random,None,None,None,None,None,None,None,None,None,None,2,0.9870619773864746,None,,,,,0,0,0,0,0,27,27,149,115.20041966438293,,,,,,,,,,,,,,,,,,,,,,,,,,,,,,,,,,,,,,,,,,,,,,,,,,,,,,,,,,,,,,,,,,,,,,,,,,,,,,,,,181.9929065914989,82.34057099460534,137.49162359872815,161.29333725266855,198.95031030676358,69.53535817166679,2.1,2.11,-218,251,0,259,211,-286,115.18134903907776,115.18148756027222,115.18496322631836,115.20041966438293,115.34234547615051,115.34234547615051,115.34234547615051,115.34234547615051,115.34234547615051,115.34234547615051,115.34234547615051,116.19578790664673,2,0.9870619773864746,None,,,,,,,,,,,,,,,,,,242,1,2025-03-14_09h56.33.850,comp,2024.2.4,54.07239813171102,2025-03-14 09h56.43.596128 -0400,
28,28,0,critical,dhw,20.0,4.0,lower,78.0,78.0,133.0,57.0,57.0,133.0,3,2.3340821266174316,None,,,,,0,0,0,0,0,28,28,58,116.2124297618866,,,,,,,,,,,,,,,,,,,,,,,,,,,,,,,,,,,,,,,,,,,,,,,,,,,,,,,,,,,,,,,,,,,,,,,,,,,,,,,,,78.0,78.0,133.0,57.0,57.0,133.0,4.0,4.1,-164,-266,0,1,191,-261,116.19731616973877,116.1973946094513,116.20146441459656,116.2124297618866,116.35813879966736,116.35813879966736,116.35813879966736,116.35813879966736,116.35813879966736,116.35813879966736,116.35813879966736,118.56176137924194,3,2.3340821266174316,None,,,,,,,,,,,,,,,,,,242,1,2025-03-14_09h56.33.850,comp,2024.2.4,54.07239813171102,2025-03-14 09h56.43.596128 -0400,
29,29,0,catch,None,None,None,None,None,None,None,None,None,None,3,1.0216758251190186,None,,,,,0,0,0,0,0,29,29,126,118.58154487609863,,,,,,,,,,,,,,,,,,,,,,,,,,,,,,,,,,,,,,,,,,,,,,,,,,,,,,,,,,,,,,,,,,,,,,,,,,,,,,,,,119,71,106,84,129,196,4.0,4.1,-174,-269,0,-7,236,-284,118.56378102302551,118.56386399269104,118.5670530796051,118.58154487609863,118.72701597213745,118.72701597213745,118.72701597213745,118.72701597213745,118.72701597213745,118.72701597213745,118.72701597213745,119.61189246177673,3,1.0216758251190186,None,,,,,,,,,,,,,,,,,,242,1,2025-03-14_09h56.33.850,comp,2024.2.4,54.07239813171102,2025-03-14 09h56.43.596128 -0400,
30,30,0,filler_square,None,None,None,None,None,None,None,None,None,None,2,0.813633918762207,None,,,,,0,0,0,0,0,30,30,188,119.62893915176392,,,,,,,,,,,,,,,,,,,,,,,,,,,,,,,,,,,,,,,,,,,,,,,,,,,,,,,,,,,,,,,,,,,,,,,,,,,,,,,,,104.47661831063604,101.79469116025219,187.4342890446014,187.4342890446014,95.11057593820773,65.63109172164371,2.1,2.11,-241,261,0,267,223,-258,119.61407017707825,119.61420559883118,119.61800289154053,119.62893915176392,119.78174066543579,119.78174066543579,119.78174066543579,119.78174066543579,119.78174066543579,119.78174066543579,119.78174066543579,120.45243620872498,2,0.813633918762207,None,,,,,,,,,,,,,,,,,,242,1,2025-03-14_09h56.33.850,comp,2024.2.4,54.07239813171102,2025-03-14 09h56.43.596128 -0400,
31,31,0,filler_random,None,None,None,None,None,None,None,None,None,None,2,2.0781216621398926,None,,,,,0,0,0,0,0,31,31,155,120.46866250038147,,,,,,,,,,,,,,,,,,,,,,,,,,,,,,,,,,,,,,,,,,,,,,,,,,,,,,,,,,,,,,,,,,,,,,,,,,,,,,,,,192.11861130335035,133.77648938835546,96.07304344065751,151.56342384137372,143.8532942514209,180.99200296312893,2.1,2.12,-239,-288,0,-288,262,271,120.45424437522888,120.45432448387146,120.45761632919312,120.46866250038147,120.61141562461853,120.61141562461853,120.61141562461853,120.61141562461853,120.61141562461853,120.61141562461853,120.61141562461853,122.5487802028656,2,2.0781216621398926,None,,,,,,,,,,,,,,,,,,242,1,2025-03-14_09h56.33.850,comp,2024.2.4,54.07239813171102,2025-03-14 09h56.43.596128 -0400,
32,32,0,critical,hdw,35.0,3.0,lower,133.0,57.0,70.0,70.0,57.0,133.0,1,1.8687412738800049,None,,,,,0,0,0,0,0,32,32,110,122.56582427024841,,,,,,,,,,,,,,,,,,,,,,,,,,,,,,,,,,,,,,,,,,,,,,,,,,,,,,,,,,,,,,,,,,,,,,,,,,,,,,,,,133.0,57.0,70.0,70.0,57.0,133.0,3.0,3.1,-160,258,0,-18,198,-287,122.55033922195435,122.5504195690155,122.55412745475769,122.56582427024841,122.71757006645203,122.71757006645203,122.71757006645203,122.71757006645203,122.71757006645203,122.71757006645203,122.71757006645203,124.44561672210693,1,1.8687412738800049,None,,,,,,,,,,,,,,,,,,242,1,2025-03-14_09h56.33.850,comp,2024.2.4,54.07239813171102,2025-03-14 09h56.43.596128 -0400,
33,33,0,critical,whd,20.0,4.0,lower,57.0,133.0,133.0,57.0,78.0,78.0,2,1.564544916152954,None,,,,,0,0,0,0,0,33,33,94,124.46253442764282,,,,,,,,,,,,,,,,,,,,,,,,,,,,,,,,,,,,,,,,,,,,,,,,,,,,,,,,,,,,,,,,,,,,,,,,,,,,,,,,,57.0,133.0,133.0,57.0,78.0,78.0,4.0,4.1,-191,-288,0,5,164,-269,124.44720196723938,124.44728088378906,124.45075345039368,124.46253442764282,124.61074471473694,124.61074471473694,124.61074471473694,124.61074471473694,124.61074471473694,124.61074471473694,124.61074471473694,126.04911160469055,2,1.564544916152954,None,,,,,,,,,,,,,,,,,,242,1,2025-03-14_09h56.33.850,comp,2024.2.4,54.07239813171102,2025-03-14 09h56.43.596128 -0400,
34,34,0,critical,wdh,20.0,1.0,upper,125.0,200.0,141.0,141.0,200.0,125.0,1,1.5163991451263428,None,,,,,0,0,0,0,0,34,34,79,126.07011270523071,,,,,,,,,,,,,,,,,,,,,,,,,,,,,,,,,,,,,,,,,,,,,,,,,,,,,,,,,,,,,,,,,,,,,,,,,,,,,,,,,125.0,200.0,141.0,141.0,200.0,125.0,1.0,1.3,214,-288,480,-255,709,-262,126.0508885383606,126.05100321769714,126.05466341972351,126.07011270523071,126.2114896774292,126.2114896774292,126.2114896774292,126.2114896774292,126.2114896774292,126.2114896774292,126.2114896774292,127.60357141494751,1,1.5163991451263428,None,,,,,,,,,,,,,,,,,,242,1,2025-03-14_09h56.33.850,comp,2024.2.4,54.07239813171102,2025-03-14 09h56.43.596128 -0400,
35,35,0,filler_random,None,None,None,None,None,None,None,None,None,None,1,1.6066694259643555,None,,,,,0,0,0,0,0,35,35,136,127.61995005607605,,,,,,,,,,,,,,,,,,,,,,,,,,,,,,,,,,,,,,,,,,,,,,,,,,,,,,,,,,,,,,,,,,,,,,,,,,,,,,,,,92.0490059087877,186.4343771750262,103.46780611022768,105.71080164490883,199.7190822827098,77.89341088684063,3.0,3.2,-242,-276,0,19,188,261,127.60555338859558,127.60563111305237,127.60922336578369,127.61995005607605,127.76244020462036,127.76244020462036,127.76244020462036,127.76244020462036,127.76244020462036,127.76244020462036,127.76244020462036,129.22943258285522,1,1.6066694259643555,None,,,,,,,,,,,,,,,,,,242,1,2025-03-14_09h56.33.850,comp,2024.2.4,54.07239813171102,2025-03-14 09h56.43.596128 -0400,
36,36,0,filler_square,None,None,None,None,None,None,None,None,None,None,1,1.4926433563232422,None,,,,,0,0,0,0,0,36,36,187,129.2463150024414,,,,,,,,,,,,,,,,,,,,,,,,,,,,,,,,,,,,,,,,,,,,,,,,,,,,,,,,,,,,,,,,,,,,,,,,,,,,,,,,,115.60687217002766,115.60687217002766,109.25216878168797,109.91653724012818,80.7158891659827,111.24199590587432,4.0,4.1,-209,-275,0,-10,207,-288,129.23133611679077,129.2314157485962,129.23466229438782,129.2463150024414,129.3996548652649,129.3996548652649,129.3996548652649,129.3996548652649,129.3996548652649,129.3996548652649,129.3996548652649,130.74309468269348,1,1.4926433563232422,None,,,,,,,,,,,,,,,,,,242,1,2025-03-14_09h56.33.850,comp,2024.2.4,54.07239813171102,2025-03-14 09h56.43.596128 -0400,
37,37,0,filler_random,None,None,None,None,None,None,None,None,None,None,2,0.9868724346160889,None,,,,,0,0,0,0,0,37,37,147,130.760009765625,,,,,,,,,,,,,,,,,,,,,,,,,,,,,,,,,,,,,,,,,,,,,,,,,,,,,,,,,,,,,,,,,,,,,,,,,,,,,,,,,142.63279294230176,120.94258938140058,119.62390878612908,83.61259802664476,165.61749184056214,181.6407755312078,4.0,4.2,-198,-6,0,-261,229,6,130.74360275268555,130.74362421035767,130.7444794178009,130.760009765625,130.89456868171692,130.89456868171692,130.89456868171692,130.89456868171692,130.89456868171692,130.89456868171692,130.89456868171692,131.7641201019287,2,0.9868724346160889,None,,,,,,,,,,,,,,,,,,242,1,2025-03-14_09h56.33.850,comp,2024.2.4,54.07239813171102,2025-03-14 09h56.43.596128 -0400,
38,38,0,filler_random,None,None,None,None,None,None,None,None,None,None,1,2.392040252685547,None,,,,,0,0,0,0,0,38,38,139,131.78010439872742,,,,,,,,,,,,,,,,,,,,,,,,,,,,,,,,,,,,,,,,,,,,,,,,,,,,,,,,,,,,,,,,,,,,,,,,,,,,,,,,,193.14994110684484,116.03243469286056,199.24652040547124,93.33330395709967,60.46658698841216,178.94778330367552,4.0,4.2,-201,-6,0,-251,232,19,131.7659387588501,131.76602005958557,131.76949071884155,131.78010439872742,131.9286768436432,131.9286768436432,131.9286768436432,131.9286768436432,131.9286768436432,131.9286768436432,131.9286768436432,134.17994713783264,1,2.392040252685547,None,,,,,,,,,,,,,,,,,,242,1,2025-03-14_09h56.33.850,comp,2024.2.4,54.07239813171102,2025-03-14 09h56.43.596128 -0400,
39,39,0,critical,dhw,20.0,4.0,upper,141.0,141.0,200.0,125.0,125.0,200.0,3,2.029352903366089,None,,,,,0,0,0,0,0,39,39,59,134.19721794128418,,,,,,,,,,,,,,,,,,,,,,,,,,,,,,,,,,,,,,,,,,,,,,,,,,,,,,,,,,,,,,,,,,,,,,,,,,,,,,,,,141.0,141.0,200.0,125.0,125.0,200.0,4.0,4.2,-229,14,0,-259,258,-16,134.1815962791443,134.1817271709442,134.1852889060974,134.19721794128418,134.34151196479797,134.34151196479797,134.34151196479797,134.34151196479797,134.34151196479797,134.34151196479797,134.34151196479797,136.2396364212036,3,2.029352903366089,None,,,,,,,,,,,,,,,,,,242,1,2025-03-14_09h56.33.850,comp,2024.2.4,54.07239813171102,2025-03-14 09h56.43.596128 -0400,
40,40,0,critical,dhw,20.0,2.1,lower,78.0,78.0,133.0,57.0,57.0,133.0,3,2.1152710914611816,None,,,,,0,0,0,0,0,40,40,2,136.25530338287354,,,,,,,,,,,,,,,,,,,,,,,,,,,,,,,,,,,,,,,,,,,,,,,,,,,,,,,,,,,,,,,,,,,,,,,,,,,,,,,,,78.0,78.0,133.0,57.0,57.0,133.0,2.1,2.11,-164,264,0,282,191,-257,136.24118661880493,136.24126505851746,136.24439787864685,136.25530338287354,136.3984558582306,136.3984558582306,136.3984558582306,136.3984558582306,136.3984558582306,136.3984558582306,136.3984558582306,138.38121247291565,3,2.1152710914611816,None,,,,,,,,,,,,,,,,,,242,1,2025-03-14_09h56.33.850,comp,2024.2.4,54.07239813171102,2025-03-14 09h56.43.596128 -0400,
41,41,0,filler_random,None,None,None,None,None,None,None,None,None,None,1,1.3652586936950684,None,,,,,0,0,0,0,0,41,41,151,138.3977391719818,,,,,,,,,,,,,,,,,,,,,,,,,,,,,,,,,,,,,,,,,,,,,,,,,,,,,,,,,,,,,,,,,,,,,,,,,,,,,,,,,191.53339643389933,179.5588827603405,197.20638094543366,89.4989233059059,161.98389683517377,188.87271611731092,2.1,2.12,-231,-261,0,-265,235,270,138.38292980194092,138.38301181793213,138.3865146636963,138.3977391719818,138.5543282032013,138.5543282032013,138.5543282032013,138.5543282032013,138.5543282032013,138.5543282032013,138.5543282032013,139.77301788330078,1,1.3652586936950684,None,,,,,,,,,,,,,,,,,,242,1,2025-03-14_09h56.33.850,comp,2024.2.4,54.07239813171102,2025-03-14 09h56.43.596128 -0400,
42,42,0,filler_square,None,None,None,None,None,None,None,None,None,None,1,1.741661548614502,None,,,,,0,0,0,0,0,42,42,195,139.78981828689575,,,,,,,,,,,,,,,,,,,,,,,,,,,,,,,,,,,,,,,,,,,,,,,,,,,,,,,,,,,,,,,,,,,,,,,,,,,,,,,,,89.26386595841235,89.26386595841235,58.512265230406555,88.51706842512166,63.36502708564881,77.56638634993348,2.1,2.11,-185,263,0,270,179,-286,139.77508759498596,139.7751669883728,139.77878499031067,139.78981828689575,139.93363285064697,139.93363285064697,139.93363285064697,139.93363285064697,139.93363285064697,139.93363285064697,139.93363285064697,141.5392894744873,1,1.741661548614502,None,,,,,,,,,,,,,,,,,,242,1,2025-03-14_09h56.33.850,comp,2024.2.4,54.07239813171102,2025-03-14 09h56.43.596128 -0400,
43,43,0,critical,wdh,35.0,2.1,upper,125.0,200.0,127.0,127.0,200.0,125.0,1,1.1995470523834229,None,,,,,0,0,0,0,0,43,43,9,141.55565404891968,,,,,,,,,,,,,,,,,,,,,,,,,,,,,,,,,,,,,,,,,,,,,,,,,,,,,,,,,,,,,,,,,,,,,,,,,,,,,,,,,125.0,200.0,127.0,127.0,200.0,125.0,2.1,2.12,-260,-281,0,-289,222,272,141.54088401794434,141.54096221923828,141.54443669319153,141.55565404891968,141.69959497451782,141.69959497451782,141.69959497451782,141.69959497451782,141.69959497451782,141.69959497451782,141.69959497451782,142.76023936271667,1,1.1995470523834229,None,,,,,,,,,,,,,,,,,,242,1,2025-03-14_09h56.33.850,comp,2024.2.4,54.07239813171102,2025-03-14 09h56.43.596128 -0400,
44,44,0,filler_square,None,None,None,None,None,None,None,None,None,None,2,0.9493253231048584,None,,,,,0,0,0,0,0,44,44,184,142.781756401062,,,,,,,,,,,,,,,,,,,,,,,,,,,,,,,,,,,,,,,,,,,,,,,,,,,,,,,,,,,,,,,,,,,,,,,,,,,,,,,,,65.34796296515967,57.43193331044957,120.06736371962853,120.06736371962853,62.673990071730195,69.22165069932534,4.0,4.2,-185,3,0,-282,191,7,142.76217007637024,142.76226162910461,142.76572251319885,142.781756401062,142.91821813583374,142.91821813583374,142.91821813583374,142.91821813583374,142.91821813583374,142.91821813583374,142.91821813583374,143.73575639724731,2,0.9493253231048584,None,,,,,,,,,,,,,,,,,,242,1,2025-03-14_09h56.33.850,comp,2024.2.4,54.07239813171102,2025-03-14 09h56.43.596128 -0400,
45,45,0,critical,hwd,20.0,1.0,upper,200.0,125.0,125.0,200.0,141.0,141.0,2,2.650153636932373,None,,,,,0,0,0,0,0,45,45,103,143.75243377685547,,,,,,,,,,,,,,,,,,,,,,,,,,,,,,,,,,,,,,,,,,,,,,,,,,,,,,,,,,,,,,,,,,,,,,,,,,,,,,,,,200.0,125.0,125.0,200.0,141.0,141.0,1.0,1.3,222,-264,480,-281,746,-290,143.73774337768555,143.73785090446472,143.7415325641632,143.75243377685547,143.9007544517517,143.9007544517517,143.9007544517517,143.9007544517517,143.9007544517517,143.9007544517517,143.9007544517517,146.4189257621765,2,2.650153636932373,None,,,,,,,,,,,,,,,,,,242,1,2025-03-14_09h56.33.850,comp,2024.2.4,54.07239813171102,2025-03-14 09h56.43.596128 -0400,
46,46,0,critical,dhw,20.0,2.1,lower,78.0,78.0,133.0,57.0,57.0,133.0,3,1.2075839042663574,None,,,,,0,0,0,0,0,46,46,26,146.43498277664185,,,,,,,,,,,,,,,,,,,,,,,,,,,,,,,,,,,,,,,,,,,,,,,,,,,,,,,,,,,,,,,,,,,,,,,,,,,,,,,,,78.0,78.0,133.0,57.0,57.0,133.0,2.1,2.12,-164,-255,0,-289,191,273,146.4205551147461,146.42067742347717,146.4244999885559,146.43498277664185,146.57689094543457,146.57689094543457,146.57689094543457,146.57689094543457,146.57689094543457,146.57689094543457,146.57689094543457,147.65256190299988,3,1.2075839042663574,None,,,,,,,,,,,,,,,,,,242,1,2025-03-14_09h56.33.850,comp,2024.2.4,54.07239813171102,2025-03-14 09h56.43.596128 -0400,
47,47,0,filler_square,None,None,None,None,None,None,None,None,None,None,1,0.8453164100646973,None,,,,,0,0,0,0,0,47,47,194,147.66972589492798,,,,,,,,,,,,,,,,,,,,,,,,,,,,,,,,,,,,,,,,,,,,,,,,,,,,,,,,,,,,,,,,,,,,,,,,,,,,,,,,,187.17977791727353,187.17977791727353,74.31276887751041,58.25991480259901,131.03694520479712,139.6701391854902,2.2,2.22,-219,285,0,-265,195,-259,147.6544976234436,147.65463161468506,147.65877652168274,147.66972589492798,147.81866002082825,147.81866002082825,147.81866002082825,147.81866002082825,147.81866002082825,147.81866002082825,147.81866002082825,148.51750135421753,1,0.8453164100646973,None,,,,,,,,,,,,,,,,,,242,1,2025-03-14_09h56.33.850,comp,2024.2.4,54.07239813171102,2025-03-14 09h56.43.596128 -0400,
48,48,0,critical,hdw,35.0,1.0,lower,133.0,57.0,70.0,70.0,57.0,133.0,3,2.2207419872283936,None,,,,,0,0,0,0,0,48,48,108,148.53409719467163,,,,,,,,,,,,,,,,,,,,,,,,,,,,,,,,,,,,,,,,,,,,,,,,,,,,,,,,,,,,,,,,,,,,,,,,,,,,,,,,,133.0,57.0,70.0,70.0,57.0,133.0,1.0,1.1,-640,263,-480,250,-282,275,148.51908564567566,148.51916241645813,148.52229762077332,148.53409719467163,148.6891577243805,148.6891577243805,148.6891577243805,148.6891577243805,148.6891577243805,148.6891577243805,148.6891577243805,150.77020597457886,3,2.2207419872283936,None,,,,,,,,,,,,,,,,,,242,1,2025-03-14_09h56.33.850,comp,2024.2.4,54.07239813171102,2025-03-14 09h56.43.596128 -0400,
49,49,0,filler_random,None,None,None,None,None,None,None,None,None,None,3,1.128467321395874,None,,,,,0,0,0,0,0,49,49,160,150.78649067878723,,,,,,,,,,,,,,,,,,,,,,,,,,,,,,,,,,,,,,,,,,,,,,,,,,,,,,,,,,,,,,,,,,,,,,,,,,,,,,,,,96.41291326063434,152.94989816411496,83.10024777504104,115.48210464937054,145.25872369380093,193.74715250281835,4.0,4.2,-230,11,0,-254,251,20,150.77193307876587,150.77201890945435,150.77529430389404,150.78649067878723,150.93643450737,150.93643450737,150.93643450737,150.93643450737,150.93643450737,150.93643450737,150.93643450737,151.91884231567383,3,1.128467321395874,None,,,,,,,,,,,,,,,,,,242,1,2025-03-14_09h56.33.850,comp,2024.2.4,54.07239813171102,2025-03-14 09h56.43.596128 -0400,
50,50,0,critical,wdh,35.0,4.0,upper,125.0,200.0,127.0,127.0,200.0,125.0,1,2.063436269760132,None,,,,,0,0,0,0,0,50,50,77,151.9398055076599,,,,,,,,,,,,,,,,,,,,,,,,,,,,,,,,,,,,,,,,,,,,,,,,,,,,,,,,,,,,,,,,,,,,,,,,,,,,,,,,,125.0,200.0,127.0,127.0,200.0,125.0,4.0,4.1,-260,-255,0,9,222,-259,151.92037272453308,151.92045259475708,151.9239628314972,151.9398055076599,152.09044456481934,152.09044456481934,152.09044456481934,152.09044456481934,152.09044456481934,152.09044456481934,152.09044456481934,154.01098728179932,1,2.063436269760132,None,,,,,,,,,,,,,,,,,,242,1,2025-03-14_09h56.33.850,comp,2024.2.4,54.07239813171102,2025-03-14 09h56.43.596128 -0400,
51,51,0,filler_square,None,None,None,None,None,None,None,None,None,None,3,1.2375152111053467,None,,,,,0,0,0,0,0,51,51,189,154.03009819984436,,,,,,,,,,,,,,,,,,,,,,,,,,,,,,,,,,,,,,,,,,,,,,,,,,,,,,,,,,,,,,,,,,,,,,,,,,,,,,,,,61.628976902167295,70.29574629946477,62.56532229304054,89.55677762101993,98.91439015010258,98.91439015010258,3.0,3.2,-176,-280,0,3,190,256,154.01311326026917,154.0131938457489,154.01673913002014,154.03009819984436,154.17154908180237,154.17154908180237,154.17154908180237,154.17154908180237,154.17154908180237,154.17154908180237,154.17154908180237,155.27222299575806,3,1.2375152111053467,None,,,,,,,,,,,,,,,,,,242,1,2025-03-14_09h56.33.850,comp,2024.2.4,54.07239813171102,2025-03-14 09h56.43.596128 -0400,
52,52,0,critical,wdh,20.0,4.0,upper,125.0,200.0,141.0,141.0,200.0,125.0,1,1.5141985416412354,None,,,,,0,0,0,0,0,52,52,83,155.28888583183289,,,,,,,,,,,,,,,,,,,,,,,,,,,,,,,,,,,,,,,,,,,,,,,,,,,,,,,,,,,,,,,,,,,,,,,,,,,,,,,,,125.0,200.0,141.0,141.0,200.0,125.0,4.0,4.2,-266,6,0,-279,229,-14,155.27375149726868,155.27383732795715,155.27761030197144,155.28888583183289,155.43821382522583,155.43821382522583,155.43821382522583,155.43821382522583,155.43821382522583,155.43821382522583,155.43821382522583,156.80537223815918,1,1.5141985416412354,None,,,,,,,,,,,,,,,,,,242,1,2025-03-14_09h56.33.850,comp,2024.2.4,54.07239813171102,2025-03-14 09h56.43.596128 -0400,
53,53,0,critical,hwd,20.0,4.0,lower,133.0,57.0,57.0,133.0,78.0,78.0,2,2.4838874340057373,None,,,,,0,0,0,0,0,53,53,106,156.8234031200409,,,,,,,,,,,,,,,,,,,,,,,,,,,,,,,,,,,,,,,,,,,,,,,,,,,,,,,,,,,,,,,,,,,,,,,,,,,,,,,,,133.0,57.0,57.0,133.0,78.0,78.0,4.0,4.2,-191,8,0,-252,202,-18,156.80690503120422,156.80698156356812,156.81027698516846,156.8234031200409,156.97127437591553,156.97127437591553,156.97127437591553,156.97127437591553,156.97127437591553,156.97127437591553,156.97127437591553,159.31832194328308,2,2.4838874340057373,None,,,,,,,,,,,,,,,,,,242,1,2025-03-14_09h56.33.850,comp,2024.2.4,54.07239813171102,2025-03-14 09h56.43.596128 -0400,
54,54,0,filler_random,None,None,None,None,None,None,None,None,None,None,3,1.1034464836120605,None,,,,,0,0,0,0,0,54,54,142,159.33905792236328,,,,,,,,,,,,,,,,,,,,,,,,,,,,,,,,,,,,,,,,,,,,,,,,,,,,,,,,,,,,,,,,,,,,,,,,,,,,,,,,,101.24083123444747,60.27601855718788,88.16549464650176,96.44518118859457,153.41278153922553,155.74138735534905,4.0,4.2,-174,-6,0,-258,222,-3,159.32004356384277,159.32012128829956,159.32325839996338,159.33905792236328,159.4737799167633,159.4737799167633,159.4737799167633,159.4737799167633,159.4737799167633,159.4737799167633,159.4737799167633,160.45959758758545,3,1.1034464836120605,None,,,,,,,,,,,,,,,,,,242,1,2025-03-14_09h56.33.850,comp,2024.2.4,54.07239813171102,2025-03-14 09h56.43.596128 -0400,
55,55,0,critical,whd,20.0,2.1,upper,125.0,200.0,200.0,125.0,141.0,141.0,1,1.6845531463623047,None,,,,,0,0,0,0,0,55,55,39,160.47800135612488,,,,,,,,,,,,,,,,,,,,,,,,,,,,,,,,,,,,,,,,,,,,,,,,,,,,,,,,,,,,,,,,,,,,,,,,,,,,,,,,,125.0,200.0,200.0,125.0,141.0,141.0,2.1,2.12,-258,-283,0,-270,229,256,160.46155261993408,160.4616675376892,160.46512603759766,160.47800135612488,160.62228918075562,160.62228918075562,160.62228918075562,160.62228918075562,160.62228918075562,160.62228918075562,160.62228918075562,162.1742193698883,1,1.6845531463623047,None,,,,,,,,,,,,,,,,,,242,1,2025-03-14_09h56.33.850,comp,2024.2.4,54.07239813171102,2025-03-14 09h56.43.596128 -0400,
56,56,0,filler_square,None,None,None,None,None,None,None,None,None,None,2,1.2510502338409424,None,,,,,0,0,0,0,0,56,56,178,162.1915717124939,,,,,,,,,,,,,,,,,,,,,,,,,,,,,,,,,,,,,,,,,,,,,,,,,,,,,,,,,,,,,,,,,,,,,,,,,,,,,,,,,120.7080251728828,110.83896723452472,121.04517008401332,121.04517008401332,99.3627451854564,62.22847118387907,3.0,3.1,-212,257,0,0,188,-288,162.17625641822815,162.17633652687073,162.1804277896881,162.1915717124939,162.33880281448364,162.33880281448364,162.33880281448364,162.33880281448364,162.33880281448364,162.33880281448364,162.33880281448364,163.45788264274597,2,1.2510502338409424,None,,,,,,,,,,,,,,,,,,242,1,2025-03-14_09h56.33.850,comp,2024.2.4,54.07239813171102,2025-03-14 09h56.43.596128 -0400,
57,57,0,filler_random,None,None,None,None,None,None,None,None,None,None,3,1.5290896892547607,None,,,,,0,0,0,0,0,57,57,153,163.4738733768463,,,,,,,,,,,,,,,,,,,,,,,,,,,,,,,,,,,,,,,,,,,,,,,,,,,,,,,,,,,,,,,,,,,,,,,,,,,,,,,,,87.49003908245405,132.53943491770679,135.01113329772687,117.77477760443274,136.12802087859805,133.85905807308166,2.1,2.11,-221,267,0,271,222,-264,163.45971941947937,163.4598171710968,163.463476896286,163.4738733768463,163.63280487060547,163.63280487060547,163.63280487060547,163.63280487060547,163.63280487060547,163.63280487060547,163.63280487060547,165.01313829421997,3,1.5290896892547607,None,,,,,,,,,,,,,,,,,,242,1,2025-03-14_09h56.33.850,comp,2024.2.4,54.07239813171102,2025-03-14 09h56.43.596128 -0400,
58,58,0,critical,dhw,35.0,4.0,upper,127.0,127.0,200.0,125.0,125.0,200.0,3,1.0258152484893799,None,,,,,0,0,0,0,0,58,58,53,165.03352451324463,,,,,,,,,,,,,,,,,,,,,,,,,,,,,,,,,,,,,,,,,,,,,,,,,,,,,,,,,,,,,,,,,,,,,,,,,,,,,,,,,127.0,127.0,200.0,125.0,125.0,200.0,4.0,4.1,-222,-254,0,-9,258,-265,165.0145914554596,165.01467061042786,165.01781821250916,165.03352451324463,165.175555229187,165.175555229187,165.175555229187,165.175555229187,165.175555229187,165.175555229187,165.175555229187,166.06148838996887,3,1.0258152484893799,None,,,,,,,,,,,,,,,,,,242,1,2025-03-14_09h56.33.850,comp,2024.2.4,54.07239813171102,2025-03-14 09h56.43.596128 -0400,
59,59,0,critical,hwd,35.0,2.1,lower,133.0,57.0,57.0,133.0,70.0,70.0,2,1.6373529434204102,None,,,,,0,0,0,0,0,59,59,16,166.07827472686768,,,,,,,,,,,,,,,,,,,,,,,,,,,,,,,,,,,,,,,,,,,,,,,,,,,,,,,,,,,,,,,,,,,,,,,,,,,,,,,,,133.0,57.0,57.0,133.0,70.0,70.0,2.1,2.11,-191,285,0,255,198,-264,166.0630660057068,166.06314516067505,166.06726336479187,166.07827472686768,166.22447514533997,166.22447514533997,166.22447514533997,166.22447514533997,166.22447514533997,166.22447514533997,166.22447514533997,167.7262737751007,2,1.6373529434204102,None,,,,,,,,,,,,,,,,,,242,1,2025-03-14_09h56.33.850,comp,2024.2.4,54.07239813171102,2025-03-14 09h56.43.596128 -0400,
60,60,0,critical,dhw,20.0,3.0,upper,141.0,141.0,200.0,125.0,125.0,200.0,3,1.068830966949463,None,,,,,0,0,0,0,0,60,60,57,167.7426302433014,,,,,,,,,,,,,,,,,,,,,,,,,,,,,,,,,,,,,,,,,,,,,,,,,,,,,,,,,,,,,,,,,,,,,,,,,,,,,,,,,141.0,141.0,200.0,125.0,125.0,200.0,3.0,3.2,-229,-273,0,8,258,251,167.7281002998352,167.72823667526245,167.7318413257599,167.7426302433014,167.89195704460144,167.89195704460144,167.89195704460144,167.89195704460144,167.89195704460144,167.89195704460144,167.89195704460144,168.82884240150452,3,1.068830966949463,None,,,,,,,,,,,,,,,,,,242,1,2025-03-14_09h56.33.850,comp,2024.2.4,54.07239813171102,2025-03-14 09h56.43.596128 -0400,
61,61,0,filler_random,None,None,None,None,None,None,None,None,None,None,3,2.286865711212158,None,,,,,0,0,0,0,0,61,61,140,168.84502911567688,,,,,,,,,,,,,,,,,,,,,,,,,,,,,,,,,,,,,,,,,,,,,,,,,,,,,,,,,,,,,,,,,,,,,,,,,,,,,,,,,70.48570981215266,198.29894506088297,192.7520524314184,92.89975121838101,126.52282514653933,123.6098343791362,2.1,2.11,-242,259,0,254,204,-279,168.83110356330872,168.8311848640442,168.83430409431458,168.84502911567688,168.9914152622223,168.9914152622223,168.9914152622223,168.9914152622223,168.9914152622223,168.9914152622223,168.9914152622223,171.14721369743347,3,2.286865711212158,None,,,,,,,,,,,,,,,,,,242,1,2025-03-14_09h56.33.850,comp,2024.2.4,54.07239813171102,2025-03-14 09h56.43.596128 -0400,
62,62,0,filler_square,None,None,None,None,None,None,None,None,None,None,1,1.0308711528778076,None,,,,,0,0,0,0,0,62,62,192,171.16391468048096,,,,,,,,,,,,,,,,,,,,,,,,,,,,,,,,,,,,,,,,,,,,,,,,,,,,,,,,,,,,,,,,,,,,,,,,,,,,,,,,,110.10532702593801,110.10532702593801,67.06783686070371,106.12195136641228,69.30435934003756,59.38351070393328,4.0,4.1,-204,-282,0,-11,179,-274,171.14949488639832,171.14957404136658,171.15268349647522,171.16391468048096,171.31029748916626,171.31029748916626,171.31029748916626,171.31029748916626,171.31029748916626,171.31029748916626,171.31029748916626,172.21376967430115,1,1.0308711528778076,None,,,,,,,,,,,,,,,,,,242,1,2025-03-14_09h56.33.850,comp,2024.2.4,54.07239813171102,2025-03-14 09h56.43.596128 -0400,
63,63,0,filler_square,None,None,None,None,None,None,None,None,None,None,3,0.8446979522705078,None,,,,,0,0,0,0,0,63,63,173,172.22986912727356,,,,,,,,,,,,,,,,,,,,,,,,,,,,,,,,,,,,,,,,,,,,,,,,,,,,,,,,,,,,,,,,,,,,,,,,,,,,,,,,,61.5365721770549,91.61621116236547,69.78754142982869,69.99355464659618,193.31313399820036,193.31313399820036,3.0,3.1,-177,272,0,-13,228,-254,172.21582436561584,172.21590518951416,172.21937656402588,172.22986912727356,172.3763816356659,172.3763816356659,172.3763816356659,172.3763816356659,172.3763816356659,172.3763816356659,172.3763816356659,173.07738494873047,3,0.8446979522705078,None,,,,,,,,,,,,,,,,,,242,1,2025-03-14_09h56.33.850,comp,2024.2.4,54.07239813171102,2025-03-14 09h56.43.596128 -0400,
64,64,0,filler_square,None,None,None,None,None,None,None,None,None,None,2,5.565009117126465,None,,,,,0,0,0,0,0,64,64,193,173.09387063980103,,,,,,,,,,,,,,,,,,,,,,,,,,,,,,,,,,,,,,,,,,,,,,,,,,,,,,,,,,,,,,,,,,,,,,,,,,,,,,,,,59.41318575317774,59.58914380591889,62.95796537415238,62.95796537415238,57.684436704564106,59.75688430086937,3.0,3.1,-157,257,0,9,157,-284,173.07942843437195,173.07955956459045,173.0830841064453,173.09387063980103,173.24537134170532,173.24537134170532,173.24537134170532,173.24537134170532,173.24537134170532,173.24537134170532,173.24537134170532,178.66177940368652,2,5.565009117126465,None,,,,,,,,,,,,,,,,,,242,1,2025-03-14_09h56.33.850,comp,2024.2.4,54.07239813171102,2025-03-14 09h56.43.596128 -0400,
65,65,0,critical,hwd,35.0,4.0,lower,133.0,57.0,57.0,133.0,70.0,70.0,1,1.2503461837768555,None,,,,,0,0,0,0,0,65,65,100,178.68045568466187,,,,,,,,,,,,,,,,,,,,,,,,,,,,,,,,,,,,,,,,,,,,,,,,,,,,,,,,,,,,,,,,,,,,,,,,,,,,,,,,,133.0,57.0,57.0,133.0,70.0,70.0,4.0,4.2,-191,4,0,-283,198,-15,178.66344571113586,178.66352915763855,178.66718459129333,178.68045568466187,178.82848000526428,178.82848000526428,178.82848000526428,178.82848000526428,178.82848000526428,178.82848000526428,178.82848000526428,179.94613218307495,1,1.2503461837768555,None,,,,,,,,,,,,,,,,,,242,1,2025-03-14_09h56.33.850,comp,2024.2.4,54.07239813171102,2025-03-14 09h56.43.596128 -0400,
66,66,0,critical,hwd,20.0,3.0,lower,133.0,57.0,57.0,133.0,78.0,78.0,2,1.160287857055664,None,,,,,0,0,0,0,0,66,66,104,179.96238899230957,,,,,,,,,,,,,,,,,,,,,,,,,,,,,,,,,,,,,,,,,,,,,,,,,,,,,,,,,,,,,,,,,,,,,,,,,,,,,,,,,133.0,57.0,57.0,133.0,78.0,78.0,3.0,3.1,-191,256,0,-11,202,-263,179.94766974449158,179.94777011871338,179.95119643211365,179.96238899230957,180.1108455657959,180.1108455657959,180.1108455657959,180.1108455657959,180.1108455657959,180.1108455657959,180.1108455657959,181.13423132896423,2,1.160287857055664,None,,,,,,,,,,,,,,,,,,242,1,2025-03-14_09h56.33.850,comp,2024.2.4,54.07239813171102,2025-03-14 09h56.43.596128 -0400,
67,67,0,catch,None,None,None,None,None,None,None,None,None,None,2,0.8917436599731445,None,,,,,0,0,0,0,0,67,67,124,181.15122413635254,,,,,,,,,,,,,,,,,,,,,,,,,,,,,,,,,,,,,,,,,,,,,,,,,,,,,,,,,,,,,,,,,,,,,,,,,,,,,,,,,106,84,162,163,106,84,1.0,1.3,260,-268,480,-283,700,-269,181.13620710372925,181.13628816604614,181.1394646167755,181.15122413635254,181.2945899963379,181.2945899963379,181.2945899963379,181.2945899963379,181.2945899963379,181.2945899963379,181.2945899963379,182.06165027618408,2,0.8917436599731445,None,,,,,,,,,,,,,,,,,,242,1,2025-03-14_09h56.33.850,comp,2024.2.4,54.07239813171102,2025-03-14 09h56.43.596128 -0400,
68,68,0,critical,wdh,20.0,3.0,upper,125.0,200.0,141.0,141.0,200.0,125.0,1,1.4941809177398682,None,,,,,0,0,0,0,0,68,68,81,182.07924628257751,,,,,,,,,,,,,,,,,,,,,,,,,,,,,,,,,,,,,,,,,,,,,,,,,,,,,,,,,,,,,,,,,,,,,,,,,,,,,,,,,125.0,200.0,141.0,141.0,200.0,125.0,3.0,3.1,-266,268,0,4,229,-268,182.06320071220398,182.06327652931213,182.06661367416382,182.07924628257751,182.2296404838562,182.2296404838562,182.2296404838562,182.2296404838562,182.2296404838562,182.2296404838562,182.2296404838562,183.57819318771362,1,1.4941809177398682,None,,,,,,,,,,,,,,,,,,242,1,2025-03-14_09h56.33.850,comp,2024.2.4,54.07239813171102,2025-03-14 09h56.43.596128 -0400,
69,69,0,critical,whd,35.0,2.1,lower,57.0,133.0,133.0,57.0,70.0,70.0,2,1.503474473953247,None,,,,,0,0,0,0,0,69,69,12,183.5950698852539,,,,,,,,,,,,,,,,,,,,,,,,,,,,,,,,,,,,,,,,,,,,,,,,,,,,,,,,,,,,,,,,,,,,,,,,,,,,,,,,,57.0,133.0,133.0,57.0,70.0,70.0,2.1,2.11,-191,264,0,252,160,-268,183.57974553108215,183.57982730865479,183.58322286605835,183.5950698852539,183.74562740325928,183.74562740325928,183.74562740325928,183.74562740325928,183.74562740325928,183.74562740325928,183.74562740325928,185.1131715774536,2,1.503474473953247,None,,,,,,,,,,,,,,,,,,242,1,2025-03-14_09h56.33.850,comp,2024.2.4,54.07239813171102,2025-03-14 09h56.43.596128 -0400,
70,70,0,filler_random,None,None,None,None,None,None,None,None,None,None,2,1.2018322944641113,None,,,,,0,0,0,0,0,70,70,144,185.12939834594727,,,,,,,,,,,,,,,,,,,,,,,,,,,,,,,,,,,,,,,,,,,,,,,,,,,,,,,,,,,,,,,,,,,,,,,,,,,,,,,,,135.80477249979,130.81038018846425,133.87134494054874,153.90299542239555,105.465991342287,75.39497136634967,1.0,1.3,242,-281,480,-279,691,-279,185.114914894104,185.11499524116516,185.11865329742432,185.12939834594727,185.28397703170776,185.28397703170776,185.28397703170776,185.28397703170776,185.28397703170776,185.28397703170776,185.28397703170776,186.3484959602356,2,1.2018322944641113,None,,,,,,,,,,,,,,,,,,242,1,2025-03-14_09h56.33.850,comp,2024.2.4,54.07239813171102,2025-03-14 09h56.43.596128 -0400,
71,71,0,critical,hdw,20.0,4.0,lower,133.0,57.0,78.0,78.0,57.0,133.0,2,2.9097018241882324,None,,,,,0,0,0,0,0,71,71,118,186.36485648155212,,,,,,,,,,,,,,,,,,,,,,,,,,,,,,,,,,,,,,,,,,,,,,,,,,,,,,,,,,,,,,,,,,,,,,,,,,,,,,,,,133.0,57.0,78.0,78.0,57.0,133.0,4.0,4.2,-164,-19,0,-285,202,-14,186.35013103485107,186.35026955604553,186.35439920425415,186.36485648155212,186.51520085334778,186.51520085334778,186.51520085334778,186.51520085334778,186.51520085334778,186.51520085334778,186.51520085334778,189.28538870811462,2,2.9097018241882324,None,,,,,,,,,,,,,,,,,,242,1,2025-03-14_09h56.33.850,comp,2024.2.4,54.07239813171102,2025-03-14 09h56.43.596128 -0400,
72,72,0,critical,dwh,35.0,2.1,upper,127.0,127.0,125.0,200.0,200.0,125.0,3,2.5904037952423096,None,,,,,0,0,0,0,0,72,72,5,189.3013722896576,,,,,,,,,,,,,,,,,,,,,,,,,,,,,,,,,,,,,,,,,,,,,,,,,,,,,,,,,,,,,,,,,,,,,,,,,,,,,,,,,127.0,127.0,125.0,200.0,200.0,125.0,2.1,2.11,-260,272,0,268,258,-252,189.28714680671692,189.2872292995453,189.290385723114,189.3013722896576,189.4528341293335,189.4528341293335,189.4528341293335,189.4528341293335,189.4528341293335,189.4528341293335,189.4528341293335,191.8992793560028,3,2.5904037952423096,None,,,,,,,,,,,,,,,,,,242,1,2025-03-14_09h56.33.850,comp,2024.2.4,54.07239813171102,2025-03-14 09h56.43.596128 -0400,
73,73,0,critical,hwd,35.0,1.0,upper,200.0,125.0,125.0,200.0,127.0,127.0,2,1.6711630821228027,None,,,,,0,0,0,0,0,73,73,97,191.91551804542542,,,,,,,,,,,,,,,,,,,,,,,,,,,,,,,,,,,,,,,,,,,,,,,,,,,,,,,,,,,,,,,,,,,,,,,,,,,,,,,,,200.0,125.0,125.0,200.0,127.0,127.0,1.0,1.3,222,-270,480,-272,740,-275,191.90086460113525,191.90094447135925,191.90464973449707,191.91551804542542,192.06532907485962,192.06532907485962,192.06532907485962,192.06532907485962,192.06532907485962,192.06532907485962,192.06532907485962,193.59643745422363,2,1.6711630821228027,None,,,,,,,,,,,,,,,,,,242,1,2025-03-14_09h56.33.850,comp,2024.2.4,54.07239813171102,2025-03-14 09h56.43.596128 -0400,
74,74,0,critical,dwh,20.0,4.0,lower,78.0,78.0,57.0,133.0,133.0,57.0,3,1.909963607788086,None,,,,,0,0,0,0,0,74,74,70,193.61352586746216,,,,,,,,,,,,,,,,,,,,,,,,,,,,,,,,,,,,,,,,,,,,,,,,,,,,,,,,,,,,,,,,,,,,,,,,,,,,,,,,,78.0,78.0,57.0,133.0,133.0,57.0,4.0,4.1,-202,-280,0,-4,191,-270,193.59804487228394,193.59812355041504,193.60163044929504,193.61352586746216,193.7495949268341,193.7495949268341,193.7495949268341,193.7495949268341,193.7495949268341,193.7495949268341,193.7495949268341,195.52962160110474,3,1.909963607788086,None,,,,,,,,,,,,,,,,,,242,1,2025-03-14_09h56.33.850,comp,2024.2.4,54.07239813171102,2025-03-14 09h56.43.596128 -0400,
75,75,0,critical,hwd,20.0,2.1,lower,133.0,57.0,57.0,133.0,78.0,78.0,2,1.8024277687072754,None,,,,,0,0,0,0,0,75,75,42,195.54510402679443,,,,,,,,,,,,,,,,,,,,,,,,,,,,,,,,,,,,,,,,,,,,,,,,,,,,,,,,,,,,,,,,,,,,,,,,,,,,,,,,,133.0,57.0,57.0,133.0,78.0,78.0,2.1,2.11,-191,269,0,265,202,-286,195.5312054157257,195.53129410743713,195.53479504585266,195.54510402679443,195.68806266784668,195.68806266784668,195.68806266784668,195.68806266784668,195.68806266784668,195.68806266784668,195.68806266784668,197.35186433792114,2,1.8024277687072754,None,,,,,,,,,,,,,,,,,,242,1,2025-03-14_09h56.33.850,comp,2024.2.4,54.07239813171102,2025-03-14 09h56.43.596128 -0400,
76,76,0,critical,hdw,35.0,2.1,lower,133.0,57.0,70.0,70.0,57.0,133.0,3,2.833191394805908,None,,,,,0,0,0,0,0,76,76,20,197.36950063705444,,,,,,,,,,,,,,,,,,,,,,,,,,,,,,,,,,,,,,,,,,,,,,,,,,,,,,,,,,,,,,,,,,,,,,,,,,,,,,,,,133.0,57.0,70.0,70.0,57.0,133.0,2.1,2.11,-160,276,0,279,198,-257,197.35372972488403,197.35386204719543,197.35800862312317,197.36950063705444,197.52133202552795,197.52133202552795,197.52133202552795,197.52133202552795,197.52133202552795,197.52133202552795,197.52133202552795,200.2174427509308,3,2.833191394805908,None,,,,,,,,,,,,,,,,,,242,1,2025-03-14_09h56.33.850,comp,2024.2.4,54.07239813171102,2025-03-14 09h56.43.596128 -0400,
77,77,0,critical,whd,20.0,2.1,lower,57.0,133.0,133.0,57.0,78.0,78.0,1,1.589789867401123,None,,,,,0,0,0,0,0,77,77,14,200.23821568489075,,,,,,,,,,,,,,,,,,,,,,,,,,,,,,,,,,,,,,,,,,,,,,,,,,,,,,,,,,,,,,,,,,,,,,,,,,,,,,,,,57.0,133.0,133.0,57.0,78.0,78.0,2.1,2.12,-191,-277,0,-265,164,256,200.21919751167297,200.21931743621826,200.22286558151245,200.23821568489075,200.38578271865845,200.38578271865845,200.38578271865845,200.38578271865845,200.38578271865845,200.38578271865845,200.38578271865845,201.83650064468384,1,1.589789867401123,None,,,,,,,,,,,,,,,,,,242,1,2025-03-14_09h56.33.850,comp,2024.2.4,54.07239813171102,2025-03-14 09h56.43.596128 -0400,
78,78,0,critical,dhw,35.0,2.1,upper,127.0,127.0,200.0,125.0,125.0,200.0,3,1.0122473239898682,None,,,,,0,0,0,0,0,78,78,25,201.85510873794556,,,,,,,,,,,,,,,,,,,,,,,,,,,,,,,,,,,,,,,,,,,,,,,,,,,,,,,,,,,,,,,,,,,,,,,,,,,,,,,,,127.0,127.0,200.0,125.0,125.0,200.0,2.1,2.12,-222,-252,0,-280,258,253,201.83811926841736,201.83824944496155,201.84217071533203,201.85510873794556,202.00212502479553,202.00212502479553,202.00212502479553,202.00212502479553,202.00212502479553,202.00212502479553,202.00212502479553,202.86938643455505,3,1.0122473239898682,None,,,,,,,,,,,,,,,,,,242,1,2025-03-14_09h56.33.850,comp,2024.2.4,54.07239813171102,2025-03-14 09h56.43.596128 -0400,
79,79,0,filler_random,None,None,None,None,None,None,None,None,None,None,2,0.8929290771484375,None,,,,,0,0,0,0,0,79,79,137,202.88654255867004,,,,,,,,,,,,,,,,,,,,,,,,,,,,,,,,,,,,,,,,,,,,,,,,,,,,,,,,,,,,,,,,,,,,,,,,,,,,,,,,,133.60383251081038,94.8806249474668,186.73042303957655,193.10986919088174,61.31885187923967,105.45308378291642,2.2,2.21,-240,-269,0,275,245,285,202.8714084625244,202.8714883327484,202.8755202293396,202.88654255867004,203.03565764427185,203.03565764427185,203.03565764427185,203.03565764427185,203.03565764427185,203.03565764427185,203.03565764427185,203.7862365245819,2,0.8929290771484375,None,,,,,,,,,,,,,,,,,,242,1,2025-03-14_09h56.33.850,comp,2024.2.4,54.07239813171102,2025-03-14 09h56.43.596128 -0400,
80,80,0,critical,hdw,20.0,4.0,upper,200.0,125.0,141.0,141.0,125.0,200.0,3,1.3446276187896729,None,,,,,0,0,0,0,0,80,80,119,203.80222415924072,,,,,,,,,,,,,,,,,,,,,,,,,,,,,,,,,,,,,,,,,,,,,,,,,,,,,,,,,,,,,,,,,,,,,,,,,,,,,,,,,200.0,125.0,141.0,141.0,125.0,200.0,4.0,4.2,-229,12,0,-256,266,-5,203.7877655029297,203.78784728050232,203.7913625240326,203.80222415924072,203.9533224105835,203.9533224105835,203.9533224105835,203.9533224105835,203.9533224105835,203.9533224105835,203.9533224105835,205.16897869110107,3,1.3446276187896729,None,,,,,,,,,,,,,,,,,,242,1,2025-03-14_09h56.33.850,comp,2024.2.4,54.07239813171102,2025-03-14 09h56.43.596128 -0400,
81,81,0,critical,wdh,35.0,4.0,lower,57.0,133.0,70.0,70.0,133.0,57.0,1,0.992607593536377,None,,,,,0,0,0,0,0,81,81,76,205.18709325790405,,,,,,,,,,,,,,,,,,,,,,,,,,,,,,,,,,,,,,,,,,,,,,,,,,,,,,,,,,,,,,,,,,,,,,,,,,,,,,,,,57.0,133.0,70.0,70.0,133.0,57.0,4.0,4.2,-198,-16,0,-282,160,-1,205.17060661315918,205.17069244384766,205.17423486709595,205.18709325790405,205.33721041679382,205.33721041679382,205.33721041679382,205.33721041679382,205.33721041679382,205.33721041679382,205.33721041679382,206.18777775764465,1,0.992607593536377,None,,,,,,,,,,,,,,,,,,242,1,2025-03-14_09h56.33.850,comp,2024.2.4,54.07239813171102,2025-03-14 09h56.43.596128 -0400,
82,82,0,critical,hdw,20.0,2.1,lower,133.0,57.0,78.0,78.0,57.0,133.0,2,1.1021530628204346,None,,,,,0,0,0,0,0,82,82,22,206.2047894001007,,,,,,,,,,,,,,,,,,,,,,,,,,,,,,,,,,,,,,,,,,,,,,,,,,,,,,,,,,,,,,,,,,,,,,,,,,,,,,,,,133.0,57.0,78.0,78.0,57.0,133.0,2.1,2.11,-164,285,0,250,202,-283,206.18933820724487,206.18945217132568,206.1930320262909,206.2047894001007,206.35920691490173,206.35920691490173,206.35920691490173,206.35920691490173,206.35920691490173,206.35920691490173,206.35920691490173,207.3251326084137,2,1.1021530628204346,None,,,,,,,,,,,,,,,,,,242,1,2025-03-14_09h56.33.850,comp,2024.2.4,54.07239813171102,2025-03-14 09h56.43.596128 -0400,
83,83,0,critical,whd,20.0,3.0,upper,125.0,200.0,200.0,125.0,141.0,141.0,1,2.5244734287261963,None,,,,,0,0,0,0,0,83,83,93,207.34303641319275,,,,,,,,,,,,,,,,,,,,,,,,,,,,,,,,,,,,,,,,,,,,,,,,,,,,,,,,,,,,,,,,,,,,,,,,,,,,,,,,,125.0,200.0,200.0,125.0,141.0,141.0,3.0,3.1,-258,268,0,0,229,-253,207.32675552368164,207.32685685157776,207.33038067817688,207.34303641319275,207.48808550834656,207.48808550834656,207.48808550834656,207.48808550834656,207.48808550834656,207.48808550834656,207.48808550834656,209.87129855155945,1,2.5244734287261963,None,,,,,,,,,,,,,,,,,,242,1,2025-03-14_09h56.33.850,comp,2024.2.4,54.07239813171102,2025-03-14 09h56.43.596128 -0400,
84,84,0,critical,hdw,35.0,2.1,upper,200.0,125.0,127.0,127.0,125.0,200.0,3,1.395418643951416,None,,,,,0,0,0,0,0,84,84,21,209.88767957687378,,,,,,,,,,,,,,,,,,,,,,,,,,,,,,,,,,,,,,,,,,,,,,,,,,,,,,,,,,,,,,,,,,,,,,,,,,,,,,,,,200.0,125.0,127.0,127.0,125.0,200.0,2.1,2.11,-222,250,0,283,260,-263,209.872816324234,209.87291646003723,209.87654638290405,209.88767957687378,210.03682732582092,210.03682732582092,210.03682732582092,210.03682732582092,210.03682732582092,210.03682732582092,210.03682732582092,211.2924449443817,3,1.395418643951416,None,,,,,,,,,,,,,,,,,,242,1,2025-03-14_09h56.33.850,comp,2024.2.4,54.07239813171102,2025-03-14 09h56.43.596128 -0400,
85,85,0,critical,dhw,35.0,3.0,lower,70.0,70.0,133.0,57.0,57.0,133.0,3,1.9390742778778076,None,,,,,0,0,0,0,0,85,85,50,211.31232476234436,,,,,,,,,,,,,,,,,,,,,,,,,,,,,,,,,,,,,,,,,,,,,,,,,,,,,,,,,,,,,,,,,,,,,,,,,,,,,,,,,70.0,70.0,133.0,57.0,57.0,133.0,3.0,3.2,-160,-284,0,9,191,277,211.29418230056763,211.2942614555359,211.2974808216095,211.31232476234436,211.4535710811615,211.4535710811615,211.4535710811615,211.4535710811615,211.4535710811615,211.4535710811615,211.4535710811615,213.25699138641357,3,1.9390742778778076,None,,,,,,,,,,,,,,,,,,242,1,2025-03-14_09h56.33.850,comp,2024.2.4,54.07239813171102,2025-03-14 09h56.43.596128 -0400,
86,86,0,filler_square,None,None,None,None,None,None,None,None,None,None,3,1.195899248123169,None,,,,,0,0,0,0,0,86,86,197,213.27893137931824,,,,,,,,,,,,,,,,,,,,,,,,,,,,,,,,,,,,,,,,,,,,,,,,,,,,,,,,,,,,,,,,,,,,,,,,,,,,,,,,,132.43301321701736,104.58803406122604,89.98082816699176,177.69350844498553,188.7108360296246,188.7108360296246,1.0,1.3,243,-284,480,-272,759,-282,213.25907516479492,213.25915455818176,213.2629373073578,213.27893137931824,213.41117763519287,213.41117763519287,213.41117763519287,213.41117763519287,213.41117763519287,213.41117763519287,213.41117763519287,214.4905400276184,3,1.195899248123169,None,,,,,,,,,,,,,,,,,,242,1,2025-03-14_09h56.33.850,comp,2024.2.4,54.07239813171102,2025-03-14 09h56.43.596128 -0400,
87,87,0,critical,dhw,20.0,1.0,upper,141.0,141.0,200.0,125.0,125.0,200.0,2,2.7433226108551025,None,,,,,0,0,0,0,0,87,87,55,214.50817441940308,,,,,,,,,,,,,,,,,,,,,,,,,,,,,,,,,,,,,,,,,,,,,,,,,,,,,,,,,,,,,,,,,,,,,,,,,,,,,,,,,141.0,141.0,200.0,125.0,125.0,200.0,1.0,1.1,-709,275,-480,257,-222,255,214.49214339256287,214.49222350120544,214.49540853500366,214.50817441940308,214.65520071983337,214.65520071983337,214.65520071983337,214.65520071983337,214.65520071983337,214.65520071983337,214.65520071983337,217.25855922698975,2,2.7433226108551025,None,,,,,,,,,,,,,,,,,,242,1,2025-03-14_09h56.33.850,comp,2024.2.4,54.07239813171102,2025-03-14 09h56.43.596128 -0400,
88,88,0,critical,dhw,35.0,3.0,upper,127.0,127.0,200.0,125.0,125.0,200.0,2,2.0314905643463135,None,,,,,0,0,0,0,0,88,88,51,217.27513074874878,,,,,,,,,,,,,,,,,,,,,,,,,,,,,,,,,,,,,,,,,,,,,,,,,,,,,,,,,,,,,,,,,,,,,,,,,,,,,,,,,127.0,127.0,200.0,125.0,125.0,200.0,3.0,3.2,-222,-270,0,5,258,273,217.26019430160522,217.26030707359314,217.26407384872437,217.27513074874878,217.42360067367554,217.42360067367554,217.42360067367554,217.42360067367554,217.42360067367554,217.42360067367554,217.42360067367554,219.30866742134094,2,2.0314905643463135,None,,,,,,,,,,,,,,,,,,242,1,2025-03-14_09h56.33.850,comp,2024.2.4,54.07239813171102,2025-03-14 09h56.43.596128 -0400,
89,89,0,critical,dwh,20.0,2.1,lower,78.0,78.0,57.0,133.0,133.0,57.0,3,2.293769121170044,None,,,,,0,0,0,0,0,89,89,30,219.3247787952423,,,,,,,,,,,,,,,,,,,,,,,,,,,,,,,,,,,,,,,,,,,,,,,,,,,,,,,,,,,,,,,,,,,,,,,,,,,,,,,,,78.0,78.0,57.0,133.0,133.0,57.0,2.1,2.12,-202,-273,0,-270,191,269,219.31035327911377,219.31043577194214,219.3139612674713,219.3247787952423,219.47513794898987,219.47513794898987,219.47513794898987,219.47513794898987,219.47513794898987,219.47513794898987,219.47513794898987,221.62074255943298,3,2.293769121170044,None,,,,,,,,,,,,,,,,,,242,1,2025-03-14_09h56.33.850,comp,2024.2.4,54.07239813171102,2025-03-14 09h56.43.596128 -0400,
90,90,0,critical,dhw,35.0,4.0,lower,70.0,70.0,133.0,57.0,57.0,133.0,3,0.9320559501647949,None,,,,,0,0,0,0,0,90,90,52,221.6388590335846,,,,,,,,,,,,,,,,,,,,,,,,,,,,,,,,,,,,,,,,,,,,,,,,,,,,,,,,,,,,,,,,,,,,,,,,,,,,,,,,,70.0,70.0,133.0,57.0,57.0,133.0,4.0,4.1,-160,-267,0,5,191,-283,221.62145805358887,221.62149143218994,221.62302017211914,221.6388590335846,221.77216267585754,221.77216267585754,221.77216267585754,221.77216267585754,221.77216267585754,221.77216267585754,221.77216267585754,222.57575058937073,3,0.9320559501647949,None,,,,,,,,,,,,,,,,,,242,1,2025-03-14_09h56.33.850,comp,2024.2.4,54.07239813171102,2025-03-14 09h56.43.596128 -0400,
91,91,0,critical,wdh,35.0,3.0,upper,125.0,200.0,127.0,127.0,200.0,125.0,1,1.0656936168670654,None,,,,,0,0,0,0,0,91,91,75,222.59405255317688,,,,,,,,,,,,,,,,,,,,,,,,,,,,,,,,,,,,,,,,,,,,,,,,,,,,,,,,,,,,,,,,,,,,,,,,,,,,,,,,,125.0,200.0,127.0,127.0,200.0,125.0,3.0,3.1,-260,290,0,-16,222,-264,222.57726645469666,222.57734608650208,222.58085298538208,222.59405255317688,222.74206590652466,222.74206590652466,222.74206590652466,222.74206590652466,222.74206590652466,222.74206590652466,222.74206590652466,223.66823482513428,1,1.0656936168670654,None,,,,,,,,,,,,,,,,,,242,1,2025-03-14_09h56.33.850,comp,2024.2.4,54.07239813171102,2025-03-14 09h56.43.596128 -0400,
92,92,0,filler_random,None,None,None,None,None,None,None,None,None,None,3,1.0683138370513916,None,,,,,0,0,0,0,0,92,92,131,223.6863350868225,,,,,,,,,,,,,,,,,,,,,,,,,,,,,,,,,,,,,,,,,,,,,,,,,,,,,,,,,,,,,,,,,,,,,,,,,,,,,,,,,75.0143024688191,146.15652127406727,145.84617888139798,193.11036708194626,191.94721604080473,163.06662891151228,1.0,1.3,214,-281,480,-284,754,-290,223.66999697685242,223.6700792312622,223.67317533493042,223.6863350868225,223.8251247406006,223.8251247406006,223.8251247406006,223.8251247406006,223.8251247406006,223.8251247406006,223.8251247406006,224.7684018611908,3,1.0683138370513916,None,,,,,,,,,,,,,,,,,,242,1,2025-03-14_09h56.33.850,comp,2024.2.4,54.07239813171102,2025-03-14 09h56.43.596128 -0400,
93,93,0,critical,hdw,35.0,4.0,upper,200.0,125.0,127.0,127.0,125.0,200.0,3,1.7530534267425537,None,,,,,0,0,0,0,0,93,93,113,224.78650617599487,,,,,,,,,,,,,,,,,,,,,,,,,,,,,,,,,,,,,,,,,,,,,,,,,,,,,,,,,,,,,,,,,,,,,,,,,,,,,,,,,200.0,125.0,127.0,127.0,125.0,200.0,4.0,4.1,-222,-252,0,14,260,-253,224.76999855041504,224.77007865905762,224.7732388973236,224.78650617599487,224.93281865119934,224.93281865119934,224.93281865119934,224.93281865119934,224.93281865119934,224.93281865119934,224.93281865119934,226.5456850528717,3,1.7530534267425537,None,,,,,,,,,,,,,,,,,,242,1,2025-03-14_09h56.33.850,comp,2024.2.4,54.07239813171102,2025-03-14 09h56.43.596128 -0400,
94,94,0,filler_random,None,None,None,None,None,None,None,None,None,None,2,1.0076253414154053,None,,,,,0,0,0,0,0,94,94,156,226.56305837631226,,,,,,,,,,,,,,,,,,,,,,,,,,,,,,,,,,,,,,,,,,,,,,,,,,,,,,,,,,,,,,,,,,,,,,,,,,,,,,,,,103.08402653830223,166.38214603616092,163.96048629618758,162.27288094492587,191.50012667087586,82.68257487849775,3.0,3.2,-260,-265,0,-8,218,289,226.54782819747925,226.54791259765625,226.5516641139984,226.56305837631226,226.71294331550598,226.71294331550598,226.71294331550598,226.71294331550598,226.71294331550598,226.71294331550598,226.71294331550598,227.58659482002258,2,1.0076253414154053,None,,,,,,,,,,,,,,,,,,242,1,2025-03-14_09h56.33.850,comp,2024.2.4,54.07239813171102,2025-03-14 09h56.43.596128 -0400,
95,95,0,critical,dwh,20.0,1.0,lower,78.0,78.0,57.0,133.0,133.0,57.0,2,1.468463659286499,None,,,,,0,0,0,0,0,95,95,66,227.60728907585144,,,,,,,,,,,,,,,,,,,,,,,,,,,,,,,,,,,,,,,,,,,,,,,,,,,,,,,,,,,,,,,,,,,,,,,,,,,,,,,,,78.0,78.0,57.0,133.0,133.0,57.0,1.0,1.3,278,-251,480,-284,671,-265,227.58825492858887,227.58837866783142,227.591872215271,227.60728907585144,227.74645328521729,227.74645328521729,227.74645328521729,227.74645328521729,227.74645328521729,227.74645328521729,227.74645328521729,229.08349704742432,2,1.468463659286499,None,,,,,,,,,,,,,,,,,,242,1,2025-03-14_09h56.33.850,comp,2024.2.4,54.07239813171102,2025-03-14 09h56.43.596128 -0400,
96,96,0,critical,hwd,35.0,2.1,upper,200.0,125.0,125.0,200.0,127.0,127.0,2,1.773547649383545,None,,,,,0,0,0,0,0,96,96,17,229.1018397808075,,,,,,,,,,,,,,,,,,,,,,,,,,,,,,,,,,,,,,,,,,,,,,,,,,,,,,,,,,,,,,,,,,,,,,,,,,,,,,,,,200.0,125.0,125.0,200.0,127.0,127.0,2.1,2.11,-258,286,0,264,260,-258,229.08507299423218,229.08515191078186,229.08826112747192,229.1018397808075,229.24250292778015,229.24250292778015,229.24250292778015,229.24250292778015,229.24250292778015,229.24250292778015,229.24250292778015,230.87813782691956,2,1.773547649383545,None,,,,,,,,,,,,,,,,,,242,1,2025-03-14_09h56.33.850,comp,2024.2.4,54.07239813171102,2025-03-14 09h56.43.596128 -0400,
97,97,0,filler_random,None,None,None,None,None,None,None,None,None,None,1,1.180241584777832,None,,,,,0,0,0,0,0,97,97,164,230.89527416229248,,,,,,,,,,,,,,,,,,,,,,,,,,,,,,,,,,,,,,,,,,,,,,,,,,,,,,,,,,,,,,,,,,,,,,,,,,,,,,,,,181.83872197220467,198.62047974849682,174.74105663360024,142.24519772249056,83.52506391785961,162.5289905316473,2.2,2.22,-266,275,0,-272,248,-256,230.8799111843109,230.8799912929535,230.88416934013367,230.89527416229248,231.0434489250183,231.0434489250183,231.0434489250183,231.0434489250183,231.0434489250183,231.0434489250183,231.0434489250183,232.09413838386536,1,1.180241584777832,None,,,,,,,,,,,,,,,,,,242,1,2025-03-14_09h56.33.850,comp,2024.2.4,54.07239813171102,2025-03-14 09h56.43.596128 -0400,
98,98,0,critical,whd,35.0,4.0,upper,125.0,200.0,200.0,125.0,127.0,127.0,1,1.7807581424713135,None,,,,,0,0,0,0,0,98,98,89,232.11092567443848,,,,,,,,,,,,,,,,,,,,,,,,,,,,,,,,,,,,,,,,,,,,,,,,,,,,,,,,,,,,,,,,,,,,,,,,,,,,,,,,,125.0,200.0,200.0,125.0,127.0,127.0,4.0,4.2,-258,-8,0,-260,222,-8,232.09576225280762,232.09584212303162,232.09938979148865,232.11092567443848,232.2643117904663,232.2643117904663,232.2643117904663,232.2643117904663,232.2643117904663,232.2643117904663,232.2643117904663,233.895525932312,1,1.7807581424713135,None,,,,,,,,,,,,,,,,,,242,1,2025-03-14_09h56.33.850,comp,2024.2.4,54.07239813171102,2025-03-14 09h56.43.596128 -0400,
99,99,0,critical,whd,20.0,4.0,upper,125.0,200.0,200.0,125.0,141.0,141.0,1,1.274240493774414,None,,,,,0,0,0,0,0,99,99,95,233.91247606277466,,,,,,,,,,,,,,,,,,,,,,,,,,,,,,,,,,,,,,,,,,,,,,,,,,,,,,,,,,,,,,,,,,,,,,,,,,,,,,,,,125.0,200.0,200.0,125.0,141.0,141.0,4.0,4.2,-258,9,0,-284,229,-5,233.8970799446106,233.89715790748596,233.9015190601349,233.91247606277466,234.0677592754364,234.0677592754364,234.0677592754364,234.0677592754364,234.0677592754364,234.0677592754364,234.0677592754364,235.20295810699463,1,1.274240493774414,None,,,,,,,,,,,,,,,,,,242,1,2025-03-14_09h56.33.850,comp,2024.2.4,54.07239813171102,2025-03-14 09h56.43.596128 -0400,
100,100,0,critical,dwh,20.0,3.0,lower,78.0,78.0,57.0,133.0,133.0,57.0,2,2.2724971771240234,None,,,,,0,0,0,0,0,100,100,68,235.2189483642578,,,,,,,,,,,,,,,,,,,,,,,,,,,,,,,,,,,,,,,,,,,,,,,,,,,,,,,,,,,,,,,,,,,,,,,,,,,,,,,,,78.0,78.0,57.0,133.0,133.0,57.0,3.0,3.2,-202,-276,0,15,191,287,235.2044689655304,235.2045476436615,235.2076370716095,235.2189483642578,235.36153101921082,235.36153101921082,235.36153101921082,235.36153101921082,235.36153101921082,235.36153101921082,235.36153101921082,237.49685859680176,2,2.2724971771240234,None,,,,,,,,,,,,,,,,,,242,1,2025-03-14_09h56.33.850,comp,2024.2.4,54.07239813171102,2025-03-14 09h56.43.596128 -0400,
101,101,0,catch,None,None,None,None,None,None,None,None,None,None,1,0.9609713554382324,None,,,,,0,0,0,0,0,101,101,128,237.51435732841492,,,,,,,,,,,,,,,,,,,,,,,,,,,,,,,,,,,,,,,,,,,,,,,,,,,,,,,,,,,,,,,,,,,,,,,,,,,,,,,,,184,141,120,70,107,83,1.0,1.3,278,-266,480,-266,652,-271,237.4991147518158,237.49919891357422,237.50305461883545,237.51435732841492,237.65133261680603,237.65133261680603,237.65133261680603,237.65133261680603,237.65133261680603,237.65133261680603,237.65133261680603,238.4794557094574,1,0.9609713554382324,None,,,,,,,,,,,,,,,,,,242,1,2025-03-14_09h56.33.850,comp,2024.2.4,54.07239813171102,2025-03-14 09h56.43.596128 -0400,
102,102,0,critical,hwd,35.0,4.0,upper,200.0,125.0,125.0,200.0,127.0,127.0,2,1.1988341808319092,None,,,,,0,0,0,0,0,102,102,101,238.49990057945251,,,,,,,,,,,,,,,,,,,,,,,,,,,,,,,,,,,,,,,,,,,,,,,,,,,,,,,,,,,,,,,,,,,,,,,,,,,,,,,,,200.0,125.0,125.0,200.0,127.0,127.0,4.0,4.1,-258,-251,0,8,260,-288,238.48105025291443,238.481130361557,238.48433589935303,238.49990057945251,238.64766478538513,238.64766478538513,238.64766478538513,238.64766478538513,238.64766478538513,238.64766478538513,238.64766478538513,239.7138328552246,2,1.1988341808319092,None,,,,,,,,,,,,,,,,,,242,1,2025-03-14_09h56.33.850,comp,2024.2.4,54.07239813171102,2025-03-14 09h56.43.596128 -0400,
103,103,0,critical,hdw,35.0,3.0,upper,200.0,125.0,127.0,127.0,125.0,200.0,3,1.0569446086883545,None,,,,,0,0,0,0,0,103,103,111,239.72985243797302,,,,,,,,,,,,,,,,,,,,,,,,,,,,,,,,,,,,,,,,,,,,,,,,,,,,,,,,,,,,,,,,,,,,,,,,,,,,,,,,,200.0,125.0,127.0,127.0,125.0,200.0,3.0,3.2,-222,-263,0,-14,260,254,239.7153902053833,239.71546745300293,239.71914863586426,239.72985243797302,239.87998056411743,239.87998056411743,239.87998056411743,239.87998056411743,239.87998056411743,239.87998056411743,239.87998056411743,240.79801273345947,3,1.0569446086883545,None,,,,,,,,,,,,,,,,,,242,1,2025-03-14_09h56.33.850,comp,2024.2.4,54.07239813171102,2025-03-14 09h56.43.596128 -0400,
104,104,0,critical,dwh,20.0,2.1,upper,141.0,141.0,125.0,200.0,200.0,125.0,2,1.6033267974853516,None,,,,,0,0,0,0,0,104,104,7,240.81608772277832,,,,,,,,,,,,,,,,,,,,,,,,,,,,,,,,,,,,,,,,,,,,,,,,,,,,,,,,,,,,,,,,,,,,,,,,,,,,,,,,,141.0,141.0,125.0,200.0,200.0,125.0,2.1,2.12,-266,-250,0,-285,258,254,240.7995321750641,240.79961109161377,240.80289006233215,240.81608772277832,240.96900701522827,240.96900701522827,240.96900701522827,240.96900701522827,240.96900701522827,240.96900701522827,240.96900701522827,242.43216490745544,2,1.6033267974853516,None,,,,,,,,,,,,,,,,,,242,1,2025-03-14_09h56.33.850,comp,2024.2.4,54.07239813171102,2025-03-14 09h56.43.596128 -0400,
105,105,0,filler_square,None,None,None,None,None,None,None,None,None,None,2,1.074674367904663,None,,,,,0,0,0,0,0,105,105,199,242.44886326789856,,,,,,,,,,,,,,,,,,,,,,,,,,,,,,,,,,,,,,,,,,,,,,,,,,,,,,,,,,,,,,,,,,,,,,,,,,,,,,,,,89.05487491487582,112.17706055043271,198.6763782971556,198.6763782971556,60.207822321656316,139.8813167199121,3.0,3.2,-251,-289,0,-16,265,280,242.43430137634277,242.43438076972961,242.43834280967712,242.44886326789856,242.59708547592163,242.59708547592163,242.59708547592163,242.59708547592163,242.59708547592163,242.59708547592163,242.59708547592163,243.53100991249084,2,1.074674367904663,None,,,,,,,,,,,,,,,,,,242,1,2025-03-14_09h56.33.850,comp,2024.2.4,54.07239813171102,2025-03-14 09h56.43.596128 -0400,
106,106,0,filler_random,None,None,None,None,None,None,None,None,None,None,1,1.3582088947296143,None,,,,,0,0,0,0,0,106,106,133,243.5483853816986,,,,,,,,,,,,,,,,,,,,,,,,,,,,,,,,,,,,,,,,,,,,,,,,,,,,,,,,,,,,,,,,,,,,,,,,,,,,,,,,,197.71224884702704,185.70812548592968,145.89878517953676,163.59509564188443,58.767128157437526,192.4535933318938,2.2,2.21,-271,-281,0,255,274,251,243.53268003463745,243.53279280662537,243.53627586364746,243.5483853816986,243.70452284812927,243.70452284812927,243.70452284812927,243.70452284812927,243.70452284812927,243.70452284812927,243.70452284812927,244.91665744781494,1,1.3582088947296143,None,,,,,,,,,,,,,,,,,,242,1,2025-03-14_09h56.33.850,comp,2024.2.4,54.07239813171102,2025-03-14 09h56.43.596128 -0400,
107,107,0,critical,dwh,20.0,2.1,upper,141.0,141.0,125.0,200.0,200.0,125.0,2,1.1739695072174072,None,,,,,0,0,0,0,0,107,107,31,244.93325757980347,,,,,,,,,,,,,,,,,,,,,,,,,,,,,,,,,,,,,,,,,,,,,,,,,,,,,,,,,,,,,,,,,,,,,,,,,,,,,,,,,141.0,141.0,125.0,200.0,200.0,125.0,2.1,2.12,-266,-289,0,-267,258,279,244.91827750205994,244.91835594177246,244.92206048965454,244.93325757980347,245.08323979377747,245.08323979377747,245.08323979377747,245.08323979377747,245.08323979377747,245.08323979377747,245.08323979377747,246.11015820503235,2,1.1739695072174072,None,,,,,,,,,,,,,,,,,,242,1,2025-03-14_09h56.33.850,comp,2024.2.4,54.07239813171102,2025-03-14 09h56.43.596128 -0400,
108,108,0,critical,whd,35.0,3.0,lower,57.0,133.0,133.0,57.0,70.0,70.0,1,2.4519543647766113,None,,,,,0,0,0,0,0,108,108,86,246.12742948532104,,,,,,,,,,,,,,,,,,,,,,,,,,,,,,,,,,,,,,,,,,,,,,,,,,,,,,,,,,,,,,,,,,,,,,,,,,,,,,,,,57.0,133.0,133.0,57.0,70.0,70.0,3.0,3.1,-191,251,0,14,160,-251,246.11174130439758,246.11182260513306,246.11532402038574,246.12742948532104,246.27118110656738,246.27118110656738,246.27118110656738,246.27118110656738,246.27118110656738,246.27118110656738,246.27118110656738,248.5832109451294,1,2.4519543647766113,None,,,,,,,,,,,,,,,,,,242,1,2025-03-14_09h56.33.850,comp,2024.2.4,54.07239813171102,2025-03-14 09h56.43.596128 -0400,
109,109,0,critical,whd,35.0,2.1,upper,125.0,200.0,200.0,125.0,127.0,127.0,2,2.67451548576355,None,,,,,0,0,0,0,0,109,109,13,248.60025715827942,,,,,,,,,,,,,,,,,,,,,,,,,,,,,,,,,,,,,,,,,,,,,,,,,,,,,,,,,,,,,,,,,,,,,,,,,,,,,,,,,125.0,200.0,200.0,125.0,127.0,127.0,2.1,2.12,-258,-276,0,-277,222,265,248.5847520828247,248.58487963676453,248.58850717544556,248.60025715827942,248.75546288490295,248.75546288490295,248.75546288490295,248.75546288490295,248.75546288490295,248.75546288490295,248.75546288490295,251.28639769554138,2,2.67451548576355,None,,,,,,,,,,,,,,,,,,242,1,2025-03-14_09h56.33.850,comp,2024.2.4,54.07239813171102,2025-03-14 09h56.43.596128 -0400,
110,110,0,critical,dwh,20.0,2.1,lower,78.0,78.0,57.0,133.0,133.0,57.0,2,1.8371162414550781,None,,,,,0,0,0,0,0,110,110,6,251.30247449874878,,,,,,,,,,,,,,,,,,,,,,,,,,,,,,,,,,,,,,,,,,,,,,,,,,,,,,,,,,,,,,,,,,,,,,,,,,,,,,,,,78.0,78.0,57.0,133.0,133.0,57.0,2.1,2.12,-202,-286,0,-275,191,255,251.28808307647705,251.28816294670105,251.29157829284668,251.30247449874878,251.45247769355774,251.45247769355774,251.45247769355774,251.45247769355774,251.45247769355774,251.45247769355774,251.45247769355774,253.15126180648804,2,1.8371162414550781,None,,,,,,,,,,,,,,,,,,242,1,2025-03-14_09h56.33.850,comp,2024.2.4,54.07239813171102,2025-03-14 09h56.43.596128 -0400,
111,111,0,critical,wdh,20.0,4.0,lower,57.0,133.0,78.0,78.0,133.0,57.0,1,1.9710948467254639,None,,,,,0,0,0,0,0,111,111,82,253.16765832901,,,,,,,,,,,,,,,,,,,,,,,,,,,,,,,,,,,,,,,,,,,,,,,,,,,,,,,,,,,,,,,,,,,,,,,,,,,,,,,,,57.0,133.0,78.0,78.0,133.0,57.0,4.0,4.2,-202,-3,0,-267,164,9,253.15286874771118,253.15300512313843,253.15674018859863,253.16765832901,253.32047629356384,253.32047629356384,253.32047629356384,253.32047629356384,253.32047629356384,253.32047629356384,253.32047629356384,255.1566939353943,1,1.9710948467254639,None,,,,,,,,,,,,,,,,,,242,1,2025-03-14_09h56.33.850,comp,2024.2.4,54.07239813171102,2025-03-14 09h56.43.596128 -0400,
112,112,0,critical,hdw,20.0,1.0,upper,200.0,125.0,141.0,141.0,125.0,200.0,3,1.524717092514038,None,,,,,0,0,0,0,0,112,112,115,255.174640417099,,,,,,,,,,,,,,,,,,,,,,,,,,,,,,,,,,,,,,,,,,,,,,,,,,,,,,,,,,,,,,,,,,,,,,,,,,,,,,,,,200.0,125.0,141.0,141.0,125.0,200.0,1.0,1.2,-229,18,0,2,266,-20,255.15835237503052,255.15843033790588,255.16196060180664,255.174640417099,255.318922996521,255.318922996521,255.318922996521,255.318922996521,255.318922996521,255.318922996521,255.318922996521,256.70292687416077,3,1.524717092514038,None,,,,,,,,,,,,,,,,,,242,1,2025-03-14_09h56.33.850,comp,2024.2.4,54.07239813171102,2025-03-14 09h56.43.596128 -0400,
113,113,0,critical,hdw,20.0,2.1,upper,200.0,125.0,141.0,141.0,125.0,200.0,3,1.2507259845733643,None,,,,,0,0,0,0,0,113,113,23,256.72000885009766,,,,,,,,,,,,,,,,,,,,,,,,,,,,,,,,,,,,,,,,,,,,,,,,,,,,,,,,,,,,,,,,,,,,,,,,,,,,,,,,,200.0,125.0,141.0,141.0,125.0,200.0,2.1,2.11,-229,252,0,283,266,-271,256.70447516441345,256.7045564651489,256.7088077068329,256.72000885009766,256.8767762184143,256.8767762184143,256.8767762184143,256.8767762184143,256.8767762184143,256.8767762184143,256.8767762184143,257.9856741428375,3,1.2507259845733643,None,,,,,,,,,,,,,,,,,,242,1,2025-03-14_09h56.33.850,comp,2024.2.4,54.07239813171102,2025-03-14 09h56.43.596128 -0400,
114,114,0,critical,whd,20.0,2.1,lower,57.0,133.0,133.0,57.0,78.0,78.0,2,2.967607021331787,None,,,,,0,0,0,0,0,114,114,38,258.0031433105469,,,,,,,,,,,,,,,,,,,,,,,,,,,,,,,,,,,,,,,,,,,,,,,,,,,,,,,,,,,,,,,,,,,,,,,,,,,,,,,,,57.0,133.0,133.0,57.0,78.0,78.0,2.1,2.11,-191,256,0,289,164,-253,257.98722863197327,257.98730754852295,257.9908080101013,258.0031433105469,258.1519863605499,258.1519863605499,258.1519863605499,258.1519863605499,258.1519863605499,258.1519863605499,258.1519863605499,260.98722767829895,2,2.967607021331787,None,,,,,,,,,,,,,,,,,,242,1,2025-03-14_09h56.33.850,comp,2024.2.4,54.07239813171102,2025-03-14 09h56.43.596128 -0400,
115,115,0,critical,dhw,20.0,1.0,lower,78.0,78.0,133.0,57.0,57.0,133.0,3,2.45588755607605,None,,,,,0,0,0,0,0,115,115,54,261.00274562835693,,,,,,,,,,,,,,,,,,,,,,,,,,,,,,,,,,,,,,,,,,,,,,,,,,,,,,,,,,,,,,,,,,,,,,,,,,,,,,,,,78.0,78.0,133.0,57.0,57.0,133.0,1.0,1.2,-164,16,0,-16,191,0,260.9887218475342,260.98880100250244,260.99235701560974,261.00274562835693,261.1529004573822,261.1529004573822,261.1529004573822,261.1529004573822,261.1529004573822,261.1529004573822,261.1529004573822,263.47501850128174,3,2.45588755607605,None,,,,,,,,,,,,,,,,,,242,1,2025-03-14_09h56.33.850,comp,2024.2.4,54.07239813171102,2025-03-14 09h56.43.596128 -0400,
116,116,0,catch,None,None,None,None,None,None,None,None,None,None,1,1.1599323749542236,None,,,,,0,0,0,0,0,116,116,122,263.4909772872925,,,,,,,,,,,,,,,,,,,,,,,,,,,,,,,,,,,,,,,,,,,,,,,,,,,,,,,,,,,,,,,,,,,,,,,,,,,,,,,,,173,152,58,132,117,73,2.1,2.11,-238,290,0,289,198,-286,263.4770600795746,263.4771411418915,263.4806046485901,263.4909772872925,263.6386275291443,263.6386275291443,263.6386275291443,263.6386275291443,263.6386275291443,263.6386275291443,263.6386275291443,264.66912150382996,1,1.1599323749542236,None,,,,,,,,,,,,,,,,,,242,1,2025-03-14_09h56.33.850,comp,2024.2.4,54.07239813171102,2025-03-14 09h56.43.596128 -0400,
117,117,0,filler_square,None,None,None,None,None,None,None,None,None,None,2,1.2799034118652344,None,,,,,0,0,0,0,0,117,117,172,264.68396067619324,,,,,,,,,,,,,,,,,,,,,,,,,,,,,,,,,,,,,,,,,,,,,,,,,,,,,,,,,,,,,,,,,,,,,,,,,,,,,,,,,193.31203627764776,193.31203627764776,154.16757134356874,186.85692861519945,102.22350382826954,150.4854833646553,1.0,1.3,194,-279,480,-263,745,-261,264.6707983016968,264.6709063053131,264.67382168769836,264.68396067619324,264.8213143348694,264.8213143348694,264.8213143348694,264.8213143348694,264.8213143348694,264.8213143348694,264.8213143348694,265.9728319644928,2,1.2799034118652344,None,,,,,,,,,,,,,,,,,,242,1,2025-03-14_09h56.33.850,comp,2024.2.4,54.07239813171102,2025-03-14 09h56.43.596128 -0400,
118,118,0,filler_random,None,None,None,None,None,None,None,None,None,None,1,1.073591709136963,None,,,,,0,0,0,0,0,118,118,154,265.99413657188416,,,,,,,,,,,,,,,,,,,,,,,,,,,,,,,,,,,,,,,,,,,,,,,,,,,,,,,,,,,,,,,,,,,,,,,,,,,,,,,,,199.44664249331802,181.02917678209542,196.95533122522136,117.5620807895422,99.4096225649092,105.34781677484516,2.1,2.12,-245,-260,0,-258,207,277,265.974737405777,265.97488260269165,265.978342294693,265.99413657188416,266.139301776886,266.139301776886,266.139301776886,266.139301776886,266.139301776886,266.139301776886,266.139301776886,267.0726444721222,1,1.073591709136963,None,,,,,,,,,,,,,,,,,,242,1,2025-03-14_09h56.33.850,comp,2024.2.4,54.07239813171102,2025-03-14 09h56.43.596128 -0400,
119,119,0,critical,hwd,20.0,3.0,upper,200.0,125.0,125.0,200.0,141.0,141.0,2,0.9225139617919922,None,,,,,0,0,0,0,0,119,119,105,267.08879351615906,,,,,,,,,,,,,,,,,,,,,,,,,,,,,,,,,,,,,,,,,,,,,,,,,,,,,,,,,,,,,,,,,,,,,,,,,,,,,,,,,200.0,125.0,125.0,200.0,141.0,141.0,3.0,3.1,-258,257,0,-8,266,-272,267.0742700099945,267.07437348365784,267.0780279636383,267.08879351615906,267.24047017097473,267.24047017097473,267.24047017097473,267.24047017097473,267.24047017097473,267.24047017097473,267.24047017097473,268.031530380249,2,0.9225139617919922,None,,,,,,,,,,,,,,,,,,242,1,2025-03-14_09h56.33.850,comp,2024.2.4,54.07239813171102,2025-03-14 09h56.43.596128 -0400,
120,120,0,critical,whd,20.0,1.0,upper,125.0,200.0,200.0,125.0,141.0,141.0,2,1.8829517364501953,None,,,,,0,0,0,0,0,120,120,91,268.0489728450775,,,,,,,,,,,,,,,,,,,,,,,,,,,,,,,,,,,,,,,,,,,,,,,,,,,,,,,,,,,,,,,,,,,,,,,,,,,,,,,,,125.0,200.0,200.0,125.0,141.0,141.0,1.0,1.3,222,-279,480,-268,709,-266,268.03309178352356,268.0331680774689,268.0363359451294,268.0489728450775,268.1910858154297,268.1910858154297,268.1910858154297,268.1910858154297,268.1910858154297,268.1910858154297,268.1910858154297,269.9392397403717,2,1.8829517364501953,None,,,,,,,,,,,,,,,,,,242,1,2025-03-14_09h56.33.850,comp,2024.2.4,54.07239813171102,2025-03-14 09h56.43.596128 -0400,
121,121,0,filler_square,None,None,None,None,None,None,None,None,None,None,1,0.9773952960968018,None,,,,,0,0,0,0,0,121,121,182,269.9618663787842,,,,,,,,,,,,,,,,,,,,,,,,,,,,,,,,,,,,,,,,,,,,,,,,,,,,,,,,,,,,,,,,,,,,,,,,,,,,,,,,,188.6240162729872,188.6240162729872,94.13697592916176,153.11662574518567,137.41035635287835,91.92987718353845,2.1,2.12,-267,-268,0,-263,219,252,269.94105768203735,269.94113755226135,269.94443464279175,269.9618663787842,270.1062617301941,270.1062617301941,270.1062617301941,270.1062617301941,270.1062617301941,270.1062617301941,270.1062617301941,270.9432671070099,1,0.9773952960968018,None,,,,,,,,,,,,,,,,,,242,1,2025-03-14_09h56.33.850,comp,2024.2.4,54.07239813171102,2025-03-14 09h56.43.596128 -0400,
122,122,0,filler_square,None,None,None,None,None,None,None,None,None,None,2,1.1496164798736572,None,,,,,0,0,0,0,0,122,122,177,270.9650902748108,,,,,,,,,,,,,,,,,,,,,,,,,,,,,,,,,,,,,,,,,,,,,,,,,,,,,,,,,,,,,,,,,,,,,,,,,,,,,,,,,59.70218231427617,71.10300840294035,98.95191095038871,98.95191095038871,70.11183311250564,60.07432454030105,2.1,2.11,-181,278,0,254,176,-268,270.94543409347534,270.9455168247223,270.9491539001465,270.9650902748108,271.11559104919434,271.11559104919434,271.11559104919434,271.11559104919434,271.11559104919434,271.11559104919434,271.11559104919434,272.1315517425537,2,1.1496164798736572,None,,,,,,,,,,,,,,,,,,242,1,2025-03-14_09h56.33.850,comp,2024.2.4,54.07239813171102,2025-03-14 09h56.43.596128 -0400,
123,123,0,critical,hwd,35.0,2.1,upper,200.0,125.0,125.0,200.0,127.0,127.0,2,1.0800104141235352,None,,,,,0,0,0,0,0,123,123,41,272.1469020843506,,,,,,,,,,,,,,,,,,,,,,,,,,,,,,,,,,,,,,,,,,,,,,,,,,,,,,,,,,,,,,,,,,,,,,,,,,,,,,,,,200.0,125.0,125.0,200.0,127.0,127.0,2.1,2.11,-258,261,0,283,260,-281,272.1331481933594,272.1332232952118,272.13637495040894,272.1469020843506,272.2908718585968,272.2908718585968,272.2908718585968,272.2908718585968,272.2908718585968,272.2908718585968,272.2908718585968,273.2290253639221,2,1.0800104141235352,None,,,,,,,,,,,,,,,,,,242,1,2025-03-14_09h56.33.850,comp,2024.2.4,54.07239813171102,2025-03-14 09h56.43.596128 -0400,
124,124,0,critical,wdh,20.0,2.1,lower,57.0,133.0,78.0,78.0,133.0,57.0,1,2.0896806716918945,None,,,,,0,0,0,0,0,124,124,10,273.24953174591064,,,,,,,,,,,,,,,,,,,,,,,,,,,,,,,,,,,,,,,,,,,,,,,,,,,,,,,,,,,,,,,,,,,,,,,,,,,,,,,,,57.0,133.0,78.0,78.0,133.0,57.0,2.1,2.11,-202,287,0,258,164,-284,273.2305030822754,273.2305827140808,273.23380637168884,273.24953174591064,273.3965401649475,273.3965401649475,273.3965401649475,273.3965401649475,273.3965401649475,273.3965401649475,273.3965401649475,275.358952999115,1,2.0896806716918945,None,,,,,,,,,,,,,,,,,,242,1,2025-03-14_09h56.33.850,comp,2024.2.4,54.07239813171102,2025-03-14 09h56.43.596128 -0400,
125,125,0,filler_square,None,None,None,None,None,None,None,None,None,None,2,1.6825153827667236,None,,,,,0,0,0,0,0,125,125,179,275.3762423992157,,,,,,,,,,,,,,,,,,,,,,,,,,,,,,,,,,,,,,,,,,,,,,,,,,,,,,,,,,,,,,,,,,,,,,,,,,,,,,,,,138.04960890391533,104.92451391791118,171.7461231608597,171.7461231608597,164.87843761042427,144.3948341148303,4.0,4.1,-234,-288,0,-5,254,-281,275.36080861091614,275.36088466644287,275.36479020118713,275.3762423992157,275.5293426513672,275.5293426513672,275.5293426513672,275.5293426513672,275.5293426513672,275.5293426513672,275.5293426513672,277.07573437690735,2,1.6825153827667236,None,,,,,,,,,,,,,,,,,,242,1,2025-03-14_09h56.33.850,comp,2024.2.4,54.07239813171102,2025-03-14 09h56.43.596128 -0400,
126,126,0,catch,None,None,None,None,None,None,None,None,None,None,1,1.0868709087371826,None,,,,,0,0,0,0,0,126,126,127,277.092490196228,,,,,,,,,,,,,,,,,,,,,,,,,,,,,,,,,,,,,,,,,,,,,,,,,,,,,,,,,,,,,,,,,,,,,,,,,,,,,,,,,137,188,64,126,85,105,4.0,4.1,-253,-256,0,-12,212,-285,277.0777578353882,277.07784032821655,277.08207154273987,277.092490196228,277.2489676475525,277.2489676475525,277.2489676475525,277.2489676475525,277.2489676475525,277.2489676475525,277.2489676475525,278.1865677833557,1,1.0868709087371826,None,,,,,,,,,,,,,,,,,,242,1,2025-03-14_09h56.33.850,comp,2024.2.4,54.07239813171102,2025-03-14 09h56.43.596128 -0400,
127,127,0,filler_square,None,None,None,None,None,None,None,None,None,None,3,1.3255228996276855,None,,,,,0,0,0,0,0,127,127,209,278.20517086982727,,,,,,,,,,,,,,,,,,,,,,,,,,,,,,,,,,,,,,,,,,,,,,,,,,,,,,,,,,,,,,,,,,,,,,,,,,,,,,,,,60.06733359019588,65.49790899389683,70.26003533624579,62.85728127947102,71.55316697153394,71.55316697153394,2.1,2.11,-160,256,0,277,163,-257,278.18834376335144,278.1884219646454,278.1914782524109,278.20517086982727,278.34480118751526,278.34480118751526,278.34480118751526,278.34480118751526,278.34480118751526,278.34480118751526,278.34480118751526,279.54618287086487,3,1.3255228996276855,None,,,,,,,,,,,,,,,,,,242,1,2025-03-14_09h56.33.850,comp,2024.2.4,54.07239813171102,2025-03-14 09h56.43.596128 -0400,
128,128,0,filler_square,None,None,None,None,None,None,None,None,None,None,3,0.9159693717956543,None,,,,,0,0,0,0,0,128,128,208,279.56808972358704,,,,,,,,,,,,,,,,,,,,,,,,,,,,,,,,,,,,,,,,,,,,,,,,,,,,,,,,,,,,,,,,,,,,,,,,,,,,,,,,,62.36436888076626,59.454392550991464,62.62311943926271,62.62311943926271,60.30400381639974,59.471896608371345,2.1,2.11,-157,277,0,281,157,-254,279.54840898513794,279.5485076904297,279.55214977264404,279.56808972358704,279.70993423461914,279.70993423461914,279.70993423461914,279.70993423461914,279.70993423461914,279.70993423461914,279.70993423461914,280.4959034919739,3,0.9159693717956543,None,,,,,,,,,,,,,,,,,,242,1,2025-03-14_09h56.33.850,comp,2024.2.4,54.07239813171102,2025-03-14 09h56.43.596128 -0400,
129,129,0,critical,dhw,35.0,1.0,lower,70.0,70.0,133.0,57.0,57.0,133.0,2,1.1151115894317627,None,,,,,0,0,0,0,0,129,129,48,280.5118818283081,,,,,,,,,,,,,,,,,,,,,,,,,,,,,,,,,,,,,,,,,,,,,,,,,,,,,,,,,,,,,,,,,,,,,,,,,,,,,,,,,70.0,70.0,133.0,57.0,57.0,133.0,1.0,1.2,-160,19,0,3,191,12,280.49758648872375,280.49766850471497,280.5011169910431,280.5118818283081,280.6654152870178,280.6654152870178,280.6654152870178,280.6654152870178,280.6654152870178,280.6654152870178,280.6654152870178,281.64640164375305,2,1.1151115894317627,None,,,,,,,,,,,,,,,,,,242,1,2025-03-14_09h56.33.850,comp,2024.2.4,54.07239813171102,2025-03-14 09h56.43.596128 -0400,
130,130,0,critical,hdw,20.0,3.0,lower,133.0,57.0,78.0,78.0,57.0,133.0,1,1.3352839946746826,None,,,,,0,0,0,0,0,130,130,116,281.66747760772705,,,,,,,,,,,,,,,,,,,,,,,,,,,,,,,,,,,,,,,,,,,,,,,,,,,,,,,,,,,,,,,,,,,,,,,,,,,,,,,,,133.0,57.0,78.0,78.0,57.0,133.0,3.0,3.1,-164,269,0,4,202,-255,281.6482644081116,281.64834451675415,281.65203404426575,281.66747760772705,281.8112599849701,281.8112599849701,281.8112599849701,281.8112599849701,281.8112599849701,281.8112599849701,281.8112599849701,283.01265931129456,1,1.3352839946746826,None,,,,,,,,,,,,,,,,,,242,1,2025-03-14_09h56.33.850,comp,2024.2.4,54.07239813171102,2025-03-14 09h56.43.596128 -0400,
131,131,0,catch,None,None,None,None,None,None,None,None,None,None,3,1.0924708843231201,None,,,,,0,0,0,0,0,131,131,129,283.0306887626648,,,,,,,,,,,,,,,,,,,,,,,,,,,,,,,,,,,,,,,,,,,,,,,,,,,,,,,,,,,,,,,,,,,,,,,,,,,,,,,,,72,118,108,82,144,181,2.2,2.21,-196,-263,0,290,228,281,283.0149734020233,283.0150537490845,283.01887702941895,283.0306887626648,283.1774740219116,283.1774740219116,283.1774740219116,283.1774740219116,283.1774740219116,283.1774740219116,283.1774740219116,284.1270134449005,3,1.0924708843231201,None,,,,,,,,,,,,,,,,,,242,1,2025-03-14_09h56.33.850,comp,2024.2.4,54.07239813171102,2025-03-14 09h56.43.596128 -0400,
132,132,0,critical,whd,35.0,2.1,upper,125.0,200.0,200.0,125.0,127.0,127.0,2,1.4188029766082764,None,,,,,0,0,0,0,0,132,132,37,284.1439678668976,,,,,,,,,,,,,,,,,,,,,,,,,,,,,,,,,,,,,,,,,,,,,,,,,,,,,,,,,,,,,,,,,,,,,,,,,,,,,,,,,125.0,200.0,200.0,125.0,127.0,127.0,2.1,2.11,-258,277,0,280,222,-281,284.1286563873291,284.1287899017334,284.1322772502899,284.1439678668976,284.2951285839081,284.2951285839081,284.2951285839081,284.2951285839081,284.2951285839081,284.2951285839081,284.2951285839081,285.57778906822205,2,1.4188029766082764,None,,,,,,,,,,,,,,,,,,242,1,2025-03-14_09h56.33.850,comp,2024.2.4,54.07239813171102,2025-03-14 09h56.43.596128 -0400,
133,133,0,filler_square,None,None,None,None,None,None,None,None,None,None,3,0.8069474697113037,None,,,,,0,0,0,0,0,133,133,204,285.59575724601746,,,,,,,,,,,,,,,,,,,,,,,,,,,,,,,,,,,,,,,,,,,,,,,,,,,,,,,,,,,,,,,,,,,,,,,,,,,,,,,,,101.4228223690559,117.78329939624993,109.30086044167493,87.80354496528176,187.15361236423482,187.15361236423482,2.2,2.21,-199,-283,0,287,233,286,285.57961773872375,285.5797162055969,285.58309841156006,285.59575724601746,285.74572944641113,285.74572944641113,285.74572944641113,285.74572944641113,285.74572944641113,285.74572944641113,285.74572944641113,286.4202079772949,3,0.8069474697113037,None,,,,,,,,,,,,,,,,,,242,1,2025-03-14_09h56.33.850,comp,2024.2.4,54.07239813171102,2025-03-14 09h56.43.596128 -0400,
134,134,0,critical,hdw,35.0,1.0,upper,200.0,125.0,127.0,127.0,125.0,200.0,3,1.474353313446045,None,,,,,0,0,0,0,0,134,134,109,286.4408884048462,,,,,,,,,,,,,,,,,,,,,,,,,,,,,,,,,,,,,,,,,,,,,,,,,,,,,,,,,,,,,,,,,,,,,,,,,,,,,,,,,200.0,125.0,127.0,127.0,125.0,200.0,1.0,1.1,-702,263,-480,258,-220,269,286.42182445526123,286.42192220687866,286.42549228668213,286.4408884048462,286.57940006256104,286.57940006256104,286.57940006256104,286.57940006256104,286.57940006256104,286.57940006256104,286.57940006256104,287.9322316646576,3,1.474353313446045,None,,,,,,,,,,,,,,,,,,242,1,2025-03-14_09h56.33.850,comp,2024.2.4,54.07239813171102,2025-03-14 09h56.43.596128 -0400,
135,135,0,catch,None,None,None,None,None,None,None,None,None,None,2,0.9894399642944336,None,,,,,0,0,0,0,0,135,135,123,287.9503083229065,,,,,,,,,,,,,,,,,,,,,,,,,,,,,,,,,,,,,,,,,,,,,,,,,,,,,,,,,,,,,,,,,,,,,,,,,,,,,,,,,125,65,151,174,104,86,3.0,3.1,-216,255,0,0,226,-277,287.9344925880432,287.93457102775574,287.9383211135864,287.9503083229065,288.09367966651917,288.09367966651917,288.09367966651917,288.09367966651917,288.09367966651917,288.09367966651917,288.09367966651917,288.9462261199951,2,0.9894399642944336,None,,,,,,,,,,,,,,,,,,242,1,2025-03-14_09h56.33.850,comp,2024.2.4,54.07239813171102,2025-03-14 09h56.43.596128 -0400,
136,136,0,filler_square,None,None,None,None,None,None,None,None,None,None,3,0.9195272922515869,None,,,,,0,0,0,0,0,136,136,181,288.96328258514404,,,,,,,,,,,,,,,,,,,,,,,,,,,,,,,,,,,,,,,,,,,,,,,,,,,,,,,,,,,,,,,,,,,,,,,,,,,,,,,,,120.29018009370625,67.78886547959264,95.8391742655615,59.9214471071902,145.22986206384448,145.22986206384448,2.2,2.21,-160,-289,0,268,199,290,288.94818782806396,288.94826769828796,288.95213556289673,288.96328258514404,289.1136591434479,289.1136591434479,289.1136591434479,289.1136591434479,289.1136591434479,289.1136591434479,289.1136591434479,289.89858984947205,3,0.9195272922515869,None,,,,,,,,,,,,,,,,,,242,1,2025-03-14_09h56.33.850,comp,2024.2.4,54.07239813171102,2025-03-14 09h56.43.596128 -0400,
137,137,0,critical,whd,35.0,3.0,upper,125.0,200.0,200.0,125.0,127.0,127.0,1,1.1019303798675537,None,,,,,0,0,0,0,0,137,137,87,289.9252543449402,,,,,,,,,,,,,,,,,,,,,,,,,,,,,,,,,,,,,,,,,,,,,,,,,,,,,,,,,,,,,,,,,,,,,,,,,,,,,,,,,125.0,200.0,200.0,125.0,127.0,127.0,3.0,3.1,-258,270,0,6,222,-276,289.90030169487,289.90038895606995,289.90403008461,289.9252543449402,290.0633475780487,290.0633475780487,290.0633475780487,290.0633475780487,290.0633475780487,290.0633475780487,290.0633475780487,291.03104066848755,1,1.1019303798675537,None,,,,,,,,,,,,,,,,,,242,1,2025-03-14_09h56.33.850,comp,2024.2.4,54.07239813171102,2025-03-14 09h56.43.596128 -0400,
138,138,0,filler_square,None,None,None,None,None,None,None,None,None,None,2,1.7554092407226562,None,,,,,0,0,0,0,0,138,138,171,291.047997713089,,,,,,,,,,,,,,,,,,,,,,,,,,,,,,,,,,,,,,,,,,,,,,,,,,,,,,,,,,,,,,,,,,,,,,,,,,,,,,,,,118.346998223073,118.346998223073,116.81896494476298,115.0113070046022,117.19527362419069,69.13035466783556,2.1,2.12,-213,-272,0,-270,188,287,291.0332019329071,291.03328347206116,291.03707337379456,291.047997713089,291.19782638549805,291.19782638549805,291.19782638549805,291.19782638549805,291.19782638549805,291.19782638549805,291.19782638549805,292.8194544315338,2,1.7554092407226562,None,,,,,,,,,,,,,,,,,,242,1,2025-03-14_09h56.33.850,comp,2024.2.4,54.07239813171102,2025-03-14 09h56.43.596128 -0400,
139,139,0,critical,dhw,20.0,2.1,upper,141.0,141.0,200.0,125.0,125.0,200.0,2,1.9338126182556152,None,,,,,0,0,0,0,0,139,139,27,292.8370530605316,,,,,,,,,,,,,,,,,,,,,,,,,,,,,,,,,,,,,,,,,,,,,,,,,,,,,,,,,,,,,,,,,,,,,,,,,,,,,,,,,141.0,141.0,200.0,125.0,125.0,200.0,2.1,2.12,-229,-265,0,-260,258,274,292.8209888935089,292.8210663795471,292.8241882324219,292.8370530605316,292.98444080352783,292.98444080352783,292.98444080352783,292.98444080352783,292.98444080352783,292.98444080352783,292.98444080352783,294.7868893146515,2,1.9338126182556152,None,,,,,,,,,,,,,,,,,,242,1,2025-03-14_09h56.33.850,comp,2024.2.4,54.07239813171102,2025-03-14 09h56.43.596128 -0400,
