thisN,thisTrialN,thisRepN,effect,order,distance,config,diag,h_1,w_1,h_2,w_2,h_3,w_3,rect_choice.keys,rect_choice.rt,rect_choice.duration,instructions_loop.thisRepN,instructions_loop.thisTrialN,instructions_loop.thisN,instructions_loop.thisIndex,blocks.thisRepN,blocks.thisTrialN,blocks.thisN,blocks.thisIndex,trials.thisRepN,trials.thisTrialN,trials.thisN,trials.thisIndex,thisRow.t,notes,consent.started,agree_button.started,decline_button.started,consent_img.started,mouse.started,consent.stopped,agree_button.numClicks,agree_button.timesOn,agree_button.timesOff,decline_button.numClicks,decline_button.timesOn,decline_button.timesOff,mouse.x,mouse.y,mouse.leftButton,mouse.midButton,mouse.rightButton,mouse.time,mouse.clicked_name,exp_params.started,exp_params.stopped,welcome.started,welcome_text.started,welcome_text.stopped,welcome.stopped,instructions_1.started,instructions_1_text_1.started,instructions_1_text_2.started,key_resp.started,instructions_1.stopped,instructions_loop.key_resp.keys,instructions_loop.key_resp.rt,instructions_loop.key_resp.duration,instructions_2.started,instructions_2_text_1.started,instructions_2_text_2.started,key_resp_2.started,instructions_2.stopped,instructions_loop.key_resp_2.keys,instructions_loop.key_resp_2.rt,instructions_loop.key_resp_2.duration,instructions_3.started,instructions_3_text_1.started,r1_instr3.started,r2_instr3.started,r3_instr3.started,r1_instr3_label.started,r2_instr3_label.started,r3_instr3_label.started,instructions_3_text_3.started,instructions_3_text_4.started,key_resp_3.started,instructions_3.stopped,instructions_loop.key_resp_3.keys,instructions_loop.key_resp_3.rt,instructions_loop.key_resp_3.duration,instructions_4.started,instructions_4_text_1.started,instructions_4_text_3.started,instructions_4_text_2.started,key_resp_4.started,instructions_4.stopped,instructions_loop.key_resp_4.keys,instructions_loop.key_resp_4.rt,instructions_loop.key_resp_4.duration,instructions_5.started,instructions_5_text_1.started,instructions_5_text_2.started,key_resp_5.started,instructions_5.stopped,instructions_loop.key_resp_5.keys,instructions_loop.key_resp_5.rt,instructions_loop.key_resp_5.duration,start_exp.started,start_exp_text.started,key_resp_6.started,start_exp.stopped,key_resp_6.keys,key_resp_6.rt,key_resp_6.duration,h_1_tmp,w_1_tmp,h_2_tmp,w_2_tmp,h_3_tmp,w_3_tmp,config_tmp,config_tmp_1,r_1_x,r_1_y,r_2_x,r_2_y,r_3_x,r_3_y,pre_trial.started,pre_trial.stopped,choice_trial.started,rect_choice.started,r_1.started,r_2.started,r_3.started,r_1_label.started,r_2_label.started,r_3_label.started,prompt.started,choice_trial.stopped,trials.rect_choice.keys,trials.rect_choice.rt,trials.rect_choice.duration,end_block.started,end_block_text.started,end_block.stopped,end.started,end_text.started,key_resp_7.started,end.stopped,key_resp_7.keys,key_resp_7.rt,key_resp_7.duration,debriefing.started,debrief_form.started,end_debrief.started,debriefing.stopped,end_debrief.keys,end_debrief.rt,end_debrief.duration,participant,computer,date,expName,psychopyVersion,frameRate,expStart,
,,,,,,,,,,,,,,,,,,,,,,,,,,,,,,,0.014802932739257812,0.03871965408325195,0.03871965408325195,0.03871965408325195,0.014569759368896484,80.92092514038086,1,[80.8795006275177],[80.87952518463135],0,,,[-84.0],[-503.0],[1],[0],[0],[80.90554094314575],['agree_button'],,,,,,,,,,,,,,,,,,,,,,,,,,,,,,,,,,,,,,,,,,,,,,,,,,,,,,,,,,,,,,,,,,,,,,,,,,,,,,,,,,,,,,,,,,,,,,,,,,,,,,,,,,,,243,1,2025-03-14_10h55.06.370,comp,2024.2.4,57.165458428568115,2025-03-14 10h55.14.638557 -0400,
,,,,,,,,,,,,,,,,,,,,,,,,,,,,,,,,,,,,,,,,,,,,,,,,,,80.92165923118591,80.92173051834106,,,,,,,,,,,,,,,,,,,,,,,,,,,,,,,,,,,,,,,,,,,,,,,,,,,,,,,,,,,,,,,,,,,,,,,,,,,,,,,,,,,,,,,,,,,,,,,,,,,,,,,,,,243,1,2025-03-14_10h55.06.370,comp,2024.2.4,57.165458428568115,2025-03-14 10h55.14.638557 -0400,
,,,,,,,,,,,,,,,,,,,,,,,,,,,,,,,,,,,,,,,,,,,,,,,,,,,,80.92177700996399,80.93512511253357,82.93765544891357,82.92131567001343,,,,,,,,,,,,,,,,,,,,,,,,,,,,,,,,,,,,,,,,,,,,,,,,,,,,,,,,,,,,,,,,,,,,,,,,,,,,,,,,,,,,,,,,,,,,,,,,,,,,,,243,1,2025-03-14_10h55.06.370,comp,2024.2.4,57.165458428568115,2025-03-14 10h55.14.638557 -0400,
0,0,0,,,,,,,,,,,,,,,0,0,0,0,,,,,,,,,82.93765544891357,,,,,,,,,,,,,,,,,,,,,,,,,,,82.92219352722168,82.93765544891357,82.93765544891357,84.4217267036438,88.7431046962738,space,4.302499294281006,None,88.74326062202454,88.75832509994507,88.75832509994507,90.25329947471619,98.81042814254761,space,8.542290449142456,None,98.81058669090271,98.83909320831299,98.83909320831299,98.83909320831299,98.83909320831299,98.83909320831299,98.83909320831299,98.83909320831299,98.83909320831299,98.83909320831299,100.31149482727051,106.24609136581421,space,5.916140794754028,None,106.24625825881958,106.26331067085266,106.26331067085266,106.26331067085266,107.7610375881195,119.18415331840515,space,11.410567998886108,None,119.18431234359741,119.1992461681366,119.1992461681366,120.69953322410583,121.568195104599,space,0.857701301574707,None,121.56838846206665,121.58318066596985,121.58318066596985,122.73405385017395,space,1.1327979564666748,None,,,,,,,,,,,,,,,,,,,,,,,,,,,,,,,,,,,,,,,,,,,,,,,243,1,2025-03-14_10h55.06.370,comp,2024.2.4,57.165458428568115,2025-03-14 10h55.14.638557 -0400,
0,0,0,filler_random,None,None,None,None,None,None,None,None,None,None,2,12.449843406677246,None,,,,,0,0,0,0,0,0,0,133,122.8098316192627,,,,,,,,,,,,,,,,,,,,,,,,,,,,,,,,,,,,,,,,,,,,,,,,,,,,,,,,,,,,,,,,,,,,,,,,,,,,,,,,,,167.00812253979637,97.18012280913227,156.47636138280706,170.02153413896033,115.14560540367306,142.21931293499824,1.0,1.3,250,-272,480,-255,732,-263,122.79298305511475,122.79304385185242,122.79476881027222,122.8098316192627,122.95982050895691,122.95982050895691,122.95982050895691,122.95982050895691,122.95982050895691,122.95982050895691,122.95982050895691,135.27347588539124,2,12.449843406677246,None,,,,,,,,,,,,,,,,,,243,1,2025-03-14_10h55.06.370,comp,2024.2.4,57.165458428568115,2025-03-14 10h55.14.638557 -0400,
1,1,0,filler_square,None,None,None,None,None,None,None,None,None,None,1,9.364870309829712,None,,,,,0,0,0,0,0,1,1,202,135.29484701156616,,,,,,,,,,,,,,,,,,,,,,,,,,,,,,,,,,,,,,,,,,,,,,,,,,,,,,,,,,,,,,,,,,,,,,,,,,,,,,,,,,98.52695492097956,98.52695492097956,70.6494715681317,91.87112149298969,92.78696635490027,96.42737053426441,4.0,4.2,-191,-19,0,-271,190,-9,135.27550959587097,135.27559328079224,135.2788450717926,135.29484701156616,135.43778347969055,135.43778347969055,135.43778347969055,135.43778347969055,135.43778347969055,135.43778347969055,135.43778347969055,144.67453384399414,1,9.364870309829712,None,,,,,,,,,,,,,,,,,,243,1,2025-03-14_10h55.06.370,comp,2024.2.4,57.165458428568115,2025-03-14 10h55.14.638557 -0400,
2,2,0,critical,hdw,35.0,2.1,upper,200.0,125.0,127.0,127.0,125.0,200.0,3,6.9131505489349365,None,,,,,0,0,0,0,0,2,2,21,144.69111585617065,,,,,,,,,,,,,,,,,,,,,,,,,,,,,,,,,,,,,,,,,,,,,,,,,,,,,,,,,,,,,,,,,,,,,,,,,,,,,,,,,,200.0,125.0,127.0,127.0,125.0,200.0,2.1,2.12,-222,-275,0,-274,260,270,144.67622137069702,144.67630171775818,144.67971968650818,144.69111585617065,144.84827661514282,144.84827661514282,144.84827661514282,144.84827661514282,144.84827661514282,144.84827661514282,144.84827661514282,151.6123321056366,3,6.9131505489349365,None,,,,,,,,,,,,,,,,,,243,1,2025-03-14_10h55.06.370,comp,2024.2.4,57.165458428568115,2025-03-14 10h55.14.638557 -0400,
3,3,0,critical,dwh,20.0,4.0,upper,141.0,141.0,125.0,200.0,200.0,125.0,2,6.663383483886719,None,,,,,0,0,0,0,0,3,3,71,151.62899708747864,,,,,,,,,,,,,,,,,,,,,,,,,,,,,,,,,,,,,,,,,,,,,,,,,,,,,,,,,,,,,,,,,,,,,,,,,,,,,,,,,,141.0,141.0,125.0,200.0,200.0,125.0,4.0,4.1,-266,-289,0,3,258,-289,151.61409544944763,151.61417770385742,151.61804246902466,151.62899708747864,151.77926898002625,151.77926898002625,151.77926898002625,151.77926898002625,151.77926898002625,151.77926898002625,151.77926898002625,158.30011224746704,2,6.663383483886719,None,,,,,,,,,,,,,,,,,,243,1,2025-03-14_10h55.06.370,comp,2024.2.4,57.165458428568115,2025-03-14 10h55.14.638557 -0400,
4,4,0,filler_random,None,None,None,None,None,None,None,None,None,None,1,1.629910945892334,None,,,,,0,0,0,0,0,4,4,141,158.31791019439697,,,,,,,,,,,,,,,,,,,,,,,,,,,,,,,,,,,,,,,,,,,,,,,,,,,,,,,,,,,,,,,,,,,,,,,,,,,,,,,,,,180.29906625029486,135.60568934541794,65.96532066285532,61.94388997410919,90.41685459312404,171.4514456149955,1.0,1.2,-195,15,0,2,213,-2,158.301903963089,158.30200600624084,158.30488419532776,158.31791019439697,158.4628233909607,158.4628233909607,158.4628233909607,158.4628233909607,158.4628233909607,158.4628233909607,158.4628233909607,159.9529266357422,1,1.629910945892334,None,,,,,,,,,,,,,,,,,,243,1,2025-03-14_10h55.06.370,comp,2024.2.4,57.165458428568115,2025-03-14 10h55.14.638557 -0400,
5,5,0,filler_random,None,None,None,None,None,None,None,None,None,None,1,1.1032865047454834,None,,,,,0,0,0,0,0,5,5,137,159.97258639335632,,,,,,,,,,,,,,,,,,,,,,,,,,,,,,,,,,,,,,,,,,,,,,,,,,,,,,,,,,,,,,,,,,,,,,,,,,,,,,,,,,172.4577790695194,148.66004310865048,83.57346429086043,98.42194032377124,68.95726370148002,166.23965102752368,1.0,1.2,-220,-12,0,-16,228,-4,159.9546868801117,159.95476746559143,159.95766735076904,159.97258639335632,160.1101427078247,160.1101427078247,160.1101427078247,160.1101427078247,160.1101427078247,160.1101427078247,160.1101427078247,161.08108830451965,1,1.1032865047454834,None,,,,,,,,,,,,,,,,,,243,1,2025-03-14_10h55.06.370,comp,2024.2.4,57.165458428568115,2025-03-14 10h55.14.638557 -0400,
6,6,0,filler_random,None,None,None,None,None,None,None,None,None,None,3,4.074429988861084,None,,,,,0,0,0,0,0,6,6,136,161.09755659103394,,,,,,,,,,,,,,,,,,,,,,,,,,,,,,,,,,,,,,,,,,,,,,,,,,,,,,,,,,,,,,,,,,,,,,,,,,,,,,,,,,72.69069962330525,106.08970464503227,85.03474760850854,77.99399752441906,133.85769874649606,110.52695054850133,1.0,1.3,292,-274,480,-259,670,-255,161.0829954147339,161.0830852985382,161.08598947525024,161.09755659103394,161.24675703048706,161.24675703048706,161.24675703048706,161.24675703048706,161.24675703048706,161.24675703048706,161.24675703048706,165.18178749084473,3,4.074429988861084,None,,,,,,,,,,,,,,,,,,243,1,2025-03-14_10h55.06.370,comp,2024.2.4,57.165458428568115,2025-03-14 10h55.14.638557 -0400,
7,7,0,critical,dwh,20.0,3.0,lower,78.0,78.0,57.0,133.0,133.0,57.0,1,12.878410577774048,None,,,,,0,0,0,0,0,7,7,68,165.19832134246826,,,,,,,,,,,,,,,,,,,,,,,,,,,,,,,,,,,,,,,,,,,,,,,,,,,,,,,,,,,,,,,,,,,,,,,,,,,,,,,,,,78.0,78.0,57.0,133.0,133.0,57.0,3.0,3.1,-202,277,0,14,191,-276,165.18335390090942,165.18343567848206,165.18640065193176,165.19832134246826,165.3509397506714,165.3509397506714,165.3509397506714,165.3509397506714,165.3509397506714,165.3509397506714,165.3509397506714,178.08264780044556,1,12.878410577774048,None,,,,,,,,,,,,,,,,,,243,1,2025-03-14_10h55.06.370,comp,2024.2.4,57.165458428568115,2025-03-14 10h55.14.638557 -0400,
8,8,0,filler_square,None,None,None,None,None,None,None,None,None,None,1,2.3517088890075684,None,,,,,0,0,0,0,0,8,8,170,178.10032320022583,,,,,,,,,,,,,,,,,,,,,,,,,,,,,,,,,,,,,,,,,,,,,,,,,,,,,,,,,,,,,,,,,,,,,,,,,,,,,,,,,,155.91239018153215,155.91239018153215,130.55944998813425,113.3485413178889,64.82248191560758,114.76908473309905,3.0,3.1,-231,285,0,-7,210,-268,178.08450508117676,178.08458852767944,178.08746147155762,178.10032320022583,178.25546860694885,178.25546860694885,178.25546860694885,178.25546860694885,178.25546860694885,178.25546860694885,178.25546860694885,180.45778107643127,1,2.3517088890075684,None,,,,,,,,,,,,,,,,,,243,1,2025-03-14_10h55.06.370,comp,2024.2.4,57.165458428568115,2025-03-14 10h55.14.638557 -0400,
9,9,0,filler_square,None,None,None,None,None,None,None,None,None,None,1,3.0934767723083496,None,,,,,0,0,0,0,0,9,9,189,180.47817826271057,,,,,,,,,,,,,,,,,,,,,,,,,,,,,,,,,,,,,,,,,,,,,,,,,,,,,,,,,,,,,,,,,,,,,,,,,,,,,,,,,,137.81835881072993,137.81835881072993,116.62923623373595,117.32290515921062,116.60557733097536,135.12402260151725,1.0,1.2,-224,3,0,-19,222,-12,180.45951628684998,180.45959854125977,180.46245408058167,180.47817826271057,180.61923623085022,180.61923623085022,180.61923623085022,180.61923623085022,180.61923623085022,180.61923623085022,180.61923623085022,183.5934875011444,1,3.0934767723083496,None,,,,,,,,,,,,,,,,,,243,1,2025-03-14_10h55.06.370,comp,2024.2.4,57.165458428568115,2025-03-14 10h55.14.638557 -0400,
10,10,0,critical,dhw,20.0,2.1,lower,78.0,78.0,133.0,57.0,57.0,133.0,1,15.970659017562866,None,,,,,0,0,0,0,0,10,10,2,183.60890293121338,,,,,,,,,,,,,,,,,,,,,,,,,,,,,,,,,,,,,,,,,,,,,,,,,,,,,,,,,,,,,,,,,,,,,,,,,,,,,,,,,,78.0,78.0,133.0,57.0,57.0,133.0,2.1,2.11,-164,276,0,289,191,-257,183.5950150489807,183.59509873390198,183.59797835350037,183.60890293121338,183.75459718704224,183.75459718704224,183.75459718704224,183.75459718704224,183.75459718704224,183.75459718704224,183.75459718704224,199.59158325195312,1,15.970659017562866,None,,,,,,,,,,,,,,,,,,243,1,2025-03-14_10h55.06.370,comp,2024.2.4,57.165458428568115,2025-03-14 10h55.14.638557 -0400,
11,11,0,critical,whd,35.0,2.1,upper,125.0,200.0,200.0,125.0,127.0,127.0,1,2.834789991378784,None,,,,,0,0,0,0,0,11,11,37,199.60883474349976,,,,,,,,,,,,,,,,,,,,,,,,,,,,,,,,,,,,,,,,,,,,,,,,,,,,,,,,,,,,,,,,,,,,,,,,,,,,,,,,,,125.0,200.0,200.0,125.0,127.0,127.0,2.1,2.11,-258,287,0,266,222,-260,199.5932810306549,199.59341669082642,199.5967938899994,199.60883474349976,199.76199555397034,199.76199555397034,199.76199555397034,199.76199555397034,199.76199555397034,199.76199555397034,199.76199555397034,202.45321083068848,1,2.834789991378784,None,,,,,,,,,,,,,,,,,,243,1,2025-03-14_10h55.06.370,comp,2024.2.4,57.165458428568115,2025-03-14 10h55.14.638557 -0400,
12,12,0,critical,hwd,20.0,4.0,lower,133.0,57.0,57.0,133.0,78.0,78.0,1,24.302271604537964,None,,,,,0,0,0,0,0,12,12,106,202.46939730644226,,,,,,,,,,,,,,,,,,,,,,,,,,,,,,,,,,,,,,,,,,,,,,,,,,,,,,,,,,,,,,,,,,,,,,,,,,,,,,,,,,133.0,57.0,57.0,133.0,78.0,78.0,4.0,4.2,-191,17,0,-253,202,15,202.45484495162964,202.4550006389618,202.45828819274902,202.46939730644226,202.60894322395325,202.60894322395325,202.60894322395325,202.60894322395325,202.60894322395325,202.60894322395325,202.60894322395325,226.78654503822327,1,24.302271604537964,None,,,,,,,,,,,,,,,,,,243,1,2025-03-14_10h55.06.370,comp,2024.2.4,57.165458428568115,2025-03-14 10h55.14.638557 -0400,
13,13,0,critical,whd,20.0,4.0,lower,57.0,133.0,133.0,57.0,78.0,78.0,2,5.797523021697998,None,,,,,0,0,0,0,0,13,13,94,226.8062288761139,,,,,,,,,,,,,,,,,,,,,,,,,,,,,,,,,,,,,,,,,,,,,,,,,,,,,,,,,,,,,,,,,,,,,,,,,,,,,,,,,,57.0,133.0,133.0,57.0,78.0,78.0,4.0,4.1,-191,-252,0,5,164,-285,226.78828191757202,226.7883996963501,226.7918417453766,226.8062288761139,226.95294761657715,226.95294761657715,226.95294761657715,226.95294761657715,226.95294761657715,226.95294761657715,226.95294761657715,232.61883449554443,2,5.797523021697998,None,,,,,,,,,,,,,,,,,,243,1,2025-03-14_10h55.06.370,comp,2024.2.4,57.165458428568115,2025-03-14 10h55.14.638557 -0400,
14,14,0,filler_square,None,None,None,None,None,None,None,None,None,None,3,8.36869215965271,None,,,,,0,0,0,0,0,14,14,203,232.63494277000427,,,,,,,,,,,,,,,,,,,,,,,,,,,,,,,,,,,,,,,,,,,,,,,,,,,,,,,,,,,,,,,,,,,,,,,,,,,,,,,,,,66.57233235548514,67.70559129551502,67.83755643513099,67.83755643513099,64.97244986498656,66.25235195105192,2.2,2.21,-164,-273,0,281,163,275,232.62059259414673,232.6206738948822,232.62375116348267,232.63494277000427,232.78870224952698,232.78870224952698,232.78870224952698,232.78870224952698,232.78870224952698,232.78870224952698,232.78870224952698,241.01717686653137,3,8.36869215965271,None,,,,,,,,,,,,,,,,,,243,1,2025-03-14_10h55.06.370,comp,2024.2.4,57.165458428568115,2025-03-14 10h55.14.638557 -0400,
15,15,0,critical,dwh,35.0,3.0,lower,70.0,70.0,57.0,133.0,133.0,57.0,3,5.055629253387451,None,,,,,0,0,0,0,0,15,15,62,241.03623414039612,,,,,,,,,,,,,,,,,,,,,,,,,,,,,,,,,,,,,,,,,,,,,,,,,,,,,,,,,,,,,,,,,,,,,,,,,,,,,,,,,,70.0,70.0,57.0,133.0,133.0,57.0,3.0,3.2,-198,-271,0,-8,191,250,241.0187051296234,241.0187861919403,241.0216612815857,241.03623414039612,241.17137384414673,241.17137384414673,241.17137384414673,241.17137384414673,241.17137384414673,241.17137384414673,241.17137384414673,246.1072392463684,3,5.055629253387451,None,,,,,,,,,,,,,,,,,,243,1,2025-03-14_10h55.06.370,comp,2024.2.4,57.165458428568115,2025-03-14 10h55.14.638557 -0400,
16,16,0,filler_random,None,None,None,None,None,None,None,None,None,None,2,1.706709623336792,None,,,,,0,0,0,0,0,16,16,165,246.1234691143036,,,,,,,,,,,,,,,,,,,,,,,,,,,,,,,,,,,,,,,,,,,,,,,,,,,,,,,,,,,,,,,,,,,,,,,,,,,,,,,,,,127.78510139548267,153.55304795471466,162.28839944181533,175.7123308321941,79.16112174304338,109.72566971161618,2.2,2.22,-261,276,0,-260,239,-285,246.10902190208435,246.10910367965698,246.11316394805908,246.1234691143036,246.27287316322327,246.27287316322327,246.27287316322327,246.27287316322327,246.27287316322327,246.27287316322327,246.27287316322327,247.84161281585693,2,1.706709623336792,None,,,,,,,,,,,,,,,,,,243,1,2025-03-14_10h55.06.370,comp,2024.2.4,57.165458428568115,2025-03-14 10h55.14.638557 -0400,
17,17,0,filler_square,None,None,None,None,None,None,None,None,None,None,1,1.9143962860107422,None,,,,,0,0,0,0,0,17,17,176,247.85783171653748,,,,,,,,,,,,,,,,,,,,,,,,,,,,,,,,,,,,,,,,,,,,,,,,,,,,,,,,,,,,,,,,,,,,,,,,,,,,,,,,,,101.5354028258414,101.5354028258414,85.32818533223218,86.64081043131543,72.96330731323341,79.23313536531894,4.0,4.2,-190,-12,0,-279,179,19,247.84358429908752,247.84369277954102,247.8470253944397,247.85783171653748,248.0116949081421,248.0116949081421,248.0116949081421,248.0116949081421,248.0116949081421,248.0116949081421,248.0116949081421,249.77539825439453,1,1.9143962860107422,None,,,,,,,,,,,,,,,,,,243,1,2025-03-14_10h55.06.370,comp,2024.2.4,57.165458428568115,2025-03-14 10h55.14.638557 -0400,
18,18,0,critical,hwd,20.0,1.0,lower,133.0,57.0,57.0,133.0,78.0,78.0,3,8.860878944396973,None,,,,,0,0,0,0,0,18,18,102,249.79112553596497,,,,,,,,,,,,,,,,,,,,,,,,,,,,,,,,,,,,,,,,,,,,,,,,,,,,,,,,,,,,,,,,,,,,,,,,,,,,,,,,,,133.0,57.0,57.0,133.0,78.0,78.0,1.0,1.2,-191,-10,0,-13,202,-7,249.77686142921448,249.77694296836853,249.780437707901,249.79112553596497,249.94116616249084,249.94116616249084,249.94116616249084,249.94116616249084,249.94116616249084,249.94116616249084,249.94116616249084,258.654926776886,3,8.860878944396973,None,,,,,,,,,,,,,,,,,,243,1,2025-03-14_10h55.06.370,comp,2024.2.4,57.165458428568115,2025-03-14 10h55.14.638557 -0400,
19,19,0,filler_square,None,None,None,None,None,None,None,None,None,None,2,2.524186611175537,None,,,,,0,0,0,0,0,19,19,204,258.6715281009674,,,,,,,,,,,,,,,,,,,,,,,,,,,,,,,,,,,,,,,,,,,,,,,,,,,,,,,,,,,,,,,,,,,,,,,,,,,,,,,,,,97.2009238988243,102.87683903209827,111.99854967891298,111.99854967891298,73.23553390001135,104.97054684108869,1.0,1.3,277,-263,480,-264,684,-256,258.65679955482483,258.65688133239746,258.65974521636963,258.6715281009674,258.8115839958191,258.8115839958191,258.8115839958191,258.8115839958191,258.8115839958191,258.8115839958191,258.8115839958191,261.211466550827,2,2.524186611175537,None,,,,,,,,,,,,,,,,,,243,1,2025-03-14_10h55.06.370,comp,2024.2.4,57.165458428568115,2025-03-14 10h55.14.638557 -0400,
20,20,0,filler_random,None,None,None,None,None,None,None,None,None,None,1,1.2648959159851074,None,,,,,0,0,0,0,0,20,20,157,261.2269504070282,,,,,,,,,,,,,,,,,,,,,,,,,,,,,,,,,,,,,,,,,,,,,,,,,,,,,,,,,,,,,,,,,,,,,,,,,,,,,,,,,,125.66145177953936,115.41414380899539,79.7757979235864,82.50931550268467,105.77668276813378,57.41161156348733,3.0,3.1,-195,268,0,13,166,-290,261.2132430076599,261.2133238315582,261.21667742729187,261.2269504070282,261.37658858299255,261.37658858299255,261.37658858299255,261.37658858299255,261.37658858299255,261.37658858299255,261.37658858299255,262.49401021003723,1,1.2648959159851074,None,,,,,,,,,,,,,,,,,,243,1,2025-03-14_10h55.06.370,comp,2024.2.4,57.165458428568115,2025-03-14 10h55.14.638557 -0400,
21,21,0,critical,hdw,35.0,1.0,upper,200.0,125.0,127.0,127.0,125.0,200.0,3,13.915113687515259,None,,,,,0,0,0,0,0,21,21,109,262.5130944252014,,,,,,,,,,,,,,,,,,,,,,,,,,,,,,,,,,,,,,,,,,,,,,,,,,,,,,,,,,,,,,,,,,,,,,,,,,,,,,,,,,200.0,125.0,127.0,127.0,125.0,200.0,1.0,1.1,-702,273,-480,257,-220,253,262.49554324150085,262.49562311172485,262.49870228767395,262.5130944252014,262.66218852996826,262.66218852996826,262.66218852996826,262.66218852996826,262.66218852996826,262.66218852996826,262.66218852996826,276.431991815567,3,13.915113687515259,None,,,,,,,,,,,,,,,,,,243,1,2025-03-14_10h55.06.370,comp,2024.2.4,57.165458428568115,2025-03-14 10h55.14.638557 -0400,
22,22,0,filler_random,None,None,None,None,None,None,None,None,None,None,1,7.780887842178345,None,,,,,0,0,0,0,0,22,22,150,276.4486436843872,,,,,,,,,,,,,,,,,,,,,,,,,,,,,,,,,,,,,,,,,,,,,,,,,,,,,,,,,,,,,,,,,,,,,,,,,,,,,,,,,,138.01564195679111,185.64487988229573,136.19794906503353,199.7999841818921,77.35036557118711,134.12971497671353,4.0,4.1,-289,-252,0,14,263,-282,276.43366837501526,276.4337508678436,276.436936378479,276.4486436843872,276.6020567417145,276.6020567417145,276.6020567417145,276.6020567417145,276.6020567417145,276.6020567417145,276.6020567417145,284.2325186729431,1,7.780887842178345,None,,,,,,,,,,,,,,,,,,243,1,2025-03-14_10h55.06.370,comp,2024.2.4,57.165458428568115,2025-03-14 10h55.14.638557 -0400,
23,23,0,filler_square,None,None,None,None,None,None,None,None,None,None,2,1.3464033603668213,None,,,,,0,0,0,0,0,23,23,178,284.2501654624939,,,,,,,,,,,,,,,,,,,,,,,,,,,,,,,,,,,,,,,,,,,,,,,,,,,,,,,,,,,,,,,,,,,,,,,,,,,,,,,,,,105.68090239183442,67.35235191147568,161.53440530036733,161.53440530036733,87.68433841084689,125.94269561135388,2.2,2.22,-210,266,0,-254,240,-252,284.2343728542328,284.23445415496826,284.2373139858246,284.2501654624939,284.38734316825867,284.38734316825867,284.38734316825867,284.38734316825867,284.38734316825867,284.38734316825867,284.38734316825867,285.6034643650055,2,1.3464033603668213,None,,,,,,,,,,,,,,,,,,243,1,2025-03-14_10h55.06.370,comp,2024.2.4,57.165458428568115,2025-03-14 10h55.14.638557 -0400,
24,24,0,critical,dwh,20.0,3.0,upper,141.0,141.0,125.0,200.0,200.0,125.0,2,8.856273412704468,None,,,,,0,0,0,0,0,24,24,69,285.61990094184875,,,,,,,,,,,,,,,,,,,,,,,,,,,,,,,,,,,,,,,,,,,,,,,,,,,,,,,,,,,,,,,,,,,,,,,,,,,,,,,,,,141.0,141.0,125.0,200.0,200.0,125.0,3.0,3.1,-266,267,0,13,258,-281,285.60501861572266,285.6050989627838,285.60831475257874,285.61990094184875,285.7687258720398,285.7687258720398,285.7687258720398,285.7687258720398,285.7687258720398,285.7687258720398,285.7687258720398,294.4785325527191,2,8.856273412704468,None,,,,,,,,,,,,,,,,,,243,1,2025-03-14_10h55.06.370,comp,2024.2.4,57.165458428568115,2025-03-14 10h55.14.638557 -0400,
25,25,0,critical,dwh,20.0,1.0,upper,141.0,141.0,125.0,200.0,200.0,125.0,2,3.374462604522705,None,,,,,0,0,0,0,0,25,25,67,294.4939329624176,,,,,,,,,,,,,,,,,,,,,,,,,,,,,,,,,,,,,,,,,,,,,,,,,,,,,,,,,,,,,,,,,,,,,,,,,,,,,,,,,,141.0,141.0,125.0,200.0,200.0,125.0,1.0,1.1,-746,276,-480,276,-222,270,294.48013615608215,294.48021721839905,294.48311281204224,294.4939329624176,294.6443021297455,294.6443021297455,294.6443021297455,294.6443021297455,294.6443021297455,294.6443021297455,294.6443021297455,297.87946677207947,2,3.374462604522705,None,,,,,,,,,,,,,,,,,,243,1,2025-03-14_10h55.06.370,comp,2024.2.4,57.165458428568115,2025-03-14 10h55.14.638557 -0400,
26,26,0,filler_random,None,None,None,None,None,None,None,None,None,None,1,1.3252968788146973,None,,,,,0,0,0,0,0,26,26,153,297.8951327800751,,,,,,,,,,,,,,,,,,,,,,,,,,,,,,,,,,,,,,,,,,,,,,,,,,,,,,,,,,,,,,,,,,,,,,,,,,,,,,,,,,103.14864638003614,147.85656506255475,111.14165115427409,110.51027022804507,135.61682230456134,84.97341353847932,4.0,4.1,-225,-260,0,-5,194,-266,297.8812508583069,297.8813331127167,297.88427662849426,297.8951327800751,298.0399534702301,298.0399534702301,298.0399534702301,298.0399534702301,298.0399534702301,298.0399534702301,298.0399534702301,299.2267255783081,1,1.3252968788146973,None,,,,,,,,,,,,,,,,,,243,1,2025-03-14_10h55.06.370,comp,2024.2.4,57.165458428568115,2025-03-14 10h55.14.638557 -0400,
27,27,0,filler_random,None,None,None,None,None,None,None,None,None,None,2,1.1112403869628906,None,,,,,0,0,0,0,0,27,27,156,299.2446057796478,,,,,,,,,,,,,,,,,,,,,,,,,,,,,,,,,,,,,,,,,,,,,,,,,,,,,,,,,,,,,,,,,,,,,,,,,,,,,,,,,,105.17417159797057,74.77756091419342,198.41118075214473,189.28465571104974,179.3570900305604,183.01092962364305,2.1,2.12,-228,-270,0,-287,282,285,299.2286021709442,299.22868633270264,299.23162817955017,299.2446057796478,299.3911418914795,299.3911418914795,299.3911418914795,299.3911418914795,299.3911418914795,299.3911418914795,299.3911418914795,300.3580639362335,2,1.1112403869628906,None,,,,,,,,,,,,,,,,,,243,1,2025-03-14_10h55.06.370,comp,2024.2.4,57.165458428568115,2025-03-14 10h55.14.638557 -0400,
28,28,0,filler_square,None,None,None,None,None,None,None,None,None,None,3,1.341454267501831,None,,,,,0,0,0,0,0,28,28,193,300.3747730255127,,,,,,,,,,,,,,,,,,,,,,,,,,,,,,,,,,,,,,,,,,,,,,,,,,,,,,,,,,,,,,,,,,,,,,,,,,,,,,,,,,180.9005807985934,80.89808984593063,67.2056728681535,152.91735660581642,187.51228901812502,187.51228901812502,4.0,4.2,-213,16,0,-275,266,-2,300.3598930835724,300.3600058555603,300.3640077114105,300.3747730255127,300.52725553512573,300.52725553512573,300.52725553512573,300.52725553512573,300.52725553512573,300.52725553512573,300.52725553512573,301.72764134407043,3,1.341454267501831,None,,,,,,,,,,,,,,,,,,243,1,2025-03-14_10h55.06.370,comp,2024.2.4,57.165458428568115,2025-03-14 10h55.14.638557 -0400,
29,29,0,catch,None,None,None,None,None,None,None,None,None,None,3,1.104478120803833,None,,,,,0,0,0,0,0,29,29,129,301.74788069725037,,,,,,,,,,,,,,,,,,,,,,,,,,,,,,,,,,,,,,,,,,,,,,,,,,,,,,,,,,,,,,,,,,,,,,,,,,,,,,,,,,122,68,76,114,135,190,2.1,2.12,-187,-258,0,-261,248,284,301.72964811325073,301.729731798172,301.7327342033386,301.74788069725037,301.8907644748688,301.8907644748688,301.8907644748688,301.8907644748688,301.8907644748688,301.8907644748688,301.8907644748688,302.8573009967804,3,1.104478120803833,None,,,,,,,,,,,,,,,,,,243,1,2025-03-14_10h55.06.370,comp,2024.2.4,57.165458428568115,2025-03-14 10h55.14.638557 -0400,
30,30,0,critical,dhw,20.0,3.0,upper,141.0,141.0,200.0,125.0,125.0,200.0,3,4.222877740859985,None,,,,,0,0,0,0,0,30,30,57,302.8777132034302,,,,,,,,,,,,,,,,,,,,,,,,,,,,,,,,,,,,,,,,,,,,,,,,,,,,,,,,,,,,,,,,,,,,,,,,,,,,,,,,,,141.0,141.0,200.0,125.0,125.0,200.0,3.0,3.2,-229,-252,0,-8,258,288,302.8588652610779,302.85894751548767,302.8621196746826,302.8777132034302,303.0252022743225,303.0252022743225,303.0252022743225,303.0252022743225,303.0252022743225,303.0252022743225,303.0252022743225,307.1095826625824,3,4.222877740859985,None,,,,,,,,,,,,,,,,,,243,1,2025-03-14_10h55.06.370,comp,2024.2.4,57.165458428568115,2025-03-14 10h55.14.638557 -0400,
31,31,0,critical,whd,35.0,1.0,upper,125.0,200.0,200.0,125.0,127.0,127.0,1,5.358118772506714,None,,,,,0,0,0,0,0,31,31,85,307.12573766708374,,,,,,,,,,,,,,,,,,,,,,,,,,,,,,,,,,,,,,,,,,,,,,,,,,,,,,,,,,,,,,,,,,,,,,,,,,,,,,,,,,125.0,200.0,200.0,125.0,127.0,127.0,1.0,1.2,-258,-8,0,8,222,5,307.1112756729126,307.1114172935486,307.114946603775,307.12573766708374,307.27920389175415,307.27920389175415,307.27920389175415,307.27920389175415,307.27920389175415,307.27920389175415,307.27920389175415,312.5053479671478,1,5.358118772506714,None,,,,,,,,,,,,,,,,,,243,1,2025-03-14_10h55.06.370,comp,2024.2.4,57.165458428568115,2025-03-14 10h55.14.638557 -0400,
32,32,0,critical,dhw,20.0,2.1,upper,141.0,141.0,200.0,125.0,125.0,200.0,3,2.3059654235839844,None,,,,,0,0,0,0,0,32,32,3,312.52248883247375,,,,,,,,,,,,,,,,,,,,,,,,,,,,,,,,,,,,,,,,,,,,,,,,,,,,,,,,,,,,,,,,,,,,,,,,,,,,,,,,,,141.0,141.0,200.0,125.0,125.0,200.0,2.1,2.11,-229,255,0,257,258,-279,312.5068962574005,312.5069968700409,312.5098419189453,312.52248883247375,312.66247391700745,312.66247391700745,312.66247391700745,312.66247391700745,312.66247391700745,312.66247391700745,312.66247391700745,314.83579444885254,3,2.3059654235839844,None,,,,,,,,,,,,,,,,,,243,1,2025-03-14_10h55.06.370,comp,2024.2.4,57.165458428568115,2025-03-14 10h55.14.638557 -0400,
33,33,0,filler_square,None,None,None,None,None,None,None,None,None,None,1,0.8881809711456299,None,,,,,0,0,0,0,0,33,33,188,314.8520739078522,,,,,,,,,,,,,,,,,,,,,,,,,,,,,,,,,,,,,,,,,,,,,,,,,,,,,,,,,,,,,,,,,,,,,,,,,,,,,,,,,,199.48990966007833,199.48990966007833,171.5064258560078,184.08248067467008,118.88285190685073,127.84392172857555,3.0,3.1,-288,278,0,4,252,-263,314.8377294540405,314.8378121852875,314.8410520553589,314.8520739078522,314.99526739120483,314.99526739120483,314.99526739120483,314.99526739120483,314.99526739120483,314.99526739120483,314.99526739120483,315.744158744812,1,0.8881809711456299,None,,,,,,,,,,,,,,,,,,243,1,2025-03-14_10h55.06.370,comp,2024.2.4,57.165458428568115,2025-03-14 10h55.14.638557 -0400,
34,34,0,critical,hwd,20.0,2.1,upper,200.0,125.0,125.0,200.0,141.0,141.0,1,47.54715394973755,None,,,,,0,0,0,0,0,34,34,19,315.760790348053,,,,,,,,,,,,,,,,,,,,,,,,,,,,,,,,,,,,,,,,,,,,,,,,,,,,,,,,,,,,,,,,,,,,,,,,,,,,,,,,,,200.0,125.0,125.0,200.0,141.0,141.0,2.1,2.12,-258,-268,0,-285,266,263,315.74580907821655,315.74588990211487,315.7492527961731,315.760790348053,315.91220259666443,315.91220259666443,315.91220259666443,315.91220259666443,315.91220259666443,315.91220259666443,315.91220259666443,363.3257701396942,1,47.54715394973755,None,,,,,,,,,,,,,,,,,,243,1,2025-03-14_10h55.06.370,comp,2024.2.4,57.165458428568115,2025-03-14 10h55.14.638557 -0400,
35,35,0,critical,wdh,20.0,1.0,upper,125.0,200.0,141.0,141.0,200.0,125.0,1,7.494917869567871,None,,,,,0,0,0,0,0,35,35,79,363.3415970802307,,,,,,,,,,,,,,,,,,,,,,,,,,,,,,,,,,,,,,,,,,,,,,,,,,,,,,,,,,,,,,,,,,,,,,,,,,,,,,,,,,125.0,200.0,141.0,141.0,200.0,125.0,1.0,1.3,214,-255,480,-257,709,-283,363.3272981643677,363.3273787498474,363.3304364681244,363.3415970802307,363.4936213493347,363.4936213493347,363.4936213493347,363.4936213493347,363.4936213493347,363.4936213493347,363.4936213493347,370.84509563446045,1,7.494917869567871,None,,,,,,,,,,,,,,,,,,243,1,2025-03-14_10h55.06.370,comp,2024.2.4,57.165458428568115,2025-03-14 10h55.14.638557 -0400,
36,36,0,critical,wdh,20.0,2.1,lower,57.0,133.0,78.0,78.0,133.0,57.0,2,3.5196547508239746,None,,,,,0,0,0,0,0,36,36,34,370.86049222946167,,,,,,,,,,,,,,,,,,,,,,,,,,,,,,,,,,,,,,,,,,,,,,,,,,,,,,,,,,,,,,,,,,,,,,,,,,,,,,,,,,57.0,133.0,78.0,78.0,133.0,57.0,2.1,2.12,-202,-268,0,-270,164,285,370.8466501235962,370.84673261642456,370.8497669696808,370.86049222946167,371.0184166431427,371.0184166431427,371.0184166431427,371.0184166431427,371.0184166431427,371.0184166431427,371.0184166431427,374.3852868080139,2,3.5196547508239746,None,,,,,,,,,,,,,,,,,,243,1,2025-03-14_10h55.06.370,comp,2024.2.4,57.165458428568115,2025-03-14 10h55.14.638557 -0400,
37,37,0,critical,dwh,35.0,2.1,lower,70.0,70.0,57.0,133.0,133.0,57.0,3,7.969949722290039,None,,,,,0,0,0,0,0,37,37,4,374.40289759635925,,,,,,,,,,,,,,,,,,,,,,,,,,,,,,,,,,,,,,,,,,,,,,,,,,,,,,,,,,,,,,,,,,,,,,,,,,,,,,,,,,70.0,70.0,57.0,133.0,133.0,57.0,2.1,2.12,-198,-271,0,-257,191,274,374.3868315219879,374.3869104385376,374.38978576660156,374.40289759635925,374.54866552352905,374.54866552352905,374.54866552352905,374.54866552352905,374.54866552352905,374.54866552352905,374.54866552352905,382.3839271068573,3,7.969949722290039,None,,,,,,,,,,,,,,,,,,243,1,2025-03-14_10h55.06.370,comp,2024.2.4,57.165458428568115,2025-03-14 10h55.14.638557 -0400,
38,38,0,catch,None,None,None,None,None,None,None,None,None,None,3,1.8198730945587158,None,,,,,0,0,0,0,0,38,38,126,382.40005254745483,,,,,,,,,,,,,,,,,,,,,,,,,,,,,,,,,,,,,,,,,,,,,,,,,,,,,,,,,,,,,,,,,,,,,,,,,,,,,,,,,,90,100,81,109,192,133,4.0,4.2,-200,14,0,-270,217,9,382.3860037326813,382.38610315322876,382.38931465148926,382.40005254745483,382.55243730545044,382.55243730545044,382.55243730545044,382.55243730545044,382.55243730545044,382.55243730545044,382.55243730545044,384.2331805229187,3,1.8198730945587158,None,,,,,,,,,,,,,,,,,,243,1,2025-03-14_10h55.06.370,comp,2024.2.4,57.165458428568115,2025-03-14 10h55.14.638557 -0400,
39,39,0,critical,hdw,35.0,3.0,lower,133.0,57.0,70.0,70.0,57.0,133.0,1,14.063478469848633,None,,,,,0,0,0,0,0,39,39,110,384.25318002700806,,,,,,,,,,,,,,,,,,,,,,,,,,,,,,,,,,,,,,,,,,,,,,,,,,,,,,,,,,,,,,,,,,,,,,,,,,,,,,,,,,133.0,57.0,70.0,70.0,57.0,133.0,3.0,3.1,-160,259,0,-13,198,-274,384.23480463027954,384.2348825931549,384.23838472366333,384.25318002700806,384.4001064300537,384.4001064300537,384.4001064300537,384.4001064300537,384.4001064300537,384.4001064300537,384.4001064300537,398.32420563697815,1,14.063478469848633,None,,,,,,,,,,,,,,,,,,243,1,2025-03-14_10h55.06.370,comp,2024.2.4,57.165458428568115,2025-03-14 10h55.14.638557 -0400,
40,40,0,filler_random,None,None,None,None,None,None,None,None,None,None,1,6.4315025806427,None,,,,,0,0,0,0,0,40,40,164,398.3404414653778,,,,,,,,,,,,,,,,,,,,,,,,,,,,,,,,,,,,,,,,,,,,,,,,,,,,,,,,,,,,,,,,,,,,,,,,,,,,,,,,,,163.31373753907695,163.263828859234,167.1647580996031,148.2890405297502,127.47119858426522,137.3675753848864,1.0,1.1,-732,265,-480,280,-241,258,398.32665634155273,398.32674050331116,398.32968068122864,398.3404414653778,398.4856107234955,398.4856107234955,398.4856107234955,398.4856107234955,398.4856107234955,398.4856107234955,398.4856107234955,404.77511501312256,1,6.4315025806427,None,,,,,,,,,,,,,,,,,,243,1,2025-03-14_10h55.06.370,comp,2024.2.4,57.165458428568115,2025-03-14 10h55.14.638557 -0400,
41,41,0,filler_square,None,None,None,None,None,None,None,None,None,None,2,3.4284915924072266,None,,,,,0,0,0,0,0,41,41,201,404.79191756248474,,,,,,,,,,,,,,,,,,,,,,,,,,,,,,,,,,,,,,,,,,,,,,,,,,,,,,,,,,,,,,,,,,,,,,,,,,,,,,,,,,90.13928873702744,69.416776899776,91.3786788396176,91.3786788396176,66.37471242045027,69.29457318814075,2.2,2.21,-176,-278,0,263,176,265,404.7771770954132,404.7772591114044,404.7811200618744,404.79191756248474,404.93936252593994,404.93936252593994,404.93936252593994,404.93936252593994,404.93936252593994,404.93936252593994,404.93936252593994,408.22906470298767,2,3.4284915924072266,None,,,,,,,,,,,,,,,,,,243,1,2025-03-14_10h55.06.370,comp,2024.2.4,57.165458428568115,2025-03-14 10h55.14.638557 -0400,
42,42,0,critical,dhw,35.0,2.1,upper,127.0,127.0,200.0,125.0,125.0,200.0,2,7.991636753082275,None,,,,,0,0,0,0,0,42,42,1,408.2452709674835,,,,,,,,,,,,,,,,,,,,,,,,,,,,,,,,,,,,,,,,,,,,,,,,,,,,,,,,,,,,,,,,,,,,,,,,,,,,,,,,,,127.0,127.0,200.0,125.0,125.0,200.0,2.1,2.11,-222,286,0,275,258,-269,408.2306258678436,408.230708360672,408.2336492538452,408.2452709674835,408.3917181491852,408.3917181491852,408.3917181491852,408.3917181491852,408.3917181491852,408.3917181491852,408.3917181491852,416.24275946617126,2,7.991636753082275,None,,,,,,,,,,,,,,,,,,243,1,2025-03-14_10h55.06.370,comp,2024.2.4,57.165458428568115,2025-03-14 10h55.14.638557 -0400,
43,43,0,critical,wdh,20.0,3.0,lower,57.0,133.0,78.0,78.0,133.0,57.0,2,7.865519285202026,None,,,,,0,0,0,0,0,43,43,80,416.25908041000366,,,,,,,,,,,,,,,,,,,,,,,,,,,,,,,,,,,,,,,,,,,,,,,,,,,,,,,,,,,,,,,,,,,,,,,,,,,,,,,,,,57.0,133.0,78.0,78.0,133.0,57.0,3.0,3.1,-202,259,0,-1,164,-278,416.2442750930786,416.24435663223267,416.2474648952484,416.25908041000366,416.41019654273987,416.41019654273987,416.41019654273987,416.41019654273987,416.41019654273987,416.41019654273987,416.41019654273987,424.1331207752228,2,7.865519285202026,None,,,,,,,,,,,,,,,,,,243,1,2025-03-14_10h55.06.370,comp,2024.2.4,57.165458428568115,2025-03-14 10h55.14.638557 -0400,
44,44,0,critical,wdh,35.0,3.0,lower,57.0,133.0,70.0,70.0,133.0,57.0,1,21.895286321640015,None,,,,,0,0,0,0,0,44,44,74,424.14939522743225,,,,,,,,,,,,,,,,,,,,,,,,,,,,,,,,,,,,,,,,,,,,,,,,,,,,,,,,,,,,,,,,,,,,,,,,,,,,,,,,,,57.0,133.0,70.0,70.0,133.0,57.0,3.0,3.1,-198,272,0,7,160,-270,424.13500237464905,424.13513016700745,424.1384856700897,424.14939522743225,424.2873783111572,424.2873783111572,424.2873783111572,424.2873783111572,424.2873783111572,424.2873783111572,424.2873783111572,446.05332612991333,1,21.895286321640015,None,,,,,,,,,,,,,,,,,,243,1,2025-03-14_10h55.06.370,comp,2024.2.4,57.165458428568115,2025-03-14 10h55.14.638557 -0400,
45,45,0,critical,whd,35.0,3.0,lower,57.0,133.0,133.0,57.0,70.0,70.0,2,16.1995747089386,None,,,,,0,0,0,0,0,45,45,86,446.0691041946411,,,,,,,,,,,,,,,,,,,,,,,,,,,,,,,,,,,,,,,,,,,,,,,,,,,,,,,,,,,,,,,,,,,,,,,,,,,,,,,,,,57.0,133.0,133.0,57.0,70.0,70.0,3.0,3.2,-191,-264,0,-14,160,287,446.05485558509827,446.0549364089966,446.0583779811859,446.0691041946411,446.22344851493835,446.22344851493835,446.22344851493835,446.22344851493835,446.22344851493835,446.22344851493835,446.22344851493835,462.27658700942993,2,16.1995747089386,None,,,,,,,,,,,,,,,,,,243,1,2025-03-14_10h55.06.370,comp,2024.2.4,57.165458428568115,2025-03-14 10h55.14.638557 -0400,
46,46,0,filler_random,None,None,None,None,None,None,None,None,None,None,2,1.1746737957000732,None,,,,,0,0,0,0,0,46,46,140,462.2934076786041,,,,,,,,,,,,,,,,,,,,,,,,,,,,,,,,,,,,,,,,,,,,,,,,,,,,,,,,,,,,,,,,,,,,,,,,,,,,,,,,,,61.97037929211854,67.11620999620973,169.61081533912588,179.97166438972553,88.0092302883059,116.35394720497013,4.0,4.1,-220,-267,0,16,244,-251,462.2785954475403,462.2786796092987,462.28216433525085,462.2934076786041,462.4404790401459,462.4404790401459,462.4404790401459,462.4404790401459,462.4404790401459,462.4404790401459,462.4404790401459,463.48009157180786,2,1.1746737957000732,None,,,,,,,,,,,,,,,,,,243,1,2025-03-14_10h55.06.370,comp,2024.2.4,57.165458428568115,2025-03-14 10h55.14.638557 -0400,
47,47,0,critical,wdh,35.0,1.0,lower,57.0,133.0,70.0,70.0,133.0,57.0,3,2.628723382949829,None,,,,,0,0,0,0,0,47,47,72,463.49592208862305,,,,,,,,,,,,,,,,,,,,,,,,,,,,,,,,,,,,,,,,,,,,,,,,,,,,,,,,,,,,,,,,,,,,,,,,,,,,,,,,,,57.0,133.0,70.0,70.0,133.0,57.0,1.0,1.3,282,-289,480,-276,640,-286,463.48174238204956,463.4818239212036,463.4847915172577,463.49592208862305,463.64177894592285,463.64177894592285,463.64177894592285,463.64177894592285,463.64177894592285,463.64177894592285,463.64177894592285,466.12718653678894,3,2.628723382949829,None,,,,,,,,,,,,,,,,,,243,1,2025-03-14_10h55.06.370,comp,2024.2.4,57.165458428568115,2025-03-14 10h55.14.638557 -0400,
48,48,0,critical,dhw,20.0,2.1,upper,141.0,141.0,200.0,125.0,125.0,200.0,1,28.597272157669067,None,,,,,0,0,0,0,0,48,48,27,466.14304852485657,,,,,,,,,,,,,,,,,,,,,,,,,,,,,,,,,,,,,,,,,,,,,,,,,,,,,,,,,,,,,,,,,,,,,,,,,,,,,,,,,,141.0,141.0,200.0,125.0,125.0,200.0,2.1,2.11,-229,286,0,270,258,-277,466.12879729270935,466.12891697883606,466.13229036331177,466.14304852485657,466.29798340797424,466.29798340797424,466.29798340797424,466.29798340797424,466.29798340797424,466.29798340797424,466.29798340797424,494.75860381126404,1,28.597272157669067,None,,,,,,,,,,,,,,,,,,243,1,2025-03-14_10h55.06.370,comp,2024.2.4,57.165458428568115,2025-03-14 10h55.14.638557 -0400,
49,49,0,critical,dhw,35.0,2.1,lower,70.0,70.0,133.0,57.0,57.0,133.0,2,5.556124687194824,None,,,,,0,0,0,0,0,49,49,24,494.7758548259735,,,,,,,,,,,,,,,,,,,,,,,,,,,,,,,,,,,,,,,,,,,,,,,,,,,,,,,,,,,,,,,,,,,,,,,,,,,,,,,,,,70.0,70.0,133.0,57.0,57.0,133.0,2.1,2.11,-160,274,0,267,191,-279,494.7601821422577,494.7602593898773,494.76313519477844,494.7758548259735,494.91479992866516,494.91479992866516,494.91479992866516,494.91479992866516,494.91479992866516,494.91479992866516,494.91479992866516,500.3510682582855,2,5.556124687194824,None,,,,,,,,,,,,,,,,,,243,1,2025-03-14_10h55.06.370,comp,2024.2.4,57.165458428568115,2025-03-14 10h55.14.638557 -0400,
50,50,0,filler_square,None,None,None,None,None,None,None,None,None,None,2,1.3448517322540283,None,,,,,0,0,0,0,0,50,50,191,500.3716871738434,,,,,,,,,,,,,,,,,,,,,,,,,,,,,,,,,,,,,,,,,,,,,,,,,,,,,,,,,,,,,,,,,,,,,,,,,,,,,,,,,,114.23670580045646,89.28026335767457,129.95752640382432,129.95752640382432,117.59586901064185,58.04464382317475,3.0,3.2,-206,-284,0,7,190,282,500.3529944419861,500.3530776500702,500.35629415512085,500.3716871738434,500.50420784950256,500.50420784950256,500.50420784950256,500.50420784950256,500.50420784950256,500.50420784950256,500.50420784950256,501.72494649887085,2,1.3448517322540283,None,,,,,,,,,,,,,,,,,,243,1,2025-03-14_10h55.06.370,comp,2024.2.4,57.165458428568115,2025-03-14 10h55.14.638557 -0400,
51,51,0,critical,whd,20.0,2.1,upper,125.0,200.0,200.0,125.0,141.0,141.0,1,8.691162824630737,None,,,,,0,0,0,0,0,51,51,15,501.745272397995,,,,,,,,,,,,,,,,,,,,,,,,,,,,,,,,,,,,,,,,,,,,,,,,,,,,,,,,,,,,,,,,,,,,,,,,,,,,,,,,,,125.0,200.0,200.0,125.0,141.0,141.0,2.1,2.12,-258,-252,0,-253,229,288,501.7265498638153,501.72663378715515,501.7295699119568,501.745272397995,501.8925242424011,501.8925242424011,501.8925242424011,501.8925242424011,501.8925242424011,501.8925242424011,501.8925242424011,510.43855929374695,1,8.691162824630737,None,,,,,,,,,,,,,,,,,,243,1,2025-03-14_10h55.06.370,comp,2024.2.4,57.165458428568115,2025-03-14 10h55.14.638557 -0400,
52,52,0,filler_square,None,None,None,None,None,None,None,None,None,None,1,1.148576021194458,None,,,,,0,0,0,0,0,52,52,209,510.455445766449,,,,,,,,,,,,,,,,,,,,,,,,,,,,,,,,,,,,,,,,,,,,,,,,,,,,,,,,,,,,,,,,,,,,,,,,,,,,,,,,,,155.9604488275736,155.9604488275736,107.01450110426836,64.87490453454596,63.89697479381205,107.08679598300316,1.0,1.3,274,-258,480,-257,662,-281,510.44029998779297,510.44037985801697,510.4435257911682,510.455445766449,510.6068112850189,510.6068112850189,510.6068112850189,510.6068112850189,510.6068112850189,510.6068112850189,510.6068112850189,511.62171459198,1,1.148576021194458,None,,,,,,,,,,,,,,,,,,243,1,2025-03-14_10h55.06.370,comp,2024.2.4,57.165458428568115,2025-03-14 10h55.14.638557 -0400,
53,53,0,critical,hwd,20.0,4.0,upper,200.0,125.0,125.0,200.0,141.0,141.0,2,8.998847961425781,None,,,,,0,0,0,0,0,53,53,107,511.6381208896637,,,,,,,,,,,,,,,,,,,,,,,,,,,,,,,,,,,,,,,,,,,,,,,,,,,,,,,,,,,,,,,,,,,,,,,,,,,,,,,,,,200.0,125.0,125.0,200.0,141.0,141.0,4.0,4.2,-258,13,0,-260,266,9,511.62340450286865,511.62353515625,511.6268208026886,511.6381208896637,511.7917547225952,511.7917547225952,511.7917547225952,511.7917547225952,511.7917547225952,511.7917547225952,511.7917547225952,520.6435899734497,2,8.998847961425781,None,,,,,,,,,,,,,,,,,,243,1,2025-03-14_10h55.06.370,comp,2024.2.4,57.165458428568115,2025-03-14 10h55.14.638557 -0400,
54,54,0,critical,hwd,20.0,1.0,upper,200.0,125.0,125.0,200.0,141.0,141.0,2,5.88145899772644,None,,,,,0,0,0,0,0,54,54,103,520.6590523719788,,,,,,,,,,,,,,,,,,,,,,,,,,,,,,,,,,,,,,,,,,,,,,,,,,,,,,,,,,,,,,,,,,,,,,,,,,,,,,,,,,200.0,125.0,125.0,200.0,141.0,141.0,1.0,1.2,-258,-11,0,-12,266,2,520.6451270580292,520.6452100276947,520.6483345031738,520.6590523719788,520.8099279403687,520.8099279403687,520.8099279403687,520.8099279403687,520.8099279403687,520.8099279403687,520.8099279403687,526.5489256381989,2,5.88145899772644,None,,,,,,,,,,,,,,,,,,243,1,2025-03-14_10h55.06.370,comp,2024.2.4,57.165458428568115,2025-03-14 10h55.14.638557 -0400,
55,55,0,filler_square,None,None,None,None,None,None,None,None,None,None,2,0.9800167083740234,None,,,,,0,0,0,0,0,55,55,194,526.5685732364655,,,,,,,,,,,,,,,,,,,,,,,,,,,,,,,,,,,,,,,,,,,,,,,,,,,,,,,,,,,,,,,,,,,,,,,,,,,,,,,,,,121.06248044380335,138.87587472235526,176.15823107840325,176.15823107840325,89.32687067876755,120.095412653637,1.0,1.2,-254,6,0,-18,244,5,526.5507884025574,526.5508713722229,526.5537827014923,526.5685732364655,526.7115714550018,526.7115714550018,526.7115714550018,526.7115714550018,526.7115714550018,526.7115714550018,526.7115714550018,527.5642807483673,2,0.9800167083740234,None,,,,,,,,,,,,,,,,,,243,1,2025-03-14_10h55.06.370,comp,2024.2.4,57.165458428568115,2025-03-14 10h55.14.638557 -0400,
56,56,0,critical,wdh,35.0,4.0,upper,125.0,200.0,127.0,127.0,200.0,125.0,1,3.881160020828247,None,,,,,0,0,0,0,0,56,56,77,527.5793724060059,,,,,,,,,,,,,,,,,,,,,,,,,,,,,,,,,,,,,,,,,,,,,,,,,,,,,,,,,,,,,,,,,,,,,,,,,,,,,,,,,,125.0,200.0,127.0,127.0,200.0,125.0,4.0,4.2,-260,-2,0,-284,222,19,527.5660429000854,527.5661242008209,527.5690803527832,527.5793724060059,527.7272226810455,527.7272226810455,527.7272226810455,527.7272226810455,527.7272226810455,527.7272226810455,527.7272226810455,531.4786505699158,1,3.881160020828247,None,,,,,,,,,,,,,,,,,,243,1,2025-03-14_10h55.06.370,comp,2024.2.4,57.165458428568115,2025-03-14 10h55.14.638557 -0400,
57,57,0,catch,None,None,None,None,None,None,None,None,None,None,3,1.5421059131622314,None,,,,,0,0,0,0,0,57,57,120,531.494936466217,,,,,,,,,,,,,,,,,,,,,,,,,,,,,,,,,,,,,,,,,,,,,,,,,,,,,,,,,,,,,,,,,,,,,,,,,,,,,,,,,,107,83,83,107,198,127,3.0,3.2,-191,-251,0,8,213,253,531.4805743694305,531.4806525707245,531.4837391376495,531.494936466217,531.6486592292786,531.6486592292786,531.6486592292786,531.6486592292786,531.6486592292786,531.6486592292786,531.6486592292786,533.0474689006805,3,1.5421059131622314,None,,,,,,,,,,,,,,,,,,243,1,2025-03-14_10h55.06.370,comp,2024.2.4,57.165458428568115,2025-03-14 10h55.14.638557 -0400,
58,58,0,critical,wdh,35.0,3.0,upper,125.0,200.0,127.0,127.0,200.0,125.0,1,1.621140956878662,None,,,,,0,0,0,0,0,58,58,75,533.0633130073547,,,,,,,,,,,,,,,,,,,,,,,,,,,,,,,,,,,,,,,,,,,,,,,,,,,,,,,,,,,,,,,,,,,,,,,,,,,,,,,,,,125.0,200.0,127.0,127.0,200.0,125.0,3.0,3.1,-260,258,0,-12,222,-270,533.0489914417267,533.0490760803223,533.0525517463684,533.0633130073547,533.2154924869537,533.2154924869537,533.2154924869537,533.2154924869537,533.2154924869537,533.2154924869537,533.2154924869537,534.6988518238068,1,1.621140956878662,None,,,,,,,,,,,,,,,,,,243,1,2025-03-14_10h55.06.370,comp,2024.2.4,57.165458428568115,2025-03-14 10h55.14.638557 -0400,
59,59,0,filler_random,None,None,None,None,None,None,None,None,None,None,2,1.9209413528442383,None,,,,,0,0,0,0,0,59,59,135,534.7151145935059,,,,,,,,,,,,,,,,,,,,,,,,,,,,,,,,,,,,,,,,,,,,,,,,,,,,,,,,,,,,,,,,,,,,,,,,,,,,,,,,,,149.61366978052186,103.60453208639392,114.40362181279482,160.67975601456493,82.7046627637435,100.43694474410592,2.2,2.21,-228,-261,0,279,227,252,534.7008006572723,534.7008829116821,534.704785823822,534.7151145935059,534.8680679798126,534.8680679798126,534.8680679798126,534.8680679798126,534.8680679798126,534.8680679798126,534.8680679798126,536.6463997364044,2,1.9209413528442383,None,,,,,,,,,,,,,,,,,,243,1,2025-03-14_10h55.06.370,comp,2024.2.4,57.165458428568115,2025-03-14 10h55.14.638557 -0400,
60,60,0,critical,dhw,20.0,1.0,lower,78.0,78.0,133.0,57.0,57.0,133.0,1,9.221815824508667,None,,,,,0,0,0,0,0,60,60,54,536.6628549098969,,,,,,,,,,,,,,,,,,,,,,,,,,,,,,,,,,,,,,,,,,,,,,,,,,,,,,,,,,,,,,,,,,,,,,,,,,,,,,,,,,78.0,78.0,133.0,57.0,57.0,133.0,1.0,1.1,-644,282,-480,283,-289,280,536.6479160785675,536.6480369567871,536.6509025096893,536.6628549098969,536.8016421794891,536.8016421794891,536.8016421794891,536.8016421794891,536.8016421794891,536.8016421794891,536.8016421794891,545.8904738426208,1,9.221815824508667,None,,,,,,,,,,,,,,,,,,243,1,2025-03-14_10h55.06.370,comp,2024.2.4,57.165458428568115,2025-03-14 10h55.14.638557 -0400,
61,61,0,critical,whd,20.0,2.1,upper,125.0,200.0,200.0,125.0,141.0,141.0,1,5.491084814071655,None,,,,,0,0,0,0,0,61,61,39,545.9057748317719,,,,,,,,,,,,,,,,,,,,,,,,,,,,,,,,,,,,,,,,,,,,,,,,,,,,,,,,,,,,,,,,,,,,,,,,,,,,,,,,,,125.0,200.0,200.0,125.0,141.0,141.0,2.1,2.12,-258,-260,0,-262,229,283,545.8920283317566,545.8921105861664,545.8949568271637,545.9057748317719,546.051460981369,546.051460981369,546.051460981369,546.051460981369,546.051460981369,546.051460981369,546.051460981369,551.4028716087341,1,5.491084814071655,None,,,,,,,,,,,,,,,,,,243,1,2025-03-14_10h55.06.370,comp,2024.2.4,57.165458428568115,2025-03-14 10h55.14.638557 -0400,
62,62,0,critical,hwd,35.0,4.0,upper,200.0,125.0,125.0,200.0,127.0,127.0,2,15.78553295135498,None,,,,,0,0,0,0,0,62,62,101,551.4191660881042,,,,,,,,,,,,,,,,,,,,,,,,,,,,,,,,,,,,,,,,,,,,,,,,,,,,,,,,,,,,,,,,,,,,,,,,,,,,,,,,,,200.0,125.0,125.0,200.0,127.0,127.0,4.0,4.2,-258,-17,0,-262,260,-11,551.4045760631561,551.4047100543976,551.4081542491913,551.4191660881042,551.5683696269989,551.5683696269989,551.5683696269989,551.5683696269989,551.5683696269989,551.5683696269989,551.5683696269989,567.2094223499298,2,15.78553295135498,None,,,,,,,,,,,,,,,,,,243,1,2025-03-14_10h55.06.370,comp,2024.2.4,57.165458428568115,2025-03-14 10h55.14.638557 -0400,
63,63,0,filler_random,None,None,None,None,None,None,None,None,None,None,2,3.4177372455596924,None,,,,,0,0,0,0,0,63,63,130,567.2263567447662,,,,,,,,,,,,,,,,,,,,,,,,,,,,,,,,,,,,,,,,,,,,,,,,,,,,,,,,,,,,,,,,,,,,,,,,,,,,,,,,,,62.20578598581007,93.0510336884403,187.20146860462688,163.82254621425324,190.90062680394684,161.9208280888982,1.0,1.2,-224,-4,0,-5,259,17,567.2114880084991,567.2116227149963,567.2150077819824,567.2263567447662,567.3719851970673,567.3719851970673,567.3719851970673,567.3719851970673,567.3719851970673,567.3719851970673,567.3719851970673,570.6575767993927,2,3.4177372455596924,None,,,,,,,,,,,,,,,,,,243,1,2025-03-14_10h55.06.370,comp,2024.2.4,57.165458428568115,2025-03-14 10h55.14.638557 -0400,
64,64,0,filler_square,None,None,None,None,None,None,None,None,None,None,3,12.594817161560059,None,,,,,0,0,0,0,0,64,64,197,570.6737937927246,,,,,,,,,,,,,,,,,,,,,,,,,,,,,,,,,,,,,,,,,,,,,,,,,,,,,,,,,,,,,,,,,,,,,,,,,,,,,,,,,,98.23502792423552,100.45349138620637,76.93787879937054,65.50690202931614,102.6508109282064,102.6508109282064,2.1,2.12,-179,-261,0,-264,180,254,570.6592743396759,570.6593532562256,570.6625208854675,570.6737937927246,570.825849533081,570.825849533081,570.825849533081,570.825849533081,570.825849533081,570.825849533081,570.825849533081,583.2782595157623,3,12.594817161560059,None,,,,,,,,,,,,,,,,,,243,1,2025-03-14_10h55.06.370,comp,2024.2.4,57.165458428568115,2025-03-14 10h55.14.638557 -0400,
65,65,0,filler_random,None,None,None,None,None,None,None,None,None,None,1,4.24402642250061,None,,,,,0,0,0,0,0,65,65,159,583.2962458133698,,,,,,,,,,,,,,,,,,,,,,,,,,,,,,,,,,,,,,,,,,,,,,,,,,,,,,,,,,,,,,,,,,,,,,,,,,,,,,,,,,186.52492474254925,132.21768056932308,183.82027353354215,85.78246684174246,199.95838612750146,115.24107918314354,1.0,1.3,275,-275,480,-261,677,-280,583.2799491882324,583.2800486087799,583.2831122875214,583.2962458133698,583.4473495483398,583.4473495483398,583.4473495483398,583.4473495483398,583.4473495483398,583.4473495483398,583.4473495483398,587.5571203231812,1,4.24402642250061,None,,,,,,,,,,,,,,,,,,243,1,2025-03-14_10h55.06.370,comp,2024.2.4,57.165458428568115,2025-03-14 10h55.14.638557 -0400,
66,66,0,critical,hwd,20.0,2.1,upper,200.0,125.0,125.0,200.0,141.0,141.0,3,2.709817409515381,None,,,,,0,0,0,0,0,66,66,43,587.5742535591125,,,,,,,,,,,,,,,,,,,,,,,,,,,,,,,,,,,,,,,,,,,,,,,,,,,,,,,,,,,,,,,,,,,,,,,,,,,,,,,,,,200.0,125.0,125.0,200.0,141.0,141.0,2.1,2.12,-258,-275,0,-250,266,278,587.5586001873016,587.5586793422699,587.5615615844727,587.5742535591125,587.7143852710724,587.7143852710724,587.7143852710724,587.7143852710724,587.7143852710724,587.7143852710724,587.7143852710724,590.2945172786713,3,2.709817409515381,None,,,,,,,,,,,,,,,,,,243,1,2025-03-14_10h55.06.370,comp,2024.2.4,57.165458428568115,2025-03-14 10h55.14.638557 -0400,
67,67,0,filler_random,None,None,None,None,None,None,None,None,None,None,3,1.300459861755371,None,,,,,0,0,0,0,0,67,67,162,590.3120520114899,,,,,,,,,,,,,,,,,,,,,,,,,,,,,,,,,,,,,,,,,,,,,,,,,,,,,,,,,,,,,,,,,,,,,,,,,,,,,,,,,,67.63967991766043,76.14467655449273,132.03988425861002,79.69214860447138,165.70441319534604,194.56105444072475,4.0,4.1,-174,-268,0,-18,233,-271,590.2963976860046,590.2965409755707,590.2997968196869,590.3120520114899,590.449630022049,590.449630022049,590.449630022049,590.449630022049,590.449630022049,590.449630022049,590.449630022049,591.6326243877411,3,1.300459861755371,None,,,,,,,,,,,,,,,,,,243,1,2025-03-14_10h55.06.370,comp,2024.2.4,57.165458428568115,2025-03-14 10h55.14.638557 -0400,
68,68,0,critical,hdw,35.0,2.1,lower,133.0,57.0,70.0,70.0,57.0,133.0,3,4.983962059020996,None,,,,,0,0,0,0,0,68,68,20,591.6521015167236,,,,,,,,,,,,,,,,,,,,,,,,,,,,,,,,,,,,,,,,,,,,,,,,,,,,,,,,,,,,,,,,,,,,,,,,,,,,,,,,,,133.0,57.0,70.0,70.0,57.0,133.0,2.1,2.12,-160,-280,0,-278,198,272,591.6341798305511,591.6342613697052,591.6374983787537,591.6521015167236,591.7990822792053,591.7990822792053,591.7990822792053,591.7990822792053,591.7990822792053,591.7990822792053,591.7990822792053,596.6536378860474,3,4.983962059020996,None,,,,,,,,,,,,,,,,,,243,1,2025-03-14_10h55.06.370,comp,2024.2.4,57.165458428568115,2025-03-14 10h55.14.638557 -0400,
69,69,0,critical,hdw,20.0,1.0,lower,133.0,57.0,78.0,78.0,57.0,133.0,2,6.9973437786102295,None,,,,,0,0,0,0,0,69,69,114,596.6711537837982,,,,,,,,,,,,,,,,,,,,,,,,,,,,,,,,,,,,,,,,,,,,,,,,,,,,,,,,,,,,,,,,,,,,,,,,,,,,,,,,,,133.0,57.0,78.0,78.0,57.0,133.0,1.0,1.2,-164,-13,0,-12,202,-2,596.6552646160126,596.6553497314453,596.6584911346436,596.6711537837982,596.8175296783447,596.8175296783447,596.8175296783447,596.8175296783447,596.8175296783447,596.8175296783447,596.8175296783447,603.6875033378601,2,6.9973437786102295,None,,,,,,,,,,,,,,,,,,243,1,2025-03-14_10h55.06.370,comp,2024.2.4,57.165458428568115,2025-03-14 10h55.14.638557 -0400,
70,70,0,critical,whd,35.0,4.0,upper,125.0,200.0,200.0,125.0,127.0,127.0,1,2.4972875118255615,None,,,,,0,0,0,0,0,70,70,89,603.7074081897736,,,,,,,,,,,,,,,,,,,,,,,,,,,,,,,,,,,,,,,,,,,,,,,,,,,,,,,,,,,,,,,,,,,,,,,,,,,,,,,,,,125.0,200.0,200.0,125.0,127.0,127.0,4.0,4.1,-258,-273,0,15,222,-260,603.6900629997253,603.6902086734772,603.6959257125854,603.7074081897736,603.8528099060059,603.8528099060059,603.8528099060059,603.8528099060059,603.8528099060059,603.8528099060059,603.8528099060059,606.2248651981354,1,2.4972875118255615,None,,,,,,,,,,,,,,,,,,243,1,2025-03-14_10h55.06.370,comp,2024.2.4,57.165458428568115,2025-03-14 10h55.14.638557 -0400,
71,71,0,filler_random,None,None,None,None,None,None,None,None,None,None,3,3.3618595600128174,None,,,,,0,0,0,0,0,71,71,131,606.2430827617645,,,,,,,,,,,,,,,,,,,,,,,,,,,,,,,,,,,,,,,,,,,,,,,,,,,,,,,,,,,,,,,,,,,,,,,,,,,,,,,,,,82.76706954620263,111.4964480190746,194.59500182293854,120.21943634002254,192.50993776212138,120.23833489596424,4.0,4.2,-212,-17,0,-259,216,-13,606.2265954017639,606.2266736030579,606.229900598526,606.2430827617645,606.3863878250122,606.3863878250122,606.3863878250122,606.3863878250122,606.3863878250122,606.3863878250122,606.3863878250122,609.6087205410004,3,3.3618595600128174,None,,,,,,,,,,,,,,,,,,243,1,2025-03-14_10h55.06.370,comp,2024.2.4,57.165458428568115,2025-03-14 10h55.14.638557 -0400,
72,72,0,critical,hdw,20.0,2.1,upper,200.0,125.0,141.0,141.0,125.0,200.0,3,1.6503651142120361,None,,,,,0,0,0,0,0,72,72,23,609.6258704662323,,,,,,,,,,,,,,,,,,,,,,,,,,,,,,,,,,,,,,,,,,,,,,,,,,,,,,,,,,,,,,,,,,,,,,,,,,,,,,,,,,200.0,125.0,141.0,141.0,125.0,200.0,2.1,2.12,-229,-267,0,-268,266,283,609.6103119850159,609.6103937625885,609.6142497062683,609.6258704662323,609.7710518836975,609.7710518836975,609.7710518836975,609.7710518836975,609.7710518836975,609.7710518836975,609.7710518836975,611.2880184650421,3,1.6503651142120361,None,,,,,,,,,,,,,,,,,,243,1,2025-03-14_10h55.06.370,comp,2024.2.4,57.165458428568115,2025-03-14 10h55.14.638557 -0400,
73,73,0,critical,hdw,20.0,3.0,upper,200.0,125.0,141.0,141.0,125.0,200.0,3,20.50368595123291,None,,,,,0,0,0,0,0,73,73,117,611.3084282875061,,,,,,,,,,,,,,,,,,,,,,,,,,,,,,,,,,,,,,,,,,,,,,,,,,,,,,,,,,,,,,,,,,,,,,,,,,,,,,,,,,200.0,125.0,141.0,141.0,125.0,200.0,3.0,3.2,-229,-268,0,-14,266,256,611.2895617485046,611.2896447181702,611.2927255630493,611.3084282875061,611.4550445079803,611.4550445079803,611.4550445079803,611.4550445079803,611.4550445079803,611.4550445079803,611.4550445079803,631.8278212547302,3,20.50368595123291,None,,,,,,,,,,,,,,,,,,243,1,2025-03-14_10h55.06.370,comp,2024.2.4,57.165458428568115,2025-03-14 10h55.14.638557 -0400,
74,74,0,filler_square,None,None,None,None,None,None,None,None,None,None,1,1.0411972999572754,None,,,,,0,0,0,0,0,74,74,172,631.8429520130157,,,,,,,,,,,,,,,,,,,,,,,,,,,,,,,,,,,,,,,,,,,,,,,,,,,,,,,,,,,,,,,,,,,,,,,,,,,,,,,,,,172.1964258859768,172.1964258859768,83.01541473589415,167.14422260174229,152.45057203226668,114.9960924179967,2.2,2.22,-266,261,0,-256,237,-288,631.8298902511597,631.830002784729,631.8334476947784,631.8429520130157,631.9933013916016,631.9933013916016,631.9933013916016,631.9933013916016,631.9933013916016,631.9933013916016,631.9933013916016,632.8995447158813,1,1.0411972999572754,None,,,,,,,,,,,,,,,,,,243,1,2025-03-14_10h55.06.370,comp,2024.2.4,57.165458428568115,2025-03-14 10h55.14.638557 -0400,
75,75,0,critical,wdh,35.0,2.1,upper,125.0,200.0,127.0,127.0,200.0,125.0,1,4.128659963607788,None,,,,,0,0,0,0,0,75,75,9,632.9168310165405,,,,,,,,,,,,,,,,,,,,,,,,,,,,,,,,,,,,,,,,,,,,,,,,,,,,,,,,,,,,,,,,,,,,,,,,,,,,,,,,,,125.0,200.0,127.0,127.0,200.0,125.0,2.1,2.12,-260,-263,0,-263,222,287,632.9012031555176,632.9012839794159,632.9041574001312,632.9168310165405,633.0620028972626,633.0620028972626,633.0620028972626,633.0620028972626,633.0620028972626,633.0620028972626,633.0620028972626,637.0501189231873,1,4.128659963607788,None,,,,,,,,,,,,,,,,,,243,1,2025-03-14_10h55.06.370,comp,2024.2.4,57.165458428568115,2025-03-14 10h55.14.638557 -0400,
76,76,0,critical,wdh,35.0,2.1,lower,57.0,133.0,70.0,70.0,133.0,57.0,3,8.72539210319519,None,,,,,0,0,0,0,0,76,76,8,637.065258026123,,,,,,,,,,,,,,,,,,,,,,,,,,,,,,,,,,,,,,,,,,,,,,,,,,,,,,,,,,,,,,,,,,,,,,,,,,,,,,,,,,57.0,133.0,70.0,70.0,133.0,57.0,2.1,2.12,-198,-261,0,-273,160,277,637.051863193512,637.0520310401917,637.0553233623505,637.065258026123,637.215986251831,637.215986251831,637.215986251831,637.215986251831,637.215986251831,637.215986251831,637.215986251831,645.7962257862091,3,8.72539210319519,None,,,,,,,,,,,,,,,,,,243,1,2025-03-14_10h55.06.370,comp,2024.2.4,57.165458428568115,2025-03-14 10h55.14.638557 -0400,
77,77,0,critical,hwd,20.0,3.0,upper,200.0,125.0,125.0,200.0,141.0,141.0,2,2.447340726852417,None,,,,,0,0,0,0,0,77,77,105,645.8130400180817,,,,,,,,,,,,,,,,,,,,,,,,,,,,,,,,,,,,,,,,,,,,,,,,,,,,,,,,,,,,,,,,,,,,,,,,,,,,,,,,,,200.0,125.0,125.0,200.0,141.0,141.0,3.0,3.1,-258,288,0,11,266,-273,645.7977476119995,645.7978293895721,645.8007028102875,645.8130400180817,645.9549152851105,645.9549152851105,645.9549152851105,645.9549152851105,645.9549152851105,645.9549152851105,645.9549152851105,648.2718648910522,2,2.447340726852417,None,,,,,,,,,,,,,,,,,,243,1,2025-03-14_10h55.06.370,comp,2024.2.4,57.165458428568115,2025-03-14 10h55.14.638557 -0400,
78,78,0,critical,dhw,20.0,4.0,lower,78.0,78.0,133.0,57.0,57.0,133.0,3,4.460792064666748,None,,,,,0,0,0,0,0,78,78,58,648.2877447605133,,,,,,,,,,,,,,,,,,,,,,,,,,,,,,,,,,,,,,,,,,,,,,,,,,,,,,,,,,,,,,,,,,,,,,,,,,,,,,,,,,78.0,78.0,133.0,57.0,57.0,133.0,4.0,4.1,-164,-252,0,-10,191,-264,648.2735142707825,648.2736201286316,648.276917219162,648.2877447605133,648.4334082603455,648.4334082603455,648.4334082603455,648.4334082603455,648.4334082603455,648.4334082603455,648.4334082603455,652.7511651515961,3,4.460792064666748,None,,,,,,,,,,,,,,,,,,243,1,2025-03-14_10h55.06.370,comp,2024.2.4,57.165458428568115,2025-03-14 10h55.14.638557 -0400,
79,79,0,filler_square,None,None,None,None,None,None,None,None,None,None,1,4.467892169952393,None,,,,,0,0,0,0,0,79,79,190,652.7682240009308,,,,,,,,,,,,,,,,,,,,,,,,,,,,,,,,,,,,,,,,,,,,,,,,,,,,,,,,,,,,,,,,,,,,,,,,,,,,,,,,,,79.18096577923546,79.18096577923546,65.73166485392828,70.70684023135284,65.43980741017731,58.21973926910474,2.2,2.21,-171,-262,0,261,160,287,652.7531843185425,652.7532680034637,652.7564654350281,652.7682240009308,652.9146280288696,652.9146280288696,652.9146280288696,652.9146280288696,652.9146280288696,652.9146280288696,652.9146280288696,657.2514371871948,1,4.467892169952393,None,,,,,,,,,,,,,,,,,,243,1,2025-03-14_10h55.06.370,comp,2024.2.4,57.165458428568115,2025-03-14 10h55.14.638557 -0400,
80,80,0,filler_square,None,None,None,None,None,None,None,None,None,None,1,1.1365797519683838,None,,,,,0,0,0,0,0,80,80,187,657.2677044868469,,,,,,,,,,,,,,,,,,,,,,,,,,,,,,,,,,,,,,,,,,,,,,,,,,,,,,,,,,,,,,,,,,,,,,,,,,,,,,,,,,99.18058486761106,99.18058486761106,97.21483986847227,69.25879638263486,78.23276632182588,85.1816532502845,3.0,3.1,-180,277,0,-9,173,-269,657.2532215118408,657.2533016204834,657.2563478946686,657.2677044868469,657.4215350151062,657.4215350151062,657.4215350151062,657.4215350151062,657.4215350151062,657.4215350151062,657.4215350151062,658.406703710556,1,1.1365797519683838,None,,,,,,,,,,,,,,,,,,243,1,2025-03-14_10h55.06.370,comp,2024.2.4,57.165458428568115,2025-03-14 10h55.14.638557 -0400,
81,81,0,critical,hwd,35.0,2.1,lower,133.0,57.0,57.0,133.0,70.0,70.0,2,7.715906620025635,None,,,,,0,0,0,0,0,81,81,40,658.4245057106018,,,,,,,,,,,,,,,,,,,,,,,,,,,,,,,,,,,,,,,,,,,,,,,,,,,,,,,,,,,,,,,,,,,,,,,,,,,,,,,,,,133.0,57.0,57.0,133.0,70.0,70.0,2.1,2.12,-191,-273,0,-278,198,272,658.4083831310272,658.4084656238556,658.4113433361053,658.4245057106018,658.566734790802,658.566734790802,658.566734790802,658.566734790802,658.566734790802,658.566734790802,658.566734790802,666.1441159248352,2,7.715906620025635,None,,,,,,,,,,,,,,,,,,243,1,2025-03-14_10h55.06.370,comp,2024.2.4,57.165458428568115,2025-03-14 10h55.14.638557 -0400,
82,82,0,critical,wdh,20.0,4.0,lower,57.0,133.0,78.0,78.0,133.0,57.0,3,22.418510675430298,None,,,,,0,0,0,0,0,82,82,82,666.1617631912231,,,,,,,,,,,,,,,,,,,,,,,,,,,,,,,,,,,,,,,,,,,,,,,,,,,,,,,,,,,,,,,,,,,,,,,,,,,,,,,,,,57.0,133.0,78.0,78.0,133.0,57.0,4.0,4.2,-202,-1,0,-272,164,16,666.145614862442,666.1456942558289,666.148609161377,666.1617631912231,666.3058006763458,666.3058006763458,666.3058006763458,666.3058006763458,666.3058006763458,666.3058006763458,666.3058006763458,688.5944242477417,3,22.418510675430298,None,,,,,,,,,,,,,,,,,,243,1,2025-03-14_10h55.06.370,comp,2024.2.4,57.165458428568115,2025-03-14 10h55.14.638557 -0400,
83,83,0,critical,wdh,20.0,2.1,upper,125.0,200.0,141.0,141.0,200.0,125.0,1,4.801749229431152,None,,,,,0,0,0,0,0,83,83,35,688.6105065345764,,,,,,,,,,,,,,,,,,,,,,,,,,,,,,,,,,,,,,,,,,,,,,,,,,,,,,,,,,,,,,,,,,,,,,,,,,,,,,,,,,125.0,200.0,141.0,141.0,200.0,125.0,2.1,2.12,-266,-251,0,-262,229,284,688.5959079265594,688.5960218906403,688.5992376804352,688.6105065345764,688.7614541053772,688.7614541053772,688.7614541053772,688.7614541053772,688.7614541053772,688.7614541053772,688.7614541053772,693.4301030635834,1,4.801749229431152,None,,,,,,,,,,,,,,,,,,243,1,2025-03-14_10h55.06.370,comp,2024.2.4,57.165458428568115,2025-03-14 10h55.14.638557 -0400,
84,84,0,critical,dhw,35.0,3.0,lower,70.0,70.0,133.0,57.0,57.0,133.0,3,5.26013445854187,None,,,,,0,0,0,0,0,84,84,50,693.4489076137543,,,,,,,,,,,,,,,,,,,,,,,,,,,,,,,,,,,,,,,,,,,,,,,,,,,,,,,,,,,,,,,,,,,,,,,,,,,,,,,,,,70.0,70.0,133.0,57.0,57.0,133.0,3.0,3.2,-160,-286,0,-19,191,252,693.4315838813782,693.4316627979279,693.4348652362823,693.4489076137543,693.5971441268921,693.5971441268921,693.5971441268921,693.5971441268921,693.5971441268921,693.5971441268921,693.5971441268921,698.7122876644135,3,5.26013445854187,None,,,,,,,,,,,,,,,,,,243,1,2025-03-14_10h55.06.370,comp,2024.2.4,57.165458428568115,2025-03-14 10h55.14.638557 -0400,
85,85,0,critical,whd,35.0,2.1,lower,57.0,133.0,133.0,57.0,70.0,70.0,1,2.7161505222320557,None,,,,,0,0,0,0,0,85,85,12,698.7293226718903,,,,,,,,,,,,,,,,,,,,,,,,,,,,,,,,,,,,,,,,,,,,,,,,,,,,,,,,,,,,,,,,,,,,,,,,,,,,,,,,,,57.0,133.0,133.0,57.0,70.0,70.0,2.1,2.11,-191,263,0,258,160,-278,698.7138338088989,698.7139146327972,698.7167792320251,698.7293226718903,698.867917060852,698.867917060852,698.867917060852,698.867917060852,698.867917060852,698.867917060852,698.867917060852,701.4486780166626,1,2.7161505222320557,None,,,,,,,,,,,,,,,,,,243,1,2025-03-14_10h55.06.370,comp,2024.2.4,57.165458428568115,2025-03-14 10h55.14.638557 -0400,
86,86,0,critical,dwh,20.0,2.1,lower,78.0,78.0,57.0,133.0,133.0,57.0,3,4.923122882843018,None,,,,,0,0,0,0,0,86,86,6,701.4652433395386,,,,,,,,,,,,,,,,,,,,,,,,,,,,,,,,,,,,,,,,,,,,,,,,,,,,,,,,,,,,,,,,,,,,,,,,,,,,,,,,,,78.0,78.0,57.0,133.0,133.0,57.0,2.1,2.12,-202,-264,0,-273,191,259,701.450204372406,701.4502856731415,701.4534573554993,701.4652433395386,701.6204600334167,701.6204600334167,701.6204600334167,701.6204600334167,701.6204600334167,701.6204600334167,701.6204600334167,706.4045803546906,3,4.923122882843018,None,,,,,,,,,,,,,,,,,,243,1,2025-03-14_10h55.06.370,comp,2024.2.4,57.165458428568115,2025-03-14 10h55.14.638557 -0400,
87,87,0,filler_random,None,None,None,None,None,None,None,None,None,None,2,3.7518310546875,None,,,,,0,0,0,0,0,87,87,138,706.4204535484314,,,,,,,,,,,,,,,,,,,,,,,,,,,,,,,,,,,,,,,,,,,,,,,,,,,,,,,,,,,,,,,,,,,,,,,,,,,,,,,,,,120.34857132009363,65.34184844922197,141.39478047520583,63.00509627898632,117.6187334219727,65.18125976577778,2.1,2.12,-160,-266,0,-276,160,253,706.4064452648163,706.4065284729004,706.4096088409424,706.4204535484314,706.5680501461029,706.5680501461029,706.5680501461029,706.5680501461029,706.5680501461029,706.5680501461029,706.5680501461029,710.1851804256439,2,3.7518310546875,None,,,,,,,,,,,,,,,,,,243,1,2025-03-14_10h55.06.370,comp,2024.2.4,57.165458428568115,2025-03-14 10h55.14.638557 -0400,
88,88,0,filler_random,None,None,None,None,None,None,None,None,None,None,3,1.6755812168121338,None,,,,,0,0,0,0,0,88,88,145,710.2017018795013,,,,,,,,,,,,,,,,,,,,,,,,,,,,,,,,,,,,,,,,,,,,,,,,,,,,,,,,,,,,,,,,,,,,,,,,,,,,,,,,,,85.56605303453851,79.20388256597755,137.9988634526651,74.42165087177796,195.02214837093751,165.96995994015742,1.0,1.2,-173,-13,0,2,216,4,710.186981678009,710.1871237754822,710.190456867218,710.2017018795013,710.3534367084503,710.3534367084503,710.3534367084503,710.3534367084503,710.3534367084503,710.3534367084503,710.3534367084503,711.8866131305695,3,1.6755812168121338,None,,,,,,,,,,,,,,,,,,243,1,2025-03-14_10h55.06.370,comp,2024.2.4,57.165458428568115,2025-03-14 10h55.14.638557 -0400,
89,89,0,filler_random,None,None,None,None,None,None,None,None,None,None,3,2.35718035697937,None,,,,,0,0,0,0,0,89,89,134,711.903801202774,,,,,,,,,,,,,,,,,,,,,,,,,,,,,,,,,,,,,,,,,,,,,,,,,,,,,,,,,,,,,,,,,,,,,,,,,,,,,,,,,,58.6200812445778,186.66500622377947,178.24962965079408,63.40605211080857,142.8005420870797,123.69656612146707,3.0,3.1,-221,275,0,-13,190,-278,711.8884603977203,711.8886024951935,711.893027305603,711.903801202774,712.0523285865784,712.0523285865784,712.0523285865784,712.0523285865784,712.0523285865784,712.0523285865784,712.0523285865784,714.2746760845184,3,2.35718035697937,None,,,,,,,,,,,,,,,,,,243,1,2025-03-14_10h55.06.370,comp,2024.2.4,57.165458428568115,2025-03-14 10h55.14.638557 -0400,
90,90,0,critical,dhw,35.0,2.1,lower,70.0,70.0,133.0,57.0,57.0,133.0,2,2.4261112213134766,None,,,,,0,0,0,0,0,90,90,0,714.2910358905792,,,,,,,,,,,,,,,,,,,,,,,,,,,,,,,,,,,,,,,,,,,,,,,,,,,,,,,,,,,,,,,,,,,,,,,,,,,,,,,,,,70.0,70.0,133.0,57.0,57.0,133.0,2.1,2.11,-160,267,0,270,191,-285,714.2764267921448,714.2765762805939,714.2799422740936,714.2910358905792,714.4403328895569,714.4403328895569,714.4403328895569,714.4403328895569,714.4403328895569,714.4403328895569,714.4403328895569,716.7236559391022,2,2.4261112213134766,None,,,,,,,,,,,,,,,,,,243,1,2025-03-14_10h55.06.370,comp,2024.2.4,57.165458428568115,2025-03-14 10h55.14.638557 -0400,
91,91,0,filler_square,None,None,None,None,None,None,None,None,None,None,1,2.9521257877349854,None,,,,,0,0,0,0,0,91,91,195,716.7402720451355,,,,,,,,,,,,,,,,,,,,,,,,,,,,,,,,,,,,,,,,,,,,,,,,,,,,,,,,,,,,,,,,,,,,,,,,,,,,,,,,,,170.34414520092463,170.34414520092463,143.07701943373348,143.89591399770256,78.41242279976926,66.9735327505455,4.0,4.2,-253,-10,0,-278,201,9,716.725581407547,716.7256646156311,716.7295286655426,716.7402720451355,716.879382610321,716.879382610321,716.879382610321,716.879382610321,716.879382610321,716.879382610321,716.879382610321,719.7058174610138,1,2.9521257877349854,None,,,,,,,,,,,,,,,,,,243,1,2025-03-14_10h55.06.370,comp,2024.2.4,57.165458428568115,2025-03-14 10h55.14.638557 -0400,
92,92,0,critical,hdw,20.0,2.1,lower,133.0,57.0,78.0,78.0,57.0,133.0,1,3.833696126937866,None,,,,,0,0,0,0,0,92,92,46,719.7226717472076,,,,,,,,,,,,,,,,,,,,,,,,,,,,,,,,,,,,,,,,,,,,,,,,,,,,,,,,,,,,,,,,,,,,,,,,,,,,,,,,,,133.0,57.0,78.0,78.0,57.0,133.0,2.1,2.12,-164,-270,0,-263,202,264,719.7073640823364,719.7074460983276,719.7115263938904,719.7226717472076,719.8717861175537,719.8717861175537,719.8717861175537,719.8717861175537,719.8717861175537,719.8717861175537,719.8717861175537,723.5722539424896,1,3.833696126937866,None,,,,,,,,,,,,,,,,,,243,1,2025-03-14_10h55.06.370,comp,2024.2.4,57.165458428568115,2025-03-14 10h55.14.638557 -0400,
93,93,0,critical,dhw,35.0,1.0,lower,70.0,70.0,133.0,57.0,57.0,133.0,2,7.192044496536255,None,,,,,0,0,0,0,0,93,93,48,723.5883498191833,,,,,,,,,,,,,,,,,,,,,,,,,,,,,,,,,,,,,,,,,,,,,,,,,,,,,,,,,,,,,,,,,,,,,,,,,,,,,,,,,,70.0,70.0,133.0,57.0,57.0,133.0,1.0,1.2,-160,16,0,11,191,-3,723.5737161636353,723.5737957954407,723.5768709182739,723.5883498191833,723.7420608997345,723.7420608997345,723.7420608997345,723.7420608997345,723.7420608997345,723.7420608997345,723.7420608997345,730.7949109077454,2,7.192044496536255,None,,,,,,,,,,,,,,,,,,243,1,2025-03-14_10h55.06.370,comp,2024.2.4,57.165458428568115,2025-03-14 10h55.14.638557 -0400,
94,94,0,critical,dwh,20.0,1.0,lower,78.0,78.0,57.0,133.0,133.0,57.0,1,6.601486444473267,None,,,,,0,0,0,0,0,94,94,66,730.810783624649,,,,,,,,,,,,,,,,,,,,,,,,,,,,,,,,,,,,,,,,,,,,,,,,,,,,,,,,,,,,,,,,,,,,,,,,,,,,,,,,,,78.0,78.0,57.0,133.0,133.0,57.0,1.0,1.3,278,-283,480,-264,671,-263,730.7966265678406,730.7967402935028,730.8003959655762,730.810783624649,730.9572353363037,730.9572353363037,730.9572353363037,730.9572353363037,730.9572353363037,730.9572353363037,730.9572353363037,737.4277079105377,1,6.601486444473267,None,,,,,,,,,,,,,,,,,,243,1,2025-03-14_10h55.06.370,comp,2024.2.4,57.165458428568115,2025-03-14 10h55.14.638557 -0400,
95,95,0,critical,whd,35.0,3.0,upper,125.0,200.0,200.0,125.0,127.0,127.0,1,1.3579444885253906,None,,,,,0,0,0,0,0,95,95,87,737.4463193416595,,,,,,,,,,,,,,,,,,,,,,,,,,,,,,,,,,,,,,,,,,,,,,,,,,,,,,,,,,,,,,,,,,,,,,,,,,,,,,,,,,125.0,200.0,200.0,125.0,127.0,127.0,3.0,3.2,-258,-275,0,2,222,279,737.429328918457,737.4294092655182,737.4330961704254,737.4463193416595,737.5948266983032,737.5948266983032,737.5948266983032,737.5948266983032,737.5948266983032,737.5948266983032,737.5948266983032,738.8168332576752,1,1.3579444885253906,None,,,,,,,,,,,,,,,,,,243,1,2025-03-14_10h55.06.370,comp,2024.2.4,57.165458428568115,2025-03-14 10h55.14.638557 -0400,
96,96,0,critical,hdw,35.0,3.0,upper,200.0,125.0,127.0,127.0,125.0,200.0,3,1.9452095031738281,None,,,,,0,0,0,0,0,96,96,111,738.8350310325623,,,,,,,,,,,,,,,,,,,,,,,,,,,,,,,,,,,,,,,,,,,,,,,,,,,,,,,,,,,,,,,,,,,,,,,,,,,,,,,,,,200.0,125.0,127.0,127.0,125.0,200.0,3.0,3.2,-222,-260,0,-9,260,278,738.8184776306152,738.8185801506042,738.8218462467194,738.8350310325623,738.9782719612122,738.9782719612122,738.9782719612122,738.9782719612122,738.9782719612122,738.9782719612122,738.9782719612122,740.7948231697083,3,1.9452095031738281,None,,,,,,,,,,,,,,,,,,243,1,2025-03-14_10h55.06.370,comp,2024.2.4,57.165458428568115,2025-03-14 10h55.14.638557 -0400,
97,97,0,catch,None,None,None,None,None,None,None,None,None,None,3,1.1212759017944336,None,,,,,0,0,0,0,0,97,97,127,740.8112287521362,,,,,,,,,,,,,,,,,,,,,,,,,,,,,,,,,,,,,,,,,,,,,,,,,,,,,,,,,,,,,,,,,,,,,,,,,,,,,,,,,,98,92,67,123,193,132,3.0,3.1,-204,278,0,-12,224,-285,740.796758890152,740.7968428134918,740.7999823093414,740.8112287521362,740.9615097045898,740.9615097045898,740.9615097045898,740.9615097045898,740.9615097045898,740.9615097045898,740.9615097045898,741.9465906620026,3,1.1212759017944336,None,,,,,,,,,,,,,,,,,,243,1,2025-03-14_10h55.06.370,comp,2024.2.4,57.165458428568115,2025-03-14 10h55.14.638557 -0400,
98,98,0,critical,whd,35.0,4.0,lower,57.0,133.0,133.0,57.0,70.0,70.0,2,6.202375650405884,None,,,,,0,0,0,0,0,98,98,88,741.9621987342834,,,,,,,,,,,,,,,,,,,,,,,,,,,,,,,,,,,,,,,,,,,,,,,,,,,,,,,,,,,,,,,,,,,,,,,,,,,,,,,,,,57.0,133.0,133.0,57.0,70.0,70.0,4.0,4.1,-191,-289,0,-13,160,-273,741.9482762813568,741.9483640193939,741.9518196582794,741.9621987342834,742.1115503311157,742.1115503311157,742.1115503311157,742.1115503311157,742.1115503311157,742.1115503311157,742.1115503311157,748.1820802688599,2,6.202375650405884,None,,,,,,,,,,,,,,,,,,243,1,2025-03-14_10h55.06.370,comp,2024.2.4,57.165458428568115,2025-03-14 10h55.14.638557 -0400,
99,99,0,critical,dhw,20.0,1.0,upper,141.0,141.0,200.0,125.0,125.0,200.0,3,26.935862064361572,None,,,,,0,0,0,0,0,99,99,55,748.1974489688873,,,,,,,,,,,,,,,,,,,,,,,,,,,,,,,,,,,,,,,,,,,,,,,,,,,,,,,,,,,,,,,,,,,,,,,,,,,,,,,,,,141.0,141.0,200.0,125.0,125.0,200.0,1.0,1.1,-709,286,-480,279,-222,273,748.1836342811584,748.1837155818939,748.1871428489685,748.1974489688873,748.3533463478088,748.3533463478088,748.3533463478088,748.3533463478088,748.3533463478088,748.3533463478088,748.3533463478088,775.1387436389923,3,26.935862064361572,None,,,,,,,,,,,,,,,,,,243,1,2025-03-14_10h55.06.370,comp,2024.2.4,57.165458428568115,2025-03-14 10h55.14.638557 -0400,
100,100,0,catch,None,None,None,None,None,None,None,None,None,None,1,1.101078748703003,None,,,,,0,0,0,0,0,100,100,124,775.1591784954071,,,,,,,,,,,,,,,,,,,,,,,,,,,,,,,,,,,,,,,,,,,,,,,,,,,,,,,,,,,,,,,,,,,,,,,,,,,,,,,,,,139,186,132,58,115,75,2.1,2.12,-218,-274,0,-284,162,275,775.1406941413879,775.1407766342163,775.1437282562256,775.1591784954071,775.3056135177612,775.3056135177612,775.3056135177612,775.3056135177612,775.3056135177612,775.3056135177612,775.3056135177612,776.2748146057129,1,1.101078748703003,None,,,,,,,,,,,,,,,,,,243,1,2025-03-14_10h55.06.370,comp,2024.2.4,57.165458428568115,2025-03-14 10h55.14.638557 -0400,
101,101,0,critical,dwh,20.0,4.0,lower,78.0,78.0,57.0,133.0,133.0,57.0,3,2.9536855220794678,None,,,,,0,0,0,0,0,101,101,70,776.2907013893127,,,,,,,,,,,,,,,,,,,,,,,,,,,,,,,,,,,,,,,,,,,,,,,,,,,,,,,,,,,,,,,,,,,,,,,,,,,,,,,,,,78.0,78.0,57.0,133.0,133.0,57.0,4.0,4.2,-202,4,0,-277,191,19,776.2765147686005,776.2766544818878,776.2802350521088,776.2907013893127,776.4394996166229,776.4394996166229,776.4394996166229,776.4394996166229,776.4394996166229,776.4394996166229,776.4394996166229,779.2628350257874,3,2.9536855220794678,None,,,,,,,,,,,,,,,,,,243,1,2025-03-14_10h55.06.370,comp,2024.2.4,57.165458428568115,2025-03-14 10h55.14.638557 -0400,
102,102,0,filler_square,None,None,None,None,None,None,None,None,None,None,3,3.428208351135254,None,,,,,0,0,0,0,0,102,102,199,779.2804727554321,,,,,,,,,,,,,,,,,,,,,,,,,,,,,,,,,,,,,,,,,,,,,,,,,,,,,,,,,,,,,,,,,,,,,,,,,,,,,,,,,,115.77764910881746,153.01673906001548,89.4191574570329,79.20448355246623,170.35857002292417,170.35857002292417,1.0,1.1,-692,287,-480,259,-259,285,779.2647166252136,779.2647984027863,779.2677149772644,779.2804727554321,779.4243152141571,779.4243152141571,779.4243152141571,779.4243152141571,779.4243152141571,779.4243152141571,779.4243152141571,782.7123446464539,3,3.428208351135254,None,,,,,,,,,,,,,,,,,,243,1,2025-03-14_10h55.06.370,comp,2024.2.4,57.165458428568115,2025-03-14 10h55.14.638557 -0400,
103,103,0,critical,dhw,35.0,1.0,upper,127.0,127.0,200.0,125.0,125.0,200.0,3,8.884119033813477,None,,,,,0,0,0,0,0,103,103,49,782.7282063961029,,,,,,,,,,,,,,,,,,,,,,,,,,,,,,,,,,,,,,,,,,,,,,,,,,,,,,,,,,,,,,,,,,,,,,,,,,,,,,,,,,127.0,127.0,200.0,125.0,125.0,200.0,1.0,1.1,-702,268,-480,270,-222,269,782.7139213085175,782.714029788971,782.7172219753265,782.7282063961029,782.8723413944244,782.8723413944244,782.8723413944244,782.8723413944244,782.8723413944244,782.8723413944244,782.8723413944244,791.6301035881042,3,8.884119033813477,None,,,,,,,,,,,,,,,,,,243,1,2025-03-14_10h55.06.370,comp,2024.2.4,57.165458428568115,2025-03-14 10h55.14.638557 -0400,
104,104,0,catch,None,None,None,None,None,None,None,None,None,None,3,1.4260497093200684,None,,,,,0,0,0,0,0,104,104,122,791.6510324478149,,,,,,,,,,,,,,,,,,,,,,,,,,,,,,,,,,,,,,,,,,,,,,,,,,,,,,,,,,,,,,,,,,,,,,,,,,,,,,,,,,111,79,88,102,135,190,3.0,3.2,-186,-277,0,-12,242,273,791.6321859359741,791.632301568985,791.63560962677,791.6510324478149,791.7938368320465,791.7938368320465,791.7938368320465,791.7938368320465,791.7938368320465,791.7938368320465,791.7938368320465,793.0805473327637,3,1.4260497093200684,None,,,,,,,,,,,,,,,,,,243,1,2025-03-14_10h55.06.370,comp,2024.2.4,57.165458428568115,2025-03-14 10h55.14.638557 -0400,
105,105,0,critical,wdh,20.0,4.0,upper,125.0,200.0,141.0,141.0,200.0,125.0,1,4.868499517440796,None,,,,,0,0,0,0,0,105,105,83,793.0966188907623,,,,,,,,,,,,,,,,,,,,,,,,,,,,,,,,,,,,,,,,,,,,,,,,,,,,,,,,,,,,,,,,,,,,,,,,,,,,,,,,,,125.0,200.0,141.0,141.0,200.0,125.0,4.0,4.1,-266,-254,0,6,229,-276,793.0822322368622,793.0823681354523,793.0858011245728,793.0966188907623,793.2441136837006,793.2441136837006,793.2441136837006,793.2441136837006,793.2441136837006,793.2441136837006,793.2441136837006,797.9729404449463,1,4.868499517440796,None,,,,,,,,,,,,,,,,,,243,1,2025-03-14_10h55.06.370,comp,2024.2.4,57.165458428568115,2025-03-14 10h55.14.638557 -0400,
106,106,0,critical,hdw,20.0,4.0,lower,133.0,57.0,78.0,78.0,57.0,133.0,3,10.435506582260132,None,,,,,0,0,0,0,0,106,106,118,797.9928297996521,,,,,,,,,,,,,,,,,,,,,,,,,,,,,,,,,,,,,,,,,,,,,,,,,,,,,,,,,,,,,,,,,,,,,,,,,,,,,,,,,,133.0,57.0,78.0,78.0,57.0,133.0,4.0,4.2,-164,10,0,-266,202,7,797.974609375,797.9746916294098,797.9780280590057,797.9928297996521,798.1297645568848,798.1297645568848,798.1297645568848,798.1297645568848,798.1297645568848,798.1297645568848,798.1297645568848,808.4431960582733,3,10.435506582260132,None,,,,,,,,,,,,,,,,,,243,1,2025-03-14_10h55.06.370,comp,2024.2.4,57.165458428568115,2025-03-14 10h55.14.638557 -0400,
107,107,0,filler_random,None,None,None,None,None,None,None,None,None,None,2,7.53996729850769,None,,,,,0,0,0,0,0,107,107,168,808.4644498825073,,,,,,,,,,,,,,,,,,,,,,,,,,,,,,,,,,,,,,,,,,,,,,,,,,,,,,,,,,,,,,,,,,,,,,,,,,,,,,,,,,77.67231329125269,135.94706439915404,159.7390655264082,146.57146147120093,196.46080283939733,124.1801135946726,4.0,4.1,-237,-276,0,-3,231,-271,808.445013999939,808.4451560974121,808.4485673904419,808.4644498825073,808.6012628078461,808.6012628078461,808.6012628078461,808.6012628078461,808.6012628078461,808.6012628078461,808.6012628078461,816.0092263221741,2,7.53996729850769,None,,,,,,,,,,,,,,,,,,243,1,2025-03-14_10h55.06.370,comp,2024.2.4,57.165458428568115,2025-03-14 10h55.14.638557 -0400,
108,108,0,critical,hdw,35.0,4.0,lower,133.0,57.0,70.0,70.0,57.0,133.0,3,2.5775527954101562,None,,,,,0,0,0,0,0,108,108,112,816.0268161296844,,,,,,,,,,,,,,,,,,,,,,,,,,,,,,,,,,,,,,,,,,,,,,,,,,,,,,,,,,,,,,,,,,,,,,,,,,,,,,,,,,133.0,57.0,70.0,70.0,57.0,133.0,4.0,4.2,-160,0,0,-255,198,-5,816.010748386383,816.0108280181885,816.0136828422546,816.0268161296844,816.1694281101227,816.1694281101227,816.1694281101227,816.1694281101227,816.1694281101227,816.1694281101227,816.1694281101227,818.6189048290253,3,2.5775527954101562,None,,,,,,,,,,,,,,,,,,243,1,2025-03-14_10h55.06.370,comp,2024.2.4,57.165458428568115,2025-03-14 10h55.14.638557 -0400,
109,109,0,critical,wdh,35.0,2.1,upper,125.0,200.0,127.0,127.0,200.0,125.0,1,5.5959320068359375,None,,,,,0,0,0,0,0,109,109,33,818.6406257152557,,,,,,,,,,,,,,,,,,,,,,,,,,,,,,,,,,,,,,,,,,,,,,,,,,,,,,,,,,,,,,,,,,,,,,,,,,,,,,,,,,125.0,200.0,127.0,127.0,200.0,125.0,2.1,2.12,-260,-256,0,-261,222,283,818.6204822063446,818.6205615997314,818.6237180233002,818.6406257152557,818.774736404419,818.774736404419,818.774736404419,818.774736404419,818.774736404419,818.774736404419,818.774736404419,824.2387702465057,1,5.5959320068359375,None,,,,,,,,,,,,,,,,,,243,1,2025-03-14_10h55.06.370,comp,2024.2.4,57.165458428568115,2025-03-14 10h55.14.638557 -0400,
110,110,0,critical,hwd,35.0,1.0,lower,133.0,57.0,57.0,133.0,70.0,70.0,2,12.39687442779541,None,,,,,0,0,0,0,0,110,110,96,824.2554681301117,,,,,,,,,,,,,,,,,,,,,,,,,,,,,,,,,,,,,,,,,,,,,,,,,,,,,,,,,,,,,,,,,,,,,,,,,,,,,,,,,,133.0,57.0,57.0,133.0,70.0,70.0,1.0,1.1,-671,258,-480,253,-282,289,824.2404086589813,824.2404930591583,824.2445366382599,824.2554681301117,824.4037139415741,824.4037139415741,824.4037139415741,824.4037139415741,824.4037139415741,824.4037139415741,824.4037139415741,836.665060043335,2,12.39687442779541,None,,,,,,,,,,,,,,,,,,243,1,2025-03-14_10h55.06.370,comp,2024.2.4,57.165458428568115,2025-03-14 10h55.14.638557 -0400,
111,111,0,filler_square,None,None,None,None,None,None,None,None,None,None,1,3.9535882472991943,None,,,,,0,0,0,0,0,111,111,184,836.6828305721283,,,,,,,,,,,,,,,,,,,,,,,,,,,,,,,,,,,,,,,,,,,,,,,,,,,,,,,,,,,,,,,,,,,,,,,,,,,,,,,,,,93.7751567572775,93.7751567572775,67.74124668850516,90.24425408742448,57.804324283538385,57.976639951406064,4.0,4.1,-188,-281,0,-14,170,-274,836.6668171882629,836.666900396347,836.6697499752045,836.6828305721283,836.8251650333405,836.8251650333405,836.8251650333405,836.8251650333405,836.8251650333405,836.8251650333405,836.8251650333405,840.6486489772797,1,3.9535882472991943,None,,,,,,,,,,,,,,,,,,243,1,2025-03-14_10h55.06.370,comp,2024.2.4,57.165458428568115,2025-03-14 10h55.14.638557 -0400,
112,112,0,critical,hdw,20.0,1.0,upper,200.0,125.0,141.0,141.0,125.0,200.0,3,6.053039312362671,None,,,,,0,0,0,0,0,112,112,115,840.6634495258331,,,,,,,,,,,,,,,,,,,,,,,,,,,,,,,,,,,,,,,,,,,,,,,,,,,,,,,,,,,,,,,,,,,,,,,,,,,,,,,,,,200.0,125.0,141.0,141.0,125.0,200.0,1.0,1.3,251,-251,480,-262,746,-288,840.6502070426941,840.6502861976624,840.6531591415405,840.6634495258331,840.8100304603577,840.8100304603577,840.8100304603577,840.8100304603577,840.8100304603577,840.8100304603577,840.8100304603577,846.7295873165131,3,6.053039312362671,None,,,,,,,,,,,,,,,,,,243,1,2025-03-14_10h55.06.370,comp,2024.2.4,57.165458428568115,2025-03-14 10h55.14.638557 -0400,
113,113,0,critical,whd,20.0,1.0,upper,125.0,200.0,200.0,125.0,141.0,141.0,1,2.963552713394165,None,,,,,0,0,0,0,0,113,113,91,846.7453744411469,,,,,,,,,,,,,,,,,,,,,,,,,,,,,,,,,,,,,,,,,,,,,,,,,,,,,,,,,,,,,,,,,,,,,,,,,,,,,,,,,,125.0,200.0,200.0,125.0,141.0,141.0,1.0,1.1,-738,288,-480,261,-251,269,846.731124162674,846.7312278747559,846.734409570694,846.7453744411469,846.8947670459747,846.8947670459747,846.8947670459747,846.8947670459747,846.8947670459747,846.8947670459747,846.8947670459747,849.7134091854095,1,2.963552713394165,None,,,,,,,,,,,,,,,,,,243,1,2025-03-14_10h55.06.370,comp,2024.2.4,57.165458428568115,2025-03-14 10h55.14.638557 -0400,
114,114,0,filler_random,None,None,None,None,None,None,None,None,None,None,1,6.122349262237549,None,,,,,0,0,0,0,0,114,114,146,849.7300601005554,,,,,,,,,,,,,,,,,,,,,,,,,,,,,,,,,,,,,,,,,,,,,,,,,,,,,,,,,,,,,,,,,,,,,,,,,,,,,,,,,,90.98091687419063,166.60922666595005,82.56721843048447,63.46681238586861,101.29043571067722,74.24507590625738,2.1,2.12,-211,-289,0,-280,165,272,849.7152593135834,849.7153413295746,849.7185254096985,849.7300601005554,849.8785603046417,849.8785603046417,849.8785603046417,849.8785603046417,849.8785603046417,849.8785603046417,849.8785603046417,855.8686635494232,1,6.122349262237549,None,,,,,,,,,,,,,,,,,,243,1,2025-03-14_10h55.06.370,comp,2024.2.4,57.165458428568115,2025-03-14 10h55.14.638557 -0400,
115,115,0,critical,hdw,35.0,2.1,upper,200.0,125.0,127.0,127.0,125.0,200.0,3,1.904747486114502,None,,,,,0,0,0,0,0,115,115,45,855.8846983909607,,,,,,,,,,,,,,,,,,,,,,,,,,,,,,,,,,,,,,,,,,,,,,,,,,,,,,,,,,,,,,,,,,,,,,,,,,,,,,,,,,200.0,125.0,127.0,127.0,125.0,200.0,2.1,2.11,-222,257,0,261,260,-254,855.8705582618713,855.870640039444,855.8735699653625,855.8846983909607,856.0321092605591,856.0321092605591,856.0321092605591,856.0321092605591,856.0321092605591,856.0321092605591,856.0321092605591,857.7987992763519,3,1.904747486114502,None,,,,,,,,,,,,,,,,,,243,1,2025-03-14_10h55.06.370,comp,2024.2.4,57.165458428568115,2025-03-14 10h55.14.638557 -0400,
116,116,0,critical,dwh,20.0,2.1,lower,78.0,78.0,57.0,133.0,133.0,57.0,1,16.98985743522644,None,,,,,0,0,0,0,0,116,116,30,857.8145327568054,,,,,,,,,,,,,,,,,,,,,,,,,,,,,,,,,,,,,,,,,,,,,,,,,,,,,,,,,,,,,,,,,,,,,,,,,,,,,,,,,,78.0,78.0,57.0,133.0,133.0,57.0,2.1,2.12,-202,-275,0,-256,191,286,857.8003308773041,857.8004148006439,857.8037710189819,857.8145327568054,857.9650874137878,857.9650874137878,857.9650874137878,857.9650874137878,857.9650874137878,857.9650874137878,857.9650874137878,874.8237500190735,1,16.98985743522644,None,,,,,,,,,,,,,,,,,,243,1,2025-03-14_10h55.06.370,comp,2024.2.4,57.165458428568115,2025-03-14 10h55.14.638557 -0400,
117,117,0,critical,whd,20.0,2.1,lower,57.0,133.0,133.0,57.0,78.0,78.0,1,9.195324420928955,None,,,,,0,0,0,0,0,117,117,14,874.841712474823,,,,,,,,,,,,,,,,,,,,,,,,,,,,,,,,,,,,,,,,,,,,,,,,,,,,,,,,,,,,,,,,,,,,,,,,,,,,,,,,,,57.0,133.0,133.0,57.0,78.0,78.0,2.1,2.11,-191,264,0,276,164,-253,874.8253712654114,874.8255095481873,874.828991651535,874.841712474823,874.9872050285339,874.9872050285339,874.9872050285339,874.9872050285339,874.9872050285339,874.9872050285339,874.9872050285339,884.0458498001099,1,9.195324420928955,None,,,,,,,,,,,,,,,,,,243,1,2025-03-14_10h55.06.370,comp,2024.2.4,57.165458428568115,2025-03-14 10h55.14.638557 -0400,
118,118,0,critical,hwd,20.0,2.1,lower,133.0,57.0,57.0,133.0,78.0,78.0,2,7.703099966049194,None,,,,,0,0,0,0,0,118,118,42,884.0612704753876,,,,,,,,,,,,,,,,,,,,,,,,,,,,,,,,,,,,,,,,,,,,,,,,,,,,,,,,,,,,,,,,,,,,,,,,,,,,,,,,,,133.0,57.0,57.0,133.0,78.0,78.0,2.1,2.12,-191,-277,0,-283,202,273,884.0474240779877,884.0475075244904,884.0503666400909,884.0612704753876,884.2062096595764,884.2062096595764,884.2062096595764,884.2062096595764,884.2062096595764,884.2062096595764,884.2062096595764,891.7744808197021,2,7.703099966049194,None,,,,,,,,,,,,,,,,,,243,1,2025-03-14_10h55.06.370,comp,2024.2.4,57.165458428568115,2025-03-14 10h55.14.638557 -0400,
119,119,0,filler_random,None,None,None,None,None,None,None,None,None,None,3,1.19730806350708,None,,,,,0,0,0,0,0,119,119,139,891.7912435531616,,,,,,,,,,,,,,,,,,,,,,,,,,,,,,,,,,,,,,,,,,,,,,,,,,,,,,,,,,,,,,,,,,,,,,,,,,,,,,,,,,144.1611042091001,121.05678422298132,113.9211749425148,128.50491047762011,187.99542751940535,140.84388404282078,3.0,3.1,-221,265,0,4,231,-258,891.7762081623077,891.7762899398804,891.7794034481049,891.7912435531616,891.9420878887177,891.9420878887177,891.9420878887177,891.9420878887177,891.9420878887177,891.9420878887177,891.9420878887177,892.9949433803558,3,1.19730806350708,None,,,,,,,,,,,,,,,,,,243,1,2025-03-14_10h55.06.370,comp,2024.2.4,57.165458428568115,2025-03-14 10h55.14.638557 -0400,
120,120,0,filler_random,None,None,None,None,None,None,None,None,None,None,3,0.9892547130584717,None,,,,,0,0,0,0,0,120,120,132,893.01633644104,,,,,,,,,,,,,,,,,,,,,,,,,,,,,,,,,,,,,,,,,,,,,,,,,,,,,,,,,,,,,,,,,,,,,,,,,,,,,,,,,,161.38558632293993,95.3459449237192,151.0632735310313,141.5603839442681,196.37232630860223,190.61720347578813,4.0,4.1,-214,-270,0,-12,262,-256,892.996901512146,892.9970376491547,893.0004189014435,893.01633644104,893.1608941555023,893.1608941555023,893.1608941555023,893.1608941555023,893.1608941555023,893.1608941555023,893.1608941555023,894.0101747512817,3,0.9892547130584717,None,,,,,,,,,,,,,,,,,,243,1,2025-03-14_10h55.06.370,comp,2024.2.4,57.165458428568115,2025-03-14 10h55.14.638557 -0400,
121,121,0,critical,dhw,35.0,4.0,lower,70.0,70.0,133.0,57.0,57.0,133.0,2,2.404179334640503,None,,,,,0,0,0,0,0,121,121,52,894.0243439674377,,,,,,,,,,,,,,,,,,,,,,,,,,,,,,,,,,,,,,,,,,,,,,,,,,,,,,,,,,,,,,,,,,,,,,,,,,,,,,,,,,70.0,70.0,133.0,57.0,57.0,133.0,4.0,4.1,-160,-277,0,-12,191,-258,894.0117259025574,894.0118086338043,894.0149447917938,894.0243439674377,894.1758980751038,894.1758980751038,894.1758980751038,894.1758980751038,894.1758980751038,894.1758980751038,894.1758980751038,896.4438655376434,2,2.404179334640503,None,,,,,,,,,,,,,,,,,,243,1,2025-03-14_10h55.06.370,comp,2024.2.4,57.165458428568115,2025-03-14 10h55.14.638557 -0400,
122,122,0,filler_square,None,None,None,None,None,None,None,None,None,None,1,1.145446538925171,None,,,,,0,0,0,0,0,122,122,179,896.4598138332367,,,,,,,,,,,,,,,,,,,,,,,,,,,,,,,,,,,,,,,,,,,,,,,,,,,,,,,,,,,,,,,,,,,,,,,,,,,,,,,,,,139.1230832312489,139.1230832312489,77.30407147268771,72.44767916639518,61.03455128278435,102.78192213444012,1.0,1.1,-682,277,-480,259,-296,254,896.4457108974457,896.4457890987396,896.4493417739868,896.4598138332367,896.6094105243683,896.6094105243683,896.6094105243683,896.6094105243683,896.6094105243683,896.6094105243683,896.6094105243683,897.6121170520782,1,1.145446538925171,None,,,,,,,,,,,,,,,,,,243,1,2025-03-14_10h55.06.370,comp,2024.2.4,57.165458428568115,2025-03-14 10h55.14.638557 -0400,
123,123,0,critical,wdh,35.0,4.0,lower,57.0,133.0,70.0,70.0,133.0,57.0,3,1.4002447128295898,None,,,,,0,0,0,0,0,123,123,76,897.6281678676605,,,,,,,,,,,,,,,,,,,,,,,,,,,,,,,,,,,,,,,,,,,,,,,,,,,,,,,,,,,,,,,,,,,,,,,,,,,,,,,,,,57.0,133.0,70.0,70.0,133.0,57.0,4.0,4.2,-198,12,0,-254,160,-10,897.613792181015,897.6139204502106,897.6174175739288,897.6281678676605,897.7762866020203,897.7762866020203,897.7762866020203,897.7762866020203,897.7762866020203,897.7762866020203,897.7762866020203,899.0532758235931,3,1.4002447128295898,None,,,,,,,,,,,,,,,,,,243,1,2025-03-14_10h55.06.370,comp,2024.2.4,57.165458428568115,2025-03-14 10h55.14.638557 -0400,
124,124,0,critical,dwh,35.0,4.0,upper,127.0,127.0,125.0,200.0,200.0,125.0,2,2.648789882659912,None,,,,,0,0,0,0,0,124,124,65,899.0690648555756,,,,,,,,,,,,,,,,,,,,,,,,,,,,,,,,,,,,,,,,,,,,,,,,,,,,,,,,,,,,,,,,,,,,,,,,,,,,,,,,,,127.0,127.0,125.0,200.0,200.0,125.0,4.0,4.1,-260,-286,0,8,258,-289,899.0548357963562,899.0549159049988,899.0577900409698,899.0690648555756,899.2117488384247,899.2117488384247,899.2117488384247,899.2117488384247,899.2117488384247,899.2117488384247,899.2117488384247,901.7204988002777,2,2.648789882659912,None,,,,,,,,,,,,,,,,,,243,1,2025-03-14_10h55.06.370,comp,2024.2.4,57.165458428568115,2025-03-14 10h55.14.638557 -0400,
125,125,0,catch,None,None,None,None,None,None,None,None,None,None,1,0.9913434982299805,None,,,,,0,0,0,0,0,125,125,125,901.7413642406464,,,,,,,,,,,,,,,,,,,,,,,,,,,,,,,,,,,,,,,,,,,,,,,,,,,,,,,,,,,,,,,,,,,,,,,,,,,,,,,,,,196,129,122,68,131,59,2.2,2.22,-194,252,0,-256,160,-281,901.7224407196045,901.7225208282471,901.7255113124847,901.7413642406464,901.8793525695801,901.8793525695801,901.8793525695801,901.8793525695801,901.8793525695801,901.8793525695801,901.8793525695801,902.7464625835419,1,0.9913434982299805,None,,,,,,,,,,,,,,,,,,243,1,2025-03-14_10h55.06.370,comp,2024.2.4,57.165458428568115,2025-03-14 10h55.14.638557 -0400,
126,126,0,filler_random,None,None,None,None,None,None,None,None,None,None,1,3.7790112495422363,None,,,,,0,0,0,0,0,126,126,149,902.7626514434814,,,,,,,,,,,,,,,,,,,,,,,,,,,,,,,,,,,,,,,,,,,,,,,,,,,,,,,,,,,,,,,,,,,,,,,,,,,,,,,,,,153.3547358372603,190.85941254984934,72.40355500423297,161.42848855353486,164.6676075088068,161.6169987130694,1.0,1.1,-752,283,-480,258,-222,271,902.7482161521912,902.7482945919037,902.7515354156494,902.7626514434814,902.9096155166626,902.9096155166626,902.9096155166626,902.9096155166626,902.9096155166626,902.9096155166626,902.9096155166626,906.5452916622162,1,3.7790112495422363,None,,,,,,,,,,,,,,,,,,243,1,2025-03-14_10h55.06.370,comp,2024.2.4,57.165458428568115,2025-03-14 10h55.14.638557 -0400,
127,127,0,critical,hwd,35.0,4.0,lower,133.0,57.0,57.0,133.0,70.0,70.0,3,13.17171573638916,None,,,,,0,0,0,0,0,127,127,100,906.561695098877,,,,,,,,,,,,,,,,,,,,,,,,,,,,,,,,,,,,,,,,,,,,,,,,,,,,,,,,,,,,,,,,,,,,,,,,,,,,,,,,,,133.0,57.0,57.0,133.0,70.0,70.0,4.0,4.2,-191,1,0,-264,198,15,906.5468919277191,906.547003030777,906.5504808425903,906.561695098877,906.7003924846649,906.7003924846649,906.7003924846649,906.7003924846649,906.7003924846649,906.7003924846649,906.7003924846649,919.7388150691986,3,13.17171573638916,None,,,,,,,,,,,,,,,,,,243,1,2025-03-14_10h55.06.370,comp,2024.2.4,57.165458428568115,2025-03-14 10h55.14.638557 -0400,
128,128,0,critical,whd,20.0,2.1,lower,57.0,133.0,133.0,57.0,78.0,78.0,2,3.8752224445343018,None,,,,,0,0,0,0,0,128,128,38,919.7532095909119,,,,,,,,,,,,,,,,,,,,,,,,,,,,,,,,,,,,,,,,,,,,,,,,,,,,,,,,,,,,,,,,,,,,,,,,,,,,,,,,,,57.0,133.0,133.0,57.0,78.0,78.0,2.1,2.12,-191,-282,0,-257,164,252,919.7404341697693,919.7405152320862,919.7435510158539,919.7532095909119,919.9011611938477,919.9011611938477,919.9011611938477,919.9011611938477,919.9011611938477,919.9011611938477,919.9011611938477,923.6470894813538,2,3.8752224445343018,None,,,,,,,,,,,,,,,,,,243,1,2025-03-14_10h55.06.370,comp,2024.2.4,57.165458428568115,2025-03-14 10h55.14.638557 -0400,
129,129,0,critical,wdh,20.0,2.1,lower,57.0,133.0,78.0,78.0,133.0,57.0,3,15.449875593185425,None,,,,,0,0,0,0,0,129,129,10,923.667368888855,,,,,,,,,,,,,,,,,,,,,,,,,,,,,,,,,,,,,,,,,,,,,,,,,,,,,,,,,,,,,,,,,,,,,,,,,,,,,,,,,,57.0,133.0,78.0,78.0,133.0,57.0,2.1,2.12,-202,-265,0,-253,164,277,923.6486685276031,923.64874792099,923.6520593166351,923.667368888855,923.8030366897583,923.8030366897583,923.8030366897583,923.8030366897583,923.8030366897583,923.8030366897583,923.8030366897583,939.123372554779,3,15.449875593185425,None,,,,,,,,,,,,,,,,,,243,1,2025-03-14_10h55.06.370,comp,2024.2.4,57.165458428568115,2025-03-14 10h55.14.638557 -0400,
130,130,0,critical,hwd,35.0,2.1,lower,133.0,57.0,57.0,133.0,70.0,70.0,1,1.8976759910583496,None,,,,,0,0,0,0,0,130,130,16,939.1394350528717,,,,,,,,,,,,,,,,,,,,,,,,,,,,,,,,,,,,,,,,,,,,,,,,,,,,,,,,,,,,,,,,,,,,,,,,,,,,,,,,,,133.0,57.0,57.0,133.0,70.0,70.0,2.1,2.11,-191,278,0,273,198,-285,939.1250150203705,939.1251356601715,939.1284985542297,939.1394350528717,939.2922480106354,939.2922480106354,939.2922480106354,939.2922480106354,939.2922480106354,939.2922480106354,939.2922480106354,941.0400154590607,1,1.8976759910583496,None,,,,,,,,,,,,,,,,,,243,1,2025-03-14_10h55.06.370,comp,2024.2.4,57.165458428568115,2025-03-14 10h55.14.638557 -0400,
131,131,0,critical,wdh,20.0,2.1,upper,125.0,200.0,141.0,141.0,200.0,125.0,1,2.3412024974823,None,,,,,0,0,0,0,0,131,131,11,941.0562906265259,,,,,,,,,,,,,,,,,,,,,,,,,,,,,,,,,,,,,,,,,,,,,,,,,,,,,,,,,,,,,,,,,,,,,,,,,,,,,,,,,,125.0,200.0,141.0,141.0,200.0,125.0,2.1,2.12,-266,-286,0,-277,229,255,941.041576385498,941.0416567325592,941.0445160865784,941.0562906265259,941.1923391819,941.1923391819,941.1923391819,941.1923391819,941.1923391819,941.1923391819,941.1923391819,943.4094531536102,1,2.3412024974823,None,,,,,,,,,,,,,,,,,,243,1,2025-03-14_10h55.06.370,comp,2024.2.4,57.165458428568115,2025-03-14 10h55.14.638557 -0400,
132,132,0,filler_square,None,None,None,None,None,None,None,None,None,None,2,1.425846815109253,None,,,,,0,0,0,0,0,132,132,171,943.427362203598,,,,,,,,,,,,,,,,,,,,,,,,,,,,,,,,,,,,,,,,,,,,,,,,,,,,,,,,,,,,,,,,,,,,,,,,,,,,,,,,,,136.38428324462132,147.94567792874676,73.0318992594405,77.12881873352408,170.1478659370577,170.1478659370577,2.1,2.11,-209,258,0,267,220,-256,943.4113602638245,943.4114422798157,943.414722442627,943.427362203598,943.5741186141968,943.5741186141968,943.5741186141968,943.5741186141968,943.5741186141968,943.5741186141968,943.5741186141968,944.8605999946594,2,1.425846815109253,None,,,,,,,,,,,,,,,,,,243,1,2025-03-14_10h55.06.370,comp,2024.2.4,57.165458428568115,2025-03-14 10h55.14.638557 -0400,
133,133,0,critical,dwh,35.0,1.0,lower,70.0,70.0,57.0,133.0,133.0,57.0,3,22.279913187026978,None,,,,,0,0,0,0,0,133,133,60,944.8768334388733,,,,,,,,,,,,,,,,,,,,,,,,,,,,,,,,,,,,,,,,,,,,,,,,,,,,,,,,,,,,,,,,,,,,,,,,,,,,,,,,,,70.0,70.0,57.0,133.0,133.0,57.0,1.0,1.2,-198,2,0,-1,191,8,944.8622741699219,944.8623616695404,944.8659150600433,944.8768334388733,945.0324201583862,945.0324201583862,945.0324201583862,945.0324201583862,945.0324201583862,945.0324201583862,945.0324201583862,967.159019947052,3,22.279913187026978,None,,,,,,,,,,,,,,,,,,243,1,2025-03-14_10h55.06.370,comp,2024.2.4,57.165458428568115,2025-03-14 10h55.14.638557 -0400,
134,134,0,filler_square,None,None,None,None,None,None,None,None,None,None,2,1.2126290798187256,None,,,,,0,0,0,0,0,134,134,205,967.1769814491272,,,,,,,,,,,,,,,,,,,,,,,,,,,,,,,,,,,,,,,,,,,,,,,,,,,,,,,,,,,,,,,,,,,,,,,,,,,,,,,,,,83.88892684659449,91.50412983298347,105.10989905560498,105.10989905560498,77.75372846977929,59.70978118037147,4.0,4.1,-194,-252,0,6,178,-269,967.1608407497406,967.1609210968018,967.1638038158417,967.1769814491272,967.3194017410278,967.3194017410278,967.3194017410278,967.3194017410278,967.3194017410278,967.3194017410278,967.3194017410278,968.4010715484619,2,1.2126290798187256,None,,,,,,,,,,,,,,,,,,243,1,2025-03-14_10h55.06.370,comp,2024.2.4,57.165458428568115,2025-03-14 10h55.14.638557 -0400,
135,135,0,critical,dwh,35.0,4.0,lower,70.0,70.0,57.0,133.0,133.0,57.0,3,4.802962779998779,None,,,,,0,0,0,0,0,135,135,64,968.4175691604614,,,,,,,,,,,,,,,,,,,,,,,,,,,,,,,,,,,,,,,,,,,,,,,,,,,,,,,,,,,,,,,,,,,,,,,,,,,,,,,,,,70.0,70.0,57.0,133.0,133.0,57.0,4.0,4.1,-198,-261,0,16,191,-269,968.4026505947113,968.402731180191,968.4068477153778,968.4175691604614,968.5661509037018,968.5661509037018,968.5661509037018,968.5661509037018,968.5661509037018,968.5661509037018,968.5661509037018,973.2360575199127,3,4.802962779998779,None,,,,,,,,,,,,,,,,,,243,1,2025-03-14_10h55.06.370,comp,2024.2.4,57.165458428568115,2025-03-14 10h55.14.638557 -0400,
136,136,0,critical,hdw,20.0,3.0,lower,133.0,57.0,78.0,78.0,57.0,133.0,1,13.32148289680481,None,,,,,0,0,0,0,0,136,136,116,973.2513065338135,,,,,,,,,,,,,,,,,,,,,,,,,,,,,,,,,,,,,,,,,,,,,,,,,,,,,,,,,,,,,,,,,,,,,,,,,,,,,,,,,,133.0,57.0,78.0,78.0,57.0,133.0,3.0,3.1,-164,254,0,-16,202,-261,973.2376267910004,973.2377078533173,973.2409296035767,973.2513065338135,973.3945562839508,973.3945562839508,973.3945562839508,973.3945562839508,973.3945562839508,973.3945562839508,973.3945562839508,986.590842962265,1,13.32148289680481,None,,,,,,,,,,,,,,,,,,243,1,2025-03-14_10h55.06.370,comp,2024.2.4,57.165458428568115,2025-03-14 10h55.14.638557 -0400,
137,137,0,critical,dwh,35.0,1.0,upper,127.0,127.0,125.0,200.0,200.0,125.0,3,7.414793968200684,None,,,,,0,0,0,0,0,137,137,61,986.606570482254,,,,,,,,,,,,,,,,,,,,,,,,,,,,,,,,,,,,,,,,,,,,,,,,,,,,,,,,,,,,,,,,,,,,,,,,,,,,,,,,,,127.0,127.0,125.0,200.0,200.0,125.0,1.0,1.2,-260,-1,0,-9,258,-4,986.5925896167755,986.5927278995514,986.5962755680084,986.606570482254,986.7555978298187,986.7555978298187,986.7555978298187,986.7555978298187,986.7555978298187,986.7555978298187,986.7555978298187,994.0258097648621,3,7.414793968200684,None,,,,,,,,,,,,,,,,,,243,1,2025-03-14_10h55.06.370,comp,2024.2.4,57.165458428568115,2025-03-14 10h55.14.638557 -0400,
138,138,0,filler_square,None,None,None,None,None,None,None,None,None,None,3,1.1884245872497559,None,,,,,0,0,0,0,0,138,138,185,994.040167093277,,,,,,,,,,,,,,,,,,,,,,,,,,,,,,,,,,,,,,,,,,,,,,,,,,,,,,,,,,,,,,,,,,,,,,,,,,,,,,,,,,110.70893120996021,107.1864870799925,115.07251041382281,70.72701819645948,148.76267696179247,148.76267696179247,2.2,2.22,-185,251,0,-280,206,-273,994.0277307033539,994.0278141498566,994.030867099762,994.040167093277,994.192620754242,994.192620754242,994.192620754242,994.192620754242,994.192620754242,994.192620754242,994.192620754242,995.2449460029602,3,1.1884245872497559,None,,,,,,,,,,,,,,,,,,243,1,2025-03-14_10h55.06.370,comp,2024.2.4,57.165458428568115,2025-03-14 10h55.14.638557 -0400,
139,139,0,filler_square,None,None,None,None,None,None,None,None,None,None,3,1.350860834121704,None,,,,,0,0,0,0,0,139,139,174,995.2618155479431,,,,,,,,,,,,,,,,,,,,,,,,,,,,,,,,,,,,,,,,,,,,,,,,,,,,,,,,,,,,,,,,,,,,,,,,,,,,,,,,,,117.28900004253947,155.243193135615,147.28600436454022,153.79062945102814,193.04989937185633,193.04989937185633,2.2,2.21,-251,-258,0,257,269,265,995.2471070289612,995.2471866607666,995.2505416870117,995.2618155479431,995.4094140529633,995.4094140529633,995.4094140529633,995.4094140529633,995.4094140529633,995.4094140529633,995.4094140529633,996.6270008087158,3,1.350860834121704,None,,,,,,,,,,,,,,,,,,243,1,2025-03-14_10h55.06.370,comp,2024.2.4,57.165458428568115,2025-03-14 10h55.14.638557 -0400,
140,140,0,filler_random,None,None,None,None,None,None,None,None,None,None,2,1.7772672176361084,None,,,,,0,0,0,0,0,140,140,144,996.6437857151031,,,,,,,,,,,,,,,,,,,,,,,,,,,,,,,,,,,,,,,,,,,,,,,,,,,,,,,,,,,,,,,,,,,,,,,,,,,,,,,,,,111.91972162025004,78.08861731786583,155.52245520170436,57.59208360313244,197.3475480311684,71.00960461700114,2.1,2.12,-164,-284,0,-287,160,256,996.6289212703705,996.6290364265442,996.6325359344482,996.6437857151031,996.7925636768341,996.7925636768341,996.7925636768341,996.7925636768341,996.7925636768341,996.7925636768341,996.7925636768341,998.4250917434692,2,1.7772672176361084,None,,,,,,,,,,,,,,,,,,243,1,2025-03-14_10h55.06.370,comp,2024.2.4,57.165458428568115,2025-03-14 10h55.14.638557 -0400,
