thisN,thisTrialN,thisRepN,effect,order,distance,config,diag,h_1,w_1,h_2,w_2,h_3,w_3,rect_choice.keys,rect_choice.rt,rect_choice.duration,instructions_loop.thisRepN,instructions_loop.thisTrialN,instructions_loop.thisN,instructions_loop.thisIndex,blocks.thisRepN,blocks.thisTrialN,blocks.thisN,blocks.thisIndex,trials.thisRepN,trials.thisTrialN,trials.thisN,trials.thisIndex,thisRow.t,notes,consent.started,agree_button.started,decline_button.started,consent_img.started,mouse.started,consent.stopped,agree_button.numClicks,agree_button.timesOn,agree_button.timesOff,decline_button.numClicks,decline_button.timesOn,decline_button.timesOff,mouse.x,mouse.y,mouse.leftButton,mouse.midButton,mouse.rightButton,mouse.time,mouse.clicked_name,exp_params.started,exp_params.stopped,welcome.started,welcome_text.started,welcome.stopped,instructions_1.started,instructions_1_text_1.started,instructions_1_text_2.started,key_resp.started,instructions_1.stopped,instructions_loop.key_resp.keys,instructions_loop.key_resp.rt,instructions_loop.key_resp.duration,instructions_2.started,instructions_2_text_1.started,instructions_2_text_2.started,key_resp_2.started,instructions_2.stopped,instructions_loop.key_resp_2.keys,instructions_loop.key_resp_2.rt,instructions_loop.key_resp_2.duration,instructions_3.started,instructions_3_text_1.started,r1_instr3.started,r2_instr3.started,r3_instr3.started,r1_instr3_label.started,r2_instr3_label.started,r3_instr3_label.started,instructions_3_text_3.started,instructions_3_text_4.started,key_resp_3.started,instructions_3.stopped,instructions_loop.key_resp_3.keys,instructions_loop.key_resp_3.rt,instructions_loop.key_resp_3.duration,instructions_4.started,instructions_4_text_1.started,instructions_4_text_3.started,instructions_4_text_2.started,key_resp_4.started,instructions_4.stopped,instructions_loop.key_resp_4.keys,instructions_loop.key_resp_4.rt,instructions_loop.key_resp_4.duration,instructions_5.started,instructions_5_text_1.started,instructions_5_text_2.started,key_resp_5.started,instructions_5.stopped,instructions_loop.key_resp_5.keys,instructions_loop.key_resp_5.rt,instructions_loop.key_resp_5.duration,start_exp.started,start_exp_text.started,key_resp_6.started,start_exp.stopped,key_resp_6.keys,key_resp_6.rt,key_resp_6.duration,h_1_tmp,w_1_tmp,h_2_tmp,w_2_tmp,h_3_tmp,w_3_tmp,config_tmp,config_tmp_1,r_1_x,r_1_y,r_2_x,r_2_y,r_3_x,r_3_y,pre_trial.started,pre_trial.stopped,choice_trial.started,rect_choice.started,r_1.started,r_2.started,r_3.started,r_1_label.started,r_2_label.started,r_3_label.started,prompt.started,choice_trial.stopped,trials.rect_choice.keys,trials.rect_choice.rt,trials.rect_choice.duration,end_block.started,end_block_text.started,end_block.stopped,end.started,end_text.started,key_resp_7.started,end.stopped,key_resp_7.keys,key_resp_7.rt,key_resp_7.duration,debriefing.started,debrief_form.started,end_debrief.started,debriefing.stopped,end_debrief.keys,end_debrief.rt,end_debrief.duration,participant,computer,date,expName,psychopyVersion,frameRate,expStart,
,,,,,,,,,,,,,,,,,,,,,,,,,,,,,,,0.01480412483215332,0.03934049606323242,0.03934049606323242,0.03934049606323242,0.014600515365600586,41.89412975311279,1,[41.85243821144104],[41.85245895385742],0,,,"[-95.0, -47.0]","[59.0, -506.0]","[1, 1]","[0, 0]","[0, 0]","[34.05424928665161, 41.878724813461304]","[None, 'agree_button']",,,,,,,,,,,,,,,,,,,,,,,,,,,,,,,,,,,,,,,,,,,,,,,,,,,,,,,,,,,,,,,,,,,,,,,,,,,,,,,,,,,,,,,,,,,,,,,,,,,,,,,,,,,24,4,2025-02-18_16h05.23.224,comp,2024.2.4,58.04196597719727,2025-02-18 16h05.35.515796 -0500,
,,,,,,,,,,,,,,,,,,,,,,,,,,,,,,,,,,,,,,,,,,,,,,,,,,41.89469528198242,41.89476561546326,,,,,,,,,,,,,,,,,,,,,,,,,,,,,,,,,,,,,,,,,,,,,,,,,,,,,,,,,,,,,,,,,,,,,,,,,,,,,,,,,,,,,,,,,,,,,,,,,,,,,,,,,24,4,2025-02-18_16h05.23.224,comp,2024.2.4,58.04196597719727,2025-02-18 16h05.35.515796 -0500,
,,,,,,,,,,,,,,,,,,,,,,,,,,,,,,,,,,,,,,,,,,,,,,,,,,,,41.89483332633972,41.90845251083374,43.90748620033264,,,,,,,,,,,,,,,,,,,,,,,,,,,,,,,,,,,,,,,,,,,,,,,,,,,,,,,,,,,,,,,,,,,,,,,,,,,,,,,,,,,,,,,,,,,,,,,,,,,,,,24,4,2025-02-18_16h05.23.224,comp,2024.2.4,58.04196597719727,2025-02-18 16h05.35.515796 -0500,
0,0,0,,,,,,,,,,,,,,,0,0,0,0,,,,,,,,,43.92401933670044,,,,,,,,,,,,,,,,,,,,,,,,,,43.908369302749634,43.92401933670044,43.92401933670044,45.406752586364746,48.66237282752991,space,3.2343876361846924,None,48.6625235080719,48.677390813827515,48.677390813827515,50.17310690879822,56.34635019302368,space,6.155516624450684,None,56.34649682044983,56.37621212005615,56.37621212005615,56.37621212005615,56.37621212005615,56.37621212005615,56.37621212005615,56.37621212005615,56.37621212005615,56.37621212005615,57.847286224365234,65.68529462814331,space,7.824909925460815,None,65.68545317649841,65.7015438079834,65.7015438079834,65.7015438079834,67.19842314720154,73.43537592887878,space,6.226324081420898,None,73.43553185462952,73.4503493309021,73.4503493309021,74.93515729904175,76.88584017753601,space,1.9456400871276855,None,76.8860411643982,76.90151000022888,76.90151000022888,78.38603925704956,space,1.4752910137176514,None,,,,,,,,,,,,,,,,,,,,,,,,,,,,,,,,,,,,,,,,,,,,,,,24,4,2025-02-18_16h05.23.224,comp,2024.2.4,58.04196597719727,2025-02-18 16h05.35.515796 -0500,
0,0,0,critical,hwd,35.0,2.1,lower,133.0,57.0,57.0,133.0,70.0,70.0,2,10.556224346160889,None,,,,,0,0,0,0,0,0,0,16,78.46077609062195,,,,,,,,,,,,,,,,,,,,,,,,,,,,,,,,,,,,,,,,,,,,,,,,,,,,,,,,,,,,,,,,,,,,,,,,,,,,,,,,,133.0,57.0,57.0,133.0,70.0,70.0,2.1,2.12,-191,-276,0,-262,198,265,78.44382643699646,78.44387602806091,78.44564628601074,78.46077609062195,78.6110246181488,78.6110246181488,78.6110246181488,78.6110246181488,78.6110246181488,78.6110246181488,78.6110246181488,89.02180027961731,2,10.556224346160889,None,,,,,,,,,,,,,,,,,,24,4,2025-02-18_16h05.23.224,comp,2024.2.4,58.04196597719727,2025-02-18 16h05.35.515796 -0500,
1,1,0,filler_random,None,None,None,None,None,None,None,None,None,None,3,6.994558095932007,None,,,,,0,0,0,0,0,1,1,153,89.0378110408783,,,,,,,,,,,,,,,,,,,,,,,,,,,,,,,,,,,,,,,,,,,,,,,,,,,,,,,,,,,,,,,,,,,,,,,,,,,,,,,,,100.92576633122923,197.06506602044382,99.7082607247635,89.85623866313847,147.31291053750058,181.99400375194384,2.1,2.12,-239,-256,0,-283,232,284,89.02349472045898,89.02357316017151,89.02668380737305,89.0378110408783,89.19288539886475,89.19288539886475,89.19288539886475,89.19288539886475,89.19288539886475,89.19288539886475,89.19288539886475,96.0512809753418,3,6.994558095932007,None,,,,,,,,,,,,,,,,,,24,4,2025-02-18_16h05.23.224,comp,2024.2.4,58.04196597719727,2025-02-18 16h05.35.515796 -0500,
2,2,0,critical,wdh,20.0,3.0,upper,125.0,200.0,141.0,141.0,200.0,125.0,1,7.476303577423096,None,,,,,0,0,0,0,0,2,2,81,96.06841278076172,,,,,,,,,,,,,,,,,,,,,,,,,,,,,,,,,,,,,,,,,,,,,,,,,,,,,,,,,,,,,,,,,,,,,,,,,,,,,,,,,125.0,200.0,141.0,141.0,200.0,125.0,3.0,3.1,-266,288,0,-18,229,-288,96.0528495311737,96.0529248714447,96.05584907531738,96.06841278076172,96.20955920219421,96.20955920219421,96.20955920219421,96.20955920219421,96.20955920219421,96.20955920219421,96.20955920219421,103.56507134437561,1,7.476303577423096,None,,,,,,,,,,,,,,,,,,24,4,2025-02-18_16h05.23.224,comp,2024.2.4,58.04196597719727,2025-02-18 16h05.35.515796 -0500,
3,3,0,critical,whd,35.0,1.0,lower,57.0,133.0,133.0,57.0,70.0,70.0,2,5.3404436111450195,None,,,,,0,0,0,0,0,3,3,84,103.5803484916687,,,,,,,,,,,,,,,,,,,,,,,,,,,,,,,,,,,,,,,,,,,,,,,,,,,,,,,,,,,,,,,,,,,,,,,,,,,,,,,,,57.0,133.0,133.0,57.0,70.0,70.0,1.0,1.2,-191,11,0,13,160,-4,103.5668134689331,103.56689596176147,103.57002377510071,103.5803484916687,103.72670030593872,103.72670030593872,103.72670030593872,103.72670030593872,103.72670030593872,103.72670030593872,103.72670030593872,108.93125677108765,2,5.3404436111450195,None,,,,,,,,,,,,,,,,,,24,4,2025-02-18_16h05.23.224,comp,2024.2.4,58.04196597719727,2025-02-18 16h05.35.515796 -0500,
4,4,0,filler_square,None,None,None,None,None,None,None,None,None,None,1,5.362430810928345,None,,,,,0,0,0,0,0,4,4,175,108.94985604286194,,,,,,,,,,,,,,,,,,,,,,,,,,,,,,,,,,,,,,,,,,,,,,,,,,,,,,,,,,,,,,,,,,,,,,,,,,,,,,,,,78.27168247532222,78.27168247532222,57.367637490088796,59.363893598045856,75.62811145509559,74.6339370248549,2.1,2.11,-165,252,0,253,163,-277,108.93320202827454,108.93328428268433,108.93639874458313,108.94985604286194,109.09576416015625,109.09576416015625,109.09576416015625,109.09576416015625,109.09576416015625,109.09576416015625,109.09576416015625,114.31798028945923,1,5.362430810928345,None,,,,,,,,,,,,,,,,,,24,4,2025-02-18_16h05.23.224,comp,2024.2.4,58.04196597719727,2025-02-18 16h05.35.515796 -0500,
5,5,0,critical,whd,20.0,2.1,upper,125.0,200.0,200.0,125.0,141.0,141.0,2,4.695976734161377,None,,,,,0,0,0,0,0,5,5,39,114.33642292022705,,,,,,,,,,,,,,,,,,,,,,,,,,,,,,,,,,,,,,,,,,,,,,,,,,,,,,,,,,,,,,,,,,,,,,,,,,,,,,,,,125.0,200.0,200.0,125.0,141.0,141.0,2.1,2.11,-258,276,0,272,229,-252,114.31970024108887,114.3198139667511,114.32325649261475,114.33642292022705,114.48080849647522,114.48080849647522,114.48080849647522,114.48080849647522,114.48080849647522,114.48080849647522,114.48080849647522,119.03554344177246,2,4.695976734161377,None,,,,,,,,,,,,,,,,,,24,4,2025-02-18_16h05.23.224,comp,2024.2.4,58.04196597719727,2025-02-18 16h05.35.515796 -0500,
6,6,0,critical,whd,20.0,2.1,upper,125.0,200.0,200.0,125.0,141.0,141.0,2,6.314201831817627,None,,,,,0,0,0,0,0,6,6,15,119.05404090881348,,,,,,,,,,,,,,,,,,,,,,,,,,,,,,,,,,,,,,,,,,,,,,,,,,,,,,,,,,,,,,,,,,,,,,,,,,,,,,,,,125.0,200.0,200.0,125.0,141.0,141.0,2.1,2.12,-258,-279,0,-258,229,285,119.03726506233215,119.03739905357361,119.04091429710388,119.05404090881348,119.20327663421631,119.20327663421631,119.20327663421631,119.20327663421631,119.20327663421631,119.20327663421631,119.20327663421631,125.38362455368042,2,6.314201831817627,None,,,,,,,,,,,,,,,,,,24,4,2025-02-18_16h05.23.224,comp,2024.2.4,58.04196597719727,2025-02-18 16h05.35.515796 -0500,
7,7,0,critical,dhw,20.0,1.0,lower,78.0,78.0,133.0,57.0,57.0,133.0,2,2.87060546875,None,,,,,0,0,0,0,0,7,7,54,125.4018177986145,,,,,,,,,,,,,,,,,,,,,,,,,,,,,,,,,,,,,,,,,,,,,,,,,,,,,,,,,,,,,,,,,,,,,,,,,,,,,,,,,78.0,78.0,133.0,57.0,57.0,133.0,1.0,1.3,316,-273,480,-273,671,-260,125.38520121574402,125.38528108596802,125.38831496238708,125.4018177986145,125.54984879493713,125.54984879493713,125.54984879493713,125.54984879493713,125.54984879493713,125.54984879493713,125.54984879493713,128.27538442611694,2,2.87060546875,None,,,,,,,,,,,,,,,,,,24,4,2025-02-18_16h05.23.224,comp,2024.2.4,58.04196597719727,2025-02-18 16h05.35.515796 -0500,
8,8,0,critical,whd,35.0,2.1,upper,125.0,200.0,200.0,125.0,127.0,127.0,2,5.544295310974121,None,,,,,0,0,0,0,0,8,8,37,128.29601335525513,,,,,,,,,,,,,,,,,,,,,,,,,,,,,,,,,,,,,,,,,,,,,,,,,,,,,,,,,,,,,,,,,,,,,,,,,,,,,,,,,125.0,200.0,200.0,125.0,127.0,127.0,2.1,2.12,-258,-282,0,-280,222,275,128.27706503868103,128.27718877792358,128.28054404258728,128.29601335525513,128.43509697914124,128.43509697914124,128.43509697914124,128.43509697914124,128.43509697914124,128.43509697914124,128.43509697914124,133.85389590263367,2,5.544295310974121,None,,,,,,,,,,,,,,,,,,24,4,2025-02-18_16h05.23.224,comp,2024.2.4,58.04196597719727,2025-02-18 16h05.35.515796 -0500,
9,9,0,filler_square,None,None,None,None,None,None,None,None,None,None,2,4.5141260623931885,None,,,,,0,0,0,0,0,9,9,206,133.87001371383667,,,,,,,,,,,,,,,,,,,,,,,,,,,,,,,,,,,,,,,,,,,,,,,,,,,,,,,,,,,,,,,,,,,,,,,,,,,,,,,,,63.834724234740136,64.51020762699424,131.62784440478185,131.62784440478185,81.38774746213585,102.80213295243237,2.1,2.11,-194,255,0,251,213,-284,133.8560311794281,133.85611057281494,133.85977435112,133.87001371383667,134.0197048187256,134.0197048187256,134.0197048187256,134.0197048187256,134.0197048187256,134.0197048187256,134.0197048187256,138.393949508667,2,4.5141260623931885,None,,,,,,,,,,,,,,,,,,24,4,2025-02-18_16h05.23.224,comp,2024.2.4,58.04196597719727,2025-02-18 16h05.35.515796 -0500,
10,10,0,filler_random,None,None,None,None,None,None,None,None,None,None,1,3.3904192447662354,None,,,,,0,0,0,0,0,10,10,165,138.4101758003235,,,,,,,,,,,,,,,,,,,,,,,,,,,,,,,,,,,,,,,,,,,,,,,,,,,,,,,,,,,,,,,,,,,,,,,,,,,,,,,,,165.13277440580924,133.07526758126008,90.57297075035936,141.41138463214958,108.18889537556046,149.05499657120419,2.1,2.11,-233,252,0,273,241,-266,138.39574337005615,138.39582324028015,138.3987832069397,138.4101758003235,138.5569884777069,138.5569884777069,138.5569884777069,138.5569884777069,138.5569884777069,138.5569884777069,138.5569884777069,141.804612159729,1,3.3904192447662354,None,,,,,,,,,,,,,,,,,,24,4,2025-02-18_16h05.23.224,comp,2024.2.4,58.04196597719727,2025-02-18 16h05.35.515796 -0500,
11,11,0,filler_random,None,None,None,None,None,None,None,None,None,None,1,4.075411558151245,None,,,,,0,0,0,0,0,11,11,135,141.8207790851593,,,,,,,,,,,,,,,,,,,,,,,,,,,,,,,,,,,,,,,,,,,,,,,,,,,,,,,,,,,,,,,,,,,,,,,,,,,,,,,,,141.80653051854864,149.93645366186195,64.36430000696984,135.6027298733469,95.29420810193632,160.55025781124056,4.0,4.2,-239,-14,0,-288,244,-9,141.80514001846313,141.80516028404236,141.80596351623535,141.8207790851593,141.9740924835205,141.9740924835205,141.9740924835205,141.9740924835205,141.9740924835205,141.9740924835205,141.9740924835205,145.89839029312134,1,4.075411558151245,None,,,,,,,,,,,,,,,,,,24,4,2025-02-18_16h05.23.224,comp,2024.2.4,58.04196597719727,2025-02-18 16h05.35.515796 -0500,
12,12,0,critical,dwh,35.0,3.0,lower,70.0,70.0,57.0,133.0,133.0,57.0,3,9.124210357666016,None,,,,,0,0,0,0,0,12,12,62,145.91647601127625,,,,,,,,,,,,,,,,,,,,,,,,,,,,,,,,,,,,,,,,,,,,,,,,,,,,,,,,,,,,,,,,,,,,,,,,,,,,,,,,,70.0,70.0,57.0,133.0,133.0,57.0,3.0,3.1,-198,288,0,-10,191,-284,145.9000186920166,145.90009546279907,145.90336871147156,145.91647601127625,146.05732822418213,146.05732822418213,146.05732822418213,146.05732822418213,146.05732822418213,146.05732822418213,146.05732822418213,155.04612612724304,3,9.124210357666016,None,,,,,,,,,,,,,,,,,,24,4,2025-02-18_16h05.23.224,comp,2024.2.4,58.04196597719727,2025-02-18 16h05.35.515796 -0500,
13,13,0,filler_square,None,None,None,None,None,None,None,None,None,None,1,6.874426603317261,None,,,,,0,0,0,0,0,13,13,201,155.06274580955505,,,,,,,,,,,,,,,,,,,,,,,,,,,,,,,,,,,,,,,,,,,,,,,,,,,,,,,,,,,,,,,,,,,,,,,,,,,,,,,,,104.54706529033078,104.54706529033078,77.34336184117183,90.75771106522944,98.00390152057045,67.98619911492143,1.0,1.1,-674,279,-480,267,-305,271,155.04822301864624,155.0483043193817,155.0519187450409,155.06274580955505,155.20954132080078,155.20954132080078,155.20954132080078,155.20954132080078,155.20954132080078,155.20954132080078,155.20954132080078,161.944091796875,1,6.874426603317261,None,,,,,,,,,,,,,,,,,,24,4,2025-02-18_16h05.23.224,comp,2024.2.4,58.04196597719727,2025-02-18 16h05.35.515796 -0500,
14,14,0,filler_random,None,None,None,None,None,None,None,None,None,None,1,16.57490372657776,None,,,,,0,0,0,0,0,14,14,154,161.96130752563477,,,,,,,,,,,,,,,,,,,,,,,,,,,,,,,,,,,,,,,,,,,,,,,,,,,,,,,,,,,,,,,,,,,,,,,,,,,,,,,,,189.15567236843023,167.5445977747916,129.7780843866488,97.58432591043334,154.21525814138823,191.5101808853185,2.1,2.12,-229,-289,0,-265,241,250,161.94591808319092,161.94605016708374,161.94932508468628,161.96130752563477,162.11740016937256,162.11740016937256,162.11740016937256,162.11740016937256,162.11740016937256,162.11740016937256,162.11740016937256,178.5501790046692,1,16.57490372657776,None,,,,,,,,,,,,,,,,,,24,4,2025-02-18_16h05.23.224,comp,2024.2.4,58.04196597719727,2025-02-18 16h05.35.515796 -0500,
15,15,0,critical,hwd,20.0,4.0,upper,200.0,125.0,125.0,200.0,141.0,141.0,2,4.154187202453613,None,,,,,0,0,0,0,0,15,15,107,178.56607270240784,,,,,,,,,,,,,,,,,,,,,,,,,,,,,,,,,,,,,,,,,,,,,,,,,,,,,,,,,,,,,,,,,,,,,,,,,,,,,,,,,200.0,125.0,125.0,200.0,141.0,141.0,4.0,4.1,-258,-281,0,-2,266,-284,178.55175518989563,178.55183482170105,178.55493927001953,178.56607270240784,178.71947407722473,178.71947407722473,178.71947407722473,178.71947407722473,178.71947407722473,178.71947407722473,178.71947407722473,182.73799681663513,2,4.154187202453613,None,,,,,,,,,,,,,,,,,,24,4,2025-02-18_16h05.23.224,comp,2024.2.4,58.04196597719727,2025-02-18 16h05.35.515796 -0500,
16,16,0,filler_random,None,None,None,None,None,None,None,None,None,None,2,3.8505823612213135,None,,,,,0,0,0,0,0,16,16,157,182.75758695602417,,,,,,,,,,,,,,,,,,,,,,,,,,,,,,,,,,,,,,,,,,,,,,,,,,,,,,,,,,,,,,,,,,,,,,,,,,,,,,,,,101.05209224169133,63.913473856149096,82.4671544357917,187.1831762998371,132.99077235037382,122.88712602922139,2.1,2.12,-222,-288,0,-260,251,283,182.73993253707886,182.74006843566895,182.74342942237854,182.75758695602417,182.90176439285278,182.90176439285278,182.90176439285278,182.90176439285278,182.90176439285278,182.90176439285278,182.90176439285278,186.62245106697083,2,3.8505823612213135,None,,,,,,,,,,,,,,,,,,24,4,2025-02-18_16h05.23.224,comp,2024.2.4,58.04196597719727,2025-02-18 16h05.35.515796 -0500,
17,17,0,critical,hdw,20.0,1.0,upper,200.0,125.0,141.0,141.0,125.0,200.0,3,3.1300134658813477,None,,,,,0,0,0,0,0,17,17,115,186.63842821121216,,,,,,,,,,,,,,,,,,,,,,,,,,,,,,,,,,,,,,,,,,,,,,,,,,,,,,,,,,,,,,,,,,,,,,,,,,,,,,,,,200.0,125.0,141.0,141.0,125.0,200.0,1.0,1.2,-229,1,0,-12,266,10,186.62426471710205,186.6243917942047,186.62817001342773,186.63842821121216,186.78486967086792,186.78486967086792,186.78486967086792,186.78486967086792,186.78486967086792,186.78486967086792,186.78486967086792,189.7735767364502,3,3.1300134658813477,None,,,,,,,,,,,,,,,,,,24,4,2025-02-18_16h05.23.224,comp,2024.2.4,58.04196597719727,2025-02-18 16h05.35.515796 -0500,
18,18,0,filler_square,None,None,None,None,None,None,None,None,None,None,3,8.314704179763794,None,,,,,0,0,0,0,0,18,18,207,189.78983116149902,,,,,,,,,,,,,,,,,,,,,,,,,,,,,,,,,,,,,,,,,,,,,,,,,,,,,,,,,,,,,,,,,,,,,,,,,,,,,,,,,60.31840206690818,60.31840206690818,60.192081803179775,58.26778493924883,57.13897049978669,58.87199493081865,3.0,3.2,-155,-282,0,-6,155,257,189.7755002975464,189.7755787372589,189.77912783622742,189.78983116149902,189.9361276626587,189.9361276626587,189.9361276626587,189.9361276626587,189.9361276626587,189.9361276626587,189.9361276626587,198.12616276741028,3,8.314704179763794,None,,,,,,,,,,,,,,,,,,24,4,2025-02-18_16h05.23.224,comp,2024.2.4,58.04196597719727,2025-02-18 16h05.35.515796 -0500,
19,19,0,critical,whd,20.0,4.0,upper,125.0,200.0,200.0,125.0,141.0,141.0,1,6.595817804336548,None,,,,,0,0,0,0,0,19,19,95,198.141521692276,,,,,,,,,,,,,,,,,,,,,,,,,,,,,,,,,,,,,,,,,,,,,,,,,,,,,,,,,,,,,,,,,,,,,,,,,,,,,,,,,125.0,200.0,200.0,125.0,141.0,141.0,4.0,4.2,-258,5,0,-289,229,5,198.12786483764648,198.1279444694519,198.13110661506653,198.141521692276,198.2913212776184,198.2913212776184,198.2913212776184,198.2913212776184,198.2913212776184,198.2913212776184,198.2913212776184,204.74597883224487,1,6.595817804336548,None,,,,,,,,,,,,,,,,,,24,4,2025-02-18_16h05.23.224,comp,2024.2.4,58.04196597719727,2025-02-18 16h05.35.515796 -0500,
20,20,0,critical,hwd,20.0,3.0,upper,200.0,125.0,125.0,200.0,141.0,141.0,2,3.3555798530578613,None,,,,,0,0,0,0,0,20,20,105,204.7655909061432,,,,,,,,,,,,,,,,,,,,,,,,,,,,,,,,,,,,,,,,,,,,,,,,,,,,,,,,,,,,,,,,,,,,,,,,,,,,,,,,,200.0,125.0,125.0,200.0,141.0,141.0,3.0,3.1,-258,276,0,-2,266,-279,204.74761128425598,204.7477161884308,204.75110912322998,204.7655909061432,204.90969562530518,204.90969562530518,204.90969562530518,204.90969562530518,204.90969562530518,204.90969562530518,204.90969562530518,208.12902998924255,2,3.3555798530578613,None,,,,,,,,,,,,,,,,,,24,4,2025-02-18_16h05.23.224,comp,2024.2.4,58.04196597719727,2025-02-18 16h05.35.515796 -0500,
21,21,0,critical,wdh,20.0,2.1,lower,57.0,133.0,78.0,78.0,133.0,57.0,3,2.9828920364379883,None,,,,,0,0,0,0,0,21,21,34,208.14524126052856,,,,,,,,,,,,,,,,,,,,,,,,,,,,,,,,,,,,,,,,,,,,,,,,,,,,,,,,,,,,,,,,,,,,,,,,,,,,,,,,,57.0,133.0,78.0,78.0,133.0,57.0,2.1,2.12,-202,-268,0,-267,164,273,208.13075184822083,208.13086342811584,208.13439416885376,208.14524126052856,208.29397416114807,208.29397416114807,208.29397416114807,208.29397416114807,208.29397416114807,208.29397416114807,208.29397416114807,211.14376401901245,3,2.9828920364379883,None,,,,,,,,,,,,,,,,,,24,4,2025-02-18_16h05.23.224,comp,2024.2.4,58.04196597719727,2025-02-18 16h05.35.515796 -0500,
22,22,0,critical,wdh,35.0,3.0,upper,125.0,200.0,127.0,127.0,200.0,125.0,3,6.052640199661255,None,,,,,0,0,0,0,0,22,22,75,211.16383504867554,,,,,,,,,,,,,,,,,,,,,,,,,,,,,,,,,,,,,,,,,,,,,,,,,,,,,,,,,,,,,,,,,,,,,,,,,,,,,,,,,125.0,200.0,127.0,127.0,200.0,125.0,3.0,3.1,-260,270,0,-15,222,-277,211.14534735679626,211.14544820785522,211.14891958236694,211.16383504867554,211.311594247818,211.311594247818,211.311594247818,211.311594247818,211.311594247818,211.311594247818,211.311594247818,217.2290859222412,3,6.052640199661255,None,,,,,,,,,,,,,,,,,,24,4,2025-02-18_16h05.23.224,comp,2024.2.4,58.04196597719727,2025-02-18 16h05.35.515796 -0500,
23,23,0,critical,hwd,35.0,2.1,lower,133.0,57.0,57.0,133.0,70.0,70.0,1,7.299265384674072,None,,,,,0,0,0,0,0,23,23,40,217.24518513679504,,,,,,,,,,,,,,,,,,,,,,,,,,,,,,,,,,,,,,,,,,,,,,,,,,,,,,,,,,,,,,,,,,,,,,,,,,,,,,,,,133.0,57.0,57.0,133.0,70.0,70.0,2.1,2.11,-191,277,0,264,198,-267,217.23059105873108,217.23068809509277,217.2338888645172,217.24518513679504,217.40555930137634,217.40555930137634,217.40555930137634,217.40555930137634,217.40555930137634,217.40555930137634,217.40555930137634,224.5490756034851,1,7.299265384674072,None,,,,,,,,,,,,,,,,,,24,4,2025-02-18_16h05.23.224,comp,2024.2.4,58.04196597719727,2025-02-18 16h05.35.515796 -0500,
24,24,0,critical,dhw,35.0,3.0,lower,70.0,70.0,133.0,57.0,57.0,133.0,3,3.3710906505584717,None,,,,,0,0,0,0,0,24,24,50,224.56517362594604,,,,,,,,,,,,,,,,,,,,,,,,,,,,,,,,,,,,,,,,,,,,,,,,,,,,,,,,,,,,,,,,,,,,,,,,,,,,,,,,,70.0,70.0,133.0,57.0,57.0,133.0,3.0,3.1,-160,276,0,3,191,-263,224.55069088935852,224.5507731437683,224.5543029308319,224.56517362594604,224.7248592376709,224.7248592376709,224.7248592376709,224.7248592376709,224.7248592376709,224.7248592376709,224.7248592376709,227.94939804077148,3,3.3710906505584717,None,,,,,,,,,,,,,,,,,,24,4,2025-02-18_16h05.23.224,comp,2024.2.4,58.04196597719727,2025-02-18 16h05.35.515796 -0500,
25,25,0,filler_square,None,None,None,None,None,None,None,None,None,None,2,3.670234203338623,None,,,,,0,0,0,0,0,25,25,183,227.97017550468445,,,,,,,,,,,,,,,,,,,,,,,,,,,,,,,,,,,,,,,,,,,,,,,,,,,,,,,,,,,,,,,,,,,,,,,,,,,,,,,,,73.0910182246252,58.43540929490242,79.46477530233398,79.46477530233398,69.29311960869438,71.10345273528013,2.1,2.11,-165,262,0,255,171,-260,227.9514365196228,227.9515142440796,227.95490431785583,227.97017550468445,228.11687421798706,228.11687421798706,228.11687421798706,228.11687421798706,228.11687421798706,228.11687421798706,228.11687421798706,231.65180087089539,2,3.670234203338623,None,,,,,,,,,,,,,,,,,,24,4,2025-02-18_16h05.23.224,comp,2024.2.4,58.04196597719727,2025-02-18 16h05.35.515796 -0500,
26,26,0,filler_random,None,None,None,None,None,None,None,None,None,None,3,6.996479511260986,None,,,,,0,0,0,0,0,26,26,166,231.66984272003174,,,,,,,,,,,,,,,,,,,,,,,,,,,,,,,,,,,,,,,,,,,,,,,,,,,,,,,,,,,,,,,,,,,,,,,,,,,,,,,,,164.84657270482217,114.44422085419494,169.8754137929879,74.70258740606464,194.40516048228272,134.03573298185688,3.0,3.1,-191,276,0,15,200,-266,231.65353178977966,231.6536819934845,231.656724691391,231.66984272003174,231.81709384918213,231.81709384918213,231.81709384918213,231.81709384918213,231.81709384918213,231.81709384918213,231.81709384918213,238.66883754730225,3,6.996479511260986,None,,,,,,,,,,,,,,,,,,24,4,2025-02-18_16h05.23.224,comp,2024.2.4,58.04196597719727,2025-02-18 16h05.35.515796 -0500,
27,27,0,filler_random,None,None,None,None,None,None,None,None,None,None,1,2.6070685386657715,None,,,,,0,0,0,0,0,27,27,147,238.68918895721436,,,,,,,,,,,,,,,,,,,,,,,,,,,,,,,,,,,,,,,,,,,,,,,,,,,,,,,,,,,,,,,,,,,,,,,,,,,,,,,,,86.60185513310633,178.94689897702852,111.69366547893173,129.22649169380455,78.25597674512224,59.621385807084124,2.2,2.22,-250,251,0,-278,190,-262,238.67061066627502,238.67073035240173,238.67378449440002,238.68918895721436,238.83643579483032,238.83643579483032,238.83643579483032,238.83643579483032,238.83643579483032,238.83643579483032,238.83643579483032,241.31112551689148,1,2.6070685386657715,None,,,,,,,,,,,,,,,,,,24,4,2025-02-18_16h05.23.224,comp,2024.2.4,58.04196597719727,2025-02-18 16h05.35.515796 -0500,
28,28,0,filler_square,None,None,None,None,None,None,None,None,None,None,1,3.6772496700286865,None,,,,,0,0,0,0,0,28,28,209,241.3315269947052,,,,,,,,,,,,,,,,,,,,,,,,,,,,,,,,,,,,,,,,,,,,,,,,,,,,,,,,,,,,,,,,,,,,,,,,,,,,,,,,,135.65915819787125,135.65915819787125,95.01015252416208,81.0847805116115,69.70408308727025,89.50190605065205,2.2,2.22,-204,262,0,-270,181,-264,241.31292033195496,241.31299829483032,241.3158986568451,241.3315269947052,241.4707326889038,241.4707326889038,241.4707326889038,241.4707326889038,241.4707326889038,241.4707326889038,241.4707326889038,245.0120449066162,1,3.6772496700286865,None,,,,,,,,,,,,,,,,,,24,4,2025-02-18_16h05.23.224,comp,2024.2.4,58.04196597719727,2025-02-18 16h05.35.515796 -0500,
29,29,0,filler_square,None,None,None,None,None,None,None,None,None,None,2,0.05904722213745117,None,,,,,0,0,0,0,0,29,29,197,245.02921223640442,,,,,,,,,,,,,,,,,,,,,,,,,,,,,,,,,,,,,,,,,,,,,,,,,,,,,,,,,,,,,,,,,,,,,,,,,,,,,,,,,170.54548646421387,170.54548646421387,156.7946521769764,155.93744086330844,129.26126444880538,167.70533877006352,1.0,1.3,221,-289,480,-275,738,-275,245.0140516757965,245.01413083076477,245.0174000263214,245.02921223640442,,,,,,,,245.10504746437073,2,0.05904722213745117,None,,,,,,,,,,,,,,,,,,24,4,2025-02-18_16h05.23.224,comp,2024.2.4,58.04196597719727,2025-02-18 16h05.35.515796 -0500,
30,30,0,filler_random,None,None,None,None,None,None,None,None,None,None,3,2.671982765197754,None,,,,,0,0,0,0,0,30,30,149,245.12026405334473,,,,,,,,,,,,,,,,,,,,,,,,,,,,,,,,,,,,,,,,,,,,,,,,,,,,,,,,,,,,,,,,,,,,,,,,,,,,,,,,,89.97298630065532,85.59700303235891,57.51321004845483,74.29007425692642,154.50032477331462,62.43695887641344,2.1,2.11,-176,264,0,256,164,-269,245.10674738883972,245.10682272911072,245.11003303527832,245.12026405334473,245.2746238708496,245.2746238708496,245.2746238708496,245.2746238708496,245.2746238708496,245.2746238708496,245.2746238708496,247.80457401275635,3,2.671982765197754,None,,,,,,,,,,,,,,,,,,24,4,2025-02-18_16h05.23.224,comp,2024.2.4,58.04196597719727,2025-02-18 16h05.35.515796 -0500,
31,31,0,filler_square,None,None,None,None,None,None,None,None,None,None,2,6.659950494766235,None,,,,,0,0,0,0,0,31,31,195,247.82097363471985,,,,,,,,,,,,,,,,,,,,,,,,,,,,,,,,,,,,,,,,,,,,,,,,,,,,,,,,,,,,,,,,,,,,,,,,,,,,,,,,,98.86118555668654,72.06750981478379,109.65248340507766,103.36025245427649,110.15027424659687,110.15027424659687,3.0,3.2,-184,-265,0,-1,203,251,247.80632281303406,247.80640125274658,247.8096227645874,247.82097363471985,247.96067261695862,247.96067261695862,247.96067261695862,247.96067261695862,247.96067261695862,247.96067261695862,247.96067261695862,254.4829683303833,2,6.659950494766235,None,,,,,,,,,,,,,,,,,,24,4,2025-02-18_16h05.23.224,comp,2024.2.4,58.04196597719727,2025-02-18 16h05.35.515796 -0500,
32,32,0,critical,hwd,35.0,3.0,upper,200.0,125.0,125.0,200.0,127.0,127.0,2,6.461956024169922,None,,,,,0,0,0,0,0,32,32,99,254.4990804195404,,,,,,,,,,,,,,,,,,,,,,,,,,,,,,,,,,,,,,,,,,,,,,,,,,,,,,,,,,,,,,,,,,,,,,,,,,,,,,,,,200.0,125.0,125.0,200.0,127.0,127.0,3.0,3.1,-258,253,0,-5,260,-284,254.48468947410583,254.48482704162598,254.4881398677826,254.4990804195404,254.64705204963684,254.64705204963684,254.64705204963684,254.64705204963684,254.64705204963684,254.64705204963684,254.64705204963684,260.9651634693146,2,6.461956024169922,None,,,,,,,,,,,,,,,,,,24,4,2025-02-18_16h05.23.224,comp,2024.2.4,58.04196597719727,2025-02-18 16h05.35.515796 -0500,
33,33,0,filler_square,None,None,None,None,None,None,None,None,None,None,2,1.7310905456542969,None,,,,,0,0,0,0,0,33,33,170,260.9817125797272,,,,,,,,,,,,,,,,,,,,,,,,,,,,,,,,,,,,,,,,,,,,,,,,,,,,,,,,,,,,,,,,,,,,,,,,,,,,,,,,,81.79378550382674,130.69408226672198,184.80940059454582,184.80940059454582,70.89904749465728,69.06442008318821,2.2,2.22,-254,267,0,-252,223,-264,260.96705079078674,260.9671297073364,260.9700632095337,260.9817125797272,261.12653851509094,261.12653851509094,261.12653851509094,261.12653851509094,261.12653851509094,261.12653851509094,261.12653851509094,262.72027945518494,2,1.7310905456542969,None,,,,,,,,,,,,,,,,,,24,4,2025-02-18_16h05.23.224,comp,2024.2.4,58.04196597719727,2025-02-18 16h05.35.515796 -0500,
34,34,0,filler_square,None,None,None,None,None,None,None,None,None,None,2,4.843400955200195,None,,,,,0,0,0,0,0,34,34,202,262.74086809158325,,,,,,,,,,,,,,,,,,,,,,,,,,,,,,,,,,,,,,,,,,,,,,,,,,,,,,,,,,,,,,,,,,,,,,,,,,,,,,,,,70.70511425720491,161.76899701957643,183.53552664797007,183.53552664797007,77.08591446846768,100.38783884108516,3.0,3.2,-269,-266,0,-9,238,252,262.72214674949646,262.722225189209,262.7251784801483,262.74086809158325,262.8769998550415,262.8769998550415,262.8769998550415,262.8769998550415,262.8769998550415,262.8769998550415,262.8769998550415,267.6002006530762,2,4.843400955200195,None,,,,,,,,,,,,,,,,,,24,4,2025-02-18_16h05.23.224,comp,2024.2.4,58.04196597719727,2025-02-18 16h05.35.515796 -0500,
35,35,0,critical,hwd,35.0,4.0,lower,133.0,57.0,57.0,133.0,70.0,70.0,1,2.0447988510131836,None,,,,,0,0,0,0,0,35,35,100,267.61945724487305,,,,,,,,,,,,,,,,,,,,,,,,,,,,,,,,,,,,,,,,,,,,,,,,,,,,,,,,,,,,,,,,,,,,,,,,,,,,,,,,,133.0,57.0,57.0,133.0,70.0,70.0,4.0,4.1,-191,-288,0,-6,198,-257,267.6018748283386,267.60196447372437,267.6052827835083,267.61945724487305,267.76228618621826,267.76228618621826,267.76228618621826,267.76228618621826,267.76228618621826,267.76228618621826,267.76228618621826,269.6784749031067,1,2.0447988510131836,None,,,,,,,,,,,,,,,,,,24,4,2025-02-18_16h05.23.224,comp,2024.2.4,58.04196597719727,2025-02-18 16h05.35.515796 -0500,
36,36,0,filler_random,None,None,None,None,None,None,None,None,None,None,2,1.4422106742858887,None,,,,,0,0,0,0,0,36,36,137,269.6946601867676,,,,,,,,,,,,,,,,,,,,,,,,,,,,,,,,,,,,,,,,,,,,,,,,,,,,,,,,,,,,,,,,,,,,,,,,,,,,,,,,,61.736305089629276,197.3272403763728,172.79891365993052,125.48199717647613,92.92202735699985,106.32725902947993,2.1,2.11,-257,270,0,272,212,-286,269.68019556999207,269.68027114868164,269.683513879776,269.6946601867676,269.84829020500183,269.84829020500183,269.84829020500183,269.84829020500183,269.84829020500183,269.84829020500183,269.84829020500183,271.14688992500305,2,1.4422106742858887,None,,,,,,,,,,,,,,,,,,24,4,2025-02-18_16h05.23.224,comp,2024.2.4,58.04196597719727,2025-02-18 16h05.35.515796 -0500,
37,37,0,critical,whd,20.0,3.0,upper,125.0,200.0,200.0,125.0,141.0,141.0,1,2.165388584136963,None,,,,,0,0,0,0,0,37,37,93,271.16327810287476,,,,,,,,,,,,,,,,,,,,,,,,,,,,,,,,,,,,,,,,,,,,,,,,,,,,,,,,,,,,,,,,,,,,,,,,,,,,,,,,,125.0,200.0,200.0,125.0,141.0,141.0,3.0,3.1,-258,256,0,-9,229,-279,271.1484112739563,271.14848732948303,271.1527006626129,271.16327810287476,271.3140387535095,271.3140387535095,271.3140387535095,271.3140387535095,271.3140387535095,271.3140387535095,271.3140387535095,273.331494808197,1,2.165388584136963,None,,,,,,,,,,,,,,,,,,24,4,2025-02-18_16h05.23.224,comp,2024.2.4,58.04196597719727,2025-02-18 16h05.35.515796 -0500,
38,38,0,filler_random,None,None,None,None,None,None,None,None,None,None,2,1.5115289688110352,None,,,,,0,0,0,0,0,38,38,133,273.3523054122925,,,,,,,,,,,,,,,,,,,,,,,,,,,,,,,,,,,,,,,,,,,,,,,,,,,,,,,,,,,,,,,,,,,,,,,,,,,,,,,,,156.9672466579147,142.84630042536233,116.21091713738255,197.0147609751902,149.19629546219562,105.32964614655614,2.2,2.21,-266,-270,0,259,247,251,273.3332271575928,273.33334708213806,273.33665132522583,273.3523054122925,273.49557280540466,273.49557280540466,273.49557280540466,273.49557280540466,273.49557280540466,273.49557280540466,273.49557280540466,274.8776032924652,2,1.5115289688110352,None,,,,,,,,,,,,,,,,,,24,4,2025-02-18_16h05.23.224,comp,2024.2.4,58.04196597719727,2025-02-18 16h05.35.515796 -0500,
39,39,0,critical,hdw,20.0,4.0,lower,133.0,57.0,78.0,78.0,57.0,133.0,3,2.4588446617126465,None,,,,,0,0,0,0,0,39,39,118,274.8934679031372,,,,,,,,,,,,,,,,,,,,,,,,,,,,,,,,,,,,,,,,,,,,,,,,,,,,,,,,,,,,,,,,,,,,,,,,,,,,,,,,,133.0,57.0,78.0,78.0,57.0,133.0,4.0,4.2,-164,5,0,-253,202,-3,274.87828183174133,274.8783121109009,274.87966752052307,274.8934679031372,275.0308954715729,275.0308954715729,275.0308954715729,275.0308954715729,275.0308954715729,275.0308954715729,275.0308954715729,277.3641724586487,3,2.4588446617126465,None,,,,,,,,,,,,,,,,,,24,4,2025-02-18_16h05.23.224,comp,2024.2.4,58.04196597719727,2025-02-18 16h05.35.515796 -0500,
40,40,0,critical,wdh,20.0,4.0,upper,125.0,200.0,141.0,141.0,200.0,125.0,1,3.1700079441070557,None,,,,,0,0,0,0,0,40,40,83,277.38225960731506,,,,,,,,,,,,,,,,,,,,,,,,,,,,,,,,,,,,,,,,,,,,,,,,,,,,,,,,,,,,,,,,,,,,,,,,,,,,,,,,,125.0,200.0,141.0,141.0,200.0,125.0,4.0,4.1,-266,-256,0,-1,229,-258,277.3657217025757,277.36579990386963,277.3691461086273,277.38225960731506,277.53248047828674,277.53248047828674,277.53248047828674,277.53248047828674,277.53248047828674,277.53248047828674,277.53248047828674,280.56924843788147,1,3.1700079441070557,None,,,,,,,,,,,,,,,,,,24,4,2025-02-18_16h05.23.224,comp,2024.2.4,58.04196597719727,2025-02-18 16h05.35.515796 -0500,
41,41,0,filler_random,None,None,None,None,None,None,None,None,None,None,3,1.0152559280395508,None,,,,,0,0,0,0,0,41,41,145,280.584974527359,,,,,,,,,,,,,,,,,,,,,,,,,,,,,,,,,,,,,,,,,,,,,,,,,,,,,,,,,,,,,,,,,,,,,,,,,,,,,,,,,140.2874766482058,180.24185072686456,100.42441887920259,169.081937565113,166.00541588284045,110.52108797956778,2.1,2.12,-271,-282,0,-288,236,255,280.5716905593872,280.5717725753784,280.5747404098511,280.584974527359,280.7351441383362,280.7351441383362,280.7351441383362,280.7351441383362,280.7351441383362,280.7351441383362,280.7351441383362,281.6164734363556,3,1.0152559280395508,None,,,,,,,,,,,,,,,,,,24,4,2025-02-18_16h05.23.224,comp,2024.2.4,58.04196597719727,2025-02-18 16h05.35.515796 -0500,
42,42,0,critical,dwh,20.0,2.1,upper,141.0,141.0,125.0,200.0,200.0,125.0,2,1.7447381019592285,None,,,,,0,0,0,0,0,42,42,7,281.63250398635864,,,,,,,,,,,,,,,,,,,,,,,,,,,,,,,,,,,,,,,,,,,,,,,,,,,,,,,,,,,,,,,,,,,,,,,,,,,,,,,,,141.0,141.0,125.0,200.0,200.0,125.0,2.1,2.11,-266,274,0,263,258,-256,281.6180546283722,281.61813378334045,281.6222093105316,281.63250398635864,281.78616738319397,281.78616738319397,281.78616738319397,281.78616738319397,281.78616738319397,281.78616738319397,281.78616738319397,283.38258934020996,2,1.7447381019592285,None,,,,,,,,,,,,,,,,,,24,4,2025-02-18_16h05.23.224,comp,2024.2.4,58.04196597719727,2025-02-18 16h05.35.515796 -0500,
43,43,0,critical,hwd,35.0,2.1,upper,200.0,125.0,125.0,200.0,127.0,127.0,1,1.8655245304107666,None,,,,,0,0,0,0,0,43,43,17,283.398907661438,,,,,,,,,,,,,,,,,,,,,,,,,,,,,,,,,,,,,,,,,,,,,,,,,,,,,,,,,,,,,,,,,,,,,,,,,,,,,,,,,200.0,125.0,125.0,200.0,127.0,127.0,2.1,2.12,-258,-257,0,-265,260,265,283.3841083049774,283.38418436050415,283.3872580528259,283.398907661438,283.552129983902,283.552129983902,283.552129983902,283.552129983902,283.552129983902,283.552129983902,283.552129983902,285.26799178123474,1,1.8655245304107666,None,,,,,,,,,,,,,,,,,,24,4,2025-02-18_16h05.23.224,comp,2024.2.4,58.04196597719727,2025-02-18 16h05.35.515796 -0500,
44,44,0,filler_square,None,None,None,None,None,None,None,None,None,None,1,2.267167329788208,None,,,,,0,0,0,0,0,44,44,186,285.2853150367737,,,,,,,,,,,,,,,,,,,,,,,,,,,,,,,,,,,,,,,,,,,,,,,,,,,,,,,,,,,,,,,,,,,,,,,,,,,,,,,,,185.43915111670282,185.43915111670282,62.580347956213856,184.62971565964787,87.74858711887019,130.71785255829184,3.0,3.2,-281,-272,0,3,254,274,285.2698483467102,285.26997804641724,285.2741289138794,285.2853150367737,285.4350986480713,285.4350986480713,285.4350986480713,285.4350986480713,285.4350986480713,285.4350986480713,285.4350986480713,287.57028675079346,1,2.267167329788208,None,,,,,,,,,,,,,,,,,,24,4,2025-02-18_16h05.23.224,comp,2024.2.4,58.04196597719727,2025-02-18 16h05.35.515796 -0500,
45,45,0,critical,dwh,20.0,4.0,lower,78.0,78.0,57.0,133.0,133.0,57.0,3,3.8467869758605957,None,,,,,0,0,0,0,0,45,45,70,287.58631706237793,,,,,,,,,,,,,,,,,,,,,,,,,,,,,,,,,,,,,,,,,,,,,,,,,,,,,,,,,,,,,,,,,,,,,,,,,,,,,,,,,78.0,78.0,57.0,133.0,133.0,57.0,4.0,4.2,-202,20,0,-289,191,-5,287.57201504707336,287.57209372520447,287.57604694366455,287.58631706237793,287.7345561981201,287.7345561981201,287.7345561981201,287.7345561981201,287.7345561981201,287.7345561981201,287.7345561981201,291.4361274242401,3,3.8467869758605957,None,,,,,,,,,,,,,,,,,,24,4,2025-02-18_16h05.23.224,comp,2024.2.4,58.04196597719727,2025-02-18 16h05.35.515796 -0500,
46,46,0,critical,dwh,20.0,2.1,lower,78.0,78.0,57.0,133.0,133.0,57.0,2,2.557628631591797,None,,,,,0,0,0,0,0,46,46,6,291.45220971107483,,,,,,,,,,,,,,,,,,,,,,,,,,,,,,,,,,,,,,,,,,,,,,,,,,,,,,,,,,,,,,,,,,,,,,,,,,,,,,,,,78.0,78.0,57.0,133.0,133.0,57.0,2.1,2.11,-202,289,0,252,191,-288,291.43757677078247,291.4376971721649,291.44112515449524,291.45220971107483,291.6045196056366,291.6045196056366,291.6045196056366,291.6045196056366,291.6045196056366,291.6045196056366,291.6045196056366,294.02096033096313,2,2.557628631591797,None,,,,,,,,,,,,,,,,,,24,4,2025-02-18_16h05.23.224,comp,2024.2.4,58.04196597719727,2025-02-18 16h05.35.515796 -0500,
47,47,0,critical,dwh,20.0,4.0,upper,141.0,141.0,125.0,200.0,200.0,125.0,3,2.675943374633789,None,,,,,0,0,0,0,0,47,47,71,294.036568403244,,,,,,,,,,,,,,,,,,,,,,,,,,,,,,,,,,,,,,,,,,,,,,,,,,,,,,,,,,,,,,,,,,,,,,,,,,,,,,,,,141.0,141.0,125.0,200.0,200.0,125.0,4.0,4.1,-266,-264,0,-2,258,-278,294.0224928855896,294.0225694179535,294.0259246826172,294.036568403244,294.1921036243439,294.1921036243439,294.1921036243439,294.1921036243439,294.1921036243439,294.1921036243439,294.1921036243439,296.7173628807068,3,2.675943374633789,None,,,,,,,,,,,,,,,,,,24,4,2025-02-18_16h05.23.224,comp,2024.2.4,58.04196597719727,2025-02-18 16h05.35.515796 -0500,
48,48,0,critical,hwd,20.0,1.0,upper,200.0,125.0,125.0,200.0,141.0,141.0,1,1.481802225112915,None,,,,,0,0,0,0,0,48,48,103,296.7350490093231,,,,,,,,,,,,,,,,,,,,,,,,,,,,,,,,,,,,,,,,,,,,,,,,,,,,,,,,,,,,,,,,,,,,,,,,,,,,,,,,,200.0,125.0,125.0,200.0,141.0,141.0,1.0,1.1,-738,276,-480,279,-214,255,296.71892046928406,296.718998670578,296.72194600105286,296.7350490093231,296.8708622455597,296.8708622455597,296.8708622455597,296.8708622455597,296.8708622455597,296.8708622455597,296.8708622455597,298.2217147350311,1,1.481802225112915,None,,,,,,,,,,,,,,,,,,24,4,2025-02-18_16h05.23.224,comp,2024.2.4,58.04196597719727,2025-02-18 16h05.35.515796 -0500,
49,49,0,filler_square,None,None,None,None,None,None,None,None,None,None,2,6.779094457626343,None,,,,,0,0,0,0,0,49,49,205,298.2378616333008,,,,,,,,,,,,,,,,,,,,,,,,,,,,,,,,,,,,,,,,,,,,,,,,,,,,,,,,,,,,,,,,,,,,,,,,,,,,,,,,,58.31487478327745,57.287371764847,60.7355168766754,60.7355168766754,57.112751927660646,60.54287464404457,4.0,4.2,-155,-16,0,-283,157,20,298.2235174179077,298.22359800338745,298.2268407344818,298.2378616333008,298.38906502723694,298.38906502723694,298.38906502723694,298.38906502723694,298.38906502723694,298.38906502723694,298.38906502723694,305.0244023799896,2,6.779094457626343,None,,,,,,,,,,,,,,,,,,24,4,2025-02-18_16h05.23.224,comp,2024.2.4,58.04196597719727,2025-02-18 16h05.35.515796 -0500,
50,50,0,critical,hdw,35.0,2.1,upper,200.0,125.0,127.0,127.0,125.0,200.0,1,2.3921737670898438,None,,,,,0,0,0,0,0,50,50,21,305.0421259403229,,,,,,,,,,,,,,,,,,,,,,,,,,,,,,,,,,,,,,,,,,,,,,,,,,,,,,,,,,,,,,,,,,,,,,,,,,,,,,,,,200.0,125.0,127.0,127.0,125.0,200.0,2.1,2.12,-222,-253,0,-259,260,265,305.0259573459625,305.0260329246521,305.03007912635803,305.0421259403229,305.18833589553833,305.18833589553833,305.18833589553833,305.18833589553833,305.18833589553833,305.18833589553833,305.18833589553833,307.4397449493408,1,2.3921737670898438,None,,,,,,,,,,,,,,,,,,24,4,2025-02-18_16h05.23.224,comp,2024.2.4,58.04196597719727,2025-02-18 16h05.35.515796 -0500,
51,51,0,critical,whd,20.0,4.0,lower,57.0,133.0,133.0,57.0,78.0,78.0,2,1.9442005157470703,None,,,,,0,0,0,0,0,51,51,94,307.4560647010803,,,,,,,,,,,,,,,,,,,,,,,,,,,,,,,,,,,,,,,,,,,,,,,,,,,,,,,,,,,,,,,,,,,,,,,,,,,,,,,,,57.0,133.0,133.0,57.0,78.0,78.0,4.0,4.2,-191,17,0,-281,164,-11,307.4412281513214,307.4413025379181,307.4444363117218,307.4560647010803,307.5940146446228,307.5940146446228,307.5940146446228,307.5940146446228,307.5940146446228,307.5940146446228,307.5940146446228,309.4141843318939,2,1.9442005157470703,None,,,,,,,,,,,,,,,,,,24,4,2025-02-18_16h05.23.224,comp,2024.2.4,58.04196597719727,2025-02-18 16h05.35.515796 -0500,
52,52,0,critical,dhw,35.0,1.0,lower,70.0,70.0,133.0,57.0,57.0,133.0,3,3.2249746322631836,None,,,,,0,0,0,0,0,52,52,48,309.43175864219666,,,,,,,,,,,,,,,,,,,,,,,,,,,,,,,,,,,,,,,,,,,,,,,,,,,,,,,,,,,,,,,,,,,,,,,,,,,,,,,,,70.0,70.0,133.0,57.0,57.0,133.0,1.0,1.2,-160,5,0,-11,191,10,309.41569447517395,309.41577100753784,309.4186968803406,309.43175864219666,309.5757098197937,309.5757098197937,309.5757098197937,309.5757098197937,309.5757098197937,309.5757098197937,309.5757098197937,312.6590385437012,3,3.2249746322631836,None,,,,,,,,,,,,,,,,,,24,4,2025-02-18_16h05.23.224,comp,2024.2.4,58.04196597719727,2025-02-18 16h05.35.515796 -0500,
53,53,0,critical,hdw,35.0,1.0,lower,133.0,57.0,70.0,70.0,57.0,133.0,1,1.8132362365722656,None,,,,,0,0,0,0,0,53,53,108,312.6754560470581,,,,,,,,,,,,,,,,,,,,,,,,,,,,,,,,,,,,,,,,,,,,,,,,,,,,,,,,,,,,,,,,,,,,,,,,,,,,,,,,,133.0,57.0,70.0,70.0,57.0,133.0,1.0,1.1,-640,257,-480,271,-282,258,312.6605472564697,312.66062593460083,312.66394448280334,312.6754560470581,312.8210771083832,312.8210771083832,312.8210771083832,312.8210771083832,312.8210771083832,312.8210771083832,312.8210771083832,314.49326276779175,1,1.8132362365722656,None,,,,,,,,,,,,,,,,,,24,4,2025-02-18_16h05.23.224,comp,2024.2.4,58.04196597719727,2025-02-18 16h05.35.515796 -0500,
54,54,0,critical,dwh,20.0,2.1,upper,141.0,141.0,125.0,200.0,200.0,125.0,3,2.1473641395568848,None,,,,,0,0,0,0,0,54,54,31,314.5089750289917,,,,,,,,,,,,,,,,,,,,,,,,,,,,,,,,,,,,,,,,,,,,,,,,,,,,,,,,,,,,,,,,,,,,,,,,,,,,,,,,,141.0,141.0,125.0,200.0,200.0,125.0,2.1,2.11,-266,275,0,288,258,-265,314.49483609199524,314.49491453170776,314.49813532829285,314.5089750289917,314.65767669677734,314.65767669677734,314.65767669677734,314.65767669677734,314.65767669677734,314.65767669677734,314.65767669677734,316.6706790924072,3,2.1473641395568848,None,,,,,,,,,,,,,,,,,,24,4,2025-02-18_16h05.23.224,comp,2024.2.4,58.04196597719727,2025-02-18 16h05.35.515796 -0500,
55,55,0,critical,dwh,20.0,2.1,lower,78.0,78.0,57.0,133.0,133.0,57.0,2,2.4322054386138916,None,,,,,0,0,0,0,0,55,55,30,316.68870663642883,,,,,,,,,,,,,,,,,,,,,,,,,,,,,,,,,,,,,,,,,,,,,,,,,,,,,,,,,,,,,,,,,,,,,,,,,,,,,,,,,78.0,78.0,57.0,133.0,133.0,57.0,2.1,2.12,-202,-266,0,-261,191,266,316.6722900867462,316.6723861694336,316.67577505111694,316.68870663642883,316.8282697200775,316.8282697200775,316.8282697200775,316.8282697200775,316.8282697200775,316.8282697200775,316.8282697200775,319.1271495819092,2,2.4322054386138916,None,,,,,,,,,,,,,,,,,,24,4,2025-02-18_16h05.23.224,comp,2024.2.4,58.04196597719727,2025-02-18 16h05.35.515796 -0500,
56,56,0,filler_square,None,None,None,None,None,None,None,None,None,None,3,3.1134557723999023,None,,,,,0,0,0,0,0,56,56,179,319.14378929138184,,,,,,,,,,,,,,,,,,,,,,,,,,,,,,,,,,,,,,,,,,,,,,,,,,,,,,,,,,,,,,,,,,,,,,,,,,,,,,,,,57.98221408095145,58.304031551565366,61.317200821144326,61.317200821144326,57.85660223097619,58.311034406741456,2.1,2.12,-156,-271,0,-277,156,269,319.12896633148193,319.12904381752014,319.132182598114,319.14378929138184,319.30153918266296,319.30153918266296,319.30153918266296,319.30153918266296,319.30153918266296,319.30153918266296,319.30153918266296,322.26555037498474,3,3.1134557723999023,None,,,,,,,,,,,,,,,,,,24,4,2025-02-18_16h05.23.224,comp,2024.2.4,58.04196597719727,2025-02-18 16h05.35.515796 -0500,
57,57,0,filler_random,None,None,None,None,None,None,None,None,None,None,2,0.0037741661071777344,None,,,,,0,0,0,0,0,57,57,152,322.28449845314026,,,,,,,,,,,,,,,,,,,,,,,,,,,,,,,,,,,,,,,,,,,,,,,,,,,,,,,,,,,,,,,,,,,,,,,,,,,,,,,,,128.06974665508477,75.45347959657957,196.413571562163,169.52951773028602,185.13389202995216,149.04020576867282,2.2,2.22,-218,282,0,-263,255,-252,322.2674171924591,322.26750111579895,322.27047634124756,322.28449845314026,,,,,,,,322.30081152915955,2,0.0037741661071777344,None,,,,,,,,,,,,,,,,,,24,4,2025-02-18_16h05.23.224,comp,2024.2.4,58.04196597719727,2025-02-18 16h05.35.515796 -0500,
58,58,0,critical,hwd,20.0,2.1,upper,200.0,125.0,125.0,200.0,141.0,141.0,1,None,None,,,,,0,0,0,0,0,58,58,43,322.3161880970001,,,,,,,,,,,,,,,,,,,,,,,,,,,,,,,,,,,,,,,,,,,,,,,,,,,,,,,,,,,,,,,,,,,,,,,,,,,,,,,,,200.0,125.0,125.0,200.0,141.0,141.0,2.1,2.12,-258,-263,0,-262,266,258,322.3023416996002,322.30241894721985,322.30542159080505,322.3161880970001,,,,,,,,322.42910623550415,1,None,None,,,,,,,,,,,,,,,,,,24,4,2025-02-18_16h05.23.224,comp,2024.2.4,58.04196597719727,2025-02-18 16h05.35.515796 -0500,
59,59,0,filler_square,None,None,None,None,None,None,None,None,None,None,1,7.186237096786499,None,,,,,0,0,0,0,0,59,59,174,322.44622445106506,,,,,,,,,,,,,,,,,,,,,,,,,,,,,,,,,,,,,,,,,,,,,,,,,,,,,,,,,,,,,,,,,,,,,,,,,,,,,,,,,174.9706077467144,174.9706077467144,137.0351420774143,57.937721036913956,134.7719651080942,171.0287030384336,2.1,2.12,-212,-288,0,-287,210,260,322.4311566352844,322.43125438690186,322.43524837493896,322.44622445106506,322.59966015815735,322.59966015815735,322.59966015815735,322.59966015815735,322.59966015815735,322.59966015815735,322.59966015815735,329.6509864330292,1,7.186237096786499,None,,,,,,,,,,,,,,,,,,24,4,2025-02-18_16h05.23.224,comp,2024.2.4,58.04196597719727,2025-02-18 16h05.35.515796 -0500,
60,60,0,filler_random,None,None,None,None,None,None,None,None,None,None,2,7.211605072021484,None,,,,,0,0,0,0,0,60,60,131,329.6693027019501,,,,,,,,,,,,,,,,,,,,,,,,,,,,,,,,,,,,,,,,,,,,,,,,,,,,,,,,,,,,,,,,,,,,,,,,,,,,,,,,,184.46784238127498,101.15689703263587,151.21128680233733,129.42024691041865,156.61938083607953,152.33099169261652,2.2,2.21,-211,-261,0,278,237,270,329.65273690223694,329.6528766155243,329.65620613098145,329.6693027019501,329.81477999687195,329.81477999687195,329.81477999687195,329.81477999687195,329.81477999687195,329.81477999687195,329.81477999687195,336.8856544494629,2,7.211605072021484,None,,,,,,,,,,,,,,,,,,24,4,2025-02-18_16h05.23.224,comp,2024.2.4,58.04196597719727,2025-02-18 16h05.35.515796 -0500,
61,61,0,critical,dhw,35.0,4.0,upper,127.0,127.0,200.0,125.0,125.0,200.0,3,3.2913460731506348,None,,,,,0,0,0,0,0,61,61,53,336.9018805027008,,,,,,,,,,,,,,,,,,,,,,,,,,,,,,,,,,,,,,,,,,,,,,,,,,,,,,,,,,,,,,,,,,,,,,,,,,,,,,,,,127.0,127.0,200.0,125.0,125.0,200.0,4.0,4.2,-222,-4,0,-288,258,-19,336.88731575012207,336.88739681243896,336.89060521125793,336.9018805027008,337.05116510391235,337.05116510391235,337.05116510391235,337.05116510391235,337.05116510391235,337.05116510391235,337.05116510391235,340.2015657424927,3,3.2913460731506348,None,,,,,,,,,,,,,,,,,,24,4,2025-02-18_16h05.23.224,comp,2024.2.4,58.04196597719727,2025-02-18 16h05.35.515796 -0500,
62,62,0,filler_square,None,None,None,None,None,None,None,None,None,None,3,0.9201102256774902,None,,,,,0,0,0,0,0,62,62,203,340.21620750427246,,,,,,,,,,,,,,,,,,,,,,,,,,,,,,,,,,,,,,,,,,,,,,,,,,,,,,,,,,,,,,,,,,,,,,,,,,,,,,,,,71.2600961055091,84.60533497871512,139.55629266488285,158.248114363537,178.39963952857818,178.39963952857818,1.0,1.2,-217,13,0,-17,264,-3,340.20340752601624,340.2034840583801,340.2066831588745,340.21620750427246,340.36612010002136,340.36612010002136,340.36612010002136,340.36612010002136,340.36612010002136,340.36612010002136,340.36612010002136,341.15095043182373,3,0.9201102256774902,None,,,,,,,,,,,,,,,,,,24,4,2025-02-18_16h05.23.224,comp,2024.2.4,58.04196597719727,2025-02-18 16h05.35.515796 -0500,
63,63,0,critical,wdh,20.0,1.0,lower,57.0,133.0,78.0,78.0,133.0,57.0,1,4.538148403167725,None,,,,,0,0,0,0,0,63,63,78,341.16628885269165,,,,,,,,,,,,,,,,,,,,,,,,,,,,,,,,,,,,,,,,,,,,,,,,,,,,,,,,,,,,,,,,,,,,,,,,,,,,,,,,,57.0,133.0,78.0,78.0,133.0,57.0,1.0,1.3,278,-271,480,-274,644,-258,341.15242171287537,341.1524977684021,341.1557650566101,341.16628885269165,341.32055020332336,341.32055020332336,341.32055020332336,341.32055020332336,341.32055020332336,341.32055020332336,341.32055020332336,345.7069888114929,1,4.538148403167725,None,,,,,,,,,,,,,,,,,,24,4,2025-02-18_16h05.23.224,comp,2024.2.4,58.04196597719727,2025-02-18 16h05.35.515796 -0500,
64,64,0,catch,None,None,None,None,None,None,None,None,None,None,2,2.739262580871582,None,,,,,0,0,0,0,0,64,64,122,345.72558403015137,,,,,,,,,,,,,,,,,,,,,,,,,,,,,,,,,,,,,,,,,,,,,,,,,,,,,,,,,,,,,,,,,,,,,,,,,,,,,,,,,94,96,167,158,85,105,2.2,2.21,-223,-259,0,284,228,278,345.70907640457153,345.709157705307,345.71238374710083,345.72558403015137,345.8696880340576,345.8696880340576,345.8696880340576,345.8696880340576,345.8696880340576,345.8696880340576,345.8696880340576,348.4694309234619,2,2.739262580871582,None,,,,,,,,,,,,,,,,,,24,4,2025-02-18_16h05.23.224,comp,2024.2.4,58.04196597719727,2025-02-18 16h05.35.515796 -0500,
65,65,0,filler_random,None,None,None,None,None,None,None,None,None,None,2,1.9273998737335205,None,,,,,0,0,0,0,0,65,65,130,348.4893808364868,,,,,,,,,,,,,,,,,,,,,,,,,,,,,,,,,,,,,,,,,,,,,,,,,,,,,,,,,,,,,,,,,,,,,,,,,,,,,,,,,96.48309113495512,189.54139402982779,124.01141222035261,188.63817714940177,187.62290192962098,96.14249094212474,2.2,2.21,-285,-252,0,256,238,263,348.47109508514404,348.4711697101593,348.4741654396057,348.4893808364868,348.64223408699036,348.64223408699036,348.64223408699036,348.64223408699036,348.64223408699036,348.64223408699036,348.64223408699036,350.41987800598145,2,1.9273998737335205,None,,,,,,,,,,,,,,,,,,24,4,2025-02-18_16h05.23.224,comp,2024.2.4,58.04196597719727,2025-02-18 16h05.35.515796 -0500,
66,66,0,filler_random,None,None,None,None,None,None,None,None,None,None,2,1.2198128700256348,None,,,,,0,0,0,0,0,66,66,169,350.4367182254791,,,,,,,,,,,,,,,,,,,,,,,,,,,,,,,,,,,,,,,,,,,,,,,,,,,,,,,,,,,,,,,,,,,,,,,,,,,,,,,,,61.30572254854699,74.40704571164883,146.14436677356588,80.77591853995219,115.79402555123849,70.13718842636307,2.2,2.21,-174,-280,0,274,171,289,350.4216091632843,350.421728849411,350.42492270469666,350.4367182254791,350.57407093048096,350.57407093048096,350.57407093048096,350.57407093048096,350.57407093048096,350.57407093048096,350.57407093048096,351.67554235458374,2,1.2198128700256348,None,,,,,,,,,,,,,,,,,,24,4,2025-02-18_16h05.23.224,comp,2024.2.4,58.04196597719727,2025-02-18 16h05.35.515796 -0500,
67,67,0,filler_random,None,None,None,None,None,None,None,None,None,None,3,2.768765687942505,None,,,,,0,0,0,0,0,67,67,168,351.69607305526733,,,,,,,,,,,,,,,,,,,,,,,,,,,,,,,,,,,,,,,,,,,,,,,,,,,,,,,,,,,,,,,,,,,,,,,,,,,,,,,,,82.18375365679813,80.91146385485786,170.1381975263909,69.86582079019284,190.06096905651222,65.63313583967842,2.2,2.22,-171,289,0,-275,164,-259,351.6774504184723,351.67755365371704,351.68078231811523,351.69607305526733,351.83692502975464,351.83692502975464,351.83692502975464,351.83692502975464,351.83692502975464,351.83692502975464,351.83692502975464,354.47342252731323,3,2.768765687942505,None,,,,,,,,,,,,,,,,,,24,4,2025-02-18_16h05.23.224,comp,2024.2.4,58.04196597719727,2025-02-18 16h05.35.515796 -0500,
68,68,0,filler_random,None,None,None,None,None,None,None,None,None,None,3,4.414718151092529,None,,,,,0,0,0,0,0,68,68,156,354.4899036884308,,,,,,,,,,,,,,,,,,,,,,,,,,,,,,,,,,,,,,,,,,,,,,,,,,,,,,,,,,,,,,,,,,,,,,,,,,,,,,,,,154.39820232189913,102.1929637457979,106.75891637437081,144.38456033740397,122.11843018422304,158.66075241846642,2.1,2.11,-219,284,0,271,248,-253,354.47512459754944,354.47520112991333,354.4783573150635,354.4899036884308,354.63921093940735,354.63921093940735,354.63921093940735,354.63921093940735,354.63921093940735,354.63921093940735,354.63921093940735,358.90915155410767,3,4.414718151092529,None,,,,,,,,,,,,,,,,,,24,4,2025-02-18_16h05.23.224,comp,2024.2.4,58.04196597719727,2025-02-18 16h05.35.515796 -0500,
69,69,0,critical,dwh,35.0,4.0,lower,70.0,70.0,57.0,133.0,133.0,57.0,2,1.6984798908233643,None,,,,,0,0,0,0,0,69,69,64,358.9258587360382,,,,,,,,,,,,,,,,,,,,,,,,,,,,,,,,,,,,,,,,,,,,,,,,,,,,,,,,,,,,,,,,,,,,,,,,,,,,,,,,,70.0,70.0,57.0,133.0,133.0,57.0,4.0,4.1,-198,-277,0,14,191,-255,358.9108920097351,358.91102862358093,358.91512417793274,358.9258587360382,359.073805809021,359.073805809021,359.073805809021,359.073805809021,359.073805809021,359.073805809021,359.073805809021,360.64012360572815,2,1.6984798908233643,None,,,,,,,,,,,,,,,,,,24,4,2025-02-18_16h05.23.224,comp,2024.2.4,58.04196597719727,2025-02-18 16h05.35.515796 -0500,
70,70,0,critical,whd,20.0,1.0,upper,125.0,200.0,200.0,125.0,141.0,141.0,2,1.960392713546753,None,,,,,0,0,0,0,0,70,70,91,360.65592217445374,,,,,,,,,,,,,,,,,,,,,,,,,,,,,,,,,,,,,,,,,,,,,,,,,,,,,,,,,,,,,,,,,,,,,,,,,,,,,,,,,125.0,200.0,200.0,125.0,141.0,141.0,1.0,1.1,-738,284,-480,266,-251,259,360.6416015625,360.6416971683502,360.6448402404785,360.65592217445374,360.80857133865356,360.80857133865356,360.80857133865356,360.80857133865356,360.80857133865356,360.80857133865356,360.80857133865356,362.63355255126953,2,1.960392713546753,None,,,,,,,,,,,,,,,,,,24,4,2025-02-18_16h05.23.224,comp,2024.2.4,58.04196597719727,2025-02-18 16h05.35.515796 -0500,
71,71,0,filler_random,None,None,None,None,None,None,None,None,None,None,2,2.9815587997436523,None,,,,,0,0,0,0,0,71,71,141,362.6514673233032,,,,,,,,,,,,,,,,,,,,,,,,,,,,,,,,,,,,,,,,,,,,,,,,,,,,,,,,,,,,,,,,,,,,,,,,,,,,,,,,,77.30423428743019,118.98563492848132,189.56789602929342,82.47396045734524,64.03061441579177,106.64644204240153,2.1,2.12,-197,-266,0,-267,191,260,362.63546109199524,362.6355879306793,362.63902139663696,362.6514673233032,362.79706740379333,362.79706740379333,362.79706740379333,362.79706740379333,362.79706740379333,362.79706740379333,362.79706740379333,365.6430184841156,2,2.9815587997436523,None,,,,,,,,,,,,,,,,,,24,4,2025-02-18_16h05.23.224,comp,2024.2.4,58.04196597719727,2025-02-18 16h05.35.515796 -0500,
72,72,0,filler_square,None,None,None,None,None,None,None,None,None,None,1,2.478071689605713,None,,,,,0,0,0,0,0,72,72,177,365.6589651107788,,,,,,,,,,,,,,,,,,,,,,,,,,,,,,,,,,,,,,,,,,,,,,,,,,,,,,,,,,,,,,,,,,,,,,,,,,,,,,,,,121.84128039755859,121.84128039755859,96.7083305902919,118.50496462206986,97.74209869479463,86.84189174920961,3.0,3.2,-216,-279,0,-13,199,251,365.644748210907,365.6448247432709,365.64828062057495,365.6589651107788,365.80785489082336,365.80785489082336,365.80785489082336,365.80785489082336,365.80785489082336,365.80785489082336,365.80785489082336,368.14161443710327,1,2.478071689605713,None,,,,,,,,,,,,,,,,,,24,4,2025-02-18_16h05.23.224,comp,2024.2.4,58.04196597719727,2025-02-18 16h05.35.515796 -0500,
73,73,0,filler_square,None,None,None,None,None,None,None,None,None,None,3,2.506939172744751,None,,,,,0,0,0,0,0,73,73,193,368.15737891197205,,,,,,,,,,,,,,,,,,,,,,,,,,,,,,,,,,,,,,,,,,,,,,,,,,,,,,,,,,,,,,,,,,,,,,,,,,,,,,,,,68.62286309091787,65.23644602755152,59.56177967767959,64.70813019851892,75.38297036778933,75.38297036778933,2.2,2.21,-161,-260,0,282,166,253,368.14337372779846,368.1434488296509,368.14647483825684,368.15737891197205,368.31126523017883,368.31126523017883,368.31126523017883,368.31126523017883,368.31126523017883,368.31126523017883,368.31126523017883,370.6809678077698,3,2.506939172744751,None,,,,,,,,,,,,,,,,,,24,4,2025-02-18_16h05.23.224,comp,2024.2.4,58.04196597719727,2025-02-18 16h05.35.515796 -0500,
74,74,0,critical,dwh,35.0,2.1,upper,127.0,127.0,125.0,200.0,200.0,125.0,3,1.9835362434387207,None,,,,,0,0,0,0,0,74,74,5,370.6968116760254,,,,,,,,,,,,,,,,,,,,,,,,,,,,,,,,,,,,,,,,,,,,,,,,,,,,,,,,,,,,,,,,,,,,,,,,,,,,,,,,,127.0,127.0,125.0,200.0,200.0,125.0,2.1,2.11,-260,273,0,252,258,-272,370.6825313568115,370.6826105117798,370.6865921020508,370.6968116760254,370.84374952316284,370.84374952316284,370.84374952316284,370.84374952316284,370.84374952316284,370.84374952316284,370.84374952316284,372.6947543621063,3,1.9835362434387207,None,,,,,,,,,,,,,,,,,,24,4,2025-02-18_16h05.23.224,comp,2024.2.4,58.04196597719727,2025-02-18 16h05.35.515796 -0500,
75,75,0,critical,wdh,35.0,2.1,upper,125.0,200.0,127.0,127.0,200.0,125.0,1,2.0421664714813232,None,,,,,0,0,0,0,0,75,75,9,372.71022152900696,,,,,,,,,,,,,,,,,,,,,,,,,,,,,,,,,,,,,,,,,,,,,,,,,,,,,,,,,,,,,,,,,,,,,,,,,,,,,,,,,125.0,200.0,127.0,127.0,200.0,125.0,2.1,2.11,-260,256,0,288,222,-272,372.69627594947815,372.6963541507721,372.6995873451233,372.71022152900696,372.8649835586548,372.8649835586548,372.8649835586548,372.8649835586548,372.8649835586548,372.8649835586548,372.8649835586548,374.76606965065,1,2.0421664714813232,None,,,,,,,,,,,,,,,,,,24,4,2025-02-18_16h05.23.224,comp,2024.2.4,58.04196597719727,2025-02-18 16h05.35.515796 -0500,
76,76,0,critical,hdw,20.0,2.1,upper,200.0,125.0,141.0,141.0,125.0,200.0,3,2.365739345550537,None,,,,,0,0,0,0,0,76,76,23,374.78658390045166,,,,,,,,,,,,,,,,,,,,,,,,,,,,,,,,,,,,,,,,,,,,,,,,,,,,,,,,,,,,,,,,,,,,,,,,,,,,,,,,,200.0,125.0,141.0,141.0,125.0,200.0,2.1,2.12,-229,-288,0,-255,266,288,374.767737865448,374.7678143978119,374.77111077308655,374.78658390045166,374.92948150634766,374.92948150634766,374.92948150634766,374.92948150634766,374.92948150634766,374.92948150634766,374.92948150634766,377.1619780063629,3,2.365739345550537,None,,,,,,,,,,,,,,,,,,24,4,2025-02-18_16h05.23.224,comp,2024.2.4,58.04196597719727,2025-02-18 16h05.35.515796 -0500,
77,77,0,filler_square,None,None,None,None,None,None,None,None,None,None,2,1.7236311435699463,None,,,,,0,0,0,0,0,77,77,171,377.1807141304016,,,,,,,,,,,,,,,,,,,,,,,,,,,,,,,,,,,,,,,,,,,,,,,,,,,,,,,,,,,,,,,,,,,,,,,,,,,,,,,,,61.265796550643344,75.71757720729961,112.3964832944711,112.3964832944711,112.09612097019556,76.94313951277854,4.0,4.2,-190,-12,0,-262,191,16,377.1638116836548,377.16393661499023,377.1677734851837,377.1807141304016,377.3285837173462,377.3285837173462,377.3285837173462,377.3285837173462,377.3285837173462,377.3285837173462,377.3285837173462,378.91435265541077,2,1.7236311435699463,None,,,,,,,,,,,,,,,,,,24,4,2025-02-18_16h05.23.224,comp,2024.2.4,58.04196597719727,2025-02-18 16h05.35.515796 -0500,
78,78,0,critical,hdw,35.0,4.0,lower,133.0,57.0,70.0,70.0,57.0,133.0,1,2.5184547901153564,None,,,,,0,0,0,0,0,78,78,112,378.92985105514526,,,,,,,,,,,,,,,,,,,,,,,,,,,,,,,,,,,,,,,,,,,,,,,,,,,,,,,,,,,,,,,,,,,,,,,,,,,,,,,,,133.0,57.0,70.0,70.0,57.0,133.0,4.0,4.2,-160,12,0,-279,198,5,378.91592264175415,378.91600251197815,378.91916155815125,378.92985105514526,379.08036518096924,379.08036518096924,379.08036518096924,379.08036518096924,379.08036518096924,379.08036518096924,379.08036518096924,381.46365880966187,1,2.5184547901153564,None,,,,,,,,,,,,,,,,,,24,4,2025-02-18_16h05.23.224,comp,2024.2.4,58.04196597719727,2025-02-18 16h05.35.515796 -0500,
79,79,0,critical,hdw,20.0,3.0,lower,133.0,57.0,78.0,78.0,57.0,133.0,3,4.159597158432007,None,,,,,0,0,0,0,0,79,79,116,381.4812409877777,,,,,,,,,,,,,,,,,,,,,,,,,,,,,,,,,,,,,,,,,,,,,,,,,,,,,,,,,,,,,,,,,,,,,,,,,,,,,,,,,133.0,57.0,78.0,78.0,57.0,133.0,3.0,3.2,-164,-266,0,4,202,253,381.46519923210144,381.4652750492096,381.46825075149536,381.4812409877777,381.6310353279114,381.6310353279114,381.6310353279114,381.6310353279114,381.6310353279114,381.6310353279114,381.6310353279114,385.6490476131439,3,4.159597158432007,None,,,,,,,,,,,,,,,,,,24,4,2025-02-18_16h05.23.224,comp,2024.2.4,58.04196597719727,2025-02-18 16h05.35.515796 -0500,
80,80,0,filler_random,None,None,None,None,None,None,None,None,None,None,2,1.1124413013458252,None,,,,,0,0,0,0,0,80,80,140,385.66482615470886,,,,,,,,,,,,,,,,,,,,,,,,,,,,,,,,,,,,,,,,,,,,,,,,,,,,,,,,,,,,,,,,,,,,,,,,,,,,,,,,,140.16042844560968,170.2025711149468,161.40225641830398,181.104738501933,129.54629906120562,90.39101205298007,4.0,4.1,-272,-277,0,8,232,-251,385.65077447891235,385.65085339546204,385.6541922092438,385.66482615470886,385.81254291534424,385.81254291534424,385.81254291534424,385.81254291534424,385.81254291534424,385.81254291534424,385.81254291534424,386.7828600406647,2,1.1124413013458252,None,,,,,,,,,,,,,,,,,,24,4,2025-02-18_16h05.23.224,comp,2024.2.4,58.04196597719727,2025-02-18 16h05.35.515796 -0500,
81,81,0,critical,dhw,35.0,2.1,lower,70.0,70.0,133.0,57.0,57.0,133.0,3,1.272958755493164,None,,,,,0,0,0,0,0,81,81,0,386.7995021343231,,,,,,,,,,,,,,,,,,,,,,,,,,,,,,,,,,,,,,,,,,,,,,,,,,,,,,,,,,,,,,,,,,,,,,,,,,,,,,,,,70.0,70.0,133.0,57.0,57.0,133.0,2.1,2.11,-160,256,0,258,191,-253,386.7843976020813,386.78447222709656,386.78786420822144,386.7995021343231,386.95051741600037,386.95051741600037,386.95051741600037,386.95051741600037,386.95051741600037,386.95051741600037,386.95051741600037,388.08339381217957,3,1.272958755493164,None,,,,,,,,,,,,,,,,,,24,4,2025-02-18_16h05.23.224,comp,2024.2.4,58.04196597719727,2025-02-18 16h05.35.515796 -0500,
82,82,0,critical,dwh,35.0,3.0,upper,127.0,127.0,125.0,200.0,200.0,125.0,3,1.6176915168762207,None,,,,,0,0,0,0,0,82,82,63,388.1031587123871,,,,,,,,,,,,,,,,,,,,,,,,,,,,,,,,,,,,,,,,,,,,,,,,,,,,,,,,,,,,,,,,,,,,,,,,,,,,,,,,,127.0,127.0,125.0,200.0,200.0,125.0,3.0,3.2,-260,-251,0,0,258,287,388.08492636680603,388.08500242233276,388.08810591697693,388.1031587123871,388.24927592277527,388.24927592277527,388.24927592277527,388.24927592277527,388.24927592277527,388.24927592277527,388.24927592277527,389.7404890060425,3,1.6176915168762207,None,,,,,,,,,,,,,,,,,,24,4,2025-02-18_16h05.23.224,comp,2024.2.4,58.04196597719727,2025-02-18 16h05.35.515796 -0500,
83,83,0,critical,dhw,35.0,3.0,upper,127.0,127.0,200.0,125.0,125.0,200.0,2,1.3066468238830566,None,,,,,0,0,0,0,0,83,83,51,389.7577245235443,,,,,,,,,,,,,,,,,,,,,,,,,,,,,,,,,,,,,,,,,,,,,,,,,,,,,,,,,,,,,,,,,,,,,,,,,,,,,,,,,127.0,127.0,200.0,125.0,125.0,200.0,3.0,3.1,-222,261,0,4,258,-289,389.7420492172241,389.74212551116943,389.7451238632202,389.7577245235443,389.900089263916,389.900089263916,389.900089263916,389.900089263916,389.900089263916,389.900089263916,389.900089263916,391.08266949653625,2,1.3066468238830566,None,,,,,,,,,,,,,,,,,,24,4,2025-02-18_16h05.23.224,comp,2024.2.4,58.04196597719727,2025-02-18 16h05.35.515796 -0500,
84,84,0,critical,whd,35.0,2.1,lower,57.0,133.0,133.0,57.0,70.0,70.0,3,1.837796688079834,None,,,,,0,0,0,0,0,84,84,36,391.0985224246979,,,,,,,,,,,,,,,,,,,,,,,,,,,,,,,,,,,,,,,,,,,,,,,,,,,,,,,,,,,,,,,,,,,,,,,,,,,,,,,,,57.0,133.0,133.0,57.0,70.0,70.0,2.1,2.12,-191,-251,0,-286,160,276,391.0841565132141,391.0842318534851,391.0872588157654,391.0985224246979,391.2544343471527,391.2544343471527,391.2544343471527,391.2544343471527,391.2544343471527,391.2544343471527,391.2544343471527,392.9500849246979,3,1.837796688079834,None,,,,,,,,,,,,,,,,,,24,4,2025-02-18_16h05.23.224,comp,2024.2.4,58.04196597719727,2025-02-18 16h05.35.515796 -0500,
85,85,0,critical,hwd,35.0,4.0,upper,200.0,125.0,125.0,200.0,127.0,127.0,1,4.282820463180542,None,,,,,0,0,0,0,0,85,85,101,392.9659743309021,,,,,,,,,,,,,,,,,,,,,,,,,,,,,,,,,,,,,,,,,,,,,,,,,,,,,,,,,,,,,,,,,,,,,,,,,,,,,,,,,200.0,125.0,125.0,200.0,127.0,127.0,4.0,4.1,-258,-260,0,-14,260,-273,392.95154762268066,392.9516189098358,392.95468401908875,392.9659743309021,393.1070122718811,393.1070122718811,393.1070122718811,393.1070122718811,393.1070122718811,393.1070122718811,393.1070122718811,397.2570450305939,1,4.282820463180542,None,,,,,,,,,,,,,,,,,,24,4,2025-02-18_16h05.23.224,comp,2024.2.4,58.04196597719727,2025-02-18 16h05.35.515796 -0500,
86,86,0,filler_square,None,None,None,None,None,None,None,None,None,None,3,4.1388068199157715,None,,,,,0,0,0,0,0,86,86,199,397.27748250961304,,,,,,,,,,,,,,,,,,,,,,,,,,,,,,,,,,,,,,,,,,,,,,,,,,,,,,,,,,,,,,,,,,,,,,,,,,,,,,,,,62.25680847949976,61.68528800712203,63.63292010263386,63.63292010263386,62.975715070145206,59.91767202339617,2.2,2.21,-159,-260,0,269,158,278,397.2588441371918,397.2589201927185,397.26182770729065,397.27748250961304,397.41878724098206,397.41878724098206,397.41878724098206,397.41878724098206,397.41878724098206,397.41878724098206,397.41878724098206,401.4203095436096,3,4.1388068199157715,None,,,,,,,,,,,,,,,,,,24,4,2025-02-18_16h05.23.224,comp,2024.2.4,58.04196597719727,2025-02-18 16h05.35.515796 -0500,
87,87,0,filler_random,None,None,None,None,None,None,None,None,None,None,1,2.9009711742401123,None,,,,,0,0,0,0,0,87,87,134,401.4363040924072,,,,,,,,,,,,,,,,,,,,,,,,,,,,,,,,,,,,,,,,,,,,,,,,,,,,,,,,,,,,,,,,,,,,,,,,,,,,,,,,,187.89107377810052,137.642536730691,78.87174538290701,95.21507818375103,81.51178533707632,177.17014258666282,2.1,2.12,-212,-284,0,-251,232,264,401.42206048965454,401.4221408367157,401.4255576133728,401.4363040924072,401.5948214530945,401.5948214530945,401.5948214530945,401.5948214530945,401.5948214530945,401.5948214530945,401.5948214530945,404.3561635017395,1,2.9009711742401123,None,,,,,,,,,,,,,,,,,,24,4,2025-02-18_16h05.23.224,comp,2024.2.4,58.04196597719727,2025-02-18 16h05.35.515796 -0500,
88,88,0,filler_random,None,None,None,None,None,None,None,None,None,None,2,1.0919861793518066,None,,,,,0,0,0,0,0,88,88,155,404.3722405433655,,,,,,,,,,,,,,,,,,,,,,,,,,,,,,,,,,,,,,,,,,,,,,,,,,,,,,,,,,,,,,,,,,,,,,,,,,,,,,,,,68.60031270484049,125.46918697983604,194.3811207847171,187.6672301453099,67.90749113551931,173.51158614843803,3.0,3.1,-253,275,0,-3,277,-256,404.3580720424652,404.35820293426514,404.361937046051,404.3722405433655,404.5215804576874,404.5215804576874,404.5215804576874,404.5215804576874,404.5215804576874,404.5215804576874,404.5215804576874,405.4783310890198,2,1.0919861793518066,None,,,,,,,,,,,,,,,,,,24,4,2025-02-18_16h05.23.224,comp,2024.2.4,58.04196597719727,2025-02-18 16h05.35.515796 -0500,
89,89,0,catch,None,None,None,None,None,None,None,None,None,None,1,1.258760929107666,None,,,,,0,0,0,0,0,89,89,128,405.49447894096375,,,,,,,,,,,,,,,,,,,,,,,,,,,,,,,,,,,,,,,,,,,,,,,,,,,,,,,,,,,,,,,,,,,,,,,,,,,,,,,,,131,194,86,104,88,102,3.0,3.2,-245,-257,0,-14,199,280,405.48039412498474,405.4804735183716,405.48340106010437,405.49447894096375,405.6362524032593,405.6362524032593,405.6362524032593,405.6362524032593,405.6362524032593,405.6362524032593,405.6362524032593,406.75814747810364,1,1.258760929107666,None,,,,,,,,,,,,,,,,,,24,4,2025-02-18_16h05.23.224,comp,2024.2.4,58.04196597719727,2025-02-18 16h05.35.515796 -0500,
90,90,0,critical,hwd,35.0,2.1,upper,200.0,125.0,125.0,200.0,127.0,127.0,2,1.2015650272369385,None,,,,,0,0,0,0,0,90,90,41,406.77467346191406,,,,,,,,,,,,,,,,,,,,,,,,,,,,,,,,,,,,,,,,,,,,,,,,,,,,,,,,,,,,,,,,,,,,,,,,,,,,,,,,,200.0,125.0,125.0,200.0,127.0,127.0,2.1,2.11,-258,285,0,277,260,-274,406.76027941703796,406.7603585720062,406.76329469680786,406.77467346191406,406.9237148761749,406.9237148761749,406.9237148761749,406.9237148761749,406.9237148761749,406.9237148761749,406.9237148761749,407.9872965812683,2,1.2015650272369385,None,,,,,,,,,,,,,,,,,,24,4,2025-02-18_16h05.23.224,comp,2024.2.4,58.04196597719727,2025-02-18 16h05.35.515796 -0500,
91,91,0,critical,dhw,20.0,2.1,upper,141.0,141.0,200.0,125.0,125.0,200.0,3,3.2794673442840576,None,,,,,0,0,0,0,0,91,91,27,408.00158619880676,,,,,,,,,,,,,,,,,,,,,,,,,,,,,,,,,,,,,,,,,,,,,,,,,,,,,,,,,,,,,,,,,,,,,,,,,,,,,,,,,141.0,141.0,200.0,125.0,125.0,200.0,2.1,2.12,-229,-266,0,-256,258,274,407.98876762390137,407.9888401031494,407.99169993400574,408.00158619880676,408.15642786026,408.15642786026,408.15642786026,408.15642786026,408.15642786026,408.15642786026,408.15642786026,411.2896237373352,3,3.2794673442840576,None,,,,,,,,,,,,,,,,,,24,4,2025-02-18_16h05.23.224,comp,2024.2.4,58.04196597719727,2025-02-18 16h05.35.515796 -0500,
92,92,0,filler_square,None,None,None,None,None,None,None,None,None,None,1,1.286623477935791,None,,,,,0,0,0,0,0,92,92,190,411.3061316013336,,,,,,,,,,,,,,,,,,,,,,,,,,,,,,,,,,,,,,,,,,,,,,,,,,,,,,,,,,,,,,,,,,,,,,,,,,,,,,,,,178.5869584176067,178.5869584176067,137.16102691839075,121.7562240569532,82.13411734970559,154.16714100394603,3.0,3.1,-246,266,0,6,234,-252,411.2913510799408,411.29142689704895,411.29440426826477,411.3061316013336,411.46086859703064,411.46086859703064,411.46086859703064,411.46086859703064,411.46086859703064,411.46086859703064,411.46086859703064,412.6135094165802,1,1.286623477935791,None,,,,,,,,,,,,,,,,,,24,4,2025-02-18_16h05.23.224,comp,2024.2.4,58.04196597719727,2025-02-18 16h05.35.515796 -0500,
93,93,0,critical,hwd,20.0,2.1,upper,200.0,125.0,125.0,200.0,141.0,141.0,1,1.401975393295288,None,,,,,0,0,0,0,0,93,93,19,412.63087129592896,,,,,,,,,,,,,,,,,,,,,,,,,,,,,,,,,,,,,,,,,,,,,,,,,,,,,,,,,,,,,,,,,,,,,,,,,,,,,,,,,200.0,125.0,125.0,200.0,141.0,141.0,2.1,2.11,-258,266,0,285,266,-264,412.6150074005127,412.61508345603943,412.6180546283722,412.63087129592896,412.7741620540619,412.7741620540619,412.7741620540619,412.7741620540619,412.7741620540619,412.7741620540619,412.7741620540619,414.03955459594727,1,1.401975393295288,None,,,,,,,,,,,,,,,,,,24,4,2025-02-18_16h05.23.224,comp,2024.2.4,58.04196597719727,2025-02-18 16h05.35.515796 -0500,
94,94,0,critical,dhw,20.0,4.0,lower,78.0,78.0,133.0,57.0,57.0,133.0,3,2.224552869796753,None,,,,,0,0,0,0,0,94,94,58,414.05566906929016,,,,,,,,,,,,,,,,,,,,,,,,,,,,,,,,,,,,,,,,,,,,,,,,,,,,,,,,,,,,,,,,,,,,,,,,,,,,,,,,,78.0,78.0,133.0,57.0,57.0,133.0,4.0,4.1,-164,-277,0,11,191,-257,414.04106187820435,414.04113817214966,414.0440483093262,414.05566906929016,414.2076017856598,414.2076017856598,414.2076017856598,414.2076017856598,414.2076017856598,414.2076017856598,414.2076017856598,416.2971098423004,3,2.224552869796753,None,,,,,,,,,,,,,,,,,,24,4,2025-02-18_16h05.23.224,comp,2024.2.4,58.04196597719727,2025-02-18 16h05.35.515796 -0500,
95,95,0,filler_random,None,None,None,None,None,None,None,None,None,None,3,2.5240514278411865,None,,,,,0,0,0,0,0,95,95,143,416.3171224594116,,,,,,,,,,,,,,,,,,,,,,,,,,,,,,,,,,,,,,,,,,,,,,,,,,,,,,,,,,,,,,,,,,,,,,,,,,,,,,,,,130.3049681760939,97.64902703409729,134.68013328025262,72.70695786931415,160.6432829610762,61.94795398309793,2.1,2.12,-181,-283,0,-252,163,281,416.29886865615845,416.2989466190338,416.3018796443939,416.3171224594116,416.457795381546,416.457795381546,416.457795381546,416.457795381546,416.457795381546,416.457795381546,416.457795381546,418.8438718318939,3,2.5240514278411865,None,,,,,,,,,,,,,,,,,,24,4,2025-02-18_16h05.23.224,comp,2024.2.4,58.04196597719727,2025-02-18 16h05.35.515796 -0500,
96,96,0,critical,wdh,35.0,2.1,lower,57.0,133.0,70.0,70.0,133.0,57.0,1,2.516549587249756,None,,,,,0,0,0,0,0,96,96,8,418.85976910591125,,,,,,,,,,,,,,,,,,,,,,,,,,,,,,,,,,,,,,,,,,,,,,,,,,,,,,,,,,,,,,,,,,,,,,,,,,,,,,,,,57.0,133.0,70.0,70.0,133.0,57.0,2.1,2.12,-198,-281,0,-288,160,285,418.845502614975,418.84561109542847,418.84904623031616,418.85976910591125,419.00911021232605,419.00911021232605,419.00911021232605,419.00911021232605,419.00911021232605,419.00911021232605,419.00911021232605,421.39280796051025,1,2.516549587249756,None,,,,,,,,,,,,,,,,,,24,4,2025-02-18_16h05.23.224,comp,2024.2.4,58.04196597719727,2025-02-18 16h05.35.515796 -0500,
97,97,0,critical,dwh,35.0,2.1,lower,70.0,70.0,57.0,133.0,133.0,57.0,2,1.5354969501495361,None,,,,,0,0,0,0,0,97,97,28,421.40880393981934,,,,,,,,,,,,,,,,,,,,,,,,,,,,,,,,,,,,,,,,,,,,,,,,,,,,,,,,,,,,,,,,,,,,,,,,,,,,,,,,,70.0,70.0,57.0,133.0,133.0,57.0,2.1,2.12,-198,-282,0,-279,191,257,421.39423060417175,421.3943045139313,421.3974711894989,421.40880393981934,421.556761264801,421.556761264801,421.556761264801,421.556761264801,421.556761264801,421.556761264801,421.556761264801,422.95393657684326,2,1.5354969501495361,None,,,,,,,,,,,,,,,,,,24,4,2025-02-18_16h05.23.224,comp,2024.2.4,58.04196597719727,2025-02-18 16h05.35.515796 -0500,
98,98,0,critical,whd,20.0,3.0,lower,57.0,133.0,133.0,57.0,78.0,78.0,2,3.8946361541748047,None,,,,,0,0,0,0,0,98,98,92,422.96988463401794,,,,,,,,,,,,,,,,,,,,,,,,,,,,,,,,,,,,,,,,,,,,,,,,,,,,,,,,,,,,,,,,,,,,,,,,,,,,,,,,,57.0,133.0,133.0,57.0,78.0,78.0,3.0,3.2,-191,-280,0,19,164,284,422.9554967880249,422.95557403564453,422.95891785621643,422.96988463401794,423.11570978164673,423.11570978164673,423.11570978164673,423.11570978164673,423.11570978164673,423.11570978164673,423.11570978164673,426.86820363998413,2,3.8946361541748047,None,,,,,,,,,,,,,,,,,,24,4,2025-02-18_16h05.23.224,comp,2024.2.4,58.04196597719727,2025-02-18 16h05.35.515796 -0500,
99,99,0,filler_random,None,None,None,None,None,None,None,None,None,None,3,1.8662705421447754,None,,,,,0,0,0,0,0,99,99,144,426.88597321510315,,,,,,,,,,,,,,,,,,,,,,,,,,,,,,,,,,,,,,,,,,,,,,,,,,,,,,,,,,,,,,,,,,,,,,,,,,,,,,,,,105.06179526411138,58.008619654671534,89.0318924705777,170.72054999928034,158.1118633491937,159.37374807305542,2.1,2.12,-210,-263,0,-268,261,253,426.8699457645416,426.87002444267273,426.8729374408722,426.88597321510315,427.0290536880493,427.0290536880493,427.0290536880493,427.0290536880493,427.0290536880493,427.0290536880493,427.0290536880493,428.76487493515015,3,1.8662705421447754,None,,,,,,,,,,,,,,,,,,24,4,2025-02-18_16h05.23.224,comp,2024.2.4,58.04196597719727,2025-02-18 16h05.35.515796 -0500,
100,100,0,critical,hdw,35.0,2.1,lower,133.0,57.0,70.0,70.0,57.0,133.0,1,3.446361780166626,None,,,,,0,0,0,0,0,100,100,44,428.7858591079712,,,,,,,,,,,,,,,,,,,,,,,,,,,,,,,,,,,,,,,,,,,,,,,,,,,,,,,,,,,,,,,,,,,,,,,,,,,,,,,,,133.0,57.0,70.0,70.0,57.0,133.0,2.1,2.11,-160,262,0,273,198,-260,428.76651644706726,428.7665927410126,428.770165681839,428.7858591079712,428.92882537841797,428.92882537841797,428.92882537841797,428.92882537841797,428.92882537841797,428.92882537841797,428.92882537841797,432.2461791038513,1,3.446361780166626,None,,,,,,,,,,,,,,,,,,24,4,2025-02-18_16h05.23.224,comp,2024.2.4,58.04196597719727,2025-02-18 16h05.35.515796 -0500,
101,101,0,critical,wdh,35.0,1.0,lower,57.0,133.0,70.0,70.0,133.0,57.0,3,2.4971725940704346,None,,,,,0,0,0,0,0,101,101,72,432.2638831138611,,,,,,,,,,,,,,,,,,,,,,,,,,,,,,,,,,,,,,,,,,,,,,,,,,,,,,,,,,,,,,,,,,,,,,,,,,,,,,,,,57.0,133.0,70.0,70.0,133.0,57.0,1.0,1.3,282,-258,480,-260,640,-262,432.24770855903625,432.2477865219116,432.2509288787842,432.2638831138611,432.41550874710083,432.41550874710083,432.41550874710083,432.41550874710083,432.41550874710083,432.41550874710083,432.41550874710083,434.7697434425354,3,2.4971725940704346,None,,,,,,,,,,,,,,,,,,24,4,2025-02-18_16h05.23.224,comp,2024.2.4,58.04196597719727,2025-02-18 16h05.35.515796 -0500,
102,102,0,filler_random,None,None,None,None,None,None,None,None,None,None,3,1.6349585056304932,None,,,,,0,0,0,0,0,102,102,132,434.7900981903076,,,,,,,,,,,,,,,,,,,,,,,,,,,,,,,,,,,,,,,,,,,,,,,,,,,,,,,,,,,,,,,,,,,,,,,,,,,,,,,,,145.43545356081225,103.50534441600576,122.4125911162976,153.07180622992274,161.65888700230346,167.13647748042678,4.0,4.1,-224,-277,0,0,256,-266,434.77141308784485,434.77149271965027,434.7744324207306,434.7900981903076,434.9312391281128,434.9312391281128,434.9312391281128,434.9312391281128,434.9312391281128,434.9312391281128,434.9312391281128,436.4304986000061,3,1.6349585056304932,None,,,,,,,,,,,,,,,,,,24,4,2025-02-18_16h05.23.224,comp,2024.2.4,58.04196597719727,2025-02-18 16h05.35.515796 -0500,
103,103,0,filler_square,None,None,None,None,None,None,None,None,None,None,3,0.7012085914611816,None,,,,,0,0,0,0,0,103,103,196,436.4510462284088,,,,,,,,,,,,,,,,,,,,,,,,,,,,,,,,,,,,,,,,,,,,,,,,,,,,,,,,,,,,,,,,,,,,,,,,,,,,,,,,,150.071746957914,104.79458839016517,83.50814116123573,76.49254101982464,168.52907654313586,168.52907654313586,1.0,1.2,-187,-4,0,-9,219,6,436.4323251247406,436.43245458602905,436.4358913898468,436.4510462284088,436.5968904495239,436.5968904495239,436.5968904495239,436.5968904495239,436.5968904495239,436.5968904495239,436.5968904495239,437.1641092300415,3,0.7012085914611816,None,,,,,,,,,,,,,,,,,,24,4,2025-02-18_16h05.23.224,comp,2024.2.4,58.04196597719727,2025-02-18 16h05.35.515796 -0500,
104,104,0,critical,dwh,20.0,3.0,lower,78.0,78.0,57.0,133.0,133.0,57.0,2,1.523090124130249,None,,,,,0,0,0,0,0,104,104,68,437.1892156600952,,,,,,,,,,,,,,,,,,,,,,,,,,,,,,,,,,,,,,,,,,,,,,,,,,,,,,,,,,,,,,,,,,,,,,,,,,,,,,,,,78.0,78.0,57.0,133.0,133.0,57.0,3.0,3.2,-202,-258,0,8,191,286,437.1658260822296,437.1659574508667,437.1693172454834,437.1892156600952,437.33186197280884,437.33186197280884,437.33186197280884,437.33186197280884,437.33186197280884,437.33186197280884,437.33186197280884,438.7226257324219,2,1.523090124130249,None,,,,,,,,,,,,,,,,,,24,4,2025-02-18_16h05.23.224,comp,2024.2.4,58.04196597719727,2025-02-18 16h05.35.515796 -0500,
105,105,0,filler_random,None,None,None,None,None,None,None,None,None,None,2,1.318333625793457,None,,,,,0,0,0,0,0,105,105,150,438.73797512054443,,,,,,,,,,,,,,,,,,,,,,,,,,,,,,,,,,,,,,,,,,,,,,,,,,,,,,,,,,,,,,,,,,,,,,,,,,,,,,,,,121.84385517583071,150.8266020723898,166.1172536937092,134.99087320110203,123.12296334688033,113.13926338347304,2.1,2.12,-239,-280,0,-272,220,260,438.72428369522095,438.7243583202362,438.72725772857666,438.73797512054443,438.8808219432831,438.8808219432831,438.8808219432831,438.8808219432831,438.8808219432831,438.8808219432831,438.8808219432831,440.06744503974915,2,1.318333625793457,None,,,,,,,,,,,,,,,,,,24,4,2025-02-18_16h05.23.224,comp,2024.2.4,58.04196597719727,2025-02-18 16h05.35.515796 -0500,
106,106,0,filler_square,None,None,None,None,None,None,None,None,None,None,1,1.6220099925994873,None,,,,,0,0,0,0,0,106,106,187,440.08388566970825,,,,,,,,,,,,,,,,,,,,,,,,,,,,,,,,,,,,,,,,,,,,,,,,,,,,,,,,,,,,,,,,,,,,,,,,,,,,,,,,,173.69483498997835,173.69483498997835,128.10482017416064,62.61806192333165,152.83857969940982,134.51195876024718,1.0,1.1,-694,278,-480,252,-285,255,440.0697033405304,440.0698432922363,440.0732958316803,440.08388566970825,440.2327084541321,440.2327084541321,440.2327084541321,440.2327084541321,440.2327084541321,440.2327084541321,440.2327084541321,441.7168514728546,1,1.6220099925994873,None,,,,,,,,,,,,,,,,,,24,4,2025-02-18_16h05.23.224,comp,2024.2.4,58.04196597719727,2025-02-18 16h05.35.515796 -0500,
107,107,0,filler_random,None,None,None,None,None,None,None,None,None,None,2,2.0429182052612305,None,,,,,0,0,0,0,0,107,107,158,441.7335970401764,,,,,,,,,,,,,,,,,,,,,,,,,,,,,,,,,,,,,,,,,,,,,,,,,,,,,,,,,,,,,,,,,,,,,,,,,,,,,,,,,141.8079466662212,57.00387315882242,161.8663081693665,105.62557709795098,115.31408933440159,78.25585878722688,4.0,4.2,-177,-10,0,-250,188,-6,441.718866109848,441.71894669532776,441.72250962257385,441.7335970401764,441.8812403678894,441.8812403678894,441.8812403678894,441.8812403678894,441.8812403678894,441.8812403678894,441.8812403678894,443.7867238521576,2,2.0429182052612305,None,,,,,,,,,,,,,,,,,,24,4,2025-02-18_16h05.23.224,comp,2024.2.4,58.04196597719727,2025-02-18 16h05.35.515796 -0500,
108,108,0,filler_random,None,None,None,None,None,None,None,None,None,None,3,3.765998363494873,None,,,,,0,0,0,0,0,108,108,148,443.8023476600647,,,,,,,,,,,,,,,,,,,,,,,,,,,,,,,,,,,,,,,,,,,,,,,,,,,,,,,,,,,,,,,,,,,,,,,,,,,,,,,,,81.12846622278147,155.65943087881146,104.40916238768733,145.39731458181313,183.0232417857613,95.87011546569462,1.0,1.3,233,-265,480,-267,697,-289,443.78850769996643,443.78859090805054,443.7915589809418,443.8023476600647,443.9507505893707,443.9507505893707,443.9507505893707,443.9507505893707,443.9507505893707,443.9507505893707,443.9507505893707,447.58412289619446,3,3.765998363494873,None,,,,,,,,,,,,,,,,,,24,4,2025-02-18_16h05.23.224,comp,2024.2.4,58.04196597719727,2025-02-18 16h05.35.515796 -0500,
109,109,0,catch,None,None,None,None,None,None,None,None,None,None,2,1.8719639778137207,None,,,,,0,0,0,0,0,109,109,121,447.6003723144531,,,,,,,,,,,,,,,,,,,,,,,,,,,,,,,,,,,,,,,,,,,,,,,,,,,,,,,,,,,,,,,,,,,,,,,,,,,,,,,,,68,122,194,131,79,111,3.0,3.2,-222,-261,0,-13,217,256,447.5860593318939,447.58613681793213,447.589257478714,447.6003723144531,447.7542381286621,447.7542381286621,447.7542381286621,447.7542381286621,447.7542381286621,447.7542381286621,447.7542381286621,449.4886956214905,2,1.8719639778137207,None,,,,,,,,,,,,,,,,,,24,4,2025-02-18_16h05.23.224,comp,2024.2.4,58.04196597719727,2025-02-18 16h05.35.515796 -0500,
110,110,0,filler_random,None,None,None,None,None,None,None,None,None,None,2,2.7047479152679443,None,,,,,0,0,0,0,0,110,110,163,449.50418305397034,,,,,,,,,,,,,,,,,,,,,,,,,,,,,,,,,,,,,,,,,,,,,,,,,,,,,,,,,,,,,,,,,,,,,,,,,,,,,,,,,171.0591584586043,58.16933729047694,115.76158923685387,187.15704479079412,116.332646396365,125.22646519967793,2.2,2.21,-219,-269,0,288,252,259,449.49044728279114,449.49052381515503,449.49384665489197,449.50418305397034,449.6566104888916,449.6566104888916,449.6566104888916,449.6566104888916,449.6566104888916,449.6566104888916,449.6566104888916,452.22215938568115,2,2.7047479152679443,None,,,,,,,,,,,,,,,,,,24,4,2025-02-18_16h05.23.224,comp,2024.2.4,58.04196597719727,2025-02-18 16h05.35.515796 -0500,
111,111,0,critical,dwh,35.0,1.0,upper,127.0,127.0,125.0,200.0,200.0,125.0,2,1.2546155452728271,None,,,,,0,0,0,0,0,111,111,61,452.2416090965271,,,,,,,,,,,,,,,,,,,,,,,,,,,,,,,,,,,,,,,,,,,,,,,,,,,,,,,,,,,,,,,,,,,,,,,,,,,,,,,,,127.0,127.0,125.0,200.0,200.0,125.0,1.0,1.3,220,-261,480,-255,738,-274,452.2237980365753,452.22388195991516,452.2269926071167,452.2416090965271,452.387079000473,452.387079000473,452.387079000473,452.387079000473,452.387079000473,452.387079000473,452.387079000473,453.50574564933777,2,1.2546155452728271,None,,,,,,,,,,,,,,,,,,24,4,2025-02-18_16h05.23.224,comp,2024.2.4,58.04196597719727,2025-02-18 16h05.35.515796 -0500,
112,112,0,critical,dhw,35.0,2.1,upper,127.0,127.0,200.0,125.0,125.0,200.0,2,1.559509515762329,None,,,,,0,0,0,0,0,112,112,1,453.52303814888,,,,,,,,,,,,,,,,,,,,,,,,,,,,,,,,,,,,,,,,,,,,,,,,,,,,,,,,,,,,,,,,,,,,,,,,,,,,,,,,,127.0,127.0,200.0,125.0,125.0,200.0,2.1,2.12,-222,-276,0,-270,258,255,453.5074415206909,453.50757575035095,453.5109784603119,453.52303814888,453.67282223701477,453.67282223701477,453.67282223701477,453.67282223701477,453.67282223701477,453.67282223701477,453.67282223701477,455.08602237701416,2,1.559509515762329,None,,,,,,,,,,,,,,,,,,24,4,2025-02-18_16h05.23.224,comp,2024.2.4,58.04196597719727,2025-02-18 16h05.35.515796 -0500,
113,113,0,catch,None,None,None,None,None,None,None,None,None,None,1,1.0895195007324219,None,,,,,0,0,0,0,0,113,113,129,455.10297417640686,,,,,,,,,,,,,,,,,,,,,,,,,,,,,,,,,,,,,,,,,,,,,,,,,,,,,,,,,,,,,,,,,,,,,,,,,,,,,,,,,157,168,130,60,133,57,2.1,2.11,-210,262,0,271,154,-275,455.0879726409912,455.0880515575409,455.09119153022766,455.10297417640686,455.25081396102905,455.25081396102905,455.25081396102905,455.25081396102905,455.25081396102905,455.25081396102905,455.25081396102905,456.20324993133545,1,1.0895195007324219,None,,,,,,,,,,,,,,,,,,24,4,2025-02-18_16h05.23.224,comp,2024.2.4,58.04196597719727,2025-02-18 16h05.35.515796 -0500,
114,114,0,critical,dhw,35.0,1.0,upper,127.0,127.0,200.0,125.0,125.0,200.0,3,1.4694414138793945,None,,,,,0,0,0,0,0,114,114,49,456.21912693977356,,,,,,,,,,,,,,,,,,,,,,,,,,,,,,,,,,,,,,,,,,,,,,,,,,,,,,,,,,,,,,,,,,,,,,,,,,,,,,,,,127.0,127.0,200.0,125.0,125.0,200.0,1.0,1.1,-702,274,-480,280,-222,285,456.20476937294006,456.20484495162964,456.20790433883667,456.21912693977356,456.3740816116333,456.3740816116333,456.3740816116333,456.3740816116333,456.3740816116333,456.3740816116333,456.3740816116333,457.70586609840393,3,1.4694414138793945,None,,,,,,,,,,,,,,,,,,24,4,2025-02-18_16h05.23.224,comp,2024.2.4,58.04196597719727,2025-02-18 16h05.35.515796 -0500,
115,115,0,critical,hdw,35.0,3.0,upper,200.0,125.0,127.0,127.0,125.0,200.0,1,2.2544610500335693,None,,,,,0,0,0,0,0,115,115,111,457.7215356826782,,,,,,,,,,,,,,,,,,,,,,,,,,,,,,,,,,,,,,,,,,,,,,,,,,,,,,,,,,,,,,,,,,,,,,,,,,,,,,,,,200.0,125.0,127.0,127.0,125.0,200.0,3.0,3.1,-222,263,0,-7,260,-266,457.7074782848358,457.7075536251068,457.71116375923157,457.7215356826782,457.8719847202301,457.8719847202301,457.8719847202301,457.8719847202301,457.8719847202301,457.8719847202301,457.8719847202301,459.98657274246216,1,2.2544610500335693,None,,,,,,,,,,,,,,,,,,24,4,2025-02-18_16h05.23.224,comp,2024.2.4,58.04196597719727,2025-02-18 16h05.35.515796 -0500,
116,116,0,filler_square,None,None,None,None,None,None,None,None,None,None,1,2.5899672508239746,None,,,,,0,0,0,0,0,116,116,178,460.0023443698883,,,,,,,,,,,,,,,,,,,,,,,,,,,,,,,,,,,,,,,,,,,,,,,,,,,,,,,,,,,,,,,,,,,,,,,,,,,,,,,,,66.71952794226554,66.71952794226554,66.07921455022444,65.90340522119944,62.66156403948424,59.58766726559914,2.1,2.11,-162,262,0,260,159,-251,459.98827838897705,459.98835587501526,459.99131441116333,460.0023443698883,460.1564590930939,460.1564590930939,460.1564590930939,460.1564590930939,460.1564590930939,460.1564590930939,460.1564590930939,462.605103969574,1,2.5899672508239746,None,,,,,,,,,,,,,,,,,,24,4,2025-02-18_16h05.23.224,comp,2024.2.4,58.04196597719727,2025-02-18 16h05.35.515796 -0500,
117,117,0,critical,hdw,20.0,3.0,upper,200.0,125.0,141.0,141.0,125.0,200.0,1,1.7960138320922852,None,,,,,0,0,0,0,0,117,117,117,462.62122535705566,,,,,,,,,,,,,,,,,,,,,,,,,,,,,,,,,,,,,,,,,,,,,,,,,,,,,,,,,,,,,,,,,,,,,,,,,,,,,,,,,200.0,125.0,141.0,141.0,125.0,200.0,3.0,3.2,-229,-278,0,9,266,268,462.6065971851349,462.60671973228455,462.6099407672882,462.62122535705566,462.7731411457062,462.7731411457062,462.7731411457062,462.7731411457062,462.7731411457062,462.7731411457062,462.7731411457062,464.4226784706116,1,1.7960138320922852,None,,,,,,,,,,,,,,,,,,24,4,2025-02-18_16h05.23.224,comp,2024.2.4,58.04196597719727,2025-02-18 16h05.35.515796 -0500,
118,118,0,critical,dhw,20.0,3.0,upper,141.0,141.0,200.0,125.0,125.0,200.0,2,1.0732009410858154,None,,,,,0,0,0,0,0,118,118,57,464.43943548202515,,,,,,,,,,,,,,,,,,,,,,,,,,,,,,,,,,,,,,,,,,,,,,,,,,,,,,,,,,,,,,,,,,,,,,,,,,,,,,,,,141.0,141.0,200.0,125.0,125.0,200.0,3.0,3.2,-229,-280,0,7,258,256,464.4243428707123,464.4244222640991,464.4281904697418,464.43943548202515,464.59101581573486,464.59101581573486,464.59101581573486,464.59101581573486,464.59101581573486,464.59101581573486,464.59101581573486,465.53060364723206,2,1.0732009410858154,None,,,,,,,,,,,,,,,,,,24,4,2025-02-18_16h05.23.224,comp,2024.2.4,58.04196597719727,2025-02-18 16h05.35.515796 -0500,
119,119,0,filler_square,None,None,None,None,None,None,None,None,None,None,1,2.7199196815490723,None,,,,,0,0,0,0,0,119,119,184,465.5457384586334,,,,,,,,,,,,,,,,,,,,,,,,,,,,,,,,,,,,,,,,,,,,,,,,,,,,,,,,,,,,,,,,,,,,,,,,,,,,,,,,,106.19466860194663,106.19466860194663,97.82970252732059,80.58051840400891,68.13707150938377,70.99799575212198,1.0,1.2,-189,3,0,-4,172,20,465.5323371887207,465.53241205215454,465.53539419174194,465.5457384586334,465.6906099319458,465.6906099319458,465.6906099319458,465.6906099319458,465.6906099319458,465.6906099319458,465.6906099319458,468.2758626937866,1,2.7199196815490723,None,,,,,,,,,,,,,,,,,,24,4,2025-02-18_16h05.23.224,comp,2024.2.4,58.04196597719727,2025-02-18 16h05.35.515796 -0500,
120,120,0,critical,hdw,20.0,2.1,lower,133.0,57.0,78.0,78.0,57.0,133.0,1,4.804419755935669,None,,,,,0,0,0,0,0,120,120,22,468.29200983047485,,,,,,,,,,,,,,,,,,,,,,,,,,,,,,,,,,,,,,,,,,,,,,,,,,,,,,,,,,,,,,,,,,,,,,,,,,,,,,,,,133.0,57.0,78.0,78.0,57.0,133.0,2.1,2.12,-164,-275,0,-272,202,252,468.2774224281311,468.2775161266327,468.2811789512634,468.29200983047485,468.4455814361572,468.4455814361572,468.4455814361572,468.4455814361572,468.4455814361572,468.4455814361572,468.4455814361572,473.1097869873047,1,4.804419755935669,None,,,,,,,,,,,,,,,,,,24,4,2025-02-18_16h05.23.224,comp,2024.2.4,58.04196597719727,2025-02-18 16h05.35.515796 -0500,
121,121,0,critical,wdh,35.0,1.0,upper,125.0,200.0,127.0,127.0,200.0,125.0,3,0.9795348644256592,None,,,,,0,0,0,0,0,121,121,73,473.1254858970642,,,,,,,,,,,,,,,,,,,,,,,,,,,,,,,,,,,,,,,,,,,,,,,,,,,,,,,,,,,,,,,,,,,,,,,,,,,,,,,,,125.0,200.0,127.0,127.0,200.0,125.0,1.0,1.1,-740,288,-480,282,-258,274,473.11152148246765,473.11168098449707,473.1151657104492,473.1254858970642,473.2744047641754,473.2744047641754,473.2744047641754,473.2744047641754,473.2744047641754,473.2744047641754,473.2744047641754,474.11045956611633,3,0.9795348644256592,None,,,,,,,,,,,,,,,,,,24,4,2025-02-18_16h05.23.224,comp,2024.2.4,58.04196597719727,2025-02-18 16h05.35.515796 -0500,
122,122,0,critical,dhw,35.0,4.0,lower,70.0,70.0,133.0,57.0,57.0,133.0,3,2.0507383346557617,None,,,,,0,0,0,0,0,122,122,52,474.12617015838623,,,,,,,,,,,,,,,,,,,,,,,,,,,,,,,,,,,,,,,,,,,,,,,,,,,,,,,,,,,,,,,,,,,,,,,,,,,,,,,,,70.0,70.0,133.0,57.0,57.0,133.0,4.0,4.1,-160,-289,0,-1,191,-254,474.11204767227173,474.1121265888214,474.1155676841736,474.12617015838623,474.2774567604065,474.2774567604065,474.2774567604065,474.2774567604065,474.2774567604065,474.2774567604065,474.2774567604065,476.1846694946289,3,2.0507383346557617,None,,,,,,,,,,,,,,,,,,24,4,2025-02-18_16h05.23.224,comp,2024.2.4,58.04196597719727,2025-02-18 16h05.35.515796 -0500,
123,123,0,critical,hwd,20.0,4.0,lower,133.0,57.0,57.0,133.0,78.0,78.0,1,2.4836947917938232,None,,,,,0,0,0,0,0,123,123,106,476.2053759098053,,,,,,,,,,,,,,,,,,,,,,,,,,,,,,,,,,,,,,,,,,,,,,,,,,,,,,,,,,,,,,,,,,,,,,,,,,,,,,,,,133.0,57.0,57.0,133.0,78.0,78.0,4.0,4.1,-191,-277,0,-19,202,-274,476.1862440109253,476.18632531166077,476.18970489501953,476.2053759098053,476.3447787761688,476.3447787761688,476.3447787761688,476.3447787761688,476.3447787761688,476.3447787761688,476.3447787761688,478.69717264175415,1,2.4836947917938232,None,,,,,,,,,,,,,,,,,,24,4,2025-02-18_16h05.23.224,comp,2024.2.4,58.04196597719727,2025-02-18 16h05.35.515796 -0500,
124,124,0,critical,whd,35.0,2.1,upper,125.0,200.0,200.0,125.0,127.0,127.0,2,1.0743587017059326,None,,,,,0,0,0,0,0,124,124,13,478.7179250717163,,,,,,,,,,,,,,,,,,,,,,,,,,,,,,,,,,,,,,,,,,,,,,,,,,,,,,,,,,,,,,,,,,,,,,,,,,,,,,,,,125.0,200.0,200.0,125.0,127.0,127.0,2.1,2.12,-258,-280,0,-280,222,268,478.69891595840454,478.699054479599,478.70233631134033,478.7179250717163,478.8610944747925,478.8610944747925,478.8610944747925,478.8610944747925,478.8610944747925,478.8610944747925,478.8610944747925,479.8109459877014,2,1.0743587017059326,None,,,,,,,,,,,,,,,,,,24,4,2025-02-18_16h05.23.224,comp,2024.2.4,58.04196597719727,2025-02-18 16h05.35.515796 -0500,
125,125,0,filler_square,None,None,None,None,None,None,None,None,None,None,1,1.2699923515319824,None,,,,,0,0,0,0,0,125,125,182,479.8264317512512,,,,,,,,,,,,,,,,,,,,,,,,,,,,,,,,,,,,,,,,,,,,,,,,,,,,,,,,,,,,,,,,,,,,,,,,,,,,,,,,,144.78725087970759,144.78725087970759,97.01511521116069,91.06580027377262,132.26243471085837,101.3163166270671,3.0,3.2,-214,-290,0,14,192,290,479.8127021789551,479.81277871131897,479.81577134132385,479.8264317512512,479.9805769920349,479.9805769920349,479.9805769920349,479.9805769920349,479.9805769920349,479.9805769920349,479.9805769920349,481.1100254058838,1,1.2699923515319824,None,,,,,,,,,,,,,,,,,,24,4,2025-02-18_16h05.23.224,comp,2024.2.4,58.04196597719727,2025-02-18 16h05.35.515796 -0500,
126,126,0,filler_random,None,None,None,None,None,None,None,None,None,None,2,0.8583309650421143,None,,,,,0,0,0,0,0,126,126,167,481.12604117393494,,,,,,,,,,,,,,,,,,,,,,,,,,,,,,,,,,,,,,,,,,,,,,,,,,,,,,,,,,,,,,,,,,,,,,,,,,,,,,,,,91.93182452187298,132.65815333552155,113.04730181696013,159.92787656195355,91.70345329322585,68.21865339014668,3.0,3.1,-242,280,0,14,210,-288,481.111741065979,481.1118197441101,481.1147258281708,481.12604117393494,481.2817554473877,481.2817554473877,481.2817554473877,481.2817554473877,481.2817554473877,481.2817554473877,481.2817554473877,481.99480652809143,2,0.8583309650421143,None,,,,,,,,,,,,,,,,,,24,4,2025-02-18_16h05.23.224,comp,2024.2.4,58.04196597719727,2025-02-18 16h05.35.515796 -0500,
127,127,0,critical,wdh,20.0,2.1,upper,125.0,200.0,141.0,141.0,200.0,125.0,3,2.148542642593384,None,,,,,0,0,0,0,0,127,127,11,482.01262164115906,,,,,,,,,,,,,,,,,,,,,,,,,,,,,,,,,,,,,,,,,,,,,,,,,,,,,,,,,,,,,,,,,,,,,,,,,,,,,,,,,125.0,200.0,141.0,141.0,200.0,125.0,2.1,2.11,-266,262,0,253,229,-272,481.9962990283966,481.99637722969055,481.9995822906494,482.01262164115906,482.16374230384827,482.16374230384827,482.16374230384827,482.16374230384827,482.16374230384827,482.16374230384827,482.16374230384827,484.16901302337646,3,2.148542642593384,None,,,,,,,,,,,,,,,,,,24,4,2025-02-18_16h05.23.224,comp,2024.2.4,58.04196597719727,2025-02-18 16h05.35.515796 -0500,
128,128,0,critical,wdh,35.0,4.0,lower,57.0,133.0,70.0,70.0,133.0,57.0,3,4.3357696533203125,None,,,,,0,0,0,0,0,128,128,76,484.1852638721466,,,,,,,,,,,,,,,,,,,,,,,,,,,,,,,,,,,,,,,,,,,,,,,,,,,,,,,,,,,,,,,,,,,,,,,,,,,,,,,,,57.0,133.0,70.0,70.0,133.0,57.0,4.0,4.1,-198,-272,0,-5,160,-257,484.17050981521606,484.1705904006958,484.1745307445526,484.1852638721466,484.33314657211304,484.33314657211304,484.33314657211304,484.33314657211304,484.33314657211304,484.33314657211304,484.33314657211304,488.531977891922,3,4.3357696533203125,None,,,,,,,,,,,,,,,,,,24,4,2025-02-18_16h05.23.224,comp,2024.2.4,58.04196597719727,2025-02-18 16h05.35.515796 -0500,
129,129,0,critical,dhw,20.0,1.0,upper,141.0,141.0,200.0,125.0,125.0,200.0,3,1.5411794185638428,None,,,,,0,0,0,0,0,129,129,55,488.54770588874817,,,,,,,,,,,,,,,,,,,,,,,,,,,,,,,,,,,,,,,,,,,,,,,,,,,,,,,,,,,,,,,,,,,,,,,,,,,,,,,,,141.0,141.0,200.0,125.0,125.0,200.0,1.0,1.2,-229,-14,0,18,258,9,488.53346610069275,488.5335433483124,488.5369906425476,488.54770588874817,488.70802903175354,488.70802903175354,488.70802903175354,488.70802903175354,488.70802903175354,488.70802903175354,488.70802903175354,490.1043131351471,3,1.5411794185638428,None,,,,,,,,,,,,,,,,,,24,4,2025-02-18_16h05.23.224,comp,2024.2.4,58.04196597719727,2025-02-18 16h05.35.515796 -0500,
130,130,0,critical,whd,35.0,1.0,upper,125.0,200.0,200.0,125.0,127.0,127.0,2,1.00911545753479,None,,,,,0,0,0,0,0,130,130,85,490.1197226047516,,,,,,,,,,,,,,,,,,,,,,,,,,,,,,,,,,,,,,,,,,,,,,,,,,,,,,,,,,,,,,,,,,,,,,,,,,,,,,,,,125.0,200.0,200.0,125.0,127.0,127.0,1.0,1.3,222,-263,480,-264,702,-281,490.1058883666992,490.10596799850464,490.10895681381226,490.1197226047516,490.2646884918213,490.2646884918213,490.2646884918213,490.2646884918213,490.2646884918213,490.2646884918213,490.2646884918213,491.14789843559265,2,1.00911545753479,None,,,,,,,,,,,,,,,,,,24,4,2025-02-18_16h05.23.224,comp,2024.2.4,58.04196597719727,2025-02-18 16h05.35.515796 -0500,
131,131,0,critical,wdh,35.0,3.0,lower,57.0,133.0,70.0,70.0,133.0,57.0,1,2.4765913486480713,None,,,,,0,0,0,0,0,131,131,74,491.16473937034607,,,,,,,,,,,,,,,,,,,,,,,,,,,,,,,,,,,,,,,,,,,,,,,,,,,,,,,,,,,,,,,,,,,,,,,,,,,,,,,,,57.0,133.0,70.0,70.0,133.0,57.0,3.0,3.2,-198,-267,0,-11,160,281,491.1493878364563,491.1494665145874,491.1526687145233,491.16473937034607,491.32207584381104,491.32207584381104,491.32207584381104,491.32207584381104,491.32207584381104,491.32207584381104,491.32207584381104,493.64845848083496,1,2.4765913486480713,None,,,,,,,,,,,,,,,,,,24,4,2025-02-18_16h05.23.224,comp,2024.2.4,58.04196597719727,2025-02-18 16h05.35.515796 -0500,
132,132,0,filler_square,None,None,None,None,None,None,None,None,None,None,1,1.319242238998413,None,,,,,0,0,0,0,0,132,132,185,493.6651883125305,,,,,,,,,,,,,,,,,,,,,,,,,,,,,,,,,,,,,,,,,,,,,,,,,,,,,,,,,,,,,,,,,,,,,,,,,,,,,,,,,118.17311610183974,118.17311610183974,67.58360510217176,61.747825995805,89.99482826086194,93.00683762044343,3.0,3.2,-186,-252,0,4,173,269,493.6502857208252,493.65036606788635,493.65345525741577,493.6651883125305,493.81674432754517,493.81674432754517,493.81674432754517,493.81674432754517,493.81674432754517,493.81674432754517,493.81674432754517,494.987521648407,1,1.319242238998413,None,,,,,,,,,,,,,,,,,,24,4,2025-02-18_16h05.23.224,comp,2024.2.4,58.04196597719727,2025-02-18 16h05.35.515796 -0500,
133,133,0,filler_square,None,None,None,None,None,None,None,None,None,None,2,1.109424352645874,None,,,,,0,0,0,0,0,133,133,208,495.00398087501526,,,,,,,,,,,,,,,,,,,,,,,,,,,,,,,,,,,,,,,,,,,,,,,,,,,,,,,,,,,,,,,,,,,,,,,,,,,,,,,,,83.3172925191915,62.65074146563333,150.19641027859782,150.19641027859782,147.90151772236078,72.34860690243096,3.0,3.2,-202,-286,0,-13,207,250,494.9896774291992,494.98976278305054,494.99325370788574,495.00398087501526,495.1514365673065,495.1514365673065,495.1514365673065,495.1514365673065,495.1514365673065,495.1514365673065,495.1514365673065,496.1329665184021,2,1.109424352645874,None,,,,,,,,,,,,,,,,,,24,4,2025-02-18_16h05.23.224,comp,2024.2.4,58.04196597719727,2025-02-18 16h05.35.515796 -0500,
134,134,0,critical,hdw,20.0,2.1,lower,133.0,57.0,78.0,78.0,57.0,133.0,3,4.5307440757751465,None,,,,,0,0,0,0,0,134,134,46,496.1497395038605,,,,,,,,,,,,,,,,,,,,,,,,,,,,,,,,,,,,,,,,,,,,,,,,,,,,,,,,,,,,,,,,,,,,,,,,,,,,,,,,,133.0,57.0,78.0,78.0,57.0,133.0,2.1,2.11,-164,286,0,280,202,-285,496.1346118450165,496.13475608825684,496.13831782341003,496.1497395038605,496.2985944747925,496.2985944747925,496.2985944747925,496.2985944747925,496.2985944747925,496.2985944747925,496.2985944747925,500.68484902381897,3,4.5307440757751465,None,,,,,,,,,,,,,,,,,,24,4,2025-02-18_16h05.23.224,comp,2024.2.4,58.04196597719727,2025-02-18 16h05.35.515796 -0500,
135,135,0,critical,wdh,35.0,4.0,upper,125.0,200.0,127.0,127.0,200.0,125.0,3,2.8120338916778564,None,,,,,0,0,0,0,0,135,135,77,500.7007339000702,,,,,,,,,,,,,,,,,,,,,,,,,,,,,,,,,,,,,,,,,,,,,,,,,,,,,,,,,,,,,,,,,,,,,,,,,,,,,,,,,125.0,200.0,127.0,127.0,200.0,125.0,4.0,4.1,-260,-278,0,13,222,-263,500.68633937835693,500.6864182949066,500.68996500968933,500.7007339000702,500.8528804779053,500.8528804779053,500.8528804779053,500.8528804779053,500.8528804779053,500.8528804779053,500.8528804779053,503.52147483825684,3,2.8120338916778564,None,,,,,,,,,,,,,,,,,,24,4,2025-02-18_16h05.23.224,comp,2024.2.4,58.04196597719727,2025-02-18 16h05.35.515796 -0500,
136,136,0,filler_square,None,None,None,None,None,None,None,None,None,None,1,3.5098774433135986,None,,,,,0,0,0,0,0,136,136,204,503.5389618873596,,,,,,,,,,,,,,,,,,,,,,,,,,,,,,,,,,,,,,,,,,,,,,,,,,,,,,,,,,,,,,,,,,,,,,,,,,,,,,,,,97.1401894963519,97.1401894963519,78.7480070758611,78.48554185176238,88.19766794585384,67.4599659490554,2.1,2.12,-184,-263,0,-265,169,255,503.52359890937805,503.52372312545776,503.52730774879456,503.5389618873596,503.6826093196869,503.6826093196869,503.6826093196869,503.6826093196869,503.6826093196869,503.6826093196869,503.6826093196869,507.05243611335754,1,3.5098774433135986,None,,,,,,,,,,,,,,,,,,24,4,2025-02-18_16h05.23.224,comp,2024.2.4,58.04196597719727,2025-02-18 16h05.35.515796 -0500,
137,137,0,catch,None,None,None,None,None,None,None,None,None,None,2,0.86594557762146,None,,,,,0,0,0,0,0,137,137,127,507.07036900520325,,,,,,,,,,,,,,,,,,,,,,,,,,,,,,,,,,,,,,,,,,,,,,,,,,,,,,,,,,,,,,,,,,,,,,,,,,,,,,,,,101,89,133,192,105,85,2.1,2.11,-236,284,0,280,234,-264,507.054562330246,507.0546748638153,507.0584089756012,507.07036900520325,507.20995473861694,507.20995473861694,507.20995473861694,507.20995473861694,507.20995473861694,507.20995473861694,507.20995473861694,507.93858075141907,2,0.86594557762146,None,,,,,,,,,,,,,,,,,,24,4,2025-02-18_16h05.23.224,comp,2024.2.4,58.04196597719727,2025-02-18 16h05.35.515796 -0500,
138,138,0,filler_square,None,None,None,None,None,None,None,None,None,None,1,1.7654938697814941,None,,,,,0,0,0,0,0,138,138,173,507.9551742076874,,,,,,,,,,,,,,,,,,,,,,,,,,,,,,,,,,,,,,,,,,,,,,,,,,,,,,,,,,,,,,,,,,,,,,,,,,,,,,,,,76.36764115079183,76.36764115079183,60.18892050070844,61.8952485787063,61.69946533213742,59.22950104309447,2.2,2.21,-165,-267,0,265,157,263,507.94070196151733,507.94083857536316,507.9443509578705,507.9551742076874,508.10430550575256,508.10430550575256,508.10430550575256,508.10430550575256,508.10430550575256,508.10430550575256,508.10430550575256,509.7239456176758,1,1.7654938697814941,None,,,,,,,,,,,,,,,,,,24,4,2025-02-18_16h05.23.224,comp,2024.2.4,58.04196597719727,2025-02-18 16h05.35.515796 -0500,
139,139,0,filler_random,None,None,None,None,None,None,None,None,None,None,1,1.6600871086120605,None,,,,,0,0,0,0,0,139,139,159,509.7407011985779,,,,,,,,,,,,,,,,,,,,,,,,,,,,,,,,,,,,,,,,,,,,,,,,,,,,,,,,,,,,,,,,,,,,,,,,,,,,,,,,,126.97356914556678,103.20011674389323,72.21792597879565,131.05784743423527,90.33622277504747,97.5063315129548,2.2,2.22,-213,279,0,-256,210,-271,509.72631549835205,509.72639632225037,509.72989535331726,509.7407011985779,509.8879864215851,509.8879864215851,509.8879864215851,509.8879864215851,509.8879864215851,509.8879864215851,509.8879864215851,511.4045400619507,1,1.6600871086120605,None,,,,,,,,,,,,,,,,,,24,4,2025-02-18_16h05.23.224,comp,2024.2.4,58.04196597719727,2025-02-18 16h05.35.515796 -0500,
