thisN,thisTrialN,thisRepN,effect,order,distance,config,diag,h_1,w_1,h_2,w_2,h_3,w_3,rect_choice.keys,rect_choice.rt,rect_choice.duration,instructions_loop.thisRepN,instructions_loop.thisTrialN,instructions_loop.thisN,instructions_loop.thisIndex,blocks.thisRepN,blocks.thisTrialN,blocks.thisN,blocks.thisIndex,trials.thisRepN,trials.thisTrialN,trials.thisN,trials.thisIndex,thisRow.t,notes,consent.started,agree_button.started,decline_button.started,consent_img.started,mouse.started,consent.stopped,agree_button.numClicks,agree_button.timesOn,agree_button.timesOff,decline_button.numClicks,decline_button.timesOn,decline_button.timesOff,mouse.x,mouse.y,mouse.leftButton,mouse.midButton,mouse.rightButton,mouse.time,mouse.clicked_name,exp_params.started,exp_params.stopped,welcome.started,welcome_text.started,welcome.stopped,instructions_1.started,instructions_1_text_1.started,instructions_1_text_2.started,key_resp.started,instructions_1.stopped,instructions_loop.key_resp.keys,instructions_loop.key_resp.rt,instructions_loop.key_resp.duration,instructions_2.started,instructions_2_text_1.started,instructions_2_text_2.started,key_resp_2.started,instructions_2.stopped,instructions_loop.key_resp_2.keys,instructions_loop.key_resp_2.rt,instructions_loop.key_resp_2.duration,instructions_3.started,instructions_3_text_1.started,r1_instr3.started,r2_instr3.started,r3_instr3.started,r1_instr3_label.started,r2_instr3_label.started,r3_instr3_label.started,instructions_3_text_3.started,instructions_3_text_4.started,key_resp_3.started,instructions_3.stopped,instructions_loop.key_resp_3.keys,instructions_loop.key_resp_3.rt,instructions_loop.key_resp_3.duration,instructions_4.started,instructions_4_text_1.started,instructions_4_text_3.started,instructions_4_text_2.started,key_resp_4.started,instructions_4.stopped,instructions_loop.key_resp_4.keys,instructions_loop.key_resp_4.rt,instructions_loop.key_resp_4.duration,instructions_5.started,instructions_5_text_1.started,instructions_5_text_2.started,key_resp_5.started,instructions_5.stopped,instructions_loop.key_resp_5.keys,instructions_loop.key_resp_5.rt,instructions_loop.key_resp_5.duration,start_exp.started,start_exp_text.started,key_resp_6.started,start_exp.stopped,key_resp_6.keys,key_resp_6.rt,key_resp_6.duration,h_1_tmp,w_1_tmp,h_2_tmp,w_2_tmp,h_3_tmp,w_3_tmp,config_tmp,config_tmp_1,r_1_x,r_1_y,r_2_x,r_2_y,r_3_x,r_3_y,pre_trial.started,pre_trial.stopped,choice_trial.started,rect_choice.started,r_1.started,r_2.started,r_3.started,r_1_label.started,r_2_label.started,r_3_label.started,prompt.started,choice_trial.stopped,trials.rect_choice.keys,trials.rect_choice.rt,trials.rect_choice.duration,end_block.started,end_block_text.started,end_block.stopped,end.started,end_text.started,key_resp_7.started,end.stopped,key_resp_7.keys,key_resp_7.rt,key_resp_7.duration,debriefing.started,debrief_form.started,end_debrief.started,debriefing.stopped,end_debrief.keys,end_debrief.rt,end_debrief.duration,participant,computer,date,expName,psychopyVersion,frameRate,expStart,
,,,,,,,,,,,,,,,,,,,,,,,,,,,,,,,0.015694141387939453,0.04220175743103027,0.04220175743103027,0.04220175743103027,0.015192031860351562,12.443378210067749,1,[12.399461030960083],[12.399474620819092],0,,,[-74.0],[-514.0],[1],[0],[0],[12.426944732666016],['agree_button'],,,,,,,,,,,,,,,,,,,,,,,,,,,,,,,,,,,,,,,,,,,,,,,,,,,,,,,,,,,,,,,,,,,,,,,,,,,,,,,,,,,,,,,,,,,,,,,,,,,,,,,,,,,25,5,2025-02-18_16h05.40.985,comp,2024.2.4,62.15800385606589,2025-02-18 16h05.51.459320 -0500,
,,,,,,,,,,,,,,,,,,,,,,,,,,,,,,,,,,,,,,,,,,,,,,,,,,12.44374680519104,12.44379472732544,,,,,,,,,,,,,,,,,,,,,,,,,,,,,,,,,,,,,,,,,,,,,,,,,,,,,,,,,,,,,,,,,,,,,,,,,,,,,,,,,,,,,,,,,,,,,,,,,,,,,,,,,25,5,2025-02-18_16h05.40.985,comp,2024.2.4,62.15800385606589,2025-02-18 16h05.51.459320 -0500,
,,,,,,,,,,,,,,,,,,,,,,,,,,,,,,,,,,,,,,,,,,,,,,,,,,,,12.443828821182251,12.457717180252075,14.456071853637695,,,,,,,,,,,,,,,,,,,,,,,,,,,,,,,,,,,,,,,,,,,,,,,,,,,,,,,,,,,,,,,,,,,,,,,,,,,,,,,,,,,,,,,,,,,,,,,,,,,,,,25,5,2025-02-18_16h05.40.985,comp,2024.2.4,62.15800385606589,2025-02-18 16h05.51.459320 -0500,
0,0,0,,,,,,,,,,,,,,,0,0,0,0,,,,,,,,,14.47281789779663,,,,,,,,,,,,,,,,,,,,,,,,,,14.456631898880005,14.47281789779663,14.47281789779663,15.956525564193726,18.490952968597412,space,2.5165328979492188,None,18.491035223007202,18.50615954399109,18.50615954399109,20.006489992141724,25.907058715820312,space,5.883123397827148,None,25.90714430809021,25.92890763282776,25.92890763282776,25.92890763282776,25.92890763282776,25.92890763282776,25.92890763282776,25.92890763282776,25.92890763282776,25.92890763282776,27.40625238418579,29.590922117233276,space,2.178036689758301,None,29.59101128578186,29.606423139572144,29.606423139572144,29.606423139572144,31.10596537590027,33.723593950271606,space,2.6048126220703125,None,33.72368025779724,33.739214181900024,33.739214181900024,35.239198446273804,35.29036736488342,space,0.0335693359375,None,35.29048013687134,35.30590224266052,35.30590224266052,35.84013843536377,space,0.5172381401062012,None,,,,,,,,,,,,,,,,,,,,,,,,,,,,,,,,,,,,,,,,,,,,,,,25,5,2025-02-18_16h05.40.985,comp,2024.2.4,62.15800385606589,2025-02-18 16h05.51.459320 -0500,
0,0,0,critical,dhw,35.0,4.0,lower,70.0,70.0,133.0,57.0,57.0,133.0,3,10.979691982269287,None,,,,,0,0,0,0,0,0,0,52,35.898940086364746,,,,,,,,,,,,,,,,,,,,,,,,,,,,,,,,,,,,,,,,,,,,,,,,,,,,,,,,,,,,,,,,,,,,,,,,,,,,,,,,,70.0,70.0,133.0,57.0,57.0,133.0,4.0,4.2,-160,13,0,-281,191,-18,35.885469913482666,35.88551688194275,35.887593507766724,35.898940086364746,36.04530692100525,36.04530692100525,36.04530692100525,36.04530692100525,36.04530692100525,36.04530692100525,36.04530692100525,46.89049959182739,3,10.979691982269287,None,,,,,,,,,,,,,,,,,,25,5,2025-02-18_16h05.40.985,comp,2024.2.4,62.15800385606589,2025-02-18 16h05.51.459320 -0500,
1,1,0,filler_random,None,None,None,None,None,None,None,None,None,None,2,1.1340911388397217,None,,,,,0,0,0,0,0,1,1,141,46.90571689605713,,,,,,,,,,,,,,,,,,,,,,,,,,,,,,,,,,,,,,,,,,,,,,,,,,,,,,,,,,,,,,,,,,,,,,,,,,,,,,,,,84.3637964877313,174.21144161002513,197.34945656389098,116.47464678296568,126.41965253433088,133.6695497206155,1.0,1.1,-721,282,-480,289,-259,286,46.891464948654175,46.89150643348694,46.894280195236206,46.90571689605713,47.05602169036865,47.05602169036865,47.05602169036865,47.05602169036865,47.05602169036865,47.05602169036865,47.05602169036865,48.05710530281067,2,1.1340911388397217,None,,,,,,,,,,,,,,,,,,25,5,2025-02-18_16h05.40.985,comp,2024.2.4,62.15800385606589,2025-02-18 16h05.51.459320 -0500,
2,2,0,filler_random,None,None,None,None,None,None,None,None,None,None,1,0.8703300952911377,None,,,,,0,0,0,0,0,2,2,145,48.07228374481201,,,,,,,,,,,,,,,,,,,,,,,,,,,,,,,,,,,,,,,,,,,,,,,,,,,,,,,,,,,,,,,,,,,,,,,,,,,,,,,,,184.06075158607933,186.60911293937053,155.20563370865585,61.49459694833943,77.33231551167643,91.16913950619977,3.0,3.1,-220,290,0,4,172,-285,48.05802392959595,48.058067321777344,48.060505390167236,48.07228374481201,48.222527503967285,48.222527503967285,48.222527503967285,48.222527503967285,48.222527503967285,48.222527503967285,48.222527503967285,48.956815004348755,1,0.8703300952911377,None,,,,,,,,,,,,,,,,,,25,5,2025-02-18_16h05.40.985,comp,2024.2.4,62.15800385606589,2025-02-18 16h05.51.459320 -0500,
3,3,0,filler_square,None,None,None,None,None,None,None,None,None,None,2,1.1008734703063965,None,,,,,0,0,0,0,0,3,3,201,48.972219944000244,,,,,,,,,,,,,,,,,,,,,,,,,,,,,,,,,,,,,,,,,,,,,,,,,,,,,,,,,,,,,,,,,,,,,,,,,,,,,,,,,184.15358376714937,81.41786155653698,194.8460305407915,194.8460305407915,124.92537686573871,57.06403569628755,2.1,2.12,-234,-254,0,-288,222,267,48.95780658721924,48.95786428451538,48.96029353141785,48.972219944000244,49.12255382537842,49.12255382537842,49.12255382537842,49.12255382537842,49.12255382537842,49.12255382537842,49.12255382537842,50.074291706085205,2,1.1008734703063965,None,,,,,,,,,,,,,,,,,,25,5,2025-02-18_16h05.40.985,comp,2024.2.4,62.15800385606589,2025-02-18 16h05.51.459320 -0500,
4,4,0,filler_random,None,None,None,None,None,None,None,None,None,None,1,0.8696460723876953,None,,,,,0,0,0,0,0,4,4,161,50.08934450149536,,,,,,,,,,,,,,,,,,,,,,,,,,,,,,,,,,,,,,,,,,,,,,,,,,,,,,,,,,,,,,,,,,,,,,,,,,,,,,,,,187.91218050971392,126.0181612302297,76.34982232447727,58.08038022235124,68.03746939246676,164.75821545369058,4.0,4.1,-188,-269,0,-20,207,-276,50.0752055644989,50.075249433517456,50.077407121658325,50.08934450149536,50.23912978172302,50.23912978172302,50.23912978172302,50.23912978172302,50.23912978172302,50.23912978172302,50.23912978172302,50.97360324859619,1,0.8696460723876953,None,,,,,,,,,,,,,,,,,,25,5,2025-02-18_16h05.40.985,comp,2024.2.4,62.15800385606589,2025-02-18 16h05.51.459320 -0500,
5,5,0,critical,dhw,20.0,2.1,lower,78.0,78.0,133.0,57.0,57.0,133.0,3,3.9056038856506348,None,,,,,0,0,0,0,0,5,5,26,50.988850831985474,,,,,,,,,,,,,,,,,,,,,,,,,,,,,,,,,,,,,,,,,,,,,,,,,,,,,,,,,,,,,,,,,,,,,,,,,,,,,,,,,78.0,78.0,133.0,57.0,57.0,133.0,2.1,2.11,-164,286,0,268,191,-258,50.97443342208862,50.974475383758545,50.97711658477783,50.988850831985474,51.139034032821655,51.139034032821655,51.139034032821655,51.139034032821655,51.139034032821655,51.139034032821655,51.139034032821655,54.90675067901611,3,3.9056038856506348,None,,,,,,,,,,,,,,,,,,25,5,2025-02-18_16h05.40.985,comp,2024.2.4,62.15800385606589,2025-02-18 16h05.51.459320 -0500,
6,6,0,critical,whd,20.0,2.1,upper,125.0,200.0,200.0,125.0,141.0,141.0,1,3.5722219944000244,None,,,,,0,0,0,0,0,6,6,39,54.9221465587616,,,,,,,,,,,,,,,,,,,,,,,,,,,,,,,,,,,,,,,,,,,,,,,,,,,,,,,,,,,,,,,,,,,,,,,,,,,,,,,,,125.0,200.0,200.0,125.0,141.0,141.0,2.1,2.11,-258,261,0,259,229,-288,54.907538414001465,54.90758013725281,54.909911155700684,54.9221465587616,55.07261395454407,55.07261395454407,55.07261395454407,55.07261395454407,55.07261395454407,55.07261395454407,55.07261395454407,58.50715661048889,1,3.5722219944000244,None,,,,,,,,,,,,,,,,,,25,5,2025-02-18_16h05.40.985,comp,2024.2.4,62.15800385606589,2025-02-18 16h05.51.459320 -0500,
7,7,0,critical,hwd,20.0,1.0,upper,200.0,125.0,125.0,200.0,141.0,141.0,2,5.725435018539429,None,,,,,0,0,0,0,0,7,7,103,58.522143602371216,,,,,,,,,,,,,,,,,,,,,,,,,,,,,,,,,,,,,,,,,,,,,,,,,,,,,,,,,,,,,,,,,,,,,,,,,,,,,,,,,200.0,125.0,125.0,200.0,141.0,141.0,1.0,1.2,-258,18,0,-18,266,17,58.50794458389282,58.50798583030701,58.510411500930786,58.522143602371216,58.672462701797485,58.672462701797485,58.672462701797485,58.672462701797485,58.672462701797485,58.672462701797485,58.672462701797485,64.25685930252075,2,5.725435018539429,None,,,,,,,,,,,,,,,,,,25,5,2025-02-18_16h05.40.985,comp,2024.2.4,62.15800385606589,2025-02-18 16h05.51.459320 -0500,
8,8,0,filler_square,None,None,None,None,None,None,None,None,None,None,2,1.2379496097564697,None,,,,,0,0,0,0,0,8,8,202,64.27246117591858,,,,,,,,,,,,,,,,,,,,,,,,,,,,,,,,,,,,,,,,,,,,,,,,,,,,,,,,,,,,,,,,,,,,,,,,,,,,,,,,,70.10274575989408,168.29143265352494,181.51484036677095,181.51484036677095,129.32902996119515,170.200074818073,2.1,2.11,-271,284,0,253,272,-271,64.25785827636719,64.25790309906006,64.26015567779541,64.27246117591858,64.42251372337341,64.42251372337341,64.42251372337341,64.42251372337341,64.42251372337341,64.42251372337341,64.42251372337341,65.5234706401825,2,1.2379496097564697,None,,,,,,,,,,,,,,,,,,25,5,2025-02-18_16h05.40.985,comp,2024.2.4,62.15800385606589,2025-02-18 16h05.51.459320 -0500,
9,9,0,catch,None,None,None,None,None,None,None,None,None,None,1,0.9086978435516357,None,,,,,0,0,0,0,0,9,9,126,65.53869032859802,,,,,,,,,,,,,,,,,,,,,,,,,,,,,,,,,,,,,,,,,,,,,,,,,,,,,,,,,,,,,,,,,,,,,,,,,,,,,,,,,180,145,79,111,61,129,2.2,2.21,-224,-281,0,275,216,258,65.52453684806824,65.52458119392395,65.52718997001648,65.53869032859802,65.68881607055664,65.68881607055664,65.68881607055664,65.68881607055664,65.68881607055664,65.68881607055664,65.68881607055664,66.4566547870636,1,0.9086978435516357,None,,,,,,,,,,,,,,,,,,25,5,2025-02-18_16h05.40.985,comp,2024.2.4,62.15800385606589,2025-02-18 16h05.51.459320 -0500,
10,10,0,filler_random,None,None,None,None,None,None,None,None,None,None,1,3.0545661449432373,None,,,,,0,0,0,0,0,10,10,157,66.47235298156738,,,,,,,,,,,,,,,,,,,,,,,,,,,,,,,,,,,,,,,,,,,,,,,,,,,,,,,,,,,,,,,,,,,,,,,,,,,,,,,,,157.52691119175802,197.48875975099563,70.73891703335832,181.66560001609474,190.34869737479303,147.4854143687202,2.1,2.12,-286,-288,0,-264,261,259,66.45757508277893,66.45761847496033,66.45986580848694,66.47235298156738,66.62240815162659,66.62240815162659,66.62240815162659,66.62240815162659,66.62240815162659,66.62240815162659,66.62240815162659,69.54019260406494,1,3.0545661449432373,None,,,,,,,,,,,,,,,,,,25,5,2025-02-18_16h05.40.985,comp,2024.2.4,62.15800385606589,2025-02-18 16h05.51.459320 -0500,
11,11,0,critical,wdh,35.0,2.1,upper,125.0,200.0,127.0,127.0,200.0,125.0,3,1.154801607131958,None,,,,,0,0,0,0,0,11,11,33,69.55543208122253,,,,,,,,,,,,,,,,,,,,,,,,,,,,,,,,,,,,,,,,,,,,,,,,,,,,,,,,,,,,,,,,,,,,,,,,,,,,,,,,,125.0,200.0,127.0,127.0,200.0,125.0,2.1,2.11,-260,256,0,278,222,-283,69.54100608825684,69.54104685783386,69.54351019859314,69.55543208122253,69.70565795898438,69.70565795898438,69.70565795898438,69.70565795898438,69.70565795898438,69.70565795898438,69.70565795898438,70.72340273857117,3,1.154801607131958,None,,,,,,,,,,,,,,,,,,25,5,2025-02-18_16h05.40.985,comp,2024.2.4,62.15800385606589,2025-02-18 16h05.51.459320 -0500,
12,12,0,critical,hwd,35.0,1.0,upper,200.0,125.0,125.0,200.0,127.0,127.0,1,1.9717271327972412,None,,,,,0,0,0,0,0,12,12,97,70.73856735229492,,,,,,,,,,,,,,,,,,,,,,,,,,,,,,,,,,,,,,,,,,,,,,,,,,,,,,,,,,,,,,,,,,,,,,,,,,,,,,,,,200.0,125.0,125.0,200.0,127.0,127.0,1.0,1.3,222,-257,480,-252,740,-276,70.72419428825378,70.72423529624939,70.72679805755615,70.73856735229492,70.8888828754425,70.8888828754425,70.8888828754425,70.8888828754425,70.8888828754425,70.8888828754425,70.8888828754425,72.72335767745972,1,1.9717271327972412,None,,,,,,,,,,,,,,,,,,25,5,2025-02-18_16h05.40.985,comp,2024.2.4,62.15800385606589,2025-02-18 16h05.51.459320 -0500,
13,13,0,critical,hdw,20.0,3.0,upper,200.0,125.0,141.0,141.0,125.0,200.0,3,3.012953281402588,None,,,,,0,0,0,0,0,13,13,117,72.73858785629272,,,,,,,,,,,,,,,,,,,,,,,,,,,,,,,,,,,,,,,,,,,,,,,,,,,,,,,,,,,,,,,,,,,,,,,,,,,,,,,,,200.0,125.0,141.0,141.0,125.0,200.0,3.0,3.2,-229,-278,0,-2,266,283,72.72415351867676,72.7241952419281,72.72672605514526,72.73858785629272,72.88886761665344,72.88886761665344,72.88886761665344,72.88886761665344,72.88886761665344,72.88886761665344,72.88886761665344,75.75668597221375,3,3.012953281402588,None,,,,,,,,,,,,,,,,,,25,5,2025-02-18_16h05.40.985,comp,2024.2.4,62.15800385606589,2025-02-18 16h05.51.459320 -0500,
14,14,0,critical,wdh,20.0,1.0,lower,57.0,133.0,78.0,78.0,133.0,57.0,3,1.4591081142425537,None,,,,,0,0,0,0,0,14,14,78,75.77214121818542,,,,,,,,,,,,,,,,,,,,,,,,,,,,,,,,,,,,,,,,,,,,,,,,,,,,,,,,,,,,,,,,,,,,,,,,,,,,,,,,,57.0,133.0,78.0,78.0,133.0,57.0,1.0,1.3,278,-283,480,-275,644,-257,75.757497549057,75.7575409412384,75.76013088226318,75.77214121818542,75.92214798927307,75.92214798927307,75.92214798927307,75.92214798927307,75.92214798927307,75.92214798927307,75.92214798927307,77.23978018760681,3,1.4591081142425537,None,,,,,,,,,,,,,,,,,,25,5,2025-02-18_16h05.40.985,comp,2024.2.4,62.15800385606589,2025-02-18 16h05.51.459320 -0500,
15,15,0,catch,None,None,None,None,None,None,None,None,None,None,1,1.0332591533660889,None,,,,,0,0,0,0,0,15,15,120,77.2554681301117,,,,,,,,,,,,,,,,,,,,,,,,,,,,,,,,,,,,,,,,,,,,,,,,,,,,,,,,,,,,,,,,,,,,,,,,,,,,,,,,,128,197,110,80,59,131,1.0,1.2,-234,5,0,2,202,-7,77.24085521697998,77.24089908599854,77.24326372146606,77.2554681301117,77.40531969070435,77.40531969070435,77.40531969070435,77.40531969070435,77.40531969070435,77.40531969070435,77.40531969070435,78.29014611244202,1,1.0332591533660889,None,,,,,,,,,,,,,,,,,,25,5,2025-02-18_16h05.40.985,comp,2024.2.4,62.15800385606589,2025-02-18 16h05.51.459320 -0500,
16,16,0,filler_random,None,None,None,None,None,None,None,None,None,None,1,2.7744359970092773,None,,,,,0,0,0,0,0,16,16,168,78.30551052093506,,,,,,,,,,,,,,,,,,,,,,,,,,,,,,,,,,,,,,,,,,,,,,,,,,,,,,,,,,,,,,,,,,,,,,,,,,,,,,,,,60.82878505334868,159.97598237464547,102.95410873943638,83.1547845640316,57.77250325452511,98.5031371555898,2.1,2.12,-218,-280,0,-274,187,268,78.29105710983276,78.29110026359558,78.29327344894409,78.30551052093506,78.45536255836487,78.45536255836487,78.45536255836487,78.45536255836487,78.45536255836487,78.45536255836487,78.45536255836487,81.08973264694214,1,2.7744359970092773,None,,,,,,,,,,,,,,,,,,25,5,2025-02-18_16h05.40.985,comp,2024.2.4,62.15800385606589,2025-02-18 16h05.51.459320 -0500,
17,17,0,critical,hdw,20.0,2.1,upper,200.0,125.0,141.0,141.0,125.0,200.0,3,3.8368704319000244,None,,,,,0,0,0,0,0,17,17,23,81.10541558265686,,,,,,,,,,,,,,,,,,,,,,,,,,,,,,,,,,,,,,,,,,,,,,,,,,,,,,,,,,,,,,,,,,,,,,,,,,,,,,,,,200.0,125.0,141.0,141.0,125.0,200.0,2.1,2.12,-229,-257,0,-262,266,256,81.09052109718323,81.09057331085205,81.09332323074341,81.10541558265686,81.25590181350708,81.25590181350708,81.25590181350708,81.25590181350708,81.25590181350708,81.25590181350708,81.25590181350708,84.9565978050232,3,3.8368704319000244,None,,,,,,,,,,,,,,,,,,25,5,2025-02-18_16h05.40.985,comp,2024.2.4,62.15800385606589,2025-02-18 16h05.51.459320 -0500,
18,18,0,critical,hdw,35.0,2.1,upper,200.0,125.0,127.0,127.0,125.0,200.0,3,1.459367036819458,None,,,,,0,0,0,0,0,18,18,21,84.97179627418518,,,,,,,,,,,,,,,,,,,,,,,,,,,,,,,,,,,,,,,,,,,,,,,,,,,,,,,,,,,,,,,,,,,,,,,,,,,,,,,,,200.0,125.0,127.0,127.0,125.0,200.0,2.1,2.12,-222,-257,0,-258,260,257,84.9574203491211,84.95746374130249,84.96005201339722,84.97179627418518,85.1558301448822,85.1558301448822,85.1558301448822,85.1558301448822,85.1558301448822,85.1558301448822,85.1558301448822,86.43981957435608,3,1.459367036819458,None,,,,,,,,,,,,,,,,,,25,5,2025-02-18_16h05.40.985,comp,2024.2.4,62.15800385606589,2025-02-18 16h05.51.459320 -0500,
19,19,0,critical,dhw,20.0,1.0,lower,78.0,78.0,133.0,57.0,57.0,133.0,2,2.1600725650787354,None,,,,,0,0,0,0,0,19,19,54,86.45529985427856,,,,,,,,,,,,,,,,,,,,,,,,,,,,,,,,,,,,,,,,,,,,,,,,,,,,,,,,,,,,,,,,,,,,,,,,,,,,,,,,,78.0,78.0,133.0,57.0,57.0,133.0,1.0,1.2,-164,14,0,-12,191,-14,86.44061946868896,86.44066166877747,86.44299602508545,86.45529985427856,86.60524535179138,86.60524535179138,86.60524535179138,86.60524535179138,86.60524535179138,86.60524535179138,86.60524535179138,88.62294411659241,2,2.1600725650787354,None,,,,,,,,,,,,,,,,,,25,5,2025-02-18_16h05.40.985,comp,2024.2.4,62.15800385606589,2025-02-18 16h05.51.459320 -0500,
20,20,0,critical,hwd,20.0,3.0,lower,133.0,57.0,57.0,133.0,78.0,78.0,1,1.4713611602783203,None,,,,,0,0,0,0,0,20,20,104,88.63866090774536,,,,,,,,,,,,,,,,,,,,,,,,,,,,,,,,,,,,,,,,,,,,,,,,,,,,,,,,,,,,,,,,,,,,,,,,,,,,,,,,,133.0,57.0,57.0,133.0,78.0,78.0,3.0,3.2,-191,-264,0,9,202,258,88.62373733520508,88.62377953529358,88.62618637084961,88.63866090774536,88.78849840164185,88.78849840164185,88.78849840164185,88.78849840164185,88.78849840164185,88.78849840164185,88.78849840164185,90.12306475639343,1,1.4713611602783203,None,,,,,,,,,,,,,,,,,,25,5,2025-02-18_16h05.40.985,comp,2024.2.4,62.15800385606589,2025-02-18 16h05.51.459320 -0500,
21,21,0,filler_square,None,None,None,None,None,None,None,None,None,None,1,0.9662978649139404,None,,,,,0,0,0,0,0,21,21,188,90.13858604431152,,,,,,,,,,,,,,,,,,,,,,,,,,,,,,,,,,,,,,,,,,,,,,,,,,,,,,,,,,,,,,,,,,,,,,,,,,,,,,,,,197.95594649537085,197.95594649537085,145.3603298250821,178.93917857726268,148.55561582315556,83.43168466857215,2.2,2.21,-284,-274,0,277,227,272,90.12404727935791,90.12409114837646,90.12657499313354,90.13858604431152,90.28877186775208,90.28877186775208,90.28877186775208,90.28877186775208,90.28877186775208,90.28877186775208,90.28877186775208,91.12316107749939,1,0.9662978649139404,None,,,,,,,,,,,,,,,,,,25,5,2025-02-18_16h05.40.985,comp,2024.2.4,62.15800385606589,2025-02-18 16h05.51.459320 -0500,
22,22,0,critical,hwd,20.0,4.0,upper,200.0,125.0,125.0,200.0,141.0,141.0,2,3.0036709308624268,None,,,,,0,0,0,0,0,22,22,107,91.13838958740234,,,,,,,,,,,,,,,,,,,,,,,,,,,,,,,,,,,,,,,,,,,,,,,,,,,,,,,,,,,,,,,,,,,,,,,,,,,,,,,,,200.0,125.0,125.0,200.0,141.0,141.0,4.0,4.1,-258,-254,0,11,266,-276,91.12393546104431,91.1239767074585,91.12641596794128,91.13838958740234,91.28886294364929,91.28886294364929,91.28886294364929,91.28886294364929,91.28886294364929,91.28886294364929,91.28886294364929,94.15643262863159,2,3.0036709308624268,None,,,,,,,,,,,,,,,,,,25,5,2025-02-18_16h05.40.985,comp,2024.2.4,62.15800385606589,2025-02-18 16h05.51.459320 -0500,
23,23,0,critical,whd,35.0,1.0,upper,125.0,200.0,200.0,125.0,127.0,127.0,2,0.7222392559051514,None,,,,,0,0,0,0,0,23,23,85,94.17164874076843,,,,,,,,,,,,,,,,,,,,,,,,,,,,,,,,,,,,,,,,,,,,,,,,,,,,,,,,,,,,,,,,,,,,,,,,,,,,,,,,,125.0,200.0,200.0,125.0,127.0,127.0,1.0,1.2,-258,-14,0,2,222,11,94.15717649459839,94.15721487998962,94.15931916236877,94.17164874076843,94.32202124595642,94.32202124595642,94.32202124595642,94.32202124595642,94.32202124595642,94.32202124595642,94.32202124595642,94.90641450881958,2,0.7222392559051514,None,,,,,,,,,,,,,,,,,,25,5,2025-02-18_16h05.40.985,comp,2024.2.4,62.15800385606589,2025-02-18 16h05.51.459320 -0500,
24,24,0,filler_random,None,None,None,None,None,None,None,None,None,None,3,1.0295360088348389,None,,,,,0,0,0,0,0,24,24,149,94.92171335220337,,,,,,,,,,,,,,,,,,,,,,,,,,,,,,,,,,,,,,,,,,,,,,,,,,,,,,,,,,,,,,,,,,,,,,,,,,,,,,,,,136.0958365494121,142.21381552690497,65.81746759142486,168.83117599994077,190.41096076128593,140.3073678348776,2.2,2.21,-252,-274,0,281,251,261,94.90736961364746,94.90741348266602,94.90995573997498,94.92171335220337,95.07257294654846,95.07257294654846,95.07257294654846,95.07257294654846,95.07257294654846,95.07257294654846,95.07257294654846,95.95638012886047,3,1.0295360088348389,None,,,,,,,,,,,,,,,,,,25,5,2025-02-18_16h05.40.985,comp,2024.2.4,62.15800385606589,2025-02-18 16h05.51.459320 -0500,
25,25,0,filler_random,None,None,None,None,None,None,None,None,None,None,1,1.7951703071594238,None,,,,,0,0,0,0,0,25,25,140,95.97184729576111,,,,,,,,,,,,,,,,,,,,,,,,,,,,,,,,,,,,,,,,,,,,,,,,,,,,,,,,,,,,,,,,,,,,,,,,,,,,,,,,,112.44630595551794,119.85068600860184,89.47465783514053,149.10375780832624,79.23870919816714,100.1646848031759,4.0,4.1,-230,-266,0,-11,221,-279,95.95730566978455,95.95735001564026,95.96043992042542,95.97184729576111,96.12187886238098,96.12187886238098,96.12187886238098,96.12187886238098,96.12187886238098,96.12187886238098,96.12187886238098,97.77310085296631,1,1.7951703071594238,None,,,,,,,,,,,,,,,,,,25,5,2025-02-18_16h05.40.985,comp,2024.2.4,62.15800385606589,2025-02-18 16h05.51.459320 -0500,
26,26,0,critical,dhw,20.0,4.0,lower,78.0,78.0,133.0,57.0,57.0,133.0,3,1.8104450702667236,None,,,,,0,0,0,0,0,26,26,58,97.78855013847351,,,,,,,,,,,,,,,,,,,,,,,,,,,,,,,,,,,,,,,,,,,,,,,,,,,,,,,,,,,,,,,,,,,,,,,,,,,,,,,,,78.0,78.0,133.0,57.0,57.0,133.0,4.0,4.1,-164,-273,0,11,191,-260,97.77390789985657,97.77395129203796,97.77643918991089,97.78855013847351,97.93837690353394,97.93837690353394,97.93837690353394,97.93837690353394,97.93837690353394,97.93837690353394,97.93837690353394,99.60626649856567,3,1.8104450702667236,None,,,,,,,,,,,,,,,,,,25,5,2025-02-18_16h05.40.985,comp,2024.2.4,62.15800385606589,2025-02-18 16h05.51.459320 -0500,
27,27,0,filler_random,None,None,None,None,None,None,None,None,None,None,2,0.9450368881225586,None,,,,,0,0,0,0,0,27,27,155,99.62197995185852,,,,,,,,,,,,,,,,,,,,,,,,,,,,,,,,,,,,,,,,,,,,,,,,,,,,,,,,,,,,,,,,,,,,,,,,,,,,,,,,,74.87795152965688,122.78633467815206,84.84142671509835,199.0012926709425,81.60196678031065,100.47188198888612,4.0,4.1,-257,-268,0,16,246,-255,99.60718154907227,99.60722351074219,99.60973930358887,99.62197995185852,99.7717833518982,99.7717833518982,99.7717833518982,99.7717833518982,99.7717833518982,99.7717833518982,99.7717833518982,100.57302594184875,2,0.9450368881225586,None,,,,,,,,,,,,,,,,,,25,5,2025-02-18_16h05.40.985,comp,2024.2.4,62.15800385606589,2025-02-18 16h05.51.459320 -0500,
28,28,0,critical,dhw,20.0,3.0,upper,141.0,141.0,200.0,125.0,125.0,200.0,2,4.115857124328613,None,,,,,0,0,0,0,0,28,28,57,100.58875703811646,,,,,,,,,,,,,,,,,,,,,,,,,,,,,,,,,,,,,,,,,,,,,,,,,,,,,,,,,,,,,,,,,,,,,,,,,,,,,,,,,141.0,141.0,200.0,125.0,125.0,200.0,3.0,3.2,-229,-277,0,-1,258,277,100.57382702827454,100.57388758659363,100.57608819007874,100.58875703811646,100.73859739303589,100.73859739303589,100.73859739303589,100.73859739303589,100.73859739303589,100.73859739303589,100.73859739303589,104.7064561843872,2,4.115857124328613,None,,,,,,,,,,,,,,,,,,25,5,2025-02-18_16h05.40.985,comp,2024.2.4,62.15800385606589,2025-02-18 16h05.51.459320 -0500,
29,29,0,critical,hdw,35.0,1.0,upper,200.0,125.0,127.0,127.0,125.0,200.0,1,1.77193284034729,None,,,,,0,0,0,0,0,29,29,109,104.72182106971741,,,,,,,,,,,,,,,,,,,,,,,,,,,,,,,,,,,,,,,,,,,,,,,,,,,,,,,,,,,,,,,,,,,,,,,,,,,,,,,,,200.0,125.0,127.0,127.0,125.0,200.0,1.0,1.2,-222,-15,0,9,260,-13,104.70720052719116,104.70723986625671,104.70972394943237,104.72182106971741,104.87187480926514,104.87187480926514,104.87187480926514,104.87187480926514,104.87187480926514,104.87187480926514,104.87187480926514,106.50634050369263,1,1.77193284034729,None,,,,,,,,,,,,,,,,,,25,5,2025-02-18_16h05.40.985,comp,2024.2.4,62.15800385606589,2025-02-18 16h05.51.459320 -0500,
30,30,0,critical,whd,20.0,4.0,lower,57.0,133.0,133.0,57.0,78.0,78.0,1,2.350268840789795,None,,,,,0,0,0,0,0,30,30,94,106.52159190177917,,,,,,,,,,,,,,,,,,,,,,,,,,,,,,,,,,,,,,,,,,,,,,,,,,,,,,,,,,,,,,,,,,,,,,,,,,,,,,,,,57.0,133.0,133.0,57.0,78.0,78.0,4.0,4.2,-191,-19,0,-279,164,16,106.50717329978943,106.50721502304077,106.50974559783936,106.52159190177917,106.67181134223938,106.67181134223938,106.67181134223938,106.67181134223938,106.67181134223938,106.67181134223938,106.67181134223938,108.8730583190918,1,2.350268840789795,None,,,,,,,,,,,,,,,,,,25,5,2025-02-18_16h05.40.985,comp,2024.2.4,62.15800385606589,2025-02-18 16h05.51.459320 -0500,
31,31,0,filler_random,None,None,None,None,None,None,None,None,None,None,1,1.1503252983093262,None,,,,,0,0,0,0,0,31,31,138,108.88852906227112,,,,,,,,,,,,,,,,,,,,,,,,,,,,,,,,,,,,,,,,,,,,,,,,,,,,,,,,,,,,,,,,,,,,,,,,,,,,,,,,,185.7968659003388,188.6926760157162,133.691045858605,97.36005602848371,167.32306830575476,170.69212665167572,2.2,2.21,-239,-255,0,274,230,272,108.87403106689453,108.87407517433167,108.87640571594238,108.88852906227112,109.03857803344727,109.03857803344727,109.03857803344727,109.03857803344727,109.03857803344727,109.03857803344727,109.03857803344727,110.05640196800232,1,1.1503252983093262,None,,,,,,,,,,,,,,,,,,25,5,2025-02-18_16h05.40.985,comp,2024.2.4,62.15800385606589,2025-02-18 16h05.51.459320 -0500,
32,32,0,filler_square,None,None,None,None,None,None,None,None,None,None,3,2.295236110687256,None,,,,,0,0,0,0,0,32,32,186,110.07162499427795,,,,,,,,,,,,,,,,,,,,,,,,,,,,,,,,,,,,,,,,,,,,,,,,,,,,,,,,,,,,,,,,,,,,,,,,,,,,,,,,,57.41476895600626,75.75135415081007,75.4941495249677,58.16336163238878,77.59154630483188,77.59154630483188,2.1,2.11,-163,271,0,274,164,-286,110.05740571022034,110.05744957923889,110.06004810333252,110.07162499427795,110.22154641151428,110.22154641151428,110.22154641151428,110.22154641151428,110.22154641151428,110.22154641151428,110.22154641151428,112.37282395362854,3,2.295236110687256,None,,,,,,,,,,,,,,,,,,25,5,2025-02-18_16h05.40.985,comp,2024.2.4,62.15800385606589,2025-02-18 16h05.51.459320 -0500,
33,33,0,filler_square,None,None,None,None,None,None,None,None,None,None,3,1.0832264423370361,None,,,,,0,0,0,0,0,33,33,180,112.3885190486908,,,,,,,,,,,,,,,,,,,,,,,,,,,,,,,,,,,,,,,,,,,,,,,,,,,,,,,,,,,,,,,,,,,,,,,,,,,,,,,,,102.93943582222849,76.4085139371887,73.93823350607568,75.09427179899778,107.30521317735683,107.30521317735683,2.2,2.21,-172,-275,0,268,187,284,112.37380242347717,112.37385892868042,112.37640643119812,112.3885190486908,112.53823709487915,112.53823709487915,112.53823709487915,112.53823709487915,112.53823709487915,112.53823709487915,112.53823709487915,113.48946738243103,3,1.0832264423370361,None,,,,,,,,,,,,,,,,,,25,5,2025-02-18_16h05.40.985,comp,2024.2.4,62.15800385606589,2025-02-18 16h05.51.459320 -0500,
34,34,0,critical,wdh,35.0,2.1,lower,57.0,133.0,70.0,70.0,133.0,57.0,3,2.261998176574707,None,,,,,0,0,0,0,0,34,34,32,113.50469064712524,,,,,,,,,,,,,,,,,,,,,,,,,,,,,,,,,,,,,,,,,,,,,,,,,,,,,,,,,,,,,,,,,,,,,,,,,,,,,,,,,57.0,133.0,70.0,70.0,133.0,57.0,2.1,2.11,-198,283,0,290,160,-270,113.49027609825134,113.49031901359558,113.49290561676025,113.50469064712524,113.65496730804443,113.65496730804443,113.65496730804443,113.65496730804443,113.65496730804443,113.65496730804443,113.65496730804443,115.77264833450317,3,2.261998176574707,None,,,,,,,,,,,,,,,,,,25,5,2025-02-18_16h05.40.985,comp,2024.2.4,62.15800385606589,2025-02-18 16h05.51.459320 -0500,
35,35,0,filler_square,None,None,None,None,None,None,None,None,None,None,2,0.8425195217132568,None,,,,,0,0,0,0,0,35,35,200,115.78837656974792,,,,,,,,,,,,,,,,,,,,,,,,,,,,,,,,,,,,,,,,,,,,,,,,,,,,,,,,,,,,,,,,,,,,,,,,,,,,,,,,,140.63648347006335,120.46773823202035,145.96859797412594,145.96859797412594,76.220963756907,78.88916788012817,2.2,2.21,-229,-254,0,251,208,275,115.77363729476929,115.77368211746216,115.77624702453613,115.78837656974792,115.93878078460693,115.93878078460693,115.93878078460693,115.93878078460693,115.93878078460693,115.93878078460693,115.93878078460693,116.63950800895691,2,0.8425195217132568,None,,,,,,,,,,,,,,,,,,25,5,2025-02-18_16h05.40.985,comp,2024.2.4,62.15800385606589,2025-02-18 16h05.51.459320 -0500,
36,36,0,critical,wdh,20.0,2.1,lower,57.0,133.0,78.0,78.0,133.0,57.0,3,2.8493340015411377,None,,,,,0,0,0,0,0,36,36,10,116.65498089790344,,,,,,,,,,,,,,,,,,,,,,,,,,,,,,,,,,,,,,,,,,,,,,,,,,,,,,,,,,,,,,,,,,,,,,,,,,,,,,,,,57.0,133.0,78.0,78.0,133.0,57.0,2.1,2.11,-202,262,0,251,164,-289,116.64031672477722,116.6403591632843,116.64291024208069,116.65498089790344,116.80490016937256,116.80490016937256,116.80490016937256,116.80490016937256,116.80490016937256,116.80490016937256,116.80490016937256,119.50610256195068,3,2.8493340015411377,None,,,,,,,,,,,,,,,,,,25,5,2025-02-18_16h05.40.985,comp,2024.2.4,62.15800385606589,2025-02-18 16h05.51.459320 -0500,
37,37,0,critical,dhw,20.0,2.1,upper,141.0,141.0,200.0,125.0,125.0,200.0,3,1.1336097717285156,None,,,,,0,0,0,0,0,37,37,27,119.52158570289612,,,,,,,,,,,,,,,,,,,,,,,,,,,,,,,,,,,,,,,,,,,,,,,,,,,,,,,,,,,,,,,,,,,,,,,,,,,,,,,,,141.0,141.0,200.0,125.0,125.0,200.0,2.1,2.11,-229,264,0,259,258,-275,119.50689387321472,119.50693655014038,119.50910544395447,119.52158570289612,119.67176342010498,119.67176342010498,119.67176342010498,119.67176342010498,119.67176342010498,119.67176342010498,119.67176342010498,120.6563708782196,3,1.1336097717285156,None,,,,,,,,,,,,,,,,,,25,5,2025-02-18_16h05.40.985,comp,2024.2.4,62.15800385606589,2025-02-18 16h05.51.459320 -0500,
38,38,0,critical,hdw,20.0,4.0,upper,200.0,125.0,141.0,141.0,125.0,200.0,1,1.679140567779541,None,,,,,0,0,0,0,0,38,38,119,120.67150473594666,,,,,,,,,,,,,,,,,,,,,,,,,,,,,,,,,,,,,,,,,,,,,,,,,,,,,,,,,,,,,,,,,,,,,,,,,,,,,,,,,200.0,125.0,141.0,141.0,125.0,200.0,4.0,4.1,-229,-258,0,-20,266,-280,120.65717434883118,120.65721797943115,120.65939116477966,120.67150473594666,120.82170915603638,120.82170915603638,120.82170915603638,120.82170915603638,120.82170915603638,120.82170915603638,120.82170915603638,122.35621500015259,1,1.679140567779541,None,,,,,,,,,,,,,,,,,,25,5,2025-02-18_16h05.40.985,comp,2024.2.4,62.15800385606589,2025-02-18 16h05.51.459320 -0500,
39,39,0,filler_random,None,None,None,None,None,None,None,None,None,None,2,1.0110630989074707,None,,,,,0,0,0,0,0,39,39,135,122.37158703804016,,,,,,,,,,,,,,,,,,,,,,,,,,,,,,,,,,,,,,,,,,,,,,,,,,,,,,,,,,,,,,,,,,,,,,,,,,,,,,,,,172.23284706024205,73.21696552394455,143.44954888835758,154.6098819573301,176.5736597420305,108.42888515922476,1.0,1.1,-690,285,-480,253,-252,283,122.35713505744934,122.35717701911926,122.35966563224792,122.37158703804016,122.52156901359558,122.52156901359558,122.52156901359558,122.52156901359558,122.52156901359558,122.52156901359558,122.52156901359558,123.38928747177124,2,1.0110630989074707,None,,,,,,,,,,,,,,,,,,25,5,2025-02-18_16h05.40.985,comp,2024.2.4,62.15800385606589,2025-02-18 16h05.51.459320 -0500,
40,40,0,critical,wdh,20.0,2.1,upper,125.0,200.0,141.0,141.0,200.0,125.0,3,1.2172582149505615,None,,,,,0,0,0,0,0,40,40,35,123.4048752784729,,,,,,,,,,,,,,,,,,,,,,,,,,,,,,,,,,,,,,,,,,,,,,,,,,,,,,,,,,,,,,,,,,,,,,,,,,,,,,,,,125.0,200.0,141.0,141.0,200.0,125.0,2.1,2.11,-266,259,0,254,229,-253,123.39009118080139,123.39013409614563,123.39260077476501,123.4048752784729,123.55502343177795,123.55502343177795,123.55502343177795,123.55502343177795,123.55502343177795,123.55502343177795,123.55502343177795,124.63932943344116,3,1.2172582149505615,None,,,,,,,,,,,,,,,,,,25,5,2025-02-18_16h05.40.985,comp,2024.2.4,62.15800385606589,2025-02-18 16h05.51.459320 -0500,
41,41,0,critical,hwd,20.0,2.1,lower,133.0,57.0,57.0,133.0,78.0,78.0,2,4.328078031539917,None,,,,,0,0,0,0,0,41,41,18,124.65461254119873,,,,,,,,,,,,,,,,,,,,,,,,,,,,,,,,,,,,,,,,,,,,,,,,,,,,,,,,,,,,,,,,,,,,,,,,,,,,,,,,,133.0,57.0,57.0,133.0,78.0,78.0,2.1,2.11,-191,257,0,252,202,-284,124.6401834487915,124.64022541046143,124.64274144172668,124.65461254119873,124.80467629432678,124.80467629432678,124.80467629432678,124.80467629432678,124.80467629432678,124.80467629432678,124.80467629432678,128.98933625221252,2,4.328078031539917,None,,,,,,,,,,,,,,,,,,25,5,2025-02-18_16h05.40.985,comp,2024.2.4,62.15800385606589,2025-02-18 16h05.51.459320 -0500,
42,42,0,critical,dwh,20.0,2.1,lower,78.0,78.0,57.0,133.0,133.0,57.0,1,0.8885619640350342,None,,,,,0,0,0,0,0,42,42,6,129.0049569606781,,,,,,,,,,,,,,,,,,,,,,,,,,,,,,,,,,,,,,,,,,,,,,,,,,,,,,,,,,,,,,,,,,,,,,,,,,,,,,,,,78.0,78.0,57.0,133.0,133.0,57.0,2.1,2.11,-202,285,0,258,191,-274,128.99015092849731,128.9901933670044,128.99265432357788,129.0049569606781,129.15465712547302,129.15465712547302,129.15465712547302,129.15465712547302,129.15465712547302,129.15465712547302,129.15465712547302,129.90586042404175,1,0.8885619640350342,None,,,,,,,,,,,,,,,,,,25,5,2025-02-18_16h05.40.985,comp,2024.2.4,62.15800385606589,2025-02-18 16h05.51.459320 -0500,
43,43,0,critical,whd,35.0,2.1,upper,125.0,200.0,200.0,125.0,127.0,127.0,2,2.3420801162719727,None,,,,,0,0,0,0,0,43,43,37,129.92125988006592,,,,,,,,,,,,,,,,,,,,,,,,,,,,,,,,,,,,,,,,,,,,,,,,,,,,,,,,,,,,,,,,,,,,,,,,,,,,,,,,,125.0,200.0,200.0,125.0,127.0,127.0,2.1,2.11,-258,284,0,277,222,-273,129.90664935112,129.90669107437134,129.908851146698,129.92125988006592,130.07741785049438,130.07741785049438,130.07741785049438,130.07741785049438,130.07741785049438,130.07741785049438,130.07741785049438,132.27269387245178,2,2.3420801162719727,None,,,,,,,,,,,,,,,,,,25,5,2025-02-18_16h05.40.985,comp,2024.2.4,62.15800385606589,2025-02-18 16h05.51.459320 -0500,
44,44,0,filler_random,None,None,None,None,None,None,None,None,None,None,3,1.0315310955047607,None,,,,,0,0,0,0,0,44,44,166,132.2882182598114,,,,,,,,,,,,,,,,,,,,,,,,,,,,,,,,,,,,,,,,,,,,,,,,,,,,,,,,,,,,,,,,,,,,,,,,,,,,,,,,,150.0446886113847,130.31726952663547,78.56640762623843,154.94698563744663,173.92784118127486,195.92494333261732,3.0,3.1,-239,274,0,-8,271,-260,132.27368116378784,132.27372217178345,132.27639198303223,132.2882182598114,132.43821024894714,132.43821024894714,132.43821024894714,132.43821024894714,132.43821024894714,132.43821024894714,132.43821024894714,133.32276916503906,3,1.0315310955047607,None,,,,,,,,,,,,,,,,,,25,5,2025-02-18_16h05.40.985,comp,2024.2.4,62.15800385606589,2025-02-18 16h05.51.459320 -0500,
45,45,0,critical,dhw,35.0,1.0,upper,127.0,127.0,200.0,125.0,125.0,200.0,3,1.5084187984466553,None,,,,,0,0,0,0,0,45,45,49,133.33829832077026,,,,,,,,,,,,,,,,,,,,,,,,,,,,,,,,,,,,,,,,,,,,,,,,,,,,,,,,,,,,,,,,,,,,,,,,,,,,,,,,,127.0,127.0,200.0,125.0,125.0,200.0,1.0,1.3,258,-286,480,-259,738,-258,133.32359266281128,133.32363486289978,133.32581186294556,133.33829832077026,133.48855233192444,133.48855233192444,133.48855233192444,133.48855233192444,133.48855233192444,133.48855233192444,133.48855233192444,134.85589146614075,3,1.5084187984466553,None,,,,,,,,,,,,,,,,,,25,5,2025-02-18_16h05.40.985,comp,2024.2.4,62.15800385606589,2025-02-18 16h05.51.459320 -0500,
46,46,0,filler_random,None,None,None,None,None,None,None,None,None,None,3,0.9270904064178467,None,,,,,0,0,0,0,0,46,46,164,134.87138986587524,,,,,,,,,,,,,,,,,,,,,,,,,,,,,,,,,,,,,,,,,,,,,,,,,,,,,,,,,,,,,,,,,,,,,,,,,,,,,,,,,87.56299032332795,128.1728449470906,81.75783776759624,189.1336398407395,176.9766345688901,161.50681964598317,1.0,1.3,225,-283,480,-268,751,-288,134.8568239212036,134.85688281059265,134.8593511581421,134.87138986587524,135.02160596847534,135.02160596847534,135.02160596847534,135.02160596847534,135.02160596847534,135.02160596847534,135.02160596847534,135.80602383613586,3,0.9270904064178467,None,,,,,,,,,,,,,,,,,,25,5,2025-02-18_16h05.40.985,comp,2024.2.4,62.15800385606589,2025-02-18 16h05.51.459320 -0500,
47,47,0,catch,None,None,None,None,None,None,None,None,None,None,3,0.6667392253875732,None,,,,,0,0,0,0,0,47,47,128,135.82145500183105,,,,,,,,,,,,,,,,,,,,,,,,,,,,,,,,,,,,,,,,,,,,,,,,,,,,,,,,,,,,,,,,,,,,,,,,,,,,,,,,,71,119,67,123,189,136,4.0,4.2,-217,17,0,-262,226,-2,135.80707383155823,135.80711722373962,135.80952191352844,135.82145500183105,135.9713704586029,135.9713704586029,135.9713704586029,135.9713704586029,135.9713704586029,135.9713704586029,135.9713704586029,136.50582361221313,3,0.6667392253875732,None,,,,,,,,,,,,,,,,,,25,5,2025-02-18_16h05.40.985,comp,2024.2.4,62.15800385606589,2025-02-18 16h05.51.459320 -0500,
48,48,0,critical,wdh,35.0,2.1,upper,125.0,200.0,127.0,127.0,200.0,125.0,3,1.029219627380371,None,,,,,0,0,0,0,0,48,48,9,136.5212116241455,,,,,,,,,,,,,,,,,,,,,,,,,,,,,,,,,,,,,,,,,,,,,,,,,,,,,,,,,,,,,,,,,,,,,,,,,,,,,,,,,125.0,200.0,127.0,127.0,200.0,125.0,2.1,2.11,-260,255,0,280,222,-253,136.50662899017334,136.50667214393616,136.50941610336304,136.5212116241455,136.67139291763306,136.67139291763306,136.67139291763306,136.67139291763306,136.67139291763306,136.67139291763306,136.67139291763306,137.5561056137085,3,1.029219627380371,None,,,,,,,,,,,,,,,,,,25,5,2025-02-18_16h05.40.985,comp,2024.2.4,62.15800385606589,2025-02-18 16h05.51.459320 -0500,
49,49,0,catch,None,None,None,None,None,None,None,None,None,None,3,0.6585841178894043,None,,,,,0,0,0,0,0,49,49,121,137.57191634178162,,,,,,,,,,,,,,,,,,,,,,,,,,,,,,,,,,,,,,,,,,,,,,,,,,,,,,,,,,,,,,,,,,,,,,,,,,,,,,,,,131,59,80,110,140,185,3.0,3.1,-180,256,0,-6,244,-264,137.5571563243866,137.55719828605652,137.55940103530884,137.57191634178162,137.7212221622467,137.7212221622467,137.7212221622467,137.7212221622467,137.7212221622467,137.7212221622467,137.7212221622467,138.239018201828,3,0.6585841178894043,None,,,,,,,,,,,,,,,,,,25,5,2025-02-18_16h05.40.985,comp,2024.2.4,62.15800385606589,2025-02-18 16h05.51.459320 -0500,
50,50,0,filler_square,None,None,None,None,None,None,None,None,None,None,1,1.5188548564910889,None,,,,,0,0,0,0,0,50,50,178,138.25463914871216,,,,,,,,,,,,,,,,,,,,,,,,,,,,,,,,,,,,,,,,,,,,,,,,,,,,,,,,,,,,,,,,,,,,,,,,,,,,,,,,,181.6964632724866,181.6964632724866,158.35846333798423,163.41876682413306,136.76164466176573,163.754324266732,2.2,2.22,-269,259,0,-280,260,-256,138.24001049995422,138.24005556106567,138.2422068119049,138.25463914871216,138.40474772453308,138.40474772453308,138.40474772453308,138.40474772453308,138.40474772453308,138.40474772453308,138.40474772453308,139.78925013542175,1,1.5188548564910889,None,,,,,,,,,,,,,,,,,,25,5,2025-02-18_16h05.40.985,comp,2024.2.4,62.15800385606589,2025-02-18 16h05.51.459320 -0500,
51,51,0,critical,hdw,35.0,2.1,lower,133.0,57.0,70.0,70.0,57.0,133.0,1,2.1689016819000244,None,,,,,0,0,0,0,0,51,51,44,139.80448532104492,,,,,,,,,,,,,,,,,,,,,,,,,,,,,,,,,,,,,,,,,,,,,,,,,,,,,,,,,,,,,,,,,,,,,,,,,,,,,,,,,133.0,57.0,70.0,70.0,57.0,133.0,2.1,2.12,-160,-283,0,-256,198,262,139.7900266647339,139.7900674343109,139.7925362586975,139.80448532104492,139.95464253425598,139.95464253425598,139.95464253425598,139.95464253425598,139.95464253425598,139.95464253425598,139.95464253425598,141.9890558719635,1,2.1689016819000244,None,,,,,,,,,,,,,,,,,,25,5,2025-02-18_16h05.40.985,comp,2024.2.4,62.15800385606589,2025-02-18 16h05.51.459320 -0500,
52,52,0,filler_square,None,None,None,None,None,None,None,None,None,None,2,0.7536017894744873,None,,,,,0,0,0,0,0,52,52,175,142.00441455841064,,,,,,,,,,,,,,,,,,,,,,,,,,,,,,,,,,,,,,,,,,,,,,,,,,,,,,,,,,,,,,,,,,,,,,,,,,,,,,,,,130.1768789663236,112.4185507135812,156.51003940362813,156.51003940362813,57.53873634982931,102.80844959634618,1.0,1.3,250,-273,480,-260,706,-271,141.9900200366974,141.99006295204163,141.99254989624023,142.00441455841064,142.1398856639862,142.1398856639862,142.1398856639862,142.1398856639862,142.1398856639862,142.1398856639862,142.1398856639862,142.77259922027588,2,0.7536017894744873,None,,,,,,,,,,,,,,,,,,25,5,2025-02-18_16h05.40.985,comp,2024.2.4,62.15800385606589,2025-02-18 16h05.51.459320 -0500,
53,53,0,filler_random,None,None,None,None,None,None,None,None,None,None,1,1.4505577087402344,None,,,,,0,0,0,0,0,53,53,146,142.787743806839,,,,,,,,,,,,,,,,,,,,,,,,,,,,,,,,,,,,,,,,,,,,,,,,,,,,,,,,,,,,,,,,,,,,,,,,,,,,,,,,,114.19756265220101,184.22671801355662,188.18617114195658,102.14973933342881,71.9216096562657,114.8249878697014,1.0,1.2,-239,16,0,6,204,-18,142.77349615097046,142.7735378742218,142.77616500854492,142.787743806839,142.93792605400085,142.93792605400085,142.93792605400085,142.93792605400085,142.93792605400085,142.93792605400085,142.93792605400085,144.2558708190918,1,1.4505577087402344,None,,,,,,,,,,,,,,,,,,25,5,2025-02-18_16h05.40.985,comp,2024.2.4,62.15800385606589,2025-02-18 16h05.51.459320 -0500,
54,54,0,critical,whd,20.0,3.0,lower,57.0,133.0,133.0,57.0,78.0,78.0,2,1.7184646129608154,None,,,,,0,0,0,0,0,54,54,92,144.27106642723083,,,,,,,,,,,,,,,,,,,,,,,,,,,,,,,,,,,,,,,,,,,,,,,,,,,,,,,,,,,,,,,,,,,,,,,,,,,,,,,,,57.0,133.0,133.0,57.0,78.0,78.0,3.0,3.1,-191,251,0,-9,164,-256,144.25667524337769,144.25671696662903,144.25972819328308,144.27106642723083,144.42112159729004,144.42112159729004,144.42112159729004,144.42112159729004,144.42112159729004,144.42112159729004,144.42112159729004,146.00596809387207,2,1.7184646129608154,None,,,,,,,,,,,,,,,,,,25,5,2025-02-18_16h05.40.985,comp,2024.2.4,62.15800385606589,2025-02-18 16h05.51.459320 -0500,
55,55,0,critical,hwd,35.0,2.1,upper,200.0,125.0,125.0,200.0,127.0,127.0,1,1.072206735610962,None,,,,,0,0,0,0,0,55,55,17,146.02104878425598,,,,,,,,,,,,,,,,,,,,,,,,,,,,,,,,,,,,,,,,,,,,,,,,,,,,,,,,,,,,,,,,,,,,,,,,,,,,,,,,,200.0,125.0,125.0,200.0,127.0,127.0,2.1,2.12,-258,-271,0,-265,260,254,146.00676012039185,146.00680136680603,146.0089066028595,146.02104878425598,146.1714587211609,146.1714587211609,146.1714587211609,146.1714587211609,146.1714587211609,146.1714587211609,146.1714587211609,147.1056683063507,1,1.072206735610962,None,,,,,,,,,,,,,,,,,,25,5,2025-02-18_16h05.40.985,comp,2024.2.4,62.15800385606589,2025-02-18 16h05.51.459320 -0500,
56,56,0,filler_random,None,None,None,None,None,None,None,None,None,None,1,0.8050305843353271,None,,,,,0,0,0,0,0,56,56,148,147.120938539505,,,,,,,,,,,,,,,,,,,,,,,,,,,,,,,,,,,,,,,,,,,,,,,,,,,,,,,,,,,,,,,,,,,,,,,,,,,,,,,,,198.74381613443143,182.3040974020101,76.71186470462396,153.51786403702988,96.39916747518491,99.37279074989823,2.1,2.11,-264,283,0,264,222,-274,147.1065752506256,147.10661673545837,147.1088948249817,147.120938539505,147.27115201950073,147.27115201950073,147.27115201950073,147.27115201950073,147.27115201950073,147.27115201950073,147.27115201950073,147.93909096717834,1,0.8050305843353271,None,,,,,,,,,,,,,,,,,,25,5,2025-02-18_16h05.40.985,comp,2024.2.4,62.15800385606589,2025-02-18 16h05.51.459320 -0500,
57,57,0,catch,None,None,None,None,None,None,None,None,None,None,1,0.6920664310455322,None,,,,,0,0,0,0,0,57,57,129,147.9543104171753,,,,,,,,,,,,,,,,,,,,,,,,,,,,,,,,,,,,,,,,,,,,,,,,,,,,,,,,,,,,,,,,,,,,,,,,,,,,,,,,,167,158,87,103,74,116,2.1,2.11,-226,272,0,259,206,-272,147.94014477729797,147.9401867389679,147.9426429271698,147.9543104171753,148.10454726219177,148.10454726219177,148.10454726219177,148.10454726219177,148.10454726219177,148.10454726219177,148.10454726219177,148.655531167984,1,0.6920664310455322,None,,,,,,,,,,,,,,,,,,25,5,2025-02-18_16h05.40.985,comp,2024.2.4,62.15800385606589,2025-02-18 16h05.51.459320 -0500,
58,58,0,critical,dhw,20.0,3.0,lower,78.0,78.0,133.0,57.0,57.0,133.0,3,1.454749584197998,None,,,,,0,0,0,0,0,58,58,56,148.67121934890747,,,,,,,,,,,,,,,,,,,,,,,,,,,,,,,,,,,,,,,,,,,,,,,,,,,,,,,,,,,,,,,,,,,,,,,,,,,,,,,,,78.0,78.0,133.0,57.0,57.0,133.0,3.0,3.1,-164,290,0,17,191,-266,148.65635061264038,148.65639305114746,148.65905570983887,148.67121934890747,148.8210289478302,148.8210289478302,148.8210289478302,148.8210289478302,148.8210289478302,148.8210289478302,148.8210289478302,150.1392068862915,3,1.454749584197998,None,,,,,,,,,,,,,,,,,,25,5,2025-02-18_16h05.40.985,comp,2024.2.4,62.15800385606589,2025-02-18 16h05.51.459320 -0500,
59,59,0,filler_random,None,None,None,None,None,None,None,None,None,None,3,0.7811107635498047,None,,,,,0,0,0,0,0,59,59,143,150.15429067611694,,,,,,,,,,,,,,,,,,,,,,,,,,,,,,,,,,,,,,,,,,,,,,,,,,,,,,,,,,,,,,,,,,,,,,,,,,,,,,,,,125.38187962980717,124.52876901015382,90.2360051587246,170.69568000065163,199.43825665152798,161.38129590593397,1.0,1.1,-724,265,-480,264,-218,251,150.14014101028442,150.1401846408844,150.14266848564148,150.15429067611694,150.3048255443573,150.3048255443573,150.3048255443573,150.3048255443573,150.3048255443573,150.3048255443573,150.3048255443573,150.93912172317505,3,0.7811107635498047,None,,,,,,,,,,,,,,,,,,25,5,2025-02-18_16h05.40.985,comp,2024.2.4,62.15800385606589,2025-02-18 16h05.51.459320 -0500,
60,60,0,critical,hwd,20.0,4.0,lower,133.0,57.0,57.0,133.0,78.0,78.0,1,1.7657177448272705,None,,,,,0,0,0,0,0,60,60,106,150.95448541641235,,,,,,,,,,,,,,,,,,,,,,,,,,,,,,,,,,,,,,,,,,,,,,,,,,,,,,,,,,,,,,,,,,,,,,,,,,,,,,,,,133.0,57.0,57.0,133.0,78.0,78.0,4.0,4.1,-191,-287,0,-1,202,-278,150.93991947174072,150.93996167182922,150.94212818145752,150.95448541641235,151.10440397262573,151.10440397262573,151.10440397262573,151.10440397262573,151.10440397262573,151.10440397262573,151.10440397262573,152.7389042377472,1,1.7657177448272705,None,,,,,,,,,,,,,,,,,,25,5,2025-02-18_16h05.40.985,comp,2024.2.4,62.15800385606589,2025-02-18 16h05.51.459320 -0500,
61,61,0,critical,hdw,20.0,2.1,lower,133.0,57.0,78.0,78.0,57.0,133.0,3,1.6510260105133057,None,,,,,0,0,0,0,0,61,61,46,152.75431513786316,,,,,,,,,,,,,,,,,,,,,,,,,,,,,,,,,,,,,,,,,,,,,,,,,,,,,,,,,,,,,,,,,,,,,,,,,,,,,,,,,133.0,57.0,78.0,78.0,57.0,133.0,2.1,2.11,-164,270,0,273,202,-253,152.73968029022217,152.7397210597992,152.74210214614868,152.75431513786316,152.90427017211914,152.90427017211914,152.90427017211914,152.90427017211914,152.90427017211914,152.90427017211914,152.90427017211914,154.42217564582825,3,1.6510260105133057,None,,,,,,,,,,,,,,,,,,25,5,2025-02-18_16h05.40.985,comp,2024.2.4,62.15800385606589,2025-02-18 16h05.51.459320 -0500,
62,62,0,critical,hwd,20.0,2.1,upper,200.0,125.0,125.0,200.0,141.0,141.0,1,1.4504435062408447,None,,,,,0,0,0,0,0,62,62,19,154.4376084804535,,,,,,,,,,,,,,,,,,,,,,,,,,,,,,,,,,,,,,,,,,,,,,,,,,,,,,,,,,,,,,,,,,,,,,,,,,,,,,,,,200.0,125.0,125.0,200.0,141.0,141.0,2.1,2.11,-258,259,0,265,266,-280,154.42299938201904,154.4230408668518,154.42555594444275,154.4376084804535,154.58784580230713,154.58784580230713,154.58784580230713,154.58784580230713,154.58784580230713,154.58784580230713,154.58784580230713,155.8893518447876,1,1.4504435062408447,None,,,,,,,,,,,,,,,,,,25,5,2025-02-18_16h05.40.985,comp,2024.2.4,62.15800385606589,2025-02-18 16h05.51.459320 -0500,
63,63,0,filler_random,None,None,None,None,None,None,None,None,None,None,1,2.4619274139404297,None,,,,,0,0,0,0,0,63,63,136,155.9044988155365,,,,,,,,,,,,,,,,,,,,,,,,,,,,,,,,,,,,,,,,,,,,,,,,,,,,,,,,,,,,,,,,,,,,,,,,,,,,,,,,,185.70047336331862,72.98817869510277,80.13137789645211,164.8441828645402,104.91487004713116,76.9877456603526,1.0,1.2,-215,9,0,6,217,17,155.8902451992035,155.890287399292,155.8931062221527,155.9044988155365,156.0543885231018,156.0543885231018,156.0543885231018,156.0543885231018,156.0543885231018,156.0543885231018,156.0543885231018,158.37235593795776,1,2.4619274139404297,None,,,,,,,,,,,,,,,,,,25,5,2025-02-18_16h05.40.985,comp,2024.2.4,62.15800385606589,2025-02-18 16h05.51.459320 -0500,
64,64,0,filler_square,None,None,None,None,None,None,None,None,None,None,2,1.6673667430877686,None,,,,,0,0,0,0,0,64,64,172,158.38785314559937,,,,,,,,,,,,,,,,,,,,,,,,,,,,,,,,,,,,,,,,,,,,,,,,,,,,,,,,,,,,,,,,,,,,,,,,,,,,,,,,,70.9363103188352,67.16117021544304,75.31609374313962,75.31609374313962,59.55178828043258,58.05109861327166,3.0,3.2,-167,-278,0,9,163,272,158.3733355998993,158.3733789920807,158.37599778175354,158.38785314559937,158.5377368927002,158.5377368927002,158.5377368927002,158.5377368927002,158.5377368927002,158.5377368927002,158.5377368927002,160.0720658302307,2,1.6673667430877686,None,,,,,,,,,,,,,,,,,,25,5,2025-02-18_16h05.40.985,comp,2024.2.4,62.15800385606589,2025-02-18 16h05.51.459320 -0500,
65,65,0,critical,dhw,20.0,2.1,lower,78.0,78.0,133.0,57.0,57.0,133.0,2,2.9751675128936768,None,,,,,0,0,0,0,0,65,65,2,160.08758449554443,,,,,,,,,,,,,,,,,,,,,,,,,,,,,,,,,,,,,,,,,,,,,,,,,,,,,,,,,,,,,,,,,,,,,,,,,,,,,,,,,78.0,78.0,133.0,57.0,57.0,133.0,2.1,2.12,-164,-257,0,-251,191,260,160.07284927368164,160.07289052009583,160.0753390789032,160.08758449554443,160.237530708313,160.237530708313,160.237530708313,160.237530708313,160.237530708313,160.237530708313,160.237530708313,163.0721356868744,2,2.9751675128936768,None,,,,,,,,,,,,,,,,,,25,5,2025-02-18_16h05.40.985,comp,2024.2.4,62.15800385606589,2025-02-18 16h05.51.459320 -0500,
66,66,0,filler_square,None,None,None,None,None,None,None,None,None,None,3,1.2323169708251953,None,,,,,0,0,0,0,0,66,66,184,163.08779621124268,,,,,,,,,,,,,,,,,,,,,,,,,,,,,,,,,,,,,,,,,,,,,,,,,,,,,,,,,,,,,,,,,,,,,,,,,,,,,,,,,70.21925781317191,69.40715656750727,69.87141706680013,66.8008078339176,108.80824615913053,108.80824615913053,1.0,1.3,316,-287,480,-258,664,-285,163.07312607765198,163.07317066192627,163.07567405700684,163.08779621124268,163.23756861686707,163.23756861686707,163.23756861686707,163.23756861686707,163.23756861686707,163.23756861686707,163.23756861686707,164.3221628665924,3,1.2323169708251953,None,,,,,,,,,,,,,,,,,,25,5,2025-02-18_16h05.40.985,comp,2024.2.4,62.15800385606589,2025-02-18 16h05.51.459320 -0500,
67,67,0,critical,dwh,35.0,2.1,lower,70.0,70.0,57.0,133.0,133.0,57.0,3,1.5012967586517334,None,,,,,0,0,0,0,0,67,67,4,164.33764243125916,,,,,,,,,,,,,,,,,,,,,,,,,,,,,,,,,,,,,,,,,,,,,,,,,,,,,,,,,,,,,,,,,,,,,,,,,,,,,,,,,70.0,70.0,57.0,133.0,133.0,57.0,2.1,2.12,-198,-271,0,-283,191,279,164.32300424575806,164.32304739952087,164.32549333572388,164.33764243125916,164.48770928382874,164.48770928382874,164.48770928382874,164.48770928382874,164.48770928382874,164.48770928382874,164.48770928382874,165.8553864955902,3,1.5012967586517334,None,,,,,,,,,,,,,,,,,,25,5,2025-02-18_16h05.40.985,comp,2024.2.4,62.15800385606589,2025-02-18 16h05.51.459320 -0500,
68,68,0,critical,dhw,35.0,2.1,lower,70.0,70.0,133.0,57.0,57.0,133.0,3,1.1593959331512451,None,,,,,0,0,0,0,0,68,68,24,165.87067890167236,,,,,,,,,,,,,,,,,,,,,,,,,,,,,,,,,,,,,,,,,,,,,,,,,,,,,,,,,,,,,,,,,,,,,,,,,,,,,,,,,70.0,70.0,133.0,57.0,57.0,133.0,2.1,2.11,-160,272,0,262,191,-274,165.85619449615479,165.85623741149902,165.8588161468506,165.87067890167236,166.0207633972168,166.0207633972168,166.0207633972168,166.0207633972168,166.0207633972168,166.0207633972168,166.0207633972168,167.03873252868652,3,1.1593959331512451,None,,,,,,,,,,,,,,,,,,25,5,2025-02-18_16h05.40.985,comp,2024.2.4,62.15800385606589,2025-02-18 16h05.51.459320 -0500,
69,69,0,critical,hwd,20.0,2.1,lower,133.0,57.0,57.0,133.0,78.0,78.0,1,1.2225408554077148,None,,,,,0,0,0,0,0,69,69,42,167.05446243286133,,,,,,,,,,,,,,,,,,,,,,,,,,,,,,,,,,,,,,,,,,,,,,,,,,,,,,,,,,,,,,,,,,,,,,,,,,,,,,,,,133.0,57.0,57.0,133.0,78.0,78.0,2.1,2.12,-191,-285,0,-273,202,284,167.0395483970642,167.03959202766418,167.04218220710754,167.05446243286133,167.20415782928467,167.20415782928467,167.20415782928467,167.20415782928467,167.20415782928467,167.20415782928467,167.20415782928467,168.28874564170837,1,1.2225408554077148,None,,,,,,,,,,,,,,,,,,25,5,2025-02-18_16h05.40.985,comp,2024.2.4,62.15800385606589,2025-02-18 16h05.51.459320 -0500,
70,70,0,critical,hdw,20.0,4.0,lower,133.0,57.0,78.0,78.0,57.0,133.0,1,1.1579816341400146,None,,,,,0,0,0,0,0,70,70,118,168.30401802062988,,,,,,,,,,,,,,,,,,,,,,,,,,,,,,,,,,,,,,,,,,,,,,,,,,,,,,,,,,,,,,,,,,,,,,,,,,,,,,,,,133.0,57.0,78.0,78.0,57.0,133.0,4.0,4.1,-164,-265,0,0,202,-252,168.2895450592041,168.28958535194397,168.29226684570312,168.30401802062988,168.4541642665863,168.4541642665863,168.4541642665863,168.4541642665863,168.4541642665863,168.4541642665863,168.4541642665863,169.47196102142334,1,1.1579816341400146,None,,,,,,,,,,,,,,,,,,25,5,2025-02-18_16h05.40.985,comp,2024.2.4,62.15800385606589,2025-02-18 16h05.51.459320 -0500,
71,71,0,filler_random,None,None,None,None,None,None,None,None,None,None,2,1.5335650444030762,None,,,,,0,0,0,0,0,71,71,163,169.48787236213684,,,,,,,,,,,,,,,,,,,,,,,,,,,,,,,,,,,,,,,,,,,,,,,,,,,,,,,,,,,,,,,,,,,,,,,,,,,,,,,,,157.26760385979634,103.2514438502566,125.62305288411565,173.85852779986226,112.41071825326577,166.4409628552583,3.0,3.2,-235,-288,0,-2,266,253,169.47289562225342,169.47293758392334,169.47526693344116,169.48787236213684,169.63761162757874,169.63761162757874,169.63761162757874,169.63761162757874,169.63761162757874,169.63761162757874,169.63761162757874,171.03876185417175,2,1.5335650444030762,None,,,,,,,,,,,,,,,,,,25,5,2025-02-18_16h05.40.985,comp,2024.2.4,62.15800385606589,2025-02-18 16h05.51.459320 -0500,
72,72,0,filler_random,None,None,None,None,None,None,None,None,None,None,3,1.4171671867370605,None,,,,,0,0,0,0,0,72,72,160,171.0540792942047,,,,,,,,,,,,,,,,,,,,,,,,,,,,,,,,,,,,,,,,,,,,,,,,,,,,,,,,,,,,,,,,,,,,,,,,,,,,,,,,,120.21573277844581,149.31305986117832,163.987827824419,100.11876797019247,185.14330629011945,152.25273875114567,2.2,2.21,-221,-267,0,278,222,263,171.03967428207397,171.03971672058105,171.04234409332275,171.0540792942047,171.20444798469543,171.20444798469543,171.20444798469543,171.20444798469543,171.20444798469543,171.20444798469543,171.20444798469543,172.4885618686676,3,1.4171671867370605,None,,,,,,,,,,,,,,,,,,25,5,2025-02-18_16h05.40.985,comp,2024.2.4,62.15800385606589,2025-02-18 16h05.51.459320 -0500,
73,73,0,critical,hdw,35.0,4.0,lower,133.0,57.0,70.0,70.0,57.0,133.0,3,1.8466596603393555,None,,,,,0,0,0,0,0,73,73,112,172.50392270088196,,,,,,,,,,,,,,,,,,,,,,,,,,,,,,,,,,,,,,,,,,,,,,,,,,,,,,,,,,,,,,,,,,,,,,,,,,,,,,,,,133.0,57.0,70.0,70.0,57.0,133.0,4.0,4.2,-160,4,0,-278,198,11,172.48937010765076,172.489413022995,172.4920585155487,172.50392270088196,172.65396237373352,172.65396237373352,172.65396237373352,172.65396237373352,172.65396237373352,172.65396237373352,172.65396237373352,174.35521173477173,3,1.8466596603393555,None,,,,,,,,,,,,,,,,,,25,5,2025-02-18_16h05.40.985,comp,2024.2.4,62.15800385606589,2025-02-18 16h05.51.459320 -0500,
74,74,0,filler_random,None,None,None,None,None,None,None,None,None,None,1,3.474954605102539,None,,,,,0,0,0,0,0,74,74,131,174.37094020843506,,,,,,,,,,,,,,,,,,,,,,,,,,,,,,,,,,,,,,,,,,,,,,,,,,,,,,,,,,,,,,,,,,,,,,,,,,,,,,,,,183.61974722579885,100.57168157359177,125.36654412885115,144.74149104713405,163.4200223863032,61.29257164164575,2.1,2.11,-219,272,0,281,199,-258,174.35612654685974,174.35616993904114,174.35866785049438,174.37094020843506,174.52089548110962,174.52089548110962,174.52089548110962,174.52089548110962,174.52089548110962,174.52089548110962,174.52089548110962,177.8553590774536,1,3.474954605102539,None,,,,,,,,,,,,,,,,,,25,5,2025-02-18_16h05.40.985,comp,2024.2.4,62.15800385606589,2025-02-18 16h05.51.459320 -0500,
75,75,0,critical,wdh,20.0,2.1,lower,57.0,133.0,78.0,78.0,133.0,57.0,3,3.0861616134643555,None,,,,,0,0,0,0,0,75,75,34,177.87096500396729,,,,,,,,,,,,,,,,,,,,,,,,,,,,,,,,,,,,,,,,,,,,,,,,,,,,,,,,,,,,,,,,,,,,,,,,,,,,,,,,,57.0,133.0,78.0,78.0,133.0,57.0,2.1,2.11,-202,287,0,255,164,-278,177.8561725616455,177.85621333122253,177.85870170593262,177.87096500396729,178.0220284461975,178.0220284461975,178.0220284461975,178.0220284461975,178.0220284461975,178.0220284461975,178.0220284461975,180.97192478179932,3,3.0861616134643555,None,,,,,,,,,,,,,,,,,,25,5,2025-02-18_16h05.40.985,comp,2024.2.4,62.15800385606589,2025-02-18 16h05.51.459320 -0500,
76,76,0,catch,None,None,None,None,None,None,None,None,None,None,3,0.8670144081115723,None,,,,,0,0,0,0,0,76,76,125,180.98731780052185,,,,,,,,,,,,,,,,,,,,,,,,,,,,,,,,,,,,,,,,,,,,,,,,,,,,,,,,,,,,,,,,,,,,,,,,,,,,,,,,,104,86,81,109,154,171,4.0,4.2,-194,12,0,-276,236,18,180.97298002243042,180.9730246067047,180.97641897201538,180.98731780052185,181.13745212554932,181.13745212554932,181.13745212554932,181.13745212554932,181.13745212554932,181.13745212554932,181.13745212554932,181.87188696861267,3,0.8670144081115723,None,,,,,,,,,,,,,,,,,,25,5,2025-02-18_16h05.40.985,comp,2024.2.4,62.15800385606589,2025-02-18 16h05.51.459320 -0500,
77,77,0,critical,wdh,20.0,1.0,upper,125.0,200.0,141.0,141.0,200.0,125.0,3,1.0004699230194092,None,,,,,0,0,0,0,0,77,77,79,181.88716220855713,,,,,,,,,,,,,,,,,,,,,,,,,,,,,,,,,,,,,,,,,,,,,,,,,,,,,,,,,,,,,,,,,,,,,,,,,,,,,,,,,125.0,200.0,141.0,141.0,200.0,125.0,1.0,1.3,214,-253,480,-255,709,-257,181.87267684936523,181.87271881103516,181.87514567375183,181.88716220855713,182.03753924369812,182.03753924369812,182.03753924369812,182.03753924369812,182.03753924369812,182.03753924369812,182.03753924369812,182.8888294696808,3,1.0004699230194092,None,,,,,,,,,,,,,,,,,,25,5,2025-02-18_16h05.40.985,comp,2024.2.4,62.15800385606589,2025-02-18 16h05.51.459320 -0500,
78,78,0,filler_square,None,None,None,None,None,None,None,None,None,None,1,0.830822229385376,None,,,,,0,0,0,0,0,78,78,198,182.90394854545593,,,,,,,,,,,,,,,,,,,,,,,,,,,,,,,,,,,,,,,,,,,,,,,,,,,,,,,,,,,,,,,,,,,,,,,,,,,,,,,,,149.78201032680198,149.78201032680198,80.12375887170106,130.6907624750691,110.10203642115314,128.55307370921253,4.0,4.1,-236,-281,0,9,226,-270,182.88979125022888,182.88984274864197,182.89205265045166,182.90394854545593,183.0540316104889,183.0540316104889,183.0540316104889,183.0540316104889,183.0540316104889,183.0540316104889,183.0540316104889,183.73859930038452,1,0.830822229385376,None,,,,,,,,,,,,,,,,,,25,5,2025-02-18_16h05.40.985,comp,2024.2.4,62.15800385606589,2025-02-18 16h05.51.459320 -0500,
79,79,0,filler_square,None,None,None,None,None,None,None,None,None,None,1,0.7547147274017334,None,,,,,0,0,0,0,0,79,79,189,183.7541081905365,,,,,,,,,,,,,,,,,,,,,,,,,,,,,,,,,,,,,,,,,,,,,,,,,,,,,,,,,,,,,,,,,,,,,,,,,,,,,,,,,116.89499338246866,116.89499338246866,87.87907708790743,60.241798882771995,65.87644368575249,104.32408212803338,1.0,1.3,295,-284,480,-263,658,-284,183.73958015441895,183.73962450027466,183.74221205711365,183.7541081905365,183.90393447875977,183.90393447875977,183.90393447875977,183.90393447875977,183.90393447875977,183.90393447875977,183.90393447875977,184.52175641059875,1,0.7547147274017334,None,,,,,,,,,,,,,,,,,,25,5,2025-02-18_16h05.40.985,comp,2024.2.4,62.15800385606589,2025-02-18 16h05.51.459320 -0500,
80,80,0,critical,whd,20.0,2.1,lower,57.0,133.0,133.0,57.0,78.0,78.0,3,1.2127044200897217,None,,,,,0,0,0,0,0,80,80,14,184.53736901283264,,,,,,,,,,,,,,,,,,,,,,,,,,,,,,,,,,,,,,,,,,,,,,,,,,,,,,,,,,,,,,,,,,,,,,,,,,,,,,,,,57.0,133.0,133.0,57.0,78.0,78.0,2.1,2.11,-191,285,0,263,164,-287,184.52256608009338,184.5226080417633,184.52534890174866,184.53736901283264,184.68730401992798,184.68730401992798,184.68730401992798,184.68730401992798,184.68730401992798,184.68730401992798,184.68730401992798,185.75517630577087,3,1.2127044200897217,None,,,,,,,,,,,,,,,,,,25,5,2025-02-18_16h05.40.985,comp,2024.2.4,62.15800385606589,2025-02-18 16h05.51.459320 -0500,
81,81,0,critical,dhw,20.0,1.0,upper,141.0,141.0,200.0,125.0,125.0,200.0,2,2.53273344039917,None,,,,,0,0,0,0,0,81,81,55,185.7707417011261,,,,,,,,,,,,,,,,,,,,,,,,,,,,,,,,,,,,,,,,,,,,,,,,,,,,,,,,,,,,,,,,,,,,,,,,,,,,,,,,,141.0,141.0,200.0,125.0,125.0,200.0,1.0,1.2,-229,-17,0,-3,258,-1,185.75594687461853,185.75598788261414,185.7581009864807,185.7707417011261,185.92079710960388,185.92079710960388,185.92079710960388,185.92079710960388,185.92079710960388,185.92079710960388,185.92079710960388,188.3056399822235,2,2.53273344039917,None,,,,,,,,,,,,,,,,,,25,5,2025-02-18_16h05.40.985,comp,2024.2.4,62.15800385606589,2025-02-18 16h05.51.459320 -0500,
82,82,0,filler_random,None,None,None,None,None,None,None,None,None,None,1,1.5173466205596924,None,,,,,0,0,0,0,0,82,82,133,188.32063937187195,,,,,,,,,,,,,,,,,,,,,,,,,,,,,,,,,,,,,,,,,,,,,,,,,,,,,,,,,,,,,,,,,,,,,,,,,,,,,,,,,185.8090880957817,185.36741505281546,147.88964631434993,116.10642754481962,145.48713094963352,136.78981769860727,1.0,1.3,233,-254,480,-265,702,-277,188.30659413337708,188.30663442611694,188.30923771858215,188.32063937187195,188.47073435783386,188.47073435783386,188.47073435783386,188.47073435783386,188.47073435783386,188.47073435783386,188.47073435783386,189.85521984100342,1,1.5173466205596924,None,,,,,,,,,,,,,,,,,,25,5,2025-02-18_16h05.40.985,comp,2024.2.4,62.15800385606589,2025-02-18 16h05.51.459320 -0500,
83,83,0,filler_random,None,None,None,None,None,None,None,None,None,None,2,3.0705480575561523,None,,,,,0,0,0,0,0,83,83,154,189.870374917984,,,,,,,,,,,,,,,,,,,,,,,,,,,,,,,,,,,,,,,,,,,,,,,,,,,,,,,,,,,,,,,,,,,,,,,,,,,,,,,,,60.89831205443877,160.0983647573645,98.2952617306972,185.8397026641055,147.3799780177352,96.86971444208612,2.2,2.21,-269,-267,0,261,237,271,189.85613417625427,189.85617756843567,189.85861372947693,189.870374917984,190.02059698104858,190.02059698104858,190.02059698104858,190.02059698104858,190.02059698104858,190.02059698104858,190.02059698104858,192.9551341533661,2,3.0705480575561523,None,,,,,,,,,,,,,,,,,,25,5,2025-02-18_16h05.40.985,comp,2024.2.4,62.15800385606589,2025-02-18 16h05.51.459320 -0500,
84,84,0,critical,hdw,20.0,2.1,lower,133.0,57.0,78.0,78.0,57.0,133.0,1,2.218308210372925,None,,,,,0,0,0,0,0,84,84,22,192.9704248905182,,,,,,,,,,,,,,,,,,,,,,,,,,,,,,,,,,,,,,,,,,,,,,,,,,,,,,,,,,,,,,,,,,,,,,,,,,,,,,,,,133.0,57.0,78.0,78.0,57.0,133.0,2.1,2.12,-164,-263,0,-283,202,272,192.95597076416016,192.95601201057434,192.9585485458374,192.9704248905182,193.12049174308777,193.12049174308777,193.12049174308777,193.12049174308777,193.12049174308777,193.12049174308777,193.12049174308777,195.20503091812134,1,2.218308210372925,None,,,,,,,,,,,,,,,,,,25,5,2025-02-18_16h05.40.985,comp,2024.2.4,62.15800385606589,2025-02-18 16h05.51.459320 -0500,
85,85,0,critical,hwd,20.0,2.1,upper,200.0,125.0,125.0,200.0,141.0,141.0,2,4.817238092422485,None,,,,,0,0,0,0,0,85,85,43,195.22032523155212,,,,,,,,,,,,,,,,,,,,,,,,,,,,,,,,,,,,,,,,,,,,,,,,,,,,,,,,,,,,,,,,,,,,,,,,,,,,,,,,,200.0,125.0,125.0,200.0,141.0,141.0,2.1,2.11,-258,286,0,279,266,-251,195.20582509040833,195.20588183403015,195.20832300186157,195.22032523155212,195.37082076072693,195.37082076072693,195.37082076072693,195.37082076072693,195.37082076072693,195.37082076072693,195.37082076072693,200.05516743659973,2,4.817238092422485,None,,,,,,,,,,,,,,,,,,25,5,2025-02-18_16h05.40.985,comp,2024.2.4,62.15800385606589,2025-02-18 16h05.51.459320 -0500,
86,86,0,critical,dwh,20.0,4.0,upper,141.0,141.0,125.0,200.0,200.0,125.0,3,1.7181596755981445,None,,,,,0,0,0,0,0,86,86,71,200.07037472724915,,,,,,,,,,,,,,,,,,,,,,,,,,,,,,,,,,,,,,,,,,,,,,,,,,,,,,,,,,,,,,,,,,,,,,,,,,,,,,,,,141.0,141.0,125.0,200.0,200.0,125.0,4.0,4.2,-266,19,0,-256,258,-5,200.05596923828125,200.05601119995117,200.05841636657715,200.07037472724915,200.22065019607544,200.22065019607544,200.22065019607544,200.22065019607544,200.22065019607544,200.22065019607544,200.22065019607544,201.8051998615265,3,1.7181596755981445,None,,,,,,,,,,,,,,,,,,25,5,2025-02-18_16h05.40.985,comp,2024.2.4,62.15800385606589,2025-02-18 16h05.51.459320 -0500,
87,87,0,critical,wdh,35.0,3.0,lower,57.0,133.0,70.0,70.0,133.0,57.0,3,1.2419214248657227,None,,,,,0,0,0,0,0,87,87,74,201.82033491134644,,,,,,,,,,,,,,,,,,,,,,,,,,,,,,,,,,,,,,,,,,,,,,,,,,,,,,,,,,,,,,,,,,,,,,,,,,,,,,,,,57.0,133.0,70.0,70.0,133.0,57.0,3.0,3.1,-198,258,0,-4,160,-257,201.8060986995697,201.80614066123962,201.80841422080994,201.82033491134644,201.9704909324646,201.9704909324646,201.9704909324646,201.9704909324646,201.9704909324646,201.9704909324646,201.9704909324646,203.0715184211731,3,1.2419214248657227,None,,,,,,,,,,,,,,,,,,25,5,2025-02-18_16h05.40.985,comp,2024.2.4,62.15800385606589,2025-02-18 16h05.51.459320 -0500,
88,88,0,critical,wdh,35.0,1.0,upper,125.0,200.0,127.0,127.0,200.0,125.0,3,1.5506062507629395,None,,,,,0,0,0,0,0,88,88,73,203.08720088005066,,,,,,,,,,,,,,,,,,,,,,,,,,,,,,,,,,,,,,,,,,,,,,,,,,,,,,,,,,,,,,,,,,,,,,,,,,,,,,,,,125.0,200.0,127.0,127.0,200.0,125.0,1.0,1.3,220,-289,480,-287,702,-251,203.07234907150269,203.07239246368408,203.07500767707825,203.08720088005066,203.2373206615448,203.2373206615448,203.2373206615448,203.2373206615448,203.2373206615448,203.2373206615448,203.2373206615448,204.65492701530457,3,1.5506062507629395,None,,,,,,,,,,,,,,,,,,25,5,2025-02-18_16h05.40.985,comp,2024.2.4,62.15800385606589,2025-02-18 16h05.51.459320 -0500,
89,89,0,critical,dhw,35.0,2.1,upper,127.0,127.0,200.0,125.0,125.0,200.0,3,1.592151403427124,None,,,,,0,0,0,0,0,89,89,25,204.67011404037476,,,,,,,,,,,,,,,,,,,,,,,,,,,,,,,,,,,,,,,,,,,,,,,,,,,,,,,,,,,,,,,,,,,,,,,,,,,,,,,,,127.0,127.0,200.0,125.0,125.0,200.0,2.1,2.11,-222,267,0,256,258,-260,204.65569949150085,204.6557424068451,204.65813517570496,204.67011404037476,204.8206582069397,204.8206582069397,204.8206582069397,204.8206582069397,204.8206582069397,204.8206582069397,204.8206582069397,206.27158164978027,3,1.592151403427124,None,,,,,,,,,,,,,,,,,,25,5,2025-02-18_16h05.40.985,comp,2024.2.4,62.15800385606589,2025-02-18 16h05.51.459320 -0500,
90,90,0,critical,dwh,35.0,4.0,upper,127.0,127.0,125.0,200.0,200.0,125.0,3,1.5104718208312988,None,,,,,0,0,0,0,0,90,90,65,206.2870843410492,,,,,,,,,,,,,,,,,,,,,,,,,,,,,,,,,,,,,,,,,,,,,,,,,,,,,,,,,,,,,,,,,,,,,,,,,,,,,,,,,127.0,127.0,125.0,200.0,200.0,125.0,4.0,4.1,-260,-288,0,20,258,-255,206.27235507965088,206.27239656448364,206.27450346946716,206.2870843410492,206.43728518486023,206.43728518486023,206.43728518486023,206.43728518486023,206.43728518486023,206.43728518486023,206.43728518486023,207.80527782440186,3,1.5104718208312988,None,,,,,,,,,,,,,,,,,,25,5,2025-02-18_16h05.40.985,comp,2024.2.4,62.15800385606589,2025-02-18 16h05.51.459320 -0500,
91,91,0,critical,wdh,20.0,4.0,lower,57.0,133.0,78.0,78.0,133.0,57.0,3,2.7931511402130127,None,,,,,0,0,0,0,0,91,91,82,207.82054734230042,,,,,,,,,,,,,,,,,,,,,,,,,,,,,,,,,,,,,,,,,,,,,,,,,,,,,,,,,,,,,,,,,,,,,,,,,,,,,,,,,57.0,133.0,78.0,78.0,133.0,57.0,4.0,4.2,-202,-6,0,-254,164,-16,207.80613136291504,207.80617308616638,207.8087089061737,207.82054734230042,207.97027707099915,207.97027707099915,207.97027707099915,207.97027707099915,207.97027707099915,207.97027707099915,207.97027707099915,210.62159705162048,3,2.7931511402130127,None,,,,,,,,,,,,,,,,,,25,5,2025-02-18_16h05.40.985,comp,2024.2.4,62.15800385606589,2025-02-18 16h05.51.459320 -0500,
92,92,0,critical,wdh,35.0,1.0,lower,57.0,133.0,70.0,70.0,133.0,57.0,1,1.0881338119506836,None,,,,,0,0,0,0,0,92,92,72,210.63702273368835,,,,,,,,,,,,,,,,,,,,,,,,,,,,,,,,,,,,,,,,,,,,,,,,,,,,,,,,,,,,,,,,,,,,,,,,,,,,,,,,,57.0,133.0,70.0,70.0,133.0,57.0,1.0,1.2,-198,7,0,-3,160,-4,210.62240839004517,210.62245178222656,210.6250936985016,210.63702273368835,210.7870752811432,210.7870752811432,210.7870752811432,210.7870752811432,210.7870752811432,210.7870752811432,210.7870752811432,211.73809719085693,1,1.0881338119506836,None,,,,,,,,,,,,,,,,,,25,5,2025-02-18_16h05.40.985,comp,2024.2.4,62.15800385606589,2025-02-18 16h05.51.459320 -0500,
93,93,0,critical,wdh,20.0,4.0,upper,125.0,200.0,141.0,141.0,200.0,125.0,3,1.5086596012115479,None,,,,,0,0,0,0,0,93,93,83,211.753488779068,,,,,,,,,,,,,,,,,,,,,,,,,,,,,,,,,,,,,,,,,,,,,,,,,,,,,,,,,,,,,,,,,,,,,,,,,,,,,,,,,125.0,200.0,141.0,141.0,200.0,125.0,4.0,4.2,-266,-11,0,-267,229,15,211.7389018535614,211.7389440536499,211.7414584159851,211.753488779068,211.9036741256714,211.9036741256714,211.9036741256714,211.9036741256714,211.9036741256714,211.9036741256714,211.9036741256714,213.27154302597046,3,1.5086596012115479,None,,,,,,,,,,,,,,,,,,25,5,2025-02-18_16h05.40.985,comp,2024.2.4,62.15800385606589,2025-02-18 16h05.51.459320 -0500,
94,94,0,filler_square,None,None,None,None,None,None,None,None,None,None,2,1.6784100532531738,None,,,,,0,0,0,0,0,94,94,196,213.28711533546448,,,,,,,,,,,,,,,,,,,,,,,,,,,,,,,,,,,,,,,,,,,,,,,,,,,,,,,,,,,,,,,,,,,,,,,,,,,,,,,,,60.31933706708748,57.49733052929032,67.54516073983763,67.54516073983763,64.9906222365987,66.66478374654335,4.0,4.2,-159,17,0,-282,163,15,213.27251434326172,213.27255702018738,213.27518820762634,213.28711533546448,213.43699407577515,213.43699407577515,213.43699407577515,213.43699407577515,213.43699407577515,213.43699407577515,213.43699407577515,214.97178435325623,2,1.6784100532531738,None,,,,,,,,,,,,,,,,,,25,5,2025-02-18_16h05.40.985,comp,2024.2.4,62.15800385606589,2025-02-18 16h05.51.459320 -0500,
95,95,0,filler_square,None,None,None,None,None,None,None,None,None,None,3,0.8502781391143799,None,,,,,0,0,0,0,0,95,95,181,214.98712301254272,,,,,,,,,,,,,,,,,,,,,,,,,,,,,,,,,,,,,,,,,,,,,,,,,,,,,,,,,,,,,,,,,,,,,,,,,,,,,,,,,118.14079933772118,86.22229840749964,102.1930166493954,171.28266525910533,178.65134967703688,178.65134967703688,1.0,1.2,-225,5,0,14,271,14,214.97300744056702,214.97306728363037,214.9755437374115,214.98712301254272,215.137024641037,215.137024641037,215.137024641037,215.137024641037,215.137024641037,215.137024641037,215.137024641037,215.85485816001892,3,0.8502781391143799,None,,,,,,,,,,,,,,,,,,25,5,2025-02-18_16h05.40.985,comp,2024.2.4,62.15800385606589,2025-02-18 16h05.51.459320 -0500,
96,96,0,filler_random,None,None,None,None,None,None,None,None,None,None,3,1.0004041194915771,None,,,,,0,0,0,0,0,96,96,159,215.8701355457306,,,,,,,,,,,,,,,,,,,,,,,,,,,,,,,,,,,,,,,,,,,,,,,,,,,,,,,,,,,,,,,,,,,,,,,,,,,,,,,,,62.38082242711255,71.25615912877515,73.84618405054536,178.84970755136257,90.16262050898963,199.50660921241425,3.0,3.2,-221,-263,0,17,285,266,215.85575103759766,215.85579371452332,215.85803198814392,215.8701355457306,216.02048707008362,216.02048707008362,216.02048707008362,216.02048707008362,216.02048707008362,216.02048707008362,216.02048707008362,216.8718569278717,3,1.0004041194915771,None,,,,,,,,,,,,,,,,,,25,5,2025-02-18_16h05.40.985,comp,2024.2.4,62.15800385606589,2025-02-18 16h05.51.459320 -0500,
97,97,0,critical,hdw,20.0,3.0,lower,133.0,57.0,78.0,78.0,57.0,133.0,1,1.4381036758422852,None,,,,,0,0,0,0,0,97,97,116,216.88693976402283,,,,,,,,,,,,,,,,,,,,,,,,,,,,,,,,,,,,,,,,,,,,,,,,,,,,,,,,,,,,,,,,,,,,,,,,,,,,,,,,,133.0,57.0,78.0,78.0,57.0,133.0,3.0,3.2,-164,-254,0,-6,202,275,216.87274646759033,216.87278962135315,216.8750274181366,216.88693976402283,217.03690242767334,217.03690242767334,217.03690242767334,217.03690242767334,217.03690242767334,217.03690242767334,217.03690242767334,218.33803820610046,1,1.4381036758422852,None,,,,,,,,,,,,,,,,,,25,5,2025-02-18_16h05.40.985,comp,2024.2.4,62.15800385606589,2025-02-18 16h05.51.459320 -0500,
98,98,0,critical,dwh,20.0,1.0,lower,78.0,78.0,57.0,133.0,133.0,57.0,3,1.396254539489746,None,,,,,0,0,0,0,0,98,98,66,218.35339546203613,,,,,,,,,,,,,,,,,,,,,,,,,,,,,,,,,,,,,,,,,,,,,,,,,,,,,,,,,,,,,,,,,,,,,,,,,,,,,,,,,78.0,78.0,57.0,133.0,133.0,57.0,1.0,1.3,278,-269,480,-280,671,-281,218.33885431289673,218.33889818191528,218.3413586616516,218.35339546203613,218.5036871433258,218.5036871433258,218.5036871433258,218.5036871433258,218.5036871433258,218.5036871433258,218.5036871433258,219.7547676563263,3,1.396254539489746,None,,,,,,,,,,,,,,,,,,25,5,2025-02-18_16h05.40.985,comp,2024.2.4,62.15800385606589,2025-02-18 16h05.51.459320 -0500,
99,99,0,critical,hwd,35.0,3.0,upper,200.0,125.0,125.0,200.0,127.0,127.0,2,1.0113248825073242,None,,,,,0,0,0,0,0,99,99,99,219.77040767669678,,,,,,,,,,,,,,,,,,,,,,,,,,,,,,,,,,,,,,,,,,,,,,,,,,,,,,,,,,,,,,,,,,,,,,,,,,,,,,,,,200.0,125.0,125.0,200.0,127.0,127.0,3.0,3.1,-258,259,0,-16,260,-281,219.75557351112366,219.7556140422821,219.75826787948608,219.77040767669678,219.92046070098877,219.92046070098877,219.92046070098877,219.92046070098877,219.92046070098877,219.92046070098877,219.92046070098877,220.78877639770508,2,1.0113248825073242,None,,,,,,,,,,,,,,,,,,25,5,2025-02-18_16h05.40.985,comp,2024.2.4,62.15800385606589,2025-02-18 16h05.51.459320 -0500,
100,100,0,filler_random,None,None,None,None,None,None,None,None,None,None,2,0.9362673759460449,None,,,,,0,0,0,0,0,100,100,153,220.80417585372925,,,,,,,,,,,,,,,,,,,,,,,,,,,,,,,,,,,,,,,,,,,,,,,,,,,,,,,,,,,,,,,,,,,,,,,,,,,,,,,,,182.85870624298155,89.90810917049606,153.17898050680725,155.05382819344936,63.396799272592276,176.96632817603114,4.0,4.2,-218,-18,0,-253,262,6,220.78970909118652,220.7897539138794,220.79176473617554,220.80417585372925,220.95360398292542,220.95360398292542,220.95360398292542,220.95360398292542,220.95360398292542,220.95360398292542,220.95360398292542,221.75463008880615,2,0.9362673759460449,None,,,,,,,,,,,,,,,,,,25,5,2025-02-18_16h05.40.985,comp,2024.2.4,62.15800385606589,2025-02-18 16h05.51.459320 -0500,
101,101,0,filler_random,None,None,None,None,None,None,None,None,None,None,1,1.0756628513336182,None,,,,,0,0,0,0,0,101,101,130,221.76997756958008,,,,,,,,,,,,,,,,,,,,,,,,,,,,,,,,,,,,,,,,,,,,,,,,,,,,,,,,,,,,,,,,,,,,,,,,,,,,,,,,,161.0250358138062,197.27971501978018,141.9851276944297,129.8223681385048,165.94458178934366,75.44764787290221,2.1,2.12,-260,-289,0,-255,199,286,221.75557017326355,221.75561213493347,221.7582070827484,221.76997756958008,221.9203324317932,221.9203324317932,221.9203324317932,221.9203324317932,221.9203324317932,221.9203324317932,221.9203324317932,222.85465502738953,1,1.0756628513336182,None,,,,,,,,,,,,,,,,,,25,5,2025-02-18_16h05.40.985,comp,2024.2.4,62.15800385606589,2025-02-18 16h05.51.459320 -0500,
102,102,0,critical,hdw,20.0,2.1,upper,200.0,125.0,141.0,141.0,125.0,200.0,3,1.2002391815185547,None,,,,,0,0,0,0,0,102,102,47,222.8701741695404,,,,,,,,,,,,,,,,,,,,,,,,,,,,,,,,,,,,,,,,,,,,,,,,,,,,,,,,,,,,,,,,,,,,,,,,,,,,,,,,,200.0,125.0,141.0,141.0,125.0,200.0,2.1,2.11,-229,260,0,262,266,-289,222.85541915893555,222.85545945167542,222.8574571609497,222.8701741695404,223.02028632164001,223.02028632164001,223.02028632164001,223.02028632164001,223.02028632164001,223.02028632164001,223.02028632164001,224.0715935230255,3,1.2002391815185547,None,,,,,,,,,,,,,,,,,,25,5,2025-02-18_16h05.40.985,comp,2024.2.4,62.15800385606589,2025-02-18 16h05.51.459320 -0500,
103,103,0,critical,whd,20.0,2.1,upper,125.0,200.0,200.0,125.0,141.0,141.0,1,1.4943585395812988,None,,,,,0,0,0,0,0,103,103,15,224.0869176387787,,,,,,,,,,,,,,,,,,,,,,,,,,,,,,,,,,,,,,,,,,,,,,,,,,,,,,,,,,,,,,,,,,,,,,,,,,,,,,,,,125.0,200.0,200.0,125.0,141.0,141.0,2.1,2.12,-258,-265,0,-251,229,272,224.07238101959229,224.07242465019226,224.07462120056152,224.0869176387787,224.2369303703308,224.2369303703308,224.2369303703308,224.2369303703308,224.2369303703308,224.2369303703308,224.2369303703308,225.58814072608948,1,1.4943585395812988,None,,,,,,,,,,,,,,,,,,25,5,2025-02-18_16h05.40.985,comp,2024.2.4,62.15800385606589,2025-02-18 16h05.51.459320 -0500,
104,104,0,critical,dwh,35.0,3.0,upper,127.0,127.0,125.0,200.0,200.0,125.0,3,1.466916561126709,None,,,,,0,0,0,0,0,104,104,63,225.60358214378357,,,,,,,,,,,,,,,,,,,,,,,,,,,,,,,,,,,,,,,,,,,,,,,,,,,,,,,,,,,,,,,,,,,,,,,,,,,,,,,,,127.0,127.0,125.0,200.0,200.0,125.0,3.0,3.1,-260,288,0,15,258,-257,225.58894062042236,225.58898329734802,225.59113836288452,225.60358214378357,225.7535879611969,225.7535879611969,225.7535879611969,225.7535879611969,225.7535879611969,225.7535879611969,225.7535879611969,227.08811688423157,3,1.466916561126709,None,,,,,,,,,,,,,,,,,,25,5,2025-02-18_16h05.40.985,comp,2024.2.4,62.15800385606589,2025-02-18 16h05.51.459320 -0500,
105,105,0,filler_random,None,None,None,None,None,None,None,None,None,None,3,0.8618707656860352,None,,,,,0,0,0,0,0,105,105,165,227.10326313972473,,,,,,,,,,,,,,,,,,,,,,,,,,,,,,,,,,,,,,,,,,,,,,,,,,,,,,,,,,,,,,,,,,,,,,,,,,,,,,,,,180.8210442508805,96.55280085930328,180.321485036796,92.32291636487008,131.34402385050404,180.77222432391034,2.1,2.11,-190,276,0,277,233,-283,227.0890336036682,227.08907508850098,227.09150171279907,227.10326313972473,227.25355410575867,227.25355410575867,227.25355410575867,227.25355410575867,227.25355410575867,227.25355410575867,227.25355410575867,227.97143054008484,3,0.8618707656860352,None,,,,,,,,,,,,,,,,,,25,5,2025-02-18_16h05.40.985,comp,2024.2.4,62.15800385606589,2025-02-18 16h05.51.459320 -0500,
106,106,0,critical,whd,20.0,2.1,lower,57.0,133.0,133.0,57.0,78.0,78.0,2,1.5627052783966064,None,,,,,0,0,0,0,0,106,106,38,227.98677825927734,,,,,,,,,,,,,,,,,,,,,,,,,,,,,,,,,,,,,,,,,,,,,,,,,,,,,,,,,,,,,,,,,,,,,,,,,,,,,,,,,57.0,133.0,133.0,57.0,78.0,78.0,2.1,2.11,-191,270,0,259,164,-275,227.9722158908844,227.97225713729858,227.9748034477234,227.98677825927734,228.13670873641968,228.13670873641968,228.13670873641968,228.13670873641968,228.13670873641968,228.13670873641968,228.13670873641968,229.55464577674866,2,1.5627052783966064,None,,,,,,,,,,,,,,,,,,25,5,2025-02-18_16h05.40.985,comp,2024.2.4,62.15800385606589,2025-02-18 16h05.51.459320 -0500,
107,107,0,critical,hdw,35.0,2.1,lower,133.0,57.0,70.0,70.0,57.0,133.0,1,1.122227668762207,None,,,,,0,0,0,0,0,107,107,20,229.57004618644714,,,,,,,,,,,,,,,,,,,,,,,,,,,,,,,,,,,,,,,,,,,,,,,,,,,,,,,,,,,,,,,,,,,,,,,,,,,,,,,,,133.0,57.0,70.0,70.0,57.0,133.0,2.1,2.12,-160,-271,0,-279,198,283,229.55546283721924,229.5555055141449,229.55792832374573,229.57004618644714,229.72026300430298,229.72026300430298,229.72026300430298,229.72026300430298,229.72026300430298,229.72026300430298,229.72026300430298,230.7045919895172,1,1.122227668762207,None,,,,,,,,,,,,,,,,,,25,5,2025-02-18_16h05.40.985,comp,2024.2.4,62.15800385606589,2025-02-18 16h05.51.459320 -0500,
108,108,0,critical,dwh,20.0,2.1,upper,141.0,141.0,125.0,200.0,200.0,125.0,3,1.5835435390472412,None,,,,,0,0,0,0,0,108,108,31,230.71987509727478,,,,,,,,,,,,,,,,,,,,,,,,,,,,,,,,,,,,,,,,,,,,,,,,,,,,,,,,,,,,,,,,,,,,,,,,,,,,,,,,,141.0,141.0,125.0,200.0,200.0,125.0,2.1,2.11,-266,263,0,256,258,-256,230.70536398887634,230.70540475845337,230.70801377296448,230.71987509727478,230.8703258037567,230.8703258037567,230.8703258037567,230.8703258037567,230.8703258037567,230.8703258037567,230.8703258037567,232.32134556770325,3,1.5835435390472412,None,,,,,,,,,,,,,,,,,,25,5,2025-02-18_16h05.40.985,comp,2024.2.4,62.15800385606589,2025-02-18 16h05.51.459320 -0500,
109,109,0,filler_square,None,None,None,None,None,None,None,None,None,None,2,1.1977691650390625,None,,,,,0,0,0,0,0,109,109,182,232.33652687072754,,,,,,,,,,,,,,,,,,,,,,,,,,,,,,,,,,,,,,,,,,,,,,,,,,,,,,,,,,,,,,,,,,,,,,,,,,,,,,,,,64.66992874988792,76.86546400102134,81.25721372177625,81.25721372177625,59.37282496625987,61.95031221870972,4.0,4.2,-175,12,0,-278,168,7,232.322327375412,232.32236862182617,232.3248975276947,232.33652687072754,232.4865550994873,232.4865550994873,232.4865550994873,232.4865550994873,232.4865550994873,232.4865550994873,232.4865550994873,233.53778266906738,2,1.1977691650390625,None,,,,,,,,,,,,,,,,,,25,5,2025-02-18_16h05.40.985,comp,2024.2.4,62.15800385606589,2025-02-18 16h05.51.459320 -0500,
110,110,0,critical,wdh,35.0,4.0,upper,125.0,200.0,127.0,127.0,200.0,125.0,3,1.611816167831421,None,,,,,0,0,0,0,0,110,110,77,233.55337953567505,,,,,,,,,,,,,,,,,,,,,,,,,,,,,,,,,,,,,,,,,,,,,,,,,,,,,,,,,,,,,,,,,,,,,,,,,,,,,,,,,125.0,200.0,127.0,127.0,200.0,125.0,4.0,4.2,-260,16,0,-258,222,-15,233.53858089447021,233.53862357139587,233.54100942611694,233.55337953567505,233.70355248451233,233.70355248451233,233.70355248451233,233.70355248451233,233.70355248451233,233.70355248451233,233.70355248451233,235.1714243888855,3,1.611816167831421,None,,,,,,,,,,,,,,,,,,25,5,2025-02-18_16h05.40.985,comp,2024.2.4,62.15800385606589,2025-02-18 16h05.51.459320 -0500,
111,111,0,filler_square,None,None,None,None,None,None,None,None,None,None,1,0.9624247550964355,None,,,,,0,0,0,0,0,111,111,187,235.18690085411072,,,,,,,,,,,,,,,,,,,,,,,,,,,,,,,,,,,,,,,,,,,,,,,,,,,,,,,,,,,,,,,,,,,,,,,,,,,,,,,,,105.59495455548446,105.59495455548446,67.15699206293726,60.24441641237752,72.2200324669633,104.49396799611677,1.0,1.2,-179,-19,0,-8,178,5,235.172376871109,235.1724193096161,235.17458963394165,235.18690085411072,235.33663725852966,235.33663725852966,235.33663725852966,235.33663725852966,235.33663725852966,235.33663725852966,235.33663725852966,236.15458512306213,1,0.9624247550964355,None,,,,,,,,,,,,,,,,,,25,5,2025-02-18_16h05.40.985,comp,2024.2.4,62.15800385606589,2025-02-18 16h05.51.459320 -0500,
112,112,0,critical,wdh,20.0,3.0,lower,57.0,133.0,78.0,78.0,133.0,57.0,1,1.9058687686920166,None,,,,,0,0,0,0,0,112,112,80,236.17011427879333,,,,,,,,,,,,,,,,,,,,,,,,,,,,,,,,,,,,,,,,,,,,,,,,,,,,,,,,,,,,,,,,,,,,,,,,,,,,,,,,,57.0,133.0,78.0,78.0,133.0,57.0,3.0,3.2,-202,-261,0,3,164,262,236.1553852558136,236.15542650222778,236.1580307483673,236.17011427879333,236.32002520561218,236.32002520561218,236.32002520561218,236.32002520561218,236.32002520561218,236.32002520561218,236.32002520561218,238.08824563026428,1,1.9058687686920166,None,,,,,,,,,,,,,,,,,,25,5,2025-02-18_16h05.40.985,comp,2024.2.4,62.15800385606589,2025-02-18 16h05.51.459320 -0500,
113,113,0,catch,None,None,None,None,None,None,None,None,None,None,1,0.767329216003418,None,,,,,0,0,0,0,0,113,113,123,238.10313248634338,,,,,,,,,,,,,,,,,,,,,,,,,,,,,,,,,,,,,,,,,,,,,,,,,,,,,,,,,,,,,,,,,,,,,,,,,,,,,,,,,151,174,71,119,115,75,4.0,4.2,-242,-19,0,-277,193,3,238.08930444717407,238.08934926986694,238.09156441688538,238.10313248634338,238.25335144996643,238.25335144996643,238.25335144996643,238.25335144996643,238.25335144996643,238.25335144996643,238.25335144996643,238.8875539302826,1,0.767329216003418,None,,,,,,,,,,,,,,,,,,25,5,2025-02-18_16h05.40.985,comp,2024.2.4,62.15800385606589,2025-02-18 16h05.51.459320 -0500,
114,114,0,critical,whd,35.0,2.1,lower,57.0,133.0,133.0,57.0,70.0,70.0,2,1.7175350189208984,None,,,,,0,0,0,0,0,114,114,12,238.90312027931213,,,,,,,,,,,,,,,,,,,,,,,,,,,,,,,,,,,,,,,,,,,,,,,,,,,,,,,,,,,,,,,,,,,,,,,,,,,,,,,,,57.0,133.0,133.0,57.0,70.0,70.0,2.1,2.11,-191,275,0,281,160,-267,238.88836193084717,238.88840579986572,238.89112758636475,238.90312027931213,239.05328631401062,239.05328631401062,239.05328631401062,239.05328631401062,239.05328631401062,239.05328631401062,239.05328631401062,240.63773393630981,2,1.7175350189208984,None,,,,,,,,,,,,,,,,,,25,5,2025-02-18_16h05.40.985,comp,2024.2.4,62.15800385606589,2025-02-18 16h05.51.459320 -0500,
115,115,0,filler_square,None,None,None,None,None,None,None,None,None,None,3,2.47151780128479,None,,,,,0,0,0,0,0,115,115,205,240.6531720161438,,,,,,,,,,,,,,,,,,,,,,,,,,,,,,,,,,,,,,,,,,,,,,,,,,,,,,,,,,,,,,,,,,,,,,,,,,,,,,,,,65.5828884232547,60.41045730777501,65.68616587535439,65.68616587535439,62.762066570086276,64.55857649618939,2.1,2.11,-159,265,0,273,161,-269,240.63871335983276,240.63875603675842,240.64142417907715,240.6531720161438,240.80317640304565,240.80317640304565,240.80317640304565,240.80317640304565,240.80317640304565,240.80317640304565,240.80317640304565,243.13760924339294,3,2.47151780128479,None,,,,,,,,,,,,,,,,,,25,5,2025-02-18_16h05.40.985,comp,2024.2.4,62.15800385606589,2025-02-18 16h05.51.459320 -0500,
116,116,0,critical,dwh,20.0,3.0,lower,78.0,78.0,57.0,133.0,133.0,57.0,3,2.3499059677124023,None,,,,,0,0,0,0,0,116,116,68,243.15297842025757,,,,,,,,,,,,,,,,,,,,,,,,,,,,,,,,,,,,,,,,,,,,,,,,,,,,,,,,,,,,,,,,,,,,,,,,,,,,,,,,,78.0,78.0,57.0,133.0,133.0,57.0,3.0,3.1,-202,275,0,8,191,-281,243.138409614563,243.13845229148865,243.14110326766968,243.15297842025757,243.30324578285217,243.30324578285217,243.30324578285217,243.30324578285217,243.30324578285217,243.30324578285217,243.30324578285217,245.50454545021057,3,2.3499059677124023,None,,,,,,,,,,,,,,,,,,25,5,2025-02-18_16h05.40.985,comp,2024.2.4,62.15800385606589,2025-02-18 16h05.51.459320 -0500,
117,117,0,critical,hwd,20.0,1.0,lower,133.0,57.0,57.0,133.0,78.0,78.0,1,0.8839101791381836,None,,,,,0,0,0,0,0,117,117,102,245.52007746696472,,,,,,,,,,,,,,,,,,,,,,,,,,,,,,,,,,,,,,,,,,,,,,,,,,,,,,,,,,,,,,,,,,,,,,,,,,,,,,,,,133.0,57.0,57.0,133.0,78.0,78.0,1.0,1.3,289,-269,480,-251,682,-277,245.50534677505493,245.50538849830627,245.50761318206787,245.52007746696472,245.6698775291443,245.6698775291443,245.6698775291443,245.6698775291443,245.6698775291443,245.6698775291443,245.6698775291443,246.42130875587463,1,0.8839101791381836,None,,,,,,,,,,,,,,,,,,25,5,2025-02-18_16h05.40.985,comp,2024.2.4,62.15800385606589,2025-02-18 16h05.51.459320 -0500,
118,118,0,filler_square,None,None,None,None,None,None,None,None,None,None,2,0.23371267318725586,None,,,,,0,0,0,0,0,118,118,197,246.43638396263123,,,,,,,,,,,,,,,,,,,,,,,,,,,,,,,,,,,,,,,,,,,,,,,,,,,,,,,,,,,,,,,,,,,,,,,,,,,,,,,,,104.21622686229601,104.0140270310204,85.80839122246411,67.02533642588175,109.25913591575599,109.25913591575599,2.2,2.21,-182,-266,0,256,184,284,246.42225170135498,246.422292470932,246.42472004890442,246.43638396263123,246.58645629882812,246.58645629882812,246.58645629882812,246.58645629882812,246.58645629882812,246.58645629882812,246.58645629882812,246.68761348724365,2,0.23371267318725586,None,,,,,,,,,,,,,,,,,,25,5,2025-02-18_16h05.40.985,comp,2024.2.4,62.15800385606589,2025-02-18 16h05.51.459320 -0500,
119,119,0,critical,whd,35.0,3.0,lower,57.0,133.0,133.0,57.0,70.0,70.0,3,0.2216782569885254,None,,,,,0,0,0,0,0,119,119,86,246.70295763015747,,,,,,,,,,,,,,,,,,,,,,,,,,,,,,,,,,,,,,,,,,,,,,,,,,,,,,,,,,,,,,,,,,,,,,,,,,,,,,,,,57.0,133.0,133.0,57.0,70.0,70.0,3.0,3.1,-191,258,0,-6,160,-252,246.68845415115356,246.68849968910217,246.6911723613739,246.70295763015747,246.8530695438385,246.8530695438385,246.8530695438385,246.8530695438385,246.8530695438385,246.8530695438385,246.8530695438385,246.93750429153442,3,0.2216782569885254,None,,,,,,,,,,,,,,,,,,25,5,2025-02-18_16h05.40.985,comp,2024.2.4,62.15800385606589,2025-02-18 16h05.51.459320 -0500,
120,120,0,critical,dwh,20.0,2.1,upper,141.0,141.0,125.0,200.0,200.0,125.0,1,0.25101804733276367,None,,,,,0,0,0,0,0,120,120,7,246.95295667648315,,,,,,,,,,,,,,,,,,,,,,,,,,,,,,,,,,,,,,,,,,,,,,,,,,,,,,,,,,,,,,,,,,,,,,,,,,,,,,,,,141.0,141.0,125.0,200.0,200.0,125.0,2.1,2.11,-266,280,0,282,258,-262,246.93832111358643,246.93836426734924,246.94093537330627,246.95295667648315,247.10329627990723,247.10329627990723,247.10329627990723,247.10329627990723,247.10329627990723,247.10329627990723,247.10329627990723,247.22136425971985,1,0.25101804733276367,None,,,,,,,,,,,,,,,,,,25,5,2025-02-18_16h05.40.985,comp,2024.2.4,62.15800385606589,2025-02-18 16h05.51.459320 -0500,
121,121,0,filler_square,None,None,None,None,None,None,None,None,None,None,2,0.24997782707214355,None,,,,,0,0,0,0,0,121,121,191,247.23655080795288,,,,,,,,,,,,,,,,,,,,,,,,,,,,,,,,,,,,,,,,,,,,,,,,,,,,,,,,,,,,,,,,,,,,,,,,,,,,,,,,,59.68760407851431,86.00611865052046,79.56694953001167,69.61517220107855,90.5835781960979,90.5835781960979,1.0,1.2,-174,-8,0,11,176,1,247.22233366966248,247.2223756313324,247.22493147850037,247.23655080795288,247.3865189552307,247.3865189552307,247.3865189552307,247.3865189552307,247.3865189552307,247.3865189552307,247.3865189552307,247.4877486228943,2,0.24997782707214355,None,,,,,,,,,,,,,,,,,,25,5,2025-02-18_16h05.40.985,comp,2024.2.4,62.15800385606589,2025-02-18 16h05.51.459320 -0500,
122,122,0,critical,whd,35.0,4.0,lower,57.0,133.0,133.0,57.0,70.0,70.0,3,0.2618229389190674,None,,,,,0,0,0,0,0,122,122,88,247.50323820114136,,,,,,,,,,,,,,,,,,,,,,,,,,,,,,,,,,,,,,,,,,,,,,,,,,,,,,,,,,,,,,,,,,,,,,,,,,,,,,,,,57.0,133.0,133.0,57.0,70.0,70.0,4.0,4.2,-191,15,0,-290,160,6,247.48853850364685,247.48857998847961,247.49111819267273,247.50323820114136,247.65315985679626,247.65315985679626,247.65315985679626,247.65315985679626,247.65315985679626,247.65315985679626,247.65315985679626,247.77098965644836,3,0.2618229389190674,None,,,,,,,,,,,,,,,,,,25,5,2025-02-18_16h05.40.985,comp,2024.2.4,62.15800385606589,2025-02-18 16h05.51.459320 -0500,
123,123,0,filler_square,None,None,None,None,None,None,None,None,None,None,1,0.3377504348754883,None,,,,,0,0,0,0,0,123,123,199,247.78681254386902,,,,,,,,,,,,,,,,,,,,,,,,,,,,,,,,,,,,,,,,,,,,,,,,,,,,,,,,,,,,,,,,,,,,,,,,,,,,,,,,,74.26441723294306,94.79605680301447,97.08689331752417,97.08689331752417,73.85494549760651,66.63544188144135,3.0,3.1,-192,263,0,-8,178,-281,247.77199125289917,247.77203369140625,247.7743330001831,247.78681254386902,247.93645930290222,247.93645930290222,247.93645930290222,247.93645930290222,247.93645930290222,247.93645930290222,247.93645930290222,248.1375069618225,1,0.3377504348754883,None,,,,,,,,,,,,,,,,,,25,5,2025-02-18_16h05.40.985,comp,2024.2.4,62.15800385606589,2025-02-18 16h05.51.459320 -0500,
124,124,0,critical,whd,20.0,1.0,lower,57.0,133.0,133.0,57.0,78.0,78.0,2,0.31703662872314453,None,,,,,0,0,0,0,0,124,124,90,248.15290999412537,,,,,,,,,,,,,,,,,,,,,,,,,,,,,,,,,,,,,,,,,,,,,,,,,,,,,,,,,,,,,,,,,,,,,,,,,,,,,,,,,57.0,133.0,133.0,57.0,78.0,78.0,1.0,1.3,289,-271,480,-288,644,-283,248.13830304145813,248.13834381103516,248.14040422439575,248.15290999412537,248.30307960510254,248.30307960510254,248.30307960510254,248.30307960510254,248.30307960510254,248.30307960510254,248.30307960510254,248.4878532886505,2,0.31703662872314453,None,,,,,,,,,,,,,,,,,,25,5,2025-02-18_16h05.40.985,comp,2024.2.4,62.15800385606589,2025-02-18 16h05.51.459320 -0500,
125,125,0,critical,dhw,35.0,3.0,lower,70.0,70.0,133.0,57.0,57.0,133.0,3,1.3728961944580078,None,,,,,0,0,0,0,0,125,125,50,248.50302290916443,,,,,,,,,,,,,,,,,,,,,,,,,,,,,,,,,,,,,,,,,,,,,,,,,,,,,,,,,,,,,,,,,,,,,,,,,,,,,,,,,70.0,70.0,133.0,57.0,57.0,133.0,3.0,3.1,-160,265,0,18,191,-288,248.48863983154297,248.48867988586426,248.49129676818848,248.50302290916443,248.6530396938324,248.6530396938324,248.6530396938324,248.6530396938324,248.6530396938324,248.6530396938324,248.6530396938324,249.88775491714478,3,1.3728961944580078,None,,,,,,,,,,,,,,,,,,25,5,2025-02-18_16h05.40.985,comp,2024.2.4,62.15800385606589,2025-02-18 16h05.51.459320 -0500,
126,126,0,filler_square,None,None,None,None,None,None,None,None,None,None,2,0.9422483444213867,None,,,,,0,0,0,0,0,126,126,179,249.90287828445435,,,,,,,,,,,,,,,,,,,,,,,,,,,,,,,,,,,,,,,,,,,,,,,,,,,,,,,,,,,,,,,,,,,,,,,,,,,,,,,,,65.14517696348969,85.52495691727094,107.59673963592104,107.59673963592104,100.1170656859643,95.16842393103889,4.0,4.2,-193,19,0,-267,197,13,249.88874197006226,249.8887848854065,249.8914337158203,249.90287828445435,250.0531690120697,250.0531690120697,250.0531690120697,250.0531690120697,250.0531690120697,250.0531690120697,250.0531690120697,250.85445523262024,2,0.9422483444213867,None,,,,,,,,,,,,,,,,,,25,5,2025-02-18_16h05.40.985,comp,2024.2.4,62.15800385606589,2025-02-18 16h05.51.459320 -0500,
127,127,0,filler_square,None,None,None,None,None,None,None,None,None,None,2,0.726987361907959,None,,,,,0,0,0,0,0,127,127,185,250.86995553970337,,,,,,,,,,,,,,,,,,,,,,,,,,,,,,,,,,,,,,,,,,,,,,,,,,,,,,,,,,,,,,,,,,,,,,,,,,,,,,,,,137.53141926805435,104.10572927771298,146.0349076404958,146.0349076404958,80.85931640940872,79.74320804508987,3.0,3.1,-221,286,0,20,209,-265,250.85541820526123,250.85546016693115,250.85816550254822,250.86995553970337,251.01980710029602,251.01980710029602,251.01980710029602,251.01980710029602,251.01980710029602,251.01980710029602,251.01980710029602,251.6043667793274,2,0.726987361907959,None,,,,,,,,,,,,,,,,,,25,5,2025-02-18_16h05.40.985,comp,2024.2.4,62.15800385606589,2025-02-18 16h05.51.459320 -0500,
128,128,0,critical,dwh,35.0,1.0,upper,127.0,127.0,125.0,200.0,200.0,125.0,2,0.7449922561645508,None,,,,,0,0,0,0,0,128,128,61,251.61984491348267,,,,,,,,,,,,,,,,,,,,,,,,,,,,,,,,,,,,,,,,,,,,,,,,,,,,,,,,,,,,,,,,,,,,,,,,,,,,,,,,,127.0,127.0,125.0,200.0,200.0,125.0,1.0,1.2,-260,-9,0,5,258,-19,251.6051149368286,251.60515546798706,251.60764145851135,251.61984491348267,251.76995301246643,251.76995301246643,251.76995301246643,251.76995301246643,251.76995301246643,251.76995301246643,251.76995301246643,252.37097549438477,2,0.7449922561645508,None,,,,,,,,,,,,,,,,,,25,5,2025-02-18_16h05.40.985,comp,2024.2.4,62.15800385606589,2025-02-18 16h05.51.459320 -0500,
129,129,0,critical,dhw,20.0,4.0,upper,141.0,141.0,200.0,125.0,125.0,200.0,1,0.8426625728607178,None,,,,,0,0,0,0,0,129,129,59,252.38645720481873,,,,,,,,,,,,,,,,,,,,,,,,,,,,,,,,,,,,,,,,,,,,,,,,,,,,,,,,,,,,,,,,,,,,,,,,,,,,,,,,,141.0,141.0,200.0,125.0,125.0,200.0,4.0,4.1,-229,-283,0,-17,258,-272,252.37173771858215,252.37177896499634,252.37420439720154,252.38645720481873,252.53659057617188,252.53659057617188,252.53659057617188,252.53659057617188,252.53659057617188,252.53659057617188,252.53659057617188,253.23766088485718,1,0.8426625728607178,None,,,,,,,,,,,,,,,,,,25,5,2025-02-18_16h05.40.985,comp,2024.2.4,62.15800385606589,2025-02-18 16h05.51.459320 -0500,
130,130,0,filler_square,None,None,None,None,None,None,None,None,None,None,3,1.0332820415496826,None,,,,,0,0,0,0,0,130,130,190,253.25321698188782,,,,,,,,,,,,,,,,,,,,,,,,,,,,,,,,,,,,,,,,,,,,,,,,,,,,,,,,,,,,,,,,,,,,,,,,,,,,,,,,,64.1250240249891,113.22866977092863,58.82064022805928,70.16371339264356,121.97552316419738,121.97552316419738,3.0,3.2,-188,-275,0,18,192,266,253.23866081237793,253.23870587348938,253.2412736415863,253.25321698188782,253.40340566635132,253.40340566635132,253.40340566635132,253.40340566635132,253.40340566635132,253.40340566635132,253.40340566635132,254.3042871952057,3,1.0332820415496826,None,,,,,,,,,,,,,,,,,,25,5,2025-02-18_16h05.40.985,comp,2024.2.4,62.15800385606589,2025-02-18 16h05.51.459320 -0500,
131,131,0,critical,hdw,20.0,1.0,lower,133.0,57.0,78.0,78.0,57.0,133.0,1,1.9174156188964844,None,,,,,0,0,0,0,0,131,131,114,254.31961369514465,,,,,,,,,,,,,,,,,,,,,,,,,,,,,,,,,,,,,,,,,,,,,,,,,,,,,,,,,,,,,,,,,,,,,,,,,,,,,,,,,133.0,57.0,78.0,78.0,57.0,133.0,1.0,1.1,-644,264,-480,265,-278,278,254.30511498451233,254.3051562309265,254.307687997818,254.31961369514465,254.46980476379395,254.46980476379395,254.46980476379395,254.46980476379395,254.46980476379395,254.46980476379395,254.46980476379395,256.254145860672,1,1.9174156188964844,None,,,,,,,,,,,,,,,,,,25,5,2025-02-18_16h05.40.985,comp,2024.2.4,62.15800385606589,2025-02-18 16h05.51.459320 -0500,
132,132,0,filler_square,None,None,None,None,None,None,None,None,None,None,1,1.3753066062927246,None,,,,,0,0,0,0,0,132,132,176,256.26964592933655,,,,,,,,,,,,,,,,,,,,,,,,,,,,,,,,,,,,,,,,,,,,,,,,,,,,,,,,,,,,,,,,,,,,,,,,,,,,,,,,,67.04256619755245,61.832306073801966,70.69570423552801,59.920868280579775,72.33766089708224,72.33766089708224,2.2,2.21,-157,-258,0,273,162,251,256.2551078796387,256.2551500797272,256.25764322280884,256.26964592933655,256.4196960926056,256.4196960926056,256.4196960926056,256.4196960926056,256.4196960926056,256.4196960926056,256.4196960926056,257.6541304588318,1,1.3753066062927246,None,,,,,,,,,,,,,,,,,,25,5,2025-02-18_16h05.40.985,comp,2024.2.4,62.15800385606589,2025-02-18 16h05.51.459320 -0500,
133,133,0,critical,hwd,35.0,2.1,lower,133.0,57.0,57.0,133.0,70.0,70.0,2,0.34323668479919434,None,,,,,0,0,0,0,0,133,133,16,257.66989636421204,,,,,,,,,,,,,,,,,,,,,,,,,,,,,,,,,,,,,,,,,,,,,,,,,,,,,,,,,,,,,,,,,,,,,,,,,,,,,,,,,133.0,57.0,57.0,133.0,70.0,70.0,2.1,2.11,-191,267,0,251,198,-283,257.65493655204773,257.65497946739197,257.6574559211731,257.66989636421204,257.8196668624878,257.8196668624878,257.8196668624878,257.8196668624878,257.8196668624878,257.8196668624878,257.8196668624878,258.0208740234375,2,0.34323668479919434,None,,,,,,,,,,,,,,,,,,25,5,2025-02-18_16h05.40.985,comp,2024.2.4,62.15800385606589,2025-02-18 16h05.51.459320 -0500,
134,134,0,filler_random,None,None,None,None,None,None,None,None,None,None,3,0.26655006408691406,None,,,,,0,0,0,0,0,134,134,162,258.03644585609436,,,,,,,,,,,,,,,,,,,,,,,,,,,,,,,,,,,,,,,,,,,,,,,,,,,,,,,,,,,,,,,,,,,,,,,,,,,,,,,,,187.98539800876472,146.7942054486491,154.62537820673495,163.07175287105883,105.92244028690293,61.7765354207511,2.1,2.11,-251,289,0,280,208,-284,258.0217740535736,258.0218172073364,258.0239963531494,258.03644585609436,258.1864938735962,258.1864938735962,258.1864938735962,258.1864938735962,258.1864938735962,258.1864938735962,258.1864938735962,258.3208773136139,3,0.26655006408691406,None,,,,,,,,,,,,,,,,,,25,5,2025-02-18_16h05.40.985,comp,2024.2.4,62.15800385606589,2025-02-18 16h05.51.459320 -0500,
135,135,0,catch,None,None,None,None,None,None,None,None,None,None,1,0.2925393581390381,None,,,,,0,0,0,0,0,135,135,127,258.3363039493561,,,,,,,,,,,,,,,,,,,,,,,,,,,,,,,,,,,,,,,,,,,,,,,,,,,,,,,,,,,,,,,,,,,,,,,,,,,,,,,,,194,131,125,65,78,112,2.1,2.12,-194,-289,0,-283,184,274,258.321928024292,258.3219711780548,258.32535433769226,258.3363039493561,258.48637533187866,258.48637533187866,258.48637533187866,258.48637533187866,258.48637533187866,258.48637533187866,258.48637533187866,258.63760137557983,1,0.2925393581390381,None,,,,,,,,,,,,,,,,,,25,5,2025-02-18_16h05.40.985,comp,2024.2.4,62.15800385606589,2025-02-18 16h05.51.459320 -0500,
136,136,0,filler_square,None,None,None,None,None,None,None,None,None,None,2,0.4334080219268799,None,,,,,0,0,0,0,0,136,136,170,258.65317273139954,,,,,,,,,,,,,,,,,,,,,,,,,,,,,,,,,,,,,,,,,,,,,,,,,,,,,,,,,,,,,,,,,,,,,,,,,,,,,,,,,80.03691454283143,92.98502140996865,98.34767631468938,98.34767631468938,84.69068095793294,96.27272948856009,2.2,2.22,-192,257,0,-283,193,-264,258.6385934352875,258.63863825798035,258.64122796058655,258.65317273139954,258.80307507514954,258.80307507514954,258.80307507514954,258.80307507514954,258.80307507514954,258.80307507514954,258.80307507514954,259.10432982444763,2,0.4334080219268799,None,,,,,,,,,,,,,,,,,,25,5,2025-02-18_16h05.40.985,comp,2024.2.4,62.15800385606589,2025-02-18 16h05.51.459320 -0500,
137,137,0,critical,hwd,35.0,2.1,upper,200.0,125.0,125.0,200.0,127.0,127.0,3,0.893312931060791,None,,,,,0,0,0,0,0,137,137,41,259.1195697784424,,,,,,,,,,,,,,,,,,,,,,,,,,,,,,,,,,,,,,,,,,,,,,,,,,,,,,,,,,,,,,,,,,,,,,,,,,,,,,,,,200.0,125.0,125.0,200.0,127.0,127.0,2.1,2.11,-258,269,0,281,260,-253,259.1051332950592,259.1051743030548,259.1076376438141,259.1195697784424,259.2698857784271,259.2698857784271,259.2698857784271,259.2698857784271,259.2698857784271,259.2698857784271,259.2698857784271,260.02082347869873,3,0.893312931060791,None,,,,,,,,,,,,,,,,,,25,5,2025-02-18_16h05.40.985,comp,2024.2.4,62.15800385606589,2025-02-18 16h05.51.459320 -0500,
138,138,0,filler_random,None,None,None,None,None,None,None,None,None,None,1,1.1674580574035645,None,,,,,0,0,0,0,0,138,138,142,260.0363566875458,,,,,,,,,,,,,,,,,,,,,,,,,,,,,,,,,,,,,,,,,,,,,,,,,,,,,,,,,,,,,,,,,,,,,,,,,,,,,,,,,178.8330589171267,171.7968710017165,157.44647114760028,183.13406431516603,101.78687050798602,135.26487970103705,3.0,3.2,-273,-287,0,18,255,262,260.021737575531,260.02178049087524,260.0239634513855,260.0363566875458,260.18648195266724,260.18648195266724,260.18648195266724,260.18648195266724,260.18648195266724,260.18648195266724,260.18648195266724,261.2211787700653,1,1.1674580574035645,None,,,,,,,,,,,,,,,,,,25,5,2025-02-18_16h05.40.985,comp,2024.2.4,62.15800385606589,2025-02-18 16h05.51.459320 -0500,
139,139,0,critical,hdw,35.0,2.1,upper,200.0,125.0,127.0,127.0,125.0,200.0,3,1.6822056770324707,None,,,,,0,0,0,0,0,139,139,45,261.2362480163574,,,,,,,,,,,,,,,,,,,,,,,,,,,,,,,,,,,,,,,,,,,,,,,,,,,,,,,,,,,,,,,,,,,,,,,,,,,,,,,,,200.0,125.0,127.0,127.0,125.0,200.0,2.1,2.11,-222,252,0,269,260,-268,261.2220001220703,261.2220416069031,261.224187374115,261.2362480163574,261.38646483421326,261.38646483421326,261.38646483421326,261.38646483421326,261.38646483421326,261.38646483421326,261.38646483421326,262.92116117477417,3,1.6822056770324707,None,,,,,,,,,,,,,,,,,,25,5,2025-02-18_16h05.40.985,comp,2024.2.4,62.15800385606589,2025-02-18 16h05.51.459320 -0500,
