thisN,thisTrialN,thisRepN,effect,order,distance,config,diag,h_1,w_1,h_2,w_2,h_3,w_3,rect_choice.keys,rect_choice.rt,rect_choice.duration,instructions_loop.thisRepN,instructions_loop.thisTrialN,instructions_loop.thisN,instructions_loop.thisIndex,blocks.thisRepN,blocks.thisTrialN,blocks.thisN,blocks.thisIndex,trials.thisRepN,trials.thisTrialN,trials.thisN,trials.thisIndex,thisRow.t,notes,consent.started,agree_button.started,decline_button.started,consent_img.started,mouse.started,consent.stopped,agree_button.numClicks,agree_button.timesOn,agree_button.timesOff,decline_button.numClicks,decline_button.timesOn,decline_button.timesOff,mouse.x,mouse.y,mouse.leftButton,mouse.midButton,mouse.rightButton,mouse.time,mouse.clicked_name,exp_params.started,exp_params.stopped,welcome.started,welcome_text.started,welcome.stopped,instructions_1.started,instructions_1_text_1.started,instructions_1_text_2.started,key_resp.started,instructions_1.stopped,instructions_loop.key_resp.keys,instructions_loop.key_resp.rt,instructions_loop.key_resp.duration,instructions_2.started,instructions_2_text_1.started,instructions_2_text_2.started,key_resp_2.started,instructions_2.stopped,instructions_loop.key_resp_2.keys,instructions_loop.key_resp_2.rt,instructions_loop.key_resp_2.duration,instructions_3.started,instructions_3_text_1.started,r1_instr3.started,r2_instr3.started,r3_instr3.started,r1_instr3_label.started,r2_instr3_label.started,r3_instr3_label.started,instructions_3_text_3.started,instructions_3_text_4.started,key_resp_3.started,instructions_3.stopped,instructions_loop.key_resp_3.keys,instructions_loop.key_resp_3.rt,instructions_loop.key_resp_3.duration,instructions_4.started,instructions_4_text_1.started,instructions_4_text_3.started,instructions_4_text_2.started,key_resp_4.started,instructions_4.stopped,instructions_loop.key_resp_4.keys,instructions_loop.key_resp_4.rt,instructions_loop.key_resp_4.duration,instructions_5.started,instructions_5_text_1.started,instructions_5_text_2.started,key_resp_5.started,instructions_5.stopped,instructions_loop.key_resp_5.keys,instructions_loop.key_resp_5.rt,instructions_loop.key_resp_5.duration,start_exp.started,start_exp_text.started,key_resp_6.started,start_exp.stopped,key_resp_6.keys,key_resp_6.rt,key_resp_6.duration,h_1_tmp,w_1_tmp,h_2_tmp,w_2_tmp,h_3_tmp,w_3_tmp,config_tmp,config_tmp_1,r_1_x,r_1_y,r_2_x,r_2_y,r_3_x,r_3_y,pre_trial.started,pre_trial.stopped,choice_trial.started,rect_choice.started,r_1.started,r_2.started,r_3.started,r_1_label.started,r_2_label.started,r_3_label.started,prompt.started,choice_trial.stopped,trials.rect_choice.keys,trials.rect_choice.rt,trials.rect_choice.duration,end_block.started,end_block_text.started,end_block.stopped,end.started,end_text.started,key_resp_7.started,end.stopped,key_resp_7.keys,key_resp_7.rt,key_resp_7.duration,debriefing.started,debrief_form.started,end_debrief.started,debriefing.stopped,end_debrief.keys,end_debrief.rt,end_debrief.duration,participant,computer,date,expName,psychopyVersion,frameRate,expStart,
,,,,,,,,,,,,,,,,,,,,,,,,,,,,,,,0.014030933380126953,0.035878658294677734,0.035878658294677734,0.035878658294677734,0.013826847076416016,30.287563800811768,1,[30.249390602111816],[30.24941325187683],0,,,[-56.0],[-511.0],[1],[0],[0],[30.272960901260376],['agree_button'],,,,,,,,,,,,,,,,,,,,,,,,,,,,,,,,,,,,,,,,,,,,,,,,,,,,,,,,,,,,,,,,,,,,,,,,,,,,,,,,,,,,,,,,,,,,,,,,,,,,,,,,,,,26,6,2025-02-18_16h06.10.707,comp,2024.2.4,57.79634671987478,2025-02-18 16h06.19.920494 -0500,
,,,,,,,,,,,,,,,,,,,,,,,,,,,,,,,,,,,,,,,,,,,,,,,,,,30.288071155548096,30.28813624382019,,,,,,,,,,,,,,,,,,,,,,,,,,,,,,,,,,,,,,,,,,,,,,,,,,,,,,,,,,,,,,,,,,,,,,,,,,,,,,,,,,,,,,,,,,,,,,,,,,,,,,,,,26,6,2025-02-18_16h06.10.707,comp,2024.2.4,57.79634671987478,2025-02-18 16h06.19.920494 -0500,
,,,,,,,,,,,,,,,,,,,,,,,,,,,,,,,,,,,,,,,,,,,,,,,,,,,,30.288201570510864,30.303579092025757,32.29427123069763,,,,,,,,,,,,,,,,,,,,,,,,,,,,,,,,,,,,,,,,,,,,,,,,,,,,,,,,,,,,,,,,,,,,,,,,,,,,,,,,,,,,,,,,,,,,,,,,,,,,,,26,6,2025-02-18_16h06.10.707,comp,2024.2.4,57.79634671987478,2025-02-18 16h06.19.920494 -0500,
0,0,0,,,,,,,,,,,,,,,0,0,0,0,,,,,,,,,32.31382870674133,,,,,,,,,,,,,,,,,,,,,,,,,,32.29523158073425,32.31382870674133,32.31382870674133,33.79584288597107,35.8315966129303,space,2.0224661827087402,None,35.831740617752075,35.8471577167511,35.8471577167511,37.34748578071594,43.05002188682556,space,5.6868016719818115,None,43.0501983165741,43.07887268066406,43.07887268066406,43.07887268066406,43.07887268066406,43.07887268066406,43.07887268066406,43.07887268066406,43.07887268066406,43.07887268066406,44.55107617378235,48.46661567687988,space,3.9079489707946777,None,48.466683864593506,48.483001470565796,48.483001470565796,48.483001470565796,49.966391801834106,53.319225788116455,space,3.339932680130005,None,53.31938028335571,53.33423638343811,53.33423638343811,54.83449339866638,54.98866033554077,space,0.15204787254333496,None,54.988853454589844,55.004096031188965,55.004096031188965,55.60158038139343,space,0.5931060314178467,None,,,,,,,,,,,,,,,,,,,,,,,,,,,,,,,,,,,,,,,,,,,,,,,26,6,2025-02-18_16h06.10.707,comp,2024.2.4,57.79634671987478,2025-02-18 16h06.19.920494 -0500,
0,0,0,critical,dwh,35.0,4.0,lower,70.0,70.0,57.0,133.0,133.0,57.0,2,2.093290090560913,None,,,,,0,0,0,0,0,0,0,64,55.67706799507141,,,,,,,,,,,,,,,,,,,,,,,,,,,,,,,,,,,,,,,,,,,,,,,,,,,,,,,,,,,,,,,,,,,,,,,,,,,,,,,,,70.0,70.0,57.0,133.0,133.0,57.0,4.0,4.2,-198,-9,0,-281,191,17,55.66066813468933,55.660709619522095,55.66208744049072,55.67706799507141,55.82890009880066,55.82890009880066,55.82890009880066,55.82890009880066,55.82890009880066,55.82890009880066,55.82890009880066,57.77230477333069,2,2.093290090560913,None,,,,,,,,,,,,,,,,,,26,6,2025-02-18_16h06.10.707,comp,2024.2.4,57.79634671987478,2025-02-18 16h06.19.920494 -0500,
1,1,0,catch,None,None,None,None,None,None,None,None,None,None,2,1.0779573917388916,None,,,,,0,0,0,0,0,1,1,123,57.78850078582764,,,,,,,,,,,,,,,,,,,,,,,,,,,,,,,,,,,,,,,,,,,,,,,,,,,,,,,,,,,,,,,,,,,,,,,,,,,,,,,,,97,93,138,187,132,58,1.0,1.2,-236,0,0,-4,218,-8,57.77427577972412,57.77437949180603,57.77764821052551,57.78850078582764,57.93737840652466,57.93737840652466,57.93737840652466,57.93737840652466,57.93737840652466,57.93737840652466,57.93737840652466,58.87249493598938,2,1.0779573917388916,None,,,,,,,,,,,,,,,,,,26,6,2025-02-18_16h06.10.707,comp,2024.2.4,57.79634671987478,2025-02-18 16h06.19.920494 -0500,
2,2,0,filler_square,None,None,None,None,None,None,None,None,None,None,2,0.8242650032043457,None,,,,,0,0,0,0,0,2,2,178,58.89094066619873,,,,,,,,,,,,,,,,,,,,,,,,,,,,,,,,,,,,,,,,,,,,,,,,,,,,,,,,,,,,,,,,,,,,,,,,,,,,,,,,,61.1257321903523,157.94441953596618,173.79936551154069,173.79936551154069,85.29866089517529,132.49440814022654,1.0,1.1,-742,286,-480,268,-231,257,58.874518632888794,58.874592781066895,58.877808809280396,58.89094066619873,59.03837871551514,59.03837871551514,59.03837871551514,59.03837871551514,59.03837871551514,59.03837871551514,59.03837871551514,59.72233200073242,2,0.8242650032043457,None,,,,,,,,,,,,,,,,,,26,6,2025-02-18_16h06.10.707,comp,2024.2.4,57.79634671987478,2025-02-18 16h06.19.920494 -0500,
3,3,0,critical,whd,35.0,3.0,lower,57.0,133.0,133.0,57.0,70.0,70.0,2,1.4570624828338623,None,,,,,0,0,0,0,0,3,3,86,59.73774194717407,,,,,,,,,,,,,,,,,,,,,,,,,,,,,,,,,,,,,,,,,,,,,,,,,,,,,,,,,,,,,,,,,,,,,,,,,,,,,,,,,57.0,133.0,133.0,57.0,70.0,70.0,3.0,3.1,-191,251,0,-11,160,-253,59.723982095718384,59.724061489105225,59.72757863998413,59.73774194717407,59.89241170883179,59.89241170883179,59.89241170883179,59.89241170883179,59.89241170883179,59.89241170883179,59.89241170883179,61.204020977020264,2,1.4570624828338623,None,,,,,,,,,,,,,,,,,,26,6,2025-02-18_16h06.10.707,comp,2024.2.4,57.79634671987478,2025-02-18 16h06.19.920494 -0500,
4,4,0,critical,dhw,35.0,2.1,lower,70.0,70.0,133.0,57.0,57.0,133.0,3,1.178009033203125,None,,,,,0,0,0,0,0,4,4,24,61.22431468963623,,,,,,,,,,,,,,,,,,,,,,,,,,,,,,,,,,,,,,,,,,,,,,,,,,,,,,,,,,,,,,,,,,,,,,,,,,,,,,,,,70.0,70.0,133.0,57.0,57.0,133.0,2.1,2.12,-160,-277,0,-260,191,289,61.205564737319946,61.20564150810242,61.208590030670166,61.22431468963623,61.372196435928345,61.372196435928345,61.372196435928345,61.372196435928345,61.372196435928345,61.372196435928345,61.372196435928345,62.40655875205994,3,1.178009033203125,None,,,,,,,,,,,,,,,,,,26,6,2025-02-18_16h06.10.707,comp,2024.2.4,57.79634671987478,2025-02-18 16h06.19.920494 -0500,
5,5,0,critical,hdw,20.0,2.1,lower,133.0,57.0,78.0,78.0,57.0,133.0,3,1.0424134731292725,None,,,,,0,0,0,0,0,5,5,22,62.4245867729187,,,,,,,,,,,,,,,,,,,,,,,,,,,,,,,,,,,,,,,,,,,,,,,,,,,,,,,,,,,,,,,,,,,,,,,,,,,,,,,,,133.0,57.0,78.0,78.0,57.0,133.0,2.1,2.11,-164,264,0,267,202,-270,62.40811538696289,62.40823292732239,62.4115424156189,62.4245867729187,62.57192516326904,62.57192516326904,62.57192516326904,62.57192516326904,62.57192516326904,62.57192516326904,62.57192516326904,63.4711549282074,3,1.0424134731292725,None,,,,,,,,,,,,,,,,,,26,6,2025-02-18_16h06.10.707,comp,2024.2.4,57.79634671987478,2025-02-18 16h06.19.920494 -0500,
6,6,0,critical,wdh,20.0,4.0,lower,57.0,133.0,78.0,78.0,133.0,57.0,2,1.0518369674682617,None,,,,,0,0,0,0,0,6,6,82,63.48658275604248,,,,,,,,,,,,,,,,,,,,,,,,,,,,,,,,,,,,,,,,,,,,,,,,,,,,,,,,,,,,,,,,,,,,,,,,,,,,,,,,,57.0,133.0,78.0,78.0,133.0,57.0,4.0,4.2,-202,17,0,-287,164,-7,63.472673654556274,63.47274732589722,63.4757399559021,63.48658275604248,63.62769627571106,63.62769627571106,63.62769627571106,63.62769627571106,63.62769627571106,63.62769627571106,63.62769627571106,64.54069352149963,2,1.0518369674682617,None,,,,,,,,,,,,,,,,,,26,6,2025-02-18_16h06.10.707,comp,2024.2.4,57.79634671987478,2025-02-18 16h06.19.920494 -0500,
7,7,0,critical,hwd,35.0,4.0,lower,133.0,57.0,57.0,133.0,70.0,70.0,3,0.773500919342041,None,,,,,0,0,0,0,0,7,7,100,64.55691623687744,,,,,,,,,,,,,,,,,,,,,,,,,,,,,,,,,,,,,,,,,,,,,,,,,,,,,,,,,,,,,,,,,,,,,,,,,,,,,,,,,133.0,57.0,57.0,133.0,70.0,70.0,4.0,4.2,-191,-1,0,-281,198,-16,64.54223012924194,64.54231095314026,64.5456771850586,64.55691623687744,64.70600628852844,64.70600628852844,64.70600628852844,64.70600628852844,64.70600628852844,64.70600628852844,64.70600628852844,65.34036922454834,3,0.773500919342041,None,,,,,,,,,,,,,,,,,,26,6,2025-02-18_16h06.10.707,comp,2024.2.4,57.79634671987478,2025-02-18 16h06.19.920494 -0500,
8,8,0,filler_square,None,None,None,None,None,None,None,None,None,None,1,0.7719149589538574,None,,,,,0,0,0,0,0,8,8,182,65.35834336280823,,,,,,,,,,,,,,,,,,,,,,,,,,,,,,,,,,,,,,,,,,,,,,,,,,,,,,,,,,,,,,,,,,,,,,,,,,,,,,,,,113.38435013882457,113.38435013882457,57.58100677989032,64.99548948711892,74.88531822355128,77.18009222256735,2.1,2.11,-185,280,0,264,167,-268,65.34231042861938,65.34238839149475,65.34559798240662,65.35834336280823,65.50748038291931,65.50748038291931,65.50748038291931,65.50748038291931,65.50748038291931,65.50748038291931,65.50748038291931,66.14804863929749,1,0.7719149589538574,None,,,,,,,,,,,,,,,,,,26,6,2025-02-18_16h06.10.707,comp,2024.2.4,57.79634671987478,2025-02-18 16h06.19.920494 -0500,
9,9,0,critical,whd,20.0,2.1,lower,57.0,133.0,133.0,57.0,78.0,78.0,2,0.939673662185669,None,,,,,0,0,0,0,0,9,9,38,66.16759014129639,,,,,,,,,,,,,,,,,,,,,,,,,,,,,,,,,,,,,,,,,,,,,,,,,,,,,,,,,,,,,,,,,,,,,,,,,,,,,,,,,57.0,133.0,133.0,57.0,78.0,78.0,2.1,2.12,-191,-283,0,-279,164,274,66.14962649345398,66.14970088005066,66.15256214141846,66.16759014129639,66.30758595466614,66.30758595466614,66.30758595466614,66.30758595466614,66.30758595466614,66.30758595466614,66.30758595466614,67.11379957199097,2,0.939673662185669,None,,,,,,,,,,,,,,,,,,26,6,2025-02-18_16h06.10.707,comp,2024.2.4,57.79634671987478,2025-02-18 16h06.19.920494 -0500,
10,10,0,critical,hdw,20.0,2.1,upper,200.0,125.0,141.0,141.0,125.0,200.0,3,1.3275628089904785,None,,,,,0,0,0,0,0,10,10,47,67.13120198249817,,,,,,,,,,,,,,,,,,,,,,,,,,,,,,,,,,,,,,,,,,,,,,,,,,,,,,,,,,,,,,,,,,,,,,,,,,,,,,,,,200.0,125.0,141.0,141.0,125.0,200.0,2.1,2.12,-229,-281,0,-283,266,262,67.1154317855835,67.11550784111023,67.11888575553894,67.13120198249817,67.27709722518921,67.27709722518921,67.27709722518921,67.27709722518921,67.27709722518921,67.27709722518921,67.27709722518921,68.46067905426025,3,1.3275628089904785,None,,,,,,,,,,,,,,,,,,26,6,2025-02-18_16h06.10.707,comp,2024.2.4,57.79634671987478,2025-02-18 16h06.19.920494 -0500,
11,11,0,critical,dwh,35.0,3.0,lower,70.0,70.0,57.0,133.0,133.0,57.0,2,0.9001338481903076,None,,,,,0,0,0,0,0,11,11,62,68.47814273834229,,,,,,,,,,,,,,,,,,,,,,,,,,,,,,,,,,,,,,,,,,,,,,,,,,,,,,,,,,,,,,,,,,,,,,,,,,,,,,,,,70.0,70.0,57.0,133.0,133.0,57.0,3.0,3.1,-198,251,0,-12,191,-253,68.46253418922424,68.46261239051819,68.46648097038269,68.47814273834229,68.62553930282593,68.62553930282593,68.62553930282593,68.62553930282593,68.62553930282593,68.62553930282593,68.62553930282593,69.3909740447998,2,0.9001338481903076,None,,,,,,,,,,,,,,,,,,26,6,2025-02-18_16h06.10.707,comp,2024.2.4,57.79634671987478,2025-02-18 16h06.19.920494 -0500,
12,12,0,filler_square,None,None,None,None,None,None,None,None,None,None,2,0.9963428974151611,None,,,,,0,0,0,0,0,12,12,202,69.40682792663574,,,,,,,,,,,,,,,,,,,,,,,,,,,,,,,,,,,,,,,,,,,,,,,,,,,,,,,,,,,,,,,,,,,,,,,,,,,,,,,,,73.59423492253723,66.872098677401,65.83101555198184,76.5063857915354,77.75156086368504,77.75156086368504,2.1,2.12,-168,-265,0,-285,173,290,69.39278054237366,69.39285588264465,69.39594388008118,69.40682792663574,69.55791807174683,69.55791807174683,69.55791807174683,69.55791807174683,69.55791807174683,69.55791807174683,69.55791807174683,70.41003608703613,2,0.9963428974151611,None,,,,,,,,,,,,,,,,,,26,6,2025-02-18_16h06.10.707,comp,2024.2.4,57.79634671987478,2025-02-18 16h06.19.920494 -0500,
13,13,0,critical,hwd,20.0,4.0,lower,133.0,57.0,57.0,133.0,78.0,78.0,2,0.7443444728851318,None,,,,,0,0,0,0,0,13,13,106,70.42626786231995,,,,,,,,,,,,,,,,,,,,,,,,,,,,,,,,,,,,,,,,,,,,,,,,,,,,,,,,,,,,,,,,,,,,,,,,,,,,,,,,,133.0,57.0,57.0,133.0,78.0,78.0,4.0,4.2,-191,2,0,-262,202,-13,70.41175675392151,70.41183471679688,70.41536521911621,70.42626786231995,70.57505631446838,70.57505631446838,70.57505631446838,70.57505631446838,70.57505631446838,70.57505631446838,70.57505631446838,71.17434358596802,2,0.7443444728851318,None,,,,,,,,,,,,,,,,,,26,6,2025-02-18_16h06.10.707,comp,2024.2.4,57.79634671987478,2025-02-18 16h06.19.920494 -0500,
14,14,0,filler_random,None,None,None,None,None,None,None,None,None,None,1,0.7473869323730469,None,,,,,0,0,0,0,0,14,14,162,71.191415309906,,,,,,,,,,,,,,,,,,,,,,,,,,,,,,,,,,,,,,,,,,,,,,,,,,,,,,,,,,,,,,,,,,,,,,,,,,,,,,,,,159.5704366108125,192.5147545290564,90.2343473279337,141.06930570065447,104.65784080465725,102.78294399369587,1.0,1.2,-263,-3,0,-5,218,15,71.17613101005554,71.17628979682922,71.17953443527222,71.191415309906,71.33935475349426,71.33935475349426,71.33935475349426,71.33935475349426,71.33935475349426,71.33935475349426,71.33935475349426,71.94924759864807,1,0.7473869323730469,None,,,,,,,,,,,,,,,,,,26,6,2025-02-18_16h06.10.707,comp,2024.2.4,57.79634671987478,2025-02-18 16h06.19.920494 -0500,
15,15,0,filler_random,None,None,None,None,None,None,None,None,None,None,3,0.6515016555786133,None,,,,,0,0,0,0,0,15,15,146,71.9675567150116,,,,,,,,,,,,,,,,,,,,,,,,,,,,,,,,,,,,,,,,,,,,,,,,,,,,,,,,,,,,,,,,,,,,,,,,,,,,,,,,,61.41756405126811,168.29064722065698,100.85753549465822,118.55703212829701,131.70643734032828,146.8118974131066,4.0,4.2,-239,-9,0,-263,229,-8,71.95098233222961,71.95108008384705,71.95441770553589,71.9675567150116,72.11247062683105,72.11247062683105,72.11247062683105,72.11247062683105,72.11247062683105,72.11247062683105,72.11247062683105,72.62659668922424,3,0.6515016555786133,None,,,,,,,,,,,,,,,,,,26,6,2025-02-18_16h06.10.707,comp,2024.2.4,57.79634671987478,2025-02-18 16h06.19.920494 -0500,
16,16,0,critical,hdw,35.0,4.0,lower,133.0,57.0,70.0,70.0,57.0,133.0,3,0.9190382957458496,None,,,,,0,0,0,0,0,16,16,112,72.64326286315918,,,,,,,,,,,,,,,,,,,,,,,,,,,,,,,,,,,,,,,,,,,,,,,,,,,,,,,,,,,,,,,,,,,,,,,,,,,,,,,,,133.0,57.0,70.0,70.0,57.0,133.0,4.0,4.1,-160,-277,0,13,198,-259,72.62820816040039,72.62828946113586,72.6323606967926,72.64326286315918,72.78885865211487,72.78885865211487,72.78885865211487,72.78885865211487,72.78885865211487,72.78885865211487,72.78885865211487,73.57775044441223,3,0.9190382957458496,None,,,,,,,,,,,,,,,,,,26,6,2025-02-18_16h06.10.707,comp,2024.2.4,57.79634671987478,2025-02-18 16h06.19.920494 -0500,
17,17,0,critical,hdw,35.0,3.0,upper,200.0,125.0,127.0,127.0,125.0,200.0,1,0.8702940940856934,None,,,,,0,0,0,0,0,17,17,111,73.59591126441956,,,,,,,,,,,,,,,,,,,,,,,,,,,,,,,,,,,,,,,,,,,,,,,,,,,,,,,,,,,,,,,,,,,,,,,,,,,,,,,,,200.0,125.0,127.0,127.0,125.0,200.0,3.0,3.2,-222,-262,0,12,260,255,73.57923769950867,73.57936453819275,73.58315110206604,73.59591126441956,73.74357056617737,73.74357056617737,73.74357056617737,73.74357056617737,73.74357056617737,73.74357056617737,73.74357056617737,74.48170065879822,1,0.8702940940856934,None,,,,,,,,,,,,,,,,,,26,6,2025-02-18_16h06.10.707,comp,2024.2.4,57.79634671987478,2025-02-18 16h06.19.920494 -0500,
18,18,0,filler_random,None,None,None,None,None,None,None,None,None,None,1,0.8306553363800049,None,,,,,0,0,0,0,0,18,18,167,74.49978065490723,,,,,,,,,,,,,,,,,,,,,,,,,,,,,,,,,,,,,,,,,,,,,,,,,,,,,,,,,,,,,,,,,,,,,,,,,,,,,,,,,183.60163172928645,199.26735877110372,116.18217590165551,195.00626149121683,106.50360579687953,90.98791748361826,2.1,2.11,-293,270,0,265,239,-255,74.48357915878296,74.48368453979492,74.48698282241821,74.49978065490723,74.64332365989685,74.64332365989685,74.64332365989685,74.64332365989685,74.64332365989685,74.64332365989685,74.64332365989685,75.34395384788513,1,0.8306553363800049,None,,,,,,,,,,,,,,,,,,26,6,2025-02-18_16h06.10.707,comp,2024.2.4,57.79634671987478,2025-02-18 16h06.19.920494 -0500,
19,19,0,filler_random,None,None,None,None,None,None,None,None,None,None,3,0.7139887809753418,None,,,,,0,0,0,0,0,19,19,163,75.36026310920715,,,,,,,,,,,,,,,,,,,,,,,,,,,,,,,,,,,,,,,,,,,,,,,,,,,,,,,,,,,,,,,,,,,,,,,,,,,,,,,,,67.9922306553228,185.68384157721357,129.85781844371212,179.80832068132656,160.672477343526,174.54656763780162,1.0,1.1,-759,250,-480,271,-207,286,75.34578680992126,75.34592533111572,75.34983706474304,75.36026310920715,75.50924682617188,75.50924682617188,75.50924682617188,75.50924682617188,75.50924682617188,75.50924682617188,75.50924682617188,76.07815504074097,3,0.7139887809753418,None,,,,,,,,,,,,,,,,,,26,6,2025-02-18_16h06.10.707,comp,2024.2.4,57.79634671987478,2025-02-18 16h06.19.920494 -0500,
20,20,0,critical,hwd,35.0,1.0,upper,200.0,125.0,125.0,200.0,127.0,127.0,2,0.9961934089660645,None,,,,,0,0,0,0,0,20,20,97,76.09422039985657,,,,,,,,,,,,,,,,,,,,,,,,,,,,,,,,,,,,,,,,,,,,,,,,,,,,,,,,,,,,,,,,,,,,,,,,,,,,,,,,,200.0,125.0,125.0,200.0,127.0,127.0,1.0,1.2,-258,-1,0,-14,260,1,76.0797483921051,76.07982873916626,76.08338117599487,76.09422039985657,76.25064444541931,76.25064444541931,76.25064444541931,76.25064444541931,76.25064444541931,76.25064444541931,76.25064444541931,77.0947835445404,2,0.9961934089660645,None,,,,,,,,,,,,,,,,,,26,6,2025-02-18_16h06.10.707,comp,2024.2.4,57.79634671987478,2025-02-18 16h06.19.920494 -0500,
21,21,0,critical,hdw,20.0,4.0,lower,133.0,57.0,78.0,78.0,57.0,133.0,2,0.9363856315612793,None,,,,,0,0,0,0,0,21,21,118,77.11383938789368,,,,,,,,,,,,,,,,,,,,,,,,,,,,,,,,,,,,,,,,,,,,,,,,,,,,,,,,,,,,,,,,,,,,,,,,,,,,,,,,,133.0,57.0,78.0,78.0,57.0,133.0,4.0,4.2,-164,16,0,-287,202,-1,77.09634137153625,77.09642028808594,77.0995602607727,77.11383938789368,77.26126766204834,77.26126766204834,77.26126766204834,77.26126766204834,77.26126766204834,77.26126766204834,77.26126766204834,78.0613374710083,2,0.9363856315612793,None,,,,,,,,,,,,,,,,,,26,6,2025-02-18_16h06.10.707,comp,2024.2.4,57.79634671987478,2025-02-18 16h06.19.920494 -0500,
22,22,0,filler_square,None,None,None,None,None,None,None,None,None,None,3,0.836064338684082,None,,,,,0,0,0,0,0,22,22,170,78.07830095291138,,,,,,,,,,,,,,,,,,,,,,,,,,,,,,,,,,,,,,,,,,,,,,,,,,,,,,,,,,,,,,,,,,,,,,,,,,,,,,,,,84.5090154311648,148.98465532274298,131.45016569441577,108.87910568387198,166.22277577266794,166.22277577266794,2.1,2.12,-225,-250,0,-282,234,263,78.06330013275146,78.06343817710876,78.0667245388031,78.07830095291138,78.2248649597168,78.2248649597168,78.2248649597168,78.2248649597168,78.2248649597168,78.2248649597168,78.2248649597168,78.92769694328308,3,0.836064338684082,None,,,,,,,,,,,,,,,,,,26,6,2025-02-18_16h06.10.707,comp,2024.2.4,57.79634671987478,2025-02-18 16h06.19.920494 -0500,
23,23,0,critical,whd,20.0,3.0,lower,57.0,133.0,133.0,57.0,78.0,78.0,3,0.9072744846343994,None,,,,,0,0,0,0,0,23,23,92,78.94298267364502,,,,,,,,,,,,,,,,,,,,,,,,,,,,,,,,,,,,,,,,,,,,,,,,,,,,,,,,,,,,,,,,,,,,,,,,,,,,,,,,,57.0,133.0,133.0,57.0,78.0,78.0,3.0,3.1,-191,269,0,4,164,-284,78.92912864685059,78.92922306060791,78.93203616142273,78.94298267364502,79.09904932975769,79.09904932975769,79.09904932975769,79.09904932975769,79.09904932975769,79.09904932975769,79.09904932975769,79.8606207370758,3,0.9072744846343994,None,,,,,,,,,,,,,,,,,,26,6,2025-02-18_16h06.10.707,comp,2024.2.4,57.79634671987478,2025-02-18 16h06.19.920494 -0500,
24,24,0,critical,dwh,35.0,2.1,lower,70.0,70.0,57.0,133.0,133.0,57.0,3,0.9816696643829346,None,,,,,0,0,0,0,0,24,24,4,79.87724661827087,,,,,,,,,,,,,,,,,,,,,,,,,,,,,,,,,,,,,,,,,,,,,,,,,,,,,,,,,,,,,,,,,,,,,,,,,,,,,,,,,70.0,70.0,57.0,133.0,133.0,57.0,2.1,2.11,-198,262,0,268,191,-287,79.86232233047485,79.8624210357666,79.86575150489807,79.87724661827087,80.03052139282227,80.03052139282227,80.03052139282227,80.03052139282227,80.03052139282227,80.03052139282227,80.03052139282227,80.86193299293518,3,0.9816696643829346,None,,,,,,,,,,,,,,,,,,26,6,2025-02-18_16h06.10.707,comp,2024.2.4,57.79634671987478,2025-02-18 16h06.19.920494 -0500,
25,25,0,filler_random,None,None,None,None,None,None,None,None,None,None,1,0.9332437515258789,None,,,,,0,0,0,0,0,25,25,148,80.87763261795044,,,,,,,,,,,,,,,,,,,,,,,,,,,,,,,,,,,,,,,,,,,,,,,,,,,,,,,,,,,,,,,,,,,,,,,,,,,,,,,,,90.94099079180418,125.17634502774105,117.9532320808305,59.25781337066172,111.75786032278862,68.52574246547213,2.2,2.21,-188,-270,0,281,160,258,80.86369156837463,80.86377239227295,80.866947889328,80.87763261795044,81.03695678710938,81.03695678710938,81.03695678710938,81.03695678710938,81.03695678710938,81.03695678710938,81.03695678710938,81.81636047363281,1,0.9332437515258789,None,,,,,,,,,,,,,,,,,,26,6,2025-02-18_16h06.10.707,comp,2024.2.4,57.79634671987478,2025-02-18 16h06.19.920494 -0500,
26,26,0,critical,wdh,35.0,1.0,upper,125.0,200.0,127.0,127.0,200.0,125.0,3,0.759953498840332,None,,,,,0,0,0,0,0,26,26,73,81.83527493476868,,,,,,,,,,,,,,,,,,,,,,,,,,,,,,,,,,,,,,,,,,,,,,,,,,,,,,,,,,,,,,,,,,,,,,,,,,,,,,,,,125.0,200.0,127.0,127.0,200.0,125.0,1.0,1.1,-740,266,-480,286,-258,264,81.81808137893677,81.81816101074219,81.8210072517395,81.83527493476868,81.97943949699402,81.97943949699402,81.97943949699402,81.97943949699402,81.97943949699402,81.97943949699402,81.97943949699402,82.59988212585449,3,0.759953498840332,None,,,,,,,,,,,,,,,,,,26,6,2025-02-18_16h06.10.707,comp,2024.2.4,57.79634671987478,2025-02-18 16h06.19.920494 -0500,
27,27,0,critical,wdh,20.0,2.1,lower,57.0,133.0,78.0,78.0,133.0,57.0,3,1.3228907585144043,None,,,,,0,0,0,0,0,27,27,34,82.61628651618958,,,,,,,,,,,,,,,,,,,,,,,,,,,,,,,,,,,,,,,,,,,,,,,,,,,,,,,,,,,,,,,,,,,,,,,,,,,,,,,,,57.0,133.0,78.0,78.0,133.0,57.0,2.1,2.11,-202,258,0,287,164,-283,82.60157227516174,82.60165405273438,82.6046450138092,82.61628651618958,82.76209306716919,82.76209306716919,82.76209306716919,82.76209306716919,82.76209306716919,82.76209306716919,82.76209306716919,83.94475984573364,3,1.3228907585144043,None,,,,,,,,,,,,,,,,,,26,6,2025-02-18_16h06.10.707,comp,2024.2.4,57.79634671987478,2025-02-18 16h06.19.920494 -0500,
28,28,0,critical,wdh,20.0,2.1,upper,125.0,200.0,141.0,141.0,200.0,125.0,3,1.298797845840454,None,,,,,0,0,0,0,0,28,28,11,83.9605724811554,,,,,,,,,,,,,,,,,,,,,,,,,,,,,,,,,,,,,,,,,,,,,,,,,,,,,,,,,,,,,,,,,,,,,,,,,,,,,,,,,125.0,200.0,141.0,141.0,200.0,125.0,2.1,2.12,-266,-250,0,-286,229,274,83.94642496109009,83.94650101661682,83.94981360435486,83.9605724811554,84.12009167671204,84.12009167671204,84.12009167671204,84.12009167671204,84.12009167671204,84.12009167671204,84.12009167671204,85.26423025131226,3,1.298797845840454,None,,,,,,,,,,,,,,,,,,26,6,2025-02-18_16h06.10.707,comp,2024.2.4,57.79634671987478,2025-02-18 16h06.19.920494 -0500,
29,29,0,filler_square,None,None,None,None,None,None,None,None,None,None,2,1.177558183670044,None,,,,,0,0,0,0,0,29,29,190,85.28110480308533,,,,,,,,,,,,,,,,,,,,,,,,,,,,,,,,,,,,,,,,,,,,,,,,,,,,,,,,,,,,,,,,,,,,,,,,,,,,,,,,,78.10681681361118,74.38123072505209,91.09212380024093,91.09212380024093,80.89748060346446,83.44301809991175,1.0,1.2,-179,13,0,-5,183,-4,85.26595664024353,85.26603269577026,85.26912331581116,85.28110480308533,85.43746018409729,85.43746018409729,85.43746018409729,85.43746018409729,85.43746018409729,85.43746018409729,85.43746018409729,86.46236848831177,2,1.177558183670044,None,,,,,,,,,,,,,,,,,,26,6,2025-02-18_16h06.10.707,comp,2024.2.4,57.79634671987478,2025-02-18 16h06.19.920494 -0500,
30,30,0,critical,wdh,20.0,2.1,upper,125.0,200.0,141.0,141.0,200.0,125.0,1,1.1954014301300049,None,,,,,0,0,0,0,0,30,30,35,86.47926449775696,,,,,,,,,,,,,,,,,,,,,,,,,,,,,,,,,,,,,,,,,,,,,,,,,,,,,,,,,,,,,,,,,,,,,,,,,,,,,,,,,125.0,200.0,141.0,141.0,200.0,125.0,2.1,2.11,-266,290,0,251,229,-277,86.46393918991089,86.46401476860046,86.467360496521,86.47926449775696,86.62779641151428,86.62779641151428,86.62779641151428,86.62779641151428,86.62779641151428,86.62779641151428,86.62779641151428,87.68106126785278,1,1.1954014301300049,None,,,,,,,,,,,,,,,,,,26,6,2025-02-18_16h06.10.707,comp,2024.2.4,57.79634671987478,2025-02-18 16h06.19.920494 -0500,
31,31,0,filler_square,None,None,None,None,None,None,None,None,None,None,1,1.0710854530334473,None,,,,,0,0,0,0,0,31,31,195,87.69997906684875,,,,,,,,,,,,,,,,,,,,,,,,,,,,,,,,,,,,,,,,,,,,,,,,,,,,,,,,,,,,,,,,,,,,,,,,,,,,,,,,,73.76427651146187,73.76427651146187,67.01520605506907,69.12422964001429,69.26703933387151,71.10484987671433,3.0,3.2,-167,-266,0,-9,166,276,87.68285846710205,87.68293619155884,87.68695402145386,87.69997906684875,87.84834861755371,87.84834861755371,87.84834861755371,87.84834861755371,87.84834861755371,87.84834861755371,87.84834861755371,88.7815158367157,1,1.0710854530334473,None,,,,,,,,,,,,,,,,,,26,6,2025-02-18_16h06.10.707,comp,2024.2.4,57.79634671987478,2025-02-18 16h06.19.920494 -0500,
32,32,0,critical,dhw,20.0,1.0,upper,141.0,141.0,200.0,125.0,125.0,200.0,2,1.332667589187622,None,,,,,0,0,0,0,0,32,32,55,88.79763293266296,,,,,,,,,,,,,,,,,,,,,,,,,,,,,,,,,,,,,,,,,,,,,,,,,,,,,,,,,,,,,,,,,,,,,,,,,,,,,,,,,141.0,141.0,200.0,125.0,125.0,200.0,1.0,1.2,-229,-1,0,-12,258,18,88.78307843208313,88.78315353393555,88.78670692443848,88.79763293266296,88.94572639465332,88.94572639465332,88.94572639465332,88.94572639465332,88.94572639465332,88.94572639465332,88.94572639465332,90.14763879776001,2,1.332667589187622,None,,,,,,,,,,,,,,,,,,26,6,2025-02-18_16h06.10.707,comp,2024.2.4,57.79634671987478,2025-02-18 16h06.19.920494 -0500,
33,33,0,filler_random,None,None,None,None,None,None,None,None,None,None,1,0.8369853496551514,None,,,,,0,0,0,0,0,33,33,134,90.16533732414246,,,,,,,,,,,,,,,,,,,,,,,,,,,,,,,,,,,,,,,,,,,,,,,,,,,,,,,,,,,,,,,,,,,,,,,,,,,,,,,,,179.008967771859,178.70091455603574,187.09954927090897,63.87901066293839,66.54472679729842,145.3061404507162,1.0,1.3,263,-272,480,-267,681,-276,90.14939379692078,90.14947152137756,90.1525707244873,90.16533732414246,90.32001948356628,90.32001948356628,90.32001948356628,90.32001948356628,90.32001948356628,90.32001948356628,90.32001948356628,91.01684761047363,1,0.8369853496551514,None,,,,,,,,,,,,,,,,,,26,6,2025-02-18_16h06.10.707,comp,2024.2.4,57.79634671987478,2025-02-18 16h06.19.920494 -0500,
34,34,0,filler_random,None,None,None,None,None,None,None,None,None,None,3,1.169208288192749,None,,,,,0,0,0,0,0,34,34,157,91.03312182426453,,,,,,,,,,,,,,,,,,,,,,,,,,,,,,,,,,,,,,,,,,,,,,,,,,,,,,,,,,,,,,,,,,,,,,,,,,,,,,,,,113.01018512267493,101.22518941009147,74.91363083808973,152.03514757918828,137.7113526141348,123.73430278810602,2.1,2.12,-223,-275,0,-275,234,268,91.01875162124634,91.01883053779602,91.02273440361023,91.03312182426453,91.18208432197571,91.18208432197571,91.18208432197571,91.18208432197571,91.18208432197571,91.18208432197571,91.18208432197571,92.22135162353516,3,1.169208288192749,None,,,,,,,,,,,,,,,,,,26,6,2025-02-18_16h06.10.707,comp,2024.2.4,57.79634671987478,2025-02-18 16h06.19.920494 -0500,
35,35,0,critical,dwh,20.0,2.1,upper,141.0,141.0,125.0,200.0,200.0,125.0,2,0.9083230495452881,None,,,,,0,0,0,0,0,35,35,31,92.238520860672,,,,,,,,,,,,,,,,,,,,,,,,,,,,,,,,,,,,,,,,,,,,,,,,,,,,,,,,,,,,,,,,,,,,,,,,,,,,,,,,,141.0,141.0,125.0,200.0,200.0,125.0,2.1,2.12,-266,-289,0,-288,258,271,92.22288537025452,92.22295832633972,92.22580289840698,92.238520860672,92.38172316551208,92.38172316551208,92.38172316551208,92.38172316551208,92.38172316551208,92.38172316551208,92.38172316551208,93.16542768478394,2,0.9083230495452881,None,,,,,,,,,,,,,,,,,,26,6,2025-02-18_16h06.10.707,comp,2024.2.4,57.79634671987478,2025-02-18 16h06.19.920494 -0500,
36,36,0,critical,dwh,20.0,3.0,lower,78.0,78.0,57.0,133.0,133.0,57.0,2,0.896878719329834,None,,,,,0,0,0,0,0,36,36,68,93.18543839454651,,,,,,,,,,,,,,,,,,,,,,,,,,,,,,,,,,,,,,,,,,,,,,,,,,,,,,,,,,,,,,,,,,,,,,,,,,,,,,,,,78.0,78.0,57.0,133.0,133.0,57.0,3.0,3.2,-202,-287,0,5,191,284,93.16694784164429,93.16702222824097,93.17020392417908,93.18543839454651,93.33206748962402,93.33206748962402,93.33206748962402,93.33206748962402,93.33206748962402,93.33206748962402,93.33206748962402,94.09879612922668,2,0.896878719329834,None,,,,,,,,,,,,,,,,,,26,6,2025-02-18_16h06.10.707,comp,2024.2.4,57.79634671987478,2025-02-18 16h06.19.920494 -0500,
37,37,0,filler_random,None,None,None,None,None,None,None,None,None,None,3,0.7794458866119385,None,,,,,0,0,0,0,0,37,37,147,94.1188747882843,,,,,,,,,,,,,,,,,,,,,,,,,,,,,,,,,,,,,,,,,,,,,,,,,,,,,,,,,,,,,,,,,,,,,,,,,,,,,,,,,118.07919063610082,62.327142578705256,120.11737317573983,105.94162162451136,95.58725488597304,188.77103451350305,3.0,3.1,-180,268,0,3,243,-282,94.10051131248474,94.10058760643005,94.10356593132019,94.1188747882843,94.2665069103241,94.2665069103241,94.2665069103241,94.2665069103241,94.2665069103241,94.2665069103241,94.2665069103241,94.91179656982422,3,0.7794458866119385,None,,,,,,,,,,,,,,,,,,26,6,2025-02-18_16h06.10.707,comp,2024.2.4,57.79634671987478,2025-02-18 16h06.19.920494 -0500,
38,38,0,catch,None,None,None,None,None,None,None,None,None,None,3,0.6308987140655518,None,,,,,0,0,0,0,0,38,38,126,94.932119846344,,,,,,,,,,,,,,,,,,,,,,,,,,,,,,,,,,,,,,,,,,,,,,,,,,,,,,,,,,,,,,,,,,,,,,,,,,,,,,,,,124,66,130,60,185,140,4.0,4.2,-159,-4,0,-286,196,16,94.9136700630188,94.91374468803406,94.91659808158875,94.932119846344,95.06662631034851,95.06662631034851,95.06662631034851,95.06662631034851,95.06662631034851,95.06662631034851,95.06662631034851,95.5666778087616,3,0.6308987140655518,None,,,,,,,,,,,,,,,,,,26,6,2025-02-18_16h06.10.707,comp,2024.2.4,57.79634671987478,2025-02-18 16h06.19.920494 -0500,
39,39,0,filler_square,None,None,None,None,None,None,None,None,None,None,1,0.7955777645111084,None,,,,,0,0,0,0,0,39,39,186,95.58327317237854,,,,,,,,,,,,,,,,,,,,,,,,,,,,,,,,,,,,,,,,,,,,,,,,,,,,,,,,,,,,,,,,,,,,,,,,,,,,,,,,,70.37015535300031,70.37015535300031,69.37658231147395,57.80270832601756,65.68033007058898,64.06115178398562,1.0,1.2,-160,4,0,13,157,3,95.56854677200317,95.56862807273865,95.57204127311707,95.58327317237854,95.73362040519714,95.73362040519714,95.73362040519714,95.73362040519714,95.73362040519714,95.73362040519714,95.73362040519714,96.38265109062195,1,0.7955777645111084,None,,,,,,,,,,,,,,,,,,26,6,2025-02-18_16h06.10.707,comp,2024.2.4,57.79634671987478,2025-02-18 16h06.19.920494 -0500,
40,40,0,critical,wdh,20.0,3.0,upper,125.0,200.0,141.0,141.0,200.0,125.0,3,0.7697253227233887,None,,,,,0,0,0,0,0,40,40,81,96.40077376365662,,,,,,,,,,,,,,,,,,,,,,,,,,,,,,,,,,,,,,,,,,,,,,,,,,,,,,,,,,,,,,,,,,,,,,,,,,,,,,,,,125.0,200.0,141.0,141.0,200.0,125.0,3.0,3.1,-266,277,0,-12,229,-272,96.38415122032166,96.3842670917511,96.38741898536682,96.40077376365662,96.55083060264587,96.55083060264587,96.55083060264587,96.55083060264587,96.55083060264587,96.55083060264587,96.55083060264587,97.18880319595337,3,0.7697253227233887,None,,,,,,,,,,,,,,,,,,26,6,2025-02-18_16h06.10.707,comp,2024.2.4,57.79634671987478,2025-02-18 16h06.19.920494 -0500,
41,41,0,critical,hwd,35.0,2.1,upper,200.0,125.0,125.0,200.0,127.0,127.0,1,0.8286526203155518,None,,,,,0,0,0,0,0,41,41,41,97.20635199546814,,,,,,,,,,,,,,,,,,,,,,,,,,,,,,,,,,,,,,,,,,,,,,,,,,,,,,,,,,,,,,,,,,,,,,,,,,,,,,,,,200.0,125.0,125.0,200.0,127.0,127.0,2.1,2.11,-258,276,0,279,260,-258,97.19044065475464,97.19051766395569,97.19376564025879,97.20635199546814,97.35040998458862,97.35040998458862,97.35040998458862,97.35040998458862,97.35040998458862,97.35040998458862,97.35040998458862,98.04035496711731,1,0.8286526203155518,None,,,,,,,,,,,,,,,,,,26,6,2025-02-18_16h06.10.707,comp,2024.2.4,57.79634671987478,2025-02-18 16h06.19.920494 -0500,
42,42,0,critical,dwh,35.0,2.1,lower,70.0,70.0,57.0,133.0,133.0,57.0,3,0.7295637130737305,None,,,,,0,0,0,0,0,42,42,28,98.05677080154419,,,,,,,,,,,,,,,,,,,,,,,,,,,,,,,,,,,,,,,,,,,,,,,,,,,,,,,,,,,,,,,,,,,,,,,,,,,,,,,,,70.0,70.0,57.0,133.0,133.0,57.0,2.1,2.11,-198,262,0,257,191,-283,98.04198837280273,98.04206728935242,98.04543542861938,98.05677080154419,98.19876551628113,98.19876551628113,98.19876551628113,98.19876551628113,98.19876551628113,98.19876551628113,98.19876551628113,98.80113768577576,3,0.7295637130737305,None,,,,,,,,,,,,,,,,,,26,6,2025-02-18_16h06.10.707,comp,2024.2.4,57.79634671987478,2025-02-18 16h06.19.920494 -0500,
43,43,0,filler_square,None,None,None,None,None,None,None,None,None,None,1,0.6172835826873779,None,,,,,0,0,0,0,0,43,43,184,98.81738615036011,,,,,,,,,,,,,,,,,,,,,,,,,,,,,,,,,,,,,,,,,,,,,,,,,,,,,,,,,,,,,,,,,,,,,,,,,,,,,,,,,122.95568409234367,122.95568409234367,99.30856890131895,87.06872295814338,83.76620128465572,89.85975272221317,2.2,2.21,-201,-273,0,276,184,257,98.80292439460754,98.80300116539001,98.80704808235168,98.81738615036011,98.96764850616455,98.96764850616455,98.96764850616455,98.96764850616455,98.96764850616455,98.96764850616455,98.96764850616455,99.45076751708984,1,0.6172835826873779,None,,,,,,,,,,,,,,,,,,26,6,2025-02-18_16h06.10.707,comp,2024.2.4,57.79634671987478,2025-02-18 16h06.19.920494 -0500,
44,44,0,filler_random,None,None,None,None,None,None,None,None,None,None,2,0.6093122959136963,None,,,,,0,0,0,0,0,44,44,160,99.46676588058472,,,,,,,,,,,,,,,,,,,,,,,,,,,,,,,,,,,,,,,,,,,,,,,,,,,,,,,,,,,,,,,,,,,,,,,,,,,,,,,,,83.21377133131354,176.42082943436884,91.72402153088768,194.3519574319404,104.11757635478065,101.89119975046577,4.0,4.1,-281,-261,0,-2,244,-252,99.45254135131836,99.45264959335327,99.45622682571411,99.46676588058472,99.6167163848877,99.6167163848877,99.6167163848877,99.6167163848877,99.6167163848877,99.6167163848877,99.6167163848877,100.08355402946472,2,0.6093122959136963,None,,,,,,,,,,,,,,,,,,26,6,2025-02-18_16h06.10.707,comp,2024.2.4,57.79634671987478,2025-02-18 16h06.19.920494 -0500,
45,45,0,filler_random,None,None,None,None,None,None,None,None,None,None,2,0.728337287902832,None,,,,,0,0,0,0,0,45,45,130,100.1007513999939,,,,,,,,,,,,,,,,,,,,,,,,,,,,,,,,,,,,,,,,,,,,,,,,,,,,,,,,,,,,,,,,,,,,,,,,,,,,,,,,,79.50792435010605,135.7981167527646,95.28868642303024,135.4301551536517,69.7863663170246,78.63393221895532,4.0,4.2,-232,-18,0,-282,203,1,100.08534693717957,100.08547854423523,100.08878111839294,100.1007513999939,100.2506754398346,100.2506754398346,100.2506754398346,100.2506754398346,100.2506754398346,100.2506754398346,100.2506754398346,100.8339433670044,2,0.728337287902832,None,,,,,,,,,,,,,,,,,,26,6,2025-02-18_16h06.10.707,comp,2024.2.4,57.79634671987478,2025-02-18 16h06.19.920494 -0500,
46,46,0,filler_square,None,None,None,None,None,None,None,None,None,None,2,0.9499168395996094,None,,,,,0,0,0,0,0,46,46,197,100.85276246070862,,,,,,,,,,,,,,,,,,,,,,,,,,,,,,,,,,,,,,,,,,,,,,,,,,,,,,,,,,,,,,,,,,,,,,,,,,,,,,,,,114.64573460062405,102.64677873689435,119.32813806353795,119.32813806353795,74.86361467573155,99.26028099879838,1.0,1.3,273,-275,480,-260,685,-260,100.835702419281,100.83577942848206,100.83876943588257,100.85276246070862,101.00108933448792,101.00108933448792,101.00108933448792,101.00108933448792,101.00108933448792,101.00108933448792,101.00108933448792,101.81213307380676,2,0.9499168395996094,None,,,,,,,,,,,,,,,,,,26,6,2025-02-18_16h06.10.707,comp,2024.2.4,57.79634671987478,2025-02-18 16h06.19.920494 -0500,
47,47,0,critical,wdh,20.0,1.0,upper,125.0,200.0,141.0,141.0,200.0,125.0,3,0.8452770709991455,None,,,,,0,0,0,0,0,47,47,79,101.82898569107056,,,,,,,,,,,,,,,,,,,,,,,,,,,,,,,,,,,,,,,,,,,,,,,,,,,,,,,,,,,,,,,,,,,,,,,,,,,,,,,,,125.0,200.0,141.0,141.0,200.0,125.0,1.0,1.1,-746,285,-480,276,-251,254,101.81372046470642,101.81379532814026,101.81703209877014,101.82898569107056,101.96654534339905,101.96654534339905,101.96654534339905,101.96654534339905,101.96654534339905,101.96654534339905,101.96654534339905,102.68450427055359,3,0.8452770709991455,None,,,,,,,,,,,,,,,,,,26,6,2025-02-18_16h06.10.707,comp,2024.2.4,57.79634671987478,2025-02-18 16h06.19.920494 -0500,
48,48,0,filler_random,None,None,None,None,None,None,None,None,None,None,2,0.6368305683135986,None,,,,,0,0,0,0,0,48,48,159,102.70147061347961,,,,,,,,,,,,,,,,,,,,,,,,,,,,,,,,,,,,,,,,,,,,,,,,,,,,,,,,,,,,,,,,,,,,,,,,,,,,,,,,,66.43375051427701,157.88720150292704,126.12985040830709,135.10985596726465,71.57459233420936,173.9928075574886,1.0,1.2,-242,-4,0,7,251,17,102.68631744384766,102.68643283843994,102.68965291976929,102.70147061347961,102.84878349304199,102.84878349304199,102.84878349304199,102.84878349304199,102.84878349304199,102.84878349304199,102.84878349304199,103.35087823867798,2,0.6368305683135986,None,,,,,,,,,,,,,,,,,,26,6,2025-02-18_16h06.10.707,comp,2024.2.4,57.79634671987478,2025-02-18 16h06.19.920494 -0500,
49,49,0,filler_square,None,None,None,None,None,None,None,None,None,None,1,0.8587319850921631,None,,,,,0,0,0,0,0,49,49,199,103.36799001693726,,,,,,,,,,,,,,,,,,,,,,,,,,,,,,,,,,,,,,,,,,,,,,,,,,,,,,,,,,,,,,,,,,,,,,,,,,,,,,,,,154.6524263768399,154.6524263768399,59.432241420684406,63.36047247419967,72.41014264542402,137.5935369708356,2.2,2.21,-205,-282,0,252,196,275,103.35275506973267,103.35283327102661,103.356516122818,103.36799001693726,103.50538182258606,103.50538182258606,103.50538182258606,103.50538182258606,103.50538182258606,103.50538182258606,103.50538182258606,104.2363862991333,1,0.8587319850921631,None,,,,,,,,,,,,,,,,,,26,6,2025-02-18_16h06.10.707,comp,2024.2.4,57.79634671987478,2025-02-18 16h06.19.920494 -0500,
50,50,0,filler_square,None,None,None,None,None,None,None,None,None,None,3,0.7492818832397461,None,,,,,0,0,0,0,0,50,50,174,104.25308060646057,,,,,,,,,,,,,,,,,,,,,,,,,,,,,,,,,,,,,,,,,,,,,,,,,,,,,,,,,,,,,,,,,,,,,,,,,,,,,,,,,169.66220675440815,130.38543777656827,121.31884877956595,159.6740526999614,190.6479440327467,190.6479440327467,1.0,1.2,-241,-20,0,4,271,11,104.23838376998901,104.23846316337585,104.24211740493774,104.25308060646057,104.40351104736328,104.40351104736328,104.40351104736328,104.40351104736328,104.40351104736328,104.40351104736328,104.40351104736328,105.01827836036682,3,0.7492818832397461,None,,,,,,,,,,,,,,,,,,26,6,2025-02-18_16h06.10.707,comp,2024.2.4,57.79634671987478,2025-02-18 16h06.19.920494 -0500,
51,51,0,filler_square,None,None,None,None,None,None,None,None,None,None,1,0.8151721954345703,None,,,,,0,0,0,0,0,51,51,191,105.03590226173401,,,,,,,,,,,,,,,,,,,,,,,,,,,,,,,,,,,,,,,,,,,,,,,,,,,,,,,,,,,,,,,,,,,,,,,,,,,,,,,,,147.69593730258987,165.3518807465727,167.12395173103613,167.12395173103613,126.21462698728573,133.64196919210903,1.0,1.3,218,-276,480,-252,726,-260,105.0200080871582,105.02008128166199,105.02323698997498,105.03590226173401,105.18663334846497,105.18663334846497,105.18663334846497,105.18663334846497,105.18663334846497,105.18663334846497,105.18663334846497,105.85470700263977,1,0.8151721954345703,None,,,,,,,,,,,,,,,,,,26,6,2025-02-18_16h06.10.707,comp,2024.2.4,57.79634671987478,2025-02-18 16h06.19.920494 -0500,
52,52,0,catch,None,None,None,None,None,None,None,None,None,None,1,0.8761641979217529,None,,,,,0,0,0,0,0,52,52,127,105.87102723121643,,,,,,,,,,,,,,,,,,,,,,,,,,,,,,,,,,,,,,,,,,,,,,,,,,,,,,,,,,,,,,,,,,,,,,,,,,,,,,,,,150,175,85,105,127,63,3.0,3.2,-236,-264,0,5,180,263,105.85670566558838,105.85678434371948,105.860111951828,105.87102723121643,106.00748991966248,106.00748991966248,106.00748991966248,106.00748991966248,106.00748991966248,106.00748991966248,106.00748991966248,106.75361180305481,1,0.8761641979217529,None,,,,,,,,,,,,,,,,,,26,6,2025-02-18_16h06.10.707,comp,2024.2.4,57.79634671987478,2025-02-18 16h06.19.920494 -0500,
53,53,0,critical,whd,35.0,4.0,lower,57.0,133.0,133.0,57.0,70.0,70.0,1,0.8489377498626709,None,,,,,0,0,0,0,0,53,53,88,106.76940679550171,,,,,,,,,,,,,,,,,,,,,,,,,,,,,,,,,,,,,,,,,,,,,,,,,,,,,,,,,,,,,,,,,,,,,,,,,,,,,,,,,57.0,133.0,133.0,57.0,70.0,70.0,4.0,4.1,-191,-267,0,19,160,-265,106.7551109790802,106.75522255897522,106.75866889953613,106.76940679550171,106.91885828971863,106.91885828971863,106.91885828971863,106.91885828971863,106.91885828971863,106.91885828971863,106.91885828971863,107.62128567695618,1,0.8489377498626709,None,,,,,,,,,,,,,,,,,,26,6,2025-02-18_16h06.10.707,comp,2024.2.4,57.79634671987478,2025-02-18 16h06.19.920494 -0500,
54,54,0,filler_square,None,None,None,None,None,None,None,None,None,None,3,0.8284995555877686,None,,,,,0,0,0,0,0,54,54,206,107.63828539848328,,,,,,,,,,,,,,,,,,,,,,,,,,,,,,,,,,,,,,,,,,,,,,,,,,,,,,,,,,,,,,,,,,,,,,,,,,,,,,,,,62.4709002822179,88.62133137895691,69.27509253107279,60.008221298891556,99.88559846800518,99.88559846800518,1.0,1.3,310,-270,480,-259,656,-259,107.62324333190918,107.62337613105774,107.62735843658447,107.63828539848328,107.78764700889587,107.78764700889587,107.78764700889587,107.78764700889587,107.78764700889587,107.78764700889587,107.78764700889587,108.47384119033813,3,0.8284995555877686,None,,,,,,,,,,,,,,,,,,26,6,2025-02-18_16h06.10.707,comp,2024.2.4,57.79634671987478,2025-02-18 16h06.19.920494 -0500,
55,55,0,critical,hdw,20.0,1.0,lower,133.0,57.0,78.0,78.0,57.0,133.0,1,0.6684443950653076,None,,,,,0,0,0,0,0,55,55,114,108.49469590187073,,,,,,,,,,,,,,,,,,,,,,,,,,,,,,,,,,,,,,,,,,,,,,,,,,,,,,,,,,,,,,,,,,,,,,,,,,,,,,,,,133.0,57.0,78.0,78.0,57.0,133.0,1.0,1.2,-164,-14,0,0,202,19,108.4754683971405,108.47554612159729,108.47889947891235,108.49469590187073,108.63685941696167,108.63685941696167,108.63685941696167,108.63685941696167,108.63685941696167,108.63685941696167,108.63685941696167,109.1719434261322,1,0.6684443950653076,None,,,,,,,,,,,,,,,,,,26,6,2025-02-18_16h06.10.707,comp,2024.2.4,57.79634671987478,2025-02-18 16h06.19.920494 -0500,
56,56,0,critical,hdw,20.0,2.1,upper,200.0,125.0,141.0,141.0,125.0,200.0,1,1.0868370532989502,None,,,,,0,0,0,0,0,56,56,23,109.18768620491028,,,,,,,,,,,,,,,,,,,,,,,,,,,,,,,,,,,,,,,,,,,,,,,,,,,,,,,,,,,,,,,,,,,,,,,,,,,,,,,,,200.0,125.0,141.0,141.0,125.0,200.0,2.1,2.12,-229,-288,0,-250,266,290,109.17351579666138,109.17359328269958,109.17696285247803,109.18768620491028,109.33741545677185,109.33741545677185,109.33741545677185,109.33741545677185,109.33741545677185,109.33741545677185,109.33741545677185,110.28886842727661,1,1.0868370532989502,None,,,,,,,,,,,,,,,,,,26,6,2025-02-18_16h06.10.707,comp,2024.2.4,57.79634671987478,2025-02-18 16h06.19.920494 -0500,
57,57,0,filler_square,None,None,None,None,None,None,None,None,None,None,2,0.8095829486846924,None,,,,,0,0,0,0,0,57,57,200,110.3048186302185,,,,,,,,,,,,,,,,,,,,,,,,,,,,,,,,,,,,,,,,,,,,,,,,,,,,,,,,,,,,,,,,,,,,,,,,,,,,,,,,,101.5600962577912,138.62872713726097,191.1993486495655,191.1993486495655,82.29340045300182,114.86181095582349,2.1,2.12,-261,-263,0,-276,249,279,110.29085850715637,110.29095482826233,110.2943766117096,110.3048186302185,110.45393562316895,110.45393562316895,110.45393562316895,110.45393562316895,110.45393562316895,110.45393562316895,110.45393562316895,111.13083243370056,2,0.8095829486846924,None,,,,,,,,,,,,,,,,,,26,6,2025-02-18_16h06.10.707,comp,2024.2.4,57.79634671987478,2025-02-18 16h06.19.920494 -0500,
58,58,0,filler_random,None,None,None,None,None,None,None,None,None,None,3,0.8377673625946045,None,,,,,0,0,0,0,0,58,58,137,111.14873766899109,,,,,,,,,,,,,,,,,,,,,,,,,,,,,,,,,,,,,,,,,,,,,,,,,,,,,,,,,,,,,,,,,,,,,,,,,,,,,,,,,88.31517263418093,156.60023388849277,122.26217892234432,84.63040326162887,171.16849619844453,101.74446178134036,1.0,1.2,-217,5,0,-17,189,-5,111.1325535774231,111.1326310634613,111.13593006134033,111.14873766899109,111.28836011886597,111.28836011886597,111.28836011886597,111.28836011886597,111.28836011886597,111.28836011886597,111.28836011886597,111.9915337562561,3,0.8377673625946045,None,,,,,,,,,,,,,,,,,,26,6,2025-02-18_16h06.10.707,comp,2024.2.4,57.79634671987478,2025-02-18 16h06.19.920494 -0500,
59,59,0,filler_random,None,None,None,None,None,None,None,None,None,None,1,0.6969282627105713,None,,,,,0,0,0,0,0,59,59,131,112.00942969322205,,,,,,,,,,,,,,,,,,,,,,,,,,,,,,,,,,,,,,,,,,,,,,,,,,,,,,,,,,,,,,,,,,,,,,,,,,,,,,,,,111.74227412556766,159.6573578992012,92.3847475565004,184.51043894532802,193.9645630978661,194.29927650047287,2.2,2.21,-268,-284,0,273,285,251,111.99336791038513,111.99344635009766,111.99633479118347,112.00942969322205,112.15553164482117,112.15553164482117,112.15553164482117,112.15553164482117,112.15553164482117,112.15553164482117,112.15553164482117,112.72473168373108,1,0.6969282627105713,None,,,,,,,,,,,,,,,,,,26,6,2025-02-18_16h06.10.707,comp,2024.2.4,57.79634671987478,2025-02-18 16h06.19.920494 -0500,
60,60,0,filler_random,None,None,None,None,None,None,None,None,None,None,2,0.6848180294036865,None,,,,,0,0,0,0,0,60,60,150,112.74172568321228,,,,,,,,,,,,,,,,,,,,,,,,,,,,,,,,,,,,,,,,,,,,,,,,,,,,,,,,,,,,,,,,,,,,,,,,,,,,,,,,,96.49719504399972,101.0493653204827,86.29581233205204,199.40620771364954,88.35299087477951,63.582687428353225,2.1,2.12,-246,-277,0,-251,227,271,112.72670197486877,112.72680187225342,112.7303740978241,112.74172568321228,112.88761329650879,112.88761329650879,112.88761329650879,112.88761329650879,112.88761329650879,112.88761329650879,112.88761329650879,113.44085454940796,2,0.6848180294036865,None,,,,,,,,,,,,,,,,,,26,6,2025-02-18_16h06.10.707,comp,2024.2.4,57.79634671987478,2025-02-18 16h06.19.920494 -0500,
61,61,0,critical,whd,35.0,1.0,lower,57.0,133.0,133.0,57.0,70.0,70.0,1,0.864295482635498,None,,,,,0,0,0,0,0,61,61,84,113.45802688598633,,,,,,,,,,,,,,,,,,,,,,,,,,,,,,,,,,,,,,,,,,,,,,,,,,,,,,,,,,,,,,,,,,,,,,,,,,,,,,,,,57.0,133.0,133.0,57.0,70.0,70.0,1.0,1.1,-671,261,-480,261,-320,262,113.44248080253601,113.44256019592285,113.44557881355286,113.45802688598633,113.60465884208679,113.60465884208679,113.60465884208679,113.60465884208679,113.60465884208679,113.60465884208679,113.60465884208679,114.3378496170044,1,0.864295482635498,None,,,,,,,,,,,,,,,,,,26,6,2025-02-18_16h06.10.707,comp,2024.2.4,57.79634671987478,2025-02-18 16h06.19.920494 -0500,
62,62,0,filler_square,None,None,None,None,None,None,None,None,None,None,3,0.8648784160614014,None,,,,,0,0,0,0,0,62,62,183,114.35413479804993,,,,,,,,,,,,,,,,,,,,,,,,,,,,,,,,,,,,,,,,,,,,,,,,,,,,,,,,,,,,,,,,,,,,,,,,,,,,,,,,,60.94992344606945,66.5904299857902,63.87941122350027,64.80744339577889,67.95146625185367,67.95146625185367,1.0,1.2,-162,17,0,15,162,-17,114.33955550193787,114.33963108062744,114.3426582813263,114.35413479804993,114.49214673042297,114.49214673042297,114.49214673042297,114.49214673042297,114.49214673042297,114.49214673042297,114.49214673042297,115.221262216568,3,0.8648784160614014,None,,,,,,,,,,,,,,,,,,26,6,2025-02-18_16h06.10.707,comp,2024.2.4,57.79634671987478,2025-02-18 16h06.19.920494 -0500,
63,63,0,critical,hwd,35.0,3.0,lower,133.0,57.0,57.0,133.0,70.0,70.0,2,4.517341375350952,None,,,,,0,0,0,0,0,63,63,98,115.2372796535492,,,,,,,,,,,,,,,,,,,,,,,,,,,,,,,,,,,,,,,,,,,,,,,,,,,,,,,,,,,,,,,,,,,,,,,,,,,,,,,,,133.0,57.0,57.0,133.0,70.0,70.0,3.0,3.1,-191,270,0,3,198,-261,115.22284173965454,115.22295689582825,115.22632908821106,115.2372796535492,115.3888168334961,115.3888168334961,115.3888168334961,115.3888168334961,115.3888168334961,115.3888168334961,115.3888168334961,119.75949454307556,2,4.517341375350952,None,,,,,,,,,,,,,,,,,,26,6,2025-02-18_16h06.10.707,comp,2024.2.4,57.79634671987478,2025-02-18 16h06.19.920494 -0500,
64,64,0,critical,whd,20.0,2.1,upper,125.0,200.0,200.0,125.0,141.0,141.0,3,0.45121026039123535,None,,,,,0,0,0,0,0,64,64,15,119.77542209625244,,,,,,,,,,,,,,,,,,,,,,,,,,,,,,,,,,,,,,,,,,,,,,,,,,,,,,,,,,,,,,,,,,,,,,,,,,,,,,,,,125.0,200.0,200.0,125.0,141.0,141.0,2.1,2.11,-258,255,0,269,229,-264,119.76110458374023,119.76120829582214,119.764657497406,119.77542209625244,119.92456865310669,119.92456865310669,119.92456865310669,119.92456865310669,119.92456865310669,119.92456865310669,119.92456865310669,120.24480199813843,3,0.45121026039123535,None,,,,,,,,,,,,,,,,,,26,6,2025-02-18_16h06.10.707,comp,2024.2.4,57.79634671987478,2025-02-18 16h06.19.920494 -0500,
65,65,0,critical,wdh,35.0,3.0,upper,125.0,200.0,127.0,127.0,200.0,125.0,3,0.9181361198425293,None,,,,,0,0,0,0,0,65,65,75,120.26025986671448,,,,,,,,,,,,,,,,,,,,,,,,,,,,,,,,,,,,,,,,,,,,,,,,,,,,,,,,,,,,,,,,,,,,,,,,,,,,,,,,,125.0,200.0,127.0,127.0,200.0,125.0,3.0,3.1,-260,256,0,-12,222,-278,120.24633526802063,120.2464246749878,120.24986004829407,120.26025986671448,120.4111487865448,120.4111487865448,120.4111487865448,120.4111487865448,120.4111487865448,120.4111487865448,120.4111487865448,121.19362044334412,3,0.9181361198425293,None,,,,,,,,,,,,,,,,,,26,6,2025-02-18_16h06.10.707,comp,2024.2.4,57.79634671987478,2025-02-18 16h06.19.920494 -0500,
66,66,0,critical,hdw,35.0,1.0,upper,200.0,125.0,127.0,127.0,125.0,200.0,1,1.04888916015625,None,,,,,0,0,0,0,0,66,66,109,121.20945310592651,,,,,,,,,,,,,,,,,,,,,,,,,,,,,,,,,,,,,,,,,,,,,,,,,,,,,,,,,,,,,,,,,,,,,,,,,,,,,,,,,200.0,125.0,127.0,127.0,125.0,200.0,1.0,1.3,258,-274,480,-275,740,-280,121.19532489776611,121.19540071487427,121.19886565208435,121.20945310592651,121.3582980632782,121.3582980632782,121.3582980632782,121.3582980632782,121.3582980632782,121.3582980632782,121.3582980632782,122.27655482292175,1,1.04888916015625,None,,,,,,,,,,,,,,,,,,26,6,2025-02-18_16h06.10.707,comp,2024.2.4,57.79634671987478,2025-02-18 16h06.19.920494 -0500,
67,67,0,filler_random,None,None,None,None,None,None,None,None,None,None,3,0.7980260848999023,None,,,,,0,0,0,0,0,67,67,138,122.29255175590515,,,,,,,,,,,,,,,,,,,,,,,,,,,,,,,,,,,,,,,,,,,,,,,,,,,,,,,,,,,,,,,,,,,,,,,,,,,,,,,,,126.61968209582551,68.40204903920139,95.81951875125635,80.96105577387593,121.99164328090225,99.25277722990393,2.2,2.22,-171,271,0,-281,186,-272,122.27854466438293,122.27868032455444,122.28209590911865,122.29255175590515,122.44126200675964,122.44126200675964,122.44126200675964,122.44126200675964,122.44126200675964,122.44126200675964,122.44126200675964,123.09297919273376,3,0.7980260848999023,None,,,,,,,,,,,,,,,,,,26,6,2025-02-18_16h06.10.707,comp,2024.2.4,57.79634671987478,2025-02-18 16h06.19.920494 -0500,
68,68,0,filler_square,None,None,None,None,None,None,None,None,None,None,1,0.6684706211090088,None,,,,,0,0,0,0,0,68,68,179,123.10986471176147,,,,,,,,,,,,,,,,,,,,,,,,,,,,,,,,,,,,,,,,,,,,,,,,,,,,,,,,,,,,,,,,,,,,,,,,,,,,,,,,,152.3998577768162,152.3998577768162,69.95274685246629,143.69450026818683,88.18363145616948,137.84976848680668,2.1,2.11,-244,252,0,263,237,-275,123.09486603736877,123.09500026702881,123.09861397743225,123.10986471176147,123.25931644439697,123.25931644439697,123.25931644439697,123.25931644439697,123.25931644439697,123.25931644439697,123.25931644439697,123.79128289222717,1,0.6684706211090088,None,,,,,,,,,,,,,,,,,,26,6,2025-02-18_16h06.10.707,comp,2024.2.4,57.79634671987478,2025-02-18 16h06.19.920494 -0500,
69,69,0,critical,whd,35.0,3.0,upper,125.0,200.0,200.0,125.0,127.0,127.0,1,0.9236094951629639,None,,,,,0,0,0,0,0,69,69,87,123.80739283561707,,,,,,,,,,,,,,,,,,,,,,,,,,,,,,,,,,,,,,,,,,,,,,,,,,,,,,,,,,,,,,,,,,,,,,,,,,,,,,,,,125.0,200.0,200.0,125.0,127.0,127.0,3.0,3.1,-258,271,0,14,222,-278,123.79276466369629,123.79283809661865,123.79598379135132,123.80739283561707,123.95694971084595,123.95694971084595,123.95694971084595,123.95694971084595,123.95694971084595,123.95694971084595,123.95694971084595,124.74652743339539,1,0.9236094951629639,None,,,,,,,,,,,,,,,,,,26,6,2025-02-18_16h06.10.707,comp,2024.2.4,57.79634671987478,2025-02-18 16h06.19.920494 -0500,
70,70,0,critical,hwd,20.0,1.0,lower,133.0,57.0,57.0,133.0,78.0,78.0,2,0.8482546806335449,None,,,,,0,0,0,0,0,70,70,102,124.7621636390686,,,,,,,,,,,,,,,,,,,,,,,,,,,,,,,,,,,,,,,,,,,,,,,,,,,,,,,,,,,,,,,,,,,,,,,,,,,,,,,,,133.0,57.0,57.0,133.0,78.0,78.0,1.0,1.1,-671,276,-480,252,-278,271,124.74809765815735,124.74819946289062,124.75107097625732,124.7621636390686,124.90882015228271,124.90882015228271,124.90882015228271,124.90882015228271,124.90882015228271,124.90882015228271,124.90882015228271,125.61277890205383,2,0.8482546806335449,None,,,,,,,,,,,,,,,,,,26,6,2025-02-18_16h06.10.707,comp,2024.2.4,57.79634671987478,2025-02-18 16h06.19.920494 -0500,
71,71,0,critical,whd,20.0,4.0,upper,125.0,200.0,200.0,125.0,141.0,141.0,1,0.881603479385376,None,,,,,0,0,0,0,0,71,71,95,125.63306212425232,,,,,,,,,,,,,,,,,,,,,,,,,,,,,,,,,,,,,,,,,,,,,,,,,,,,,,,,,,,,,,,,,,,,,,,,,,,,,,,,,125.0,200.0,200.0,125.0,141.0,141.0,4.0,4.1,-258,-271,0,-7,229,-261,125.61438393592834,125.61446118354797,125.61745643615723,125.63306212425232,125.77597498893738,125.77597498893738,125.77597498893738,125.77597498893738,125.77597498893738,125.77597498893738,125.77597498893738,126.52505826950073,1,0.881603479385376,None,,,,,,,,,,,,,,,,,,26,6,2025-02-18_16h06.10.707,comp,2024.2.4,57.79634671987478,2025-02-18 16h06.19.920494 -0500,
72,72,0,filler_square,None,None,None,None,None,None,None,None,None,None,3,0.8425533771514893,None,,,,,0,0,0,0,0,72,72,193,126.54465126991272,,,,,,,,,,,,,,,,,,,,,,,,,,,,,,,,,,,,,,,,,,,,,,,,,,,,,,,,,,,,,,,,,,,,,,,,,,,,,,,,,89.060016440807,146.4336378116051,160.95240474629264,130.48155124776883,187.72930190206588,187.72930190206588,1.0,1.3,246,-267,480,-265,735,-262,126.52684450149536,126.52692127227783,126.52993965148926,126.54465126991272,126.69111967086792,126.69111967086792,126.69111967086792,126.69111967086792,126.69111967086792,126.69111967086792,126.69111967086792,127.39379978179932,3,0.8425533771514893,None,,,,,,,,,,,,,,,,,,26,6,2025-02-18_16h06.10.707,comp,2024.2.4,57.79634671987478,2025-02-18 16h06.19.920494 -0500,
73,73,0,critical,whd,35.0,2.1,lower,57.0,133.0,133.0,57.0,70.0,70.0,2,0.8967504501342773,None,,,,,0,0,0,0,0,73,73,36,127.4102714061737,,,,,,,,,,,,,,,,,,,,,,,,,,,,,,,,,,,,,,,,,,,,,,,,,,,,,,,,,,,,,,,,,,,,,,,,,,,,,,,,,57.0,133.0,133.0,57.0,70.0,70.0,2.1,2.11,-191,283,0,280,160,-269,127.39526796340942,127.39534521102905,127.39938187599182,127.4102714061737,127.55742955207825,127.55742955207825,127.55742955207825,127.55742955207825,127.55742955207825,127.55742955207825,127.55742955207825,128.31315684318542,2,0.8967504501342773,None,,,,,,,,,,,,,,,,,,26,6,2025-02-18_16h06.10.707,comp,2024.2.4,57.79634671987478,2025-02-18 16h06.19.920494 -0500,
74,74,0,critical,dwh,20.0,4.0,upper,141.0,141.0,125.0,200.0,200.0,125.0,3,0.7600193023681641,None,,,,,0,0,0,0,0,74,74,71,128.33079957962036,,,,,,,,,,,,,,,,,,,,,,,,,,,,,,,,,,,,,,,,,,,,,,,,,,,,,,,,,,,,,,,,,,,,,,,,,,,,,,,,,141.0,141.0,125.0,200.0,200.0,125.0,4.0,4.1,-266,-270,0,-14,258,-280,128.31486296653748,128.31494045257568,128.3178460597992,128.33079957962036,128.47742652893066,128.47742652893066,128.47742652893066,128.47742652893066,128.47742652893066,128.47742652893066,128.47742652893066,129.09287214279175,3,0.7600193023681641,None,,,,,,,,,,,,,,,,,,26,6,2025-02-18_16h06.10.707,comp,2024.2.4,57.79634671987478,2025-02-18 16h06.19.920494 -0500,
75,75,0,filler_square,None,None,None,None,None,None,None,None,None,None,2,0.6609382629394531,None,,,,,0,0,0,0,0,75,75,181,129.10947346687317,,,,,,,,,,,,,,,,,,,,,,,,,,,,,,,,,,,,,,,,,,,,,,,,,,,,,,,,,,,,,,,,,,,,,,,,,,,,,,,,,91.43764841394477,115.93609048772653,169.9107887495167,169.9107887495167,59.30156377423517,119.409375898105,2.1,2.12,-239,-255,0,-285,241,258,129.0946114063263,129.09468793869019,129.09770321846008,129.10947346687317,129.25953841209412,129.25953841209412,129.25953841209412,129.25953841209412,129.25953841209412,129.25953841209412,129.25953841209412,129.78465676307678,2,0.6609382629394531,None,,,,,,,,,,,,,,,,,,26,6,2025-02-18_16h06.10.707,comp,2024.2.4,57.79634671987478,2025-02-18 16h06.19.920494 -0500,
76,76,0,critical,wdh,35.0,2.1,upper,125.0,200.0,127.0,127.0,200.0,125.0,1,0.7860217094421387,None,,,,,0,0,0,0,0,76,76,33,129.80028223991394,,,,,,,,,,,,,,,,,,,,,,,,,,,,,,,,,,,,,,,,,,,,,,,,,,,,,,,,,,,,,,,,,,,,,,,,,,,,,,,,,125.0,200.0,127.0,127.0,200.0,125.0,2.1,2.12,-260,-264,0,-256,222,285,129.78609704971313,129.7861909866333,129.78902792930603,129.80028223991394,129.94378113746643,129.94378113746643,129.94378113746643,129.94378113746643,129.94378113746643,129.94378113746643,129.94378113746643,130.60380911827087,1,0.7860217094421387,None,,,,,,,,,,,,,,,,,,26,6,2025-02-18_16h06.10.707,comp,2024.2.4,57.79634671987478,2025-02-18 16h06.19.920494 -0500,
77,77,0,critical,dhw,20.0,4.0,lower,78.0,78.0,133.0,57.0,57.0,133.0,2,0.7598190307617188,None,,,,,0,0,0,0,0,77,77,58,130.6187460422516,,,,,,,,,,,,,,,,,,,,,,,,,,,,,,,,,,,,,,,,,,,,,,,,,,,,,,,,,,,,,,,,,,,,,,,,,,,,,,,,,78.0,78.0,133.0,57.0,57.0,133.0,4.0,4.2,-164,18,0,-254,191,14,130.60524940490723,130.60532307624817,130.60813879966736,130.6187460422516,130.75999450683594,130.75999450683594,130.75999450683594,130.75999450683594,130.75999450683594,130.75999450683594,130.75999450683594,131.3834776878357,2,0.7598190307617188,None,,,,,,,,,,,,,,,,,,26,6,2025-02-18_16h06.10.707,comp,2024.2.4,57.79634671987478,2025-02-18 16h06.19.920494 -0500,
78,78,0,filler_square,None,None,None,None,None,None,None,None,None,None,3,0.6106362342834473,None,,,,,0,0,0,0,0,78,78,203,131.4002718925476,,,,,,,,,,,,,,,,,,,,,,,,,,,,,,,,,,,,,,,,,,,,,,,,,,,,,,,,,,,,,,,,,,,,,,,,,,,,,,,,,171.72905363858058,107.75311720610449,163.91086456799695,155.67493308416516,199.8850888858107,199.8850888858107,1.0,1.1,-708,261,-480,284,-206,276,131.38520860671997,131.38529086112976,131.38863348960876,131.4002718925476,131.5452470779419,131.5452470779419,131.5452470779419,131.5452470779419,131.5452470779419,131.5452470779419,131.5452470779419,132.01977729797363,3,0.6106362342834473,None,,,,,,,,,,,,,,,,,,26,6,2025-02-18_16h06.10.707,comp,2024.2.4,57.79634671987478,2025-02-18 16h06.19.920494 -0500,
79,79,0,critical,hdw,20.0,3.0,upper,200.0,125.0,141.0,141.0,125.0,200.0,1,0.8045642375946045,None,,,,,0,0,0,0,0,79,79,117,132.03804349899292,,,,,,,,,,,,,,,,,,,,,,,,,,,,,,,,,,,,,,,,,,,,,,,,,,,,,,,,,,,,,,,,,,,,,,,,,,,,,,,,,200.0,125.0,141.0,141.0,125.0,200.0,3.0,3.2,-229,-258,0,-8,266,254,132.02128267288208,132.02135944366455,132.02421116828918,132.03804349899292,132.1848499774933,132.1848499774933,132.1848499774933,132.1848499774933,132.1848499774933,132.1848499774933,132.1848499774933,132.86116075515747,1,0.8045642375946045,None,,,,,,,,,,,,,,,,,,26,6,2025-02-18_16h06.10.707,comp,2024.2.4,57.79634671987478,2025-02-18 16h06.19.920494 -0500,
80,80,0,filler_square,None,None,None,None,None,None,None,None,None,None,3,0.2691175937652588,None,,,,,0,0,0,0,0,80,80,204,132.87730431556702,,,,,,,,,,,,,,,,,,,,,,,,,,,,,,,,,,,,,,,,,,,,,,,,,,,,,,,,,,,,,,,,,,,,,,,,,,,,,,,,,97.83058237571782,97.83058237571782,67.06650302627693,62.96842519930315,91.07034681451343,73.27560337720396,2.2,2.21,-176,-262,0,283,164,268,132.8629002571106,132.86297464370728,132.86610770225525,132.87730431556702,133.02807545661926,133.02807545661926,133.02807545661926,133.02807545661926,133.02807545661926,133.02807545661926,133.02807545661926,133.16210794448853,3,0.2691175937652588,None,,,,,,,,,,,,,,,,,,26,6,2025-02-18_16h06.10.707,comp,2024.2.4,57.79634671987478,2025-02-18 16h06.19.920494 -0500,
81,81,0,filler_random,None,None,None,None,None,None,None,None,None,None,2,0.2970263957977295,None,,,,,0,0,0,0,0,81,81,132,133.17821192741394,,,,,,,,,,,,,,,,,,,,,,,,,,,,,,,,,,,,,,,,,,,,,,,,,,,,,,,,,,,,,,,,,,,,,,,,,,,,,,,,,144.6609622302167,164.71947056879986,142.12972974922008,84.1105376730041,165.9423334003145,72.8622812084671,4.0,4.1,-220,-277,0,7,174,-263,133.163813829422,133.16388964653015,133.16794180870056,133.17821192741394,133.32848834991455,133.32848834991455,133.32848834991455,133.32848834991455,133.32848834991455,133.32848834991455,133.32848834991455,133.48099184036255,2,0.2970263957977295,None,,,,,,,,,,,,,,,,,,26,6,2025-02-18_16h06.10.707,comp,2024.2.4,57.79634671987478,2025-02-18 16h06.19.920494 -0500,
82,82,0,critical,hdw,20.0,4.0,upper,200.0,125.0,141.0,141.0,125.0,200.0,3,0.7379248142242432,None,,,,,0,0,0,0,0,82,82,119,133.49687695503235,,,,,,,,,,,,,,,,,,,,,,,,,,,,,,,,,,,,,,,,,,,,,,,,,,,,,,,,,,,,,,,,,,,,,,,,,,,,,,,,,200.0,125.0,141.0,141.0,125.0,200.0,4.0,4.1,-229,-267,0,-20,266,-259,133.48265504837036,133.48275661468506,133.48606133460999,133.49687695503235,133.64863872528076,133.64863872528076,133.64863872528076,133.64863872528076,133.64863872528076,133.64863872528076,133.64863872528076,134.25269198417664,3,0.7379248142242432,None,,,,,,,,,,,,,,,,,,26,6,2025-02-18_16h06.10.707,comp,2024.2.4,57.79634671987478,2025-02-18 16h06.19.920494 -0500,
83,83,0,critical,wdh,35.0,2.1,upper,125.0,200.0,127.0,127.0,200.0,125.0,3,0.9566524028778076,None,,,,,0,0,0,0,0,83,83,9,134.2697787284851,,,,,,,,,,,,,,,,,,,,,,,,,,,,,,,,,,,,,,,,,,,,,,,,,,,,,,,,,,,,,,,,,,,,,,,,,,,,,,,,,125.0,200.0,127.0,127.0,200.0,125.0,2.1,2.12,-260,-257,0,-273,222,280,134.25419926643372,134.2542872428894,134.25707387924194,134.2697787284851,134.41205716133118,134.41205716133118,134.41205716133118,134.41205716133118,134.41205716133118,134.41205716133118,134.41205716133118,135.24445056915283,3,0.9566524028778076,None,,,,,,,,,,,,,,,,,,26,6,2025-02-18_16h06.10.707,comp,2024.2.4,57.79634671987478,2025-02-18 16h06.19.920494 -0500,
84,84,0,critical,dwh,20.0,4.0,lower,78.0,78.0,57.0,133.0,133.0,57.0,2,0.6788525581359863,None,,,,,0,0,0,0,0,84,84,70,135.26041889190674,,,,,,,,,,,,,,,,,,,,,,,,,,,,,,,,,,,,,,,,,,,,,,,,,,,,,,,,,,,,,,,,,,,,,,,,,,,,,,,,,78.0,78.0,57.0,133.0,133.0,57.0,4.0,4.1,-202,-278,0,-7,191,-252,135.2459020614624,135.24597692489624,135.24891018867493,135.26041889190674,135.41372346878052,135.41372346878052,135.41372346878052,135.41372346878052,135.41372346878052,135.41372346878052,135.41372346878052,135.9460632801056,2,0.6788525581359863,None,,,,,,,,,,,,,,,,,,26,6,2025-02-18_16h06.10.707,comp,2024.2.4,57.79634671987478,2025-02-18 16h06.19.920494 -0500,
85,85,0,critical,dwh,20.0,1.0,upper,141.0,141.0,125.0,200.0,200.0,125.0,2,1.0078520774841309,None,,,,,0,0,0,0,0,85,85,67,135.9624629020691,,,,,,,,,,,,,,,,,,,,,,,,,,,,,,,,,,,,,,,,,,,,,,,,,,,,,,,,,,,,,,,,,,,,,,,,,,,,,,,,,141.0,141.0,125.0,200.0,200.0,125.0,1.0,1.3,214,-256,480,-284,738,-251,135.94759035110474,135.94766545295715,135.95099759101868,135.9624629020691,136.10940670967102,136.10940670967102,136.10940670967102,136.10940670967102,136.10940670967102,136.10940670967102,136.10940670967102,136.9805088043213,2,1.0078520774841309,None,,,,,,,,,,,,,,,,,,26,6,2025-02-18_16h06.10.707,comp,2024.2.4,57.79634671987478,2025-02-18 16h06.19.920494 -0500,
86,86,0,filler_random,None,None,None,None,None,None,None,None,None,None,2,0.8464682102203369,None,,,,,0,0,0,0,0,86,86,155,136.99602723121643,,,,,,,,,,,,,,,,,,,,,,,,,,,,,,,,,,,,,,,,,,,,,,,,,,,,,,,,,,,,,,,,,,,,,,,,,,,,,,,,,198.5042845895659,132.57016434382228,176.70805204127817,199.40898044825806,60.53715483822328,185.78499075121425,2.1,2.11,-262,289,0,281,289,-275,136.9822256565094,136.98230504989624,136.98530173301697,136.99602723121643,137.14615106582642,137.14615106582642,137.14615106582642,137.14615106582642,137.14615106582642,137.14615106582642,137.14615106582642,137.8467993736267,2,0.8464682102203369,None,,,,,,,,,,,,,,,,,,26,6,2025-02-18_16h06.10.707,comp,2024.2.4,57.79634671987478,2025-02-18 16h06.19.920494 -0500,
87,87,0,critical,whd,35.0,2.1,lower,57.0,133.0,133.0,57.0,70.0,70.0,3,0.8910293579101562,None,,,,,0,0,0,0,0,87,87,12,137.86328411102295,,,,,,,,,,,,,,,,,,,,,,,,,,,,,,,,,,,,,,,,,,,,,,,,,,,,,,,,,,,,,,,,,,,,,,,,,,,,,,,,,57.0,133.0,133.0,57.0,70.0,70.0,2.1,2.11,-191,280,0,274,160,-282,137.8483247756958,137.84842491149902,137.8525459766388,137.86328411102295,138.00654888153076,138.00654888153076,138.00654888153076,138.00654888153076,138.00654888153076,138.00654888153076,138.00654888153076,138.76343393325806,3,0.8910293579101562,None,,,,,,,,,,,,,,,,,,26,6,2025-02-18_16h06.10.707,comp,2024.2.4,57.79634671987478,2025-02-18 16h06.19.920494 -0500,
88,88,0,critical,dwh,20.0,2.1,upper,141.0,141.0,125.0,200.0,200.0,125.0,2,1.0306344032287598,None,,,,,0,0,0,0,0,88,88,7,138.77968168258667,,,,,,,,,,,,,,,,,,,,,,,,,,,,,,,,,,,,,,,,,,,,,,,,,,,,,,,,,,,,,,,,,,,,,,,,,,,,,,,,,141.0,141.0,125.0,200.0,200.0,125.0,2.1,2.12,-266,-276,0,-256,258,281,138.76512169837952,138.7652723789215,138.76870369911194,138.77968168258667,138.92632746696472,138.92632746696472,138.92632746696472,138.92632746696472,138.92632746696472,138.92632746696472,138.92632746696472,139.82382702827454,2,1.0306344032287598,None,,,,,,,,,,,,,,,,,,26,6,2025-02-18_16h06.10.707,comp,2024.2.4,57.79634671987478,2025-02-18 16h06.19.920494 -0500,
89,89,0,catch,None,None,None,None,None,None,None,None,None,None,1,0.6294050216674805,None,,,,,0,0,0,0,0,89,89,125,139.845055103302,,,,,,,,,,,,,,,,,,,,,,,,,,,,,,,,,,,,,,,,,,,,,,,,,,,,,,,,,,,,,,,,,,,,,,,,,,,,,,,,,171,154,71,119,114,76,1.0,1.2,-232,7,0,-3,194,14,139.82597279548645,139.82605028152466,139.82922434806824,139.845055103302,139.98119735717773,139.98119735717773,139.98119735717773,139.98119735717773,139.98119735717773,139.98119735717773,139.98119735717773,140.48434162139893,1,0.6294050216674805,None,,,,,,,,,,,,,,,,,,26,6,2025-02-18_16h06.10.707,comp,2024.2.4,57.79634671987478,2025-02-18 16h06.19.920494 -0500,
90,90,0,catch,None,None,None,None,None,None,None,None,None,None,1,0.7260127067565918,None,,,,,0,0,0,0,0,90,90,122,140.5009844303131,,,,,,,,,,,,,,,,,,,,,,,,,,,,,,,,,,,,,,,,,,,,,,,,,,,,,,,,,,,,,,,,,,,,,,,,,,,,,,,,,190,135,90,100,76,114,2.1,2.12,-214,-274,0,-281,203,282,140.4866394996643,140.48671793937683,140.4896080493927,140.5009844303131,140.65024995803833,140.65024995803833,140.65024995803833,140.65024995803833,140.65024995803833,140.65024995803833,140.65024995803833,141.23005843162537,1,0.7260127067565918,None,,,,,,,,,,,,,,,,,,26,6,2025-02-18_16h06.10.707,comp,2024.2.4,57.79634671987478,2025-02-18 16h06.19.920494 -0500,
91,91,0,filler_random,None,None,None,None,None,None,None,None,None,None,3,0.9000616073608398,None,,,,,0,0,0,0,0,91,91,139,141.24667191505432,,,,,,,,,,,,,,,,,,,,,,,,,,,,,,,,,,,,,,,,,,,,,,,,,,,,,,,,,,,,,,,,,,,,,,,,,,,,,,,,,145.0523460426893,194.60654872763217,120.06440462207095,198.564586103114,195.23395096989333,168.74314982525212,2.1,2.12,-293,-282,0,-256,280,276,141.23172116279602,141.2317967414856,141.23503184318542,141.24667191505432,141.39739799499512,141.39739799499512,141.39739799499512,141.39739799499512,141.39739799499512,141.39739799499512,141.39739799499512,142.14861512184143,3,0.9000616073608398,None,,,,,,,,,,,,,,,,,,26,6,2025-02-18_16h06.10.707,comp,2024.2.4,57.79634671987478,2025-02-18 16h06.19.920494 -0500,
92,92,0,critical,wdh,35.0,1.0,lower,57.0,133.0,70.0,70.0,133.0,57.0,1,1.0541725158691406,None,,,,,0,0,0,0,0,92,92,72,142.16415119171143,,,,,,,,,,,,,,,,,,,,,,,,,,,,,,,,,,,,,,,,,,,,,,,,,,,,,,,,,,,,,,,,,,,,,,,,,,,,,,,,,57.0,133.0,70.0,70.0,133.0,57.0,1.0,1.1,-678,281,-480,260,-320,261,142.15015292167664,142.15026807785034,142.1535348892212,142.16415119171143,142.3160789012909,142.3160789012909,142.3160789012909,142.3160789012909,142.3160789012909,142.3160789012909,142.3160789012909,143.23245334625244,1,1.0541725158691406,None,,,,,,,,,,,,,,,,,,26,6,2025-02-18_16h06.10.707,comp,2024.2.4,57.79634671987478,2025-02-18 16h06.19.920494 -0500,
93,93,0,critical,dwh,35.0,2.1,upper,127.0,127.0,125.0,200.0,200.0,125.0,2,0.8100912570953369,None,,,,,0,0,0,0,0,93,93,29,143.24920463562012,,,,,,,,,,,,,,,,,,,,,,,,,,,,,,,,,,,,,,,,,,,,,,,,,,,,,,,,,,,,,,,,,,,,,,,,,,,,,,,,,127.0,127.0,125.0,200.0,200.0,125.0,2.1,2.12,-260,-265,0,-286,258,250,143.23399329185486,143.23406958580017,143.23706030845642,143.24920463562012,143.40176343917847,143.40176343917847,143.40176343917847,143.40176343917847,143.40176343917847,143.40176343917847,143.40176343917847,144.06433725357056,2,0.8100912570953369,None,,,,,,,,,,,,,,,,,,26,6,2025-02-18_16h06.10.707,comp,2024.2.4,57.79634671987478,2025-02-18 16h06.19.920494 -0500,
94,94,0,critical,wdh,35.0,3.0,lower,57.0,133.0,70.0,70.0,133.0,57.0,3,1.1463844776153564,None,,,,,0,0,0,0,0,94,94,74,144.080792427063,,,,,,,,,,,,,,,,,,,,,,,,,,,,,,,,,,,,,,,,,,,,,,,,,,,,,,,,,,,,,,,,,,,,,,,,,,,,,,,,,57.0,133.0,70.0,70.0,133.0,57.0,3.0,3.1,-198,263,0,17,160,-257,144.06587862968445,144.06595516204834,144.06947374343872,144.080792427063,144.2349455356598,144.2349455356598,144.2349455356598,144.2349455356598,144.2349455356598,144.2349455356598,144.2349455356598,145.23037385940552,3,1.1463844776153564,None,,,,,,,,,,,,,,,,,,26,6,2025-02-18_16h06.10.707,comp,2024.2.4,57.79634671987478,2025-02-18 16h06.19.920494 -0500,
95,95,0,critical,dwh,35.0,1.0,upper,127.0,127.0,125.0,200.0,200.0,125.0,2,0.9019839763641357,None,,,,,0,0,0,0,0,95,95,61,145.25257515907288,,,,,,,,,,,,,,,,,,,,,,,,,,,,,,,,,,,,,,,,,,,,,,,,,,,,,,,,,,,,,,,,,,,,,,,,,,,,,,,,,127.0,127.0,125.0,200.0,200.0,125.0,1.0,1.1,-740,258,-480,273,-222,260,145.23192691802979,145.23200345039368,145.23547387123108,145.25257515907288,145.38248109817505,145.38248109817505,145.38248109817505,145.38248109817505,145.38248109817505,145.38248109817505,145.38248109817505,146.15708756446838,2,0.9019839763641357,None,,,,,,,,,,,,,,,,,,26,6,2025-02-18_16h06.10.707,comp,2024.2.4,57.79634671987478,2025-02-18 16h06.19.920494 -0500,
96,96,0,critical,dhw,20.0,2.1,upper,141.0,141.0,200.0,125.0,125.0,200.0,3,0.8086044788360596,None,,,,,0,0,0,0,0,96,96,3,146.17771863937378,,,,,,,,,,,,,,,,,,,,,,,,,,,,,,,,,,,,,,,,,,,,,,,,,,,,,,,,,,,,,,,,,,,,,,,,,,,,,,,,,141.0,141.0,200.0,125.0,125.0,200.0,2.1,2.11,-229,261,0,268,258,-252,146.1587827205658,146.15886282920837,146.16215109825134,146.17771863937378,146.31948685646057,146.31948685646057,146.31948685646057,146.31948685646057,146.31948685646057,146.31948685646057,146.31948685646057,146.9989607334137,3,0.8086044788360596,None,,,,,,,,,,,,,,,,,,26,6,2025-02-18_16h06.10.707,comp,2024.2.4,57.79634671987478,2025-02-18 16h06.19.920494 -0500,
97,97,0,critical,wdh,20.0,2.1,lower,57.0,133.0,78.0,78.0,133.0,57.0,2,1.031491756439209,None,,,,,0,0,0,0,0,97,97,10,147.01884984970093,,,,,,,,,,,,,,,,,,,,,,,,,,,,,,,,,,,,,,,,,,,,,,,,,,,,,,,,,,,,,,,,,,,,,,,,,,,,,,,,,57.0,133.0,78.0,78.0,133.0,57.0,2.1,2.12,-202,-282,0,-279,164,262,147.00044441223145,147.0005214214325,147.0035536289215,147.01884984970093,147.16638803482056,147.16638803482056,147.16638803482056,147.16638803482056,147.16638803482056,147.16638803482056,147.16638803482056,148.06536984443665,2,1.031491756439209,None,,,,,,,,,,,,,,,,,,26,6,2025-02-18_16h06.10.707,comp,2024.2.4,57.79634671987478,2025-02-18 16h06.19.920494 -0500,
98,98,0,filler_random,None,None,None,None,None,None,None,None,None,None,1,0.6331663131713867,None,,,,,0,0,0,0,0,98,98,149,148.0817732810974,,,,,,,,,,,,,,,,,,,,,,,,,,,,,,,,,,,,,,,,,,,,,,,,,,,,,,,,,,,,,,,,,,,,,,,,,,,,,,,,,140.1532248111741,165.77514588894132,121.02122214857198,70.88341155309384,95.15034575144426,59.61156160687953,2.1,2.11,-214,274,0,268,161,-288,148.0670473575592,148.06715631484985,148.0704836845398,148.0817732810974,148.2198748588562,148.2198748588562,148.2198748588562,148.2198748588562,148.2198748588562,148.2198748588562,148.2198748588562,148.7180905342102,1,0.6331663131713867,None,,,,,,,,,,,,,,,,,,26,6,2025-02-18_16h06.10.707,comp,2024.2.4,57.79634671987478,2025-02-18 16h06.19.920494 -0500,
99,99,0,catch,None,None,None,None,None,None,None,None,None,None,1,0.947613000869751,None,,,,,0,0,0,0,0,99,99,129,148.7348656654358,,,,,,,,,,,,,,,,,,,,,,,,,,,,,,,,,,,,,,,,,,,,,,,,,,,,,,,,,,,,,,,,,,,,,,,,,,,,,,,,,153,172,132,58,114,76,3.0,3.2,-211,-289,0,-19,163,278,148.72023487091064,148.72031903266907,148.7240915298462,148.7348656654358,148.88368225097656,148.88368225097656,148.88368225097656,148.88368225097656,148.88368225097656,148.88368225097656,148.88368225097656,149.68752098083496,1,0.947613000869751,None,,,,,,,,,,,,,,,,,,26,6,2025-02-18_16h06.10.707,comp,2024.2.4,57.79634671987478,2025-02-18 16h06.19.920494 -0500,
100,100,0,catch,None,None,None,None,None,None,None,None,None,None,2,0.7847273349761963,None,,,,,0,0,0,0,0,100,100,128,149.70683360099792,,,,,,,,,,,,,,,,,,,,,,,,,,,,,,,,,,,,,,,,,,,,,,,,,,,,,,,,,,,,,,,,,,,,,,,,,,,,,,,,,111,79,164,161,79,111,1.0,1.3,264,-252,480,-250,712,-279,149.68962955474854,149.689706325531,149.69253206253052,149.70683360099792,149.84799933433533,149.84799933433533,149.84799933433533,149.84799933433533,149.84799933433533,149.84799933433533,149.84799933433533,150.49964594841003,2,0.7847273349761963,None,,,,,,,,,,,,,,,,,,26,6,2025-02-18_16h06.10.707,comp,2024.2.4,57.79634671987478,2025-02-18 16h06.19.920494 -0500,
101,101,0,critical,hwd,20.0,4.0,upper,200.0,125.0,125.0,200.0,141.0,141.0,1,0.9637777805328369,None,,,,,0,0,0,0,0,101,101,107,150.51930499076843,,,,,,,,,,,,,,,,,,,,,,,,,,,,,,,,,,,,,,,,,,,,,,,,,,,,,,,,,,,,,,,,,,,,,,,,,,,,,,,,,200.0,125.0,125.0,200.0,141.0,141.0,4.0,4.1,-258,-285,0,9,266,-271,150.5011429786682,150.50124144554138,150.5040545463562,150.51930499076843,150.66798758506775,150.66798758506775,150.66798758506775,150.66798758506775,150.66798758506775,150.66798758506775,150.66798758506775,151.48564386367798,1,0.9637777805328369,None,,,,,,,,,,,,,,,,,,26,6,2025-02-18_16h06.10.707,comp,2024.2.4,57.79634671987478,2025-02-18 16h06.19.920494 -0500,
102,102,0,critical,dwh,20.0,3.0,upper,141.0,141.0,125.0,200.0,200.0,125.0,2,0.8764140605926514,None,,,,,0,0,0,0,0,102,102,69,151.50206565856934,,,,,,,,,,,,,,,,,,,,,,,,,,,,,,,,,,,,,,,,,,,,,,,,,,,,,,,,,,,,,,,,,,,,,,,,,,,,,,,,,141.0,141.0,125.0,200.0,200.0,125.0,3.0,3.1,-266,252,0,11,258,-265,151.48729395866394,151.48739504814148,151.4909110069275,151.50206565856934,151.65446138381958,151.65446138381958,151.65446138381958,151.65446138381958,151.65446138381958,151.65446138381958,151.65446138381958,152.38965272903442,2,0.8764140605926514,None,,,,,,,,,,,,,,,,,,26,6,2025-02-18_16h06.10.707,comp,2024.2.4,57.79634671987478,2025-02-18 16h06.19.920494 -0500,
103,103,0,critical,dhw,35.0,2.1,upper,127.0,127.0,200.0,125.0,125.0,200.0,3,0.8450546264648438,None,,,,,0,0,0,0,0,103,103,25,152.4058496952057,,,,,,,,,,,,,,,,,,,,,,,,,,,,,,,,,,,,,,,,,,,,,,,,,,,,,,,,,,,,,,,,,,,,,,,,,,,,,,,,,127.0,127.0,200.0,125.0,125.0,200.0,2.1,2.11,-222,274,0,288,258,-272,152.39118790626526,152.39127898216248,152.3941991329193,152.4058496952057,152.5545048713684,152.5545048713684,152.5545048713684,152.5545048713684,152.5545048713684,152.5545048713684,152.5545048713684,153.25670099258423,3,0.8450546264648438,None,,,,,,,,,,,,,,,,,,26,6,2025-02-18_16h06.10.707,comp,2024.2.4,57.79634671987478,2025-02-18 16h06.19.920494 -0500,
104,104,0,critical,wdh,35.0,2.1,lower,57.0,133.0,70.0,70.0,133.0,57.0,3,0.9214661121368408,None,,,,,0,0,0,0,0,104,104,8,153.27343440055847,,,,,,,,,,,,,,,,,,,,,,,,,,,,,,,,,,,,,,,,,,,,,,,,,,,,,,,,,,,,,,,,,,,,,,,,,,,,,,,,,57.0,133.0,70.0,70.0,133.0,57.0,2.1,2.11,-198,266,0,276,160,-269,153.25833678245544,153.25842428207397,153.26175260543823,153.27343440055847,153.41933035850525,153.41933035850525,153.41933035850525,153.41933035850525,153.41933035850525,153.41933035850525,153.41933035850525,154.19861340522766,3,0.9214661121368408,None,,,,,,,,,,,,,,,,,,26,6,2025-02-18_16h06.10.707,comp,2024.2.4,57.79634671987478,2025-02-18 16h06.19.920494 -0500,
105,105,0,critical,whd,35.0,1.0,upper,125.0,200.0,200.0,125.0,127.0,127.0,2,0.7309272289276123,None,,,,,0,0,0,0,0,105,105,85,154.21599984169006,,,,,,,,,,,,,,,,,,,,,,,,,,,,,,,,,,,,,,,,,,,,,,,,,,,,,,,,,,,,,,,,,,,,,,,,,,,,,,,,,125.0,200.0,200.0,125.0,127.0,127.0,1.0,1.1,-738,262,-480,289,-258,280,154.20005893707275,154.20013284683228,154.20295453071594,154.21599984169006,154.35148572921753,154.35148572921753,154.35148572921753,154.35148572921753,154.35148572921753,154.35148572921753,154.35148572921753,154.95440530776978,2,0.7309272289276123,None,,,,,,,,,,,,,,,,,,26,6,2025-02-18_16h06.10.707,comp,2024.2.4,57.79634671987478,2025-02-18 16h06.19.920494 -0500,
106,106,0,critical,dhw,35.0,4.0,lower,70.0,70.0,133.0,57.0,57.0,133.0,2,0.7599420547485352,None,,,,,0,0,0,0,0,106,106,52,154.97072005271912,,,,,,,,,,,,,,,,,,,,,,,,,,,,,,,,,,,,,,,,,,,,,,,,,,,,,,,,,,,,,,,,,,,,,,,,,,,,,,,,,70.0,70.0,133.0,57.0,57.0,133.0,4.0,4.2,-160,4,0,-261,191,1,154.95601272583008,154.95609426498413,154.959641456604,154.97072005271912,155.11909103393555,155.11909103393555,155.11909103393555,155.11909103393555,155.11909103393555,155.11909103393555,155.11909103393555,155.73495888710022,2,0.7599420547485352,None,,,,,,,,,,,,,,,,,,26,6,2025-02-18_16h06.10.707,comp,2024.2.4,57.79634671987478,2025-02-18 16h06.19.920494 -0500,
107,107,0,filler_square,None,None,None,None,None,None,None,None,None,None,3,0.6950364112854004,None,,,,,0,0,0,0,0,107,107,187,155.75530767440796,,,,,,,,,,,,,,,,,,,,,,,,,,,,,,,,,,,,,,,,,,,,,,,,,,,,,,,,,,,,,,,,,,,,,,,,,,,,,,,,,80.87619270290604,82.31832733587454,94.47177602074407,108.53250887419236,110.54502251279908,110.54502251279908,3.0,3.1,-191,286,0,15,206,-289,155.73696994781494,155.73704957962036,155.7403655052185,155.75530767440796,155.9025354385376,155.9025354385376,155.9025354385376,155.9025354385376,155.9025354385376,155.9025354385376,155.9025354385376,156.46763110160828,3,0.6950364112854004,None,,,,,,,,,,,,,,,,,,26,6,2025-02-18_16h06.10.707,comp,2024.2.4,57.79634671987478,2025-02-18 16h06.19.920494 -0500,
108,108,0,critical,hwd,20.0,1.0,upper,200.0,125.0,125.0,200.0,141.0,141.0,2,0.7903146743774414,None,,,,,0,0,0,0,0,108,108,103,156.48402214050293,,,,,,,,,,,,,,,,,,,,,,,,,,,,,,,,,,,,,,,,,,,,,,,,,,,,,,,,,,,,,,,,,,,,,,,,,,,,,,,,,200.0,125.0,125.0,200.0,141.0,141.0,1.0,1.1,-738,289,-480,283,-214,252,156.46927762031555,156.46938514709473,156.47271370887756,156.48402214050293,156.6323459148407,156.6323459148407,156.6323459148407,156.6323459148407,156.6323459148407,156.6323459148407,156.6323459148407,157.28661155700684,2,0.7903146743774414,None,,,,,,,,,,,,,,,,,,26,6,2025-02-18_16h06.10.707,comp,2024.2.4,57.79634671987478,2025-02-18 16h06.19.920494 -0500,
109,109,0,catch,None,None,None,None,None,None,None,None,None,None,1,0.9011244773864746,None,,,,,0,0,0,0,0,109,109,120,157.31011962890625,,,,,,,,,,,,,,,,,,,,,,,,,,,,,,,,,,,,,,,,,,,,,,,,,,,,,,,,,,,,,,,,,,,,,,,,,,,,,,,,,148,177,132,58,100,90,3.0,3.1,-214,272,0,-2,170,-261,157.28877925872803,157.28885793685913,157.29216170310974,157.31011962890625,157.45227122306824,157.45227122306824,157.45227122306824,157.45227122306824,157.45227122306824,157.45227122306824,157.45227122306824,158.22080516815186,1,0.9011244773864746,None,,,,,,,,,,,,,,,,,,26,6,2025-02-18_16h06.10.707,comp,2024.2.4,57.79634671987478,2025-02-18 16h06.19.920494 -0500,
110,110,0,critical,whd,35.0,2.1,upper,125.0,200.0,200.0,125.0,127.0,127.0,3,1.0704700946807861,None,,,,,0,0,0,0,0,110,110,37,158.24437379837036,,,,,,,,,,,,,,,,,,,,,,,,,,,,,,,,,,,,,,,,,,,,,,,,,,,,,,,,,,,,,,,,,,,,,,,,,,,,,,,,,125.0,200.0,200.0,125.0,127.0,127.0,2.1,2.11,-258,262,0,264,222,-274,158.22239589691162,158.22247672080994,158.22582817077637,158.24437379837036,158.38600254058838,158.38600254058838,158.38600254058838,158.38600254058838,158.38600254058838,158.38600254058838,158.38600254058838,159.31890559196472,3,1.0704700946807861,None,,,,,,,,,,,,,,,,,,26,6,2025-02-18_16h06.10.707,comp,2024.2.4,57.79634671987478,2025-02-18 16h06.19.920494 -0500,
111,111,0,filler_random,None,None,None,None,None,None,None,None,None,None,2,0.6825923919677734,None,,,,,0,0,0,0,0,111,111,136,159.33577394485474,,,,,,,,,,,,,,,,,,,,,,,,,,,,,,,,,,,,,,,,,,,,,,,,,,,,,,,,,,,,,,,,,,,,,,,,,,,,,,,,,106.04999168311116,163.22913381926472,123.99000834903298,199.53017801871056,105.0183674303913,105.60223801519561,2.1,2.11,-277,282,0,263,249,-271,159.32062482833862,159.32070112228394,159.3237223625183,159.33577394485474,159.4872694015503,159.4872694015503,159.4872694015503,159.4872694015503,159.4872694015503,159.4872694015503,159.4872694015503,160.036066532135,2,0.6825923919677734,None,,,,,,,,,,,,,,,,,,26,6,2025-02-18_16h06.10.707,comp,2024.2.4,57.79634671987478,2025-02-18 16h06.19.920494 -0500,
112,112,0,filler_square,None,None,None,None,None,None,None,None,None,None,3,0.7398889064788818,None,,,,,0,0,0,0,0,112,112,207,160.05626320838928,,,,,,,,,,,,,,,,,,,,,,,,,,,,,,,,,,,,,,,,,,,,,,,,,,,,,,,,,,,,,,,,,,,,,,,,,,,,,,,,,83.07207001483837,152.2387456238154,64.49163417857775,147.28256255665224,185.65176251505073,185.65176251505073,3.0,3.2,-246,-253,0,18,262,258,160.03800296783447,160.03809332847595,160.04129695892334,160.05626320838928,160.20322608947754,160.20322608947754,160.20322608947754,160.20322608947754,160.20322608947754,160.20322608947754,160.20322608947754,160.8046944141388,3,0.7398889064788818,None,,,,,,,,,,,,,,,,,,26,6,2025-02-18_16h06.10.707,comp,2024.2.4,57.79634671987478,2025-02-18 16h06.19.920494 -0500,
113,113,0,filler_random,None,None,None,None,None,None,None,None,None,None,3,0.5287497043609619,None,,,,,0,0,0,0,0,113,113,158,160.8257293701172,,,,,,,,,,,,,,,,,,,,,,,,,,,,,,,,,,,,,,,,,,,,,,,,,,,,,,,,,,,,,,,,,,,,,,,,,,,,,,,,,116.49516940943425,132.7936203754848,111.49691925890522,132.55861951700095,196.5731682512752,190.29400004053,3.0,3.2,-229,-268,0,-8,257,273,160.8065185546875,160.80664944648743,160.8099296092987,160.8257293701172,160.96343207359314,160.96343207359314,160.96343207359314,160.96343207359314,160.96343207359314,160.96343207359314,160.96343207359314,161.37143087387085,3,0.5287497043609619,None,,,,,,,,,,,,,,,,,,26,6,2025-02-18_16h06.10.707,comp,2024.2.4,57.79634671987478,2025-02-18 16h06.19.920494 -0500,
114,114,0,catch,None,None,None,None,None,None,None,None,None,None,2,0.5667097568511963,None,,,,,0,0,0,0,0,114,114,124,161.3877718448639,,,,,,,,,,,,,,,,,,,,,,,,,,,,,,,,,,,,,,,,,,,,,,,,,,,,,,,,,,,,,,,,,,,,,,,,,,,,,,,,,119,71,151,174,95,95,4.0,4.1,-218,-268,0,17,230,-272,161.37328958511353,161.37338638305664,161.37632393836975,161.3877718448639,161.54344153404236,161.54344153404236,161.54344153404236,161.54344153404236,161.54344153404236,161.54344153404236,161.54344153404236,161.96078300476074,2,0.5667097568511963,None,,,,,,,,,,,,,,,,,,26,6,2025-02-18_16h06.10.707,comp,2024.2.4,57.79634671987478,2025-02-18 16h06.19.920494 -0500,
115,115,0,catch,None,None,None,None,None,None,None,None,None,None,3,0.5499086380004883,None,,,,,0,0,0,0,0,115,115,121,161.98137068748474,,,,,,,,,,,,,,,,,,,,,,,,,,,,,,,,,,,,,,,,,,,,,,,,,,,,,,,,,,,,,,,,,,,,,,,,,,,,,,,,,97,93,108,82,146,179,3.0,3.2,-184,-286,0,-12,226,261,161.9627857208252,161.96286725997925,161.96592903137207,161.98137068748474,162.12157273292542,162.12157273292542,162.12157273292542,162.12157273292542,162.12157273292542,162.12157273292542,162.12157273292542,162.5367786884308,3,0.5499086380004883,None,,,,,,,,,,,,,,,,,,26,6,2025-02-18_16h06.10.707,comp,2024.2.4,57.79634671987478,2025-02-18 16h06.19.920494 -0500,
116,116,0,critical,hwd,20.0,2.1,lower,133.0,57.0,57.0,133.0,78.0,78.0,3,0.9137308597564697,None,,,,,0,0,0,0,0,116,116,18,162.56069612503052,,,,,,,,,,,,,,,,,,,,,,,,,,,,,,,,,,,,,,,,,,,,,,,,,,,,,,,,,,,,,,,,,,,,,,,,,,,,,,,,,133.0,57.0,57.0,133.0,78.0,78.0,2.1,2.11,-191,272,0,259,202,-258,162.53838872909546,162.53846526145935,162.54184770584106,162.56069612503052,162.70351672172546,162.70351672172546,162.70351672172546,162.70351672172546,162.70351672172546,162.70351672172546,162.70351672172546,163.49011993408203,3,0.9137308597564697,None,,,,,,,,,,,,,,,,,,26,6,2025-02-18_16h06.10.707,comp,2024.2.4,57.79634671987478,2025-02-18 16h06.19.920494 -0500,
117,117,0,critical,dhw,35.0,1.0,upper,127.0,127.0,200.0,125.0,125.0,200.0,2,0.9029257297515869,None,,,,,0,0,0,0,0,117,117,49,163.50740504264832,,,,,,,,,,,,,,,,,,,,,,,,,,,,,,,,,,,,,,,,,,,,,,,,,,,,,,,,,,,,,,,,,,,,,,,,,,,,,,,,,127.0,127.0,200.0,125.0,125.0,200.0,1.0,1.1,-702,255,-480,258,-222,270,163.49168729782104,163.49176144599915,163.4948275089264,163.50740504264832,163.65306973457336,163.65306973457336,163.65306973457336,163.65306973457336,163.65306973457336,163.65306973457336,163.65306973457336,164.42435359954834,2,0.9029257297515869,None,,,,,,,,,,,,,,,,,,26,6,2025-02-18_16h06.10.707,comp,2024.2.4,57.79634671987478,2025-02-18 16h06.19.920494 -0500,
118,118,0,critical,dhw,20.0,3.0,lower,78.0,78.0,133.0,57.0,57.0,133.0,3,0.8955299854278564,None,,,,,0,0,0,0,0,118,118,56,164.44290566444397,,,,,,,,,,,,,,,,,,,,,,,,,,,,,,,,,,,,,,,,,,,,,,,,,,,,,,,,,,,,,,,,,,,,,,,,,,,,,,,,,78.0,78.0,133.0,57.0,57.0,133.0,3.0,3.1,-164,287,0,-4,191,-264,164.42596459388733,164.4260392189026,164.42935705184937,164.44290566444397,164.5876293182373,164.5876293182373,164.5876293182373,164.5876293182373,164.5876293182373,164.5876293182373,164.5876293182373,165.35489630699158,3,0.8955299854278564,None,,,,,,,,,,,,,,,,,,26,6,2025-02-18_16h06.10.707,comp,2024.2.4,57.79634671987478,2025-02-18 16h06.19.920494 -0500,
119,119,0,critical,whd,20.0,4.0,lower,57.0,133.0,133.0,57.0,78.0,78.0,2,0.8158204555511475,None,,,,,0,0,0,0,0,119,119,94,165.3706078529358,,,,,,,,,,,,,,,,,,,,,,,,,,,,,,,,,,,,,,,,,,,,,,,,,,,,,,,,,,,,,,,,,,,,,,,,,,,,,,,,,57.0,133.0,133.0,57.0,78.0,78.0,4.0,4.2,-191,1,0,-267,164,-18,165.35655879974365,165.3566722869873,165.36020278930664,165.3706078529358,165.52148413658142,165.52148413658142,165.52148413658142,165.52148413658142,165.52148413658142,165.52148413658142,165.52148413658142,166.1915943622589,2,0.8158204555511475,None,,,,,,,,,,,,,,,,,,26,6,2025-02-18_16h06.10.707,comp,2024.2.4,57.79634671987478,2025-02-18 16h06.19.920494 -0500,
120,120,0,filler_square,None,None,None,None,None,None,None,None,None,None,2,0.7050068378448486,None,,,,,0,0,0,0,0,120,120,209,166.21098399162292,,,,,,,,,,,,,,,,,,,,,,,,,,,,,,,,,,,,,,,,,,,,,,,,,,,,,,,,,,,,,,,,,,,,,,,,,,,,,,,,,103.4299286233124,100.26208485741094,110.41391974146086,110.41391974146086,79.66686966695377,84.24553976455627,2.2,2.21,-201,-269,0,282,193,273,166.1936914920807,166.19377422332764,166.19718885421753,166.21098399162292,166.35728907585144,166.35728907585144,166.35728907585144,166.35728907585144,166.35728907585144,166.35728907585144,166.35728907585144,166.92285990715027,2,0.7050068378448486,None,,,,,,,,,,,,,,,,,,26,6,2025-02-18_16h06.10.707,comp,2024.2.4,57.79634671987478,2025-02-18 16h06.19.920494 -0500,
121,121,0,filler_square,None,None,None,None,None,None,None,None,None,None,2,0.6864612102508545,None,,,,,0,0,0,0,0,121,121,176,166.940771818161,,,,,,,,,,,,,,,,,,,,,,,,,,,,,,,,,,,,,,,,,,,,,,,,,,,,,,,,,,,,,,,,,,,,,,,,,,,,,,,,,115.4380651896761,115.4380651896761,99.9410846793646,75.69122473749046,95.3733458166862,71.74250286369454,4.0,4.1,-192,-261,0,-7,170,-268,166.92469549179077,166.92477703094482,166.92785120010376,166.940771818161,167.08797073364258,167.08797073364258,167.08797073364258,167.08797073364258,167.08797073364258,167.08797073364258,167.08797073364258,167.63379883766174,2,0.6864612102508545,None,,,,,,,,,,,,,,,,,,26,6,2025-02-18_16h06.10.707,comp,2024.2.4,57.79634671987478,2025-02-18 16h06.19.920494 -0500,
122,122,0,critical,hdw,35.0,2.1,lower,133.0,57.0,70.0,70.0,57.0,133.0,3,1.3293099403381348,None,,,,,0,0,0,0,0,122,122,20,167.64934492111206,,,,,,,,,,,,,,,,,,,,,,,,,,,,,,,,,,,,,,,,,,,,,,,,,,,,,,,,,,,,,,,,,,,,,,,,,,,,,,,,,133.0,57.0,70.0,70.0,57.0,133.0,2.1,2.12,-160,-274,0,-252,198,252,167.6353771686554,167.63545608520508,167.63833355903625,167.64934492111206,167.78673648834229,167.78673648834229,167.78673648834229,167.78673648834229,167.78673648834229,167.78673648834229,167.78673648834229,168.9885127544403,3,1.3293099403381348,None,,,,,,,,,,,,,,,,,,26,6,2025-02-18_16h06.10.707,comp,2024.2.4,57.79634671987478,2025-02-18 16h06.19.920494 -0500,
123,123,0,filler_square,None,None,None,None,None,None,None,None,None,None,1,0.9738514423370361,None,,,,,0,0,0,0,0,123,123,175,169.00452542304993,,,,,,,,,,,,,,,,,,,,,,,,,,,,,,,,,,,,,,,,,,,,,,,,,,,,,,,,,,,,,,,,,,,,,,,,,,,,,,,,,153.18279783385856,153.18279783385856,117.32745143900303,96.60507700626638,99.93223999720055,106.39483502618256,4.0,4.1,-221,-288,0,3,197,-277,168.99028182029724,168.99035668373108,168.99346804618835,169.00452542304993,169.15921115875244,169.15921115875244,169.15921115875244,169.15921115875244,169.15921115875244,169.15921115875244,169.15921115875244,169.99106431007385,1,0.9738514423370361,None,,,,,,,,,,,,,,,,,,26,6,2025-02-18_16h06.10.707,comp,2024.2.4,57.79634671987478,2025-02-18 16h06.19.920494 -0500,
124,124,0,filler_random,None,None,None,None,None,None,None,None,None,None,3,0.9307100772857666,None,,,,,0,0,0,0,0,124,124,152,170.0079951286316,,,,,,,,,,,,,,,,,,,,,,,,,,,,,,,,,,,,,,,,,,,,,,,,,,,,,,,,,,,,,,,,,,,,,,,,,,,,,,,,,195.79817426699955,110.47097011559967,67.02973238710494,145.58717501197395,166.88420264440379,81.92488318503891,2.2,2.22,-224,264,0,-284,210,-277,169.99285531044006,169.992990732193,169.99629020690918,170.0079951286316,170.15630722045898,170.15630722045898,170.15630722045898,170.15630722045898,170.15630722045898,170.15630722045898,170.15630722045898,170.9406578540802,3,0.9307100772857666,None,,,,,,,,,,,,,,,,,,26,6,2025-02-18_16h06.10.707,comp,2024.2.4,57.79634671987478,2025-02-18 16h06.19.920494 -0500,
125,125,0,filler_random,None,None,None,None,None,None,None,None,None,None,2,0.8142743110656738,None,,,,,0,0,0,0,0,125,125,142,170.96408867835999,,,,,,,,,,,,,,,,,,,,,,,,,,,,,,,,,,,,,,,,,,,,,,,,,,,,,,,,,,,,,,,,,,,,,,,,,,,,,,,,,81.69651784271385,143.3670624357645,165.85051596152215,184.64931556622452,95.18922615000271,120.34813643007854,2.1,2.12,-260,-261,0,-269,248,276,170.94234466552734,170.94242405891418,170.94552993774414,170.96408867835999,171.10591626167297,171.10591626167297,171.10591626167297,171.10591626167297,171.10591626167297,171.10591626167297,171.10591626167297,171.79325675964355,2,0.8142743110656738,None,,,,,,,,,,,,,,,,,,26,6,2025-02-18_16h06.10.707,comp,2024.2.4,57.79634671987478,2025-02-18 16h06.19.920494 -0500,
126,126,0,critical,whd,20.0,2.1,lower,57.0,133.0,133.0,57.0,78.0,78.0,3,1.0585107803344727,None,,,,,0,0,0,0,0,126,126,14,171.80952143669128,,,,,,,,,,,,,,,,,,,,,,,,,,,,,,,,,,,,,,,,,,,,,,,,,,,,,,,,,,,,,,,,,,,,,,,,,,,,,,,,,57.0,133.0,133.0,57.0,78.0,78.0,2.1,2.11,-191,270,0,263,164,-272,171.7949206829071,171.79500150680542,171.79831504821777,171.80952143669128,171.95982766151428,171.95982766151428,171.95982766151428,171.95982766151428,171.95982766151428,171.95982766151428,171.95982766151428,172.8710334300995,3,1.0585107803344727,None,,,,,,,,,,,,,,,,,,26,6,2025-02-18_16h06.10.707,comp,2024.2.4,57.79634671987478,2025-02-18 16h06.19.920494 -0500,
127,127,0,filler_random,None,None,None,None,None,None,None,None,None,None,2,0.9061315059661865,None,,,,,0,0,0,0,0,127,127,151,172.88827657699585,,,,,,,,,,,,,,,,,,,,,,,,,,,,,,,,,,,,,,,,,,,,,,,,,,,,,,,,,,,,,,,,,,,,,,,,,,,,,,,,,120.7621990088268,145.2126633906914,185.0865355915861,117.5625332160139,154.40125155369384,76.5679999310542,2.2,2.22,-227,258,0,-285,193,-272,172.8726818561554,172.8727569580078,172.87564206123352,172.88827657699585,173.04289031028748,173.04289031028748,173.04289031028748,173.04289031028748,173.04289031028748,173.04289031028748,173.04289031028748,173.80742979049683,2,0.9061315059661865,None,,,,,,,,,,,,,,,,,,26,6,2025-02-18_16h06.10.707,comp,2024.2.4,57.79634671987478,2025-02-18 16h06.19.920494 -0500,
128,128,0,critical,dhw,20.0,1.0,lower,78.0,78.0,133.0,57.0,57.0,133.0,2,0.7473998069763184,None,,,,,0,0,0,0,0,128,128,54,173.82342505455017,,,,,,,,,,,,,,,,,,,,,,,,,,,,,,,,,,,,,,,,,,,,,,,,,,,,,,,,,,,,,,,,,,,,,,,,,,,,,,,,,78.0,78.0,133.0,57.0,57.0,133.0,1.0,1.2,-164,-1,0,-13,191,11,173.80893182754517,173.8090043067932,173.81246423721313,173.82342505455017,173.97727513313293,173.97727513313293,173.97727513313293,173.97727513313293,173.97727513313293,173.97727513313293,173.97727513313293,174.57784700393677,2,0.7473998069763184,None,,,,,,,,,,,,,,,,,,26,6,2025-02-18_16h06.10.707,comp,2024.2.4,57.79634671987478,2025-02-18 16h06.19.920494 -0500,
129,129,0,filler_square,None,None,None,None,None,None,None,None,None,None,3,0.04489493370056152,None,,,,,0,0,0,0,0,129,129,201,174.59757733345032,,,,,,,,,,,,,,,,,,,,,,,,,,,,,,,,,,,,,,,,,,,,,,,,,,,,,,,,,,,,,,,,,,,,,,,,,,,,,,,,,81.95525446282451,67.22517323909412,67.91361887724078,73.59467034196118,96.47173478869948,96.47173478869948,3.0,3.2,-166,-289,0,8,181,252,174.57994437217712,174.58007955551147,174.58326768875122,174.59757733345032,,,,,,,,174.65800595283508,3,0.04489493370056152,None,,,,,,,,,,,,,,,,,,26,6,2025-02-18_16h06.10.707,comp,2024.2.4,57.79634671987478,2025-02-18 16h06.19.920494 -0500,
130,130,0,filler_square,None,None,None,None,None,None,None,None,None,None,2,0.5851624011993408,None,,,,,0,0,0,0,0,130,130,208,174.6737720966339,,,,,,,,,,,,,,,,,,,,,,,,,,,,,,,,,,,,,,,,,,,,,,,,,,,,,,,,,,,,,,,,,,,,,,,,,,,,,,,,,86.45304870764296,95.04664617570513,65.10786743665462,60.173342083264245,95.35882207496289,95.35882207496289,1.0,1.2,-174,-19,0,12,174,-17,174.6599988937378,174.66007471084595,174.66340970993042,174.6737720966339,174.82541704177856,174.82541704177856,174.82541704177856,174.82541704177856,174.82541704177856,174.82541704177856,174.82541704177856,175.28529119491577,2,0.5851624011993408,None,,,,,,,,,,,,,,,,,,26,6,2025-02-18_16h06.10.707,comp,2024.2.4,57.79634671987478,2025-02-18 16h06.19.920494 -0500,
131,131,0,critical,hwd,20.0,2.1,upper,200.0,125.0,125.0,200.0,141.0,141.0,1,0.33194661140441895,None,,,,,0,0,0,0,0,131,131,19,175.3039355278015,,,,,,,,,,,,,,,,,,,,,,,,,,,,,,,,,,,,,,,,,,,,,,,,,,,,,,,,,,,,,,,,,,,,,,,,,,,,,,,,,200.0,125.0,125.0,200.0,141.0,141.0,2.1,2.11,-258,260,0,259,266,-279,175.2869040966034,175.28702569007874,175.29033184051514,175.3039355278015,175.4414417743683,175.4414417743683,175.4414417743683,175.4414417743683,175.4414417743683,175.4414417743683,175.4414417743683,175.64244151115417,1,0.33194661140441895,None,,,,,,,,,,,,,,,,,,26,6,2025-02-18_16h06.10.707,comp,2024.2.4,57.79634671987478,2025-02-18 16h06.19.920494 -0500,
132,132,0,critical,whd,35.0,2.1,upper,125.0,200.0,200.0,125.0,127.0,127.0,2,0.8796875476837158,None,,,,,0,0,0,0,0,132,132,13,175.65934324264526,,,,,,,,,,,,,,,,,,,,,,,,,,,,,,,,,,,,,,,,,,,,,,,,,,,,,,,,,,,,,,,,,,,,,,,,,,,,,,,,,125.0,200.0,200.0,125.0,127.0,127.0,2.1,2.12,-258,-273,0,-284,222,262,175.64409923553467,175.64420652389526,175.6477963924408,175.65934324264526,175.80431199073792,175.80431199073792,175.80431199073792,175.80431199073792,175.80431199073792,175.80431199073792,175.80431199073792,176.54239869117737,2,0.8796875476837158,None,,,,,,,,,,,,,,,,,,26,6,2025-02-18_16h06.10.707,comp,2024.2.4,57.79634671987478,2025-02-18 16h06.19.920494 -0500,
133,133,0,filler_square,None,None,None,None,None,None,None,None,None,None,2,0.7485995292663574,None,,,,,0,0,0,0,0,133,133,177,176.55811738967896,,,,,,,,,,,,,,,,,,,,,,,,,,,,,,,,,,,,,,,,,,,,,,,,,,,,,,,,,,,,,,,,,,,,,,,,,,,,,,,,,108.9379874155462,128.36173742227356,148.85238930859506,148.85238930859506,63.73713986967422,108.37767410314521,2.1,2.11,-235,287,0,283,225,-262,176.54447269439697,176.54454851150513,176.54804801940918,176.55811738967896,176.70775842666626,176.70775842666626,176.70775842666626,176.70775842666626,176.70775842666626,176.70775842666626,176.70775842666626,177.3126072883606,2,0.7485995292663574,None,,,,,,,,,,,,,,,,,,26,6,2025-02-18_16h06.10.707,comp,2024.2.4,57.79634671987478,2025-02-18 16h06.19.920494 -0500,
134,134,0,critical,dwh,20.0,1.0,lower,78.0,78.0,57.0,133.0,133.0,57.0,2,1.0067017078399658,None,,,,,0,0,0,0,0,134,134,66,177.33210062980652,,,,,,,,,,,,,,,,,,,,,,,,,,,,,,,,,,,,,,,,,,,,,,,,,,,,,,,,,,,,,,,,,,,,,,,,,,,,,,,,,78.0,78.0,57.0,133.0,133.0,57.0,1.0,1.3,278,-278,480,-261,671,-253,177.31411838531494,177.31423807144165,177.3173701763153,177.33210062980652,177.47613286972046,177.47613286972046,177.47613286972046,177.47613286972046,177.47613286972046,177.47613286972046,177.47613286972046,178.34177994728088,2,1.0067017078399658,None,,,,,,,,,,,,,,,,,,26,6,2025-02-18_16h06.10.707,comp,2024.2.4,57.79634671987478,2025-02-18 16h06.19.920494 -0500,
135,135,0,critical,dhw,35.0,2.1,lower,70.0,70.0,133.0,57.0,57.0,133.0,3,0.8770670890808105,None,,,,,0,0,0,0,0,135,135,0,178.3579933643341,,,,,,,,,,,,,,,,,,,,,,,,,,,,,,,,,,,,,,,,,,,,,,,,,,,,,,,,,,,,,,,,,,,,,,,,,,,,,,,,,70.0,70.0,133.0,57.0,57.0,133.0,2.1,2.11,-160,271,0,277,191,-252,178.34336376190186,178.34344005584717,178.34630155563354,178.3579933643341,178.5082516670227,178.5082516670227,178.5082516670227,178.5082516670227,178.5082516670227,178.5082516670227,178.5082516670227,179.24337077140808,3,0.8770670890808105,None,,,,,,,,,,,,,,,,,,26,6,2025-02-18_16h06.10.707,comp,2024.2.4,57.79634671987478,2025-02-18 16h06.19.920494 -0500,
136,136,0,critical,hwd,35.0,3.0,upper,200.0,125.0,125.0,200.0,127.0,127.0,2,0.6940822601318359,None,,,,,0,0,0,0,0,136,136,99,179.26055192947388,,,,,,,,,,,,,,,,,,,,,,,,,,,,,,,,,,,,,,,,,,,,,,,,,,,,,,,,,,,,,,,,,,,,,,,,,,,,,,,,,200.0,125.0,125.0,200.0,127.0,127.0,3.0,3.1,-258,262,0,5,260,-269,179.2448422908783,179.24491810798645,179.24874758720398,179.26055192947388,179.40979528427124,179.40979528427124,179.40979528427124,179.40979528427124,179.40979528427124,179.40979528427124,179.40979528427124,179.95975828170776,2,0.6940822601318359,None,,,,,,,,,,,,,,,,,,26,6,2025-02-18_16h06.10.707,comp,2024.2.4,57.79634671987478,2025-02-18 16h06.19.920494 -0500,
137,137,0,filler_random,None,None,None,None,None,None,None,None,None,None,2,0.824765682220459,None,,,,,0,0,0,0,0,137,137,164,179.97828149795532,,,,,,,,,,,,,,,,,,,,,,,,,,,,,,,,,,,,,,,,,,,,,,,,,,,,,,,,,,,,,,,,,,,,,,,,,,,,,,,,,187.96262576475462,153.72029499232193,151.52404024045262,176.2885948184268,166.4625312534494,178.41646808441737,2.2,2.22,-261,271,0,-286,273,-256,179.96145820617676,179.96153783798218,179.96476197242737,179.97828149795532,180.12778735160828,180.12778735160828,180.12778735160828,180.12778735160828,180.12778735160828,180.12778735160828,180.12778735160828,180.81209635734558,2,0.824765682220459,None,,,,,,,,,,,,,,,,,,26,6,2025-02-18_16h06.10.707,comp,2024.2.4,57.79634671987478,2025-02-18 16h06.19.920494 -0500,
138,138,0,filler_random,None,None,None,None,None,None,None,None,None,None,3,0.8700985908508301,None,,,,,0,0,0,0,0,138,138,145,180.8283622264862,,,,,,,,,,,,,,,,,,,,,,,,,,,,,,,,,,,,,,,,,,,,,,,,,,,,,,,,,,,,,,,,,,,,,,,,,,,,,,,,,103.08107182082179,110.18535760343019,94.36846972896684,141.09557477255362,71.32240566933704,173.42571159189464,3.0,3.1,-222,258,0,-17,253,-255,180.81395721435547,180.81404209136963,180.81700134277344,180.8283622264862,180.97530913352966,180.97530913352966,180.97530913352966,180.97530913352966,180.97530913352966,180.97530913352966,180.97530913352966,181.7146577835083,3,0.8700985908508301,None,,,,,,,,,,,,,,,,,,26,6,2025-02-18_16h06.10.707,comp,2024.2.4,57.79634671987478,2025-02-18 16h06.19.920494 -0500,
139,139,0,critical,hdw,20.0,1.0,upper,200.0,125.0,141.0,141.0,125.0,200.0,2,0.7731564044952393,None,,,,,0,0,0,0,0,139,139,115,181.73414516448975,,,,,,,,,,,,,,,,,,,,,,,,,,,,,,,,,,,,,,,,,,,,,,,,,,,,,,,,,,,,,,,,,,,,,,,,,,,,,,,,,200.0,125.0,141.0,141.0,125.0,200.0,1.0,1.2,-229,11,0,16,266,-13,181.7160828113556,181.71616458892822,181.71906185150146,181.73414516448975,181.87595343589783,181.87595343589783,181.87595343589783,181.87595343589783,181.87595343589783,181.87595343589783,181.87595343589783,182.51209616661072,2,0.7731564044952393,None,,,,,,,,,,,,,,,,,,26,6,2025-02-18_16h06.10.707,comp,2024.2.4,57.79634671987478,2025-02-18 16h06.19.920494 -0500,
