thisN,thisTrialN,thisRepN,effect,order,distance,config,diag,h_1,w_1,h_2,w_2,h_3,w_3,rect_choice.keys,rect_choice.rt,rect_choice.duration,instructions_loop.thisRepN,instructions_loop.thisTrialN,instructions_loop.thisN,instructions_loop.thisIndex,blocks.thisRepN,blocks.thisTrialN,blocks.thisN,blocks.thisIndex,trials.thisRepN,trials.thisTrialN,trials.thisN,trials.thisIndex,thisRow.t,notes,consent.started,agree_button.started,decline_button.started,consent_img.started,mouse.started,consent.stopped,agree_button.numClicks,agree_button.timesOn,agree_button.timesOff,decline_button.numClicks,decline_button.timesOn,decline_button.timesOff,mouse.x,mouse.y,mouse.leftButton,mouse.midButton,mouse.rightButton,mouse.time,mouse.clicked_name,exp_params.started,exp_params.stopped,welcome.started,welcome_text.started,welcome_text.stopped,welcome.stopped,instructions_1.started,instructions_1_text_1.started,instructions_1_text_2.started,key_resp.started,instructions_1.stopped,instructions_loop.key_resp.keys,instructions_loop.key_resp.rt,instructions_loop.key_resp.duration,instructions_2.started,instructions_2_text_1.started,instructions_2_text_2.started,key_resp_2.started,instructions_2.stopped,instructions_loop.key_resp_2.keys,instructions_loop.key_resp_2.rt,instructions_loop.key_resp_2.duration,instructions_3.started,instructions_3_text_1.started,r1_instr3.started,r2_instr3.started,r3_instr3.started,r1_instr3_label.started,r2_instr3_label.started,r3_instr3_label.started,instructions_3_text_3.started,instructions_3_text_4.started,key_resp_3.started,instructions_3.stopped,instructions_loop.key_resp_3.keys,instructions_loop.key_resp_3.rt,instructions_loop.key_resp_3.duration,instructions_4.started,instructions_4_text_1.started,instructions_4_text_3.started,instructions_4_text_2.started,key_resp_4.started,instructions_4.stopped,instructions_loop.key_resp_4.keys,instructions_loop.key_resp_4.rt,instructions_loop.key_resp_4.duration,instructions_5.started,instructions_5_text_1.started,instructions_5_text_2.started,key_resp_5.started,instructions_5.stopped,instructions_loop.key_resp_5.keys,instructions_loop.key_resp_5.rt,instructions_loop.key_resp_5.duration,start_exp.started,start_exp_text.started,key_resp_6.started,start_exp.stopped,key_resp_6.keys,key_resp_6.rt,key_resp_6.duration,h_1_tmp,w_1_tmp,h_2_tmp,w_2_tmp,h_3_tmp,w_3_tmp,config_tmp,config_tmp_1,r_1_x,r_1_y,r_2_x,r_2_y,r_3_x,r_3_y,pre_trial.started,pre_trial.stopped,choice_trial.started,rect_choice.started,r_1.started,r_2.started,r_3.started,r_1_label.started,r_2_label.started,r_3_label.started,prompt.started,choice_trial.stopped,trials.rect_choice.keys,trials.rect_choice.rt,trials.rect_choice.duration,end_block.started,end_block_text.started,end_block.stopped,end.started,end_text.started,key_resp_7.started,end.stopped,key_resp_7.keys,key_resp_7.rt,key_resp_7.duration,debriefing.started,debrief_form.started,end_debrief.started,debriefing.stopped,end_debrief.keys,end_debrief.rt,end_debrief.duration,participant,computer,date,expName,psychopyVersion,frameRate,expStart,
,,,,,,,,,,,,,,,,,,,,,,,,,,,,,,,0.015066146850585938,0.03548884391784668,0.03548884391784668,0.03548884391784668,0.014804840087890625,89.59675335884094,1,[89.55894565582275],[89.55896878242493],0,,,[-60.0],[-523.0],[1],[0],[0],[89.58110237121582],['agree_button'],,,,,,,,,,,,,,,,,,,,,,,,,,,,,,,,,,,,,,,,,,,,,,,,,,,,,,,,,,,,,,,,,,,,,,,,,,,,,,,,,,,,,,,,,,,,,,,,,,,,,,,,,,,,27,1,2025-02-18_17h01.33.144,comp,2024.2.4,57.36223939955907,2025-02-18 17h01.42.822444 -0500,
,,,,,,,,,,,,,,,,,,,,,,,,,,,,,,,,,,,,,,,,,,,,,,,,,,89.59727358818054,89.59734082221985,,,,,,,,,,,,,,,,,,,,,,,,,,,,,,,,,,,,,,,,,,,,,,,,,,,,,,,,,,,,,,,,,,,,,,,,,,,,,,,,,,,,,,,,,,,,,,,,,,,,,,,,,,27,1,2025-02-18_17h01.33.144,comp,2024.2.4,57.36223939955907,2025-02-18 17h01.42.822444 -0500,
,,,,,,,,,,,,,,,,,,,,,,,,,,,,,,,,,,,,,,,,,,,,,,,,,,,,89.59738373756409,89.61117601394653,91.61351108551025,91.59718751907349,,,,,,,,,,,,,,,,,,,,,,,,,,,,,,,,,,,,,,,,,,,,,,,,,,,,,,,,,,,,,,,,,,,,,,,,,,,,,,,,,,,,,,,,,,,,,,,,,,,,,,27,1,2025-02-18_17h01.33.144,comp,2024.2.4,57.36223939955907,2025-02-18 17h01.42.822444 -0500,
0,0,0,,,,,,,,,,,,,,,0,0,0,0,,,,,,,,,91.61351108551025,,,,,,,,,,,,,,,,,,,,,,,,,,,91.59808874130249,91.61351108551025,91.61351108551025,93.09762620925903,93.96960711479187,space,0.8602747917175293,None,93.96976828575134,93.98964166641235,93.98964166641235,95.4826250076294,101.8554208278656,space,6.370391607284546,None,101.85548877716064,101.87524795532227,101.87524795532227,101.87524795532227,101.87524795532227,101.87524795532227,101.87524795532227,101.87524795532227,101.87524795532227,101.87524795532227,103.35645914077759,109.17574405670166,space,5.808380842208862,None,109.17591190338135,109.1933901309967,109.1933901309967,109.1933901309967,110.68794417381287,114.27364206314087,space,3.5751307010650635,None,114.27379727363586,114.28900623321533,114.28900623321533,115.77065467834473,116.32310891151428,space,0.5382595062255859,None,116.32330894470215,116.33831024169922,116.33831024169922,117.30879521369934,space,0.963266134262085,None,,,,,,,,,,,,,,,,,,,,,,,,,,,,,,,,,,,,,,,,,,,,,,,27,1,2025-02-18_17h01.33.144,comp,2024.2.4,57.36223939955907,2025-02-18 17h01.42.822444 -0500,
0,0,0,critical,hdw,35.0,1.0,lower,133.0,57.0,70.0,70.0,57.0,133.0,1,10.283861637115479,None,,,,,0,0,0,0,0,0,0,108,117.38515019416809,,,,,,,,,,,,,,,,,,,,,,,,,,,,,,,,,,,,,,,,,,,,,,,,,,,,,,,,,,,,,,,,,,,,,,,,,,,,,,,,,,133.0,57.0,70.0,70.0,57.0,133.0,1.0,1.3,320,-266,480,-269,678,-276,117.36817193031311,117.3682267665863,117.37016701698303,117.38515019416809,117.54062414169312,117.54062414169312,117.54062414169312,117.54062414169312,117.54062414169312,117.54062414169312,117.54062414169312,127.6789038181305,1,10.283861637115479,None,,,,,,,,,,,,,,,,,,27,1,2025-02-18_17h01.33.144,comp,2024.2.4,57.36223939955907,2025-02-18 17h01.42.822444 -0500,
1,1,0,critical,dwh,35.0,3.0,lower,70.0,70.0,57.0,133.0,133.0,57.0,2,11.206530809402466,None,,,,,0,0,0,0,0,1,1,62,127.6946804523468,,,,,,,,,,,,,,,,,,,,,,,,,,,,,,,,,,,,,,,,,,,,,,,,,,,,,,,,,,,,,,,,,,,,,,,,,,,,,,,,,,70.0,70.0,57.0,133.0,133.0,57.0,3.0,3.2,-198,-254,0,0,191,282,127.68049025535583,127.68062448501587,127.68391633033752,127.6946804523468,127.84765863418579,127.84765863418579,127.84765863418579,127.84765863418579,127.84765863418579,127.84765863418579,127.84765863418579,138.91424870491028,2,11.206530809402466,None,,,,,,,,,,,,,,,,,,27,1,2025-02-18_17h01.33.144,comp,2024.2.4,57.36223939955907,2025-02-18 17h01.42.822444 -0500,
2,2,0,critical,dhw,20.0,2.1,upper,141.0,141.0,200.0,125.0,125.0,200.0,3,10.387902021408081,None,,,,,0,0,0,0,0,2,2,27,138.9298870563507,,,,,,,,,,,,,,,,,,,,,,,,,,,,,,,,,,,,,,,,,,,,,,,,,,,,,,,,,,,,,,,,,,,,,,,,,,,,,,,,,,141.0,141.0,200.0,125.0,125.0,200.0,2.1,2.12,-229,-280,0,-256,258,270,138.91590404510498,138.9159801006317,138.91941809654236,138.9298870563507,139.0823130607605,139.0823130607605,139.0823130607605,139.0823130607605,139.0823130607605,139.0823130607605,139.0823130607605,149.3204002380371,3,10.387902021408081,None,,,,,,,,,,,,,,,,,,27,1,2025-02-18_17h01.33.144,comp,2024.2.4,57.36223939955907,2025-02-18 17h01.42.822444 -0500,
3,3,0,filler_square,None,None,None,None,None,None,None,None,None,None,1,1.7897834777832031,None,,,,,0,0,0,0,0,3,3,205,149.33623385429382,,,,,,,,,,,,,,,,,,,,,,,,,,,,,,,,,,,,,,,,,,,,,,,,,,,,,,,,,,,,,,,,,,,,,,,,,,,,,,,,,,108.56219561834018,108.56219561834018,99.77330685403949,102.65010105597858,75.92688234095378,83.76025508181097,1.0,1.2,-202,12,0,14,189,-15,149.3222119808197,149.32228779792786,149.3253002166748,149.33623385429382,149.48609924316406,149.48609924316406,149.48609924316406,149.48609924316406,149.48609924316406,149.48609924316406,149.48609924316406,151.13451027870178,1,1.7897834777832031,None,,,,,,,,,,,,,,,,,,27,1,2025-02-18_17h01.33.144,comp,2024.2.4,57.36223939955907,2025-02-18 17h01.42.822444 -0500,
4,4,0,critical,hdw,20.0,4.0,upper,200.0,125.0,141.0,141.0,125.0,200.0,3,5.3343346118927,None,,,,,0,0,0,0,0,4,4,119,151.15091466903687,,,,,,,,,,,,,,,,,,,,,,,,,,,,,,,,,,,,,,,,,,,,,,,,,,,,,,,,,,,,,,,,,,,,,,,,,,,,,,,,,,200.0,125.0,141.0,141.0,125.0,200.0,4.0,4.2,-229,-6,0,-284,266,-10,151.13596630096436,151.13604187965393,151.13922262191772,151.15091466903687,151.30265402793884,151.30265402793884,151.30265402793884,151.30265402793884,151.30265402793884,151.30265402793884,151.30265402793884,156.5056869983673,3,5.3343346118927,None,,,,,,,,,,,,,,,,,,27,1,2025-02-18_17h01.33.144,comp,2024.2.4,57.36223939955907,2025-02-18 17h01.42.822444 -0500,
5,5,0,filler_random,None,None,None,None,None,None,None,None,None,None,2,1.7082099914550781,None,,,,,0,0,0,0,0,5,5,145,156.5217273235321,,,,,,,,,,,,,,,,,,,,,,,,,,,,,,,,,,,,,,,,,,,,,,,,,,,,,,,,,,,,,,,,,,,,,,,,,,,,,,,,,,63.63570848387826,171.8274476305865,190.8378297242412,119.34019837039617,148.67846471126217,87.35707688958786,2.2,2.21,-242,-251,0,271,199,266,156.5074303150177,156.50761318206787,156.51100635528564,156.5217273235321,156.67158436775208,156.67158436775208,156.67158436775208,156.67158436775208,156.67158436775208,156.67158436775208,156.67158436775208,158.2377531528473,2,1.7082099914550781,None,,,,,,,,,,,,,,,,,,27,1,2025-02-18_17h01.33.144,comp,2024.2.4,57.36223939955907,2025-02-18 17h01.42.822444 -0500,
6,6,0,critical,wdh,35.0,1.0,upper,125.0,200.0,127.0,127.0,200.0,125.0,3,21.64092445373535,None,,,,,0,0,0,0,0,6,6,73,158.25361514091492,,,,,,,,,,,,,,,,,,,,,,,,,,,,,,,,,,,,,,,,,,,,,,,,,,,,,,,,,,,,,,,,,,,,,,,,,,,,,,,,,,125.0,200.0,127.0,127.0,200.0,125.0,1.0,1.3,220,-276,480,-275,702,-282,158.23929286003113,158.2393684387207,158.2426564693451,158.25361514091492,158.41062784194946,158.41062784194946,158.41062784194946,158.41062784194946,158.41062784194946,158.41062784194946,158.41062784194946,179.90215706825256,3,21.64092445373535,None,,,,,,,,,,,,,,,,,,27,1,2025-02-18_17h01.33.144,comp,2024.2.4,57.36223939955907,2025-02-18 17h01.42.822444 -0500,
7,7,0,critical,dwh,35.0,3.0,upper,127.0,127.0,125.0,200.0,200.0,125.0,2,15.442973613739014,None,,,,,0,0,0,0,0,7,7,63,179.92268204689026,,,,,,,,,,,,,,,,,,,,,,,,,,,,,,,,,,,,,,,,,,,,,,,,,,,,,,,,,,,,,,,,,,,,,,,,,,,,,,,,,,127.0,127.0,125.0,200.0,200.0,125.0,3.0,3.1,-260,253,0,5,258,-288,179.9038815498352,179.90396451950073,179.90695071220398,179.92268204689026,180.06205463409424,180.06205463409424,180.06205463409424,180.06205463409424,180.06205463409424,180.06205463409424,180.06205463409424,195.3816282749176,2,15.442973613739014,None,,,,,,,,,,,,,,,,,,27,1,2025-02-18_17h01.33.144,comp,2024.2.4,57.36223939955907,2025-02-18 17h01.42.822444 -0500,
8,8,0,filler_square,None,None,None,None,None,None,None,None,None,None,1,0.9995007514953613,None,,,,,0,0,0,0,0,8,8,180,195.3982801437378,,,,,,,,,,,,,,,,,,,,,,,,,,,,,,,,,,,,,,,,,,,,,,,,,,,,,,,,,,,,,,,,,,,,,,,,,,,,,,,,,,172.46234115264411,172.46234115264411,112.99378824782724,96.27457561234577,75.42052029883298,80.0943418265865,3.0,3.1,-230,284,0,16,184,-275,195.3835780620575,195.38365507125854,195.38684964179993,195.3982801437378,195.54972958564758,195.54972958564758,195.54972958564758,195.54972958564758,195.54972958564758,195.54972958564758,195.54972958564758,196.41548013687134,1,0.9995007514953613,None,,,,,,,,,,,,,,,,,,27,1,2025-02-18_17h01.33.144,comp,2024.2.4,57.36223939955907,2025-02-18 17h01.42.822444 -0500,
9,9,0,filler_square,None,None,None,None,None,None,None,None,None,None,2,1.7424602508544922,None,,,,,0,0,0,0,0,9,9,200,196.43198466300964,,,,,,,,,,,,,,,,,,,,,,,,,,,,,,,,,,,,,,,,,,,,,,,,,,,,,,,,,,,,,,,,,,,,,,,,,,,,,,,,,,104.60817182561514,174.9414602086979,185.21118404242387,185.21118404242387,152.86776898305806,106.93332643243792,2.2,2.22,-276,262,0,-262,242,-257,196.4173982143402,196.41747784614563,196.42073822021484,196.43198466300964,196.5858895778656,196.5858895778656,196.5858895778656,196.5858895778656,196.5858895778656,196.5858895778656,196.5858895778656,198.1826183795929,2,1.7424602508544922,None,,,,,,,,,,,,,,,,,,27,1,2025-02-18_17h01.33.144,comp,2024.2.4,57.36223939955907,2025-02-18 17h01.42.822444 -0500,
10,10,0,critical,dhw,35.0,3.0,upper,127.0,127.0,200.0,125.0,125.0,200.0,3,14.142761945724487,None,,,,,0,0,0,0,0,10,10,51,198.1992301940918,,,,,,,,,,,,,,,,,,,,,,,,,,,,,,,,,,,,,,,,,,,,,,,,,,,,,,,,,,,,,,,,,,,,,,,,,,,,,,,,,,127.0,127.0,200.0,125.0,125.0,200.0,3.0,3.2,-222,-276,0,-5,258,275,198.184095621109,198.1841721534729,198.18735194206238,198.1992301940918,198.34749794006348,198.34749794006348,198.34749794006348,198.34749794006348,198.34749794006348,198.34749794006348,198.34749794006348,212.3553330898285,3,14.142761945724487,None,,,,,,,,,,,,,,,,,,27,1,2025-02-18_17h01.33.144,comp,2024.2.4,57.36223939955907,2025-02-18 17h01.42.822444 -0500,
11,11,0,critical,wdh,20.0,3.0,upper,125.0,200.0,141.0,141.0,200.0,125.0,1,2.3865854740142822,None,,,,,0,0,0,0,0,11,11,81,212.3712134361267,,,,,,,,,,,,,,,,,,,,,,,,,,,,,,,,,,,,,,,,,,,,,,,,,,,,,,,,,,,,,,,,,,,,,,,,,,,,,,,,,,125.0,200.0,141.0,141.0,200.0,125.0,3.0,3.2,-266,-281,0,-12,229,281,212.35699915885925,212.35710978507996,212.36077404022217,212.3712134361267,212.52234506607056,212.52234506607056,212.52234506607056,212.52234506607056,212.52234506607056,212.52234506607056,212.52234506607056,214.77194786071777,1,2.3865854740142822,None,,,,,,,,,,,,,,,,,,27,1,2025-02-18_17h01.33.144,comp,2024.2.4,57.36223939955907,2025-02-18 17h01.42.822444 -0500,
12,12,0,critical,hdw,35.0,4.0,lower,133.0,57.0,70.0,70.0,57.0,133.0,3,15.966280937194824,None,,,,,0,0,0,0,0,12,12,112,214.79163217544556,,,,,,,,,,,,,,,,,,,,,,,,,,,,,,,,,,,,,,,,,,,,,,,,,,,,,,,,,,,,,,,,,,,,,,,,,,,,,,,,,,133.0,57.0,70.0,70.0,57.0,133.0,4.0,4.1,-160,-285,0,8,198,-253,214.7735800743103,214.7736930847168,214.77706384658813,214.79163217544556,214.9392762184143,214.9392762184143,214.9392762184143,214.9392762184143,214.9392762184143,214.9392762184143,214.9392762184143,230.7760624885559,3,15.966280937194824,None,,,,,,,,,,,,,,,,,,27,1,2025-02-18_17h01.33.144,comp,2024.2.4,57.36223939955907,2025-02-18 17h01.42.822444 -0500,
13,13,0,critical,hdw,20.0,2.1,lower,133.0,57.0,78.0,78.0,57.0,133.0,3,8.84721326828003,None,,,,,0,0,0,0,0,13,13,22,230.79172801971436,,,,,,,,,,,,,,,,,,,,,,,,,,,,,,,,,,,,,,,,,,,,,,,,,,,,,,,,,,,,,,,,,,,,,,,,,,,,,,,,,,133.0,57.0,78.0,78.0,57.0,133.0,2.1,2.12,-164,-253,0,-272,202,276,230.77767324447632,230.7777509689331,230.78101301193237,230.79172801971436,230.92819452285767,230.92819452285767,230.92819452285767,230.92819452285767,230.92819452285767,230.92819452285767,230.92819452285767,239.64575338363647,3,8.84721326828003,None,,,,,,,,,,,,,,,,,,27,1,2025-02-18_17h01.33.144,comp,2024.2.4,57.36223939955907,2025-02-18 17h01.42.822444 -0500,
14,14,0,critical,whd,35.0,1.0,lower,57.0,133.0,133.0,57.0,70.0,70.0,1,3.3677706718444824,None,,,,,0,0,0,0,0,14,14,84,239.66266083717346,,,,,,,,,,,,,,,,,,,,,,,,,,,,,,,,,,,,,,,,,,,,,,,,,,,,,,,,,,,,,,,,,,,,,,,,,,,,,,,,,,57.0,133.0,133.0,57.0,70.0,70.0,1.0,1.1,-671,270,-480,283,-320,276,239.6473469734192,239.6474244594574,239.65074920654297,239.66266083717346,239.8026418685913,239.8026418685913,239.8026418685913,239.8026418685913,239.8026418685913,239.8026418685913,239.8026418685913,243.04821634292603,1,3.3677706718444824,None,,,,,,,,,,,,,,,,,,27,1,2025-02-18_17h01.33.144,comp,2024.2.4,57.36223939955907,2025-02-18 17h01.42.822444 -0500,
15,15,0,critical,dhw,35.0,2.1,lower,70.0,70.0,133.0,57.0,57.0,133.0,3,32.89544701576233,None,,,,,0,0,0,0,0,15,15,0,243.06347179412842,,,,,,,,,,,,,,,,,,,,,,,,,,,,,,,,,,,,,,,,,,,,,,,,,,,,,,,,,,,,,,,,,,,,,,,,,,,,,,,,,,70.0,70.0,133.0,57.0,57.0,133.0,2.1,2.12,-160,-267,0,-254,191,271,243.04980421066284,243.0498824119568,243.0531668663025,243.06347179412842,243.21268129348755,243.21268129348755,243.21268129348755,243.21268129348755,243.21268129348755,243.21268129348755,243.21268129348755,275.9610393047333,3,32.89544701576233,None,,,,,,,,,,,,,,,,,,27,1,2025-02-18_17h01.33.144,comp,2024.2.4,57.36223939955907,2025-02-18 17h01.42.822444 -0500,
16,16,0,filler_random,None,None,None,None,None,None,None,None,None,None,2,1.9573631286621094,None,,,,,0,0,0,0,0,16,16,160,275.9781861305237,,,,,,,,,,,,,,,,,,,,,,,,,,,,,,,,,,,,,,,,,,,,,,,,,,,,,,,,,,,,,,,,,,,,,,,,,,,,,,,,,,58.396830849896624,81.5147776400458,134.20015002737728,162.14341855102114,152.62762060528894,90.41415565873729,2.2,2.21,-218,-260,0,288,222,268,275.96330976486206,275.963440656662,275.9665005207062,275.9781861305237,276.12942147254944,276.12942147254944,276.12942147254944,276.12942147254944,276.12942147254944,276.12942147254944,276.12942147254944,277.94178557395935,2,1.9573631286621094,None,,,,,,,,,,,,,,,,,,27,1,2025-02-18_17h01.33.144,comp,2024.2.4,57.36223939955907,2025-02-18 17h01.42.822444 -0500,
17,17,0,critical,wdh,20.0,1.0,lower,57.0,133.0,78.0,78.0,133.0,57.0,3,31.53793501853943,None,,,,,0,0,0,0,0,17,17,78,277.95770049095154,,,,,,,,,,,,,,,,,,,,,,,,,,,,,,,,,,,,,,,,,,,,,,,,,,,,,,,,,,,,,,,,,,,,,,,,,,,,,,,,,,57.0,133.0,78.0,78.0,133.0,57.0,1.0,1.1,-682,285,-480,287,-316,259,277.9432897567749,277.94336676597595,277.94649958610535,277.95770049095154,278.1103777885437,278.1103777885437,278.1103777885437,278.1103777885437,278.1103777885437,278.1103777885437,278.1103777885437,309.5000536441803,3,31.53793501853943,None,,,,,,,,,,,,,,,,,,27,1,2025-02-18_17h01.33.144,comp,2024.2.4,57.36223939955907,2025-02-18 17h01.42.822444 -0500,
18,18,0,filler_square,None,None,None,None,None,None,None,None,None,None,2,1.778212547302246,None,,,,,0,0,0,0,0,18,18,172,309.5174832344055,,,,,,,,,,,,,,,,,,,,,,,,,,,,,,,,,,,,,,,,,,,,,,,,,,,,,,,,,,,,,,,,,,,,,,,,,,,,,,,,,,107.61199432265889,107.82317393313423,130.41693527275038,130.41693527275038,92.73060369151905,77.55574556430888,2.1,2.11,-215,284,0,263,200,-268,309.50193643569946,309.50201296806335,309.5049970149994,309.5174832344055,309.6773171424866,309.6773171424866,309.6773171424866,309.6773171424866,309.6773171424866,309.6773171424866,309.6773171424866,311.30579257011414,2,1.778212547302246,None,,,,,,,,,,,,,,,,,,27,1,2025-02-18_17h01.33.144,comp,2024.2.4,57.36223939955907,2025-02-18 17h01.42.822444 -0500,
19,19,0,critical,whd,35.0,2.1,upper,125.0,200.0,200.0,125.0,127.0,127.0,1,5.893290042877197,None,,,,,0,0,0,0,0,19,19,13,311.3220512866974,,,,,,,,,,,,,,,,,,,,,,,,,,,,,,,,,,,,,,,,,,,,,,,,,,,,,,,,,,,,,,,,,,,,,,,,,,,,,,,,,,125.0,200.0,200.0,125.0,127.0,127.0,2.1,2.12,-258,-288,0,-257,222,261,311.30746150016785,311.3075840473175,311.31113266944885,311.3220512866974,311.4747540950775,311.4747540950775,311.4747540950775,311.4747540950775,311.4747540950775,311.4747540950775,311.4747540950775,317.22508001327515,1,5.893290042877197,None,,,,,,,,,,,,,,,,,,27,1,2025-02-18_17h01.33.144,comp,2024.2.4,57.36223939955907,2025-02-18 17h01.42.822444 -0500,
20,20,0,filler_random,None,None,None,None,None,None,None,None,None,None,1,11.44326400756836,None,,,,,0,0,0,0,0,20,20,132,317.24415922164917,,,,,,,,,,,,,,,,,,,,,,,,,,,,,,,,,,,,,,,,,,,,,,,,,,,,,,,,,,,,,,,,,,,,,,,,,,,,,,,,,,157.02265448757396,145.21031662199562,176.601148467518,90.29723692740365,99.74901661683012,199.79458688936685,1.0,1.3,266,-268,480,-266,721,-278,317.2269649505615,317.22704815864563,317.23001313209534,317.24415922164917,317.3862020969391,317.3862020969391,317.3862020969391,317.3862020969391,317.3862020969391,317.3862020969391,317.3862020969391,328.6913640499115,1,11.44326400756836,None,,,,,,,,,,,,,,,,,,27,1,2025-02-18_17h01.33.144,comp,2024.2.4,57.36223939955907,2025-02-18 17h01.42.822444 -0500,
21,21,0,critical,dwh,35.0,1.0,upper,127.0,127.0,125.0,200.0,200.0,125.0,2,2.8994510173797607,None,,,,,0,0,0,0,0,21,21,61,328.7073664665222,,,,,,,,,,,,,,,,,,,,,,,,,,,,,,,,,,,,,,,,,,,,,,,,,,,,,,,,,,,,,,,,,,,,,,,,,,,,,,,,,,127.0,127.0,125.0,200.0,200.0,125.0,1.0,1.2,-260,-18,0,-16,258,-18,328.6928765773773,328.69295358657837,328.6962013244629,328.7073664665222,328.8592915534973,328.8592915534973,328.8592915534973,328.8592915534973,328.8592915534973,328.8592915534973,328.8592915534973,331.60994362831116,2,2.8994510173797607,None,,,,,,,,,,,,,,,,,,27,1,2025-02-18_17h01.33.144,comp,2024.2.4,57.36223939955907,2025-02-18 17h01.42.822444 -0500,
22,22,0,critical,whd,20.0,3.0,lower,57.0,133.0,133.0,57.0,78.0,78.0,2,2.365617275238037,None,,,,,0,0,0,0,0,22,22,92,331.62595677375793,,,,,,,,,,,,,,,,,,,,,,,,,,,,,,,,,,,,,,,,,,,,,,,,,,,,,,,,,,,,,,,,,,,,,,,,,,,,,,,,,,57.0,133.0,133.0,57.0,78.0,78.0,3.0,3.2,-191,-264,0,15,164,269,331.6114327907562,331.61151027679443,331.61502957344055,331.62595677375793,331.7757432460785,331.7757432460785,331.7757432460785,331.7757432460785,331.7757432460785,331.7757432460785,331.7757432460785,333.99579906463623,2,2.365617275238037,None,,,,,,,,,,,,,,,,,,27,1,2025-02-18_17h01.33.144,comp,2024.2.4,57.36223939955907,2025-02-18 17h01.42.822444 -0500,
23,23,0,critical,hdw,35.0,4.0,upper,200.0,125.0,127.0,127.0,125.0,200.0,3,3.562487840652466,None,,,,,0,0,0,0,0,23,23,113,334.01313853263855,,,,,,,,,,,,,,,,,,,,,,,,,,,,,,,,,,,,,,,,,,,,,,,,,,,,,,,,,,,,,,,,,,,,,,,,,,,,,,,,,,200.0,125.0,127.0,127.0,125.0,200.0,4.0,4.1,-222,-256,0,13,260,-283,333.99752497673035,333.9976472854614,334.0014851093292,334.01313853263855,334.1624963283539,334.1624963283539,334.1624963283539,334.1624963283539,334.1624963283539,334.1624963283539,334.1624963283539,337.59394240379333,3,3.562487840652466,None,,,,,,,,,,,,,,,,,,27,1,2025-02-18_17h01.33.144,comp,2024.2.4,57.36223939955907,2025-02-18 17h01.42.822444 -0500,
24,24,0,filler_square,None,None,None,None,None,None,None,None,None,None,1,2.573512315750122,None,,,,,0,0,0,0,0,24,24,179,337.6094059944153,,,,,,,,,,,,,,,,,,,,,,,,,,,,,,,,,,,,,,,,,,,,,,,,,,,,,,,,,,,,,,,,,,,,,,,,,,,,,,,,,,61.684042921097344,61.684042921097344,57.943568424417805,60.79805320417088,57.75964754173187,58.24752869964649,4.0,4.2,-157,17,0,-266,156,11,337.5956974029541,337.59577226638794,337.5988450050354,337.6094059944153,337.7673017978668,337.7673017978668,337.7673017978668,337.7673017978668,337.7673017978668,337.7673017978668,337.7673017978668,340.1959459781647,1,2.573512315750122,None,,,,,,,,,,,,,,,,,,27,1,2025-02-18_17h01.33.144,comp,2024.2.4,57.36223939955907,2025-02-18 17h01.42.822444 -0500,
25,25,0,critical,wdh,35.0,2.1,lower,57.0,133.0,70.0,70.0,133.0,57.0,1,5.239518642425537,None,,,,,0,0,0,0,0,25,25,8,340.21573066711426,,,,,,,,,,,,,,,,,,,,,,,,,,,,,,,,,,,,,,,,,,,,,,,,,,,,,,,,,,,,,,,,,,,,,,,,,,,,,,,,,,57.0,133.0,70.0,70.0,133.0,57.0,2.1,2.11,-198,252,0,277,160,-267,340.19748282432556,340.197585105896,340.2007837295532,340.21573066711426,340.3636598587036,340.3636598587036,340.3636598587036,340.3636598587036,340.3636598587036,340.3636598587036,340.3636598587036,345.4609854221344,1,5.239518642425537,None,,,,,,,,,,,,,,,,,,27,1,2025-02-18_17h01.33.144,comp,2024.2.4,57.36223939955907,2025-02-18 17h01.42.822444 -0500,
26,26,0,filler_square,None,None,None,None,None,None,None,None,None,None,1,1.02974534034729,None,,,,,0,0,0,0,0,26,26,184,345.4817898273468,,,,,,,,,,,,,,,,,,,,,,,,,,,,,,,,,,,,,,,,,,,,,,,,,,,,,,,,,,,,,,,,,,,,,,,,,,,,,,,,,,116.91201851007771,116.91201851007771,57.16676471106192,70.04067541361748,64.63826095925751,68.38770647940213,1.0,1.3,291,-290,480,-277,645,-262,345.46291494369507,345.4629945755005,345.46600222587585,345.4817898273468,345.6150984764099,345.6150984764099,345.6150984764099,345.6150984764099,345.6150984764099,345.6150984764099,345.6150984764099,346.5147716999054,1,1.02974534034729,None,,,,,,,,,,,,,,,,,,27,1,2025-02-18_17h01.33.144,comp,2024.2.4,57.36223939955907,2025-02-18 17h01.42.822444 -0500,
27,27,0,filler_random,None,None,None,None,None,None,None,None,None,None,2,1.692307710647583,None,,,,,0,0,0,0,0,27,27,141,346.5313277244568,,,,,,,,,,,,,,,,,,,,,,,,,,,,,,,,,,,,,,,,,,,,,,,,,,,,,,,,,,,,,,,,,,,,,,,,,,,,,,,,,,91.9089361386171,174.5442065292084,129.42210791725364,179.53520884287053,115.77708427276637,89.28586505761047,4.0,4.1,-273,-283,0,-8,230,-284,346.51676177978516,346.5168402194977,346.5202944278717,346.5313277244568,346.68859004974365,346.68859004974365,346.68859004974365,346.68859004974365,346.68859004974365,346.68859004974365,346.68859004974365,348.2324113845825,2,1.692307710647583,None,,,,,,,,,,,,,,,,,,27,1,2025-02-18_17h01.33.144,comp,2024.2.4,57.36223939955907,2025-02-18 17h01.42.822444 -0500,
28,28,0,filler_random,None,None,None,None,None,None,None,None,None,None,1,1.4066598415374756,None,,,,,0,0,0,0,0,28,28,142,348.2482523918152,,,,,,,,,,,,,,,,,,,,,,,,,,,,,,,,,,,,,,,,,,,,,,,,,,,,,,,,,,,,,,,,,,,,,,,,,,,,,,,,,,199.95760724831968,164.88689153311208,127.58069986380792,167.40254525562455,156.4539331739893,69.11841234296375,3.0,3.2,-262,-255,0,3,214,270,348.23406744003296,348.23414635658264,348.23765659332275,348.2482523918152,348.4031751155853,348.4031751155853,348.4031751155853,348.4031751155853,348.4031751155853,348.4031751155853,348.4031751155853,349.6647617816925,1,1.4066598415374756,None,,,,,,,,,,,,,,,,,,27,1,2025-02-18_17h01.33.144,comp,2024.2.4,57.36223939955907,2025-02-18 17h01.42.822444 -0500,
29,29,0,filler_random,None,None,None,None,None,None,None,None,None,None,3,1.6270830631256104,None,,,,,0,0,0,0,0,29,29,136,349.6844449043274,,,,,,,,,,,,,,,,,,,,,,,,,,,,,,,,,,,,,,,,,,,,,,,,,,,,,,,,,,,,,,,,,,,,,,,,,,,,,,,,,,99.52841228293765,136.18218251017262,88.76972597582146,131.43147682394851,187.6357341639803,174.68180983458103,2.2,2.22,-230,287,0,-284,249,-277,349.66681385040283,349.6668918132782,349.67013692855835,349.6844449043274,349.8316535949707,349.8316535949707,349.8316535949707,349.8316535949707,349.8316535949707,349.8316535949707,349.8316535949707,351.3167748451233,3,1.6270830631256104,None,,,,,,,,,,,,,,,,,,27,1,2025-02-18_17h01.33.144,comp,2024.2.4,57.36223939955907,2025-02-18 17h01.42.822444 -0500,
30,30,0,critical,whd,35.0,1.0,upper,125.0,200.0,200.0,125.0,127.0,127.0,1,7.354124546051025,None,,,,,0,0,0,0,0,30,30,85,351.3330316543579,,,,,,,,,,,,,,,,,,,,,,,,,,,,,,,,,,,,,,,,,,,,,,,,,,,,,,,,,,,,,,,,,,,,,,,,,,,,,,,,,,125.0,200.0,200.0,125.0,127.0,127.0,1.0,1.3,222,-263,480,-262,702,-260,351.3182978630066,351.3183763027191,351.3221113681793,351.3330316543579,351.48405718803406,351.48405718803406,351.48405718803406,351.48405718803406,351.48405718803406,351.48405718803406,351.48405718803406,358.70068645477295,1,7.354124546051025,None,,,,,,,,,,,,,,,,,,27,1,2025-02-18_17h01.33.144,comp,2024.2.4,57.36223939955907,2025-02-18 17h01.42.822444 -0500,
31,31,0,filler_random,None,None,None,None,None,None,None,None,None,None,3,8.834906578063965,None,,,,,0,0,0,0,0,31,31,161,358.71690607070923,,,,,,,,,,,,,,,,,,,,,,,,,,,,,,,,,,,,,,,,,,,,,,,,,,,,,,,,,,,,,,,,,,,,,,,,,,,,,,,,,,103.27259756048451,136.57146791104495,113.45154987903855,96.19810800315838,84.21986075088314,166.2479010875489,2.2,2.21,-212,-258,0,267,227,266,358.7022924423218,358.70236682891846,358.7055525779724,358.71690607070923,358.8535008430481,358.8535008430481,358.8535008430481,358.8535008430481,358.8535008430481,358.8535008430481,358.8535008430481,367.5574336051941,3,8.834906578063965,None,,,,,,,,,,,,,,,,,,27,1,2025-02-18_17h01.33.144,comp,2024.2.4,57.36223939955907,2025-02-18 17h01.42.822444 -0500,
32,32,0,critical,hwd,35.0,3.0,upper,200.0,125.0,125.0,200.0,127.0,127.0,2,2.689267635345459,None,,,,,0,0,0,0,0,32,32,99,367.5748779773712,,,,,,,,,,,,,,,,,,,,,,,,,,,,,,,,,,,,,,,,,,,,,,,,,,,,,,,,,,,,,,,,,,,,,,,,,,,,,,,,,,200.0,125.0,125.0,200.0,127.0,127.0,3.0,3.2,-258,-262,0,3,260,258,367.55910420417786,367.5591824054718,367.56261110305786,367.5748779773712,367.7233819961548,367.7233819961548,367.7233819961548,367.7233819961548,367.7233819961548,367.7233819961548,367.7233819961548,370.2695209980011,2,2.689267635345459,None,,,,,,,,,,,,,,,,,,27,1,2025-02-18_17h01.33.144,comp,2024.2.4,57.36223939955907,2025-02-18 17h01.42.822444 -0500,
33,33,0,filler_random,None,None,None,None,None,None,None,None,None,None,1,1.2645516395568848,None,,,,,0,0,0,0,0,33,33,133,370.28695917129517,,,,,,,,,,,,,,,,,,,,,,,,,,,,,,,,,,,,,,,,,,,,,,,,,,,,,,,,,,,,,,,,,,,,,,,,,,,,,,,,,,199.1514262493909,194.97688890925016,128.79909407529482,148.4105070571002,127.76309026681717,73.4830214598451,4.0,4.2,-268,-17,0,-288,207,-13,370.27143359184265,370.27157497406006,370.2748169898987,370.28695917129517,370.4423243999481,370.4423243999481,370.4423243999481,370.4423243999481,370.4423243999481,370.4423243999481,370.4423243999481,371.5536415576935,1,1.2645516395568848,None,,,,,,,,,,,,,,,,,,27,1,2025-02-18_17h01.33.144,comp,2024.2.4,57.36223939955907,2025-02-18 17h01.42.822444 -0500,
34,34,0,critical,hdw,35.0,2.1,upper,200.0,125.0,127.0,127.0,125.0,200.0,3,12.668979406356812,None,,,,,0,0,0,0,0,34,34,21,371.5704963207245,,,,,,,,,,,,,,,,,,,,,,,,,,,,,,,,,,,,,,,,,,,,,,,,,,,,,,,,,,,,,,,,,,,,,,,,,,,,,,,,,,200.0,125.0,127.0,127.0,125.0,200.0,2.1,2.11,-222,280,0,282,260,-253,371.55524611473083,371.5553255081177,371.55859303474426,371.5704963207245,371.7199137210846,371.7199137210846,371.7199137210846,371.7199137210846,371.7199137210846,371.7199137210846,371.7199137210846,384.2488751411438,3,12.668979406356812,None,,,,,,,,,,,,,,,,,,27,1,2025-02-18_17h01.33.144,comp,2024.2.4,57.36223939955907,2025-02-18 17h01.42.822444 -0500,
35,35,0,critical,hwd,20.0,3.0,upper,200.0,125.0,125.0,200.0,141.0,141.0,2,27.55111050605774,None,,,,,0,0,0,0,0,35,35,105,384.26494455337524,,,,,,,,,,,,,,,,,,,,,,,,,,,,,,,,,,,,,,,,,,,,,,,,,,,,,,,,,,,,,,,,,,,,,,,,,,,,,,,,,,200.0,125.0,125.0,200.0,141.0,141.0,3.0,3.2,-258,-276,0,14,266,269,384.2503411769867,384.2504165172577,384.25328755378723,384.26494455337524,384.4077422618866,384.4077422618866,384.4077422618866,384.4077422618866,384.4077422618866,384.4077422618866,384.4077422618866,411.8230504989624,2,27.55111050605774,None,,,,,,,,,,,,,,,,,,27,1,2025-02-18_17h01.33.144,comp,2024.2.4,57.36223939955907,2025-02-18 17h01.42.822444 -0500,
36,36,0,critical,dwh,35.0,2.1,upper,127.0,127.0,125.0,200.0,200.0,125.0,2,2.6003940105438232,None,,,,,0,0,0,0,0,36,36,29,411.83925557136536,,,,,,,,,,,,,,,,,,,,,,,,,,,,,,,,,,,,,,,,,,,,,,,,,,,,,,,,,,,,,,,,,,,,,,,,,,,,,,,,,,127.0,127.0,125.0,200.0,200.0,125.0,2.1,2.12,-260,-264,0,-264,258,280,411.82485365867615,411.82498931884766,411.82829427719116,411.83925557136536,411.9864094257355,411.9864094257355,411.9864094257355,411.9864094257355,411.9864094257355,411.9864094257355,411.9864094257355,414.4542393684387,2,2.6003940105438232,None,,,,,,,,,,,,,,,,,,27,1,2025-02-18_17h01.33.144,comp,2024.2.4,57.36223939955907,2025-02-18 17h01.42.822444 -0500,
37,37,0,critical,dhw,35.0,1.0,upper,127.0,127.0,200.0,125.0,125.0,200.0,3,5.6119654178619385,None,,,,,0,0,0,0,0,37,37,49,414.4698963165283,,,,,,,,,,,,,,,,,,,,,,,,,,,,,,,,,,,,,,,,,,,,,,,,,,,,,,,,,,,,,,,,,,,,,,,,,,,,,,,,,,127.0,127.0,200.0,125.0,125.0,200.0,1.0,1.1,-702,255,-480,267,-222,264,414.4558699131012,414.4559438228607,414.45961928367615,414.4698963165283,414.62587809562683,414.62587809562683,414.62587809562683,414.62587809562683,414.62587809562683,414.62587809562683,414.62587809562683,420.087521314621,3,5.6119654178619385,None,,,,,,,,,,,,,,,,,,27,1,2025-02-18_17h01.33.144,comp,2024.2.4,57.36223939955907,2025-02-18 17h01.42.822444 -0500,
38,38,0,critical,dhw,35.0,3.0,lower,70.0,70.0,133.0,57.0,57.0,133.0,3,4.559847831726074,None,,,,,0,0,0,0,0,38,38,50,420.1042938232422,,,,,,,,,,,,,,,,,,,,,,,,,,,,,,,,,,,,,,,,,,,,,,,,,,,,,,,,,,,,,,,,,,,,,,,,,,,,,,,,,,70.0,70.0,133.0,57.0,57.0,133.0,3.0,3.1,-160,287,0,-8,191,-272,420.08916306495667,420.08923983573914,420.0925524234772,420.1042938232422,420.25542736053467,420.25542736053467,420.25542736053467,420.25542736053467,420.25542736053467,420.25542736053467,420.25542736053467,424.6736304759979,3,4.559847831726074,None,,,,,,,,,,,,,,,,,,27,1,2025-02-18_17h01.33.144,comp,2024.2.4,57.36223939955907,2025-02-18 17h01.42.822444 -0500,
39,39,0,filler_random,None,None,None,None,None,None,None,None,None,None,1,2.382608413696289,None,,,,,0,0,0,0,0,39,39,148,424.6896312236786,,,,,,,,,,,,,,,,,,,,,,,,,,,,,,,,,,,,,,,,,,,,,,,,,,,,,,,,,,,,,,,,,,,,,,,,,,,,,,,,,,84.55399652715127,194.02247567981038,135.60858380163913,61.08949373799893,69.75005050395514,121.41753039317958,2.1,2.11,-224,281,0,258,187,-285,424.67531991004944,424.67539739608765,424.67887234687805,424.6896312236786,424.84207224845886,424.84207224845886,424.84207224845886,424.84207224845886,424.84207224845886,424.84207224845886,424.84207224845886,427.0932250022888,1,2.382608413696289,None,,,,,,,,,,,,,,,,,,27,1,2025-02-18_17h01.33.144,comp,2024.2.4,57.36223939955907,2025-02-18 17h01.42.822444 -0500,
40,40,0,critical,dhw,20.0,2.1,lower,78.0,78.0,133.0,57.0,57.0,133.0,2,22.672635555267334,None,,,,,0,0,0,0,0,40,40,26,427.1112132072449,,,,,,,,,,,,,,,,,,,,,,,,,,,,,,,,,,,,,,,,,,,,,,,,,,,,,,,,,,,,,,,,,,,,,,,,,,,,,,,,,,78.0,78.0,133.0,57.0,57.0,133.0,2.1,2.11,-164,270,0,273,191,-266,427.094934463501,427.09506392478943,427.09835410118103,427.1112132072449,427.256911277771,427.256911277771,427.256911277771,427.256911277771,427.256911277771,427.256911277771,427.256911277771,449.7963981628418,2,22.672635555267334,None,,,,,,,,,,,,,,,,,,27,1,2025-02-18_17h01.33.144,comp,2024.2.4,57.36223939955907,2025-02-18 17h01.42.822444 -0500,
41,41,0,filler_square,None,None,None,None,None,None,None,None,None,None,1,1.3636682033538818,None,,,,,0,0,0,0,0,41,41,207,449.81211614608765,,,,,,,,,,,,,,,,,,,,,,,,,,,,,,,,,,,,,,,,,,,,,,,,,,,,,,,,,,,,,,,,,,,,,,,,,,,,,,,,,,146.35514853263885,146.35514853263885,120.28819350540974,86.87557289533332,63.42634490199446,65.04177780818368,1.0,1.1,-693,258,-480,257,-308,275,449.7981798648834,449.79825711250305,449.8014760017395,449.81211614608765,449.96895837783813,449.96895837783813,449.96895837783813,449.96895837783813,449.96895837783813,449.96895837783813,449.96895837783813,451.1859722137451,1,1.3636682033538818,None,,,,,,,,,,,,,,,,,,27,1,2025-02-18_17h01.33.144,comp,2024.2.4,57.36223939955907,2025-02-18 17h01.42.822444 -0500,
42,42,0,catch,None,None,None,None,None,None,None,None,None,None,1,1.3897366523742676,None,,,,,0,0,0,0,0,42,42,124,451.2028498649597,,,,,,,,,,,,,,,,,,,,,,,,,,,,,,,,,,,,,,,,,,,,,,,,,,,,,,,,,,,,,,,,,,,,,,,,,,,,,,,,,,186,139,63,127,92,98,2.1,2.12,-229,-285,0,-255,208,259,451.18788480758667,451.18796133995056,451.1919012069702,451.2028498649597,451.3491723537445,451.3491723537445,451.3491723537445,451.3491723537445,451.3491723537445,451.3491723537445,451.3491723537445,452.59903621673584,1,1.3897366523742676,None,,,,,,,,,,,,,,,,,,27,1,2025-02-18_17h01.33.144,comp,2024.2.4,57.36223939955907,2025-02-18 17h01.42.822444 -0500,
43,43,0,critical,hdw,20.0,1.0,lower,133.0,57.0,78.0,78.0,57.0,133.0,3,43.777541399002075,None,,,,,0,0,0,0,0,43,43,114,452.61485505104065,,,,,,,,,,,,,,,,,,,,,,,,,,,,,,,,,,,,,,,,,,,,,,,,,,,,,,,,,,,,,,,,,,,,,,,,,,,,,,,,,,133.0,57.0,78.0,78.0,57.0,133.0,1.0,1.3,316,-289,480,-267,682,-251,452.60056805610657,452.60065817832947,452.60396456718445,452.61485505104065,452.7633945941925,452.7633945941925,452.7633945941925,452.7633945941925,452.7633945941925,452.7633945941925,452.7633945941925,496.3960454463959,3,43.777541399002075,None,,,,,,,,,,,,,,,,,,27,1,2025-02-18_17h01.33.144,comp,2024.2.4,57.36223939955907,2025-02-18 17h01.42.822444 -0500,
44,44,0,filler_random,None,None,None,None,None,None,None,None,None,None,2,1.0276684761047363,None,,,,,0,0,0,0,0,44,44,135,496.41327571868896,,,,,,,,,,,,,,,,,,,,,,,,,,,,,,,,,,,,,,,,,,,,,,,,,,,,,,,,,,,,,,,,,,,,,,,,,,,,,,,,,,152.72118964681104,112.51335202090738,163.27935719118003,161.66603689213395,96.69116960735685,139.50297186272243,1.0,1.1,-713,258,-480,288,-233,280,496.3978967666626,496.3980062007904,496.40122985839844,496.41327571868896,496.56288146972656,496.56288146972656,496.56288146972656,496.56288146972656,496.56288146972656,496.56288146972656,496.56288146972656,497.4490575790405,2,1.0276684761047363,None,,,,,,,,,,,,,,,,,,27,1,2025-02-18_17h01.33.144,comp,2024.2.4,57.36223939955907,2025-02-18 17h01.42.822444 -0500,
45,45,0,critical,hdw,20.0,2.1,upper,200.0,125.0,141.0,141.0,125.0,200.0,3,5.9207518100738525,None,,,,,0,0,0,0,0,45,45,47,497.4640996456146,,,,,,,,,,,,,,,,,,,,,,,,,,,,,,,,,,,,,,,,,,,,,,,,,,,,,,,,,,,,,,,,,,,,,,,,,,,,,,,,,,200.0,125.0,141.0,141.0,125.0,200.0,2.1,2.11,-229,276,0,284,266,-277,497.4503769874573,497.4504084587097,497.4516808986664,497.4640996456146,497.6151578426361,497.6151578426361,497.6151578426361,497.6151578426361,497.6151578426361,497.6151578426361,497.6151578426361,503.38705706596375,3,5.9207518100738525,None,,,,,,,,,,,,,,,,,,27,1,2025-02-18_17h01.33.144,comp,2024.2.4,57.36223939955907,2025-02-18 17h01.42.822444 -0500,
46,46,0,filler_square,None,None,None,None,None,None,None,None,None,None,1,1.1016418933868408,None,,,,,0,0,0,0,0,46,46,194,503.403107881546,,,,,,,,,,,,,,,,,,,,,,,,,,,,,,,,,,,,,,,,,,,,,,,,,,,,,,,,,,,,,,,,,,,,,,,,,,,,,,,,,,184.33963665061935,184.33963665061935,86.91644745222213,108.94309249289837,147.93632971749145,130.5483748272733,2.1,2.12,-243,-288,0,-262,216,251,503.38889169692993,503.38896441459656,503.39240860939026,503.403107881546,503.5539848804474,503.5539848804474,503.5539848804474,503.5539848804474,503.5539848804474,503.5539848804474,503.5539848804474,504.5089235305786,1,1.1016418933868408,None,,,,,,,,,,,,,,,,,,27,1,2025-02-18_17h01.33.144,comp,2024.2.4,57.36223939955907,2025-02-18 17h01.42.822444 -0500,
47,47,0,critical,hwd,35.0,1.0,upper,200.0,125.0,125.0,200.0,127.0,127.0,1,9.98668646812439,None,,,,,0,0,0,0,0,47,47,97,504.52639079093933,,,,,,,,,,,,,,,,,,,,,,,,,,,,,,,,,,,,,,,,,,,,,,,,,,,,,,,,,,,,,,,,,,,,,,,,,,,,,,,,,,200.0,125.0,125.0,200.0,127.0,127.0,1.0,1.3,222,-271,480,-286,740,-265,504.51041412353516,504.5104899406433,504.5133707523346,504.52639079093933,504.6757347583771,504.6757347583771,504.6757347583771,504.6757347583771,504.6757347583771,504.6757347583771,504.6757347583771,514.5179538726807,1,9.98668646812439,None,,,,,,,,,,,,,,,,,,27,1,2025-02-18_17h01.33.144,comp,2024.2.4,57.36223939955907,2025-02-18 17h01.42.822444 -0500,
48,48,0,critical,dhw,20.0,4.0,upper,141.0,141.0,200.0,125.0,125.0,200.0,2,10.089345216751099,None,,,,,0,0,0,0,0,48,48,59,514.5351645946503,,,,,,,,,,,,,,,,,,,,,,,,,,,,,,,,,,,,,,,,,,,,,,,,,,,,,,,,,,,,,,,,,,,,,,,,,,,,,,,,,,141.0,141.0,200.0,125.0,125.0,200.0,4.0,4.1,-229,-287,0,-9,258,-284,514.5194203853607,514.5194957256317,514.5226681232452,514.5351645946503,514.686943769455,514.686943769455,514.686943769455,514.686943769455,514.686943769455,514.686943769455,514.686943769455,524.6400945186615,2,10.089345216751099,None,,,,,,,,,,,,,,,,,,27,1,2025-02-18_17h01.33.144,comp,2024.2.4,57.36223939955907,2025-02-18 17h01.42.822444 -0500,
49,49,0,critical,wdh,20.0,3.0,lower,57.0,133.0,78.0,78.0,133.0,57.0,3,8.161072731018066,None,,,,,0,0,0,0,0,49,49,80,524.6554770469666,,,,,,,,,,,,,,,,,,,,,,,,,,,,,,,,,,,,,,,,,,,,,,,,,,,,,,,,,,,,,,,,,,,,,,,,,,,,,,,,,,57.0,133.0,78.0,78.0,133.0,57.0,3.0,3.1,-202,286,0,10,164,-286,524.6416127681732,524.6416873931885,524.6446959972382,524.6554770469666,524.8048222064972,524.8048222064972,524.8048222064972,524.8048222064972,524.8048222064972,524.8048222064972,524.8048222064972,532.8291213512421,3,8.161072731018066,None,,,,,,,,,,,,,,,,,,27,1,2025-02-18_17h01.33.144,comp,2024.2.4,57.36223939955907,2025-02-18 17h01.42.822444 -0500,
50,50,0,filler_square,None,None,None,None,None,None,None,None,None,None,3,1.3229119777679443,None,,,,,0,0,0,0,0,50,50,206,532.8454666137695,,,,,,,,,,,,,,,,,,,,,,,,,,,,,,,,,,,,,,,,,,,,,,,,,,,,,,,,,,,,,,,,,,,,,,,,,,,,,,,,,,172.81967441802055,62.50854357216494,186.6351158823296,110.37457771441518,199.7774139068412,199.7774139068412,1.0,1.3,298,-287,480,-272,731,-270,532.831356048584,532.8314826488495,532.8345143795013,532.8454666137695,532.9983878135681,532.9983878135681,532.9983878135681,532.9983878135681,532.9983878135681,532.9983878135681,532.9983878135681,534.1833183765411,3,1.3229119777679443,None,,,,,,,,,,,,,,,,,,27,1,2025-02-18_17h01.33.144,comp,2024.2.4,57.36223939955907,2025-02-18 17h01.42.822444 -0500,
51,51,0,catch,None,None,None,None,None,None,None,None,None,None,1,1.0600690841674805,None,,,,,0,0,0,0,0,51,51,126,534.2049696445465,,,,,,,,,,,,,,,,,,,,,,,,,,,,,,,,,,,,,,,,,,,,,,,,,,,,,,,,,,,,,,,,,,,,,,,,,,,,,,,,,,156,169,107,83,103,87,1.0,1.1,-702,281,-480,284,-299,277,534.1856272220612,534.1857073307037,534.1891694068909,534.2049696445465,534.3429358005524,534.3429358005524,534.3429358005524,534.3429358005524,534.3429358005524,534.3429358005524,534.3429358005524,535.2687857151031,1,1.0600690841674805,None,,,,,,,,,,,,,,,,,,27,1,2025-02-18_17h01.33.144,comp,2024.2.4,57.36223939955907,2025-02-18 17h01.42.822444 -0500,
52,52,0,catch,None,None,None,None,None,None,None,None,None,None,2,0.9172830581665039,None,,,,,0,0,0,0,0,52,52,129,535.2848634719849,,,,,,,,,,,,,,,,,,,,,,,,,,,,,,,,,,,,,,,,,,,,,,,,,,,,,,,,,,,,,,,,,,,,,,,,,,,,,,,,,,118,72,128,197,92,98,3.0,3.1,-230,267,0,-3,244,-278,535.270706653595,535.2707841396332,535.2736864089966,535.2848634719849,535.4246561527252,535.4246561527252,535.4246561527252,535.4246561527252,535.4246561527252,535.4246561527252,535.4246561527252,536.2066919803619,2,0.9172830581665039,None,,,,,,,,,,,,,,,,,,27,1,2025-02-18_17h01.33.144,comp,2024.2.4,57.36223939955907,2025-02-18 17h01.42.822444 -0500,
53,53,0,filler_random,None,None,None,None,None,None,None,None,None,None,1,3.5893070697784424,None,,,,,0,0,0,0,0,53,53,147,536.2286336421967,,,,,,,,,,,,,,,,,,,,,,,,,,,,,,,,,,,,,,,,,,,,,,,,,,,,,,,,,,,,,,,,,,,,,,,,,,,,,,,,,,179.08910671219678,177.1647860279075,154.23701428673087,181.57847267687129,158.35202809255247,134.20870720251395,2.2,2.22,-275,262,0,-259,254,-256,536.2085998058319,536.2087416648865,536.2127618789673,536.2286336421967,536.3596904277802,536.3596904277802,536.3596904277802,536.3596904277802,536.3596904277802,536.3596904277802,536.3596904277802,539.8261210918427,1,3.5893070697784424,None,,,,,,,,,,,,,,,,,,27,1,2025-02-18_17h01.33.144,comp,2024.2.4,57.36223939955907,2025-02-18 17h01.42.822444 -0500,
54,54,0,filler_random,None,None,None,None,None,None,None,None,None,None,3,5.702215909957886,None,,,,,0,0,0,0,0,54,54,143,539.8425786495209,,,,,,,,,,,,,,,,,,,,,,,,,,,,,,,,,,,,,,,,,,,,,,,,,,,,,,,,,,,,,,,,,,,,,,,,,,,,,,,,,,108.10646950430514,181.63014112870866,99.29462164587517,86.59450790293417,144.1334079952057,155.10762184644872,2.2,2.22,-230,256,0,-262,217,-290,539.8278839588165,539.827995300293,539.8313746452332,539.8425786495209,539.994647026062,539.994647026062,539.994647026062,539.994647026062,539.994647026062,539.994647026062,539.994647026062,545.5619883537292,3,5.702215909957886,None,,,,,,,,,,,,,,,,,,27,1,2025-02-18_17h01.33.144,comp,2024.2.4,57.36223939955907,2025-02-18 17h01.42.822444 -0500,
55,55,0,critical,dwh,35.0,2.1,lower,70.0,70.0,57.0,133.0,133.0,57.0,3,21.33607840538025,None,,,,,0,0,0,0,0,55,55,4,545.5776648521423,,,,,,,,,,,,,,,,,,,,,,,,,,,,,,,,,,,,,,,,,,,,,,,,,,,,,,,,,,,,,,,,,,,,,,,,,,,,,,,,,,70.0,70.0,57.0,133.0,133.0,57.0,2.1,2.11,-198,262,0,275,191,-274,545.5634622573853,545.5635662078857,545.5664629936218,545.5776648521423,545.7259774208069,545.7259774208069,545.7259774208069,545.7259774208069,545.7259774208069,545.7259774208069,545.7259774208069,566.922061920166,3,21.33607840538025,None,,,,,,,,,,,,,,,,,,27,1,2025-02-18_17h01.33.144,comp,2024.2.4,57.36223939955907,2025-02-18 17h01.42.822444 -0500,
56,56,0,filler_random,None,None,None,None,None,None,None,None,None,None,3,2.0944344997406006,None,,,,,0,0,0,0,0,56,56,131,566.9386746883392,,,,,,,,,,,,,,,,,,,,,,,,,,,,,,,,,,,,,,,,,,,,,,,,,,,,,,,,,,,,,,,,,,,,,,,,,,,,,,,,,,148.8267498185134,176.05187238793212,78.92553252685879,93.33139589364123,151.10137868195204,198.4864251970718,2.1,2.12,-231,-264,0,-285,242,251,566.923938035965,566.924015045166,566.9278569221497,566.9386746883392,567.0934731960297,567.0934731960297,567.0934731960297,567.0934731960297,567.0934731960297,567.0934731960297,567.0934731960297,569.0506134033203,3,2.0944344997406006,None,,,,,,,,,,,,,,,,,,27,1,2025-02-18_17h01.33.144,comp,2024.2.4,57.36223939955907,2025-02-18 17h01.42.822444 -0500,
57,57,0,filler_random,None,None,None,None,None,None,None,None,None,None,2,2.7744696140289307,None,,,,,0,0,0,0,0,57,57,139,569.0664596557617,,,,,,,,,,,,,,,,,,,,,,,,,,,,,,,,,,,,,,,,,,,,,,,,,,,,,,,,,,,,,,,,,,,,,,,,,,,,,,,,,,81.94438107375437,99.17874747551537,164.18185348035155,130.3386064931816,197.57713630544305,109.2138636268713,4.0,4.2,-211,13,0,-284,216,-20,569.0524764060974,569.0526080131531,569.0559091567993,569.0664596557617,569.218442440033,569.218442440033,569.218442440033,569.218442440033,569.218442440033,569.218442440033,569.218442440033,571.8550672531128,2,2.7744696140289307,None,,,,,,,,,,,,,,,,,,27,1,2025-02-18_17h01.33.144,comp,2024.2.4,57.36223939955907,2025-02-18 17h01.42.822444 -0500,
58,58,0,filler_square,None,None,None,None,None,None,None,None,None,None,1,1.010693073272705,None,,,,,0,0,0,0,0,58,58,204,571.8711245059967,,,,,,,,,,,,,,,,,,,,,,,,,,,,,,,,,,,,,,,,,,,,,,,,,,,,,,,,,,,,,,,,,,,,,,,,,,,,,,,,,,151.40977297123143,151.40977297123143,79.27508839021563,80.36243542889235,116.70448439791559,74.00637054960328,1.0,1.1,-692,284,-480,266,-307,290,571.8568878173828,571.8570125102997,571.8599801063538,571.8711245059967,572.0163304805756,572.0163304805756,572.0163304805756,572.0163304805756,572.0163304805756,572.0163304805756,572.0163304805756,572.8875753879547,1,1.010693073272705,None,,,,,,,,,,,,,,,,,,27,1,2025-02-18_17h01.33.144,comp,2024.2.4,57.36223939955907,2025-02-18 17h01.42.822444 -0500,
59,59,0,filler_square,None,None,None,None,None,None,None,None,None,None,1,1.137941598892212,None,,,,,0,0,0,0,0,59,59,174,572.9036774635315,,,,,,,,,,,,,,,,,,,,,,,,,,,,,,,,,,,,,,,,,,,,,,,,,,,,,,,,,,,,,,,,,,,,,,,,,,,,,,,,,,172.62494799810167,172.62494799810167,139.98993674867796,91.28039101764486,150.88335108078638,111.9540254239166,2.1,2.12,-228,-250,0,-255,198,281,572.889358997345,572.8894352912903,572.8929228782654,572.9036774635315,573.0564489364624,573.0564489364624,573.0564489364624,573.0564489364624,573.0564489364624,573.0564489364624,573.0564489364624,574.0507278442383,1,1.137941598892212,None,,,,,,,,,,,,,,,,,,27,1,2025-02-18_17h01.33.144,comp,2024.2.4,57.36223939955907,2025-02-18 17h01.42.822444 -0500,
60,60,0,filler_random,None,None,None,None,None,None,None,None,None,None,3,2.0611367225646973,None,,,,,0,0,0,0,0,60,60,155,574.0710573196411,,,,,,,,,,,,,,,,,,,,,,,,,,,,,,,,,,,,,,,,,,,,,,,,,,,,,,,,,,,,,,,,,,,,,,,,,,,,,,,,,,114.42939358725425,82.39123008920845,69.97394143834352,162.1751311176684,156.09938918192728,101.51482209700782,2.2,2.21,-218,-267,0,274,228,254,574.0524158477783,574.0524921417236,574.0554003715515,574.0710573196411,574.2052252292633,574.2052252292633,574.2052252292633,574.2052252292633,574.2052252292633,574.2052252292633,574.2052252292633,576.1370134353638,3,2.0611367225646973,None,,,,,,,,,,,,,,,,,,27,1,2025-02-18_17h01.33.144,comp,2024.2.4,57.36223939955907,2025-02-18 17h01.42.822444 -0500,
61,61,0,critical,hdw,20.0,3.0,upper,200.0,125.0,141.0,141.0,125.0,200.0,3,6.352448225021362,None,,,,,0,0,0,0,0,61,61,117,576.153201341629,,,,,,,,,,,,,,,,,,,,,,,,,,,,,,,,,,,,,,,,,,,,,,,,,,,,,,,,,,,,,,,,,,,,,,,,,,,,,,,,,,200.0,125.0,141.0,141.0,125.0,200.0,3.0,3.1,-229,288,0,-6,266,-252,576.1384632587433,576.1385571956635,576.1414015293121,576.153201341629,576.2906589508057,576.2906589508057,576.2906589508057,576.2906589508057,576.2906589508057,576.2906589508057,576.2906589508057,582.5085225105286,3,6.352448225021362,None,,,,,,,,,,,,,,,,,,27,1,2025-02-18_17h01.33.144,comp,2024.2.4,57.36223939955907,2025-02-18 17h01.42.822444 -0500,
62,62,0,critical,dwh,20.0,3.0,lower,78.0,78.0,57.0,133.0,133.0,57.0,3,2.1883556842803955,None,,,,,0,0,0,0,0,62,62,68,582.5245928764343,,,,,,,,,,,,,,,,,,,,,,,,,,,,,,,,,,,,,,,,,,,,,,,,,,,,,,,,,,,,,,,,,,,,,,,,,,,,,,,,,,78.0,78.0,57.0,133.0,133.0,57.0,3.0,3.1,-202,254,0,-10,191,-288,582.5100920200348,582.5101697444916,582.5137102603912,582.5245928764343,582.6766266822815,582.6766266822815,582.6766266822815,582.6766266822815,582.6766266822815,582.6766266822815,582.6766266822815,584.7300448417664,3,2.1883556842803955,None,,,,,,,,,,,,,,,,,,27,1,2025-02-18_17h01.33.144,comp,2024.2.4,57.36223939955907,2025-02-18 17h01.42.822444 -0500,
63,63,0,filler_square,None,None,None,None,None,None,None,None,None,None,3,2.1109652519226074,None,,,,,0,0,0,0,0,63,63,185,584.7462718486786,,,,,,,,,,,,,,,,,,,,,,,,,,,,,,,,,,,,,,,,,,,,,,,,,,,,,,,,,,,,,,,,,,,,,,,,,,,,,,,,,,63.42031583531919,58.52541988534351,65.36491640549279,69.50106140895959,71.2425652710655,71.2425652710655,2.1,2.11,-160,259,0,250,166,-279,584.731404542923,584.7314581871033,584.73299908638,584.7462718486786,584.8929243087769,584.8929243087769,584.8929243087769,584.8929243087769,584.8929243087769,584.8929243087769,584.8929243087769,586.8616859912872,3,2.1109652519226074,None,,,,,,,,,,,,,,,,,,27,1,2025-02-18_17h01.33.144,comp,2024.2.4,57.36223939955907,2025-02-18 17h01.42.822444 -0500,
64,64,0,critical,wdh,35.0,4.0,upper,125.0,200.0,127.0,127.0,200.0,125.0,1,2.9776415824890137,None,,,,,0,0,0,0,0,64,64,77,586.8795156478882,,,,,,,,,,,,,,,,,,,,,,,,,,,,,,,,,,,,,,,,,,,,,,,,,,,,,,,,,,,,,,,,,,,,,,,,,,,,,,,,,,125.0,200.0,127.0,127.0,200.0,125.0,4.0,4.2,-260,10,0,-262,222,14,586.8633217811584,586.8634006977081,586.866367816925,586.8795156478882,587.0256516933441,587.0256516933441,587.0256516933441,587.0256516933441,587.0256516933441,587.0256516933441,587.0256516933441,589.861715555191,1,2.9776415824890137,None,,,,,,,,,,,,,,,,,,27,1,2025-02-18_17h01.33.144,comp,2024.2.4,57.36223939955907,2025-02-18 17h01.42.822444 -0500,
65,65,0,critical,whd,35.0,2.1,lower,57.0,133.0,133.0,57.0,70.0,70.0,2,3.307889938354492,None,,,,,0,0,0,0,0,65,65,36,589.8779363632202,,,,,,,,,,,,,,,,,,,,,,,,,,,,,,,,,,,,,,,,,,,,,,,,,,,,,,,,,,,,,,,,,,,,,,,,,,,,,,,,,,57.0,133.0,133.0,57.0,70.0,70.0,2.1,2.11,-191,277,0,262,160,-287,589.863445520401,589.8635251522064,589.8670592308044,589.8779363632202,590.0263769626617,590.0263769626617,590.0263769626617,590.0263769626617,590.0263769626617,590.0263769626617,590.0263769626617,593.1950671672821,2,3.307889938354492,None,,,,,,,,,,,,,,,,,,27,1,2025-02-18_17h01.33.144,comp,2024.2.4,57.36223939955907,2025-02-18 17h01.42.822444 -0500,
66,66,0,critical,dwh,20.0,4.0,upper,141.0,141.0,125.0,200.0,200.0,125.0,2,33.31878638267517,None,,,,,0,0,0,0,0,66,66,71,593.211608171463,,,,,,,,,,,,,,,,,,,,,,,,,,,,,,,,,,,,,,,,,,,,,,,,,,,,,,,,,,,,,,,,,,,,,,,,,,,,,,,,,,141.0,141.0,125.0,200.0,200.0,125.0,4.0,4.1,-266,-283,0,0,258,-287,593.1964967250824,593.1965935230255,593.2007899284363,593.211608171463,593.365362405777,593.365362405777,593.365362405777,593.365362405777,593.365362405777,593.365362405777,593.365362405777,626.5367770195007,2,33.31878638267517,None,,,,,,,,,,,,,,,,,,27,1,2025-02-18_17h01.33.144,comp,2024.2.4,57.36223939955907,2025-02-18 17h01.42.822444 -0500,
67,67,0,critical,hdw,35.0,2.1,upper,200.0,125.0,127.0,127.0,125.0,200.0,3,3.7564761638641357,None,,,,,0,0,0,0,0,67,67,45,626.5569655895233,,,,,,,,,,,,,,,,,,,,,,,,,,,,,,,,,,,,,,,,,,,,,,,,,,,,,,,,,,,,,,,,,,,,,,,,,,,,,,,,,,200.0,125.0,127.0,127.0,125.0,200.0,2.1,2.12,-222,-263,0,-268,260,261,626.5382928848267,626.5383682250977,626.5413036346436,626.5569655895233,626.7047898769379,626.7047898769379,626.7047898769379,626.7047898769379,626.7047898769379,626.7047898769379,626.7047898769379,630.3275773525238,3,3.7564761638641357,None,,,,,,,,,,,,,,,,,,27,1,2025-02-18_17h01.33.144,comp,2024.2.4,57.36223939955907,2025-02-18 17h01.42.822444 -0500,
68,68,0,critical,dwh,35.0,4.0,lower,70.0,70.0,57.0,133.0,133.0,57.0,3,1.5203423500061035,None,,,,,0,0,0,0,0,68,68,64,630.345077753067,,,,,,,,,,,,,,,,,,,,,,,,,,,,,,,,,,,,,,,,,,,,,,,,,,,,,,,,,,,,,,,,,,,,,,,,,,,,,,,,,,70.0,70.0,57.0,133.0,133.0,57.0,4.0,4.1,-198,-253,0,19,191,-288,630.3290700912476,630.329149723053,630.3320689201355,630.345077753067,630.4904537200928,630.4904537200928,630.4904537200928,630.4904537200928,630.4904537200928,630.4904537200928,630.4904537200928,631.8748757839203,3,1.5203423500061035,None,,,,,,,,,,,,,,,,,,27,1,2025-02-18_17h01.33.144,comp,2024.2.4,57.36223939955907,2025-02-18 17h01.42.822444 -0500,
69,69,0,critical,hwd,20.0,1.0,lower,133.0,57.0,57.0,133.0,78.0,78.0,1,18.216169357299805,None,,,,,0,0,0,0,0,69,69,102,631.8904161453247,,,,,,,,,,,,,,,,,,,,,,,,,,,,,,,,,,,,,,,,,,,,,,,,,,,,,,,,,,,,,,,,,,,,,,,,,,,,,,,,,,133.0,57.0,57.0,133.0,78.0,78.0,1.0,1.1,-671,279,-480,288,-278,257,631.8764476776123,631.8765554428101,631.8797850608826,631.8904161453247,632.0426867008209,632.0426867008209,632.0426867008209,632.0426867008209,632.0426867008209,632.0426867008209,632.0426867008209,650.1146566867828,1,18.216169357299805,None,,,,,,,,,,,,,,,,,,27,1,2025-02-18_17h01.33.144,comp,2024.2.4,57.36223939955907,2025-02-18 17h01.42.822444 -0500,
70,70,0,critical,dhw,20.0,1.0,upper,141.0,141.0,200.0,125.0,125.0,200.0,3,2.0548906326293945,None,,,,,0,0,0,0,0,70,70,55,650.1307001113892,,,,,,,,,,,,,,,,,,,,,,,,,,,,,,,,,,,,,,,,,,,,,,,,,,,,,,,,,,,,,,,,,,,,,,,,,,,,,,,,,,141.0,141.0,200.0,125.0,125.0,200.0,1.0,1.2,-229,-7,0,8,258,7,650.1166870594025,650.1168253421783,650.1199202537537,650.1307001113892,650.2779428958893,650.2779428958893,650.2779428958893,650.2779428958893,650.2779428958893,650.2779428958893,650.2779428958893,652.1980373859406,3,2.0548906326293945,None,,,,,,,,,,,,,,,,,,27,1,2025-02-18_17h01.33.144,comp,2024.2.4,57.36223939955907,2025-02-18 17h01.42.822444 -0500,
71,71,0,critical,hwd,35.0,2.1,lower,133.0,57.0,57.0,133.0,70.0,70.0,2,7.197010278701782,None,,,,,0,0,0,0,0,71,71,40,652.2133059501648,,,,,,,,,,,,,,,,,,,,,,,,,,,,,,,,,,,,,,,,,,,,,,,,,,,,,,,,,,,,,,,,,,,,,,,,,,,,,,,,,,133.0,57.0,57.0,133.0,70.0,70.0,2.1,2.12,-191,-269,0,-277,198,275,652.1998114585876,652.1999342441559,652.2033312320709,652.2133059501648,652.3605659008026,652.3605659008026,652.3605659008026,652.3605659008026,652.3605659008026,652.3605659008026,652.3605659008026,659.4168081283569,2,7.197010278701782,None,,,,,,,,,,,,,,,,,,27,1,2025-02-18_17h01.33.144,comp,2024.2.4,57.36223939955907,2025-02-18 17h01.42.822444 -0500,
72,72,0,critical,dhw,20.0,3.0,lower,78.0,78.0,133.0,57.0,57.0,133.0,3,7.088858604431152,None,,,,,0,0,0,0,0,72,72,56,659.4330770969391,,,,,,,,,,,,,,,,,,,,,,,,,,,,,,,,,,,,,,,,,,,,,,,,,,,,,,,,,,,,,,,,,,,,,,,,,,,,,,,,,,78.0,78.0,133.0,57.0,57.0,133.0,3.0,3.2,-164,-251,0,-13,191,267,659.4184906482697,659.4186062812805,659.4221839904785,659.4330770969391,659.5836296081543,659.5836296081543,659.5836296081543,659.5836296081543,659.5836296081543,659.5836296081543,659.5836296081543,666.5380783081055,3,7.088858604431152,None,,,,,,,,,,,,,,,,,,27,1,2025-02-18_17h01.33.144,comp,2024.2.4,57.36223939955907,2025-02-18 17h01.42.822444 -0500,
73,73,0,filler_square,None,None,None,None,None,None,None,None,None,None,2,1.7600884437561035,None,,,,,0,0,0,0,0,73,73,197,666.5545098781586,,,,,,,,,,,,,,,,,,,,,,,,,,,,,,,,,,,,,,,,,,,,,,,,,,,,,,,,,,,,,,,,,,,,,,,,,,,,,,,,,,84.2623861397276,133.8524847470261,138.14749624547608,138.14749624547608,118.72878674556789,95.0321710059959,3.0,3.2,-232,-278,0,-3,213,290,666.5399942398071,666.5400741100311,666.5433166027069,666.5545098781586,666.6998450756073,666.6998450756073,666.6998450756073,666.6998450756073,666.6998450756073,666.6998450756073,666.6998450756073,668.3212234973907,2,1.7600884437561035,None,,,,,,,,,,,,,,,,,,27,1,2025-02-18_17h01.33.144,comp,2024.2.4,57.36223939955907,2025-02-18 17h01.42.822444 -0500,
74,74,0,critical,wdh,20.0,2.1,lower,57.0,133.0,78.0,78.0,133.0,57.0,3,10.351991176605225,None,,,,,0,0,0,0,0,74,74,10,668.337815284729,,,,,,,,,,,,,,,,,,,,,,,,,,,,,,,,,,,,,,,,,,,,,,,,,,,,,,,,,,,,,,,,,,,,,,,,,,,,,,,,,,57.0,133.0,78.0,78.0,133.0,57.0,2.1,2.12,-202,-275,0,-275,164,253,668.3229885101318,668.3231146335602,668.3270614147186,668.337815284729,668.4878740310669,668.4878740310669,668.4878740310669,668.4878740310669,668.4878740310669,668.4878740310669,668.4878740310669,678.7041602134705,3,10.351991176605225,None,,,,,,,,,,,,,,,,,,27,1,2025-02-18_17h01.33.144,comp,2024.2.4,57.36223939955907,2025-02-18 17h01.42.822444 -0500,
75,75,0,critical,dwh,35.0,4.0,upper,127.0,127.0,125.0,200.0,200.0,125.0,2,6.920332670211792,None,,,,,0,0,0,0,0,75,75,65,678.7218852043152,,,,,,,,,,,,,,,,,,,,,,,,,,,,,,,,,,,,,,,,,,,,,,,,,,,,,,,,,,,,,,,,,,,,,,,,,,,,,,,,,,127.0,127.0,125.0,200.0,200.0,125.0,4.0,4.2,-260,-13,0,-278,258,-2,678.70569896698,678.7057750225067,678.7090783119202,678.7218852043152,678.8753550052643,678.8753550052643,678.8753550052643,678.8753550052643,678.8753550052643,678.8753550052643,678.8753550052643,685.6602272987366,2,6.920332670211792,None,,,,,,,,,,,,,,,,,,27,1,2025-02-18_17h01.33.144,comp,2024.2.4,57.36223939955907,2025-02-18 17h01.42.822444 -0500,
76,76,0,filler_random,None,None,None,None,None,None,None,None,None,None,2,26.0307400226593,None,,,,,0,0,0,0,0,76,76,156,685.6755967140198,,,,,,,,,,,,,,,,,,,,,,,,,,,,,,,,,,,,,,,,,,,,,,,,,,,,,,,,,,,,,,,,,,,,,,,,,,,,,,,,,,104.69711726142873,137.1414906263549,149.0259058390899,100.97263434978684,99.40510390267556,133.5855081572459,2.2,2.21,-215,-254,0,260,213,268,685.6619839668274,685.6620621681213,685.6652250289917,685.6755967140198,685.8230264186859,685.8230264186859,685.8230264186859,685.8230264186859,685.8230264186859,685.8230264186859,685.8230264186859,711.708455324173,2,26.0307400226593,None,,,,,,,,,,,,,,,,,,27,1,2025-02-18_17h01.33.144,comp,2024.2.4,57.36223939955907,2025-02-18 17h01.42.822444 -0500,
77,77,0,filler_square,None,None,None,None,None,None,None,None,None,None,1,2.708407163619995,None,,,,,0,0,0,0,0,77,77,203,711.7263424396515,,,,,,,,,,,,,,,,,,,,,,,,,,,,,,,,,,,,,,,,,,,,,,,,,,,,,,,,,,,,,,,,,,,,,,,,,,,,,,,,,,82.06035807315558,82.06035807315558,81.29993399937928,67.00258667858922,70.05236067655133,77.65419429089108,2.1,2.11,-171,282,0,258,168,-280,711.7102234363556,711.7102987766266,711.7131831645966,711.7263424396515,711.8702294826508,711.8702294826508,711.8702294826508,711.8702294826508,711.8702294826508,711.8702294826508,711.8702294826508,714.4437034130096,1,2.708407163619995,None,,,,,,,,,,,,,,,,,,27,1,2025-02-18_17h01.33.144,comp,2024.2.4,57.36223939955907,2025-02-18 17h01.42.822444 -0500,
78,78,0,filler_square,None,None,None,None,None,None,None,None,None,None,2,0.9322476387023926,None,,,,,0,0,0,0,0,78,78,201,714.4625072479248,,,,,,,,,,,,,,,,,,,,,,,,,,,,,,,,,,,,,,,,,,,,,,,,,,,,,,,,,,,,,,,,,,,,,,,,,,,,,,,,,,118.19463104649557,82.33150527457337,198.65396341402257,198.65396341402257,73.21987958625678,103.0069449987291,3.0,3.1,-236,260,0,8,247,-287,714.4456017017365,714.445690870285,714.448911190033,714.4625072479248,714.6011312007904,714.6011312007904,714.6011312007904,714.6011312007904,714.6011312007904,714.6011312007904,714.6011312007904,715.4032588005066,2,0.9322476387023926,None,,,,,,,,,,,,,,,,,,27,1,2025-02-18_17h01.33.144,comp,2024.2.4,57.36223939955907,2025-02-18 17h01.42.822444 -0500,
79,79,0,filler_random,None,None,None,None,None,None,None,None,None,None,1,1.3296210765838623,None,,,,,0,0,0,0,0,79,79,163,715.4244523048401,,,,,,,,,,,,,,,,,,,,,,,,,,,,,,,,,,,,,,,,,,,,,,,,,,,,,,,,,,,,,,,,,,,,,,,,,,,,,,,,,,198.95504466301114,195.62001555576384,193.3377229288348,63.264092531239655,149.6073214832982,188.1825083743666,1.0,1.1,-705,283,-480,288,-258,267,715.40509557724,715.405172586441,715.4085204601288,715.4244523048401,715.5662240982056,715.5662240982056,715.5662240982056,715.5662240982056,715.5662240982056,715.5662240982056,715.5662240982056,716.7662324905396,1,1.3296210765838623,None,,,,,,,,,,,,,,,,,,27,1,2025-02-18_17h01.33.144,comp,2024.2.4,57.36223939955907,2025-02-18 17h01.42.822444 -0500,
80,80,0,catch,None,None,None,None,None,None,None,None,None,None,1,1.3115417957305908,None,,,,,0,0,0,0,0,80,80,123,716.7871887683868,,,,,,,,,,,,,,,,,,,,,,,,,,,,,,,,,,,,,,,,,,,,,,,,,,,,,,,,,,,,,,,,,,,,,,,,,,,,,,,,,,191,134,118,72,131,59,2.1,2.11,-199,262,0,267,162,-280,716.7683110237122,716.7683870792389,716.7717425823212,716.7871887683868,716.9333391189575,716.9333391189575,716.9333391189575,716.9333391189575,716.9333391189575,716.9333391189575,716.9333391189575,718.1026241779327,1,1.3115417957305908,None,,,,,,,,,,,,,,,,,,27,1,2025-02-18_17h01.33.144,comp,2024.2.4,57.36223939955907,2025-02-18 17h01.42.822444 -0500,
81,81,0,filler_random,None,None,None,None,None,None,None,None,None,None,2,1.4753501415252686,None,,,,,0,0,0,0,0,81,81,165,718.1189019680023,,,,,,,,,,,,,,,,,,,,,,,,,,,,,,,,,,,,,,,,,,,,,,,,,,,,,,,,,,,,,,,,,,,,,,,,,,,,,,,,,,115.79534948723688,127.46910569780759,176.159790846735,163.54846320069143,73.09449085422665,91.96510117152638,1.0,1.3,238,-285,480,-279,704,-256,718.1044974327087,718.1046924591064,718.1081652641296,718.1189019680023,718.2673633098602,718.2673633098602,718.2673633098602,718.2673633098602,718.2673633098602,718.2673633098602,718.2673633098602,719.6082372665405,2,1.4753501415252686,None,,,,,,,,,,,,,,,,,,27,1,2025-02-18_17h01.33.144,comp,2024.2.4,57.36223939955907,2025-02-18 17h01.42.822444 -0500,
82,82,0,filler_square,None,None,None,None,None,None,None,None,None,None,3,1.35707426071167,None,,,,,0,0,0,0,0,82,82,175,719.6292059421539,,,,,,,,,,,,,,,,,,,,,,,,,,,,,,,,,,,,,,,,,,,,,,,,,,,,,,,,,,,,,,,,,,,,,,,,,,,,,,,,,,91.81817631022496,78.9919230560212,97.55960432828667,117.1844699145766,126.79719024387347,126.79719024387347,4.0,4.1,-194,-279,0,12,218,-255,719.61012840271,719.6102285385132,719.6134324073792,719.6292059421539,719.7673010826111,719.7673010826111,719.7673010826111,719.7673010826111,719.7673010826111,719.7673010826111,719.7673010826111,721.0016298294067,3,1.35707426071167,None,,,,,,,,,,,,,,,,,,27,1,2025-02-18_17h01.33.144,comp,2024.2.4,57.36223939955907,2025-02-18 17h01.42.822444 -0500,
83,83,0,critical,hdw,20.0,3.0,lower,133.0,57.0,78.0,78.0,57.0,133.0,1,22.13020968437195,None,,,,,0,0,0,0,0,83,83,116,721.0170602798462,,,,,,,,,,,,,,,,,,,,,,,,,,,,,,,,,,,,,,,,,,,,,,,,,,,,,,,,,,,,,,,,,,,,,,,,,,,,,,,,,,133.0,57.0,78.0,78.0,57.0,133.0,3.0,3.2,-164,-273,0,1,202,251,721.0031542778015,721.0032315254211,721.0064253807068,721.0170602798462,721.1699306964874,721.1699306964874,721.1699306964874,721.1699306964874,721.1699306964874,721.1699306964874,721.1699306964874,743.1579179763794,1,22.13020968437195,None,,,,,,,,,,,,,,,,,,27,1,2025-02-18_17h01.33.144,comp,2024.2.4,57.36223939955907,2025-02-18 17h01.42.822444 -0500,
84,84,0,filler_square,None,None,None,None,None,None,None,None,None,None,2,2.3312230110168457,None,,,,,0,0,0,0,0,84,84,181,743.1760144233704,,,,,,,,,,,,,,,,,,,,,,,,,,,,,,,,,,,,,,,,,,,,,,,,,,,,,,,,,,,,,,,,,,,,,,,,,,,,,,,,,,114.7543202773803,97.57128293963098,118.28622565909224,118.28622565909224,88.90585120306403,105.923485488941,3.0,3.2,-204,-276,0,-6,208,260,743.1598129272461,743.1599175930023,743.1634469032288,743.1760144233704,743.3263099193573,743.3263099193573,743.3263099193573,743.3263099193573,743.3263099193573,743.3263099193573,743.3263099193573,745.5108706951141,2,2.3312230110168457,None,,,,,,,,,,,,,,,,,,27,1,2025-02-18_17h01.33.144,comp,2024.2.4,57.36223939955907,2025-02-18 17h01.42.822444 -0500,
85,85,0,filler_random,None,None,None,None,None,None,None,None,None,None,2,11.522823333740234,None,,,,,0,0,0,0,0,85,85,137,745.5276334285736,,,,,,,,,,,,,,,,,,,,,,,,,,,,,,,,,,,,,,,,,,,,,,,,,,,,,,,,,,,,,,,,,,,,,,,,,,,,,,,,,,183.67118140772703,84.28172307703976,105.21021546461039,157.58289588796845,110.23628075204272,129.57989401589913,2.1,2.11,-217,285,0,289,240,-271,745.5126798152924,745.5127928256989,745.5161528587341,745.5276334285736,745.6769773960114,745.6769773960114,745.6769773960114,745.6769773960114,745.6769773960114,745.6769773960114,745.6769773960114,757.0624127388,2,11.522823333740234,None,,,,,,,,,,,,,,,,,,27,1,2025-02-18_17h01.33.144,comp,2024.2.4,57.36223939955907,2025-02-18 17h01.42.822444 -0500,
86,86,0,filler_square,None,None,None,None,None,None,None,None,None,None,3,1.1150472164154053,None,,,,,0,0,0,0,0,86,86,209,757.0822312831879,,,,,,,,,,,,,,,,,,,,,,,,,,,,,,,,,,,,,,,,,,,,,,,,,,,,,,,,,,,,,,,,,,,,,,,,,,,,,,,,,,111.56039541834608,69.24614165445621,110.61214979360687,70.74651047921938,115.64852371557868,115.64852371557868,1.0,1.3,314,-263,480,-279,669,-259,757.0642828941345,757.0643606185913,757.0676374435425,757.0822312831879,757.2240686416626,757.2240686416626,757.2240686416626,757.2240686416626,757.2240686416626,757.2240686416626,757.2240686416626,758.2011635303497,3,1.1150472164154053,None,,,,,,,,,,,,,,,,,,27,1,2025-02-18_17h01.33.144,comp,2024.2.4,57.36223939955907,2025-02-18 17h01.42.822444 -0500,
87,87,0,filler_random,None,None,None,None,None,None,None,None,None,None,2,1.3782546520233154,None,,,,,0,0,0,0,0,87,87,164,758.2169997692108,,,,,,,,,,,,,,,,,,,,,,,,,,,,,,,,,,,,,,,,,,,,,,,,,,,,,,,,,,,,,,,,,,,,,,,,,,,,,,,,,,126.98924284455532,144.3836460381541,133.7874181285693,184.65642317110934,67.1850515208802,112.79564994776653,4.0,4.1,-261,-263,0,8,245,-262,758.2028908729553,758.2029676437378,758.2061824798584,758.2169997692108,758.3678567409515,758.3678567409515,758.3678567409515,758.3678567409515,758.3678567409515,758.3678567409515,758.3678567409515,759.5998675823212,2,1.3782546520233154,None,,,,,,,,,,,,,,,,,,27,1,2025-02-18_17h01.33.144,comp,2024.2.4,57.36223939955907,2025-02-18 17h01.42.822444 -0500,
88,88,0,critical,hdw,20.0,1.0,upper,200.0,125.0,141.0,141.0,125.0,200.0,3,1.5320677757263184,None,,,,,0,0,0,0,0,88,88,115,759.6156752109528,,,,,,,,,,,,,,,,,,,,,,,,,,,,,,,,,,,,,,,,,,,,,,,,,,,,,,,,,,,,,,,,,,,,,,,,,,,,,,,,,,200.0,125.0,141.0,141.0,125.0,200.0,1.0,1.1,-709,277,-480,268,-214,259,759.6015667915344,759.6017050743103,759.6049542427063,759.6156752109528,759.764021396637,759.764021396637,759.764021396637,759.764021396637,759.764021396637,759.764021396637,759.764021396637,761.1605050563812,3,1.5320677757263184,None,,,,,,,,,,,,,,,,,,27,1,2025-02-18_17h01.33.144,comp,2024.2.4,57.36223939955907,2025-02-18 17h01.42.822444 -0500,
89,89,0,filler_random,None,None,None,None,None,None,None,None,None,None,3,2.1783766746520996,None,,,,,0,0,0,0,0,89,89,134,761.1762316226959,,,,,,,,,,,,,,,,,,,,,,,,,,,,,,,,,,,,,,,,,,,,,,,,,,,,,,,,,,,,,,,,,,,,,,,,,,,,,,,,,,82.60324966331473,142.50844406947277,80.52377426171493,108.41734930982982,74.74515739787057,191.5461890596578,2.2,2.21,-221,-254,0,267,246,257,761.1624026298523,761.162525177002,761.1655468940735,761.1762316226959,761.3149523735046,761.3149523735046,761.3149523735046,761.3149523735046,761.3149523735046,761.3149523735046,761.3149523735046,763.36563539505,3,2.1783766746520996,None,,,,,,,,,,,,,,,,,,27,1,2025-02-18_17h01.33.144,comp,2024.2.4,57.36223939955907,2025-02-18 17h01.42.822444 -0500,
90,90,0,critical,hdw,35.0,3.0,lower,133.0,57.0,70.0,70.0,57.0,133.0,1,2.653623104095459,None,,,,,0,0,0,0,0,90,90,110,763.3817942142487,,,,,,,,,,,,,,,,,,,,,,,,,,,,,,,,,,,,,,,,,,,,,,,,,,,,,,,,,,,,,,,,,,,,,,,,,,,,,,,,,,133.0,57.0,70.0,70.0,57.0,133.0,3.0,3.2,-160,-266,0,15,198,271,763.367205619812,763.3672828674316,763.3705215454102,763.3817942142487,763.5362410545349,763.5362410545349,763.5362410545349,763.5362410545349,763.5362410545349,763.5362410545349,763.5362410545349,766.0426909923553,1,2.653623104095459,None,,,,,,,,,,,,,,,,,,27,1,2025-02-18_17h01.33.144,comp,2024.2.4,57.36223939955907,2025-02-18 17h01.42.822444 -0500,
91,91,0,critical,dwh,20.0,1.0,lower,78.0,78.0,57.0,133.0,133.0,57.0,1,24.944738149642944,None,,,,,0,0,0,0,0,91,91,66,766.0587139129639,,,,,,,,,,,,,,,,,,,,,,,,,,,,,,,,,,,,,,,,,,,,,,,,,,,,,,,,,,,,,,,,,,,,,,,,,,,,,,,,,,78.0,78.0,57.0,133.0,133.0,57.0,1.0,1.1,-682,271,-480,251,-289,255,766.0443820953369,766.0444629192352,766.0477950572968,766.0587139129639,766.1999852657318,766.1999852657318,766.1999852657318,766.1999852657318,766.1999852657318,766.1999852657318,766.1999852657318,791.0083577632904,1,24.944738149642944,None,,,,,,,,,,,,,,,,,,27,1,2025-02-18_17h01.33.144,comp,2024.2.4,57.36223939955907,2025-02-18 17h01.42.822444 -0500,
92,92,0,critical,whd,20.0,2.1,lower,57.0,133.0,133.0,57.0,78.0,78.0,1,3.338254928588867,None,,,,,0,0,0,0,0,92,92,38,791.0245246887207,,,,,,,,,,,,,,,,,,,,,,,,,,,,,,,,,,,,,,,,,,,,,,,,,,,,,,,,,,,,,,,,,,,,,,,,,,,,,,,,,,57.0,133.0,133.0,57.0,78.0,78.0,2.1,2.11,-191,272,0,270,164,-263,791.0100197792053,791.0101101398468,791.0136721134186,791.0245246887207,791.1737926006317,791.1737926006317,791.1737926006317,791.1737926006317,791.1737926006317,791.1737926006317,791.1737926006317,794.3761229515076,1,3.338254928588867,None,,,,,,,,,,,,,,,,,,27,1,2025-02-18_17h01.33.144,comp,2024.2.4,57.36223939955907,2025-02-18 17h01.42.822444 -0500,
93,93,0,filler_random,None,None,None,None,None,None,None,None,None,None,2,1.0442488193511963,None,,,,,0,0,0,0,0,93,93,167,794.392585515976,,,,,,,,,,,,,,,,,,,,,,,,,,,,,,,,,,,,,,,,,,,,,,,,,,,,,,,,,,,,,,,,,,,,,,,,,,,,,,,,,,60.45532051543376,72.56491715174873,157.3289166417133,179.1101392923209,68.84760551911184,61.23461732721821,2.1,2.12,-222,-285,0,-253,216,259,794.3778650760651,794.3779430389404,794.3811621665955,794.392585515976,794.5454406738281,794.5454406738281,794.5454406738281,794.5454406738281,794.5454406738281,794.5454406738281,794.5454406738281,795.4413628578186,2,1.0442488193511963,None,,,,,,,,,,,,,,,,,,27,1,2025-02-18_17h01.33.144,comp,2024.2.4,57.36223939955907,2025-02-18 17h01.42.822444 -0500,
94,94,0,filler_random,None,None,None,None,None,None,None,None,None,None,2,10.281392812728882,None,,,,,0,0,0,0,0,94,94,154,795.4582259654999,,,,,,,,,,,,,,,,,,,,,,,,,,,,,,,,,,,,,,,,,,,,,,,,,,,,,,,,,,,,,,,,,,,,,,,,,,,,,,,,,,136.19681734818758,171.14754207408504,139.4030824123063,174.26749813259357,72.68811023440632,133.98794244201378,3.0,3.1,-269,288,0,12,250,-276,795.4430849552155,795.4431641101837,795.4464039802551,795.4582259654999,795.6058959960938,795.6058959960938,795.6058959960938,795.6058959960938,795.6058959960938,795.6058959960938,795.6058959960938,805.7473113536835,2,10.281392812728882,None,,,,,,,,,,,,,,,,,,27,1,2025-02-18_17h01.33.144,comp,2024.2.4,57.36223939955907,2025-02-18 17h01.42.822444 -0500,
95,95,0,critical,hwd,20.0,3.0,lower,133.0,57.0,57.0,133.0,78.0,78.0,2,2.2663025856018066,None,,,,,0,0,0,0,0,95,95,104,805.7686233520508,,,,,,,,,,,,,,,,,,,,,,,,,,,,,,,,,,,,,,,,,,,,,,,,,,,,,,,,,,,,,,,,,,,,,,,,,,,,,,,,,,133.0,57.0,57.0,133.0,78.0,78.0,3.0,3.2,-191,-288,0,2,202,282,805.7490892410278,805.7491703033447,805.7526950836182,805.7686233520508,805.9185671806335,805.9185671806335,805.9185671806335,805.9185671806335,805.9185671806335,805.9185671806335,805.9185671806335,808.0453243255615,2,2.2663025856018066,None,,,,,,,,,,,,,,,,,,27,1,2025-02-18_17h01.33.144,comp,2024.2.4,57.36223939955907,2025-02-18 17h01.42.822444 -0500,
96,96,0,filler_square,None,None,None,None,None,None,None,None,None,None,1,1.3367071151733398,None,,,,,0,0,0,0,0,96,96,188,808.0665948390961,,,,,,,,,,,,,,,,,,,,,,,,,,,,,,,,,,,,,,,,,,,,,,,,,,,,,,,,,,,,,,,,,,,,,,,,,,,,,,,,,,173.8001815503061,173.8001815503061,152.5217199255639,153.7393840790624,80.84827617035764,80.10245902131012,3.0,3.1,-260,268,0,-2,213,-274,808.0473637580872,808.047444820404,808.0506911277771,808.0665948390961,808.2134325504303,808.2134325504303,808.2134325504303,808.2134325504303,808.2134325504303,808.2134325504303,808.2134325504303,809.4123616218567,1,1.3367071151733398,None,,,,,,,,,,,,,,,,,,27,1,2025-02-18_17h01.33.144,comp,2024.2.4,57.36223939955907,2025-02-18 17h01.42.822444 -0500,
97,97,0,critical,wdh,35.0,3.0,upper,125.0,200.0,127.0,127.0,200.0,125.0,1,3.350480079650879,None,,,,,0,0,0,0,0,97,97,75,809.4287011623383,,,,,,,,,,,,,,,,,,,,,,,,,,,,,,,,,,,,,,,,,,,,,,,,,,,,,,,,,,,,,,,,,,,,,,,,,,,,,,,,,,125.0,200.0,127.0,127.0,200.0,125.0,3.0,3.1,-260,266,0,-14,222,-271,809.413895368576,809.4139702320099,809.4170396327972,809.4287011623383,809.5694627761841,809.5694627761841,809.5694627761841,809.5694627761841,809.5694627761841,809.5694627761841,809.5694627761841,812.7841024398804,1,3.350480079650879,None,,,,,,,,,,,,,,,,,,27,1,2025-02-18_17h01.33.144,comp,2024.2.4,57.36223939955907,2025-02-18 17h01.42.822444 -0500,
98,98,0,critical,wdh,35.0,3.0,lower,57.0,133.0,70.0,70.0,133.0,57.0,3,2.10884165763855,None,,,,,0,0,0,0,0,98,98,74,812.8003511428833,,,,,,,,,,,,,,,,,,,,,,,,,,,,,,,,,,,,,,,,,,,,,,,,,,,,,,,,,,,,,,,,,,,,,,,,,,,,,,,,,,57.0,133.0,70.0,70.0,133.0,57.0,3.0,3.1,-198,267,0,-14,160,-279,812.7857992649078,812.7859303951263,812.7894139289856,812.8003511428833,812.9481415748596,812.9481415748596,812.9481415748596,812.9481415748596,812.9481415748596,812.9481415748596,812.9481415748596,814.9160192012787,3,2.10884165763855,None,,,,,,,,,,,,,,,,,,27,1,2025-02-18_17h01.33.144,comp,2024.2.4,57.36223939955907,2025-02-18 17h01.42.822444 -0500,
99,99,0,critical,wdh,20.0,1.0,upper,125.0,200.0,141.0,141.0,200.0,125.0,3,12.743125677108765,None,,,,,0,0,0,0,0,99,99,79,814.9322497844696,,,,,,,,,,,,,,,,,,,,,,,,,,,,,,,,,,,,,,,,,,,,,,,,,,,,,,,,,,,,,,,,,,,,,,,,,,,,,,,,,,125.0,200.0,141.0,141.0,200.0,125.0,1.0,1.3,214,-266,480,-259,709,-250,814.9176015853882,814.917680978775,814.9208514690399,814.9322497844696,815.0827462673187,815.0827462673187,815.0827462673187,815.0827462673187,815.0827462673187,815.0827462673187,815.0827462673187,827.6896409988403,3,12.743125677108765,None,,,,,,,,,,,,,,,,,,27,1,2025-02-18_17h01.33.144,comp,2024.2.4,57.36223939955907,2025-02-18 17h01.42.822444 -0500,
100,100,0,filler_random,None,None,None,None,None,None,None,None,None,None,1,1.3074908256530762,None,,,,,0,0,0,0,0,100,100,130,827.7053689956665,,,,,,,,,,,,,,,,,,,,,,,,,,,,,,,,,,,,,,,,,,,,,,,,,,,,,,,,,,,,,,,,,,,,,,,,,,,,,,,,,,170.31009958094592,172.24524253706988,189.19203526405164,58.95892291706682,151.82994902238886,156.7083277885793,3.0,3.1,-212,262,0,-2,204,-282,827.6914103031158,827.6914994716644,827.6949691772461,827.7053689956665,827.8546121120453,827.8546121120453,827.8546121120453,827.8546121120453,827.8546121120453,827.8546121120453,827.8546121120453,829.0236928462982,1,1.3074908256530762,None,,,,,,,,,,,,,,,,,,27,1,2025-02-18_17h01.33.144,comp,2024.2.4,57.36223939955907,2025-02-18 17h01.42.822444 -0500,
101,101,0,filler_random,None,None,None,None,None,None,None,None,None,None,2,5.779364347457886,None,,,,,0,0,0,0,0,101,101,153,829.0406091213226,,,,,,,,,,,,,,,,,,,,,,,,,,,,,,,,,,,,,,,,,,,,,,,,,,,,,,,,,,,,,,,,,,,,,,,,,,,,,,,,,,58.94170967476113,78.71480959681251,166.3851885578784,75.64847501125809,167.69451720957034,75.99979845829337,2.1,2.12,-173,-289,0,-277,172,289,829.0253643989563,829.025440454483,829.0293366909027,829.0406091213226,829.1930685043335,829.1930685043335,829.1930685043335,829.1930685043335,829.1930685043335,829.1930685043335,829.1930685043335,834.8355221748352,2,5.779364347457886,None,,,,,,,,,,,,,,,,,,27,1,2025-02-18_17h01.33.144,comp,2024.2.4,57.36223939955907,2025-02-18 17h01.42.822444 -0500,
102,102,0,critical,dhw,20.0,3.0,upper,141.0,141.0,200.0,125.0,125.0,200.0,3,4.1835410594940186,None,,,,,0,0,0,0,0,102,102,57,834.8522818088531,,,,,,,,,,,,,,,,,,,,,,,,,,,,,,,,,,,,,,,,,,,,,,,,,,,,,,,,,,,,,,,,,,,,,,,,,,,,,,,,,,141.0,141.0,200.0,125.0,125.0,200.0,3.0,3.1,-229,264,0,8,258,-285,834.837055683136,834.8371305465698,834.8400299549103,834.8522818088531,834.9945051670074,834.9945051670074,834.9945051670074,834.9945051670074,834.9945051670074,834.9945051670074,834.9945051670074,839.0401041507721,3,4.1835410594940186,None,,,,,,,,,,,,,,,,,,27,1,2025-02-18_17h01.33.144,comp,2024.2.4,57.36223939955907,2025-02-18 17h01.42.822444 -0500,
103,103,0,critical,dhw,35.0,4.0,upper,127.0,127.0,200.0,125.0,125.0,200.0,3,2.259439468383789,None,,,,,0,0,0,0,0,103,103,53,839.0566098690033,,,,,,,,,,,,,,,,,,,,,,,,,,,,,,,,,,,,,,,,,,,,,,,,,,,,,,,,,,,,,,,,,,,,,,,,,,,,,,,,,,127.0,127.0,200.0,125.0,125.0,200.0,4.0,4.1,-222,-280,0,-18,258,-262,839.0415751934052,839.0416510105133,839.0457937717438,839.0566098690033,839.206698179245,839.206698179245,839.206698179245,839.206698179245,839.206698179245,839.206698179245,839.206698179245,841.3246521949768,3,2.259439468383789,None,,,,,,,,,,,,,,,,,,27,1,2025-02-18_17h01.33.144,comp,2024.2.4,57.36223939955907,2025-02-18 17h01.42.822444 -0500,
104,104,0,filler_random,None,None,None,None,None,None,None,None,None,None,2,7.12474799156189,None,,,,,0,0,0,0,0,104,104,146,841.3426322937012,,,,,,,,,,,,,,,,,,,,,,,,,,,,,,,,,,,,,,,,,,,,,,,,,,,,,,,,,,,,,,,,,,,,,,,,,,,,,,,,,,97.0177812019253,196.1743642523394,122.51203413130249,154.4704009427672,64.58954228249341,151.9766626355012,2.2,2.22,-271,288,0,-253,249,-289,841.3263552188873,841.3264563083649,841.3294539451599,841.3426322937012,841.4903087615967,841.4903087615967,841.4903087615967,841.4903087615967,841.4903087615967,841.4903087615967,841.4903087615967,848.4821255207062,2,7.12474799156189,None,,,,,,,,,,,,,,,,,,27,1,2025-02-18_17h01.33.144,comp,2024.2.4,57.36223939955907,2025-02-18 17h01.42.822444 -0500,
105,105,0,critical,wdh,20.0,4.0,lower,57.0,133.0,78.0,78.0,133.0,57.0,3,3.3220813274383545,None,,,,,0,0,0,0,0,105,105,82,848.4979219436646,,,,,,,,,,,,,,,,,,,,,,,,,,,,,,,,,,,,,,,,,,,,,,,,,,,,,,,,,,,,,,,,,,,,,,,,,,,,,,,,,,57.0,133.0,78.0,78.0,133.0,57.0,4.0,4.1,-202,-283,0,5,164,-256,848.483640909195,848.4837162494659,848.4867107868195,848.4979219436646,848.6403584480286,848.6403584480286,848.6403584480286,848.6403584480286,848.6403584480286,848.6403584480286,848.6403584480286,851.8274698257446,3,3.3220813274383545,None,,,,,,,,,,,,,,,,,,27,1,2025-02-18_17h01.33.144,comp,2024.2.4,57.36223939955907,2025-02-18 17h01.42.822444 -0500,
106,106,0,filler_random,None,None,None,None,None,None,None,None,None,None,3,1.1757481098175049,None,,,,,0,0,0,0,0,106,106,144,851.8441910743713,,,,,,,,,,,,,,,,,,,,,,,,,,,,,,,,,,,,,,,,,,,,,,,,,,,,,,,,,,,,,,,,,,,,,,,,,,,,,,,,,,118.30760958286251,148.9250221610613,156.55577233304277,65.64083979329405,189.26873972152225,171.2194394419759,1.0,1.3,277,-279,480,-278,694,-271,851.8292210102081,851.8292987346649,851.8333492279053,851.8441910743713,851.9942665100098,851.9942665100098,851.9942665100098,851.9942665100098,851.9942665100098,851.9942665100098,851.9942665100098,853.0301768779755,3,1.1757481098175049,None,,,,,,,,,,,,,,,,,,27,1,2025-02-18_17h01.33.144,comp,2024.2.4,57.36223939955907,2025-02-18 17h01.42.822444 -0500,
107,107,0,critical,whd,20.0,4.0,lower,57.0,133.0,133.0,57.0,78.0,78.0,1,2.5979526042938232,None,,,,,0,0,0,0,0,107,107,94,853.0458195209503,,,,,,,,,,,,,,,,,,,,,,,,,,,,,,,,,,,,,,,,,,,,,,,,,,,,,,,,,,,,,,,,,,,,,,,,,,,,,,,,,,57.0,133.0,133.0,57.0,78.0,78.0,4.0,4.1,-191,-272,0,-13,164,-287,853.031854391098,853.0319306850433,853.035055398941,853.0458195209503,853.1946640014648,853.1946640014648,853.1946640014648,853.1946640014648,853.1946640014648,853.1946640014648,853.1946640014648,855.6614887714386,1,2.5979526042938232,None,,,,,,,,,,,,,,,,,,27,1,2025-02-18_17h01.33.144,comp,2024.2.4,57.36223939955907,2025-02-18 17h01.42.822444 -0500,
108,108,0,critical,hwd,35.0,1.0,lower,133.0,57.0,57.0,133.0,70.0,70.0,2,17.173945665359497,None,,,,,0,0,0,0,0,108,108,96,855.677574634552,,,,,,,,,,,,,,,,,,,,,,,,,,,,,,,,,,,,,,,,,,,,,,,,,,,,,,,,,,,,,,,,,,,,,,,,,,,,,,,,,,133.0,57.0,57.0,133.0,70.0,70.0,1.0,1.1,-671,282,-480,269,-282,261,855.6630716323853,855.6631491184235,855.6663701534271,855.677574634552,855.8283226490021,855.8283226490021,855.8283226490021,855.8283226490021,855.8283226490021,855.8283226490021,855.8283226490021,872.8675220012665,2,17.173945665359497,None,,,,,,,,,,,,,,,,,,27,1,2025-02-18_17h01.33.144,comp,2024.2.4,57.36223939955907,2025-02-18 17h01.42.822444 -0500,
109,109,0,critical,wdh,20.0,2.1,upper,125.0,200.0,141.0,141.0,200.0,125.0,1,3.061356544494629,None,,,,,0,0,0,0,0,109,109,11,872.8879179954529,,,,,,,,,,,,,,,,,,,,,,,,,,,,,,,,,,,,,,,,,,,,,,,,,,,,,,,,,,,,,,,,,,,,,,,,,,,,,,,,,,125.0,200.0,141.0,141.0,200.0,125.0,2.1,2.12,-266,-255,0,-265,229,283,872.8691318035126,872.8692064285278,872.8724865913391,872.8879179954529,873.0354082584381,873.0354082584381,873.0354082584381,873.0354082584381,873.0354082584381,873.0354082584381,873.0354082584381,875.9566643238068,1,3.061356544494629,None,,,,,,,,,,,,,,,,,,27,1,2025-02-18_17h01.33.144,comp,2024.2.4,57.36223939955907,2025-02-18 17h01.42.822444 -0500,
110,110,0,filler_square,None,None,None,None,None,None,None,None,None,None,1,1.2042951583862305,None,,,,,0,0,0,0,0,110,110,192,875.9752368927002,,,,,,,,,,,,,,,,,,,,,,,,,,,,,,,,,,,,,,,,,,,,,,,,,,,,,,,,,,,,,,,,,,,,,,,,,,,,,,,,,,143.37406537767788,143.37406537767788,65.59611720805256,108.52613391016598,83.14842917537149,67.80846719965939,3.0,3.1,-222,253,0,-17,184,-254,875.958637714386,875.9587752819061,875.9617681503296,875.9752368927002,876.1207389831543,876.1207389831543,876.1207389831543,876.1207389831543,876.1207389831543,876.1207389831543,876.1207389831543,877.1924533843994,1,1.2042951583862305,None,,,,,,,,,,,,,,,,,,27,1,2025-02-18_17h01.33.144,comp,2024.2.4,57.36223939955907,2025-02-18 17h01.42.822444 -0500,
111,111,0,critical,hdw,20.0,2.1,lower,133.0,57.0,78.0,78.0,57.0,133.0,1,3.919177532196045,None,,,,,0,0,0,0,0,111,111,46,877.2127397060394,,,,,,,,,,,,,,,,,,,,,,,,,,,,,,,,,,,,,,,,,,,,,,,,,,,,,,,,,,,,,,,,,,,,,,,,,,,,,,,,,,133.0,57.0,78.0,78.0,57.0,133.0,2.1,2.12,-164,-289,0,-261,202,284,877.1940534114838,877.1941337585449,877.1971116065979,877.2127397060394,877.3556706905365,877.3556706905365,877.3556706905365,877.3556706905365,877.3556706905365,877.3556706905365,877.3556706905365,881.1483681201935,1,3.919177532196045,None,,,,,,,,,,,,,,,,,,27,1,2025-02-18_17h01.33.144,comp,2024.2.4,57.36223939955907,2025-02-18 17h01.42.822444 -0500,
112,112,0,filler_square,None,None,None,None,None,None,None,None,None,None,2,3.039736032485962,None,,,,,0,0,0,0,0,112,112,199,881.1644303798676,,,,,,,,,,,,,,,,,,,,,,,,,,,,,,,,,,,,,,,,,,,,,,,,,,,,,,,,,,,,,,,,,,,,,,,,,,,,,,,,,,66.36466711319358,66.57775812931604,69.36458257306388,69.36458257306388,58.513182958752296,68.40782963556596,1.0,1.1,-644,276,-480,254,-315,290,881.150149345398,881.1502256393433,881.1531014442444,881.1644303798676,881.3048486709595,881.3048486709595,881.3048486709595,881.3048486709595,881.3048486709595,881.3048486709595,881.3048486709595,884.2064683437347,2,3.039736032485962,None,,,,,,,,,,,,,,,,,,27,1,2025-02-18_17h01.33.144,comp,2024.2.4,57.36223939955907,2025-02-18 17h01.42.822444 -0500,
113,113,0,filler_square,None,None,None,None,None,None,None,None,None,None,3,1.3803412914276123,None,,,,,0,0,0,0,0,113,113,191,884.2233438491821,,,,,,,,,,,,,,,,,,,,,,,,,,,,,,,,,,,,,,,,,,,,,,,,,,,,,,,,,,,,,,,,,,,,,,,,,,,,,,,,,,61.08196058962753,104.31553243060667,121.93126780215249,135.4011650086569,178.48642109223243,178.48642109223243,2.1,2.11,-216,284,0,279,253,-259,884.2084639072418,884.2085947990417,884.2125098705292,884.2233438491821,884.3802947998047,884.3802947998047,884.3802947998047,884.3802947998047,884.3802947998047,884.3802947998047,884.3802947998047,885.6221463680267,3,1.3803412914276123,None,,,,,,,,,,,,,,,,,,27,1,2025-02-18_17h01.33.144,comp,2024.2.4,57.36223939955907,2025-02-18 17h01.42.822444 -0500,
114,114,0,critical,wdh,35.0,4.0,lower,57.0,133.0,70.0,70.0,133.0,57.0,1,6.825147390365601,None,,,,,0,0,0,0,0,114,114,76,885.6432349681854,,,,,,,,,,,,,,,,,,,,,,,,,,,,,,,,,,,,,,,,,,,,,,,,,,,,,,,,,,,,,,,,,,,,,,,,,,,,,,,,,,57.0,133.0,70.0,70.0,133.0,57.0,4.0,4.2,-198,12,0,-256,160,15,885.6235156059265,885.6236126422882,885.626785993576,885.6432349681854,885.7881016731262,885.7881016731262,885.7881016731262,885.7881016731262,885.7881016731262,885.7881016731262,885.7881016731262,892.4723856449127,1,6.825147390365601,None,,,,,,,,,,,,,,,,,,27,1,2025-02-18_17h01.33.144,comp,2024.2.4,57.36223939955907,2025-02-18 17h01.42.822444 -0500,
115,115,0,filler_square,None,None,None,None,None,None,None,None,None,None,2,0.8985462188720703,None,,,,,0,0,0,0,0,115,115,195,892.4896860122681,,,,,,,,,,,,,,,,,,,,,,,,,,,,,,,,,,,,,,,,,,,,,,,,,,,,,,,,,,,,,,,,,,,,,,,,,,,,,,,,,,137.03986772130378,104.11178739644811,167.314325407152,167.314325407152,103.47055884592984,89.05265599033788,3.0,3.2,-232,-254,0,-10,224,257,892.4741592407227,892.4742343425751,892.4773659706116,892.4896860122681,892.6403505802155,892.6403505802155,892.6403505802155,892.6403505802155,892.6403505802155,892.6403505802155,892.6403505802155,893.3917136192322,2,0.8985462188720703,None,,,,,,,,,,,,,,,,,,27,1,2025-02-18_17h01.33.144,comp,2024.2.4,57.36223939955907,2025-02-18 17h01.42.822444 -0500,
116,116,0,critical,dhw,20.0,2.1,lower,78.0,78.0,133.0,57.0,57.0,133.0,3,3.043914556503296,None,,,,,0,0,0,0,0,116,116,2,893.4077310562134,,,,,,,,,,,,,,,,,,,,,,,,,,,,,,,,,,,,,,,,,,,,,,,,,,,,,,,,,,,,,,,,,,,,,,,,,,,,,,,,,,78.0,78.0,133.0,57.0,57.0,133.0,2.1,2.12,-164,-276,0,-265,191,258,893.3933222293854,893.3934133052826,893.3970081806183,893.4077310562134,893.5559499263763,893.5559499263763,893.5559499263763,893.5559499263763,893.5559499263763,893.5559499263763,893.5559499263763,896.4615244865417,3,3.043914556503296,None,,,,,,,,,,,,,,,,,,27,1,2025-02-18_17h01.33.144,comp,2024.2.4,57.36223939955907,2025-02-18 17h01.42.822444 -0500,
117,117,0,critical,hwd,35.0,3.0,lower,133.0,57.0,57.0,133.0,70.0,70.0,2,11.845719337463379,None,,,,,0,0,0,0,0,117,117,98,896.4786128997803,,,,,,,,,,,,,,,,,,,,,,,,,,,,,,,,,,,,,,,,,,,,,,,,,,,,,,,,,,,,,,,,,,,,,,,,,,,,,,,,,,133.0,57.0,57.0,133.0,70.0,70.0,3.0,3.2,-191,-281,0,-16,198,280,896.4631040096283,896.4631843566895,896.4671294689178,896.4786128997803,896.6306943893433,896.6306943893433,896.6306943893433,896.6306943893433,896.6306943893433,896.6306943893433,896.6306943893433,908.3281602859497,2,11.845719337463379,None,,,,,,,,,,,,,,,,,,27,1,2025-02-18_17h01.33.144,comp,2024.2.4,57.36223939955907,2025-02-18 17h01.42.822444 -0500,
118,118,0,catch,None,None,None,None,None,None,None,None,None,None,1,1.1072380542755127,None,,,,,0,0,0,0,0,118,118,120,908.3449828624725,,,,,,,,,,,,,,,,,,,,,,,,,,,,,,,,,,,,,,,,,,,,,,,,,,,,,,,,,,,,,,,,,,,,,,,,,,,,,,,,,,157,168,131,59,69,121,2.2,2.22,-210,264,0,-284,186,-260,908.3300557136536,908.3301320075989,908.333253622055,908.3449828624725,908.4986021518707,908.4986021518707,908.4986021518707,908.4986021518707,908.4986021518707,908.4986021518707,908.4986021518707,909.4612390995026,1,1.1072380542755127,None,,,,,,,,,,,,,,,,,,27,1,2025-02-18_17h01.33.144,comp,2024.2.4,57.36223939955907,2025-02-18 17h01.42.822444 -0500,
119,119,0,critical,hwd,35.0,2.1,upper,200.0,125.0,125.0,200.0,127.0,127.0,2,2.7343297004699707,None,,,,,0,0,0,0,0,119,119,41,909.4781692028046,,,,,,,,,,,,,,,,,,,,,,,,,,,,,,,,,,,,,,,,,,,,,,,,,,,,,,,,,,,,,,,,,,,,,,,,,,,,,,,,,,200.0,125.0,125.0,200.0,127.0,127.0,2.1,2.11,-258,265,0,275,260,-255,909.4628267288208,909.4629063606262,909.4661750793457,909.4781692028046,909.6359362602234,909.6359362602234,909.6359362602234,909.6359362602234,909.6359362602234,909.6359362602234,909.6359362602234,912.2145178318024,2,2.7343297004699707,None,,,,,,,,,,,,,,,,,,27,1,2025-02-18_17h01.33.144,comp,2024.2.4,57.36223939955907,2025-02-18 17h01.42.822444 -0500,
120,120,0,critical,dwh,20.0,2.1,upper,141.0,141.0,125.0,200.0,200.0,125.0,2,6.665825843811035,None,,,,,0,0,0,0,0,120,120,31,912.2347402572632,,,,,,,,,,,,,,,,,,,,,,,,,,,,,,,,,,,,,,,,,,,,,,,,,,,,,,,,,,,,,,,,,,,,,,,,,,,,,,,,,,141.0,141.0,125.0,200.0,200.0,125.0,2.1,2.12,-266,-274,0,-261,258,258,912.2161021232605,912.2161905765533,912.219131231308,912.2347402572632,912.3835189342499,912.3835189342499,912.3835189342499,912.3835189342499,912.3835189342499,912.3835189342499,912.3835189342499,918.9178185462952,2,6.665825843811035,None,,,,,,,,,,,,,,,,,,27,1,2025-02-18_17h01.33.144,comp,2024.2.4,57.36223939955907,2025-02-18 17h01.42.822444 -0500,
121,121,0,filler_square,None,None,None,None,None,None,None,None,None,None,3,24.021941900253296,None,,,,,0,0,0,0,0,121,121,171,918.9348301887512,,,,,,,,,,,,,,,,,,,,,,,,,,,,,,,,,,,,,,,,,,,,,,,,,,,,,,,,,,,,,,,,,,,,,,,,,,,,,,,,,,70.06590385913873,69.97740170744386,66.7393143619535,63.34105303273749,73.98260403856537,73.98260403856537,3.0,3.2,-163,-279,0,18,165,268,918.9200766086578,918.9201531410217,918.9236397743225,918.9348301887512,919.0822870731354,919.0822870731354,919.0822870731354,919.0822870731354,919.0822870731354,919.0822870731354,919.0822870731354,942.9599869251251,3,24.021941900253296,None,,,,,,,,,,,,,,,,,,27,1,2025-02-18_17h01.33.144,comp,2024.2.4,57.36223939955907,2025-02-18 17h01.42.822444 -0500,
122,122,0,critical,whd,20.0,4.0,upper,125.0,200.0,200.0,125.0,141.0,141.0,1,4.756587266921997,None,,,,,0,0,0,0,0,122,122,95,942.9763479232788,,,,,,,,,,,,,,,,,,,,,,,,,,,,,,,,,,,,,,,,,,,,,,,,,,,,,,,,,,,,,,,,,,,,,,,,,,,,,,,,,,125.0,200.0,200.0,125.0,141.0,141.0,4.0,4.1,-258,-260,0,1,229,-257,942.9615902900696,942.9616684913635,942.9655570983887,942.9763479232788,943.126175403595,943.126175403595,943.126175403595,943.126175403595,943.126175403595,943.126175403595,943.126175403595,947.7445983886719,1,4.756587266921997,None,,,,,,,,,,,,,,,,,,27,1,2025-02-18_17h01.33.144,comp,2024.2.4,57.36223939955907,2025-02-18 17h01.42.822444 -0500,
123,123,0,critical,whd,35.0,3.0,upper,125.0,200.0,200.0,125.0,127.0,127.0,1,2.1968002319335938,None,,,,,0,0,0,0,0,123,123,87,947.760153055191,,,,,,,,,,,,,,,,,,,,,,,,,,,,,,,,,,,,,,,,,,,,,,,,,,,,,,,,,,,,,,,,,,,,,,,,,,,,,,,,,,125.0,200.0,200.0,125.0,127.0,127.0,3.0,3.1,-258,252,0,-5,222,-266,947.746152639389,947.7462298870087,947.7494168281555,947.760153055191,947.9127042293549,947.9127042293549,947.9127042293549,947.9127042293549,947.9127042293549,947.9127042293549,947.9127042293549,949.9632396697998,1,2.1968002319335938,None,,,,,,,,,,,,,,,,,,27,1,2025-02-18_17h01.33.144,comp,2024.2.4,57.36223939955907,2025-02-18 17h01.42.822444 -0500,
124,124,0,filler_square,None,None,None,None,None,None,None,None,None,None,2,3.39375638961792,None,,,,,0,0,0,0,0,124,124,196,949.979133605957,,,,,,,,,,,,,,,,,,,,,,,,,,,,,,,,,,,,,,,,,,,,,,,,,,,,,,,,,,,,,,,,,,,,,,,,,,,,,,,,,,98.75110903182684,65.91707207568,100.68484230044169,100.68484230044169,91.72197060480133,90.84525702662995,2.1,2.12,-179,-261,0,-286,192,275,949.9650013446808,949.9650814533234,949.9680688381195,949.979133605957,950.1255598068237,950.1255598068237,950.1255598068237,950.1255598068237,950.1255598068237,950.1255598068237,950.1255598068237,953.3763468265533,2,3.39375638961792,None,,,,,,,,,,,,,,,,,,27,1,2025-02-18_17h01.33.144,comp,2024.2.4,57.36223939955907,2025-02-18 17h01.42.822444 -0500,
125,125,0,critical,dhw,20.0,1.0,lower,78.0,78.0,133.0,57.0,57.0,133.0,2,2.299858331680298,None,,,,,0,0,0,0,0,125,125,54,953.3930470943451,,,,,,,,,,,,,,,,,,,,,,,,,,,,,,,,,,,,,,,,,,,,,,,,,,,,,,,,,,,,,,,,,,,,,,,,,,,,,,,,,,78.0,78.0,133.0,57.0,57.0,133.0,1.0,1.3,316,-255,480,-264,671,-285,953.3779592514038,953.3780400753021,953.3815133571625,953.3930470943451,953.5485978126526,953.5485978126526,953.5485978126526,953.5485978126526,953.5485978126526,953.5485978126526,953.5485978126526,955.7116558551788,2,2.299858331680298,None,,,,,,,,,,,,,,,,,,27,1,2025-02-18_17h01.33.144,comp,2024.2.4,57.36223939955907,2025-02-18 17h01.42.822444 -0500,
126,126,0,critical,whd,35.0,3.0,lower,57.0,133.0,133.0,57.0,70.0,70.0,1,5.109173774719238,None,,,,,0,0,0,0,0,126,126,86,955.7277393341064,,,,,,,,,,,,,,,,,,,,,,,,,,,,,,,,,,,,,,,,,,,,,,,,,,,,,,,,,,,,,,,,,,,,,,,,,,,,,,,,,,57.0,133.0,133.0,57.0,70.0,70.0,3.0,3.2,-191,-269,0,-5,160,284,955.7131662368774,955.7132844924927,955.7173955440521,955.7277393341064,955.8853421211243,955.8853421211243,955.8853421211243,955.8853421211243,955.8853421211243,955.8853421211243,955.8853421211243,960.8463401794434,1,5.109173774719238,None,,,,,,,,,,,,,,,,,,27,1,2025-02-18_17h01.33.144,comp,2024.2.4,57.36223939955907,2025-02-18 17h01.42.822444 -0500,
127,127,0,critical,wdh,35.0,1.0,lower,57.0,133.0,70.0,70.0,133.0,57.0,3,3.710324764251709,None,,,,,0,0,0,0,0,127,127,72,960.8619306087494,,,,,,,,,,,,,,,,,,,,,,,,,,,,,,,,,,,,,,,,,,,,,,,,,,,,,,,,,,,,,,,,,,,,,,,,,,,,,,,,,,57.0,133.0,70.0,70.0,133.0,57.0,1.0,1.1,-678,281,-480,263,-320,279,960.8479044437408,960.8479821681976,960.8511590957642,960.8619306087494,961.0113742351532,961.0113742351532,961.0113742351532,961.0113742351532,961.0113742351532,961.0113742351532,961.0113742351532,964.5840845108032,3,3.710324764251709,None,,,,,,,,,,,,,,,,,,27,1,2025-02-18_17h01.33.144,comp,2024.2.4,57.36223939955907,2025-02-18 17h01.42.822444 -0500,
128,128,0,critical,whd,20.0,2.1,lower,57.0,133.0,133.0,57.0,78.0,78.0,1,43.224326848983765,None,,,,,0,0,0,0,0,128,128,14,964.604439496994,,,,,,,,,,,,,,,,,,,,,,,,,,,,,,,,,,,,,,,,,,,,,,,,,,,,,,,,,,,,,,,,,,,,,,,,,,,,,,,,,,57.0,133.0,133.0,57.0,78.0,78.0,2.1,2.12,-191,-263,0,-256,164,264,964.5856964588165,964.5857782363892,964.5891110897064,964.604439496994,964.7472665309906,964.7472665309906,964.7472665309906,964.7472665309906,964.7472665309906,964.7472665309906,964.7472665309906,1007.8440239429474,1,43.224326848983765,None,,,,,,,,,,,,,,,,,,27,1,2025-02-18_17h01.33.144,comp,2024.2.4,57.36223939955907,2025-02-18 17h01.42.822444 -0500,
129,129,0,filler_square,None,None,None,None,None,None,None,None,None,None,1,1.236539602279663,None,,,,,0,0,0,0,0,129,129,170,1007.8643529415131,,,,,,,,,,,,,,,,,,,,,,,,,,,,,,,,,,,,,,,,,,,,,,,,,,,,,,,,,,,,,,,,,,,,,,,,,,,,,,,,,,108.3443593323986,108.3443593323986,78.71834241928504,84.82462047897536,57.4376030464545,95.48779314387428,3.0,3.1,-193,287,0,2,186,-261,1007.8459959030151,1007.8460719585419,1007.849271774292,1007.8643529415131,1007.9997932910919,1007.9997932910919,1007.9997932910919,1007.9997932910919,1007.9997932910919,1007.9997932910919,1007.9997932910919,1009.1040496826172,1,1.236539602279663,None,,,,,,,,,,,,,,,,,,27,1,2025-02-18_17h01.33.144,comp,2024.2.4,57.36223939955907,2025-02-18 17h01.42.822444 -0500,
130,130,0,critical,hwd,20.0,2.1,lower,133.0,57.0,57.0,133.0,78.0,78.0,2,1.2334001064300537,None,,,,,0,0,0,0,0,130,130,18,1009.1242594718933,,,,,,,,,,,,,,,,,,,,,,,,,,,,,,,,,,,,,,,,,,,,,,,,,,,,,,,,,,,,,,,,,,,,,,,,,,,,,,,,,,133.0,57.0,57.0,133.0,78.0,78.0,2.1,2.11,-191,278,0,254,202,-282,1009.1055157184601,1009.1056306362152,1009.1085603237152,1009.1242594718933,1009.2623229026794,1009.2623229026794,1009.2623229026794,1009.2623229026794,1009.2623229026794,1009.2623229026794,1009.2623229026794,1010.3663618564606,2,1.2334001064300537,None,,,,,,,,,,,,,,,,,,27,1,2025-02-18_17h01.33.144,comp,2024.2.4,57.36223939955907,2025-02-18 17h01.42.822444 -0500,
131,131,0,critical,wdh,20.0,4.0,upper,125.0,200.0,141.0,141.0,200.0,125.0,1,2.646315813064575,None,,,,,0,0,0,0,0,131,131,83,1010.3830955028534,,,,,,,,,,,,,,,,,,,,,,,,,,,,,,,,,,,,,,,,,,,,,,,,,,,,,,,,,,,,,,,,,,,,,,,,,,,,,,,,,,125.0,200.0,141.0,141.0,200.0,125.0,4.0,4.2,-266,-16,0,-264,229,-1,1010.368043422699,1010.3681724071503,1010.371584892273,1010.3830955028534,1010.5289769172668,1010.5289769172668,1010.5289769172668,1010.5289769172668,1010.5289769172668,1010.5289769172668,1010.5289769172668,1013.0367057323456,1,2.646315813064575,None,,,,,,,,,,,,,,,,,,27,1,2025-02-18_17h01.33.144,comp,2024.2.4,57.36223939955907,2025-02-18 17h01.42.822444 -0500,
132,132,0,critical,dhw,35.0,2.1,upper,127.0,127.0,200.0,125.0,125.0,200.0,3,1.4939980506896973,None,,,,,0,0,0,0,0,132,132,25,1013.0548009872437,,,,,,,,,,,,,,,,,,,,,,,,,,,,,,,,,,,,,,,,,,,,,,,,,,,,,,,,,,,,,,,,,,,,,,,,,,,,,,,,,,127.0,127.0,200.0,125.0,125.0,200.0,2.1,2.11,-222,253,0,279,258,-273,1013.0382392406464,1013.0383162498474,1013.0415985584259,1013.0548009872437,1013.197083234787,1013.197083234787,1013.197083234787,1013.197083234787,1013.197083234787,1013.197083234787,1013.197083234787,1014.5618975162506,3,1.4939980506896973,None,,,,,,,,,,,,,,,,,,27,1,2025-02-18_17h01.33.144,comp,2024.2.4,57.36223939955907,2025-02-18 17h01.42.822444 -0500,
133,133,0,filler_square,None,None,None,None,None,None,None,None,None,None,1,17.566612482070923,None,,,,,0,0,0,0,0,133,133,183,1014.5824880599976,,,,,,,,,,,,,,,,,,,,,,,,,,,,,,,,,,,,,,,,,,,,,,,,,,,,,,,,,,,,,,,,,,,,,,,,,,,,,,,,,,67.06891575054648,67.06891575054648,66.95323579249339,61.65178065805386,60.51035618090179,65.84378152260146,3.0,3.2,-160,-286,0,17,160,261,1014.5636851787567,1014.5637645721436,1014.5671374797821,1014.5824880599976,1014.7290947437286,1014.7290947437286,1014.7290947437286,1014.7290947437286,1014.7290947437286,1014.7290947437286,1014.7290947437286,1032.1678025722504,1,17.566612482070923,None,,,,,,,,,,,,,,,,,,27,1,2025-02-18_17h01.33.144,comp,2024.2.4,57.36223939955907,2025-02-18 17h01.42.822444 -0500,
134,134,0,filler_square,None,None,None,None,None,None,None,None,None,None,3,1.3287732601165771,None,,,,,0,0,0,0,0,134,134,202,1032.1889011859894,,,,,,,,,,,,,,,,,,,,,,,,,,,,,,,,,,,,,,,,,,,,,,,,,,,,,,,,,,,,,,,,,,,,,,,,,,,,,,,,,,62.520348980543254,64.5481109450294,63.2776597883929,62.74175811632673,75.27847233319667,75.27847233319667,4.0,4.2,-160,16,0,-266,165,-13,1032.1696865558624,1032.169764995575,1032.1733589172363,1032.1889011859894,1032.337646484375,1032.337646484375,1032.337646484375,1032.337646484375,1032.337646484375,1032.337646484375,1032.337646484375,1033.5229728221893,3,1.3287732601165771,None,,,,,,,,,,,,,,,,,,27,1,2025-02-18_17h01.33.144,comp,2024.2.4,57.36223939955907,2025-02-18 17h01.42.822444 -0500,
135,135,0,critical,hdw,35.0,1.0,upper,200.0,125.0,127.0,127.0,125.0,200.0,1,24.435627937316895,None,,,,,0,0,0,0,0,135,135,109,1033.538679599762,,,,,,,,,,,,,,,,,,,,,,,,,,,,,,,,,,,,,,,,,,,,,,,,,,,,,,,,,,,,,,,,,,,,,,,,,,,,,,,,,,200.0,125.0,127.0,127.0,125.0,200.0,1.0,1.2,-222,6,0,-20,260,-17,1033.5246920585632,1033.5248200893402,1033.5280871391296,1033.538679599762,1033.6866281032562,1033.6866281032562,1033.6866281032562,1033.6866281032562,1033.6866281032562,1033.6866281032562,1033.6866281032562,1057.9815850257874,1,24.435627937316895,None,,,,,,,,,,,,,,,,,,27,1,2025-02-18_17h01.33.144,comp,2024.2.4,57.36223939955907,2025-02-18 17h01.42.822444 -0500,
136,136,0,critical,dwh,35.0,2.1,upper,127.0,127.0,125.0,200.0,200.0,125.0,2,5.4368462562561035,None,,,,,0,0,0,0,0,136,136,5,1058.0012249946594,,,,,,,,,,,,,,,,,,,,,,,,,,,,,,,,,,,,,,,,,,,,,,,,,,,,,,,,,,,,,,,,,,,,,,,,,,,,,,,,,,127.0,127.0,125.0,200.0,200.0,125.0,2.1,2.12,-260,-279,0,-277,258,259,1057.9831018447876,1057.983179807663,1057.9861223697662,1058.0012249946594,1058.14399933815,1058.14399933815,1058.14399933815,1058.14399933815,1058.14399933815,1058.14399933815,1058.14399933815,1063.446053981781,2,5.4368462562561035,None,,,,,,,,,,,,,,,,,,27,1,2025-02-18_17h01.33.144,comp,2024.2.4,57.36223939955907,2025-02-18 17h01.42.822444 -0500,
137,137,0,critical,wdh,20.0,2.1,lower,57.0,133.0,78.0,78.0,133.0,57.0,3,1.8378663063049316,None,,,,,0,0,0,0,0,137,137,34,1063.463296175003,,,,,,,,,,,,,,,,,,,,,,,,,,,,,,,,,,,,,,,,,,,,,,,,,,,,,,,,,,,,,,,,,,,,,,,,,,,,,,,,,,57.0,133.0,78.0,78.0,133.0,57.0,2.1,2.11,-202,263,0,250,164,-251,1063.447633266449,1063.4477112293243,1063.4514598846436,1063.463296175003,1063.6090378761292,1063.6090378761292,1063.6090378761292,1063.6090378761292,1063.6090378761292,1063.6090378761292,1063.6090378761292,1065.3111300468445,3,1.8378663063049316,None,,,,,,,,,,,,,,,,,,27,1,2025-02-18_17h01.33.144,comp,2024.2.4,57.36223939955907,2025-02-18 17h01.42.822444 -0500,
138,138,0,critical,hwd,35.0,4.0,upper,200.0,125.0,125.0,200.0,127.0,127.0,2,5.794756889343262,None,,,,,0,0,0,0,0,138,138,101,1065.33140873909,,,,,,,,,,,,,,,,,,,,,,,,,,,,,,,,,,,,,,,,,,,,,,,,,,,,,,,,,,,,,,,,,,,,,,,,,,,,,,,,,,200.0,125.0,125.0,200.0,127.0,127.0,4.0,4.1,-258,-288,0,-16,260,-256,1065.3127295970917,1065.3128271102905,1065.3161664009094,1065.33140873909,1065.4796085357666,1065.4796085357666,1065.4796085357666,1065.4796085357666,1065.4796085357666,1065.4796085357666,1065.4796085357666,1071.134819984436,2,5.794756889343262,None,,,,,,,,,,,,,,,,,,27,1,2025-02-18_17h01.33.144,comp,2024.2.4,57.36223939955907,2025-02-18 17h01.42.822444 -0500,
139,139,0,filler_random,None,None,None,None,None,None,None,None,None,None,1,7.596847772598267,None,,,,,0,0,0,0,0,139,139,150,1071.1525945663452,,,,,,,,,,,,,,,,,,,,,,,,,,,,,,,,,,,,,,,,,,,,,,,,,,,,,,,,,,,,,,,,,,,,,,,,,,,,,,,,,,103.54552582740905,159.22606517200236,66.50196529315673,121.08457182815611,124.11536863015425,117.83395776333435,3.0,3.1,-236,254,0,14,215,-255,1071.1365852355957,1071.1366648674011,1071.1396074295044,1071.1525945663452,1071.2981593608856,1071.2981593608856,1071.2981593608856,1071.2981593608856,1071.2981593608856,1071.2981593608856,1071.2981593608856,1078.7650787830353,1,7.596847772598267,None,,,,,,,,,,,,,,,,,,27,1,2025-02-18_17h01.33.144,comp,2024.2.4,57.36223939955907,2025-02-18 17h01.42.822444 -0500,
140,140,0,critical,hwd,20.0,2.1,upper,200.0,125.0,125.0,200.0,141.0,141.0,2,25.10413360595703,None,,,,,0,0,0,0,0,140,140,43,1078.7814095020294,,,,,,,,,,,,,,,,,,,,,,,,,,,,,,,,,,,,,,,,,,,,,,,,,,,,,,,,,,,,,,,,,,,,,,,,,,,,,,,,,,200.0,125.0,125.0,200.0,141.0,141.0,2.1,2.12,-258,-257,0,-281,266,266,1078.7667365074158,1078.7668125629425,1078.7700374126434,1078.7814095020294,1078.9337933063507,1078.9337933063507,1078.9337933063507,1078.9337933063507,1078.9337933063507,1078.9337933063507,1078.9337933063507,1103.8986706733704,2,25.10413360595703,None,,,,,,,,,,,,,,,,,,27,1,2025-02-18_17h01.33.144,comp,2024.2.4,57.36223939955907,2025-02-18 17h01.42.822444 -0500,
