thisN,thisTrialN,thisRepN,effect,order,distance,config,diag,h_1,w_1,h_2,w_2,h_3,w_3,rect_choice.keys,rect_choice.rt,rect_choice.duration,instructions_loop.thisRepN,instructions_loop.thisTrialN,instructions_loop.thisN,instructions_loop.thisIndex,blocks.thisRepN,blocks.thisTrialN,blocks.thisN,blocks.thisIndex,trials.thisRepN,trials.thisTrialN,trials.thisN,trials.thisIndex,thisRow.t,notes,consent.started,agree_button.started,decline_button.started,consent_img.started,mouse.started,consent.stopped,agree_button.numClicks,agree_button.timesOn,agree_button.timesOff,decline_button.numClicks,decline_button.timesOn,decline_button.timesOff,mouse.x,mouse.y,mouse.leftButton,mouse.midButton,mouse.rightButton,mouse.time,mouse.clicked_name,exp_params.started,exp_params.stopped,welcome.started,welcome_text.started,welcome.stopped,instructions_1.started,instructions_1_text_1.started,instructions_1_text_2.started,key_resp.started,instructions_1.stopped,instructions_loop.key_resp.keys,instructions_loop.key_resp.rt,instructions_loop.key_resp.duration,instructions_2.started,instructions_2_text_1.started,instructions_2_text_2.started,key_resp_2.started,instructions_2.stopped,instructions_loop.key_resp_2.keys,instructions_loop.key_resp_2.rt,instructions_loop.key_resp_2.duration,instructions_3.started,instructions_3_text_1.started,r1_instr3.started,r2_instr3.started,r3_instr3.started,r1_instr3_label.started,r2_instr3_label.started,r3_instr3_label.started,instructions_3_text_3.started,instructions_3_text_4.started,key_resp_3.started,instructions_3.stopped,instructions_loop.key_resp_3.keys,instructions_loop.key_resp_3.rt,instructions_loop.key_resp_3.duration,instructions_4.started,instructions_4_text_1.started,instructions_4_text_3.started,instructions_4_text_2.started,key_resp_4.started,instructions_4.stopped,instructions_loop.key_resp_4.keys,instructions_loop.key_resp_4.rt,instructions_loop.key_resp_4.duration,instructions_5.started,instructions_5_text_1.started,instructions_5_text_2.started,key_resp_5.started,instructions_5.stopped,instructions_loop.key_resp_5.keys,instructions_loop.key_resp_5.rt,instructions_loop.key_resp_5.duration,start_exp.started,start_exp_text.started,key_resp_6.started,start_exp.stopped,key_resp_6.keys,key_resp_6.rt,key_resp_6.duration,h_1_tmp,w_1_tmp,h_2_tmp,w_2_tmp,h_3_tmp,w_3_tmp,config_tmp,config_tmp_1,r_1_x,r_1_y,r_2_x,r_2_y,r_3_x,r_3_y,pre_trial.started,pre_trial.stopped,choice_trial.started,rect_choice.started,r_1.started,r_2.started,r_3.started,r_1_label.started,r_2_label.started,r_3_label.started,prompt.started,choice_trial.stopped,trials.rect_choice.keys,trials.rect_choice.rt,trials.rect_choice.duration,end_block.started,end_block_text.started,end_block.stopped,end.started,end_text.started,key_resp_7.started,end.stopped,key_resp_7.keys,key_resp_7.rt,key_resp_7.duration,debriefing.started,debrief_form.started,end_debrief.started,debriefing.stopped,end_debrief.keys,end_debrief.rt,end_debrief.duration,participant,computer,date,expName,psychopyVersion,frameRate,expStart,
,,,,,,,,,,,,,,,,,,,,,,,,,,,,,,,0.014751434326171875,0.03687405586242676,0.03687405586242676,0.03687405586242676,0.014560222625732422,9.553577899932861,1,[9.514220476150513],[9.514244794845581],0,,,[-85.0],[-514.0],[1],[0],[0],[9.538231134414673],['agree_button'],,,,,,,,,,,,,,,,,,,,,,,,,,,,,,,,,,,,,,,,,,,,,,,,,,,,,,,,,,,,,,,,,,,,,,,,,,,,,,,,,,,,,,,,,,,,,,,,,,,,,,,,,,,28,2,2025-02-18_17h02.32.314,comp,2024.2.4,59.684919479580664,2025-02-18 17h02.44.699386 -0500,
,,,,,,,,,,,,,,,,,,,,,,,,,,,,,,,,,,,,,,,,,,,,,,,,,,9.554124116897583,9.554193496704102,,,,,,,,,,,,,,,,,,,,,,,,,,,,,,,,,,,,,,,,,,,,,,,,,,,,,,,,,,,,,,,,,,,,,,,,,,,,,,,,,,,,,,,,,,,,,,,,,,,,,,,,,28,2,2025-02-18_17h02.32.314,comp,2024.2.4,59.684919479580664,2025-02-18 17h02.44.699386 -0500,
,,,,,,,,,,,,,,,,,,,,,,,,,,,,,,,,,,,,,,,,,,,,,,,,,,,,9.554239511489868,9.570454597473145,11.564803123474121,,,,,,,,,,,,,,,,,,,,,,,,,,,,,,,,,,,,,,,,,,,,,,,,,,,,,,,,,,,,,,,,,,,,,,,,,,,,,,,,,,,,,,,,,,,,,,,,,,,,,,28,2,2025-02-18_17h02.32.314,comp,2024.2.4,59.684919479580664,2025-02-18 17h02.44.699386 -0500,
0,0,0,,,,,,,,,,,,,,,0,0,0,0,,,,,,,,,11.582078456878662,,,,,,,,,,,,,,,,,,,,,,,,,,11.565810203552246,11.582078456878662,11.582078456878662,13.06691575050354,17.33467698097229,space,4.251375198364258,None,17.334821701049805,17.34984254837036,17.34984254837036,18.835617065429688,27.037744283676147,space,8.186601400375366,None,27.037904262542725,27.06623101234436,27.06623101234436,27.06623101234436,27.06623101234436,27.06623101234436,27.06623101234436,27.06623101234436,27.06623101234436,27.06623101234436,28.540537357330322,32.4418842792511,space,3.889697790145874,None,32.44204258918762,32.458555698394775,32.458555698394775,32.458555698394775,33.95561695098877,50.963403940200806,space,17.00306248664856,None,50.96358394622803,50.978999376297,50.978999376297,52.47739624977112,71.28671669960022,space,18.801390886306763,None,71.28691577911377,71.30215263366699,71.30215263366699,75.27069449424744,space,3.952538251876831,None,,,,,,,,,,,,,,,,,,,,,,,,,,,,,,,,,,,,,,,,,,,,,,,28,2,2025-02-18_17h02.32.314,comp,2024.2.4,59.684919479580664,2025-02-18 17h02.44.699386 -0500,
0,0,0,filler_square,None,None,None,None,None,None,None,None,None,None,3,4.016952753067017,None,,,,,0,0,0,0,0,0,0,180,75.34974384307861,,,,,,,,,,,,,,,,,,,,,,,,,,,,,,,,,,,,,,,,,,,,,,,,,,,,,,,,,,,,,,,,,,,,,,,,,,,,,,,,,75.97255422927448,66.6346115173918,73.60267022454256,113.30635302707864,119.5565284862044,119.5565284862044,2.1,2.11,-186,273,0,250,212,-288,75.33339476585388,75.33348631858826,75.33518528938293,75.34974384307861,75.49859070777893,75.49859070777893,75.49859070777893,75.49859070777893,75.49859070777893,75.49859070777893,75.49859070777893,79.37257361412048,3,4.016952753067017,None,,,,,,,,,,,,,,,,,,28,2,2025-02-18_17h02.32.314,comp,2024.2.4,59.684919479580664,2025-02-18 17h02.44.699386 -0500,
1,1,0,critical,hdw,20.0,3.0,lower,133.0,57.0,78.0,78.0,57.0,133.0,3,7.530603647232056,None,,,,,0,0,0,0,0,1,1,116,79.38846158981323,,,,,,,,,,,,,,,,,,,,,,,,,,,,,,,,,,,,,,,,,,,,,,,,,,,,,,,,,,,,,,,,,,,,,,,,,,,,,,,,,133.0,57.0,78.0,78.0,57.0,133.0,3.0,3.2,-164,-257,0,-4,202,256,79.37410116195679,79.37416672706604,79.37724661827087,79.38846158981323,79.53932690620422,79.53932690620422,79.53932690620422,79.53932690620422,79.53932690620422,79.53932690620422,79.53932690620422,86.9257595539093,3,7.530603647232056,None,,,,,,,,,,,,,,,,,,28,2,2025-02-18_17h02.32.314,comp,2024.2.4,59.684919479580664,2025-02-18 17h02.44.699386 -0500,
2,2,0,critical,dhw,20.0,3.0,upper,141.0,141.0,200.0,125.0,125.0,200.0,3,4.287558555603027,None,,,,,0,0,0,0,0,2,2,57,86.94263362884521,,,,,,,,,,,,,,,,,,,,,,,,,,,,,,,,,,,,,,,,,,,,,,,,,,,,,,,,,,,,,,,,,,,,,,,,,,,,,,,,,141.0,141.0,200.0,125.0,125.0,200.0,3.0,3.2,-229,-276,0,-14,258,259,86.92742490768433,86.92758703231812,86.93167090415955,86.94263362884521,87.08917498588562,87.08917498588562,87.08917498588562,87.08917498588562,87.08917498588562,87.08917498588562,87.08917498588562,91.2421042919159,3,4.287558555603027,None,,,,,,,,,,,,,,,,,,28,2,2025-02-18_17h02.32.314,comp,2024.2.4,59.684919479580664,2025-02-18 17h02.44.699386 -0500,
3,3,0,critical,dwh,35.0,2.1,upper,127.0,127.0,125.0,200.0,200.0,125.0,2,3.6794214248657227,None,,,,,0,0,0,0,0,3,3,29,91.26300573348999,,,,,,,,,,,,,,,,,,,,,,,,,,,,,,,,,,,,,,,,,,,,,,,,,,,,,,,,,,,,,,,,,,,,,,,,,,,,,,,,,127.0,127.0,125.0,200.0,200.0,125.0,2.1,2.12,-260,-272,0,-281,258,276,91.24367547035217,91.24375462532043,91.24692153930664,91.26300573348999,91.41809129714966,91.41809129714966,91.41809129714966,91.41809129714966,91.41809129714966,91.41809129714966,91.41809129714966,94.9450364112854,2,3.6794214248657227,None,,,,,,,,,,,,,,,,,,28,2,2025-02-18_17h02.32.314,comp,2024.2.4,59.684919479580664,2025-02-18 17h02.44.699386 -0500,
4,4,0,critical,wdh,35.0,2.1,lower,57.0,133.0,70.0,70.0,133.0,57.0,1,3.845524311065674,None,,,,,0,0,0,0,0,4,4,32,94.96129870414734,,,,,,,,,,,,,,,,,,,,,,,,,,,,,,,,,,,,,,,,,,,,,,,,,,,,,,,,,,,,,,,,,,,,,,,,,,,,,,,,,57.0,133.0,70.0,70.0,133.0,57.0,2.1,2.12,-198,-256,0,-255,160,278,94.94664931297302,94.94672751426697,94.95067358016968,94.96129870414734,95.09723138809204,95.09723138809204,95.09723138809204,95.09723138809204,95.09723138809204,95.09723138809204,95.09723138809204,98.81291484832764,1,3.845524311065674,None,,,,,,,,,,,,,,,,,,28,2,2025-02-18_17h02.32.314,comp,2024.2.4,59.684919479580664,2025-02-18 17h02.44.699386 -0500,
5,5,0,critical,wdh,20.0,2.1,upper,125.0,200.0,141.0,141.0,200.0,125.0,1,3.6877365112304688,None,,,,,0,0,0,0,0,5,5,11,98.83853125572205,,,,,,,,,,,,,,,,,,,,,,,,,,,,,,,,,,,,,,,,,,,,,,,,,,,,,,,,,,,,,,,,,,,,,,,,,,,,,,,,,125.0,200.0,141.0,141.0,200.0,125.0,2.1,2.12,-266,-290,0,-263,229,254,98.8146116733551,98.8147463798523,98.81802344322205,98.83853125572205,98.9790153503418,98.9790153503418,98.9790153503418,98.9790153503418,98.9790153503418,98.9790153503418,98.9790153503418,102.52985286712646,1,3.6877365112304688,None,,,,,,,,,,,,,,,,,,28,2,2025-02-18_17h02.32.314,comp,2024.2.4,59.684919479580664,2025-02-18 17h02.44.699386 -0500,
6,6,0,filler_random,None,None,None,None,None,None,None,None,None,None,1,5.596571683883667,None,,,,,0,0,0,0,0,6,6,169,102.54622721672058,,,,,,,,,,,,,,,,,,,,,,,,,,,,,,,,,,,,,,,,,,,,,,,,,,,,,,,,,,,,,,,,,,,,,,,,,,,,,,,,,116.00887172246175,168.84627782678706,115.04282027413348,119.75460626452036,129.22453202830394,157.1881437027892,4.0,4.2,-240,-19,0,-289,234,20,102.5317952632904,102.53187704086304,102.5354974269867,102.54622721672058,102.696706533432,102.696706533432,102.696706533432,102.696706533432,102.696706533432,102.696706533432,102.696706533432,108.14703369140625,1,5.596571683883667,None,,,,,,,,,,,,,,,,,,28,2,2025-02-18_17h02.32.314,comp,2024.2.4,59.684919479580664,2025-02-18 17h02.44.699386 -0500,
7,7,0,critical,hwd,35.0,4.0,upper,200.0,125.0,125.0,200.0,127.0,127.0,2,2.150869131088257,None,,,,,0,0,0,0,0,7,7,101,108.167475938797,,,,,,,,,,,,,,,,,,,,,,,,,,,,,,,,,,,,,,,,,,,,,,,,,,,,,,,,,,,,,,,,,,,,,,,,,,,,,,,,,200.0,125.0,125.0,200.0,127.0,127.0,4.0,4.2,-258,-8,0,-289,260,-6,108.14852094650269,108.1485984325409,108.1516900062561,108.167475938797,108.3036642074585,108.3036642074585,108.3036642074585,108.3036642074585,108.3036642074585,108.3036642074585,108.3036642074585,110.33240699768066,2,2.150869131088257,None,,,,,,,,,,,,,,,,,,28,2,2025-02-18_17h02.32.314,comp,2024.2.4,59.684919479580664,2025-02-18 17h02.44.699386 -0500,
8,8,0,filler_random,None,None,None,None,None,None,None,None,None,None,3,1.9696228504180908,None,,,,,0,0,0,0,0,8,8,148,110.34863424301147,,,,,,,,,,,,,,,,,,,,,,,,,,,,,,,,,,,,,,,,,,,,,,,,,,,,,,,,,,,,,,,,,,,,,,,,,,,,,,,,,131.24192101068735,100.99927278837711,115.99634563333144,151.83462570069193,112.10998705474395,172.0742678663173,2.2,2.21,-222,-264,0,254,258,273,110.33423113822937,110.33431124687195,110.33833193778992,110.34863424301147,110.50263690948486,110.50263690948486,110.50263690948486,110.50263690948486,110.50263690948486,110.50263690948486,110.50263690948486,112.33373475074768,3,1.9696228504180908,None,,,,,,,,,,,,,,,,,,28,2,2025-02-18_17h02.32.314,comp,2024.2.4,59.684919479580664,2025-02-18 17h02.44.699386 -0500,
9,9,0,catch,None,None,None,None,None,None,None,None,None,None,3,2.1732070446014404,None,,,,,0,0,0,0,0,9,9,123,112.35320448875427,,,,,,,,,,,,,,,,,,,,,,,,,,,,,,,,,,,,,,,,,,,,,,,,,,,,,,,,,,,,,,,,,,,,,,,,,,,,,,,,,123,67,86,104,189,136,2.2,2.21,-182,-258,0,253,216,266,112.33557486534119,112.3356785774231,112.33872961997986,112.35320448875427,112.50012183189392,112.50012183189392,112.50012183189392,112.50012183189392,112.50012183189392,112.50012183189392,112.50012183189392,114.53806591033936,3,2.1732070446014404,None,,,,,,,,,,,,,,,,,,28,2,2025-02-18_17h02.32.314,comp,2024.2.4,59.684919479580664,2025-02-18 17h02.44.699386 -0500,
10,10,0,critical,hdw,20.0,2.1,upper,200.0,125.0,141.0,141.0,125.0,200.0,3,2.724811553955078,None,,,,,0,0,0,0,0,10,10,47,114.55431246757507,,,,,,,,,,,,,,,,,,,,,,,,,,,,,,,,,,,,,,,,,,,,,,,,,,,,,,,,,,,,,,,,,,,,,,,,,,,,,,,,,200.0,125.0,141.0,141.0,125.0,200.0,2.1,2.12,-229,-263,0,-251,266,253,114.53969240188599,114.53977179527283,114.54269862174988,114.55431246757507,114.70019197463989,114.70019197463989,114.70019197463989,114.70019197463989,114.70019197463989,114.70019197463989,114.70019197463989,117.28684973716736,3,2.724811553955078,None,,,,,,,,,,,,,,,,,,28,2,2025-02-18_17h02.32.314,comp,2024.2.4,59.684919479580664,2025-02-18 17h02.44.699386 -0500,
11,11,0,critical,hdw,35.0,1.0,lower,133.0,57.0,70.0,70.0,57.0,133.0,3,3.591087818145752,None,,,,,0,0,0,0,0,11,11,108,117.3032112121582,,,,,,,,,,,,,,,,,,,,,,,,,,,,,,,,,,,,,,,,,,,,,,,,,,,,,,,,,,,,,,,,,,,,,,,,,,,,,,,,,133.0,57.0,70.0,70.0,57.0,133.0,1.0,1.3,320,-284,480,-264,678,-280,117.2886312007904,117.2887442111969,117.2924919128418,117.3032112121582,117.45032572746277,117.45032572746277,117.45032572746277,117.45032572746277,117.45032572746277,117.45032572746277,117.45032572746277,120.90438055992126,3,3.591087818145752,None,,,,,,,,,,,,,,,,,,28,2,2025-02-18_17h02.32.314,comp,2024.2.4,59.684919479580664,2025-02-18 17h02.44.699386 -0500,
12,12,0,filler_random,None,None,None,None,None,None,None,None,None,None,2,1.9416699409484863,None,,,,,0,0,0,0,0,12,12,165,120.92130088806152,,,,,,,,,,,,,,,,,,,,,,,,,,,,,,,,,,,,,,,,,,,,,,,,,,,,,,,,,,,,,,,,,,,,,,,,,,,,,,,,,110.07466367122106,71.35728567396298,159.8976095605949,184.75681753158494,155.77502346647128,171.1330265876946,2.1,2.12,-224,-275,0,-278,274,289,120.90637707710266,120.9064998626709,120.91033673286438,120.92130088806152,121.07424879074097,121.07424879074097,121.07424879074097,121.07424879074097,121.07424879074097,121.07424879074097,121.07424879074097,122.86868786811829,2,1.9416699409484863,None,,,,,,,,,,,,,,,,,,28,2,2025-02-18_17h02.32.314,comp,2024.2.4,59.684919479580664,2025-02-18 17h02.44.699386 -0500,
13,13,0,critical,whd,35.0,2.1,upper,125.0,200.0,200.0,125.0,127.0,127.0,1,4.014880418777466,None,,,,,0,0,0,0,0,13,13,13,122.88739156723022,,,,,,,,,,,,,,,,,,,,,,,,,,,,,,,,,,,,,,,,,,,,,,,,,,,,,,,,,,,,,,,,,,,,,,,,,,,,,,,,,125.0,200.0,200.0,125.0,127.0,127.0,2.1,2.12,-258,-282,0,-264,222,277,122.8702085018158,122.8702883720398,122.87333583831787,122.88739156723022,123.03548097610474,123.03548097610474,123.03548097610474,123.03548097610474,123.03548097610474,123.03548097610474,123.03548097610474,126.90561628341675,1,4.014880418777466,None,,,,,,,,,,,,,,,,,,28,2,2025-02-18_17h02.32.314,comp,2024.2.4,59.684919479580664,2025-02-18 17h02.44.699386 -0500,
14,14,0,critical,wdh,20.0,2.1,lower,57.0,133.0,78.0,78.0,133.0,57.0,3,6.308330535888672,None,,,,,0,0,0,0,0,14,14,34,126.92210364341736,,,,,,,,,,,,,,,,,,,,,,,,,,,,,,,,,,,,,,,,,,,,,,,,,,,,,,,,,,,,,,,,,,,,,,,,,,,,,,,,,57.0,133.0,78.0,78.0,133.0,57.0,2.1,2.12,-202,-259,0,-271,164,285,126.90721845626831,126.9073486328125,126.91131949424744,126.92210364341736,127.07056427001953,127.07056427001953,127.07056427001953,127.07056427001953,127.07056427001953,127.07056427001953,127.07056427001953,133.24352741241455,3,6.308330535888672,None,,,,,,,,,,,,,,,,,,28,2,2025-02-18_17h02.32.314,comp,2024.2.4,59.684919479580664,2025-02-18 17h02.44.699386 -0500,
15,15,0,critical,dwh,20.0,4.0,upper,141.0,141.0,125.0,200.0,200.0,125.0,2,2.4062695503234863,None,,,,,0,0,0,0,0,15,15,71,133.26403164863586,,,,,,,,,,,,,,,,,,,,,,,,,,,,,,,,,,,,,,,,,,,,,,,,,,,,,,,,,,,,,,,,,,,,,,,,,,,,,,,,,141.0,141.0,125.0,200.0,200.0,125.0,4.0,4.2,-266,9,0,-279,258,5,133.2452211380005,133.24530172348022,133.24862957000732,133.26403164863586,133.404550075531,133.404550075531,133.404550075531,133.404550075531,133.404550075531,133.404550075531,133.404550075531,135.68885588645935,2,2.4062695503234863,None,,,,,,,,,,,,,,,,,,28,2,2025-02-18_17h02.32.314,comp,2024.2.4,59.684919479580664,2025-02-18 17h02.44.699386 -0500,
16,16,0,critical,hdw,20.0,1.0,lower,133.0,57.0,78.0,78.0,57.0,133.0,3,4.133816957473755,None,,,,,0,0,0,0,0,16,16,114,135.7047815322876,,,,,,,,,,,,,,,,,,,,,,,,,,,,,,,,,,,,,,,,,,,,,,,,,,,,,,,,,,,,,,,,,,,,,,,,,,,,,,,,,133.0,57.0,78.0,78.0,57.0,133.0,1.0,1.1,-644,285,-480,279,-278,255,135.69033789634705,135.69041442871094,135.69349932670593,135.7047815322876,135.85685658454895,135.85685658454895,135.85685658454895,135.85685658454895,135.85685658454895,135.85685658454895,135.85685658454895,139.84156012535095,3,4.133816957473755,None,,,,,,,,,,,,,,,,,,28,2,2025-02-18_17h02.32.314,comp,2024.2.4,59.684919479580664,2025-02-18 17h02.44.699386 -0500,
17,17,0,filler_random,None,None,None,None,None,None,None,None,None,None,3,1.8061506748199463,None,,,,,0,0,0,0,0,17,17,140,139.8567976951599,,,,,,,,,,,,,,,,,,,,,,,,,,,,,,,,,,,,,,,,,,,,,,,,,,,,,,,,,,,,,,,,,,,,,,,,,,,,,,,,,158.62730723067307,164.32572607112087,103.02281936505125,174.5834416055938,185.22453351494,195.01156129638707,1.0,1.2,-265,9,0,-18,281,-3,139.8435890674591,139.84366750717163,139.84707403182983,139.8567976951599,140.00760889053345,140.00760889053345,140.00760889053345,140.00760889053345,140.00760889053345,140.00760889053345,140.00760889053345,141.67046761512756,3,1.8061506748199463,None,,,,,,,,,,,,,,,,,,28,2,2025-02-18_17h02.32.314,comp,2024.2.4,59.684919479580664,2025-02-18 17h02.44.699386 -0500,
18,18,0,critical,dwh,20.0,2.1,lower,78.0,78.0,57.0,133.0,133.0,57.0,2,4.102509260177612,None,,,,,0,0,0,0,0,18,18,30,141.6881082057953,,,,,,,,,,,,,,,,,,,,,,,,,,,,,,,,,,,,,,,,,,,,,,,,,,,,,,,,,,,,,,,,,,,,,,,,,,,,,,,,,78.0,78.0,57.0,133.0,133.0,57.0,2.1,2.11,-202,268,0,262,191,-254,141.67201685905457,141.67209553718567,141.67500591278076,141.6881082057953,141.82508420944214,141.82508420944214,141.82508420944214,141.82508420944214,141.82508420944214,141.82508420944214,141.82508420944214,145.80825328826904,2,4.102509260177612,None,,,,,,,,,,,,,,,,,,28,2,2025-02-18_17h02.32.314,comp,2024.2.4,59.684919479580664,2025-02-18 17h02.44.699386 -0500,
19,19,0,filler_random,None,None,None,None,None,None,None,None,None,None,3,1.0622289180755615,None,,,,,0,0,0,0,0,19,19,156,145.82407355308533,,,,,,,,,,,,,,,,,,,,,,,,,,,,,,,,,,,,,,,,,,,,,,,,,,,,,,,,,,,,,,,,,,,,,,,,,,,,,,,,,71.93046410940848,81.36311989943528,181.30296105004038,73.91861164903722,146.74158185178908,162.66018958681224,3.0,3.2,-174,-258,0,-18,214,287,145.81001543998718,145.81008958816528,145.81298184394836,145.82407355308533,145.97635984420776,145.97635984420776,145.97635984420776,145.97635984420776,145.97635984420776,145.97635984420776,145.97635984420776,146.8957200050354,3,1.0622289180755615,None,,,,,,,,,,,,,,,,,,28,2,2025-02-18_17h02.32.314,comp,2024.2.4,59.684919479580664,2025-02-18 17h02.44.699386 -0500,
20,20,0,catch,None,None,None,None,None,None,None,None,None,None,2,1.173936128616333,None,,,,,0,0,0,0,0,20,20,129,146.91329145431519,,,,,,,,,,,,,,,,,,,,,,,,,,,,,,,,,,,,,,,,,,,,,,,,,,,,,,,,,,,,,,,,,,,,,,,,,,,,,,,,,73,117,127,198,91,99,3.0,3.1,-254,276,0,14,244,-280,146.89796352386475,146.89804315567017,146.90162658691406,146.91329145431519,147.05622267723083,147.05622267723083,147.05622267723083,147.05622267723083,147.05622267723083,147.05622267723083,147.05622267723083,148.0967869758606,2,1.173936128616333,None,,,,,,,,,,,,,,,,,,28,2,2025-02-18_17h02.32.314,comp,2024.2.4,59.684919479580664,2025-02-18 17h02.44.699386 -0500,
21,21,0,critical,dwh,35.0,2.1,lower,70.0,70.0,57.0,133.0,133.0,57.0,2,1.7423994541168213,None,,,,,0,0,0,0,0,21,21,4,148.11282300949097,,,,,,,,,,,,,,,,,,,,,,,,,,,,,,,,,,,,,,,,,,,,,,,,,,,,,,,,,,,,,,,,,,,,,,,,,,,,,,,,,70.0,70.0,57.0,133.0,133.0,57.0,2.1,2.11,-198,272,0,257,191,-253,148.0984947681427,148.09863948822021,148.10205698013306,148.11282300949097,148.26082968711853,148.26082968711853,148.26082968711853,148.26082968711853,148.26082968711853,148.26082968711853,148.26082968711853,149.8621108531952,2,1.7423994541168213,None,,,,,,,,,,,,,,,,,,28,2,2025-02-18_17h02.32.314,comp,2024.2.4,59.684919479580664,2025-02-18 17h02.44.699386 -0500,
22,22,0,filler_random,None,None,None,None,None,None,None,None,None,None,1,2.2401275634765625,None,,,,,0,0,0,0,0,22,22,161,149.8787317276001,,,,,,,,,,,,,,,,,,,,,,,,,,,,,,,,,,,,,,,,,,,,,,,,,,,,,,,,,,,,,,,,,,,,,,,,,,,,,,,,,131.24848186619616,142.85645842174875,76.23160153442927,171.0856186160686,176.06940757494704,103.25009724629594,2.1,2.12,-253,-250,0,-274,233,287,149.86385130882263,149.86393427848816,149.86797618865967,149.8787317276001,150.03005743026733,150.03005743026733,150.03005743026733,150.03005743026733,150.03005743026733,150.03005743026733,150.03005743026733,152.1366069316864,1,2.2401275634765625,None,,,,,,,,,,,,,,,,,,28,2,2025-02-18_17h02.32.314,comp,2024.2.4,59.684919479580664,2025-02-18 17h02.44.699386 -0500,
23,23,0,critical,whd,20.0,1.0,lower,57.0,133.0,133.0,57.0,78.0,78.0,1,3.1188695430755615,None,,,,,0,0,0,0,0,23,23,90,152.15139603614807,,,,,,,,,,,,,,,,,,,,,,,,,,,,,,,,,,,,,,,,,,,,,,,,,,,,,,,,,,,,,,,,,,,,,,,,,,,,,,,,,57.0,133.0,133.0,57.0,78.0,78.0,1.0,1.3,289,-253,480,-272,644,-271,152.13814425468445,152.1382200717926,152.14106726646423,152.15139603614807,152.29666543006897,152.29666543006897,152.29666543006897,152.29666543006897,152.29666543006897,152.29666543006897,152.29666543006897,155.28313541412354,1,3.1188695430755615,None,,,,,,,,,,,,,,,,,,28,2,2025-02-18_17h02.32.314,comp,2024.2.4,59.684919479580664,2025-02-18 17h02.44.699386 -0500,
24,24,0,critical,hwd,35.0,3.0,lower,133.0,57.0,57.0,133.0,70.0,70.0,2,1.6031615734100342,None,,,,,0,0,0,0,0,24,24,98,155.29909229278564,,,,,,,,,,,,,,,,,,,,,,,,,,,,,,,,,,,,,,,,,,,,,,,,,,,,,,,,,,,,,,,,,,,,,,,,,,,,,,,,,133.0,57.0,57.0,133.0,70.0,70.0,3.0,3.1,-191,258,0,-10,198,-261,155.2847557067871,155.28483414649963,155.28792476654053,155.29909229278564,155.44427943229675,155.44427943229675,155.44427943229675,155.44427943229675,155.44427943229675,155.44427943229675,155.44427943229675,156.9151029586792,2,1.6031615734100342,None,,,,,,,,,,,,,,,,,,28,2,2025-02-18_17h02.32.314,comp,2024.2.4,59.684919479580664,2025-02-18 17h02.44.699386 -0500,
25,25,0,filler_random,None,None,None,None,None,None,None,None,None,None,1,1.3311913013458252,None,,,,,0,0,0,0,0,25,25,163,156.93185591697693,,,,,,,,,,,,,,,,,,,,,,,,,,,,,,,,,,,,,,,,,,,,,,,,,,,,,,,,,,,,,,,,,,,,,,,,,,,,,,,,,152.22617269393027,146.7241134866842,93.95320242842371,193.97885496316076,103.06809393257927,82.55402096694827,2.2,2.21,-266,-257,0,255,234,264,156.91729593276978,156.917418718338,156.92089653015137,156.93185591697693,157.08417654037476,157.08417654037476,157.08417654037476,157.08417654037476,157.08417654037476,157.08417654037476,157.08417654037476,158.26732659339905,1,1.3311913013458252,None,,,,,,,,,,,,,,,,,,28,2,2025-02-18_17h02.32.314,comp,2024.2.4,59.684919479580664,2025-02-18 17h02.44.699386 -0500,
26,26,0,critical,hwd,35.0,3.0,upper,200.0,125.0,125.0,200.0,127.0,127.0,2,1.7228939533233643,None,,,,,0,0,0,0,0,26,26,99,158.28352308273315,,,,,,,,,,,,,,,,,,,,,,,,,,,,,,,,,,,,,,,,,,,,,,,,,,,,,,,,,,,,,,,,,,,,,,,,,,,,,,,,,200.0,125.0,125.0,200.0,127.0,127.0,3.0,3.1,-258,253,0,7,260,-281,158.269056558609,158.269136428833,158.2720718383789,158.28352308273315,158.42969417572021,158.42969417572021,158.42969417572021,158.42969417572021,158.42969417572021,158.42969417572021,158.42969417572021,160.02045917510986,2,1.7228939533233643,None,,,,,,,,,,,,,,,,,,28,2,2025-02-18_17h02.32.314,comp,2024.2.4,59.684919479580664,2025-02-18 17h02.44.699386 -0500,
27,27,0,critical,dhw,20.0,4.0,upper,141.0,141.0,200.0,125.0,125.0,200.0,3,3.844313144683838,None,,,,,0,0,0,0,0,27,27,59,160.0350980758667,,,,,,,,,,,,,,,,,,,,,,,,,,,,,,,,,,,,,,,,,,,,,,,,,,,,,,,,,,,,,,,,,,,,,,,,,,,,,,,,,141.0,141.0,200.0,125.0,125.0,200.0,4.0,4.2,-229,4,0,-258,258,5,160.0219542980194,160.0220286846161,160.02486562728882,160.0350980758667,160.18098425865173,160.18098425865173,160.18098425865173,160.18098425865173,160.18098425865173,160.18098425865173,160.18098425865173,163.88488936424255,3,3.844313144683838,None,,,,,,,,,,,,,,,,,,28,2,2025-02-18_17h02.32.314,comp,2024.2.4,59.684919479580664,2025-02-18 17h02.44.699386 -0500,
28,28,0,filler_square,None,None,None,None,None,None,None,None,None,None,3,1.4008476734161377,None,,,,,0,0,0,0,0,28,28,201,163.90152072906494,,,,,,,,,,,,,,,,,,,,,,,,,,,,,,,,,,,,,,,,,,,,,,,,,,,,,,,,,,,,,,,,,,,,,,,,,,,,,,,,,82.2992535400151,92.92669244931471,83.78078875925624,87.91011023110015,97.654206092248,97.654206092248,3.0,3.2,-186,-289,0,-4,189,254,163.88678884506226,163.88687133789062,163.89007329940796,163.90152072906494,164.03724074363708,164.03724074363708,164.03724074363708,164.03724074363708,164.03724074363708,164.03724074363708,164.03724074363708,165.31790161132812,3,1.4008476734161377,None,,,,,,,,,,,,,,,,,,28,2,2025-02-18_17h02.32.314,comp,2024.2.4,59.684919479580664,2025-02-18 17h02.44.699386 -0500,
29,29,0,critical,wdh,20.0,2.1,lower,57.0,133.0,78.0,78.0,133.0,57.0,1,3.679258346557617,None,,,,,0,0,0,0,0,29,29,10,165.33538603782654,,,,,,,,,,,,,,,,,,,,,,,,,,,,,,,,,,,,,,,,,,,,,,,,,,,,,,,,,,,,,,,,,,,,,,,,,,,,,,,,,57.0,133.0,78.0,78.0,133.0,57.0,2.1,2.11,-202,266,0,273,164,-271,165.31955456733704,165.3196563720703,165.32293939590454,165.33538603782654,165.48234033584595,165.48234033584595,165.48234033584595,165.48234033584595,165.48234033584595,165.48234033584595,165.48234033584595,169.03313612937927,1,3.679258346557617,None,,,,,,,,,,,,,,,,,,28,2,2025-02-18_17h02.32.314,comp,2024.2.4,59.684919479580664,2025-02-18 17h02.44.699386 -0500,
30,30,0,filler_random,None,None,None,None,None,None,None,None,None,None,3,1.0687496662139893,None,,,,,0,0,0,0,0,30,30,145,169.0589303970337,,,,,,,,,,,,,,,,,,,,,,,,,,,,,,,,,,,,,,,,,,,,,,,,,,,,,,,,,,,,,,,,,,,,,,,,,,,,,,,,,127.44790364189603,91.36725982017109,85.39786542711897,117.00713540880713,119.86709591474232,193.7408178358952,2.2,2.21,-200,-271,0,266,251,287,169.0348424911499,169.03491926193237,169.03781151771545,169.0589303970337,169.20112657546997,169.20112657546997,169.20112657546997,169.20112657546997,169.20112657546997,169.20112657546997,169.20112657546997,170.1355495452881,3,1.0687496662139893,None,,,,,,,,,,,,,,,,,,28,2,2025-02-18_17h02.32.314,comp,2024.2.4,59.684919479580664,2025-02-18 17h02.44.699386 -0500,
31,31,0,critical,hdw,20.0,4.0,lower,133.0,57.0,78.0,78.0,57.0,133.0,3,2.6371846199035645,None,,,,,0,0,0,0,0,31,31,118,170.15357446670532,,,,,,,,,,,,,,,,,,,,,,,,,,,,,,,,,,,,,,,,,,,,,,,,,,,,,,,,,,,,,,,,,,,,,,,,,,,,,,,,,133.0,57.0,78.0,78.0,57.0,133.0,4.0,4.1,-164,-267,0,-12,202,-254,170.13713836669922,170.13724279403687,170.14054656028748,170.15357446670532,170.30117654800415,170.30117654800415,170.30117654800415,170.30117654800415,170.30117654800415,170.30117654800415,170.30117654800415,172.7974193096161,3,2.6371846199035645,None,,,,,,,,,,,,,,,,,,28,2,2025-02-18_17h02.32.314,comp,2024.2.4,59.684919479580664,2025-02-18 17h02.44.699386 -0500,
32,32,0,critical,wdh,35.0,1.0,upper,125.0,200.0,127.0,127.0,200.0,125.0,1,2.1131114959716797,None,,,,,0,0,0,0,0,32,32,73,172.81557869911194,,,,,,,,,,,,,,,,,,,,,,,,,,,,,,,,,,,,,,,,,,,,,,,,,,,,,,,,,,,,,,,,,,,,,,,,,,,,,,,,,125.0,200.0,127.0,127.0,200.0,125.0,1.0,1.2,-260,15,0,18,222,-8,172.79905724525452,172.79913687705994,172.80241298675537,172.81557869911194,172.95161199569702,172.95161199569702,172.95161199569702,172.95161199569702,172.95161199569702,172.95161199569702,172.95161199569702,174.9349718093872,1,2.1131114959716797,None,,,,,,,,,,,,,,,,,,28,2,2025-02-18_17h02.32.314,comp,2024.2.4,59.684919479580664,2025-02-18 17h02.44.699386 -0500,
33,33,0,filler_random,None,None,None,None,None,None,None,None,None,None,1,1.206502914428711,None,,,,,0,0,0,0,0,33,33,152,174.9527018070221,,,,,,,,,,,,,,,,,,,,,,,,,,,,,,,,,,,,,,,,,,,,,,,,,,,,,,,,,,,,,,,,,,,,,,,,,,,,,,,,,186.9062656404776,124.7740455224042,128.9488731340742,59.73673431562386,57.16817064138855,154.7526406475804,2.2,2.22,-188,275,0,-255,203,-261,174.93669295310974,174.9367697238922,174.93971967697144,174.9527018070221,175.10449290275574,175.10449290275574,175.10449290275574,175.10449290275574,175.10449290275574,175.10449290275574,175.10449290275574,176.1663954257965,1,1.206502914428711,None,,,,,,,,,,,,,,,,,,28,2,2025-02-18_17h02.32.314,comp,2024.2.4,59.684919479580664,2025-02-18 17h02.44.699386 -0500,
34,34,0,filler_square,None,None,None,None,None,None,None,None,None,None,2,1.1025285720825195,None,,,,,0,0,0,0,0,34,34,193,176.18410849571228,,,,,,,,,,,,,,,,,,,,,,,,,,,,,,,,,,,,,,,,,,,,,,,,,,,,,,,,,,,,,,,,,,,,,,,,,,,,,,,,,93.41984825686204,77.95171558846152,123.94142264549595,123.94142264549595,111.19717731650346,92.13013002697096,2.2,2.22,-197,278,0,-266,204,-254,176.1683633327484,176.1685242652893,176.17176723480225,176.18410849571228,176.33903002738953,176.33903002738953,176.33903002738953,176.33903002738953,176.33903002738953,176.33903002738953,176.33903002738953,177.3025562763214,2,1.1025285720825195,None,,,,,,,,,,,,,,,,,,28,2,2025-02-18_17h02.32.314,comp,2024.2.4,59.684919479580664,2025-02-18 17h02.44.699386 -0500,
35,35,0,catch,None,None,None,None,None,None,None,None,None,None,2,1.111696481704712,None,,,,,0,0,0,0,0,35,35,128,177.31883931159973,,,,,,,,,,,,,,,,,,,,,,,,,,,,,,,,,,,,,,,,,,,,,,,,,,,,,,,,,,,,,,,,,,,,,,,,,,,,,,,,,123,67,148,177,84,106,2.1,2.12,-218,-264,0,-258,238,278,177.3044307231903,177.30452752113342,177.30746841430664,177.31883931159973,177.47062063217163,177.47062063217163,177.47062063217163,177.47062063217163,177.47062063217163,177.47062063217163,177.47062063217163,178.4500389099121,2,1.111696481704712,None,,,,,,,,,,,,,,,,,,28,2,2025-02-18_17h02.32.314,comp,2024.2.4,59.684919479580664,2025-02-18 17h02.44.699386 -0500,
36,36,0,critical,whd,20.0,1.0,upper,125.0,200.0,200.0,125.0,141.0,141.0,1,4.128641605377197,None,,,,,0,0,0,0,0,36,36,91,178.47031593322754,,,,,,,,,,,,,,,,,,,,,,,,,,,,,,,,,,,,,,,,,,,,,,,,,,,,,,,,,,,,,,,,,,,,,,,,,,,,,,,,,125.0,200.0,200.0,125.0,141.0,141.0,1.0,1.3,222,-270,480,-253,709,-268,178.45167112350464,178.45174479484558,178.45506834983826,178.47031593322754,178.6025745868683,178.6025745868683,178.6025745868683,178.6025745868683,178.6025745868683,178.6025745868683,178.6025745868683,182.60441541671753,1,4.128641605377197,None,,,,,,,,,,,,,,,,,,28,2,2025-02-18_17h02.32.314,comp,2024.2.4,59.684919479580664,2025-02-18 17h02.44.699386 -0500,
37,37,0,critical,hwd,35.0,2.1,lower,133.0,57.0,57.0,133.0,70.0,70.0,2,2.888408660888672,None,,,,,0,0,0,0,0,37,37,40,182.62193417549133,,,,,,,,,,,,,,,,,,,,,,,,,,,,,,,,,,,,,,,,,,,,,,,,,,,,,,,,,,,,,,,,,,,,,,,,,,,,,,,,,133.0,57.0,57.0,133.0,70.0,70.0,2.1,2.11,-191,266,0,271,198,-288,182.60593056678772,182.60600543022156,182.60915398597717,182.62193417549133,182.77223682403564,182.77223682403564,182.77223682403564,182.77223682403564,182.77223682403564,182.77223682403564,182.77223682403564,185.52460765838623,2,2.888408660888672,None,,,,,,,,,,,,,,,,,,28,2,2025-02-18_17h02.32.314,comp,2024.2.4,59.684919479580664,2025-02-18 17h02.44.699386 -0500,
38,38,0,filler_random,None,None,None,None,None,None,None,None,None,None,2,1.1189453601837158,None,,,,,0,0,0,0,0,38,38,158,185.54390263557434,,,,,,,,,,,,,,,,,,,,,,,,,,,,,,,,,,,,,,,,,,,,,,,,,,,,,,,,,,,,,,,,,,,,,,,,,,,,,,,,,174.29046948174351,93.79498227404007,176.63386765972706,172.49235169195157,138.90631735202783,128.7429080835832,2.2,2.22,-229,275,0,-251,247,-283,185.52642035484314,185.5265338420868,185.53015279769897,185.54390263557434,185.68856143951416,185.68856143951416,185.68856143951416,185.68856143951416,185.68856143951416,185.68856143951416,185.68856143951416,186.6713888645172,2,1.1189453601837158,None,,,,,,,,,,,,,,,,,,28,2,2025-02-18_17h02.32.314,comp,2024.2.4,59.684919479580664,2025-02-18 17h02.44.699386 -0500,
39,39,0,filler_square,None,None,None,None,None,None,None,None,None,None,1,1.926490068435669,None,,,,,0,0,0,0,0,39,39,186,186.68796515464783,,,,,,,,,,,,,,,,,,,,,,,,,,,,,,,,,,,,,,,,,,,,,,,,,,,,,,,,,,,,,,,,,,,,,,,,,,,,,,,,,128.2752392133841,128.2752392133841,57.081096079820334,111.65588022641312,119.05238533756409,119.2700825305489,2.2,2.21,-216,-262,0,272,211,274,186.67317652702332,186.67325258255005,186.67627573013306,186.68796515464783,186.82441759109497,186.82441759109497,186.82441759109497,186.82441759109497,186.82441759109497,186.82441759109497,186.82441759109497,188.62361574172974,1,1.926490068435669,None,,,,,,,,,,,,,,,,,,28,2,2025-02-18_17h02.32.314,comp,2024.2.4,59.684919479580664,2025-02-18 17h02.44.699386 -0500,
40,40,0,filler_square,None,None,None,None,None,None,None,None,None,None,1,1.0627155303955078,None,,,,,0,0,0,0,0,40,40,171,188.63961124420166,,,,,,,,,,,,,,,,,,,,,,,,,,,,,,,,,,,,,,,,,,,,,,,,,,,,,,,,,,,,,,,,,,,,,,,,,,,,,,,,,163.45924984881924,163.45924984881924,72.86412547009023,149.33887293739411,103.45596056673034,104.06128550976936,3.0,3.2,-252,-261,0,18,223,262,188.625422000885,188.6255247592926,188.62878370285034,188.63961124420166,188.7903232574463,188.7903232574463,188.7903232574463,188.7903232574463,188.7903232574463,188.7903232574463,188.7903232574463,189.71764159202576,1,1.0627155303955078,None,,,,,,,,,,,,,,,,,,28,2,2025-02-18_17h02.32.314,comp,2024.2.4,59.684919479580664,2025-02-18 17h02.44.699386 -0500,
41,41,0,critical,hdw,35.0,2.1,lower,133.0,57.0,70.0,70.0,57.0,133.0,3,1.9939517974853516,None,,,,,0,0,0,0,0,41,41,20,189.73253202438354,,,,,,,,,,,,,,,,,,,,,,,,,,,,,,,,,,,,,,,,,,,,,,,,,,,,,,,,,,,,,,,,,,,,,,,,,,,,,,,,,133.0,57.0,70.0,70.0,57.0,133.0,2.1,2.11,-160,251,0,267,198,-285,189.71915125846863,189.7192256450653,189.72208094596863,189.73253202438354,189.87417459487915,189.87417459487915,189.87417459487915,189.87417459487915,189.87417459487915,189.87417459487915,189.87417459487915,191.74515080451965,3,1.9939517974853516,None,,,,,,,,,,,,,,,,,,28,2,2025-02-18_17h02.32.314,comp,2024.2.4,59.684919479580664,2025-02-18 17h02.44.699386 -0500,
42,42,0,critical,whd,35.0,2.1,lower,57.0,133.0,133.0,57.0,70.0,70.0,2,2.9795377254486084,None,,,,,0,0,0,0,0,42,42,12,191.76288414001465,,,,,,,,,,,,,,,,,,,,,,,,,,,,,,,,,,,,,,,,,,,,,,,,,,,,,,,,,,,,,,,,,,,,,,,,,,,,,,,,,57.0,133.0,133.0,57.0,70.0,70.0,2.1,2.11,-191,269,0,271,160,-280,191.74683022499084,191.74694919586182,191.75016474723816,191.76288414001465,191.90737676620483,191.90737676620483,191.90737676620483,191.90737676620483,191.90737676620483,191.90737676620483,191.90737676620483,194.75619053840637,2,2.9795377254486084,None,,,,,,,,,,,,,,,,,,28,2,2025-02-18_17h02.32.314,comp,2024.2.4,59.684919479580664,2025-02-18 17h02.44.699386 -0500,
43,43,0,critical,hdw,35.0,2.1,lower,133.0,57.0,70.0,70.0,57.0,133.0,3,2.042858362197876,None,,,,,0,0,0,0,0,43,43,44,194.77280378341675,,,,,,,,,,,,,,,,,,,,,,,,,,,,,,,,,,,,,,,,,,,,,,,,,,,,,,,,,,,,,,,,,,,,,,,,,,,,,,,,,133.0,57.0,70.0,70.0,57.0,133.0,2.1,2.11,-160,261,0,278,198,-280,194.7576825618744,194.75775837898254,194.7605800628662,194.77280378341675,194.91379356384277,194.91379356384277,194.91379356384277,194.91379356384277,194.91379356384277,194.91379356384277,194.91379356384277,196.83041214942932,3,2.042858362197876,None,,,,,,,,,,,,,,,,,,28,2,2025-02-18_17h02.32.314,comp,2024.2.4,59.684919479580664,2025-02-18 17h02.44.699386 -0500,
44,44,0,critical,wdh,35.0,2.1,upper,125.0,200.0,127.0,127.0,200.0,125.0,1,1.1166183948516846,None,,,,,0,0,0,0,0,44,44,33,196.85071873664856,,,,,,,,,,,,,,,,,,,,,,,,,,,,,,,,,,,,,,,,,,,,,,,,,,,,,,,,,,,,,,,,,,,,,,,,,,,,,,,,,125.0,200.0,127.0,127.0,200.0,125.0,2.1,2.11,-260,288,0,275,222,-267,196.83199906349182,196.83210825920105,196.835031747818,196.85071873664856,196.9919102191925,196.9919102191925,196.9919102191925,196.9919102191925,196.9919102191925,196.9919102191925,196.9919102191925,197.97510600090027,1,1.1166183948516846,None,,,,,,,,,,,,,,,,,,28,2,2025-02-18_17h02.32.314,comp,2024.2.4,59.684919479580664,2025-02-18 17h02.44.699386 -0500,
45,45,0,critical,whd,35.0,4.0,lower,57.0,133.0,133.0,57.0,70.0,70.0,1,2.6471965312957764,None,,,,,0,0,0,0,0,45,45,88,197.9914903640747,,,,,,,,,,,,,,,,,,,,,,,,,,,,,,,,,,,,,,,,,,,,,,,,,,,,,,,,,,,,,,,,,,,,,,,,,,,,,,,,,57.0,133.0,133.0,57.0,70.0,70.0,4.0,4.1,-191,-262,0,-5,160,-290,197.97665643692017,197.97673654556274,197.97978019714355,197.9914903640747,198.1287682056427,198.1287682056427,198.1287682056427,198.1287682056427,198.1287682056427,198.1287682056427,198.1287682056427,200.6425724029541,1,2.6471965312957764,None,,,,,,,,,,,,,,,,,,28,2,2025-02-18_17h02.32.314,comp,2024.2.4,59.684919479580664,2025-02-18 17h02.44.699386 -0500,
46,46,0,filler_square,None,None,None,None,None,None,None,None,None,None,2,1.7710630893707275,None,,,,,0,0,0,0,0,46,46,207,200.65951657295227,,,,,,,,,,,,,,,,,,,,,,,,,,,,,,,,,,,,,,,,,,,,,,,,,,,,,,,,,,,,,,,,,,,,,,,,,,,,,,,,,71.83765307046544,68.5349218475894,80.49648576582726,80.49648576582726,75.03577375368145,70.77870086050481,2.2,2.21,-171,-255,0,256,172,253,200.64451575279236,200.64459586143494,200.6478054523468,200.65951657295227,200.8142330646515,200.8142330646515,200.8142330646515,200.8142330646515,200.8142330646515,200.8142330646515,200.8142330646515,202.4499912261963,2,1.7710630893707275,None,,,,,,,,,,,,,,,,,,28,2,2025-02-18_17h02.32.314,comp,2024.2.4,59.684919479580664,2025-02-18 17h02.44.699386 -0500,
47,47,0,critical,dhw,20.0,1.0,lower,78.0,78.0,133.0,57.0,57.0,133.0,3,3.5048930644989014,None,,,,,0,0,0,0,0,47,47,54,202.46988821029663,,,,,,,,,,,,,,,,,,,,,,,,,,,,,,,,,,,,,,,,,,,,,,,,,,,,,,,,,,,,,,,,,,,,,,,,,,,,,,,,,78.0,78.0,133.0,57.0,57.0,133.0,1.0,1.3,316,-262,480,-279,671,-287,202.45159196853638,202.4516682624817,202.45461297035217,202.46988821029663,202.60875749588013,202.60875749588013,202.60875749588013,202.60875749588013,202.60875749588013,202.60875749588013,202.60875749588013,205.98607754707336,3,3.5048930644989014,None,,,,,,,,,,,,,,,,,,28,2,2025-02-18_17h02.32.314,comp,2024.2.4,59.684919479580664,2025-02-18 17h02.44.699386 -0500,
48,48,0,critical,dwh,35.0,3.0,upper,127.0,127.0,125.0,200.0,200.0,125.0,2,2.0197489261627197,None,,,,,0,0,0,0,0,48,48,63,206.00351905822754,,,,,,,,,,,,,,,,,,,,,,,,,,,,,,,,,,,,,,,,,,,,,,,,,,,,,,,,,,,,,,,,,,,,,,,,,,,,,,,,,127.0,127.0,125.0,200.0,200.0,125.0,3.0,3.1,-260,270,0,6,258,-282,205.987544298172,205.98762011528015,205.99039316177368,206.00351905822754,206.14429450035095,206.14429450035095,206.14429450035095,206.14429450035095,206.14429450035095,206.14429450035095,206.14429450035095,208.0278401374817,2,2.0197489261627197,None,,,,,,,,,,,,,,,,,,28,2,2025-02-18_17h02.32.314,comp,2024.2.4,59.684919479580664,2025-02-18 17h02.44.699386 -0500,
49,49,0,filler_random,None,None,None,None,None,None,None,None,None,None,2,2.1940715312957764,None,,,,,0,0,0,0,0,49,49,141,208.04497933387756,,,,,,,,,,,,,,,,,,,,,,,,,,,,,,,,,,,,,,,,,,,,,,,,,,,,,,,,,,,,,,,,,,,,,,,,,,,,,,,,,67.48710389492393,181.48342708419042,116.4954288167363,197.91892311334183,143.5081054185352,130.47176404751931,2.2,2.22,-286,285,0,-272,260,-278,208.02967858314514,208.02978944778442,208.03306794166565,208.04497933387756,208.19958305358887,208.19958305358887,208.19958305358887,208.19958305358887,208.19958305358887,208.19958305358887,208.19958305358887,210.24762988090515,2,2.1940715312957764,None,,,,,,,,,,,,,,,,,,28,2,2025-02-18_17h02.32.314,comp,2024.2.4,59.684919479580664,2025-02-18 17h02.44.699386 -0500,
50,50,0,critical,hdw,20.0,2.1,lower,133.0,57.0,78.0,78.0,57.0,133.0,3,1.5438556671142578,None,,,,,0,0,0,0,0,50,50,22,210.26332449913025,,,,,,,,,,,,,,,,,,,,,,,,,,,,,,,,,,,,,,,,,,,,,,,,,,,,,,,,,,,,,,,,,,,,,,,,,,,,,,,,,133.0,57.0,78.0,78.0,57.0,133.0,2.1,2.12,-164,-275,0,-271,202,259,210.24921369552612,210.24928903579712,210.25263166427612,210.26332449913025,210.41631317138672,210.41631317138672,210.41631317138672,210.41631317138672,210.41631317138672,210.41631317138672,210.41631317138672,211.81298446655273,3,1.5438556671142578,None,,,,,,,,,,,,,,,,,,28,2,2025-02-18_17h02.32.314,comp,2024.2.4,59.684919479580664,2025-02-18 17h02.44.699386 -0500,
51,51,0,critical,whd,20.0,4.0,upper,125.0,200.0,200.0,125.0,141.0,141.0,1,2.4050371646881104,None,,,,,0,0,0,0,0,51,51,95,211.83331847190857,,,,,,,,,,,,,,,,,,,,,,,,,,,,,,,,,,,,,,,,,,,,,,,,,,,,,,,,,,,,,,,,,,,,,,,,,,,,,,,,,125.0,200.0,200.0,125.0,141.0,141.0,4.0,4.2,-258,3,0,-284,229,16,211.81450486183167,211.8145821094513,211.81760621070862,211.83331847190857,211.98050332069397,211.98050332069397,211.98050332069397,211.98050332069397,211.98050332069397,211.98050332069397,211.98050332069397,214.25418400764465,1,2.4050371646881104,None,,,,,,,,,,,,,,,,,,28,2,2025-02-18_17h02.32.314,comp,2024.2.4,59.684919479580664,2025-02-18 17h02.44.699386 -0500,
52,52,0,critical,wdh,35.0,3.0,lower,57.0,133.0,70.0,70.0,133.0,57.0,1,3.852034330368042,None,,,,,0,0,0,0,0,52,52,74,214.2748715877533,,,,,,,,,,,,,,,,,,,,,,,,,,,,,,,,,,,,,,,,,,,,,,,,,,,,,,,,,,,,,,,,,,,,,,,,,,,,,,,,,57.0,133.0,70.0,70.0,133.0,57.0,3.0,3.1,-198,274,0,17,160,-251,214.2558057308197,214.25588178634644,214.25909972190857,214.2748715877533,214.41461420059204,214.41461420059204,214.41461420059204,214.41461420059204,214.41461420059204,214.41461420059204,214.41461420059204,218.13647174835205,1,3.852034330368042,None,,,,,,,,,,,,,,,,,,28,2,2025-02-18_17h02.32.314,comp,2024.2.4,59.684919479580664,2025-02-18 17h02.44.699386 -0500,
53,53,0,filler_square,None,None,None,None,None,None,None,None,None,None,3,1.0407235622406006,None,,,,,0,0,0,0,0,53,53,205,218.15778303146362,,,,,,,,,,,,,,,,,,,,,,,,,,,,,,,,,,,,,,,,,,,,,,,,,,,,,,,,,,,,,,,,,,,,,,,,,,,,,,,,,109.01165739884694,99.4670520608561,68.05250119397961,90.7370758273485,141.96538407309922,141.96538407309922,3.0,3.2,-191,-275,0,0,212,288,218.13850855827332,218.13863515853882,218.141916513443,218.15778303146362,218.29922819137573,218.29922819137573,218.29922819137573,218.29922819137573,218.29922819137573,218.29922819137573,218.29922819137573,219.2161889076233,3,1.0407235622406006,None,,,,,,,,,,,,,,,,,,28,2,2025-02-18_17h02.32.314,comp,2024.2.4,59.684919479580664,2025-02-18 17h02.44.699386 -0500,
54,54,0,filler_square,None,None,None,None,None,None,None,None,None,None,2,1.06221604347229,None,,,,,0,0,0,0,0,54,54,197,219.23255324363708,,,,,,,,,,,,,,,,,,,,,,,,,,,,,,,,,,,,,,,,,,,,,,,,,,,,,,,,,,,,,,,,,,,,,,,,,,,,,,,,,75.47877608385232,61.87397727999421,78.59254779901751,78.59254779901751,60.22142941794617,59.4363695847207,4.0,4.1,-166,-279,0,-4,165,-278,219.21805214881897,219.21813082695007,219.22224044799805,219.23255324363708,219.38335347175598,219.38335347175598,219.38335347175598,219.38335347175598,219.38335347175598,219.38335347175598,219.38335347175598,220.30086469650269,2,1.06221604347229,None,,,,,,,,,,,,,,,,,,28,2,2025-02-18_17h02.32.314,comp,2024.2.4,59.684919479580664,2025-02-18 17h02.44.699386 -0500,
55,55,0,critical,dwh,20.0,2.1,upper,141.0,141.0,125.0,200.0,200.0,125.0,2,3.75418758392334,None,,,,,0,0,0,0,0,55,55,7,220.31634092330933,,,,,,,,,,,,,,,,,,,,,,,,,,,,,,,,,,,,,,,,,,,,,,,,,,,,,,,,,,,,,,,,,,,,,,,,,,,,,,,,,141.0,141.0,125.0,200.0,200.0,125.0,2.1,2.11,-266,275,0,285,258,-277,220.3024299144745,220.30253911018372,220.3056242465973,220.31634092330933,220.4695007801056,220.4695007801056,220.4695007801056,220.4695007801056,220.4695007801056,220.4695007801056,220.4695007801056,224.08465003967285,2,3.75418758392334,None,,,,,,,,,,,,,,,,,,28,2,2025-02-18_17h02.32.314,comp,2024.2.4,59.684919479580664,2025-02-18 17h02.44.699386 -0500,
56,56,0,filler_random,None,None,None,None,None,None,None,None,None,None,2,1.3626201152801514,None,,,,,0,0,0,0,0,56,56,162,224.10034441947937,,,,,,,,,,,,,,,,,,,,,,,,,,,,,,,,,,,,,,,,,,,,,,,,,,,,,,,,,,,,,,,,,,,,,,,,,,,,,,,,,121.3786823808156,64.71740931602471,175.51989259860036,155.0090804917387,199.97867752006806,60.78632897231657,1.0,1.3,274,-256,480,-267,684,-257,224.08657240867615,224.0866630077362,224.09012866020203,224.10034441947937,224.25222063064575,224.25222063064575,224.25222063064575,224.25222063064575,224.25222063064575,224.25222063064575,224.25222063064575,225.46739077568054,2,1.3626201152801514,None,,,,,,,,,,,,,,,,,,28,2,2025-02-18_17h02.32.314,comp,2024.2.4,59.684919479580664,2025-02-18 17h02.44.699386 -0500,
57,57,0,catch,None,None,None,None,None,None,None,None,None,None,1,0.9937319755554199,None,,,,,0,0,0,0,0,57,57,126,225.48580527305603,,,,,,,,,,,,,,,,,,,,,,,,,,,,,,,,,,,,,,,,,,,,,,,,,,,,,,,,,,,,,,,,,,,,,,,,,,,,,,,,,178,147,97,93,93,97,3.0,3.2,-216,-267,0,-6,191,258,225.46958184242249,225.46966218948364,225.47268676757812,225.48580527305603,225.6354217529297,225.6354217529297,225.6354217529297,225.6354217529297,225.6354217529297,225.6354217529297,225.6354217529297,226.48575806617737,1,0.9937319755554199,None,,,,,,,,,,,,,,,,,,28,2,2025-02-18_17h02.32.314,comp,2024.2.4,59.684919479580664,2025-02-18 17h02.44.699386 -0500,
58,58,0,critical,hwd,20.0,1.0,lower,133.0,57.0,57.0,133.0,78.0,78.0,2,3.711909532546997,None,,,,,0,0,0,0,0,58,58,102,226.5032422542572,,,,,,,,,,,,,,,,,,,,,,,,,,,,,,,,,,,,,,,,,,,,,,,,,,,,,,,,,,,,,,,,,,,,,,,,,,,,,,,,,133.0,57.0,57.0,133.0,78.0,78.0,1.0,1.3,289,-272,480,-273,682,-254,226.48736095428467,226.48746514320374,226.4915292263031,226.5032422542572,226.6541142463684,226.6541142463684,226.6541142463684,226.6541142463684,226.6541142463684,226.6541142463684,226.6541142463684,230.22569847106934,2,3.711909532546997,None,,,,,,,,,,,,,,,,,,28,2,2025-02-18_17h02.32.314,comp,2024.2.4,59.684919479580664,2025-02-18 17h02.44.699386 -0500,
59,59,0,critical,wdh,35.0,4.0,lower,57.0,133.0,70.0,70.0,133.0,57.0,1,3.5399694442749023,None,,,,,0,0,0,0,0,59,59,76,230.24336314201355,,,,,,,,,,,,,,,,,,,,,,,,,,,,,,,,,,,,,,,,,,,,,,,,,,,,,,,,,,,,,,,,,,,,,,,,,,,,,,,,,57.0,133.0,70.0,70.0,133.0,57.0,4.0,4.2,-198,1,0,-260,160,-7,230.22716164588928,230.22724080085754,230.2301630973816,230.24336314201355,230.38686847686768,230.38686847686768,230.38686847686768,230.38686847686768,230.38686847686768,230.38686847686768,230.38686847686768,233.7932689189911,1,3.5399694442749023,None,,,,,,,,,,,,,,,,,,28,2,2025-02-18_17h02.32.314,comp,2024.2.4,59.684919479580664,2025-02-18 17h02.44.699386 -0500,
60,60,0,critical,hwd,20.0,3.0,lower,133.0,57.0,57.0,133.0,78.0,78.0,2,1.538811206817627,None,,,,,0,0,0,0,0,60,60,104,233.81231713294983,,,,,,,,,,,,,,,,,,,,,,,,,,,,,,,,,,,,,,,,,,,,,,,,,,,,,,,,,,,,,,,,,,,,,,,,,,,,,,,,,133.0,57.0,57.0,133.0,78.0,78.0,3.0,3.2,-191,-259,0,15,202,258,233.79505348205566,233.79513788223267,233.79906272888184,233.81231713294983,233.9541654586792,233.9541654586792,233.9541654586792,233.9541654586792,233.9541654586792,233.9541654586792,233.9541654586792,235.35754323005676,2,1.538811206817627,None,,,,,,,,,,,,,,,,,,28,2,2025-02-18_17h02.32.314,comp,2024.2.4,59.684919479580664,2025-02-18 17h02.44.699386 -0500,
61,61,0,filler_random,None,None,None,None,None,None,None,None,None,None,2,1.120879888534546,None,,,,,0,0,0,0,0,61,61,132,235.37366461753845,,,,,,,,,,,,,,,,,,,,,,,,,,,,,,,,,,,,,,,,,,,,,,,,,,,,,,,,,,,,,,,,,,,,,,,,,,,,,,,,,176.81434472912082,64.52491646363454,187.72310391702547,125.53126776611437,87.19400290680775,91.57086678695157,2.2,2.21,-191,-276,0,282,205,263,235.35952162742615,235.35960507392883,235.36279845237732,235.37366461753845,235.5215995311737,235.5215995311737,235.5215995311737,235.5215995311737,235.5215995311737,235.5215995311737,235.5215995311737,236.50410795211792,2,1.120879888534546,None,,,,,,,,,,,,,,,,,,28,2,2025-02-18_17h02.32.314,comp,2024.2.4,59.684919479580664,2025-02-18 17h02.44.699386 -0500,
62,62,0,critical,whd,35.0,2.1,upper,125.0,200.0,200.0,125.0,127.0,127.0,1,2.692530393600464,None,,,,,0,0,0,0,0,62,62,37,236.5228979587555,,,,,,,,,,,,,,,,,,,,,,,,,,,,,,,,,,,,,,,,,,,,,,,,,,,,,,,,,,,,,,,,,,,,,,,,,,,,,,,,,125.0,200.0,200.0,125.0,127.0,127.0,2.1,2.12,-258,-263,0,-277,222,263,236.5055913925171,236.50566816329956,236.5086920261383,236.5228979587555,236.65968680381775,236.65968680381775,236.65968680381775,236.65968680381775,236.65968680381775,236.65968680381775,236.65968680381775,239.22286081314087,1,2.692530393600464,None,,,,,,,,,,,,,,,,,,28,2,2025-02-18_17h02.32.314,comp,2024.2.4,59.684919479580664,2025-02-18 17h02.44.699386 -0500,
63,63,0,catch,None,None,None,None,None,None,None,None,None,None,2,0.8595647811889648,None,,,,,0,0,0,0,0,63,63,125,239.24326014518738,,,,,,,,,,,,,,,,,,,,,,,,,,,,,,,,,,,,,,,,,,,,,,,,,,,,,,,,,,,,,,,,,,,,,,,,,,,,,,,,,59,131,146,179,87,103,2.1,2.11,-251,282,0,251,237,-272,239.2247679233551,239.22484636306763,239.22813248634338,239.24326014518738,239.38934350013733,239.38934350013733,239.38934350013733,239.38934350013733,239.38934350013733,239.38934350013733,239.38934350013733,240.10530805587769,2,0.8595647811889648,None,,,,,,,,,,,,,,,,,,28,2,2025-02-18_17h02.32.314,comp,2024.2.4,59.684919479580664,2025-02-18 17h02.44.699386 -0500,
64,64,0,critical,hdw,35.0,3.0,upper,200.0,125.0,127.0,127.0,125.0,200.0,3,1.3650739192962646,None,,,,,0,0,0,0,0,64,64,111,240.12210321426392,,,,,,,,,,,,,,,,,,,,,,,,,,,,,,,,,,,,,,,,,,,,,,,,,,,,,,,,,,,,,,,,,,,,,,,,,,,,,,,,,200.0,125.0,127.0,127.0,125.0,200.0,3.0,3.2,-222,-281,0,-2,260,286,240.10687971115112,240.10695505142212,240.11038398742676,240.12210321426392,240.27870225906372,240.27870225906372,240.27870225906372,240.27870225906372,240.27870225906372,240.27870225906372,240.27870225906372,241.49189734458923,3,1.3650739192962646,None,,,,,,,,,,,,,,,,,,28,2,2025-02-18_17h02.32.314,comp,2024.2.4,59.684919479580664,2025-02-18 17h02.44.699386 -0500,
65,65,0,critical,dhw,20.0,1.0,upper,141.0,141.0,200.0,125.0,125.0,200.0,3,2.161902666091919,None,,,,,0,0,0,0,0,65,65,55,241.508540391922,,,,,,,,,,,,,,,,,,,,,,,,,,,,,,,,,,,,,,,,,,,,,,,,,,,,,,,,,,,,,,,,,,,,,,,,,,,,,,,,,141.0,141.0,200.0,125.0,125.0,200.0,1.0,1.2,-229,12,0,0,258,14,241.49363374710083,241.49376726150513,241.49778532981873,241.508540391922,241.6625235080719,241.6625235080719,241.6625235080719,241.6625235080719,241.6625235080719,241.6625235080719,241.6625235080719,243.67393231391907,3,2.161902666091919,None,,,,,,,,,,,,,,,,,,28,2,2025-02-18_17h02.32.314,comp,2024.2.4,59.684919479580664,2025-02-18 17h02.44.699386 -0500,
66,66,0,filler_random,None,None,None,None,None,None,None,None,None,None,1,4.820786952972412,None,,,,,0,0,0,0,0,66,66,151,243.68983030319214,,,,,,,,,,,,,,,,,,,,,,,,,,,,,,,,,,,,,,,,,,,,,,,,,,,,,,,,,,,,,,,,,,,,,,,,,,,,,,,,,143.6760502837277,131.45639869744517,92.79228016762221,189.79321821573762,126.21441535765199,123.77612132925375,3.0,3.1,-257,274,0,-12,253,-262,243.67567133903503,243.67574906349182,243.67910480499268,243.68983030319214,243.83934807777405,243.83934807777405,243.83934807777405,243.83934807777405,243.83934807777405,243.83934807777405,243.83934807777405,248.52615571022034,1,4.820786952972412,None,,,,,,,,,,,,,,,,,,28,2,2025-02-18_17h02.32.314,comp,2024.2.4,59.684919479580664,2025-02-18 17h02.44.699386 -0500,
67,67,0,filler_square,None,None,None,None,None,None,None,None,None,None,1,1.60752534866333,None,,,,,0,0,0,0,0,67,67,200,248.54284000396729,,,,,,,,,,,,,,,,,,,,,,,,,,,,,,,,,,,,,,,,,,,,,,,,,,,,,,,,,,,,,,,,,,,,,,,,,,,,,,,,,82.18103722800537,82.18103722800537,58.26288262330035,69.94508550117982,70.48749083986377,74.73254026918121,2.1,2.12,-172,-260,0,-271,168,260,248.52797985076904,248.52805614471436,248.5311360359192,248.54284000396729,248.69165110588074,248.69165110588074,248.69165110588074,248.69165110588074,248.69165110588074,248.69165110588074,248.69165110588074,250.16315174102783,1,1.60752534866333,None,,,,,,,,,,,,,,,,,,28,2,2025-02-18_17h02.32.314,comp,2024.2.4,59.684919479580664,2025-02-18 17h02.44.699386 -0500,
68,68,0,critical,hdw,20.0,4.0,upper,200.0,125.0,141.0,141.0,125.0,200.0,3,1.9791240692138672,None,,,,,0,0,0,0,0,68,68,119,250.17933416366577,,,,,,,,,,,,,,,,,,,,,,,,,,,,,,,,,,,,,,,,,,,,,,,,,,,,,,,,,,,,,,,,,,,,,,,,,,,,,,,,,200.0,125.0,141.0,141.0,125.0,200.0,4.0,4.1,-229,-266,0,-18,266,-286,250.1649510860443,250.16508293151855,250.16861009597778,250.17933416366577,250.317152261734,250.317152261734,250.317152261734,250.317152261734,250.317152261734,250.317152261734,250.317152261734,252.16057872772217,3,1.9791240692138672,None,,,,,,,,,,,,,,,,,,28,2,2025-02-18_17h02.32.314,comp,2024.2.4,59.684919479580664,2025-02-18 17h02.44.699386 -0500,
69,69,0,critical,wdh,20.0,3.0,lower,57.0,133.0,78.0,78.0,133.0,57.0,1,1.8537240028381348,None,,,,,0,0,0,0,0,69,69,80,252.17708039283752,,,,,,,,,,,,,,,,,,,,,,,,,,,,,,,,,,,,,,,,,,,,,,,,,,,,,,,,,,,,,,,,,,,,,,,,,,,,,,,,,57.0,133.0,78.0,78.0,133.0,57.0,3.0,3.2,-202,-251,0,12,164,270,252.16219449043274,252.16227102279663,252.16635131835938,252.17708039283752,252.32737946510315,252.32737946510315,252.32737946510315,252.32737946510315,252.32737946510315,252.32737946510315,252.32737946510315,254.04384446144104,1,1.8537240028381348,None,,,,,,,,,,,,,,,,,,28,2,2025-02-18_17h02.32.314,comp,2024.2.4,59.684919479580664,2025-02-18 17h02.44.699386 -0500,
70,70,0,filler_random,None,None,None,None,None,None,None,None,None,None,3,2.730578899383545,None,,,,,0,0,0,0,0,70,70,159,254.0605320930481,,,,,,,,,,,,,,,,,,,,,,,,,,,,,,,,,,,,,,,,,,,,,,,,,,,,,,,,,,,,,,,,,,,,,,,,,,,,,,,,,89.43163890197891,112.24327109938122,99.50056995428582,93.25149523788895,104.04944609424459,108.56939685613034,4.0,4.1,-199,-256,0,3,197,-262,254.0457022190094,254.04578852653503,254.0493528842926,254.0605320930481,254.20998454093933,254.20998454093933,254.20998454093933,254.20998454093933,254.20998454093933,254.20998454093933,254.20998454093933,256.79382705688477,3,2.730578899383545,None,,,,,,,,,,,,,,,,,,28,2,2025-02-18_17h02.32.314,comp,2024.2.4,59.684919479580664,2025-02-18 17h02.44.699386 -0500,
71,71,0,critical,dhw,20.0,2.1,lower,78.0,78.0,133.0,57.0,57.0,133.0,3,2.1561131477355957,None,,,,,0,0,0,0,0,71,71,2,256.81063961982727,,,,,,,,,,,,,,,,,,,,,,,,,,,,,,,,,,,,,,,,,,,,,,,,,,,,,,,,,,,,,,,,,,,,,,,,,,,,,,,,,78.0,78.0,133.0,57.0,57.0,133.0,2.1,2.11,-164,275,0,265,191,-268,256.79542231559753,256.7955379486084,256.7989811897278,256.81063961982727,256.9617645740509,256.9617645740509,256.9617645740509,256.9617645740509,256.9617645740509,256.9617645740509,256.9617645740509,258.98307275772095,3,2.1561131477355957,None,,,,,,,,,,,,,,,,,,28,2,2025-02-18_17h02.32.314,comp,2024.2.4,59.684919479580664,2025-02-18 17h02.44.699386 -0500,
72,72,0,critical,dwh,20.0,4.0,lower,78.0,78.0,57.0,133.0,133.0,57.0,2,2.1646015644073486,None,,,,,0,0,0,0,0,72,72,70,259.0018277168274,,,,,,,,,,,,,,,,,,,,,,,,,,,,,,,,,,,,,,,,,,,,,,,,,,,,,,,,,,,,,,,,,,,,,,,,,,,,,,,,,78.0,78.0,57.0,133.0,133.0,57.0,4.0,4.1,-202,-283,0,4,191,-274,258.9846580028534,258.98473167419434,258.9879868030548,259.0018277168274,259.14509081840515,259.14509081840515,259.14509081840515,259.14509081840515,259.14509081840515,259.14509081840515,259.14509081840515,261.1818494796753,2,2.1646015644073486,None,,,,,,,,,,,,,,,,,,28,2,2025-02-18_17h02.32.314,comp,2024.2.4,59.684919479580664,2025-02-18 17h02.44.699386 -0500,
73,73,0,catch,None,None,None,None,None,None,None,None,None,None,1,1.4891717433929443,None,,,,,0,0,0,0,0,73,73,124,261.19826316833496,,,,,,,,,,,,,,,,,,,,,,,,,,,,,,,,,,,,,,,,,,,,,,,,,,,,,,,,,,,,,,,,,,,,,,,,,,,,,,,,,154,171,120,70,106,84,2.1,2.12,-216,-271,0,-262,173,286,261.18401765823364,261.1840982437134,261.1879930496216,261.19826316833496,261.3462481498718,261.3462481498718,261.3462481498718,261.3462481498718,261.3462481498718,261.3462481498718,261.3462481498718,262.695565700531,1,1.4891717433929443,None,,,,,,,,,,,,,,,,,,28,2,2025-02-18_17h02.32.314,comp,2024.2.4,59.684919479580664,2025-02-18 17h02.44.699386 -0500,
74,74,0,critical,hwd,20.0,4.0,upper,200.0,125.0,125.0,200.0,141.0,141.0,2,2.8384971618652344,None,,,,,0,0,0,0,0,74,74,107,262.71214723587036,,,,,,,,,,,,,,,,,,,,,,,,,,,,,,,,,,,,,,,,,,,,,,,,,,,,,,,,,,,,,,,,,,,,,,,,,,,,,,,,,200.0,125.0,125.0,200.0,141.0,141.0,4.0,4.1,-258,-276,0,5,266,-282,262.6971700191498,262.6972451210022,262.70050168037415,262.71214723587036,262.86673069000244,262.86673069000244,262.86673069000244,262.86673069000244,262.86673069000244,262.86673069000244,262.86673069000244,265.56015276908875,2,2.8384971618652344,None,,,,,,,,,,,,,,,,,,28,2,2025-02-18_17h02.32.314,comp,2024.2.4,59.684919479580664,2025-02-18 17h02.44.699386 -0500,
75,75,0,filler_random,None,None,None,None,None,None,None,None,None,None,1,2.2447619438171387,None,,,,,0,0,0,0,0,75,75,138,265.57775044441223,,,,,,,,,,,,,,,,,,,,,,,,,,,,,,,,,,,,,,,,,,,,,,,,,,,,,,,,,,,,,,,,,,,,,,,,,,,,,,,,,163.33764761822857,69.6975416611616,97.09497825262952,96.33279231696967,190.26573883300486,57.26031705601164,3.0,3.1,-179,275,0,12,173,-259,265.56185603141785,265.56193447113037,265.56476759910583,265.57775044441223,265.7141571044922,265.7141571044922,265.7141571044922,265.7141571044922,265.7141571044922,265.7141571044922,265.7141571044922,267.8383183479309,1,2.2447619438171387,None,,,,,,,,,,,,,,,,,,28,2,2025-02-18_17h02.32.314,comp,2024.2.4,59.684919479580664,2025-02-18 17h02.44.699386 -0500,
76,76,0,filler_square,None,None,None,None,None,None,None,None,None,None,3,1.2552783489227295,None,,,,,0,0,0,0,0,76,76,175,267.85557556152344,,,,,,,,,,,,,,,,,,,,,,,,,,,,,,,,,,,,,,,,,,,,,,,,,,,,,,,,,,,,,,,,,,,,,,,,,,,,,,,,,68.10716912776903,86.7237331273285,77.03663270255262,93.08755275228337,111.73183809093004,111.73183809093004,2.2,2.22,-186,290,0,-259,198,-258,267.8400368690491,267.8401107788086,267.8429262638092,267.85557556152344,267.99810314178467,267.99810314178467,267.99810314178467,267.99810314178467,267.99810314178467,267.99810314178467,267.99810314178467,269.1139750480652,3,1.2552783489227295,None,,,,,,,,,,,,,,,,,,28,2,2025-02-18_17h02.32.314,comp,2024.2.4,59.684919479580664,2025-02-18 17h02.44.699386 -0500,
77,77,0,critical,wdh,20.0,3.0,upper,125.0,200.0,141.0,141.0,200.0,125.0,1,3.4184465408325195,None,,,,,0,0,0,0,0,77,77,81,269.1320230960846,,,,,,,,,,,,,,,,,,,,,,,,,,,,,,,,,,,,,,,,,,,,,,,,,,,,,,,,,,,,,,,,,,,,,,,,,,,,,,,,,125.0,200.0,141.0,141.0,200.0,125.0,3.0,3.2,-266,-274,0,1,229,282,269.1156544685364,269.11573028564453,269.11897706985474,269.1320230960846,269.2790906429291,269.2790906429291,269.2790906429291,269.2790906429291,269.2790906429291,269.2790906429291,269.2790906429291,272.565927028656,1,3.4184465408325195,None,,,,,,,,,,,,,,,,,,28,2,2025-02-18_17h02.32.314,comp,2024.2.4,59.684919479580664,2025-02-18 17h02.44.699386 -0500,
78,78,0,filler_square,None,None,None,None,None,None,None,None,None,None,2,1.5532021522521973,None,,,,,0,0,0,0,0,78,78,188,272.5816833972931,,,,,,,,,,,,,,,,,,,,,,,,,,,,,,,,,,,,,,,,,,,,,,,,,,,,,,,,,,,,,,,,,,,,,,,,,,,,,,,,,195.1690688335026,158.20925651198155,198.56194781169802,198.56194781169802,92.76078432117333,90.68300888772025,1.0,1.1,-754,267,-480,289,-239,276,272.5679383277893,272.56804609298706,272.5712778568268,272.5816833972931,272.73193645477295,272.73193645477295,272.73193645477295,272.73193645477295,272.73193645477295,272.73193645477295,272.73193645477295,274.1536931991577,2,1.5532021522521973,None,,,,,,,,,,,,,,,,,,28,2,2025-02-18_17h02.32.314,comp,2024.2.4,59.684919479580664,2025-02-18 17h02.44.699386 -0500,
79,79,0,critical,dhw,20.0,2.1,upper,141.0,141.0,200.0,125.0,125.0,200.0,3,1.654160976409912,None,,,,,0,0,0,0,0,79,79,27,274.1696538925171,,,,,,,,,,,,,,,,,,,,,,,,,,,,,,,,,,,,,,,,,,,,,,,,,,,,,,,,,,,,,,,,,,,,,,,,,,,,,,,,,141.0,141.0,200.0,125.0,125.0,200.0,2.1,2.12,-229,-255,0,-257,258,255,274.1556508541107,274.15572571754456,274.1585683822632,274.1696538925171,274.3168840408325,274.3168840408325,274.3168840408325,274.3168840408325,274.3168840408325,274.3168840408325,274.3168840408325,275.8354651927948,3,1.654160976409912,None,,,,,,,,,,,,,,,,,,28,2,2025-02-18_17h02.32.314,comp,2024.2.4,59.684919479580664,2025-02-18 17h02.44.699386 -0500,
80,80,0,filler_square,None,None,None,None,None,None,None,None,None,None,3,1.5151851177215576,None,,,,,0,0,0,0,0,80,80,185,275.85206604003906,,,,,,,,,,,,,,,,,,,,,,,,,,,,,,,,,,,,,,,,,,,,,,,,,,,,,,,,,,,,,,,,,,,,,,,,,,,,,,,,,57.52875407493909,58.123711529187084,59.37993024766855,59.37993024766855,58.83485355967654,58.73079547455284,2.2,2.21,-155,-288,0,268,155,252,275.8377549648285,275.8378920555115,275.8412883281708,275.85206604003906,276.0027799606323,276.0027799606323,276.0027799606323,276.0027799606323,276.0027799606323,276.0027799606323,276.0027799606323,277.3749327659607,3,1.5151851177215576,None,,,,,,,,,,,,,,,,,,28,2,2025-02-18_17h02.32.314,comp,2024.2.4,59.684919479580664,2025-02-18 17h02.44.699386 -0500,
81,81,0,filler_square,None,None,None,None,None,None,None,None,None,None,1,1.2247023582458496,None,,,,,0,0,0,0,0,81,81,182,277.39037561416626,,,,,,,,,,,,,,,,,,,,,,,,,,,,,,,,,,,,,,,,,,,,,,,,,,,,,,,,,,,,,,,,,,,,,,,,,,,,,,,,,193.4762413533046,193.4762413533046,125.02789154874519,100.16779432110023,141.79202708578794,92.00381095161124,2.1,2.12,-243,-251,0,-281,192,261,277.3767366409302,277.3768150806427,277.3797070980072,277.39037561416626,277.5349745750427,277.5349745750427,277.5349745750427,277.5349745750427,277.5349745750427,277.5349745750427,277.5349745750427,278.617125749588,1,1.2247023582458496,None,,,,,,,,,,,,,,,,,,28,2,2025-02-18_17h02.32.314,comp,2024.2.4,59.684919479580664,2025-02-18 17h02.44.699386 -0500,
82,82,0,critical,whd,35.0,1.0,upper,125.0,200.0,200.0,125.0,127.0,127.0,1,1.5331659317016602,None,,,,,0,0,0,0,0,82,82,85,278.6335039138794,,,,,,,,,,,,,,,,,,,,,,,,,,,,,,,,,,,,,,,,,,,,,,,,,,,,,,,,,,,,,,,,,,,,,,,,,,,,,,,,,125.0,200.0,200.0,125.0,127.0,127.0,1.0,1.3,222,-273,480,-255,702,-254,278.6186361312866,278.61871671676636,278.6218318939209,278.6335039138794,278.7699782848358,278.7699782848358,278.7699782848358,278.7699782848358,278.7699782848358,278.7699782848358,278.7699782848358,280.1703779697418,1,1.5331659317016602,None,,,,,,,,,,,,,,,,,,28,2,2025-02-18_17h02.32.314,comp,2024.2.4,59.684919479580664,2025-02-18 17h02.44.699386 -0500,
83,83,0,critical,hdw,20.0,3.0,upper,200.0,125.0,141.0,141.0,125.0,200.0,3,2.840276002883911,None,,,,,0,0,0,0,0,83,83,117,280.19080233573914,,,,,,,,,,,,,,,,,,,,,,,,,,,,,,,,,,,,,,,,,,,,,,,,,,,,,,,,,,,,,,,,,,,,,,,,,,,,,,,,,200.0,125.0,141.0,141.0,125.0,200.0,3.0,3.1,-229,268,0,-8,266,-257,280.17191553115845,280.1720132827759,280.17513632774353,280.19080233573914,280.3346884250641,280.3346884250641,280.3346884250641,280.3346884250641,280.3346884250641,280.3346884250641,280.3346884250641,283.0391516685486,3,2.840276002883911,None,,,,,,,,,,,,,,,,,,28,2,2025-02-18_17h02.32.314,comp,2024.2.4,59.684919479580664,2025-02-18 17h02.44.699386 -0500,
84,84,0,critical,wdh,20.0,2.1,upper,125.0,200.0,141.0,141.0,200.0,125.0,1,1.789017915725708,None,,,,,0,0,0,0,0,84,84,35,283.0582072734833,,,,,,,,,,,,,,,,,,,,,,,,,,,,,,,,,,,,,,,,,,,,,,,,,,,,,,,,,,,,,,,,,,,,,,,,,,,,,,,,,125.0,200.0,141.0,141.0,200.0,125.0,2.1,2.11,-266,275,0,269,229,-252,283.0412175655365,283.041353225708,283.044349193573,283.0582072734833,283.20381259918213,283.20381259918213,283.20381259918213,283.20381259918213,283.20381259918213,283.20381259918213,283.20381259918213,284.85567355155945,1,1.789017915725708,None,,,,,,,,,,,,,,,,,,28,2,2025-02-18_17h02.32.314,comp,2024.2.4,59.684919479580664,2025-02-18 17h02.44.699386 -0500,
85,85,0,critical,wdh,35.0,2.1,lower,57.0,133.0,70.0,70.0,133.0,57.0,1,1.9601919651031494,None,,,,,0,0,0,0,0,85,85,8,284.8716154098511,,,,,,,,,,,,,,,,,,,,,,,,,,,,,,,,,,,,,,,,,,,,,,,,,,,,,,,,,,,,,,,,,,,,,,,,,,,,,,,,,57.0,133.0,70.0,70.0,133.0,57.0,2.1,2.11,-198,269,0,255,160,-273,284.857298374176,284.85737895965576,284.86075615882874,284.8716154098511,285.02982354164124,285.02982354164124,285.02982354164124,285.02982354164124,285.02982354164124,285.02982354164124,285.02982354164124,286.83761382102966,1,1.9601919651031494,None,,,,,,,,,,,,,,,,,,28,2,2025-02-18_17h02.32.314,comp,2024.2.4,59.684919479580664,2025-02-18 17h02.44.699386 -0500,
86,86,0,critical,hwd,20.0,1.0,upper,200.0,125.0,125.0,200.0,141.0,141.0,2,1.4404749870300293,None,,,,,0,0,0,0,0,86,86,103,286.85515880584717,,,,,,,,,,,,,,,,,,,,,,,,,,,,,,,,,,,,,,,,,,,,,,,,,,,,,,,,,,,,,,,,,,,,,,,,,,,,,,,,,200.0,125.0,125.0,200.0,141.0,141.0,1.0,1.3,222,-258,480,-265,746,-281,286.8392949104309,286.8393726348877,286.8435597419739,286.85515880584717,287.00432085990906,287.00432085990906,287.00432085990906,287.00432085990906,287.00432085990906,287.00432085990906,287.00432085990906,288.3031015396118,2,1.4404749870300293,None,,,,,,,,,,,,,,,,,,28,2,2025-02-18_17h02.32.314,comp,2024.2.4,59.684919479580664,2025-02-18 17h02.44.699386 -0500,
87,87,0,critical,whd,20.0,2.1,lower,57.0,133.0,133.0,57.0,78.0,78.0,1,5.497525453567505,None,,,,,0,0,0,0,0,87,87,14,288.31769704818726,,,,,,,,,,,,,,,,,,,,,,,,,,,,,,,,,,,,,,,,,,,,,,,,,,,,,,,,,,,,,,,,,,,,,,,,,,,,,,,,,57.0,133.0,133.0,57.0,78.0,78.0,2.1,2.12,-191,-266,0,-258,164,251,288.30457496643066,288.30465054512024,288.3074827194214,288.31769704818726,288.47177171707153,288.47177171707153,288.47177171707153,288.47177171707153,288.47177171707153,288.47177171707153,288.47177171707153,293.82408928871155,1,5.497525453567505,None,,,,,,,,,,,,,,,,,,28,2,2025-02-18_17h02.32.314,comp,2024.2.4,59.684919479580664,2025-02-18 17h02.44.699386 -0500,
88,88,0,filler_random,None,None,None,None,None,None,None,None,None,None,2,1.2153825759887695,None,,,,,0,0,0,0,0,88,88,139,293.83993005752563,,,,,,,,,,,,,,,,,,,,,,,,,,,,,,,,,,,,,,,,,,,,,,,,,,,,,,,,,,,,,,,,,,,,,,,,,,,,,,,,,65.60974157576214,127.94049047668187,139.802569626503,133.01102286142478,116.51664083706216,97.1818533344892,3.0,3.1,-226,272,0,-8,211,-288,293.8259291648865,293.8260192871094,293.82922530174255,293.83993005752563,293.987375497818,293.987375497818,293.987375497818,293.987375497818,293.987375497818,293.987375497818,293.987375497818,295.0598590373993,2,1.2153825759887695,None,,,,,,,,,,,,,,,,,,28,2,2025-02-18_17h02.32.314,comp,2024.2.4,59.684919479580664,2025-02-18 17h02.44.699386 -0500,
89,89,0,critical,hwd,20.0,2.1,lower,133.0,57.0,57.0,133.0,78.0,78.0,2,2.546125650405884,None,,,,,0,0,0,0,0,89,89,42,295.0765337944031,,,,,,,,,,,,,,,,,,,,,,,,,,,,,,,,,,,,,,,,,,,,,,,,,,,,,,,,,,,,,,,,,,,,,,,,,,,,,,,,,133.0,57.0,57.0,133.0,78.0,78.0,2.1,2.11,-191,290,0,289,202,-267,295.06138491630554,295.0614926815033,295.0648512840271,295.0765337944031,295.22251176834106,295.22251176834106,295.22251176834106,295.22251176834106,295.22251176834106,295.22251176834106,295.22251176834106,297.64187145233154,2,2.546125650405884,None,,,,,,,,,,,,,,,,,,28,2,2025-02-18_17h02.32.314,comp,2024.2.4,59.684919479580664,2025-02-18 17h02.44.699386 -0500,
90,90,0,filler_square,None,None,None,None,None,None,None,None,None,None,1,0.899237871170044,None,,,,,0,0,0,0,0,90,90,179,297.6595199108124,,,,,,,,,,,,,,,,,,,,,,,,,,,,,,,,,,,,,,,,,,,,,,,,,,,,,,,,,,,,,,,,,,,,,,,,,,,,,,,,,119.51853911394537,119.51853911394537,104.05130010119632,60.765843048328534,78.42186308278932,63.275494895367146,3.0,3.1,-186,283,0,16,158,-290,297.6436765193939,297.64379358291626,297.6469101905823,297.6595199108124,297.80702114105225,297.80702114105225,297.80702114105225,297.80702114105225,297.80702114105225,297.80702114105225,297.80702114105225,298.5761697292328,1,0.899237871170044,None,,,,,,,,,,,,,,,,,,28,2,2025-02-18_17h02.32.314,comp,2024.2.4,59.684919479580664,2025-02-18 17h02.44.699386 -0500,
91,91,0,filler_square,None,None,None,None,None,None,None,None,None,None,1,1.4609489440917969,None,,,,,0,0,0,0,0,91,91,176,298.59360218048096,,,,,,,,,,,,,,,,,,,,,,,,,,,,,,,,,,,,,,,,,,,,,,,,,,,,,,,,,,,,,,,,,,,,,,,,,,,,,,,,,107.26735636027263,107.26735636027263,94.93217091988085,91.50640008067653,67.6550686641377,99.06152535986635,3.0,3.2,-195,-276,0,3,191,267,298.578058719635,298.578134059906,298.58097410202026,298.59360218048096,298.7405664920807,298.7405664920807,298.7405664920807,298.7405664920807,298.7405664920807,298.7405664920807,298.7405664920807,300.0585422515869,1,1.4609489440917969,None,,,,,,,,,,,,,,,,,,28,2,2025-02-18_17h02.32.314,comp,2024.2.4,59.684919479580664,2025-02-18 17h02.44.699386 -0500,
92,92,0,critical,hwd,35.0,2.1,lower,133.0,57.0,57.0,133.0,70.0,70.0,2,1.878554105758667,None,,,,,0,0,0,0,0,92,92,16,300.07418036460876,,,,,,,,,,,,,,,,,,,,,,,,,,,,,,,,,,,,,,,,,,,,,,,,,,,,,,,,,,,,,,,,,,,,,,,,,,,,,,,,,133.0,57.0,57.0,133.0,70.0,70.0,2.1,2.12,-191,-256,0,-277,198,290,300.0600583553314,300.06014108657837,300.0634033679962,300.07418036460876,300.2251844406128,300.2251844406128,300.2251844406128,300.2251844406128,300.2251844406128,300.2251844406128,300.2251844406128,301.9579632282257,2,1.878554105758667,None,,,,,,,,,,,,,,,,,,28,2,2025-02-18_17h02.32.314,comp,2024.2.4,59.684919479580664,2025-02-18 17h02.44.699386 -0500,
93,93,0,critical,hwd,20.0,4.0,lower,133.0,57.0,57.0,133.0,78.0,78.0,2,1.6811764240264893,None,,,,,0,0,0,0,0,93,93,106,301.97425746917725,,,,,,,,,,,,,,,,,,,,,,,,,,,,,,,,,,,,,,,,,,,,,,,,,,,,,,,,,,,,,,,,,,,,,,,,,,,,,,,,,133.0,57.0,57.0,133.0,78.0,78.0,4.0,4.1,-191,-258,0,-11,202,-276,301.95951080322266,301.9595875740051,301.9628436565399,301.97425746917725,302.12829422950745,302.12829422950745,302.12829422950745,302.12829422950745,302.12829422950745,302.12829422950745,302.12829422950745,303.6594269275665,2,1.6811764240264893,None,,,,,,,,,,,,,,,,,,28,2,2025-02-18_17h02.32.314,comp,2024.2.4,59.684919479580664,2025-02-18 17h02.44.699386 -0500,
94,94,0,filler_square,None,None,None,None,None,None,None,None,None,None,1,1.1622810363769531,None,,,,,0,0,0,0,0,94,94,173,303.67668437957764,,,,,,,,,,,,,,,,,,,,,,,,,,,,,,,,,,,,,,,,,,,,,,,,,,,,,,,,,,,,,,,,,,,,,,,,,,,,,,,,,171.52777697493627,171.52777697493627,156.27629544501985,118.72741682892641,94.78851426253924,57.904791665908945,1.0,1.3,239,-266,480,-280,664,-272,303.66151332855225,303.6616401672363,303.6656746864319,303.67668437957764,303.82489585876465,303.82489585876465,303.82489585876465,303.82489585876465,303.82489585876465,303.82489585876465,303.82489585876465,304.8422510623932,1,1.1622810363769531,None,,,,,,,,,,,,,,,,,,28,2,2025-02-18_17h02.32.314,comp,2024.2.4,59.684919479580664,2025-02-18 17h02.44.699386 -0500,
95,95,0,critical,dwh,35.0,2.1,upper,127.0,127.0,125.0,200.0,200.0,125.0,2,2.284231185913086,None,,,,,0,0,0,0,0,95,95,5,304.8586473464966,,,,,,,,,,,,,,,,,,,,,,,,,,,,,,,,,,,,,,,,,,,,,,,,,,,,,,,,,,,,,,,,,,,,,,,,,,,,,,,,,127.0,127.0,125.0,200.0,200.0,125.0,2.1,2.12,-260,-285,0,-262,258,278,304.84380078315735,304.84387826919556,304.8471043109894,304.8586473464966,305.01085901260376,305.01085901260376,305.01085901260376,305.01085901260376,305.01085901260376,305.01085901260376,305.01085901260376,307.1615238189697,2,2.284231185913086,None,,,,,,,,,,,,,,,,,,28,2,2025-02-18_17h02.32.314,comp,2024.2.4,59.684919479580664,2025-02-18 17h02.44.699386 -0500,
96,96,0,filler_random,None,None,None,None,None,None,None,None,None,None,1,1.738499402999878,None,,,,,0,0,0,0,0,96,96,143,307.18053936958313,,,,,,,,,,,,,,,,,,,,,,,,,,,,,,,,,,,,,,,,,,,,,,,,,,,,,,,,,,,,,,,,,,,,,,,,,,,,,,,,,187.41071999910613,103.02273278678909,176.3030599178179,58.36573770765278,83.651027273531,168.66269018795703,4.0,4.1,-177,-273,0,9,210,-282,307.16329979896545,307.1634294986725,307.16663646698,307.18053936958313,307.32760787010193,307.32760787010193,307.32760787010193,307.32760787010193,307.32760787010193,307.32760787010193,307.32760787010193,308.928040266037,1,1.738499402999878,None,,,,,,,,,,,,,,,,,,28,2,2025-02-18_17h02.32.314,comp,2024.2.4,59.684919479580664,2025-02-18 17h02.44.699386 -0500,
97,97,0,critical,dwh,20.0,3.0,lower,78.0,78.0,57.0,133.0,133.0,57.0,2,1.7664680480957031,None,,,,,0,0,0,0,0,97,97,68,308.94427704811096,,,,,,,,,,,,,,,,,,,,,,,,,,,,,,,,,,,,,,,,,,,,,,,,,,,,,,,,,,,,,,,,,,,,,,,,,,,,,,,,,78.0,78.0,57.0,133.0,133.0,57.0,3.0,3.1,-202,286,0,11,191,-273,308.92968678474426,308.9297626018524,308.9332859516144,308.94427704811096,309.10100507736206,309.10100507736206,309.10100507736206,309.10100507736206,309.10100507736206,309.10100507736206,309.10100507736206,310.712863445282,2,1.7664680480957031,None,,,,,,,,,,,,,,,,,,28,2,2025-02-18_17h02.32.314,comp,2024.2.4,59.684919479580664,2025-02-18 17h02.44.699386 -0500,
98,98,0,critical,dwh,20.0,1.0,upper,141.0,141.0,125.0,200.0,200.0,125.0,3,1.7723517417907715,None,,,,,0,0,0,0,0,98,98,67,310.7312026023865,,,,,,,,,,,,,,,,,,,,,,,,,,,,,,,,,,,,,,,,,,,,,,,,,,,,,,,,,,,,,,,,,,,,,,,,,,,,,,,,,141.0,141.0,125.0,200.0,200.0,125.0,1.0,1.1,-746,257,-480,269,-222,281,310.7144818305969,310.71461939811707,310.71833419799805,310.7312026023865,310.87914538383484,310.87914538383484,310.87914538383484,310.87914538383484,310.87914538383484,310.87914538383484,310.87914538383484,312.51355361938477,3,1.7723517417907715,None,,,,,,,,,,,,,,,,,,28,2,2025-02-18_17h02.32.314,comp,2024.2.4,59.684919479580664,2025-02-18 17h02.44.699386 -0500,
99,99,0,critical,whd,20.0,2.1,upper,125.0,200.0,200.0,125.0,141.0,141.0,1,3.365002155303955,None,,,,,0,0,0,0,0,99,99,15,312.52954840660095,,,,,,,,,,,,,,,,,,,,,,,,,,,,,,,,,,,,,,,,,,,,,,,,,,,,,,,,,,,,,,,,,,,,,,,,,,,,,,,,,125.0,200.0,200.0,125.0,141.0,141.0,2.1,2.12,-258,-263,0,-255,229,271,312.51511669158936,312.5151960849762,312.51869916915894,312.52954840660095,312.67542362213135,312.67542362213135,312.67542362213135,312.67542362213135,312.67542362213135,312.67542362213135,312.67542362213135,315.8967409133911,1,3.365002155303955,None,,,,,,,,,,,,,,,,,,28,2,2025-02-18_17h02.32.314,comp,2024.2.4,59.684919479580664,2025-02-18 17h02.44.699386 -0500,
100,100,0,filler_square,None,None,None,None,None,None,None,None,None,None,1,0.8623197078704834,None,,,,,0,0,0,0,0,100,100,204,315.9131054878235,,,,,,,,,,,,,,,,,,,,,,,,,,,,,,,,,,,,,,,,,,,,,,,,,,,,,,,,,,,,,,,,,,,,,,,,,,,,,,,,,118.46158432815528,118.46158432815528,115.44553417236898,75.48175239076508,107.7333421989515,91.49308111818917,2.1,2.11,-193,289,0,274,179,-255,315.898642539978,315.8987226486206,315.90211367607117,315.9131054878235,316.0615096092224,316.0615096092224,316.0615096092224,316.0615096092224,316.0615096092224,316.0615096092224,316.0615096092224,316.7808310985565,1,0.8623197078704834,None,,,,,,,,,,,,,,,,,,28,2,2025-02-18_17h02.32.314,comp,2024.2.4,59.684919479580664,2025-02-18 17h02.44.699386 -0500,
101,101,0,critical,dhw,35.0,1.0,lower,70.0,70.0,133.0,57.0,57.0,133.0,3,2.0736799240112305,None,,,,,0,0,0,0,0,101,101,48,316.7972433567047,,,,,,,,,,,,,,,,,,,,,,,,,,,,,,,,,,,,,,,,,,,,,,,,,,,,,,,,,,,,,,,,,,,,,,,,,,,,,,,,,70.0,70.0,133.0,57.0,57.0,133.0,1.0,1.3,320,-268,480,-283,671,-254,316.78249073028564,316.7825696468353,316.7866497039795,316.7972433567047,316.950879573822,316.950879573822,316.950879573822,316.950879573822,316.950879573822,316.950879573822,316.950879573822,318.879670381546,3,2.0736799240112305,None,,,,,,,,,,,,,,,,,,28,2,2025-02-18_17h02.32.314,comp,2024.2.4,59.684919479580664,2025-02-18 17h02.44.699386 -0500,
102,102,0,filler_square,None,None,None,None,None,None,None,None,None,None,2,1.1027686595916748,None,,,,,0,0,0,0,0,102,102,172,318.89574241638184,,,,,,,,,,,,,,,,,,,,,,,,,,,,,,,,,,,,,,,,,,,,,,,,,,,,,,,,,,,,,,,,,,,,,,,,,,,,,,,,,101.83217940527292,103.43390644307719,134.0964337561184,134.0964337561184,110.66893197065576,128.56704898270158,1.0,1.1,-695,261,-480,283,-253,284,318.8816578388214,318.88173246383667,318.88488817214966,318.89574241638184,319.0480592250824,319.0480592250824,319.0480592250824,319.0480592250824,319.0480592250824,319.0480592250824,319.0480592250824,320.0142822265625,2,1.1027686595916748,None,,,,,,,,,,,,,,,,,,28,2,2025-02-18_17h02.32.314,comp,2024.2.4,59.684919479580664,2025-02-18 17h02.44.699386 -0500,
103,103,0,filler_square,None,None,None,None,None,None,None,None,None,None,3,1.119842529296875,None,,,,,0,0,0,0,0,103,103,196,320.03062915802,,,,,,,,,,,,,,,,,,,,,,,,,,,,,,,,,,,,,,,,,,,,,,,,,,,,,,,,,,,,,,,,,,,,,,,,,,,,,,,,,116.46087891062157,76.30270552117261,81.42024270129906,93.4924712892511,117.50411655588834,117.50411655588834,2.2,2.21,-181,-289,0,285,201,261,320.0160925388336,320.01616621017456,320.01951909065247,320.03062915802,320.1771819591522,320.1771819591522,320.1771819591522,320.1771819591522,320.1771819591522,320.1771819591522,320.1771819591522,321.16336393356323,3,1.119842529296875,None,,,,,,,,,,,,,,,,,,28,2,2025-02-18_17h02.32.314,comp,2024.2.4,59.684919479580664,2025-02-18 17h02.44.699386 -0500,
104,104,0,filler_square,None,None,None,None,None,None,None,None,None,None,3,1.2396855354309082,None,,,,,0,0,0,0,0,104,104,183,321.1827325820923,,,,,,,,,,,,,,,,,,,,,,,,,,,,,,,,,,,,,,,,,,,,,,,,,,,,,,,,,,,,,,,,,,,,,,,,,,,,,,,,,83.84515398049976,74.34477458834722,112.32876978518483,62.716644151191524,115.49920859489524,115.49920859489524,4.0,4.1,-165,-287,0,-1,185,-274,321.16529154777527,321.1654200553894,321.16869616508484,321.1827325820923,321.3314833641052,321.3314833641052,321.3314833641052,321.3314833641052,321.3314833641052,321.3314833641052,321.3314833641052,322.4352421760559,3,1.2396855354309082,None,,,,,,,,,,,,,,,,,,28,2,2025-02-18_17h02.32.314,comp,2024.2.4,59.684919479580664,2025-02-18 17h02.44.699386 -0500,
105,105,0,filler_random,None,None,None,None,None,None,None,None,None,None,2,5.113388299942017,None,,,,,0,0,0,0,0,105,105,131,322.4530963897705,,,,,,,,,,,,,,,,,,,,,,,,,,,,,,,,,,,,,,,,,,,,,,,,,,,,,,,,,,,,,,,,,,,,,,,,,,,,,,,,,192.5303352185846,57.91927091072329,66.62039479669436,169.0930232035422,81.3301761744071,114.48568849830247,3.0,3.2,-210,-270,0,-11,238,266,322.4370548725128,322.4371340274811,322.4400541782379,322.4530963897705,322.5995910167694,322.5995910167694,322.5995910167694,322.5995910167694,322.5995910167694,322.5995910167694,322.5995910167694,327.5689766407013,2,5.113388299942017,None,,,,,,,,,,,,,,,,,,28,2,2025-02-18_17h02.32.314,comp,2024.2.4,59.684919479580664,2025-02-18 17h02.44.699386 -0500,
106,106,0,critical,whd,20.0,4.0,lower,57.0,133.0,133.0,57.0,78.0,78.0,1,3.749978542327881,None,,,,,0,0,0,0,0,106,106,94,327.5845592021942,,,,,,,,,,,,,,,,,,,,,,,,,,,,,,,,,,,,,,,,,,,,,,,,,,,,,,,,,,,,,,,,,,,,,,,,,,,,,,,,,57.0,133.0,133.0,57.0,78.0,78.0,4.0,4.2,-191,3,0,-253,164,1,327.5704987049103,327.5705826282501,327.57378244400024,327.5845592021942,327.7330415248871,327.7330415248871,327.7330415248871,327.7330415248871,327.7330415248871,327.7330415248871,327.7330415248871,331.3509042263031,1,3.749978542327881,None,,,,,,,,,,,,,,,,,,28,2,2025-02-18_17h02.32.314,comp,2024.2.4,59.684919479580664,2025-02-18 17h02.44.699386 -0500,
107,107,0,critical,hwd,20.0,2.1,upper,200.0,125.0,125.0,200.0,141.0,141.0,2,1.9321582317352295,None,,,,,0,0,0,0,0,107,107,43,331.3707754611969,,,,,,,,,,,,,,,,,,,,,,,,,,,,,,,,,,,,,,,,,,,,,,,,,,,,,,,,,,,,,,,,,,,,,,,,,,,,,,,,,200.0,125.0,125.0,200.0,141.0,141.0,2.1,2.12,-258,-287,0,-261,266,253,331.3524568080902,331.35253858566284,331.35591745376587,331.3707754611969,331.5172986984253,331.5172986984253,331.5172986984253,331.5172986984253,331.5172986984253,331.5172986984253,331.5172986984253,333.31958866119385,2,1.9321582317352295,None,,,,,,,,,,,,,,,,,,28,2,2025-02-18_17h02.32.314,comp,2024.2.4,59.684919479580664,2025-02-18 17h02.44.699386 -0500,
108,108,0,critical,dwh,35.0,4.0,lower,70.0,70.0,57.0,133.0,133.0,57.0,2,2.5740184783935547,None,,,,,0,0,0,0,0,108,108,64,333.337242603302,,,,,,,,,,,,,,,,,,,,,,,,,,,,,,,,,,,,,,,,,,,,,,,,,,,,,,,,,,,,,,,,,,,,,,,,,,,,,,,,,70.0,70.0,57.0,133.0,133.0,57.0,4.0,4.2,-198,4,0,-261,191,-14,333.3211054801941,333.32117915153503,333.32443261146545,333.337242603302,333.4857997894287,333.4857997894287,333.4857997894287,333.4857997894287,333.4857997894287,333.4857997894287,333.4857997894287,335.9196677207947,2,2.5740184783935547,None,,,,,,,,,,,,,,,,,,28,2,2025-02-18_17h02.32.314,comp,2024.2.4,59.684919479580664,2025-02-18 17h02.44.699386 -0500,
109,109,0,critical,dhw,35.0,2.1,lower,70.0,70.0,133.0,57.0,57.0,133.0,3,2.5194525718688965,None,,,,,0,0,0,0,0,109,109,0,335.9355535507202,,,,,,,,,,,,,,,,,,,,,,,,,,,,,,,,,,,,,,,,,,,,,,,,,,,,,,,,,,,,,,,,,,,,,,,,,,,,,,,,,70.0,70.0,133.0,57.0,57.0,133.0,2.1,2.11,-160,264,0,283,191,-274,335.9212794303894,335.9213833808899,335.9248368740082,335.9355535507202,336.0869474411011,336.0869474411011,336.0869474411011,336.0869474411011,336.0869474411011,336.0869474411011,336.0869474411011,338.47168493270874,3,2.5194525718688965,None,,,,,,,,,,,,,,,,,,28,2,2025-02-18_17h02.32.314,comp,2024.2.4,59.684919479580664,2025-02-18 17h02.44.699386 -0500,
110,110,0,critical,dhw,20.0,4.0,lower,78.0,78.0,133.0,57.0,57.0,133.0,3,1.551652193069458,None,,,,,0,0,0,0,0,110,110,58,338.4874265193939,,,,,,,,,,,,,,,,,,,,,,,,,,,,,,,,,,,,,,,,,,,,,,,,,,,,,,,,,,,,,,,,,,,,,,,,,,,,,,,,,78.0,78.0,133.0,57.0,57.0,133.0,4.0,4.1,-164,-285,0,19,191,-287,338.4733624458313,338.47352147102356,338.4769721031189,338.4874265193939,338.6366169452667,338.6366169452667,338.6366169452667,338.6366169452667,338.6366169452667,338.6366169452667,338.6366169452667,340.04261207580566,3,1.551652193069458,None,,,,,,,,,,,,,,,,,,28,2,2025-02-18_17h02.32.314,comp,2024.2.4,59.684919479580664,2025-02-18 17h02.44.699386 -0500,
111,111,0,critical,whd,20.0,2.1,upper,125.0,200.0,200.0,125.0,141.0,141.0,2,3.699235200881958,None,,,,,0,0,0,0,0,111,111,39,340.0593674182892,,,,,,,,,,,,,,,,,,,,,,,,,,,,,,,,,,,,,,,,,,,,,,,,,,,,,,,,,,,,,,,,,,,,,,,,,,,,,,,,,125.0,200.0,200.0,125.0,141.0,141.0,2.1,2.12,-258,-276,0,-256,229,250,340.04427695274353,340.04441261291504,340.04774928092957,340.0593674182892,340.205926656723,340.205926656723,340.205926656723,340.205926656723,340.205926656723,340.205926656723,340.205926656723,343.7730884552002,2,3.699235200881958,None,,,,,,,,,,,,,,,,,,28,2,2025-02-18_17h02.32.314,comp,2024.2.4,59.684919479580664,2025-02-18 17h02.44.699386 -0500,
112,112,0,critical,wdh,35.0,2.1,upper,125.0,200.0,127.0,127.0,200.0,125.0,1,2.55462646484375,None,,,,,0,0,0,0,0,112,112,9,343.7882704734802,,,,,,,,,,,,,,,,,,,,,,,,,,,,,,,,,,,,,,,,,,,,,,,,,,,,,,,,,,,,,,,,,,,,,,,,,,,,,,,,,125.0,200.0,127.0,127.0,200.0,125.0,2.1,2.12,-260,-264,0,-277,222,278,343.77451753616333,343.77459192276,343.77779841423035,343.7882704734802,343.9366898536682,343.9366898536682,343.9366898536682,343.9366898536682,343.9366898536682,343.9366898536682,343.9366898536682,346.3582007884979,1,2.55462646484375,None,,,,,,,,,,,,,,,,,,28,2,2025-02-18_17h02.32.314,comp,2024.2.4,59.684919479580664,2025-02-18 17h02.44.699386 -0500,
113,113,0,critical,hwd,20.0,2.1,lower,133.0,57.0,57.0,133.0,78.0,78.0,2,1.8416123390197754,None,,,,,0,0,0,0,0,113,113,18,346.373423576355,,,,,,,,,,,,,,,,,,,,,,,,,,,,,,,,,,,,,,,,,,,,,,,,,,,,,,,,,,,,,,,,,,,,,,,,,,,,,,,,,133.0,57.0,57.0,133.0,78.0,78.0,2.1,2.11,-191,259,0,256,202,-283,346.3597688674927,346.3598449230194,346.36309719085693,346.373423576355,346.5293278694153,346.5293278694153,346.5293278694153,346.5293278694153,346.5293278694153,346.5293278694153,346.5293278694153,348.22489380836487,2,1.8416123390197754,None,,,,,,,,,,,,,,,,,,28,2,2025-02-18_17h02.32.314,comp,2024.2.4,59.684919479580664,2025-02-18 17h02.44.699386 -0500,
114,114,0,critical,hwd,35.0,4.0,lower,133.0,57.0,57.0,133.0,70.0,70.0,2,0.19774317741394043,None,,,,,0,0,0,0,0,114,114,100,348.2408525943756,,,,,,,,,,,,,,,,,,,,,,,,,,,,,,,,,,,,,,,,,,,,,,,,,,,,,,,,,,,,,,,,,,,,,,,,,,,,,,,,,133.0,57.0,57.0,133.0,70.0,70.0,4.0,4.2,-191,-7,0,-277,198,4,348.22649812698364,348.22657465934753,348.2300262451172,348.2408525943756,348.3898940086365,348.3898940086365,348.3898940086365,348.3898940086365,348.3898940086365,348.3898940086365,348.3898940086365,348.4576919078827,2,0.19774317741394043,None,,,,,,,,,,,,,,,,,,28,2,2025-02-18_17h02.32.314,comp,2024.2.4,59.684919479580664,2025-02-18 17h02.44.699386 -0500,
115,115,0,critical,wdh,20.0,4.0,upper,125.0,200.0,141.0,141.0,200.0,125.0,1,2.4697883129119873,None,,,,,0,0,0,0,0,115,115,83,348.4728043079376,,,,,,,,,,,,,,,,,,,,,,,,,,,,,,,,,,,,,,,,,,,,,,,,,,,,,,,,,,,,,,,,,,,,,,,,,,,,,,,,,125.0,200.0,141.0,141.0,200.0,125.0,4.0,4.1,-266,-286,0,-2,229,-266,348.4591820240021,348.45925736427307,348.46259784698486,348.4728043079376,348.622013092041,348.622013092041,348.622013092041,348.622013092041,348.622013092041,348.622013092041,348.622013092041,350.9579141139984,1,2.4697883129119873,None,,,,,,,,,,,,,,,,,,28,2,2025-02-18_17h02.32.314,comp,2024.2.4,59.684919479580664,2025-02-18 17h02.44.699386 -0500,
116,116,0,critical,hdw,35.0,2.1,upper,200.0,125.0,127.0,127.0,125.0,200.0,3,1.505356788635254,None,,,,,0,0,0,0,0,116,116,45,350.9731180667877,,,,,,,,,,,,,,,,,,,,,,,,,,,,,,,,,,,,,,,,,,,,,,,,,,,,,,,,,,,,,,,,,,,,,,,,,,,,,,,,,200.0,125.0,127.0,127.0,125.0,200.0,2.1,2.12,-222,-254,0,-263,260,259,350.9594714641571,350.9595465660095,350.96289801597595,350.9731180667877,351.12225103378296,351.12225103378296,351.12225103378296,351.12225103378296,351.12225103378296,351.12225103378296,351.12225103378296,352.4941146373749,3,1.505356788635254,None,,,,,,,,,,,,,,,,,,28,2,2025-02-18_17h02.32.314,comp,2024.2.4,59.684919479580664,2025-02-18 17h02.44.699386 -0500,
117,117,0,critical,dhw,35.0,2.1,upper,127.0,127.0,200.0,125.0,125.0,200.0,3,2.025071620941162,None,,,,,0,0,0,0,0,117,117,25,352.5100932121277,,,,,,,,,,,,,,,,,,,,,,,,,,,,,,,,,,,,,,,,,,,,,,,,,,,,,,,,,,,,,,,,,,,,,,,,,,,,,,,,,127.0,127.0,200.0,125.0,125.0,200.0,2.1,2.12,-222,-282,0,-259,258,260,352.49585795402527,352.4959363937378,352.4998211860657,352.5100932121277,352.65850043296814,352.65850043296814,352.65850043296814,352.65850043296814,352.65850043296814,352.65850043296814,352.65850043296814,354.5438916683197,3,2.025071620941162,None,,,,,,,,,,,,,,,,,,28,2,2025-02-18_17h02.32.314,comp,2024.2.4,59.684919479580664,2025-02-18 17h02.44.699386 -0500,
118,118,0,critical,dhw,20.0,2.1,upper,141.0,141.0,200.0,125.0,125.0,200.0,3,2.5494306087493896,None,,,,,0,0,0,0,0,118,118,3,354.56116580963135,,,,,,,,,,,,,,,,,,,,,,,,,,,,,,,,,,,,,,,,,,,,,,,,,,,,,,,,,,,,,,,,,,,,,,,,,,,,,,,,,141.0,141.0,200.0,125.0,125.0,200.0,2.1,2.11,-229,265,0,267,258,-253,354.54567885398865,354.54577684402466,354.54963302612305,354.56116580963135,354.7116572856903,354.7116572856903,354.7116572856903,354.7116572856903,354.7116572856903,354.7116572856903,354.7116572856903,357.123881816864,3,2.5494306087493896,None,,,,,,,,,,,,,,,,,,28,2,2025-02-18_17h02.32.314,comp,2024.2.4,59.684919479580664,2025-02-18 17h02.44.699386 -0500,
119,119,0,catch,None,None,None,None,None,None,None,None,None,None,2,1.3466074466705322,None,,,,,0,0,0,0,0,119,119,122,357.14065885543823,,,,,,,,,,,,,,,,,,,,,,,,,,,,,,,,,,,,,,,,,,,,,,,,,,,,,,,,,,,,,,,,,,,,,,,,,,,,,,,,,78,112,177,148,129,61,2.1,2.12,-226,-261,0,-272,200,281,357.12602639198303,357.12610030174255,357.12926173210144,357.14065885543823,357.28934693336487,357.28934693336487,357.28934693336487,357.28934693336487,357.28934693336487,357.28934693336487,357.28934693336487,358.4922978878021,2,1.3466074466705322,None,,,,,,,,,,,,,,,,,,28,2,2025-02-18_17h02.32.314,comp,2024.2.4,59.684919479580664,2025-02-18 17h02.44.699386 -0500,
120,120,0,critical,hwd,35.0,1.0,lower,133.0,57.0,57.0,133.0,70.0,70.0,2,2.7582621574401855,None,,,,,0,0,0,0,0,120,120,96,358.5131998062134,,,,,,,,,,,,,,,,,,,,,,,,,,,,,,,,,,,,,,,,,,,,,,,,,,,,,,,,,,,,,,,,,,,,,,,,,,,,,,,,,133.0,57.0,57.0,133.0,70.0,70.0,1.0,1.1,-671,255,-480,254,-282,275,358.49392795562744,358.49400329589844,358.4974830150604,358.5131998062134,358.65932416915894,358.65932416915894,358.65932416915894,358.65932416915894,358.65932416915894,358.65932416915894,358.65932416915894,361.2755777835846,2,2.7582621574401855,None,,,,,,,,,,,,,,,,,,28,2,2025-02-18_17h02.32.314,comp,2024.2.4,59.684919479580664,2025-02-18 17h02.44.699386 -0500,
121,121,0,critical,dhw,20.0,2.1,lower,78.0,78.0,133.0,57.0,57.0,133.0,3,2.1555917263031006,None,,,,,0,0,0,0,0,121,121,26,361.29106545448303,,,,,,,,,,,,,,,,,,,,,,,,,,,,,,,,,,,,,,,,,,,,,,,,,,,,,,,,,,,,,,,,,,,,,,,,,,,,,,,,,78.0,78.0,133.0,57.0,57.0,133.0,2.1,2.11,-164,286,0,259,191,-264,361.2770528793335,361.2771279811859,361.27995586395264,361.29106545448303,361.4449391365051,361.4449391365051,361.4449391365051,361.4449391365051,361.4449391365051,361.4449391365051,361.4449391365051,363.4618945121765,3,2.1555917263031006,None,,,,,,,,,,,,,,,,,,28,2,2025-02-18_17h02.32.314,comp,2024.2.4,59.684919479580664,2025-02-18 17h02.44.699386 -0500,
122,122,0,critical,hdw,20.0,2.1,upper,200.0,125.0,141.0,141.0,125.0,200.0,3,2.672837734222412,None,,,,,0,0,0,0,0,122,122,23,363.4779281616211,,,,,,,,,,,,,,,,,,,,,,,,,,,,,,,,,,,,,,,,,,,,,,,,,,,,,,,,,,,,,,,,,,,,,,,,,,,,,,,,,200.0,125.0,141.0,141.0,125.0,200.0,2.1,2.11,-229,252,0,274,266,-271,363.4634575843811,363.4635376930237,363.46756052970886,363.4779281616211,363.6342656612396,363.6342656612396,363.6342656612396,363.6342656612396,363.6342656612396,363.6342656612396,363.6342656612396,366.1681230068207,3,2.672837734222412,None,,,,,,,,,,,,,,,,,,28,2,2025-02-18_17h02.32.314,comp,2024.2.4,59.684919479580664,2025-02-18 17h02.44.699386 -0500,
123,123,0,filler_random,None,None,None,None,None,None,None,None,None,None,1,1.2715022563934326,None,,,,,0,0,0,0,0,123,123,155,366.1838445663452,,,,,,,,,,,,,,,,,,,,,,,,,,,,,,,,,,,,,,,,,,,,,,,,,,,,,,,,,,,,,,,,,,,,,,,,,,,,,,,,,183.2065805946943,183.68581147677966,171.81355644665314,94.73850948218771,81.49096810718936,112.52239895617559,3.0,3.2,-235,-250,0,-6,200,280,366.16984963417053,366.1699252128601,366.17274951934814,366.1838445663452,366.3297483921051,366.3297483921051,366.3297483921051,366.3297483921051,366.3297483921051,366.3297483921051,366.3297483921051,367.4624934196472,1,1.2715022563934326,None,,,,,,,,,,,,,,,,,,28,2,2025-02-18_17h02.32.314,comp,2024.2.4,59.684919479580664,2025-02-18 17h02.44.699386 -0500,
124,124,0,critical,dhw,35.0,3.0,upper,127.0,127.0,200.0,125.0,125.0,200.0,3,1.294929027557373,None,,,,,0,0,0,0,0,124,124,51,367.4801993370056,,,,,,,,,,,,,,,,,,,,,,,,,,,,,,,,,,,,,,,,,,,,,,,,,,,,,,,,,,,,,,,,,,,,,,,,,,,,,,,,,127.0,127.0,200.0,125.0,125.0,200.0,3.0,3.2,-222,-263,0,-6,258,254,367.46400785446167,367.4640860557556,367.46712350845337,367.4801993370056,367.630042552948,367.630042552948,367.630042552948,367.630042552948,367.630042552948,367.630042552948,367.630042552948,368.7819788455963,3,1.294929027557373,None,,,,,,,,,,,,,,,,,,28,2,2025-02-18_17h02.32.314,comp,2024.2.4,59.684919479580664,2025-02-18 17h02.44.699386 -0500,
125,125,0,filler_random,None,None,None,None,None,None,None,None,None,None,2,0.7447922229766846,None,,,,,0,0,0,0,0,125,125,137,368.79865431785583,,,,,,,,,,,,,,,,,,,,,,,,,,,,,,,,,,,,,,,,,,,,,,,,,,,,,,,,,,,,,,,,,,,,,,,,,,,,,,,,,149.3371395142887,74.54225029813058,186.89166332077323,159.47595536849607,124.24838578260245,167.4623128075364,2.1,2.11,-213,283,0,277,259,-280,368.7839207649231,368.7840025424957,368.7878921031952,368.79865431785583,368.9457530975342,368.9457530975342,368.9457530975342,368.9457530975342,368.9457530975342,368.9457530975342,368.9457530975342,369.5512795448303,2,0.7447922229766846,None,,,,,,,,,,,,,,,,,,28,2,2025-02-18_17h02.32.314,comp,2024.2.4,59.684919479580664,2025-02-18 17h02.44.699386 -0500,
126,126,0,catch,None,None,None,None,None,None,None,None,None,None,2,0.9901843070983887,None,,,,,0,0,0,0,0,126,126,121,369.5692524909973,,,,,,,,,,,,,,,,,,,,,,,,,,,,,,,,,,,,,,,,,,,,,,,,,,,,,,,,,,,,,,,,,,,,,,,,,,,,,,,,,122,68,187,138,65,125,1.0,1.3,281,-251,480,-257,708,-252,369.5532560348511,369.5533380508423,369.55624198913574,369.5692524909973,369.71449637413025,369.71449637413025,369.71449637413025,369.71449637413025,369.71449637413025,369.71449637413025,369.71449637413025,370.5659453868866,2,0.9901843070983887,None,,,,,,,,,,,,,,,,,,28,2,2025-02-18_17h02.32.314,comp,2024.2.4,59.684919479580664,2025-02-18 17h02.44.699386 -0500,
127,127,0,filler_random,None,None,None,None,None,None,None,None,None,None,1,4.493013620376587,None,,,,,0,0,0,0,0,127,127,157,370.58577013015747,,,,,,,,,,,,,,,,,,,,,,,,,,,,,,,,,,,,,,,,,,,,,,,,,,,,,,,,,,,,,,,,,,,,,,,,,,,,,,,,,146.93723160870434,139.73401793175458,174.34294702510482,103.53180075071606,66.5016156889717,150.0925386358955,4.0,4.2,-218,-10,0,-287,223,10,370.56790709495544,370.56803345680237,370.57125425338745,370.58577013015747,370.730660200119,370.730660200119,370.730660200119,370.730660200119,370.730660200119,370.730660200119,370.730660200119,375.0840253829956,1,4.493013620376587,None,,,,,,,,,,,,,,,,,,28,2,2025-02-18_17h02.32.314,comp,2024.2.4,59.684919479580664,2025-02-18 17h02.44.699386 -0500,
128,128,0,critical,hwd,35.0,1.0,upper,200.0,125.0,125.0,200.0,127.0,127.0,2,1.3707044124603271,None,,,,,0,0,0,0,0,128,128,97,375.10145831108093,,,,,,,,,,,,,,,,,,,,,,,,,,,,,,,,,,,,,,,,,,,,,,,,,,,,,,,,,,,,,,,,,,,,,,,,,,,,,,,,,200.0,125.0,125.0,200.0,127.0,127.0,1.0,1.3,222,-284,480,-255,740,-265,375.08561873435974,375.0856943130493,375.0885269641876,375.10145831108093,375.24851083755493,375.24851083755493,375.24851083755493,375.24851083755493,375.24851083755493,375.24851083755493,375.24851083755493,376.4829366207123,2,1.3707044124603271,None,,,,,,,,,,,,,,,,,,28,2,2025-02-18_17h02.32.314,comp,2024.2.4,59.684919479580664,2025-02-18 17h02.44.699386 -0500,
129,129,0,filler_square,None,None,None,None,None,None,None,None,None,None,2,1.0031611919403076,None,,,,,0,0,0,0,0,129,129,190,376.49961280822754,,,,,,,,,,,,,,,,,,,,,,,,,,,,,,,,,,,,,,,,,,,,,,,,,,,,,,,,,,,,,,,,,,,,,,,,,,,,,,,,,116.80616505581949,57.63307376157978,118.54421284933707,118.54421284933707,108.37200313362325,68.0371585882237,1.0,1.2,-184,7,0,14,189,-4,376.48477602005005,376.4848561286926,376.48890233039856,376.49961280822754,376.6486141681671,376.6486141681671,376.6486141681671,376.6486141681671,376.6486141681671,376.6486141681671,376.6486141681671,377.51615166664124,2,1.0031611919403076,None,,,,,,,,,,,,,,,,,,28,2,2025-02-18_17h02.32.314,comp,2024.2.4,59.684919479580664,2025-02-18 17h02.44.699386 -0500,
130,130,0,filler_square,None,None,None,None,None,None,None,None,None,None,2,1.0044689178466797,None,,,,,0,0,0,0,0,130,130,199,377.53013706207275,,,,,,,,,,,,,,,,,,,,,,,,,,,,,,,,,,,,,,,,,,,,,,,,,,,,,,,,,,,,,,,,,,,,,,,,,,,,,,,,,94.68280978924638,86.4420371976729,152.1490902258546,152.1490902258546,105.00267984534173,120.81331995284953,2.2,2.22,-215,284,0,-280,232,-283,377.5178978443146,377.5179719924927,377.5211112499237,377.53013706207275,377.6846652030945,377.6846652030945,377.6846652030945,377.6846652030945,377.6846652030945,377.6846652030945,377.6846652030945,378.5502383708954,2,1.0044689178466797,None,,,,,,,,,,,,,,,,,,28,2,2025-02-18_17h02.32.314,comp,2024.2.4,59.684919479580664,2025-02-18 17h02.44.699386 -0500,
131,131,0,critical,dwh,35.0,4.0,upper,127.0,127.0,125.0,200.0,200.0,125.0,2,1.2415571212768555,None,,,,,0,0,0,0,0,131,131,65,378.56510066986084,,,,,,,,,,,,,,,,,,,,,,,,,,,,,,,,,,,,,,,,,,,,,,,,,,,,,,,,,,,,,,,,,,,,,,,,,,,,,,,,,127.0,127.0,125.0,200.0,200.0,125.0,4.0,4.1,-260,-251,0,-17,258,-251,378.55180168151855,378.5518763065338,378.554878950119,378.56510066986084,378.714106798172,378.714106798172,378.714106798172,378.714106798172,378.714106798172,378.714106798172,378.714106798172,379.8170762062073,2,1.2415571212768555,None,,,,,,,,,,,,,,,,,,28,2,2025-02-18_17h02.32.314,comp,2024.2.4,59.684919479580664,2025-02-18 17h02.44.699386 -0500,
132,132,0,critical,dhw,35.0,4.0,lower,70.0,70.0,133.0,57.0,57.0,133.0,3,2.0619280338287354,None,,,,,0,0,0,0,0,132,132,52,379.833092212677,,,,,,,,,,,,,,,,,,,,,,,,,,,,,,,,,,,,,,,,,,,,,,,,,,,,,,,,,,,,,,,,,,,,,,,,,,,,,,,,,70.0,70.0,133.0,57.0,57.0,133.0,4.0,4.1,-160,-257,0,12,191,-269,379.8185679912567,379.818642616272,379.82178235054016,379.833092212677,379.9825248718262,379.9825248718262,379.9825248718262,379.9825248718262,379.9825248718262,379.9825248718262,379.9825248718262,381.89933800697327,3,2.0619280338287354,None,,,,,,,,,,,,,,,,,,28,2,2025-02-18_17h02.32.314,comp,2024.2.4,59.684919479580664,2025-02-18 17h02.44.699386 -0500,
133,133,0,critical,wdh,35.0,1.0,lower,57.0,133.0,70.0,70.0,133.0,57.0,1,2.5813469886779785,None,,,,,0,0,0,0,0,133,133,72,381.92148208618164,,,,,,,,,,,,,,,,,,,,,,,,,,,,,,,,,,,,,,,,,,,,,,,,,,,,,,,,,,,,,,,,,,,,,,,,,,,,,,,,,57.0,133.0,70.0,70.0,133.0,57.0,1.0,1.1,-678,287,-480,264,-320,274,381.90085554122925,381.9009311199188,381.9039115905762,381.92148208618164,382.06730008125305,382.06730008125305,382.06730008125305,382.06730008125305,382.06730008125305,382.06730008125305,382.06730008125305,384.5050473213196,1,2.5813469886779785,None,,,,,,,,,,,,,,,,,,28,2,2025-02-18_17h02.32.314,comp,2024.2.4,59.684919479580664,2025-02-18 17h02.44.699386 -0500,
134,134,0,filler_square,None,None,None,None,None,None,None,None,None,None,1,0.8976032733917236,None,,,,,0,0,0,0,0,134,134,209,384.52589106559753,,,,,,,,,,,,,,,,,,,,,,,,,,,,,,,,,,,,,,,,,,,,,,,,,,,,,,,,,,,,,,,,,,,,,,,,,,,,,,,,,178.31897514400328,178.31897514400328,140.13371293105448,68.14518903158597,123.29248821069393,105.34018326540024,1.0,1.3,261,-281,480,-251,663,-265,384.50700759887695,384.5070867538452,384.5104866027832,384.52589106559753,384.6677098274231,384.6677098274231,384.6677098274231,384.6677098274231,384.6677098274231,384.6677098274231,384.6677098274231,385.43394660949707,1,0.8976032733917236,None,,,,,,,,,,,,,,,,,,28,2,2025-02-18_17h02.32.314,comp,2024.2.4,59.684919479580664,2025-02-18 17h02.44.699386 -0500,
135,135,0,catch,None,None,None,None,None,None,None,None,None,None,2,1.421140193939209,None,,,,,0,0,0,0,0,135,135,120,385.44956159591675,,,,,,,,,,,,,,,,,,,,,,,,,,,,,,,,,,,,,,,,,,,,,,,,,,,,,,,,,,,,,,,,,,,,,,,,,,,,,,,,,126,64,186,139,102,88,3.0,3.2,-198,-279,0,5,210,272,385.4361629486084,385.4362440109253,385.43983483314514,385.44956159591675,385.6008446216583,385.6008446216583,385.6008446216583,385.6008446216583,385.6008446216583,385.6008446216583,385.6008446216583,386.8853042125702,2,1.421140193939209,None,,,,,,,,,,,,,,,,,,28,2,2025-02-18_17h02.32.314,comp,2024.2.4,59.684919479580664,2025-02-18 17h02.44.699386 -0500,
136,136,0,filler_random,None,None,None,None,None,None,None,None,None,None,3,1.2811260223388672,None,,,,,0,0,0,0,0,136,136,134,386.90168809890747,,,,,,,,,,,,,,,,,,,,,,,,,,,,,,,,,,,,,,,,,,,,,,,,,,,,,,,,,,,,,,,,,,,,,,,,,,,,,,,,,58.724736912696684,80.35624704554965,143.02513182513536,71.84349820337675,144.01173912391528,151.8549392675621,4.0,4.2,-172,14,0,-251,208,13,386.88702034950256,386.88709568977356,386.8904275894165,386.90168809890747,387.05210614204407,387.05210614204407,387.05210614204407,387.05210614204407,387.05210614204407,387.05210614204407,387.05210614204407,388.1881272792816,3,1.2811260223388672,None,,,,,,,,,,,,,,,,,,28,2,2025-02-18_17h02.32.314,comp,2024.2.4,59.684919479580664,2025-02-18 17h02.44.699386 -0500,
137,137,0,critical,dwh,20.0,2.1,upper,141.0,141.0,125.0,200.0,200.0,125.0,2,2.6832804679870605,None,,,,,0,0,0,0,0,137,137,31,388.2041597366333,,,,,,,,,,,,,,,,,,,,,,,,,,,,,,,,,,,,,,,,,,,,,,,,,,,,,,,,,,,,,,,,,,,,,,,,,,,,,,,,,141.0,141.0,125.0,200.0,200.0,125.0,2.1,2.12,-266,-282,0,-284,258,276,388.1898913383484,388.1900179386139,388.19341230392456,388.2041597366333,388.35032773017883,388.35032773017883,388.35032773017883,388.35032773017883,388.35032773017883,388.35032773017883,388.35032773017883,390.893025636673,2,2.6832804679870605,None,,,,,,,,,,,,,,,,,,28,2,2025-02-18_17h02.32.314,comp,2024.2.4,59.684919479580664,2025-02-18 17h02.44.699386 -0500,
138,138,0,filler_square,None,None,None,None,None,None,None,None,None,None,2,9.103090763092041,None,,,,,0,0,0,0,0,138,138,187,390.9115173816681,,,,,,,,,,,,,,,,,,,,,,,,,,,,,,,,,,,,,,,,,,,,,,,,,,,,,,,,,,,,,,,,,,,,,,,,,,,,,,,,,57.33308519010166,58.068414238719626,58.30972651671671,58.57763356497121,59.07386644600907,59.07386644600907,2.1,2.11,-154,282,0,251,155,-276,390.89482975006104,390.89490509033203,390.89773297309875,390.9115173816681,391.0538401603699,391.0538401603699,391.0538401603699,391.0538401603699,391.0538401603699,391.0538401603699,391.0538401603699,400.02926301956177,2,9.103090763092041,None,,,,,,,,,,,,,,,,,,28,2,2025-02-18_17h02.32.314,comp,2024.2.4,59.684919479580664,2025-02-18 17h02.44.699386 -0500,
139,139,0,critical,hdw,35.0,4.0,upper,200.0,125.0,127.0,127.0,125.0,200.0,3,1.7456624507904053,None,,,,,0,0,0,0,0,139,139,113,400.04550433158875,,,,,,,,,,,,,,,,,,,,,,,,,,,,,,,,,,,,,,,,,,,,,,,,,,,,,,,,,,,,,,,,,,,,,,,,,,,,,,,,,200.0,125.0,127.0,127.0,125.0,200.0,4.0,4.1,-222,-266,0,13,260,-261,400.0308518409729,400.0309245586395,400.034188747406,400.04550433158875,400.18957233428955,400.18957233428955,400.18957233428955,400.18957233428955,400.18957233428955,400.18957233428955,400.18957233428955,401.79879546165466,3,1.7456624507904053,None,,,,,,,,,,,,,,,,,,28,2,2025-02-18_17h02.32.314,comp,2024.2.4,59.684919479580664,2025-02-18 17h02.44.699386 -0500,
140,140,0,filler_square,None,None,None,None,None,None,None,None,None,None,3,1.1817543506622314,None,,,,,0,0,0,0,0,140,140,203,401.81722831726074,,,,,,,,,,,,,,,,,,,,,,,,,,,,,,,,,,,,,,,,,,,,,,,,,,,,,,,,,,,,,,,,,,,,,,,,,,,,,,,,,141.8806721255403,165.3736623560794,164.15209649221842,92.53727894239528,175.89447557728778,175.89447557728778,3.0,3.1,-225,263,0,-1,230,-283,401.8005714416504,401.8006980419159,401.8039469718933,401.81722831726074,401.9568259716034,401.9568259716034,401.9568259716034,401.9568259716034,401.9568259716034,401.9568259716034,401.9568259716034,403.0073390007019,3,1.1817543506622314,None,,,,,,,,,,,,,,,,,,28,2,2025-02-18_17h02.32.314,comp,2024.2.4,59.684919479580664,2025-02-18 17h02.44.699386 -0500,
