thisN,thisTrialN,thisRepN,effect,order,distance,config,diag,h_1,w_1,h_2,w_2,h_3,w_3,rect_choice.keys,rect_choice.rt,rect_choice.duration,instructions_loop.thisRepN,instructions_loop.thisTrialN,instructions_loop.thisN,instructions_loop.thisIndex,blocks.thisRepN,blocks.thisTrialN,blocks.thisN,blocks.thisIndex,trials.thisRepN,trials.thisTrialN,trials.thisN,trials.thisIndex,thisRow.t,notes,consent.started,agree_button.started,decline_button.started,consent_img.started,mouse.started,consent.stopped,agree_button.numClicks,agree_button.timesOn,agree_button.timesOff,decline_button.numClicks,decline_button.timesOn,decline_button.timesOff,mouse.x,mouse.y,mouse.leftButton,mouse.midButton,mouse.rightButton,mouse.time,mouse.clicked_name,exp_params.started,exp_params.stopped,welcome.started,welcome_text.started,welcome.stopped,instructions_1.started,instructions_1_text_1.started,instructions_1_text_2.started,key_resp.started,instructions_1.stopped,instructions_loop.key_resp.keys,instructions_loop.key_resp.rt,instructions_loop.key_resp.duration,instructions_2.started,instructions_2_text_1.started,instructions_2_text_2.started,key_resp_2.started,instructions_2.stopped,instructions_loop.key_resp_2.keys,instructions_loop.key_resp_2.rt,instructions_loop.key_resp_2.duration,instructions_3.started,instructions_3_text_1.started,r1_instr3.started,r2_instr3.started,r3_instr3.started,r1_instr3_label.started,r2_instr3_label.started,r3_instr3_label.started,instructions_3_text_3.started,instructions_3_text_4.started,key_resp_3.started,instructions_3.stopped,instructions_loop.key_resp_3.keys,instructions_loop.key_resp_3.rt,instructions_loop.key_resp_3.duration,instructions_4.started,instructions_4_text_1.started,instructions_4_text_3.started,instructions_4_text_2.started,key_resp_4.started,instructions_4.stopped,instructions_loop.key_resp_4.keys,instructions_loop.key_resp_4.rt,instructions_loop.key_resp_4.duration,instructions_5.started,instructions_5_text_1.started,instructions_5_text_2.started,key_resp_5.started,instructions_5.stopped,instructions_loop.key_resp_5.keys,instructions_loop.key_resp_5.rt,instructions_loop.key_resp_5.duration,start_exp.started,start_exp_text.started,key_resp_6.started,start_exp.stopped,key_resp_6.keys,key_resp_6.rt,key_resp_6.duration,h_1_tmp,w_1_tmp,h_2_tmp,w_2_tmp,h_3_tmp,w_3_tmp,config_tmp,config_tmp_1,r_1_x,r_1_y,r_2_x,r_2_y,r_3_x,r_3_y,pre_trial.started,pre_trial.stopped,choice_trial.started,rect_choice.started,r_1.started,r_2.started,r_3.started,r_1_label.started,r_2_label.started,r_3_label.started,prompt.started,choice_trial.stopped,trials.rect_choice.keys,trials.rect_choice.rt,trials.rect_choice.duration,end_block.started,end_block_text.started,end_block.stopped,end.started,end_text.started,key_resp_7.started,end.stopped,key_resp_7.keys,key_resp_7.rt,key_resp_7.duration,debriefing.started,debrief_form.started,end_debrief.started,debriefing.stopped,end_debrief.keys,end_debrief.rt,end_debrief.duration,participant,computer,date,expName,psychopyVersion,frameRate,expStart,
,,,,,,,,,,,,,,,,,,,,,,,,,,,,,,,0.01537013053894043,0.04132890701293945,0.04132890701293945,0.04132890701293945,0.014805078506469727,42.16016435623169,1,[42.117619037628174],[42.11763119697571],0,,,[-104.0],[-519.0],[1],[0],[0],[42.14425992965698],['agree_button'],,,,,,,,,,,,,,,,,,,,,,,,,,,,,,,,,,,,,,,,,,,,,,,,,,,,,,,,,,,,,,,,,,,,,,,,,,,,,,,,,,,,,,,,,,,,,,,,,,,,,,,,,,,29,3,2025-02-18_17h03.02.446,comp,2024.2.4,60.091692646249776,2025-02-18 17h03.15.329660 -0500,
,,,,,,,,,,,,,,,,,,,,,,,,,,,,,,,,,,,,,,,,,,,,,,,,,,42.16045689582825,42.16048979759216,,,,,,,,,,,,,,,,,,,,,,,,,,,,,,,,,,,,,,,,,,,,,,,,,,,,,,,,,,,,,,,,,,,,,,,,,,,,,,,,,,,,,,,,,,,,,,,,,,,,,,,,,29,3,2025-02-18_17h03.02.446,comp,2024.2.4,60.091692646249776,2025-02-18 17h03.15.329660 -0500,
,,,,,,,,,,,,,,,,,,,,,,,,,,,,,,,,,,,,,,,,,,,,,,,,,,,,42.16051197052002,42.1737961769104,44.16330814361572,,,,,,,,,,,,,,,,,,,,,,,,,,,,,,,,,,,,,,,,,,,,,,,,,,,,,,,,,,,,,,,,,,,,,,,,,,,,,,,,,,,,,,,,,,,,,,,,,,,,,,29,3,2025-02-18_17h03.02.446,comp,2024.2.4,60.091692646249776,2025-02-18 17h03.15.329660 -0500,
0,0,0,,,,,,,,,,,,,,,0,0,0,0,,,,,,,,,44.180142641067505,,,,,,,,,,,,,,,,,,,,,,,,,,44.16386365890503,44.180142641067505,44.180142641067505,45.66274046897888,47.94759225845337,space,2.2666311264038086,None,47.94767427444458,47.96293115615845,47.96293115615845,49.46286940574646,55.61393618583679,space,6.1446309089660645,None,55.614020347595215,55.63612127304077,55.63612127304077,55.63612127304077,55.63612127304077,55.63612127304077,55.63612127304077,55.63612127304077,55.63612127304077,55.63612127304077,57.11310577392578,60.430874824523926,space,3.301349401473999,None,60.43095946311951,60.44630670547485,60.44630670547485,60.44630670547485,61.94611883163452,65.58155536651611,space,3.6202385425567627,None,65.5816490650177,65.5983395576477,65.5983395576477,67.09592604637146,67.86563849449158,space,0.7594599723815918,None,67.86575388908386,67.89664840698242,67.89664840698242,69.39707112312317,space,1.494687557220459,None,,,,,,,,,,,,,,,,,,,,,,,,,,,,,,,,,,,,,,,,,,,,,,,29,3,2025-02-18_17h03.02.446,comp,2024.2.4,60.091692646249776,2025-02-18 17h03.15.329660 -0500,
0,0,0,filler_random,None,None,None,None,None,None,None,None,None,None,1,4.471973657608032,None,,,,,0,0,0,0,0,0,0,164,69.45735716819763,,,,,,,,,,,,,,,,,,,,,,,,,,,,,,,,,,,,,,,,,,,,,,,,,,,,,,,,,,,,,,,,,,,,,,,,,,,,,,,,,160.2204902375563,106.63134114662738,129.74890397989907,108.43345728978238,129.2064342893603,165.94097581705626,2.1,2.12,-204,-282,0,-286,233,286,69.44349479675293,69.44354057312012,69.44554853439331,69.45735716819763,69.602365732193,69.602365732193,69.602365732193,69.602365732193,69.602365732193,69.602365732193,69.602365732193,73.93081831932068,1,4.471973657608032,None,,,,,,,,,,,,,,,,,,29,3,2025-02-18_17h03.02.446,comp,2024.2.4,60.091692646249776,2025-02-18 17h03.15.329660 -0500,
1,1,0,critical,whd,20.0,4.0,lower,57.0,133.0,133.0,57.0,78.0,78.0,1,8.451892375946045,None,,,,,0,0,0,0,0,1,1,94,73.94622349739075,,,,,,,,,,,,,,,,,,,,,,,,,,,,,,,,,,,,,,,,,,,,,,,,,,,,,,,,,,,,,,,,,,,,,,,,,,,,,,,,,57.0,133.0,133.0,57.0,78.0,78.0,4.0,4.1,-191,-284,0,16,164,-287,73.93163204193115,73.93167304992676,73.93379712104797,73.94622349739075,74.09604573249817,74.09604573249817,74.09604573249817,74.09604573249817,74.09604573249817,74.09604573249817,74.09604573249817,82.41374206542969,1,8.451892375946045,None,,,,,,,,,,,,,,,,,,29,3,2025-02-18_17h03.02.446,comp,2024.2.4,60.091692646249776,2025-02-18 17h03.15.329660 -0500,
2,2,0,critical,wdh,35.0,2.1,lower,57.0,133.0,70.0,70.0,133.0,57.0,3,5.993809461593628,None,,,,,0,0,0,0,0,2,2,32,82.42922258377075,,,,,,,,,,,,,,,,,,,,,,,,,,,,,,,,,,,,,,,,,,,,,,,,,,,,,,,,,,,,,,,,,,,,,,,,,,,,,,,,,57.0,133.0,70.0,70.0,133.0,57.0,2.1,2.12,-198,-272,0,-271,160,256,82.4145667552948,82.41460728645325,82.41715478897095,82.42922258377075,82.5793628692627,82.5793628692627,82.5793628692627,82.5793628692627,82.5793628692627,82.5793628692627,82.5793628692627,88.43020558357239,3,5.993809461593628,None,,,,,,,,,,,,,,,,,,29,3,2025-02-18_17h03.02.446,comp,2024.2.4,60.091692646249776,2025-02-18 17h03.15.329660 -0500,
3,3,0,critical,hwd,35.0,2.1,lower,133.0,57.0,57.0,133.0,70.0,70.0,2,3.177144765853882,None,,,,,0,0,0,0,0,3,3,16,88.44594979286194,,,,,,,,,,,,,,,,,,,,,,,,,,,,,,,,,,,,,,,,,,,,,,,,,,,,,,,,,,,,,,,,,,,,,,,,,,,,,,,,,133.0,57.0,57.0,133.0,70.0,70.0,2.1,2.11,-191,277,0,279,198,-256,88.4310073852539,88.43104767799377,88.43333172798157,88.44594979286194,88.59591698646545,88.59591698646545,88.59591698646545,88.59591698646545,88.59591698646545,88.59591698646545,88.59591698646545,91.6304202079773,2,3.177144765853882,None,,,,,,,,,,,,,,,,,,29,3,2025-02-18_17h03.02.446,comp,2024.2.4,60.091692646249776,2025-02-18 17h03.15.329660 -0500,
4,4,0,filler_square,None,None,None,None,None,None,None,None,None,None,3,3.1290934085845947,None,,,,,0,0,0,0,0,4,4,197,91.64598870277405,,,,,,,,,,,,,,,,,,,,,,,,,,,,,,,,,,,,,,,,,,,,,,,,,,,,,,,,,,,,,,,,,,,,,,,,,,,,,,,,,151.22793036165777,134.89148746692965,109.87184906903651,105.44263525573933,196.3629756262942,196.3629756262942,2.1,2.11,-216,257,0,271,247,-263,91.63139796257019,91.63143968582153,91.63381505012512,91.64598870277405,91.79601454734802,91.79601454734802,91.79601454734802,91.79601454734802,91.79601454734802,91.79601454734802,91.79601454734802,94.7805380821228,3,3.1290934085845947,None,,,,,,,,,,,,,,,,,,29,3,2025-02-18_17h03.02.446,comp,2024.2.4,60.091692646249776,2025-02-18 17h03.15.329660 -0500,
5,5,0,critical,whd,20.0,3.0,upper,125.0,200.0,200.0,125.0,141.0,141.0,1,3.59494948387146,None,,,,,0,0,0,0,0,5,5,93,94.79597783088684,,,,,,,,,,,,,,,,,,,,,,,,,,,,,,,,,,,,,,,,,,,,,,,,,,,,,,,,,,,,,,,,,,,,,,,,,,,,,,,,,125.0,200.0,200.0,125.0,141.0,141.0,3.0,3.2,-258,-252,0,-5,229,271,94.78133034706116,94.78136968612671,94.7837495803833,94.79597783088684,94.94637250900269,94.94637250900269,94.94637250900269,94.94637250900269,94.94637250900269,94.94637250900269,94.94637250900269,98.39738082885742,1,3.59494948387146,None,,,,,,,,,,,,,,,,,,29,3,2025-02-18_17h03.02.446,comp,2024.2.4,60.091692646249776,2025-02-18 17h03.15.329660 -0500,
6,6,0,filler_random,None,None,None,None,None,None,None,None,None,None,1,2.3626019954681396,None,,,,,0,0,0,0,0,6,6,167,98.41248321533203,,,,,,,,,,,,,,,,,,,,,,,,,,,,,,,,,,,,,,,,,,,,,,,,,,,,,,,,,,,,,,,,,,,,,,,,,,,,,,,,,155.3162182613525,118.81995252120102,110.58592864391463,74.37828074526236,148.1450049393351,99.93167246951066,4.0,4.1,-193,-286,0,7,183,-279,98.39828443527222,98.39832663536072,98.40093278884888,98.41248321533203,98.56249213218689,98.56249213218689,98.56249213218689,98.56249213218689,98.56249213218689,98.56249213218689,98.56249213218689,100.780522108078,1,2.3626019954681396,None,,,,,,,,,,,,,,,,,,29,3,2025-02-18_17h03.02.446,comp,2024.2.4,60.091692646249776,2025-02-18 17h03.15.329660 -0500,
7,7,0,critical,hdw,20.0,1.0,lower,133.0,57.0,78.0,78.0,57.0,133.0,3,3.9702179431915283,None,,,,,0,0,0,0,0,7,7,114,100.79590201377869,,,,,,,,,,,,,,,,,,,,,,,,,,,,,,,,,,,,,,,,,,,,,,,,,,,,,,,,,,,,,,,,,,,,,,,,,,,,,,,,,133.0,57.0,78.0,78.0,57.0,133.0,1.0,1.2,-164,16,0,0,202,8,100.7813012599945,100.78134179115295,100.78372836112976,100.79590201377869,100.94587707519531,100.94587707519531,100.94587707519531,100.94587707519531,100.94587707519531,100.94587707519531,100.94587707519531,104.78032660484314,3,3.9702179431915283,None,,,,,,,,,,,,,,,,,,29,3,2025-02-18_17h03.02.446,comp,2024.2.4,60.091692646249776,2025-02-18 17h03.15.329660 -0500,
8,8,0,filler_square,None,None,None,None,None,None,None,None,None,None,3,3.5867984294891357,None,,,,,0,0,0,0,0,8,8,190,104.79555749893188,,,,,,,,,,,,,,,,,,,,,,,,,,,,,,,,,,,,,,,,,,,,,,,,,,,,,,,,,,,,,,,,,,,,,,,,,,,,,,,,,109.55403142816012,101.11649989157291,109.25206176451621,63.81893100612143,115.83002675447011,115.83002675447011,3.0,3.2,-178,-254,0,-2,186,276,104.78127789497375,104.7813172340393,104.78363704681396,104.79555749893188,104.94580101966858,104.94580101966858,104.94580101966858,104.94580101966858,104.94580101966858,104.94580101966858,104.94580101966858,108.3968677520752,3,3.5867984294891357,None,,,,,,,,,,,,,,,,,,29,3,2025-02-18_17h03.02.446,comp,2024.2.4,60.091692646249776,2025-02-18 17h03.15.329660 -0500,
9,9,0,critical,dwh,20.0,4.0,upper,141.0,141.0,125.0,200.0,200.0,125.0,2,4.050597906112671,None,,,,,0,0,0,0,0,9,9,71,108.41220235824585,,,,,,,,,,,,,,,,,,,,,,,,,,,,,,,,,,,,,,,,,,,,,,,,,,,,,,,,,,,,,,,,,,,,,,,,,,,,,,,,,141.0,141.0,125.0,200.0,200.0,125.0,4.0,4.1,-266,-278,0,10,258,-272,108.39767503738403,108.39771676063538,108.4002034664154,108.41220235824585,108.56258034706116,108.56258034706116,108.56258034706116,108.56258034706116,108.56258034706116,108.56258034706116,108.56258034706116,112.48040318489075,2,4.050597906112671,None,,,,,,,,,,,,,,,,,,29,3,2025-02-18_17h03.02.446,comp,2024.2.4,60.091692646249776,2025-02-18 17h03.15.329660 -0500,
10,10,0,filler_random,None,None,None,None,None,None,None,None,None,None,3,5.495015859603882,None,,,,,0,0,0,0,0,10,10,158,112.49584007263184,,,,,,,,,,,,,,,,,,,,,,,,,,,,,,,,,,,,,,,,,,,,,,,,,,,,,,,,,,,,,,,,,,,,,,,,,,,,,,,,,130.76473821818115,105.22101627736276,170.8492151525279,88.42254933095936,86.18327771157392,179.77829166004284,2.1,2.11,-193,262,0,289,230,-282,112.48133397102356,112.4813756942749,112.4846420288086,112.49584007263184,112.64578747749329,112.64578747749329,112.64578747749329,112.64578747749329,112.64578747749329,112.64578747749329,112.64578747749329,117.9967942237854,3,5.495015859603882,None,,,,,,,,,,,,,,,,,,29,3,2025-02-18_17h03.02.446,comp,2024.2.4,60.091692646249776,2025-02-18 17h03.15.329660 -0500,
11,11,0,filler_square,None,None,None,None,None,None,None,None,None,None,2,5.178424119949341,None,,,,,0,0,0,0,0,11,11,188,118.01229739189148,,,,,,,,,,,,,,,,,,,,,,,,,,,,,,,,,,,,,,,,,,,,,,,,,,,,,,,,,,,,,,,,,,,,,,,,,,,,,,,,,60.331297510370476,58.814968649386145,61.338298184534686,61.338298184534686,60.67160585956573,60.42417452390582,2.2,2.22,-156,250,0,-265,157,-281,117.99777817726135,117.9978175163269,118.00036931037903,118.01229739189148,118.16220545768738,118.16220545768738,118.16220545768738,118.16220545768738,118.16220545768738,118.16220545768738,118.16220545768738,123.19657921791077,2,5.178424119949341,None,,,,,,,,,,,,,,,,,,29,3,2025-02-18_17h03.02.446,comp,2024.2.4,60.091692646249776,2025-02-18 17h03.15.329660 -0500,
12,12,0,filler_square,None,None,None,None,None,None,None,None,None,None,1,3.9381930828094482,None,,,,,0,0,0,0,0,12,12,180,123.2122323513031,,,,,,,,,,,,,,,,,,,,,,,,,,,,,,,,,,,,,,,,,,,,,,,,,,,,,,,,,,,,,,,,,,,,,,,,,,,,,,,,,194.92126243699968,194.92126243699968,166.1136377444744,126.1286294238648,85.77867393799607,102.83712089086214,3.0,3.1,-257,287,0,18,210,-270,123.1975347995758,123.19757533073425,123.19997882843018,123.2122323513031,123.36255288124084,123.36255288124084,123.36255288124084,123.36255288124084,123.36255288124084,123.36255288124084,123.36255288124084,127.16357159614563,1,3.9381930828094482,None,,,,,,,,,,,,,,,,,,29,3,2025-02-18_17h03.02.446,comp,2024.2.4,60.091692646249776,2025-02-18 17h03.15.329660 -0500,
13,13,0,catch,None,None,None,None,None,None,None,None,None,None,1,2.5872533321380615,None,,,,,0,0,0,0,0,13,13,122,127.17869663238525,,,,,,,,,,,,,,,,,,,,,,,,,,,,,,,,,,,,,,,,,,,,,,,,,,,,,,,,,,,,,,,,,,,,,,,,,,,,,,,,,149,176,109,81,126,64,3.0,3.1,-224,252,0,15,168,-287,127.16462135314941,127.16466164588928,127.16706848144531,127.17869663238525,127.32887649536133,127.32887649536133,127.32887649536133,127.32887649536133,127.32887649536133,127.32887649536133,127.32887649536133,129.7802038192749,1,2.5872533321380615,None,,,,,,,,,,,,,,,,,,29,3,2025-02-18_17h03.02.446,comp,2024.2.4,60.091692646249776,2025-02-18 17h03.15.329660 -0500,
14,14,0,critical,whd,35.0,2.1,lower,57.0,133.0,133.0,57.0,70.0,70.0,1,5.364104986190796,None,,,,,0,0,0,0,0,14,14,12,129.79545331001282,,,,,,,,,,,,,,,,,,,,,,,,,,,,,,,,,,,,,,,,,,,,,,,,,,,,,,,,,,,,,,,,,,,,,,,,,,,,,,,,,57.0,133.0,133.0,57.0,70.0,70.0,2.1,2.12,-191,-286,0,-274,160,266,129.78102922439575,129.78107023239136,129.78460264205933,129.79545331001282,129.9455442428589,129.9455442428589,129.9455442428589,129.9455442428589,129.9455442428589,129.9455442428589,129.9455442428589,135.16334652900696,1,5.364104986190796,None,,,,,,,,,,,,,,,,,,29,3,2025-02-18_17h03.02.446,comp,2024.2.4,60.091692646249776,2025-02-18 17h03.15.329660 -0500,
15,15,0,critical,dhw,35.0,1.0,upper,127.0,127.0,200.0,125.0,125.0,200.0,3,6.811747074127197,None,,,,,0,0,0,0,0,15,15,49,135.178893327713,,,,,,,,,,,,,,,,,,,,,,,,,,,,,,,,,,,,,,,,,,,,,,,,,,,,,,,,,,,,,,,,,,,,,,,,,,,,,,,,,127.0,127.0,200.0,125.0,125.0,200.0,1.0,1.1,-702,275,-480,254,-222,269,135.16413569450378,135.16417574882507,135.167320728302,135.178893327713,135.32942533493042,135.32942533493042,135.32942533493042,135.32942533493042,135.32942533493042,135.32942533493042,135.32942533493042,141.9968616962433,3,6.811747074127197,None,,,,,,,,,,,,,,,,,,29,3,2025-02-18_17h03.02.446,comp,2024.2.4,60.091692646249776,2025-02-18 17h03.15.329660 -0500,
16,16,0,critical,wdh,35.0,2.1,upper,125.0,200.0,127.0,127.0,200.0,125.0,1,1.937929630279541,None,,,,,0,0,0,0,0,16,16,33,142.01222276687622,,,,,,,,,,,,,,,,,,,,,,,,,,,,,,,,,,,,,,,,,,,,,,,,,,,,,,,,,,,,,,,,,,,,,,,,,,,,,,,,,125.0,200.0,127.0,127.0,200.0,125.0,2.1,2.11,-260,289,0,277,222,-261,141.99767756462097,141.99771857261658,141.99985337257385,142.01222276687622,142.1627061367035,142.1627061367035,142.1627061367035,142.1627061367035,142.1627061367035,142.1627061367035,142.1627061367035,143.96327662467957,1,1.937929630279541,None,,,,,,,,,,,,,,,,,,29,3,2025-02-18_17h03.02.446,comp,2024.2.4,60.091692646249776,2025-02-18 17h03.15.329660 -0500,
17,17,0,filler_random,None,None,None,None,None,None,None,None,None,None,1,2.93359375,None,,,,,0,0,0,0,0,17,17,143,143.97860288619995,,,,,,,,,,,,,,,,,,,,,,,,,,,,,,,,,,,,,,,,,,,,,,,,,,,,,,,,,,,,,,,,,,,,,,,,,,,,,,,,,194.40839369518253,161.0079338933051,125.5318175847175,114.23303068437198,77.60503519332116,140.1680566990854,2.2,2.22,-234,257,0,-275,223,-251,143.96418738365173,143.96422576904297,143.96751594543457,143.97860288619995,144.1289098262787,144.1289098262787,144.1289098262787,144.1289098262787,144.1289098262787,144.1289098262787,144.1289098262787,146.92985558509827,1,2.93359375,None,,,,,,,,,,,,,,,,,,29,3,2025-02-18_17h03.02.446,comp,2024.2.4,60.091692646249776,2025-02-18 17h03.15.329660 -0500,
18,18,0,critical,hdw,35.0,4.0,lower,133.0,57.0,70.0,70.0,57.0,133.0,3,4.468618869781494,None,,,,,0,0,0,0,0,18,18,112,146.94517612457275,,,,,,,,,,,,,,,,,,,,,,,,,,,,,,,,,,,,,,,,,,,,,,,,,,,,,,,,,,,,,,,,,,,,,,,,,,,,,,,,,133.0,57.0,70.0,70.0,57.0,133.0,4.0,4.1,-160,-256,0,-4,198,-252,146.93065190315247,146.9306914806366,146.93318700790405,146.94517612457275,147.0954782962799,147.0954782962799,147.0954782962799,147.0954782962799,147.0954782962799,147.0954782962799,147.0954782962799,151.42973828315735,3,4.468618869781494,None,,,,,,,,,,,,,,,,,,29,3,2025-02-18_17h03.02.446,comp,2024.2.4,60.091692646249776,2025-02-18 17h03.15.329660 -0500,
19,19,0,critical,whd,35.0,3.0,upper,125.0,200.0,200.0,125.0,127.0,127.0,1,2.5048775672912598,None,,,,,0,0,0,0,0,19,19,87,151.44517469406128,,,,,,,,,,,,,,,,,,,,,,,,,,,,,,,,,,,,,,,,,,,,,,,,,,,,,,,,,,,,,,,,,,,,,,,,,,,,,,,,,125.0,200.0,200.0,125.0,127.0,127.0,3.0,3.2,-258,-282,0,17,222,265,151.4305374622345,151.4305772781372,151.43303060531616,151.44517469406128,151.5954728126526,151.5954728126526,151.5954728126526,151.5954728126526,151.5954728126526,151.5954728126526,151.5954728126526,153.9631917476654,1,2.5048775672912598,None,,,,,,,,,,,,,,,,,,29,3,2025-02-18_17h03.02.446,comp,2024.2.4,60.091692646249776,2025-02-18 17h03.15.329660 -0500,
20,20,0,filler_random,None,None,None,None,None,None,None,None,None,None,1,2.2600834369659424,None,,,,,0,0,0,0,0,20,20,140,153.97846508026123,,,,,,,,,,,,,,,,,,,,,,,,,,,,,,,,,,,,,,,,,,,,,,,,,,,,,,,,,,,,,,,,,,,,,,,,,,,,,,,,,144.84113507934308,123.10404004865532,126.74846508354469,92.60399359181574,71.01575821384245,195.2504816833613,1.0,1.2,-204,-2,0,15,240,-9,153.9641399383545,153.9641797542572,153.9662675857544,153.97846508026123,154.12863421440125,154.12863421440125,154.12863421440125,154.12863421440125,154.12863421440125,154.12863421440125,154.12863421440125,156.24656558036804,1,2.2600834369659424,None,,,,,,,,,,,,,,,,,,29,3,2025-02-18_17h03.02.446,comp,2024.2.4,60.091692646249776,2025-02-18 17h03.15.329660 -0500,
21,21,0,critical,hdw,35.0,2.1,upper,200.0,125.0,127.0,127.0,125.0,200.0,3,2.0086793899536133,None,,,,,0,0,0,0,0,21,21,21,156.26196813583374,,,,,,,,,,,,,,,,,,,,,,,,,,,,,,,,,,,,,,,,,,,,,,,,,,,,,,,,,,,,,,,,,,,,,,,,,,,,,,,,,200.0,125.0,127.0,127.0,125.0,200.0,2.1,2.12,-222,-279,0,-253,260,256,156.2473542690277,156.24739599227905,156.2497854232788,156.26196813583374,156.4120671749115,156.4120671749115,156.4120671749115,156.4120671749115,156.4120671749115,156.4120671749115,156.4120671749115,158.27988481521606,3,2.0086793899536133,None,,,,,,,,,,,,,,,,,,29,3,2025-02-18_17h03.02.446,comp,2024.2.4,60.091692646249776,2025-02-18 17h03.15.329660 -0500,
22,22,0,filler_square,None,None,None,None,None,None,None,None,None,None,2,4.134182453155518,None,,,,,0,0,0,0,0,22,22,205,158.295339345932,,,,,,,,,,,,,,,,,,,,,,,,,,,,,,,,,,,,,,,,,,,,,,,,,,,,,,,,,,,,,,,,,,,,,,,,,,,,,,,,,83.39446302125259,68.80975150168989,83.62907103178587,83.62907103178587,78.63043284227125,83.2234907943738,2.2,2.21,-172,-267,0,250,179,268,158.2808072566986,158.28084659576416,158.28336668014526,158.295339345932,158.44521117210388,158.44521117210388,158.44521117210388,158.44521117210388,158.44521117210388,158.44521117210388,158.44521117210388,162.4463288784027,2,4.134182453155518,None,,,,,,,,,,,,,,,,,,29,3,2025-02-18_17h03.02.446,comp,2024.2.4,60.091692646249776,2025-02-18 17h03.15.329660 -0500,
23,23,0,filler_square,None,None,None,None,None,None,None,None,None,None,3,2.6004369258880615,None,,,,,0,0,0,0,0,23,23,184,162.4617669582367,,,,,,,,,,,,,,,,,,,,,,,,,,,,,,,,,,,,,,,,,,,,,,,,,,,,,,,,,,,,,,,,,,,,,,,,,,,,,,,,,112.35478496665293,133.63087332164167,145.5707934479101,90.6087264522005,170.93725784062065,170.93725784062065,2.1,2.12,-208,-277,0,-277,227,260,162.44733214378357,162.4473729133606,162.4497926235199,162.4617669582367,162.61197876930237,162.61197876930237,162.61197876930237,162.61197876930237,162.61197876930237,162.61197876930237,162.61197876930237,165.07973790168762,3,2.6004369258880615,None,,,,,,,,,,,,,,,,,,29,3,2025-02-18_17h03.02.446,comp,2024.2.4,60.091692646249776,2025-02-18 17h03.15.329660 -0500,
24,24,0,critical,dwh,20.0,2.1,upper,141.0,141.0,125.0,200.0,200.0,125.0,2,3.5839202404022217,None,,,,,0,0,0,0,0,24,24,31,165.09502339363098,,,,,,,,,,,,,,,,,,,,,,,,,,,,,,,,,,,,,,,,,,,,,,,,,,,,,,,,,,,,,,,,,,,,,,,,,,,,,,,,,141.0,141.0,125.0,200.0,200.0,125.0,2.1,2.11,-266,261,0,262,258,-250,165.08054494857788,165.080584526062,165.08309531211853,165.09502339363098,165.24547028541565,165.24547028541565,165.24547028541565,165.24547028541565,165.24547028541565,165.24547028541565,165.24547028541565,168.68015599250793,2,3.5839202404022217,None,,,,,,,,,,,,,,,,,,29,3,2025-02-18_17h03.02.446,comp,2024.2.4,60.091692646249776,2025-02-18 17h03.15.329660 -0500,
25,25,0,critical,whd,20.0,2.1,upper,125.0,200.0,200.0,125.0,141.0,141.0,1,2.7180068492889404,None,,,,,0,0,0,0,0,25,25,15,168.69543385505676,,,,,,,,,,,,,,,,,,,,,,,,,,,,,,,,,,,,,,,,,,,,,,,,,,,,,,,,,,,,,,,,,,,,,,,,,,,,,,,,,125.0,200.0,200.0,125.0,141.0,141.0,2.1,2.12,-258,-250,0,-254,229,278,168.68098258972168,168.68102145195007,168.68352913856506,168.69543385505676,168.84552693367004,168.84552693367004,168.84552693367004,168.84552693367004,168.84552693367004,168.84552693367004,168.84552693367004,171.429753780365,1,2.7180068492889404,None,,,,,,,,,,,,,,,,,,29,3,2025-02-18_17h03.02.446,comp,2024.2.4,60.091692646249776,2025-02-18 17h03.15.329660 -0500,
26,26,0,critical,hdw,20.0,2.1,lower,133.0,57.0,78.0,78.0,57.0,133.0,3,2.7294528484344482,None,,,,,0,0,0,0,0,26,26,46,171.4449918270111,,,,,,,,,,,,,,,,,,,,,,,,,,,,,,,,,,,,,,,,,,,,,,,,,,,,,,,,,,,,,,,,,,,,,,,,,,,,,,,,,133.0,57.0,78.0,78.0,57.0,133.0,2.1,2.11,-164,273,0,285,202,-255,171.43052744865417,171.4305670261383,171.43300557136536,171.4449918270111,171.5951726436615,171.5951726436615,171.5951726436615,171.5951726436615,171.5951726436615,171.5951726436615,171.5951726436615,174.17962765693665,3,2.7294528484344482,None,,,,,,,,,,,,,,,,,,29,3,2025-02-18_17h03.02.446,comp,2024.2.4,60.091692646249776,2025-02-18 17h03.15.329660 -0500,
27,27,0,critical,hwd,35.0,4.0,upper,200.0,125.0,125.0,200.0,127.0,127.0,2,2.5953125953674316,None,,,,,0,0,0,0,0,27,27,101,174.19513773918152,,,,,,,,,,,,,,,,,,,,,,,,,,,,,,,,,,,,,,,,,,,,,,,,,,,,,,,,,,,,,,,,,,,,,,,,,,,,,,,,,200.0,125.0,125.0,200.0,127.0,127.0,4.0,4.1,-258,-251,0,-18,260,-265,174.180419921875,174.1804597377777,174.1829125881195,174.19513773918152,174.34520602226257,174.34520602226257,174.34520602226257,174.34520602226257,174.34520602226257,174.34520602226257,174.34520602226257,176.79650950431824,2,2.5953125953674316,None,,,,,,,,,,,,,,,,,,29,3,2025-02-18_17h03.02.446,comp,2024.2.4,60.091692646249776,2025-02-18 17h03.15.329660 -0500,
28,28,0,filler_random,None,None,None,None,None,None,None,None,None,None,1,4.210474014282227,None,,,,,0,0,0,0,0,28,28,141,176.8117916584015,,,,,,,,,,,,,,,,,,,,,,,,,,,,,,,,,,,,,,,,,,,,,,,,,,,,,,,,,,,,,,,,,,,,,,,,,,,,,,,,,100.17145195383395,199.18496456112686,87.33952063111593,150.55474715999685,69.35197551173778,161.00963378617666,3.0,3.2,-271,-265,0,15,252,276,176.797438621521,176.79748058319092,176.79992580413818,176.8117916584015,176.96184277534485,176.96184277534485,176.96184277534485,176.96184277534485,176.96184277534485,176.96184277534485,176.96184277534485,181.02957797050476,1,4.210474014282227,None,,,,,,,,,,,,,,,,,,29,3,2025-02-18_17h03.02.446,comp,2024.2.4,60.091692646249776,2025-02-18 17h03.15.329660 -0500,
29,29,0,catch,None,None,None,None,None,None,None,None,None,None,1,1.9362826347351074,None,,,,,0,0,0,0,0,29,29,124,181.04521703720093,,,,,,,,,,,,,,,,,,,,,,,,,,,,,,,,,,,,,,,,,,,,,,,,,,,,,,,,,,,,,,,,,,,,,,,,,,,,,,,,,162,163,133,57,73,117,3.0,3.1,-206,289,0,17,183,-273,181.03062319755554,181.03066492080688,181.03317022323608,181.04521703720093,181.19522190093994,181.19522190093994,181.19522190093994,181.19522190093994,181.19522190093994,181.19522190093994,181.19522190093994,182.9963366985321,1,1.9362826347351074,None,,,,,,,,,,,,,,,,,,29,3,2025-02-18_17h03.02.446,comp,2024.2.4,60.091692646249776,2025-02-18 17h03.15.329660 -0500,
30,30,0,critical,hdw,20.0,2.1,upper,200.0,125.0,141.0,141.0,125.0,200.0,3,3.578725814819336,None,,,,,0,0,0,0,0,30,30,47,183.01160979270935,,,,,,,,,,,,,,,,,,,,,,,,,,,,,,,,,,,,,,,,,,,,,,,,,,,,,,,,,,,,,,,,,,,,,,,,,,,,,,,,,200.0,125.0,141.0,141.0,125.0,200.0,2.1,2.12,-229,-286,0,-289,266,283,182.9971468448639,182.99718856811523,183.00042009353638,183.01160979270935,183.16183829307556,183.16183829307556,183.16183829307556,183.16183829307556,183.16183829307556,183.16183829307556,183.16183829307556,186.59643626213074,3,3.578725814819336,None,,,,,,,,,,,,,,,,,,29,3,2025-02-18_17h03.02.446,comp,2024.2.4,60.091692646249776,2025-02-18 17h03.15.329660 -0500,
31,31,0,critical,dhw,35.0,2.1,lower,70.0,70.0,133.0,57.0,57.0,133.0,2,2.489429473876953,None,,,,,0,0,0,0,0,31,31,0,186.61179399490356,,,,,,,,,,,,,,,,,,,,,,,,,,,,,,,,,,,,,,,,,,,,,,,,,,,,,,,,,,,,,,,,,,,,,,,,,,,,,,,,,70.0,70.0,133.0,57.0,57.0,133.0,2.1,2.12,-160,-253,0,-279,191,277,186.5972363948822,186.59728837013245,186.59951329231262,186.61179399490356,186.7620677947998,186.7620677947998,186.7620677947998,186.7620677947998,186.7620677947998,186.7620677947998,186.7620677947998,189.1128785610199,2,2.489429473876953,None,,,,,,,,,,,,,,,,,,29,3,2025-02-18_17h03.02.446,comp,2024.2.4,60.091692646249776,2025-02-18 17h03.15.329660 -0500,
32,32,0,critical,dhw,35.0,1.0,lower,70.0,70.0,133.0,57.0,57.0,133.0,3,2.6371359825134277,None,,,,,0,0,0,0,0,32,32,48,189.1281659603119,,,,,,,,,,,,,,,,,,,,,,,,,,,,,,,,,,,,,,,,,,,,,,,,,,,,,,,,,,,,,,,,,,,,,,,,,,,,,,,,,70.0,70.0,133.0,57.0,57.0,133.0,1.0,1.3,320,-251,480,-253,671,-280,189.11375212669373,189.11379170417786,189.116393327713,189.1281659603119,189.27822017669678,189.27822017669678,189.27822017669678,189.27822017669678,189.27822017669678,189.27822017669678,189.27822017669678,191.7794873714447,3,2.6371359825134277,None,,,,,,,,,,,,,,,,,,29,3,2025-02-18_17h03.02.446,comp,2024.2.4,60.091692646249776,2025-02-18 17h03.15.329660 -0500,
33,33,0,filler_square,None,None,None,None,None,None,None,None,None,None,2,2.5792195796966553,None,,,,,0,0,0,0,0,33,33,179,191.79490494728088,,,,,,,,,,,,,,,,,,,,,,,,,,,,,,,,,,,,,,,,,,,,,,,,,,,,,,,,,,,,,,,,,,,,,,,,,,,,,,,,,85.58309660330205,79.49096881970421,96.81235847539995,96.81235847539995,80.53089281848958,86.85951531277712,1.0,1.3,296,-279,480,-261,668,-270,191.7804651260376,191.7805061340332,191.78263568878174,191.79490494728088,191.94493460655212,191.94493460655212,191.94493460655212,191.94493460655212,191.94493460655212,191.94493460655212,191.94493460655212,194.37947463989258,2,2.5792195796966553,None,,,,,,,,,,,,,,,,,,29,3,2025-02-18_17h03.02.446,comp,2024.2.4,60.091692646249776,2025-02-18 17h03.15.329660 -0500,
34,34,0,filler_square,None,None,None,None,None,None,None,None,None,None,1,2.579465389251709,None,,,,,0,0,0,0,0,34,34,171,194.39499282836914,,,,,,,,,,,,,,,,,,,,,,,,,,,,,,,,,,,,,,,,,,,,,,,,,,,,,,,,,,,,,,,,,,,,,,,,,,,,,,,,,158.51177737714534,158.51177737714534,57.01791286500242,57.6598302525763,129.8906795491102,89.14096482722579,2.1,2.12,-204,-271,0,-273,169,275,194.38042378425598,194.38046526908875,194.38289833068848,194.39499282836914,194.54498553276062,194.54498553276062,194.54498553276062,194.54498553276062,194.54498553276062,194.54498553276062,194.54498553276062,196.97962164878845,1,2.579465389251709,None,,,,,,,,,,,,,,,,,,29,3,2025-02-18_17h03.02.446,comp,2024.2.4,60.091692646249776,2025-02-18 17h03.15.329660 -0500,
35,35,0,critical,dhw,20.0,4.0,upper,141.0,141.0,200.0,125.0,125.0,200.0,3,2.93802547454834,None,,,,,0,0,0,0,0,35,35,59,196.99508333206177,,,,,,,,,,,,,,,,,,,,,,,,,,,,,,,,,,,,,,,,,,,,,,,,,,,,,,,,,,,,,,,,,,,,,,,,,,,,,,,,,141.0,141.0,200.0,125.0,125.0,200.0,4.0,4.1,-229,-282,0,10,258,-276,196.98042130470276,196.98046159744263,196.98292183876038,196.99508333206177,197.14551830291748,197.14551830291748,197.14551830291748,197.14551830291748,197.14551830291748,197.14551830291748,197.14551830291748,199.9461531639099,3,2.93802547454834,None,,,,,,,,,,,,,,,,,,29,3,2025-02-18_17h03.02.446,comp,2024.2.4,60.091692646249776,2025-02-18 17h03.15.329660 -0500,
36,36,0,filler_random,None,None,None,None,None,None,None,None,None,None,2,3.0286219120025635,None,,,,,0,0,0,0,0,36,36,146,199.96139073371887,,,,,,,,,,,,,,,,,,,,,,,,,,,,,,,,,,,,,,,,,,,,,,,,,,,,,,,,,,,,,,,,,,,,,,,,,,,,,,,,,86.42160446530794,110.1777249894081,175.89621066374048,155.05153448961764,125.67154591568364,124.71040614127473,2.2,2.22,-229,276,0,-271,236,-263,199.9471035003662,199.94714426994324,199.94929194450378,199.96139073371887,200.111554145813,200.111554145813,200.111554145813,200.111554145813,200.111554145813,200.111554145813,200.111554145813,202.99612760543823,2,3.0286219120025635,None,,,,,,,,,,,,,,,,,,29,3,2025-02-18_17h03.02.446,comp,2024.2.4,60.091692646249776,2025-02-18 17h03.15.329660 -0500,
37,37,0,critical,dwh,20.0,1.0,lower,78.0,78.0,57.0,133.0,133.0,57.0,3,3.1944844722747803,None,,,,,0,0,0,0,0,37,37,66,203.01156210899353,,,,,,,,,,,,,,,,,,,,,,,,,,,,,,,,,,,,,,,,,,,,,,,,,,,,,,,,,,,,,,,,,,,,,,,,,,,,,,,,,78.0,78.0,57.0,133.0,133.0,57.0,1.0,1.1,-682,276,-480,281,-289,266,202.99692058563232,202.99696111679077,202.99962425231934,203.01156210899353,203.1615550518036,203.1615550518036,203.1615550518036,203.1615550518036,203.1615550518036,203.1615550518036,203.1615550518036,206.21271085739136,3,3.1944844722747803,None,,,,,,,,,,,,,,,,,,29,3,2025-02-18_17h03.02.446,comp,2024.2.4,60.091692646249776,2025-02-18 17h03.15.329660 -0500,
38,38,0,filler_random,None,None,None,None,None,None,None,None,None,None,3,1.4170112609863281,None,,,,,0,0,0,0,0,38,38,145,206.2283353805542,,,,,,,,,,,,,,,,,,,,,,,,,,,,,,,,,,,,,,,,,,,,,,,,,,,,,,,,,,,,,,,,,,,,,,,,,,,,,,,,,172.53100942855335,73.01051786595966,118.20452217661014,117.4500986635799,188.37367640769276,153.85005795863208,1.0,1.1,-671,285,-480,265,-248,257,206.21363878250122,206.21368026733398,206.2161021232605,206.2283353805542,206.37837624549866,206.37837624549866,206.37837624549866,206.37837624549866,206.37837624549866,206.37837624549866,206.37837624549866,207.64644145965576,3,1.4170112609863281,None,,,,,,,,,,,,,,,,,,29,3,2025-02-18_17h03.02.446,comp,2024.2.4,60.091692646249776,2025-02-18 17h03.15.329660 -0500,
39,39,0,filler_square,None,None,None,None,None,None,None,None,None,None,2,1.6714189052581787,None,,,,,0,0,0,0,0,39,39,195,207.6615595817566,,,,,,,,,,,,,,,,,,,,,,,,,,,,,,,,,,,,,,,,,,,,,,,,,,,,,,,,,,,,,,,,,,,,,,,,,,,,,,,,,58.372058000319406,80.03017641942425,180.35287541657314,180.35287541657314,150.55144788471873,90.44778401003043,4.0,4.2,-226,-7,0,-283,231,2,207.64745140075684,207.6474928855896,207.6498749256134,207.6615595817566,207.81146907806396,207.81146907806396,207.81146907806396,207.81146907806396,207.81146907806396,207.81146907806396,207.81146907806396,209.34615397453308,2,1.6714189052581787,None,,,,,,,,,,,,,,,,,,29,3,2025-02-18_17h03.02.446,comp,2024.2.4,60.091692646249776,2025-02-18 17h03.15.329660 -0500,
40,40,0,critical,dwh,35.0,4.0,lower,70.0,70.0,57.0,133.0,133.0,57.0,2,2.2286019325256348,None,,,,,0,0,0,0,0,40,40,64,209.36136054992676,,,,,,,,,,,,,,,,,,,,,,,,,,,,,,,,,,,,,,,,,,,,,,,,,,,,,,,,,,,,,,,,,,,,,,,,,,,,,,,,,70.0,70.0,57.0,133.0,133.0,57.0,4.0,4.2,-198,4,0,-280,191,3,209.34696316719055,209.34700417518616,209.34914660453796,209.36136054992676,209.51175570487976,209.51175570487976,209.51175570487976,209.51175570487976,209.51175570487976,209.51175570487976,209.51175570487976,211.5958695411682,2,2.2286019325256348,None,,,,,,,,,,,,,,,,,,29,3,2025-02-18_17h03.02.446,comp,2024.2.4,60.091692646249776,2025-02-18 17h03.15.329660 -0500,
41,41,0,filler_square,None,None,None,None,None,None,None,None,None,None,1,6.132354736328125,None,,,,,0,0,0,0,0,41,41,183,211.61148881912231,,,,,,,,,,,,,,,,,,,,,,,,,,,,,,,,,,,,,,,,,,,,,,,,,,,,,,,,,,,,,,,,,,,,,,,,,,,,,,,,,94.14239596340367,94.14239596340367,70.63736703781301,85.46739825667039,78.98359176664542,77.02119192313228,1.0,1.2,-186,-11,0,7,177,15,211.5968189239502,211.596862077713,211.59961605072021,211.61148881912231,211.76146602630615,211.76146602630615,211.76146602630615,211.76146602630615,211.76146602630615,211.76146602630615,211.76146602630615,217.74586820602417,1,6.132354736328125,None,,,,,,,,,,,,,,,,,,29,3,2025-02-18_17h03.02.446,comp,2024.2.4,60.091692646249776,2025-02-18 17h03.15.329660 -0500,
42,42,0,filler_random,None,None,None,None,None,None,None,None,None,None,2,2.1665220260620117,None,,,,,0,0,0,0,0,42,42,166,217.76144456863403,,,,,,,,,,,,,,,,,,,,,,,,,,,,,,,,,,,,,,,,,,,,,,,,,,,,,,,,,,,,,,,,,,,,,,,,,,,,,,,,,106.32139310363605,107.92248965533938,127.68481829902072,167.2286630436709,87.9786603353494,181.25399656972914,2.1,2.12,-234,-272,0,-262,270,270,217.7467975616455,217.74683809280396,217.7494432926178,217.76144456863403,217.911456823349,217.911456823349,217.911456823349,217.911456823349,217.911456823349,217.911456823349,217.911456823349,219.94596672058105,2,2.1665220260620117,None,,,,,,,,,,,,,,,,,,29,3,2025-02-18_17h03.02.446,comp,2024.2.4,60.091692646249776,2025-02-18 17h03.15.329660 -0500,
43,43,0,catch,None,None,None,None,None,None,None,None,None,None,2,2.4677252769470215,None,,,,,0,0,0,0,0,43,43,126,219.96120262145996,,,,,,,,,,,,,,,,,,,,,,,,,,,,,,,,,,,,,,,,,,,,,,,,,,,,,,,,,,,,,,,,,,,,,,,,,,,,,,,,,65,125,192,133,64,126,3.0,3.1,-225,280,0,-12,226,-262,219.94702315330505,219.94706320762634,219.9496409893036,219.96120262145996,220.1113622188568,220.1113622188568,220.1113622188568,220.1113622188568,220.1113622188568,220.1113622188568,220.1113622188568,222.44603419303894,2,2.4677252769470215,None,,,,,,,,,,,,,,,,,,29,3,2025-02-18_17h03.02.446,comp,2024.2.4,60.091692646249776,2025-02-18 17h03.15.329660 -0500,
44,44,0,critical,hwd,20.0,1.0,lower,133.0,57.0,57.0,133.0,78.0,78.0,2,2.833786964416504,None,,,,,0,0,0,0,0,44,44,102,222.461243391037,,,,,,,,,,,,,,,,,,,,,,,,,,,,,,,,,,,,,,,,,,,,,,,,,,,,,,,,,,,,,,,,,,,,,,,,,,,,,,,,,133.0,57.0,57.0,133.0,78.0,78.0,1.0,1.1,-671,270,-480,267,-278,287,222.4468445777893,222.4468846321106,222.4494345188141,222.461243391037,222.61155915260315,222.61155915260315,222.61155915260315,222.61155915260315,222.61155915260315,222.61155915260315,222.61155915260315,225.31240463256836,2,2.833786964416504,None,,,,,,,,,,,,,,,,,,29,3,2025-02-18_17h03.02.446,comp,2024.2.4,60.091692646249776,2025-02-18 17h03.15.329660 -0500,
45,45,0,filler_random,None,None,None,None,None,None,None,None,None,None,1,1.8308601379394531,None,,,,,0,0,0,0,0,45,45,165,225.32782316207886,,,,,,,,,,,,,,,,,,,,,,,,,,,,,,,,,,,,,,,,,,,,,,,,,,,,,,,,,,,,,,,,,,,,,,,,,,,,,,,,,166.6607908666224,188.61449722577856,159.92413144212674,88.73993010822808,60.664157850620356,59.64586244636556,2.2,2.22,-235,252,0,-275,170,-285,225.31334614753723,225.31338572502136,225.31582379341125,225.32782316207886,225.47806787490845,225.47806787490845,225.47806787490845,225.47806787490845,225.47806787490845,225.47806787490845,225.47806787490845,227.16264414787292,1,1.8308601379394531,None,,,,,,,,,,,,,,,,,,29,3,2025-02-18_17h03.02.446,comp,2024.2.4,60.091692646249776,2025-02-18 17h03.15.329660 -0500,
46,46,0,critical,hdw,20.0,1.0,upper,200.0,125.0,141.0,141.0,125.0,200.0,3,2.754837989807129,None,,,,,0,0,0,0,0,46,46,115,227.17802906036377,,,,,,,,,,,,,,,,,,,,,,,,,,,,,,,,,,,,,,,,,,,,,,,,,,,,,,,,,,,,,,,,,,,,,,,,,,,,,,,,,200.0,125.0,141.0,141.0,125.0,200.0,1.0,1.3,251,-277,480,-258,746,-278,227.16343998908997,227.16348147392273,227.1658844947815,227.17802906036377,227.32862424850464,227.32862424850464,227.32862424850464,227.32862424850464,227.32862424850464,227.32862424850464,227.32862424850464,229.9459331035614,3,2.754837989807129,None,,,,,,,,,,,,,,,,,,29,3,2025-02-18_17h03.02.446,comp,2024.2.4,60.091692646249776,2025-02-18 17h03.15.329660 -0500,
47,47,0,critical,dhw,20.0,2.1,lower,78.0,78.0,133.0,57.0,57.0,133.0,3,5.9822235107421875,None,,,,,0,0,0,0,0,47,47,2,229.96114206314087,,,,,,,,,,,,,,,,,,,,,,,,,,,,,,,,,,,,,,,,,,,,,,,,,,,,,,,,,,,,,,,,,,,,,,,,,,,,,,,,,78.0,78.0,133.0,57.0,57.0,133.0,2.1,2.12,-164,-256,0,-274,191,258,229.94673800468445,229.94677710533142,229.94926857948303,229.96114206314087,230.11116480827332,230.11116480827332,230.11116480827332,230.11116480827332,230.11116480827332,230.11116480827332,230.11116480827332,235.94582056999207,3,5.9822235107421875,None,,,,,,,,,,,,,,,,,,29,3,2025-02-18_17h03.02.446,comp,2024.2.4,60.091692646249776,2025-02-18 17h03.15.329660 -0500,
48,48,0,critical,wdh,20.0,2.1,upper,125.0,200.0,141.0,141.0,200.0,125.0,1,2.9007558822631836,None,,,,,0,0,0,0,0,48,48,11,235.96129894256592,,,,,,,,,,,,,,,,,,,,,,,,,,,,,,,,,,,,,,,,,,,,,,,,,,,,,,,,,,,,,,,,,,,,,,,,,,,,,,,,,125.0,200.0,141.0,141.0,200.0,125.0,2.1,2.11,-266,276,0,253,229,-256,235.94662189483643,235.94666171073914,235.94916439056396,235.96129894256592,236.11150002479553,236.11150002479553,236.11150002479553,236.11150002479553,236.11150002479553,236.11150002479553,236.11150002479553,238.8792281150818,1,2.9007558822631836,None,,,,,,,,,,,,,,,,,,29,3,2025-02-18_17h03.02.446,comp,2024.2.4,60.091692646249776,2025-02-18 17h03.15.329660 -0500,
49,49,0,filler_random,None,None,None,None,None,None,None,None,None,None,2,3.1919968128204346,None,,,,,0,0,0,0,0,49,49,150,238.89450669288635,,,,,,,,,,,,,,,,,,,,,,,,,,,,,,,,,,,,,,,,,,,,,,,,,,,,,,,,,,,,,,,,,,,,,,,,,,,,,,,,,64.07102698403858,180.1723057985887,122.8495529868979,191.5204140914172,140.1002049611026,147.3651096550513,1.0,1.3,198,-266,480,-276,745,-286,238.88017106056213,238.88020992279053,238.88349676132202,238.89450669288635,239.04467701911926,239.04467701911926,239.04467701911926,239.04467701911926,239.04467701911926,239.04467701911926,239.04467701911926,242.09588861465454,2,3.1919968128204346,None,,,,,,,,,,,,,,,,,,29,3,2025-02-18_17h03.02.446,comp,2024.2.4,60.091692646249776,2025-02-18 17h03.15.329660 -0500,
50,50,0,critical,hwd,35.0,2.1,upper,200.0,125.0,125.0,200.0,127.0,127.0,2,3.26251220703125,None,,,,,0,0,0,0,0,50,50,41,242.1112780570984,,,,,,,,,,,,,,,,,,,,,,,,,,,,,,,,,,,,,,,,,,,,,,,,,,,,,,,,,,,,,,,,,,,,,,,,,,,,,,,,,200.0,125.0,125.0,200.0,127.0,127.0,2.1,2.11,-258,253,0,256,260,-251,242.09672904014587,242.09677028656006,242.09921979904175,242.1112780570984,242.26146340370178,242.26146340370178,242.26146340370178,242.26146340370178,242.26146340370178,242.26146340370178,242.26146340370178,245.3793008327484,2,3.26251220703125,None,,,,,,,,,,,,,,,,,,29,3,2025-02-18_17h03.02.446,comp,2024.2.4,60.091692646249776,2025-02-18 17h03.15.329660 -0500,
51,51,0,filler_square,None,None,None,None,None,None,None,None,None,None,1,3.1702029705047607,None,,,,,0,0,0,0,0,51,51,191,245.39463210105896,,,,,,,,,,,,,,,,,,,,,,,,,,,,,,,,,,,,,,,,,,,,,,,,,,,,,,,,,,,,,,,,,,,,,,,,,,,,,,,,,129.8603897685575,129.8603897685575,126.58064584961289,78.73815119797231,121.377357760593,69.19968867969008,2.1,2.12,-200,-265,0,-276,170,279,245.3803071975708,245.3803470134735,245.38253498077393,245.39463210105896,245.54454445838928,245.54454445838928,245.54454445838928,245.54454445838928,245.54454445838928,245.54454445838928,245.54454445838928,248.57895708084106,1,3.1702029705047607,None,,,,,,,,,,,,,,,,,,29,3,2025-02-18_17h03.02.446,comp,2024.2.4,60.091692646249776,2025-02-18 17h03.15.329660 -0500,
52,52,0,filler_random,None,None,None,None,None,None,None,None,None,None,2,2.050523281097412,None,,,,,0,0,0,0,0,52,52,163,248.594393491745,,,,,,,,,,,,,,,,,,,,,,,,,,,,,,,,,,,,,,,,,,,,,,,,,,,,,,,,,,,,,,,,,,,,,,,,,,,,,,,,,155.5434529193654,72.57245873514412,157.36943990493734,183.92427182710264,198.06762569222627,105.5551793356014,2.2,2.22,-224,276,0,-279,241,-257,248.57989621162415,248.57993626594543,248.58250975608826,248.594393491745,248.74463939666748,248.74463939666748,248.74463939666748,248.74463939666748,248.74463939666748,248.74463939666748,248.74463939666748,250.66236782073975,2,2.050523281097412,None,,,,,,,,,,,,,,,,,,29,3,2025-02-18_17h03.02.446,comp,2024.2.4,60.091692646249776,2025-02-18 17h03.15.329660 -0500,
53,53,0,critical,dhw,20.0,4.0,lower,78.0,78.0,133.0,57.0,57.0,133.0,3,3.3840091228485107,None,,,,,0,0,0,0,0,53,53,58,250.67757534980774,,,,,,,,,,,,,,,,,,,,,,,,,,,,,,,,,,,,,,,,,,,,,,,,,,,,,,,,,,,,,,,,,,,,,,,,,,,,,,,,,78.0,78.0,133.0,57.0,57.0,133.0,4.0,4.1,-164,-265,0,0,191,-277,250.66315579414368,250.66319751739502,250.66639637947083,250.67757534980774,250.82783484458923,250.82783484458923,250.82783484458923,250.82783484458923,250.82783484458923,250.82783484458923,250.82783484458923,254.07878470420837,3,3.3840091228485107,None,,,,,,,,,,,,,,,,,,29,3,2025-02-18_17h03.02.446,comp,2024.2.4,60.091692646249776,2025-02-18 17h03.15.329660 -0500,
54,54,0,filler_square,None,None,None,None,None,None,None,None,None,None,3,1.486649990081787,None,,,,,0,0,0,0,0,54,54,200,254.09422421455383,,,,,,,,,,,,,,,,,,,,,,,,,,,,,,,,,,,,,,,,,,,,,,,,,,,,,,,,,,,,,,,,,,,,,,,,,,,,,,,,,60.9650819207201,98.03730341338456,68.18678329400565,113.69091968646141,145.55845688136654,145.55845688136654,1.0,1.3,278,-266,480,-289,706,-264,254.07975029945374,254.0797896385193,254.0823314189911,254.09422421455383,254.24456095695496,254.24456095695496,254.24456095695496,254.24456095695496,254.24456095695496,254.24456095695496,254.24456095695496,255.59606194496155,3,1.486649990081787,None,,,,,,,,,,,,,,,,,,29,3,2025-02-18_17h03.02.446,comp,2024.2.4,60.091692646249776,2025-02-18 17h03.15.329660 -0500,
55,55,0,critical,whd,35.0,4.0,upper,125.0,200.0,200.0,125.0,127.0,127.0,1,2.234203815460205,None,,,,,0,0,0,0,0,55,55,89,255.61094522476196,,,,,,,,,,,,,,,,,,,,,,,,,,,,,,,,,,,,,,,,,,,,,,,,,,,,,,,,,,,,,,,,,,,,,,,,,,,,,,,,,125.0,200.0,200.0,125.0,127.0,127.0,4.0,4.1,-258,-272,0,-15,222,-268,255.59685850143433,255.59689807891846,255.59942197799683,255.61094522476196,255.76130962371826,255.76130962371826,255.76130962371826,255.76130962371826,255.76130962371826,255.76130962371826,255.76130962371826,257.8622417449951,1,2.234203815460205,None,,,,,,,,,,,,,,,,,,29,3,2025-02-18_17h03.02.446,comp,2024.2.4,60.091692646249776,2025-02-18 17h03.15.329660 -0500,
56,56,0,critical,whd,20.0,2.1,upper,125.0,200.0,200.0,125.0,141.0,141.0,2,1.7509148120880127,None,,,,,0,0,0,0,0,56,56,39,257.8776767253876,,,,,,,,,,,,,,,,,,,,,,,,,,,,,,,,,,,,,,,,,,,,,,,,,,,,,,,,,,,,,,,,,,,,,,,,,,,,,,,,,125.0,200.0,200.0,125.0,141.0,141.0,2.1,2.11,-258,284,0,265,229,-281,257.8630602359772,257.8631000518799,257.86522483825684,257.8776767253876,258.02789425849915,258.02789425849915,258.02789425849915,258.02789425849915,258.02789425849915,258.02789425849915,258.02789425849915,259.6456160545349,2,1.7509148120880127,None,,,,,,,,,,,,,,,,,,29,3,2025-02-18_17h03.02.446,comp,2024.2.4,60.091692646249776,2025-02-18 17h03.15.329660 -0500,
57,57,0,critical,wdh,35.0,4.0,lower,57.0,133.0,70.0,70.0,133.0,57.0,1,3.6396737098693848,None,,,,,0,0,0,0,0,57,57,76,259.660737991333,,,,,,,,,,,,,,,,,,,,,,,,,,,,,,,,,,,,,,,,,,,,,,,,,,,,,,,,,,,,,,,,,,,,,,,,,,,,,,,,,57.0,133.0,70.0,70.0,133.0,57.0,4.0,4.1,-198,-252,0,-20,160,-275,259.646427154541,259.6464669704437,259.64889216423035,259.660737991333,259.8113236427307,259.8113236427307,259.8113236427307,259.8113236427307,259.8113236427307,259.8113236427307,259.8113236427307,263.3130028247833,1,3.6396737098693848,None,,,,,,,,,,,,,,,,,,29,3,2025-02-18_17h03.02.446,comp,2024.2.4,60.091692646249776,2025-02-18 17h03.15.329660 -0500,
58,58,0,filler_square,None,None,None,None,None,None,None,None,None,None,3,2.1413886547088623,None,,,,,0,0,0,0,0,58,58,198,263.32831501960754,,,,,,,,,,,,,,,,,,,,,,,,,,,,,,,,,,,,,,,,,,,,,,,,,,,,,,,,,,,,,,,,,,,,,,,,,,,,,,,,,120.78864304839851,87.86777776016683,162.00098301931155,69.0014539077438,168.89690191009342,168.89690191009342,2.2,2.22,-174,265,0,-284,215,-274,263.31397223472595,263.31401085853577,263.31742811203003,263.32831501960754,263.47797083854675,263.47797083854675,263.47797083854675,263.47797083854675,263.47797083854675,263.47797083854675,263.47797083854675,265.4787631034851,3,2.1413886547088623,None,,,,,,,,,,,,,,,,,,29,3,2025-02-18_17h03.02.446,comp,2024.2.4,60.091692646249776,2025-02-18 17h03.15.329660 -0500,
59,59,0,critical,dhw,20.0,2.1,upper,141.0,141.0,200.0,125.0,125.0,200.0,3,1.6486461162567139,None,,,,,0,0,0,0,0,59,59,3,265.49441862106323,,,,,,,,,,,,,,,,,,,,,,,,,,,,,,,,,,,,,,,,,,,,,,,,,,,,,,,,,,,,,,,,,,,,,,,,,,,,,,,,,141.0,141.0,200.0,125.0,125.0,200.0,2.1,2.11,-229,277,0,268,258,-263,265.4795742034912,265.47961688041687,265.4816372394562,265.49441862106323,265.64449548721313,265.64449548721313,265.64449548721313,265.64449548721313,265.64449548721313,265.64449548721313,265.64449548721313,267.1458065509796,3,1.6486461162567139,None,,,,,,,,,,,,,,,,,,29,3,2025-02-18_17h03.02.446,comp,2024.2.4,60.091692646249776,2025-02-18 17h03.15.329660 -0500,
60,60,0,critical,hdw,35.0,1.0,lower,133.0,57.0,70.0,70.0,57.0,133.0,3,2.98232102394104,None,,,,,0,0,0,0,0,60,60,108,267.1609401702881,,,,,,,,,,,,,,,,,,,,,,,,,,,,,,,,,,,,,,,,,,,,,,,,,,,,,,,,,,,,,,,,,,,,,,,,,,,,,,,,,133.0,57.0,70.0,70.0,57.0,133.0,1.0,1.2,-160,12,0,17,198,10,267.1465799808502,267.14662170410156,267.1487452983856,267.1609401702881,267.3112015724182,267.3112015724182,267.3112015724182,267.3112015724182,267.3112015724182,267.3112015724182,267.3112015724182,270.1454257965088,3,2.98232102394104,None,,,,,,,,,,,,,,,,,,29,3,2025-02-18_17h03.02.446,comp,2024.2.4,60.091692646249776,2025-02-18 17h03.15.329660 -0500,
61,61,0,filler_random,None,None,None,None,None,None,None,None,None,None,2,2.782057046890259,None,,,,,0,0,0,0,0,61,61,169,270.16098380088806,,,,,,,,,,,,,,,,,,,,,,,,,,,,,,,,,,,,,,,,,,,,,,,,,,,,,,,,,,,,,,,,,,,,,,,,,,,,,,,,,66.4306748021869,198.06543476824947,135.1080103930662,190.06114709586313,102.66492018817063,193.8015136757068,2.1,2.12,-290,-258,0,-256,288,252,270.1463007926941,270.14634108543396,270.14827966690063,270.16098380088806,270.31135654449463,270.31135654449463,270.31135654449463,270.31135654449463,270.31135654449463,270.31135654449463,270.31135654449463,272.94586086273193,2,2.782057046890259,None,,,,,,,,,,,,,,,,,,29,3,2025-02-18_17h03.02.446,comp,2024.2.4,60.091692646249776,2025-02-18 17h03.15.329660 -0500,
62,62,0,critical,dwh,35.0,3.0,upper,127.0,127.0,125.0,200.0,200.0,125.0,2,2.988088607788086,None,,,,,0,0,0,0,0,62,62,63,272.9609708786011,,,,,,,,,,,,,,,,,,,,,,,,,,,,,,,,,,,,,,,,,,,,,,,,,,,,,,,,,,,,,,,,,,,,,,,,,,,,,,,,,127.0,127.0,125.0,200.0,200.0,125.0,3.0,3.2,-260,-284,0,-6,258,260,272.94668650627136,272.94672679901123,272.948881149292,272.9609708786011,273.11108922958374,273.11108922958374,273.11108922958374,273.11108922958374,273.11108922958374,273.11108922958374,273.11108922958374,275.9622941017151,2,2.988088607788086,None,,,,,,,,,,,,,,,,,,29,3,2025-02-18_17h03.02.446,comp,2024.2.4,60.091692646249776,2025-02-18 17h03.15.329660 -0500,
63,63,0,filler_square,None,None,None,None,None,None,None,None,None,None,2,2.3390045166015625,None,,,,,0,0,0,0,0,63,63,192,275.9773576259613,,,,,,,,,,,,,,,,,,,,,,,,,,,,,,,,,,,,,,,,,,,,,,,,,,,,,,,,,,,,,,,,,,,,,,,,,,,,,,,,,145.5295174973296,171.71928688408406,175.61542519874143,175.61542519874143,116.83000233105031,93.47499841808951,4.0,4.1,-270,-254,0,10,231,-262,275.9632079601288,275.963255405426,275.9653058052063,275.9773576259613,276.1277937889099,276.1277937889099,276.1277937889099,276.1277937889099,276.1277937889099,276.1277937889099,276.1277937889099,278.32886481285095,2,2.3390045166015625,None,,,,,,,,,,,,,,,,,,29,3,2025-02-18_17h03.02.446,comp,2024.2.4,60.091692646249776,2025-02-18 17h03.15.329660 -0500,
64,64,0,critical,dhw,35.0,3.0,lower,70.0,70.0,133.0,57.0,57.0,133.0,3,3.293334484100342,None,,,,,0,0,0,0,0,64,64,50,278.3440821170807,,,,,,,,,,,,,,,,,,,,,,,,,,,,,,,,,,,,,,,,,,,,,,,,,,,,,,,,,,,,,,,,,,,,,,,,,,,,,,,,,70.0,70.0,133.0,57.0,57.0,133.0,3.0,3.1,-160,263,0,14,191,-288,278.3296639919281,278.3297040462494,278.33220314979553,278.3440821170807,278.4943583011627,278.4943583011627,278.4943583011627,278.4943583011627,278.4943583011627,278.4943583011627,278.4943583011627,281.64546370506287,3,3.293334484100342,None,,,,,,,,,,,,,,,,,,29,3,2025-02-18_17h03.02.446,comp,2024.2.4,60.091692646249776,2025-02-18 17h03.15.329660 -0500,
65,65,0,critical,hwd,20.0,4.0,lower,133.0,57.0,57.0,133.0,78.0,78.0,1,3.881993532180786,None,,,,,0,0,0,0,0,65,65,106,281.660929441452,,,,,,,,,,,,,,,,,,,,,,,,,,,,,,,,,,,,,,,,,,,,,,,,,,,,,,,,,,,,,,,,,,,,,,,,,,,,,,,,,133.0,57.0,57.0,133.0,78.0,78.0,4.0,4.2,-191,-7,0,-263,202,-6,281.6462621688843,281.64630603790283,281.6486496925354,281.660929441452,281.81079387664795,281.81079387664795,281.81079387664795,281.81079387664795,281.81079387664795,281.81079387664795,281.81079387664795,285.5455024242401,1,3.881993532180786,None,,,,,,,,,,,,,,,,,,29,3,2025-02-18_17h03.02.446,comp,2024.2.4,60.091692646249776,2025-02-18 17h03.15.329660 -0500,
66,66,0,filler_square,None,None,None,None,None,None,None,None,None,None,1,3.4444611072540283,None,,,,,0,0,0,0,0,66,66,173,285.5608334541321,,,,,,,,,,,,,,,,,,,,,,,,,,,,,,,,,,,,,,,,,,,,,,,,,,,,,,,,,,,,,,,,,,,,,,,,,,,,,,,,,74.85181487323806,74.85181487323806,64.72585628509763,60.13284104795678,70.13951282029561,62.25730938396964,1.0,1.1,-643,273,-480,288,-323,252,285.5465030670166,285.54654264450073,285.5489661693573,285.5608334541321,285.71071124076843,285.71071124076843,285.71071124076843,285.71071124076843,285.71071124076843,285.71071124076843,285.71071124076843,289.0118088722229,1,3.4444611072540283,None,,,,,,,,,,,,,,,,,,29,3,2025-02-18_17h03.02.446,comp,2024.2.4,60.091692646249776,2025-02-18 17h03.15.329660 -0500,
67,67,0,critical,whd,20.0,2.1,lower,57.0,133.0,133.0,57.0,78.0,78.0,2,6.3155176639556885,None,,,,,0,0,0,0,0,67,67,14,289.02762150764465,,,,,,,,,,,,,,,,,,,,,,,,,,,,,,,,,,,,,,,,,,,,,,,,,,,,,,,,,,,,,,,,,,,,,,,,,,,,,,,,,57.0,133.0,133.0,57.0,78.0,78.0,2.1,2.11,-191,289,0,272,164,-260,289.01260638237,289.0126461982727,289.0151219367981,289.02762150764465,289.1773781776428,289.1773781776428,289.1773781776428,289.1773781776428,289.1773781776428,289.1773781776428,289.1773781776428,295.3452088832855,2,6.3155176639556885,None,,,,,,,,,,,,,,,,,,29,3,2025-02-18_17h03.02.446,comp,2024.2.4,60.091692646249776,2025-02-18 17h03.15.329660 -0500,
68,68,0,critical,dhw,20.0,1.0,upper,141.0,141.0,200.0,125.0,125.0,200.0,3,2.8674206733703613,None,,,,,0,0,0,0,0,68,68,55,295.3608829975128,,,,,,,,,,,,,,,,,,,,,,,,,,,,,,,,,,,,,,,,,,,,,,,,,,,,,,,,,,,,,,,,,,,,,,,,,,,,,,,,,141.0,141.0,200.0,125.0,125.0,200.0,1.0,1.2,-229,-6,0,-3,258,-11,295.3460018634796,295.34604239463806,295.3481616973877,295.3608829975128,295.51131677627563,295.51131677627563,295.51131677627563,295.51131677627563,295.51131677627563,295.51131677627563,295.51131677627563,298.2452394962311,3,2.8674206733703613,None,,,,,,,,,,,,,,,,,,29,3,2025-02-18_17h03.02.446,comp,2024.2.4,60.091692646249776,2025-02-18 17h03.15.329660 -0500,
69,69,0,critical,wdh,20.0,2.1,lower,57.0,133.0,78.0,78.0,133.0,57.0,3,2.9128177165985107,None,,,,,0,0,0,0,0,69,69,10,298.26050567626953,,,,,,,,,,,,,,,,,,,,,,,,,,,,,,,,,,,,,,,,,,,,,,,,,,,,,,,,,,,,,,,,,,,,,,,,,,,,,,,,,57.0,133.0,78.0,78.0,133.0,57.0,2.1,2.11,-202,264,0,287,164,-267,298.24602937698364,298.24606680870056,298.24805331230164,298.26050567626953,298.4107155799866,298.4107155799866,298.4107155799866,298.4107155799866,298.4107155799866,298.4107155799866,298.4107155799866,301.1784756183624,3,2.9128177165985107,None,,,,,,,,,,,,,,,,,,29,3,2025-02-18_17h03.02.446,comp,2024.2.4,60.091692646249776,2025-02-18 17h03.15.329660 -0500,
70,70,0,critical,hdw,20.0,2.1,upper,200.0,125.0,141.0,141.0,125.0,200.0,1,3.586437940597534,None,,,,,0,0,0,0,0,70,70,23,301.1940004825592,,,,,,,,,,,,,,,,,,,,,,,,,,,,,,,,,,,,,,,,,,,,,,,,,,,,,,,,,,,,,,,,,,,,,,,,,,,,,,,,,200.0,125.0,141.0,141.0,125.0,200.0,2.1,2.12,-229,-265,0,-287,266,265,301.1792368888855,301.1792883872986,301.1815986633301,301.1940004825592,301.3440592288971,301.3440592288971,301.3440592288971,301.3440592288971,301.3440592288971,301.3440592288971,301.3440592288971,304.7952084541321,1,3.586437940597534,None,,,,,,,,,,,,,,,,,,29,3,2025-02-18_17h03.02.446,comp,2024.2.4,60.091692646249776,2025-02-18 17h03.15.329660 -0500,
71,71,0,filler_random,None,None,None,None,None,None,None,None,None,None,1,4.9633948802948,None,,,,,0,0,0,0,0,71,71,155,304.81044459342957,,,,,,,,,,,,,,,,,,,,,,,,,,,,,,,,,,,,,,,,,,,,,,,,,,,,,,,,,,,,,,,,,,,,,,,,,,,,,,,,,79.20802953429175,151.8773952877686,119.73503538956813,82.71003849018562,59.51068515274611,175.19695295312178,2.2,2.21,-213,-284,0,255,225,268,304.79607677459717,304.79611468315125,304.79810070991516,304.81044459342957,304.96068358421326,304.96068358421326,304.96068358421326,304.96068358421326,304.96068358421326,304.96068358421326,304.96068358421326,309.77839040756226,1,4.9633948802948,None,,,,,,,,,,,,,,,,,,29,3,2025-02-18_17h03.02.446,comp,2024.2.4,60.091692646249776,2025-02-18 17h03.15.329660 -0500,
72,72,0,filler_random,None,None,None,None,None,None,None,None,None,None,3,4.138205528259277,None,,,,,0,0,0,0,0,72,72,138,309.79392194747925,,,,,,,,,,,,,,,,,,,,,,,,,,,,,,,,,,,,,,,,,,,,,,,,,,,,,,,,,,,,,,,,,,,,,,,,,,,,,,,,,113.8652867407246,105.40056873503639,99.76296345183937,114.35010442422632,178.89929058834582,82.42301012443909,2.1,2.11,-206,273,0,290,194,-253,309.7792592048645,309.7792992591858,309.78159832954407,309.79392194747925,309.94389510154724,309.94389510154724,309.94389510154724,309.94389510154724,309.94389510154724,309.94389510154724,309.94389510154724,313.9450783729553,3,4.138205528259277,None,,,,,,,,,,,,,,,,,,29,3,2025-02-18_17h03.02.446,comp,2024.2.4,60.091692646249776,2025-02-18 17h03.15.329660 -0500,
73,73,0,critical,hdw,20.0,2.1,lower,133.0,57.0,78.0,78.0,57.0,133.0,3,4.917156934738159,None,,,,,0,0,0,0,0,73,73,22,313.9603476524353,,,,,,,,,,,,,,,,,,,,,,,,,,,,,,,,,,,,,,,,,,,,,,,,,,,,,,,,,,,,,,,,,,,,,,,,,,,,,,,,,133.0,57.0,78.0,78.0,57.0,133.0,2.1,2.12,-164,-253,0,-251,202,287,313.9458749294281,313.94591426849365,313.9484865665436,313.9603476524353,314.1104881763458,314.1104881763458,314.1104881763458,314.1104881763458,314.1104881763458,314.1104881763458,314.1104881763458,318.89495515823364,3,4.917156934738159,None,,,,,,,,,,,,,,,,,,29,3,2025-02-18_17h03.02.446,comp,2024.2.4,60.091692646249776,2025-02-18 17h03.15.329660 -0500,
74,74,0,critical,wdh,35.0,1.0,upper,125.0,200.0,127.0,127.0,200.0,125.0,3,2.8163297176361084,None,,,,,0,0,0,0,0,74,74,73,318.9103193283081,,,,,,,,,,,,,,,,,,,,,,,,,,,,,,,,,,,,,,,,,,,,,,,,,,,,,,,,,,,,,,,,,,,,,,,,,,,,,,,,,125.0,200.0,127.0,127.0,200.0,125.0,1.0,1.2,-260,-4,0,17,222,8,318.89574909210205,318.89578890800476,318.8983860015869,318.9103193283081,319.0607635974884,319.0607635974884,319.0607635974884,319.0607635974884,319.0607635974884,319.0607635974884,319.0607635974884,321.72850584983826,3,2.8163297176361084,None,,,,,,,,,,,,,,,,,,29,3,2025-02-18_17h03.02.446,comp,2024.2.4,60.091692646249776,2025-02-18 17h03.15.329660 -0500,
75,75,0,critical,dwh,20.0,2.1,upper,141.0,141.0,125.0,200.0,200.0,125.0,3,4.419999837875366,None,,,,,0,0,0,0,0,75,75,7,321.74411368370056,,,,,,,,,,,,,,,,,,,,,,,,,,,,,,,,,,,,,,,,,,,,,,,,,,,,,,,,,,,,,,,,,,,,,,,,,,,,,,,,,141.0,141.0,125.0,200.0,200.0,125.0,2.1,2.11,-266,285,0,255,258,-272,321.72929191589355,321.7293322086334,321.7314193248749,321.74411368370056,321.89397287368774,321.89397287368774,321.89397287368774,321.89397287368774,321.89397287368774,321.89397287368774,321.89397287368774,326.1782042980194,3,4.419999837875366,None,,,,,,,,,,,,,,,,,,29,3,2025-02-18_17h03.02.446,comp,2024.2.4,60.091692646249776,2025-02-18 17h03.15.329660 -0500,
76,76,0,critical,wdh,20.0,4.0,upper,125.0,200.0,141.0,141.0,200.0,125.0,3,14.267306804656982,None,,,,,0,0,0,0,0,76,76,83,326.1936037540436,,,,,,,,,,,,,,,,,,,,,,,,,,,,,,,,,,,,,,,,,,,,,,,,,,,,,,,,,,,,,,,,,,,,,,,,,,,,,,,,,125.0,200.0,141.0,141.0,200.0,125.0,4.0,4.2,-266,-5,0,-278,229,-6,326.17898750305176,326.1790268421173,326.1813054084778,326.1936037540436,326.3439359664917,326.3439359664917,326.3439359664917,326.3439359664917,326.3439359664917,326.3439359664917,326.3439359664917,340.4783899784088,3,14.267306804656982,None,,,,,,,,,,,,,,,,,,29,3,2025-02-18_17h03.02.446,comp,2024.2.4,60.091692646249776,2025-02-18 17h03.15.329660 -0500,
77,77,0,critical,dhw,20.0,2.1,upper,141.0,141.0,200.0,125.0,125.0,200.0,2,2.406373977661133,None,,,,,0,0,0,0,0,77,77,27,340.4934821128845,,,,,,,,,,,,,,,,,,,,,,,,,,,,,,,,,,,,,,,,,,,,,,,,,,,,,,,,,,,,,,,,,,,,,,,,,,,,,,,,,141.0,141.0,200.0,125.0,125.0,200.0,2.1,2.12,-229,-251,0,-253,258,288,340.47918224334717,340.47922348976135,340.4816093444824,340.4934821128845,340.6437668800354,340.6437668800354,340.6437668800354,340.6437668800354,340.6437668800354,340.6437668800354,340.6437668800354,342.91176414489746,2,2.406373977661133,None,,,,,,,,,,,,,,,,,,29,3,2025-02-18_17h03.02.446,comp,2024.2.4,60.091692646249776,2025-02-18 17h03.15.329660 -0500,
78,78,0,critical,hdw,35.0,1.0,upper,200.0,125.0,127.0,127.0,125.0,200.0,1,2.588879346847534,None,,,,,0,0,0,0,0,78,78,109,342.9268527030945,,,,,,,,,,,,,,,,,,,,,,,,,,,,,,,,,,,,,,,,,,,,,,,,,,,,,,,,,,,,,,,,,,,,,,,,,,,,,,,,,200.0,125.0,127.0,127.0,125.0,200.0,1.0,1.3,258,-263,480,-256,740,-266,342.91253662109375,342.91257524490356,342.91502380371094,342.9268527030945,343.0773298740387,343.0773298740387,343.0773298740387,343.0773298740387,343.0773298740387,343.0773298740387,343.0773298740387,345.52820897102356,1,2.588879346847534,None,,,,,,,,,,,,,,,,,,29,3,2025-02-18_17h03.02.446,comp,2024.2.4,60.091692646249776,2025-02-18 17h03.15.329660 -0500,
79,79,0,filler_square,None,None,None,None,None,None,None,None,None,None,2,6.709444522857666,None,,,,,0,0,0,0,0,79,79,175,345.5434732437134,,,,,,,,,,,,,,,,,,,,,,,,,,,,,,,,,,,,,,,,,,,,,,,,,,,,,,,,,,,,,,,,,,,,,,,,,,,,,,,,,78.51836805484034,78.51836805484034,73.58804170009346,63.452460129050166,61.806343938733455,72.30473218772278,4.0,4.2,-167,17,0,-284,164,8,345.529176235199,345.5292155742645,345.5321183204651,345.5434732437134,345.6938486099243,345.6938486099243,345.6938486099243,345.6938486099243,345.6938486099243,345.6938486099243,345.6938486099243,352.26115131378174,2,6.709444522857666,None,,,,,,,,,,,,,,,,,,29,3,2025-02-18_17h03.02.446,comp,2024.2.4,60.091692646249776,2025-02-18 17h03.15.329660 -0500,
80,80,0,critical,dwh,35.0,1.0,upper,127.0,127.0,125.0,200.0,200.0,125.0,3,2.8713719844818115,None,,,,,0,0,0,0,0,80,80,61,352.276992559433,,,,,,,,,,,,,,,,,,,,,,,,,,,,,,,,,,,,,,,,,,,,,,,,,,,,,,,,,,,,,,,,,,,,,,,,,,,,,,,,,127.0,127.0,125.0,200.0,200.0,125.0,1.0,1.3,220,-274,480,-285,738,-285,352.2619559764862,352.2619962692261,352.2652690410614,352.276992559433,352.4270062446594,352.4270062446594,352.4270062446594,352.4270062446594,352.4270062446594,352.4270062446594,352.4270062446594,355.1614742279053,3,2.8713719844818115,None,,,,,,,,,,,,,,,,,,29,3,2025-02-18_17h03.02.446,comp,2024.2.4,60.091692646249776,2025-02-18 17h03.15.329660 -0500,
81,81,0,filler_square,None,None,None,None,None,None,None,None,None,None,3,4.533584833145142,None,,,,,0,0,0,0,0,81,81,189,355.1766378879547,,,,,,,,,,,,,,,,,,,,,,,,,,,,,,,,,,,,,,,,,,,,,,,,,,,,,,,,,,,,,,,,,,,,,,,,,,,,,,,,,67.38179836214417,57.12400327706706,68.83170478442707,58.08459073232725,70.92860717420375,70.92860717420375,1.0,1.2,-154,-6,0,-4,161,-3,355.1624095439911,355.1624503135681,355.1648643016815,355.1766378879547,355.3267719745636,355.3267719745636,355.3267719745636,355.3267719745636,355.3267719745636,355.3267719745636,355.3267719745636,359.72786116600037,3,4.533584833145142,None,,,,,,,,,,,,,,,,,,29,3,2025-02-18_17h03.02.446,comp,2024.2.4,60.091692646249776,2025-02-18 17h03.15.329660 -0500,
82,82,0,filler_square,None,None,None,None,None,None,None,None,None,None,2,4.56678032875061,None,,,,,0,0,0,0,0,82,82,186,359.74334263801575,,,,,,,,,,,,,,,,,,,,,,,,,,,,,,,,,,,,,,,,,,,,,,,,,,,,,,,,,,,,,,,,,,,,,,,,,,,,,,,,,59.26419467389727,58.28442002623717,58.37868890178576,60.376978325489254,60.611493861669146,60.611493861669146,3.0,3.2,-155,-258,0,-7,156,268,359.72884607315063,359.7288875579834,359.7314646244049,359.74334263801575,359.89350628852844,359.89350628852844,359.89350628852844,359.89350628852844,359.89350628852844,359.89350628852844,359.89350628852844,364.3113670349121,2,4.56678032875061,None,,,,,,,,,,,,,,,,,,29,3,2025-02-18_17h03.02.446,comp,2024.2.4,60.091692646249776,2025-02-18 17h03.15.329660 -0500,
83,83,0,filler_square,None,None,None,None,None,None,None,None,None,None,1,1.4151337146759033,None,,,,,0,0,0,0,0,83,83,174,364.3269155025482,,,,,,,,,,,,,,,,,,,,,,,,,,,,,,,,,,,,,,,,,,,,,,,,,,,,,,,,,,,,,,,,,,,,,,,,,,,,,,,,,188.57963063135261,188.57963063135261,88.03767302534368,57.98687558942912,147.31969510610932,88.90344376842097,2.2,2.22,-219,289,0,-256,169,-282,364.3123080730438,364.3123505115509,364.3148944377899,364.3269155025482,364.47696256637573,364.47696256637573,364.47696256637573,364.47696256637573,364.47696256637573,364.47696256637573,364.47696256637573,365.7447006702423,1,1.4151337146759033,None,,,,,,,,,,,,,,,,,,29,3,2025-02-18_17h03.02.446,comp,2024.2.4,60.091692646249776,2025-02-18 17h03.15.329660 -0500,
84,84,0,critical,whd,35.0,4.0,lower,57.0,133.0,133.0,57.0,70.0,70.0,2,2.350062370300293,None,,,,,0,0,0,0,0,84,84,88,365.76013350486755,,,,,,,,,,,,,,,,,,,,,,,,,,,,,,,,,,,,,,,,,,,,,,,,,,,,,,,,,,,,,,,,,,,,,,,,,,,,,,,,,57.0,133.0,133.0,57.0,70.0,70.0,4.0,4.1,-191,-270,0,-17,160,-251,365.7455904483795,365.7456316947937,365.7482931613922,365.76013350486755,365.91030263900757,365.91030263900757,365.91030263900757,365.91030263900757,365.91030263900757,365.91030263900757,365.91030263900757,368.1114912033081,2,2.350062370300293,None,,,,,,,,,,,,,,,,,,29,3,2025-02-18_17h03.02.446,comp,2024.2.4,60.091692646249776,2025-02-18 17h03.15.329660 -0500,
85,85,0,critical,hwd,35.0,3.0,lower,133.0,57.0,57.0,133.0,70.0,70.0,2,3.6773388385772705,None,,,,,0,0,0,0,0,85,85,98,368.1273217201233,,,,,,,,,,,,,,,,,,,,,,,,,,,,,,,,,,,,,,,,,,,,,,,,,,,,,,,,,,,,,,,,,,,,,,,,,,,,,,,,,133.0,57.0,57.0,133.0,70.0,70.0,3.0,3.1,-191,270,0,6,198,-264,368.1122839450836,368.1123242378235,368.11444997787476,368.1273217201233,368.27684593200684,368.27684593200684,368.27684593200684,368.27684593200684,368.27684593200684,368.27684593200684,368.27684593200684,371.8111627101898,2,3.6773388385772705,None,,,,,,,,,,,,,,,,,,29,3,2025-02-18_17h03.02.446,comp,2024.2.4,60.091692646249776,2025-02-18 17h03.15.329660 -0500,
86,86,0,filler_random,None,None,None,None,None,None,None,None,None,None,1,2.193634033203125,None,,,,,0,0,0,0,0,86,86,137,371.82693338394165,,,,,,,,,,,,,,,,,,,,,,,,,,,,,,,,,,,,,,,,,,,,,,,,,,,,,,,,,,,,,,,,,,,,,,,,,,,,,,,,,121.16116404682572,142.3568067680489,134.35279945183999,109.03896058399515,102.96919839427994,123.13895230402045,4.0,4.2,-222,17,0,-279,212,-19,371.8120985031128,371.81213784217834,371.81471729278564,371.82693338394165,371.9767737388611,371.9767737388611,371.9767737388611,371.9767737388611,371.9767737388611,371.9767737388611,371.9767737388611,374.0278570652008,1,2.193634033203125,None,,,,,,,,,,,,,,,,,,29,3,2025-02-18_17h03.02.446,comp,2024.2.4,60.091692646249776,2025-02-18 17h03.15.329660 -0500,
87,87,0,critical,hdw,35.0,2.1,upper,200.0,125.0,127.0,127.0,125.0,200.0,3,3.9839601516723633,None,,,,,0,0,0,0,0,87,87,45,374.04366421699524,,,,,,,,,,,,,,,,,,,,,,,,,,,,,,,,,,,,,,,,,,,,,,,,,,,,,,,,,,,,,,,,,,,,,,,,,,,,,,,,,200.0,125.0,127.0,127.0,125.0,200.0,2.1,2.11,-222,264,0,273,260,-258,374.02865266799927,374.02869391441345,374.0312006473541,374.04366421699524,374.19363808631897,374.19363808631897,374.19363808631897,374.19363808631897,374.19363808631897,374.19363808631897,374.19363808631897,378.04444193840027,3,3.9839601516723633,None,,,,,,,,,,,,,,,,,,29,3,2025-02-18_17h03.02.446,comp,2024.2.4,60.091692646249776,2025-02-18 17h03.15.329660 -0500,
88,88,0,critical,hwd,35.0,2.1,lower,133.0,57.0,57.0,133.0,70.0,70.0,1,1.8256821632385254,None,,,,,0,0,0,0,0,88,88,40,378.0597610473633,,,,,,,,,,,,,,,,,,,,,,,,,,,,,,,,,,,,,,,,,,,,,,,,,,,,,,,,,,,,,,,,,,,,,,,,,,,,,,,,,133.0,57.0,57.0,133.0,70.0,70.0,2.1,2.11,-191,281,0,266,198,-265,378.0452606678009,378.0453007221222,378.04769253730774,378.0597610473633,378.2099304199219,378.2099304199219,378.2099304199219,378.2099304199219,378.2099304199219,378.2099304199219,378.2099304199219,379.89437913894653,1,1.8256821632385254,None,,,,,,,,,,,,,,,,,,29,3,2025-02-18_17h03.02.446,comp,2024.2.4,60.091692646249776,2025-02-18 17h03.15.329660 -0500,
89,89,0,critical,wdh,20.0,2.1,upper,125.0,200.0,141.0,141.0,200.0,125.0,1,2.7340457439422607,None,,,,,0,0,0,0,0,89,89,35,379.9099428653717,,,,,,,,,,,,,,,,,,,,,,,,,,,,,,,,,,,,,,,,,,,,,,,,,,,,,,,,,,,,,,,,,,,,,,,,,,,,,,,,,125.0,200.0,141.0,141.0,200.0,125.0,2.1,2.12,-266,-250,0,-268,229,252,379.89515137672424,379.89519214630127,379.8972063064575,379.9099428653717,380.06028389930725,380.06028389930725,380.06028389930725,380.06028389930725,380.06028389930725,380.06028389930725,380.06028389930725,382.6612157821655,1,2.7340457439422607,None,,,,,,,,,,,,,,,,,,29,3,2025-02-18_17h03.02.446,comp,2024.2.4,60.091692646249776,2025-02-18 17h03.15.329660 -0500,
90,90,0,critical,hwd,35.0,1.0,upper,200.0,125.0,125.0,200.0,127.0,127.0,2,2.3601510524749756,None,,,,,0,0,0,0,0,90,90,97,382.6765069961548,,,,,,,,,,,,,,,,,,,,,,,,,,,,,,,,,,,,,,,,,,,,,,,,,,,,,,,,,,,,,,,,,,,,,,,,,,,,,,,,,200.0,125.0,125.0,200.0,127.0,127.0,1.0,1.3,222,-266,480,-264,740,-258,382.66202211380005,382.6620616912842,382.6641354560852,382.6765069961548,382.826824426651,382.826824426651,382.826824426651,382.826824426651,382.826824426651,382.826824426651,382.826824426651,385.0445547103882,2,2.3601510524749756,None,,,,,,,,,,,,,,,,,,29,3,2025-02-18_17h03.02.446,comp,2024.2.4,60.091692646249776,2025-02-18 17h03.15.329660 -0500,
91,91,0,critical,dhw,35.0,2.1,lower,70.0,70.0,133.0,57.0,57.0,133.0,2,2.2088189125061035,None,,,,,0,0,0,0,0,91,91,24,385.05987787246704,,,,,,,,,,,,,,,,,,,,,,,,,,,,,,,,,,,,,,,,,,,,,,,,,,,,,,,,,,,,,,,,,,,,,,,,,,,,,,,,,70.0,70.0,133.0,57.0,57.0,133.0,2.1,2.11,-160,260,0,266,191,-265,385.04532766342163,385.04536652565,385.04766964912415,385.05987787246704,385.21033239364624,385.21033239364624,385.21033239364624,385.21033239364624,385.21033239364624,385.21033239364624,385.21033239364624,387.27775025367737,2,2.2088189125061035,None,,,,,,,,,,,,,,,,,,29,3,2025-02-18_17h03.02.446,comp,2024.2.4,60.091692646249776,2025-02-18 17h03.15.329660 -0500,
92,92,0,filler_random,None,None,None,None,None,None,None,None,None,None,1,1.791837453842163,None,,,,,0,0,0,0,0,92,92,162,387.29326462745667,,,,,,,,,,,,,,,,,,,,,,,,,,,,,,,,,,,,,,,,,,,,,,,,,,,,,,,,,,,,,,,,,,,,,,,,,,,,,,,,,143.3343868748819,161.08521192755694,120.05608789861535,118.81879611514461,94.91564016185394,90.05827861523198,1.0,1.3,244,-255,480,-258,680,-250,387.2786750793457,387.27871537208557,387.28122091293335,387.29326462745667,387.44338488578796,387.44338488578796,387.44338488578796,387.44338488578796,387.44338488578796,387.44338488578796,387.44338488578796,389.094411611557,1,1.791837453842163,None,,,,,,,,,,,,,,,,,,29,3,2025-02-18_17h03.02.446,comp,2024.2.4,60.091692646249776,2025-02-18 17h03.15.329660 -0500,
93,93,0,critical,hwd,20.0,2.1,upper,200.0,125.0,125.0,200.0,141.0,141.0,2,3.301309823989868,None,,,,,0,0,0,0,0,93,93,43,389.11019253730774,,,,,,,,,,,,,,,,,,,,,,,,,,,,,,,,,,,,,,,,,,,,,,,,,,,,,,,,,,,,,,,,,,,,,,,,,,,,,,,,,200.0,125.0,125.0,200.0,141.0,141.0,2.1,2.11,-258,289,0,267,266,-282,389.09515023231506,389.0951874256134,389.0972375869751,389.11019253730774,389.2600450515747,389.2600450515747,389.2600450515747,389.2600450515747,389.2600450515747,389.2600450515747,389.2600450515747,392.42777276039124,2,3.301309823989868,None,,,,,,,,,,,,,,,,,,29,3,2025-02-18_17h03.02.446,comp,2024.2.4,60.091692646249776,2025-02-18 17h03.15.329660 -0500,
94,94,0,catch,None,None,None,None,None,None,None,None,None,None,1,14.72035837173462,None,,,,,0,0,0,0,0,94,94,123,392.44304275512695,,,,,,,,,,,,,,,,,,,,,,,,,,,,,,,,,,,,,,,,,,,,,,,,,,,,,,,,,,,,,,,,,,,,,,,,,,,,,,,,,178,147,114,76,70,120,4.0,4.2,-208,-15,0,-289,194,-10,392.4288001060486,392.4288396835327,392.43135380744934,392.44304275512695,392.59319734573364,392.59319734573364,392.59319734573364,392.59319734573364,392.59319734573364,392.59319734573364,392.59319734573364,407.1776170730591,1,14.72035837173462,None,,,,,,,,,,,,,,,,,,29,3,2025-02-18_17h03.02.446,comp,2024.2.4,60.091692646249776,2025-02-18 17h03.15.329660 -0500,
95,95,0,filler_square,None,None,None,None,None,None,None,None,None,None,3,3.364434242248535,None,,,,,0,0,0,0,0,95,95,208,407.1928057670593,,,,,,,,,,,,,,,,,,,,,,,,,,,,,,,,,,,,,,,,,,,,,,,,,,,,,,,,,,,,,,,,,,,,,,,,,,,,,,,,,69.33298717094567,58.565356098304456,102.38847113781986,102.13038115715374,114.53611082901267,114.53611082901267,2.2,2.22,-176,261,0,-273,204,-271,407.1785638332367,407.17860221862793,407.1810405254364,407.1928057670593,407.34309363365173,407.34309363365173,407.34309363365173,407.34309363365173,407.34309363365173,407.34309363365173,407.34309363365173,410.5609064102173,3,3.364434242248535,None,,,,,,,,,,,,,,,,,,29,3,2025-02-18_17h03.02.446,comp,2024.2.4,60.091692646249776,2025-02-18 17h03.15.329660 -0500,
96,96,0,critical,dwh,35.0,2.1,lower,70.0,70.0,57.0,133.0,133.0,57.0,3,2.786937713623047,None,,,,,0,0,0,0,0,96,96,4,410.57640647888184,,,,,,,,,,,,,,,,,,,,,,,,,,,,,,,,,,,,,,,,,,,,,,,,,,,,,,,,,,,,,,,,,,,,,,,,,,,,,,,,,70.0,70.0,57.0,133.0,133.0,57.0,2.1,2.11,-198,288,0,252,191,-265,410.5617232322693,410.56176471710205,410.5642809867859,410.57640647888184,410.72621631622314,410.72621631622314,410.72621631622314,410.72621631622314,410.72621631622314,410.72621631622314,410.72621631622314,413.37757873535156,3,2.786937713623047,None,,,,,,,,,,,,,,,,,,29,3,2025-02-18_17h03.02.446,comp,2024.2.4,60.091692646249776,2025-02-18 17h03.15.329660 -0500,
97,97,0,filler_random,None,None,None,None,None,None,None,None,None,None,2,1.5490150451660156,None,,,,,0,0,0,0,0,97,97,160,413.39282059669495,,,,,,,,,,,,,,,,,,,,,,,,,,,,,,,,,,,,,,,,,,,,,,,,,,,,,,,,,,,,,,,,,,,,,,,,,,,,,,,,,143.2400224967382,122.25174239607789,165.00797230150113,188.42477389408128,92.72032964467995,162.96085676168454,2.1,2.11,-251,285,0,274,272,-258,413.3784987926483,413.37853932380676,413.3809859752655,413.39282059669495,413.5431590080261,413.5431590080261,413.5431590080261,413.5431590080261,413.5431590080261,413.5431590080261,413.5431590080261,414.944375038147,2,1.5490150451660156,None,,,,,,,,,,,,,,,,,,29,3,2025-02-18_17h03.02.446,comp,2024.2.4,60.091692646249776,2025-02-18 17h03.15.329660 -0500,
98,98,0,critical,hdw,35.0,2.1,lower,133.0,57.0,70.0,70.0,57.0,133.0,3,2.7713096141815186,None,,,,,0,0,0,0,0,98,98,20,414.9598731994629,,,,,,,,,,,,,,,,,,,,,,,,,,,,,,,,,,,,,,,,,,,,,,,,,,,,,,,,,,,,,,,,,,,,,,,,,,,,,,,,,133.0,57.0,70.0,70.0,57.0,133.0,2.1,2.12,-160,-264,0,-250,198,261,414.9452726840973,414.9453139305115,414.94784569740295,414.9598731994629,415.11000657081604,415.11000657081604,415.11000657081604,415.11000657081604,415.11000657081604,415.11000657081604,415.11000657081604,417.7439866065979,3,2.7713096141815186,None,,,,,,,,,,,,,,,,,,29,3,2025-02-18_17h03.02.446,comp,2024.2.4,60.091692646249776,2025-02-18 17h03.15.329660 -0500,
99,99,0,filler_random,None,None,None,None,None,None,None,None,None,None,3,1.4607563018798828,None,,,,,0,0,0,0,0,99,99,153,417.7594196796417,,,,,,,,,,,,,,,,,,,,,,,,,,,,,,,,,,,,,,,,,,,,,,,,,,,,,,,,,,,,,,,,,,,,,,,,,,,,,,,,,153.78413631955604,96.99988950817912,151.55489301764288,179.4804115018583,155.0140173724214,169.12509759465536,2.1,2.12,-234,-287,0,-264,270,278,417.74489665031433,417.7449357509613,417.74753069877625,417.7594196796417,417.9101688861847,417.9101688861847,417.9101688861847,417.9101688861847,417.9101688861847,417.9101688861847,417.9101688861847,419.2275719642639,3,1.4607563018798828,None,,,,,,,,,,,,,,,,,,29,3,2025-02-18_17h03.02.446,comp,2024.2.4,60.091692646249776,2025-02-18 17h03.15.329660 -0500,
100,100,0,filler_square,None,None,None,None,None,None,None,None,None,None,3,1.409393548965454,None,,,,,0,0,0,0,0,100,100,182,419.24301290512085,,,,,,,,,,,,,,,,,,,,,,,,,,,,,,,,,,,,,,,,,,,,,,,,,,,,,,,,,,,,,,,,,,,,,,,,,,,,,,,,,88.39369745901008,84.4151385389461,80.06200444808064,82.30992649892352,121.55669897316152,121.55669897316152,1.0,1.1,-659,253,-480,257,-282,283,419.22856163978577,419.2286043167114,419.2310347557068,419.24301290512085,419.392906665802,419.392906665802,419.392906665802,419.392906665802,419.392906665802,419.392906665802,419.392906665802,420.66077709198,3,1.409393548965454,None,,,,,,,,,,,,,,,,,,29,3,2025-02-18_17h03.02.446,comp,2024.2.4,60.091692646249776,2025-02-18 17h03.15.329660 -0500,
101,101,0,critical,dhw,35.0,2.1,upper,127.0,127.0,200.0,125.0,125.0,200.0,2,2.4081993103027344,None,,,,,0,0,0,0,0,101,101,1,420.6763632297516,,,,,,,,,,,,,,,,,,,,,,,,,,,,,,,,,,,,,,,,,,,,,,,,,,,,,,,,,,,,,,,,,,,,,,,,,,,,,,,,,127.0,127.0,200.0,125.0,125.0,200.0,2.1,2.11,-222,263,0,281,258,-272,420.661580324173,420.6616208553314,420.6640410423279,420.6763632297516,420.8264219760895,420.8264219760895,420.8264219760895,420.8264219760895,420.8264219760895,420.8264219760895,420.8264219760895,423.0943205356598,2,2.4081993103027344,None,,,,,,,,,,,,,,,,,,29,3,2025-02-18_17h03.02.446,comp,2024.2.4,60.091692646249776,2025-02-18 17h03.15.329660 -0500,
102,102,0,filler_square,None,None,None,None,None,None,None,None,None,None,2,3.2628164291381836,None,,,,,0,0,0,0,0,102,102,177,423.1097512245178,,,,,,,,,,,,,,,,,,,,,,,,,,,,,,,,,,,,,,,,,,,,,,,,,,,,,,,,,,,,,,,,,,,,,,,,,,,,,,,,,58.4412482510211,58.32004329242934,58.97663205883228,59.06954829001382,61.638331402250145,61.638331402250145,4.0,4.1,-155,-280,0,-13,156,-278,423.09520959854126,423.0952615737915,423.09730291366577,423.1097512245178,423.25954031944275,423.25954031944275,423.25954031944275,423.25954031944275,423.25954031944275,423.25954031944275,423.25954031944275,426.37756395339966,2,3.2628164291381836,None,,,,,,,,,,,,,,,,,,29,3,2025-02-18_17h03.02.446,comp,2024.2.4,60.091692646249776,2025-02-18 17h03.15.329660 -0500,
103,103,0,critical,hwd,35.0,3.0,upper,200.0,125.0,125.0,200.0,127.0,127.0,2,1.9489147663116455,None,,,,,0,0,0,0,0,103,103,99,426.3930206298828,,,,,,,,,,,,,,,,,,,,,,,,,,,,,,,,,,,,,,,,,,,,,,,,,,,,,,,,,,,,,,,,,,,,,,,,,,,,,,,,,200.0,125.0,125.0,200.0,127.0,127.0,3.0,3.2,-258,-264,0,2,260,286,426.37835717201233,426.3783977031708,426.3805181980133,426.3930206298828,426.5430836677551,426.5430836677551,426.5430836677551,426.5430836677551,426.5430836677551,426.5430836677551,426.5430836677551,428.34442472457886,2,1.9489147663116455,None,,,,,,,,,,,,,,,,,,29,3,2025-02-18_17h03.02.446,comp,2024.2.4,60.091692646249776,2025-02-18 17h03.15.329660 -0500,
104,104,0,catch,None,None,None,None,None,None,None,None,None,None,3,1.9713637828826904,None,,,,,0,0,0,0,0,104,104,121,428.3596000671387,,,,,,,,,,,,,,,,,,,,,,,,,,,,,,,,,,,,,,,,,,,,,,,,,,,,,,,,,,,,,,,,,,,,,,,,,,,,,,,,,109,81,112,78,173,152,2.2,2.22,-176,271,0,-259,211,-271,428.34568905830383,428.3457293510437,428.3481192588806,428.3596000671387,428.5099003314972,428.5099003314972,428.5099003314972,428.5099003314972,428.5099003314972,428.5099003314972,428.5099003314972,430.3439099788666,3,1.9713637828826904,None,,,,,,,,,,,,,,,,,,29,3,2025-02-18_17h03.02.446,comp,2024.2.4,60.091692646249776,2025-02-18 17h03.15.329660 -0500,
105,105,0,filler_square,None,None,None,None,None,None,None,None,None,None,3,1.5883393287658691,None,,,,,0,0,0,0,0,105,105,207,430.3593256473541,,,,,,,,,,,,,,,,,,,,,,,,,,,,,,,,,,,,,,,,,,,,,,,,,,,,,,,,,,,,,,,,,,,,,,,,,,,,,,,,,75.93224243851692,89.43872937034376,63.15304008599972,120.06670943972864,128.4708663559873,128.4708663559873,3.0,3.1,-201,265,0,0,220,-273,430.34487414360046,430.3449125289917,430.3474814891815,430.3593256473541,430.5094983577728,430.5094983577728,430.5094983577728,430.5094983577728,430.5094983577728,430.5094983577728,430.5094983577728,431.96054434776306,3,1.5883393287658691,None,,,,,,,,,,,,,,,,,,29,3,2025-02-18_17h03.02.446,comp,2024.2.4,60.091692646249776,2025-02-18 17h03.15.329660 -0500,
106,106,0,critical,hwd,20.0,4.0,upper,200.0,125.0,125.0,200.0,141.0,141.0,1,2.019228219985962,None,,,,,0,0,0,0,0,106,106,107,431.97592067718506,,,,,,,,,,,,,,,,,,,,,,,,,,,,,,,,,,,,,,,,,,,,,,,,,,,,,,,,,,,,,,,,,,,,,,,,,,,,,,,,,200.0,125.0,125.0,200.0,141.0,141.0,4.0,4.1,-258,-276,0,15,266,-282,431.9613268375397,431.96136689186096,431.9637475013733,431.97592067718506,432.1264407634735,432.1264407634735,432.1264407634735,432.1264407634735,432.1264407634735,432.1264407634735,432.1264407634735,434.0107753276825,1,2.019228219985962,None,,,,,,,,,,,,,,,,,,29,3,2025-02-18_17h03.02.446,comp,2024.2.4,60.091692646249776,2025-02-18 17h03.15.329660 -0500,
107,107,0,filler_random,None,None,None,None,None,None,None,None,None,None,3,1.5851380825042725,None,,,,,0,0,0,0,0,107,107,154,434.02595353126526,,,,,,,,,,,,,,,,,,,,,,,,,,,,,,,,,,,,,,,,,,,,,,,,,,,,,,,,,,,,,,,,,,,,,,,,,,,,,,,,,155.93554755284106,96.16327677613708,149.8449280222598,72.31216626016128,192.89061962078884,130.5964981884395,1.0,1.3,300,-254,480,-282,677,-258,434.0116665363312,434.0117073059082,434.01422119140625,434.02595353126526,434.176326751709,434.176326751709,434.176326751709,434.176326751709,434.176326751709,434.176326751709,434.176326751709,435.6273663043976,3,1.5851380825042725,None,,,,,,,,,,,,,,,,,,29,3,2025-02-18_17h03.02.446,comp,2024.2.4,60.091692646249776,2025-02-18 17h03.15.329660 -0500,
108,108,0,critical,hdw,20.0,4.0,lower,133.0,57.0,78.0,78.0,57.0,133.0,3,3.4722981452941895,None,,,,,0,0,0,0,0,108,108,118,435.6426498889923,,,,,,,,,,,,,,,,,,,,,,,,,,,,,,,,,,,,,,,,,,,,,,,,,,,,,,,,,,,,,,,,,,,,,,,,,,,,,,,,,133.0,57.0,78.0,78.0,57.0,133.0,4.0,4.1,-164,-278,0,-17,202,-254,435.6281383037567,435.62817907333374,435.6304757595062,435.6426498889923,435.7928788661957,435.7928788661957,435.7928788661957,435.7928788661957,435.7928788661957,435.7928788661957,435.7928788661957,439.1274242401123,3,3.4722981452941895,None,,,,,,,,,,,,,,,,,,29,3,2025-02-18_17h03.02.446,comp,2024.2.4,60.091692646249776,2025-02-18 17h03.15.329660 -0500,
109,109,0,critical,dhw,35.0,4.0,lower,70.0,70.0,133.0,57.0,57.0,133.0,3,2.0455403327941895,None,,,,,0,0,0,0,0,109,109,52,439.14258074760437,,,,,,,,,,,,,,,,,,,,,,,,,,,,,,,,,,,,,,,,,,,,,,,,,,,,,,,,,,,,,,,,,,,,,,,,,,,,,,,,,70.0,70.0,133.0,57.0,57.0,133.0,4.0,4.1,-160,-284,0,-1,191,-278,439.12820839881897,439.1282596588135,439.1307168006897,439.14258074760437,439.2927579879761,439.2927579879761,439.2927579879761,439.2927579879761,439.2927579879761,439.2927579879761,439.2927579879761,441.19392132759094,3,2.0455403327941895,None,,,,,,,,,,,,,,,,,,29,3,2025-02-18_17h03.02.446,comp,2024.2.4,60.091692646249776,2025-02-18 17h03.15.329660 -0500,
110,110,0,critical,hwd,20.0,3.0,lower,133.0,57.0,57.0,133.0,78.0,78.0,2,4.4503562450408936,None,,,,,0,0,0,0,0,110,110,104,441.2093369960785,,,,,,,,,,,,,,,,,,,,,,,,,,,,,,,,,,,,,,,,,,,,,,,,,,,,,,,,,,,,,,,,,,,,,,,,,,,,,,,,,133.0,57.0,57.0,133.0,78.0,78.0,3.0,3.1,-191,263,0,20,202,-271,441.19469571113586,441.19473671913147,441.19723439216614,441.2093369960785,441.359415769577,441.359415769577,441.359415769577,441.359415769577,441.359415769577,441.359415769577,441.359415769577,445.6771800518036,2,4.4503562450408936,None,,,,,,,,,,,,,,,,,,29,3,2025-02-18_17h03.02.446,comp,2024.2.4,60.091692646249776,2025-02-18 17h03.15.329660 -0500,
111,111,0,filler_square,None,None,None,None,None,None,None,None,None,None,1,1.3435897827148438,None,,,,,0,0,0,0,0,111,111,194,445.6924636363983,,,,,,,,,,,,,,,,,,,,,,,,,,,,,,,,,,,,,,,,,,,,,,,,,,,,,,,,,,,,,,,,,,,,,,,,,,,,,,,,,195.18897802423055,195.18897802423055,82.31374529679937,187.46302353665544,120.16369582011097,73.36221500391835,4.0,4.1,-287,-276,0,2,226,-256,445.6781668663025,445.67820930480957,445.680668592453,445.6924636363983,445.84327697753906,445.84327697753906,445.84327697753906,445.84327697753906,445.84327697753906,445.84327697753906,445.84327697753906,447.0440557003021,1,1.3435897827148438,None,,,,,,,,,,,,,,,,,,29,3,2025-02-18_17h03.02.446,comp,2024.2.4,60.091692646249776,2025-02-18 17h03.15.329660 -0500,
112,112,0,critical,hwd,20.0,3.0,upper,200.0,125.0,125.0,200.0,141.0,141.0,2,4.639557838439941,None,,,,,0,0,0,0,0,112,112,105,447.0593042373657,,,,,,,,,,,,,,,,,,,,,,,,,,,,,,,,,,,,,,,,,,,,,,,,,,,,,,,,,,,,,,,,,,,,,,,,,,,,,,,,,200.0,125.0,125.0,200.0,141.0,141.0,3.0,3.1,-258,263,0,9,266,-266,447.0448489189148,447.04488801956177,447.04749059677124,447.0593042373657,447.20944833755493,447.20944833755493,447.20944833755493,447.20944833755493,447.20944833755493,447.20944833755493,447.20944833755493,451.71052289009094,2,4.639557838439941,None,,,,,,,,,,,,,,,,,,29,3,2025-02-18_17h03.02.446,comp,2024.2.4,60.091692646249776,2025-02-18 17h03.15.329660 -0500,
113,113,0,catch,None,None,None,None,None,None,None,None,None,None,1,2.709716796875,None,,,,,0,0,0,0,0,113,113,120,451.72610902786255,,,,,,,,,,,,,,,,,,,,,,,,,,,,,,,,,,,,,,,,,,,,,,,,,,,,,,,,,,,,,,,,,,,,,,,,,,,,,,,,,191,134,78,112,101,89,3.0,3.2,-219,-250,0,-10,196,259,451.71157455444336,451.71161556243896,451.71411514282227,451.72610902786255,451.8763475418091,451.8763475418091,451.8763475418091,451.8763475418091,451.8763475418091,451.8763475418091,451.8763475418091,454.44387125968933,1,2.709716796875,None,,,,,,,,,,,,,,,,,,29,3,2025-02-18_17h03.02.446,comp,2024.2.4,60.091692646249776,2025-02-18 17h03.15.329660 -0500,
114,114,0,critical,wdh,20.0,1.0,upper,125.0,200.0,141.0,141.0,200.0,125.0,3,2.655421495437622,None,,,,,0,0,0,0,0,114,114,79,454.45935702323914,,,,,,,,,,,,,,,,,,,,,,,,,,,,,,,,,,,,,,,,,,,,,,,,,,,,,,,,,,,,,,,,,,,,,,,,,,,,,,,,,125.0,200.0,141.0,141.0,200.0,125.0,1.0,1.3,214,-268,480,-262,709,-254,454.44468927383423,454.4447286128998,454.4472634792328,454.45935702323914,454.60956859588623,454.60956859588623,454.60956859588623,454.60956859588623,454.60956859588623,454.60956859588623,454.60956859588623,457.1273744106293,3,2.655421495437622,None,,,,,,,,,,,,,,,,,,29,3,2025-02-18_17h03.02.446,comp,2024.2.4,60.091692646249776,2025-02-18 17h03.15.329660 -0500,
115,115,0,critical,dhw,20.0,2.1,lower,78.0,78.0,133.0,57.0,57.0,133.0,2,6.636685371398926,None,,,,,0,0,0,0,0,115,115,26,457.14239287376404,,,,,,,,,,,,,,,,,,,,,,,,,,,,,,,,,,,,,,,,,,,,,,,,,,,,,,,,,,,,,,,,,,,,,,,,,,,,,,,,,78.0,78.0,133.0,57.0,57.0,133.0,2.1,2.12,-164,-256,0,-282,191,270,457.12817001342773,457.1282105445862,457.1303963661194,457.14239287376404,457.2926461696625,457.2926461696625,457.2926461696625,457.2926461696625,457.2926461696625,457.2926461696625,457.2926461696625,463.79379987716675,2,6.636685371398926,None,,,,,,,,,,,,,,,,,,29,3,2025-02-18_17h03.02.446,comp,2024.2.4,60.091692646249776,2025-02-18 17h03.15.329660 -0500,
116,116,0,critical,dwh,35.0,2.1,lower,70.0,70.0,57.0,133.0,133.0,57.0,3,4.153900623321533,None,,,,,0,0,0,0,0,116,116,28,463.80905747413635,,,,,,,,,,,,,,,,,,,,,,,,,,,,,,,,,,,,,,,,,,,,,,,,,,,,,,,,,,,,,,,,,,,,,,,,,,,,,,,,,70.0,70.0,57.0,133.0,133.0,57.0,2.1,2.12,-198,-268,0,-284,191,276,463.7945830821991,463.7946238517761,463.7971086502075,463.80905747413635,463.9591295719147,463.9591295719147,463.9591295719147,463.9591295719147,463.9591295719147,463.9591295719147,463.9591295719147,467.9769368171692,3,4.153900623321533,None,,,,,,,,,,,,,,,,,,29,3,2025-02-18_17h03.02.446,comp,2024.2.4,60.091692646249776,2025-02-18 17h03.15.329660 -0500,
117,117,0,critical,dhw,35.0,4.0,upper,127.0,127.0,200.0,125.0,125.0,200.0,2,6.7383081912994385,None,,,,,0,0,0,0,0,117,117,53,467.9923372268677,,,,,,,,,,,,,,,,,,,,,,,,,,,,,,,,,,,,,,,,,,,,,,,,,,,,,,,,,,,,,,,,,,,,,,,,,,,,,,,,,127.0,127.0,200.0,125.0,125.0,200.0,4.0,4.1,-222,-270,0,-4,258,-255,467.97776317596436,467.9778034687042,467.98034381866455,467.9923372268677,468.14318919181824,468.14318919181824,468.14318919181824,468.14318919181824,468.14318919181824,468.14318919181824,468.14318919181824,474.7437469959259,2,6.7383081912994385,None,,,,,,,,,,,,,,,,,,29,3,2025-02-18_17h03.02.446,comp,2024.2.4,60.091692646249776,2025-02-18 17h03.15.329660 -0500,
118,118,0,critical,whd,20.0,4.0,upper,125.0,200.0,200.0,125.0,141.0,141.0,1,2.5006966590881348,None,,,,,0,0,0,0,0,118,118,95,474.75891375541687,,,,,,,,,,,,,,,,,,,,,,,,,,,,,,,,,,,,,,,,,,,,,,,,,,,,,,,,,,,,,,,,,,,,,,,,,,,,,,,,,125.0,200.0,200.0,125.0,141.0,141.0,4.0,4.2,-258,-5,0,-267,229,8,474.7445297241211,474.7445683479309,474.7470157146454,474.75891375541687,474.9092915058136,474.9092915058136,474.9092915058136,474.9092915058136,474.9092915058136,474.9092915058136,474.9092915058136,477.2769753932953,1,2.5006966590881348,None,,,,,,,,,,,,,,,,,,29,3,2025-02-18_17h03.02.446,comp,2024.2.4,60.091692646249776,2025-02-18 17h03.15.329660 -0500,
119,119,0,critical,whd,20.0,3.0,lower,57.0,133.0,133.0,57.0,78.0,78.0,2,2.8003780841827393,None,,,,,0,0,0,0,0,119,119,92,477.2922670841217,,,,,,,,,,,,,,,,,,,,,,,,,,,,,,,,,,,,,,,,,,,,,,,,,,,,,,,,,,,,,,,,,,,,,,,,,,,,,,,,,57.0,133.0,133.0,57.0,78.0,78.0,3.0,3.1,-191,289,0,17,164,-270,477.2777695655823,477.277809381485,477.2803330421448,477.2922670841217,477.4426462650299,477.4426462650299,477.4426462650299,477.4426462650299,477.4426462650299,477.4426462650299,477.4426462650299,480.1101677417755,2,2.8003780841827393,None,,,,,,,,,,,,,,,,,,29,3,2025-02-18_17h03.02.446,comp,2024.2.4,60.091692646249776,2025-02-18 17h03.15.329660 -0500,
120,120,0,critical,whd,20.0,2.1,lower,57.0,133.0,133.0,57.0,78.0,78.0,3,14.7421555519104,None,,,,,0,0,0,0,0,120,120,38,480.12565183639526,,,,,,,,,,,,,,,,,,,,,,,,,,,,,,,,,,,,,,,,,,,,,,,,,,,,,,,,,,,,,,,,,,,,,,,,,,,,,,,,,57.0,133.0,133.0,57.0,78.0,78.0,2.1,2.11,-191,252,0,285,164,-268,480.11096835136414,480.11100816726685,480.11367082595825,480.12565183639526,480.2759108543396,480.2759108543396,480.2759108543396,480.2759108543396,480.2759108543396,480.2759108543396,480.2759108543396,494.8768382072449,3,14.7421555519104,None,,,,,,,,,,,,,,,,,,29,3,2025-02-18_17h03.02.446,comp,2024.2.4,60.091692646249776,2025-02-18 17h03.15.329660 -0500,
121,121,0,filler_square,None,None,None,None,None,None,None,None,None,None,3,1.5835859775543213,None,,,,,0,0,0,0,0,121,121,199,494.89236521720886,,,,,,,,,,,,,,,,,,,,,,,,,,,,,,,,,,,,,,,,,,,,,,,,,,,,,,,,,,,,,,,,,,,,,,,,,,,,,,,,,59.91085909781464,140.57459347219168,144.22902703800895,70.48060292000031,178.98350315256855,178.98350315256855,2.1,2.11,-202,260,0,262,221,-270,494.87781977653503,494.8778610229492,494.88037729263306,494.89236521720886,495.04234886169434,495.04234886169434,495.04234886169434,495.04234886169434,495.04234886169434,495.04234886169434,495.04234886169434,496.4771740436554,3,1.5835859775543213,None,,,,,,,,,,,,,,,,,,29,3,2025-02-18_17h03.02.446,comp,2024.2.4,60.091692646249776,2025-02-18 17h03.15.329660 -0500,
122,122,0,catch,None,None,None,None,None,None,None,None,None,None,3,1.975210428237915,None,,,,,0,0,0,0,0,122,122,125,496.4924430847168,,,,,,,,,,,,,,,,,,,,,,,,,,,,,,,,,,,,,,,,,,,,,,,,,,,,,,,,,,,,,,,,,,,,,,,,,,,,,,,,,115,75,101,89,195,130,2.1,2.12,-178,-269,0,-264,206,260,496.4782328605652,496.4782907962799,496.4804902076721,496.4924430847168,496.6423490047455,496.6423490047455,496.6423490047455,496.6423490047455,496.6423490047455,496.6423490047455,496.6423490047455,498.47678422927856,3,1.975210428237915,None,,,,,,,,,,,,,,,,,,29,3,2025-02-18_17h03.02.446,comp,2024.2.4,60.091692646249776,2025-02-18 17h03.15.329660 -0500,
123,123,0,critical,hwd,35.0,1.0,lower,133.0,57.0,57.0,133.0,70.0,70.0,1,1.4327185153961182,None,,,,,0,0,0,0,0,123,123,96,498.49229764938354,,,,,,,,,,,,,,,,,,,,,,,,,,,,,,,,,,,,,,,,,,,,,,,,,,,,,,,,,,,,,,,,,,,,,,,,,,,,,,,,,133.0,57.0,57.0,133.0,70.0,70.0,1.0,1.1,-671,276,-480,271,-282,273,498.4775927066803,498.47763299942017,498.48012495040894,498.49229764938354,498.64230275154114,498.64230275154114,498.64230275154114,498.64230275154114,498.64230275154114,498.64230275154114,498.64230275154114,499.9266519546509,1,1.4327185153961182,None,,,,,,,,,,,,,,,,,,29,3,2025-02-18_17h03.02.446,comp,2024.2.4,60.091692646249776,2025-02-18 17h03.15.329660 -0500,
124,124,0,filler_square,None,None,None,None,None,None,None,None,None,None,2,3.4139764308929443,None,,,,,0,0,0,0,0,124,124,172,499.9423096179962,,,,,,,,,,,,,,,,,,,,,,,,,,,,,,,,,,,,,,,,,,,,,,,,,,,,,,,,,,,,,,,,,,,,,,,,,,,,,,,,,137.9498458859046,157.84412260581905,163.79689990360225,163.79689990360225,86.64582379651107,78.86351287421354,4.0,4.2,-257,-17,0,-280,217,-15,499.92759466171265,499.9276354312897,499.9300615787506,499.9423096179962,500.0923092365265,500.0923092365265,500.0923092365265,500.0923092365265,500.0923092365265,500.0923092365265,500.0923092365265,503.3602192401886,2,3.4139764308929443,None,,,,,,,,,,,,,,,,,,29,3,2025-02-18_17h03.02.446,comp,2024.2.4,60.091692646249776,2025-02-18 17h03.15.329660 -0500,
125,125,0,critical,dwh,35.0,3.0,lower,70.0,70.0,57.0,133.0,133.0,57.0,3,3.1495132446289062,None,,,,,0,0,0,0,0,125,125,62,503.3758361339569,,,,,,,,,,,,,,,,,,,,,,,,,,,,,,,,,,,,,,,,,,,,,,,,,,,,,,,,,,,,,,,,,,,,,,,,,,,,,,,,,70.0,70.0,57.0,133.0,133.0,57.0,3.0,3.2,-198,-265,0,-14,191,256,503.36102962493896,503.36106848716736,503.36337423324585,503.3758361339569,503.52550864219666,503.52550864219666,503.52550864219666,503.52550864219666,503.52550864219666,503.52550864219666,503.52550864219666,506.52673864364624,3,3.1495132446289062,None,,,,,,,,,,,,,,,,,,29,3,2025-02-18_17h03.02.446,comp,2024.2.4,60.091692646249776,2025-02-18 17h03.15.329660 -0500,
126,126,0,critical,dwh,20.0,3.0,lower,78.0,78.0,57.0,133.0,133.0,57.0,3,1.3990488052368164,None,,,,,0,0,0,0,0,126,126,68,506.54231357574463,,,,,,,,,,,,,,,,,,,,,,,,,,,,,,,,,,,,,,,,,,,,,,,,,,,,,,,,,,,,,,,,,,,,,,,,,,,,,,,,,78.0,78.0,57.0,133.0,133.0,57.0,3.0,3.2,-202,-289,0,-4,191,266,506.5275602340698,506.5275995731354,506.5300669670105,506.54231357574463,506.69221687316895,506.69221687316895,506.69221687316895,506.69221687316895,506.69221687316895,506.69221687316895,506.69221687316895,507.95985174179077,3,1.3990488052368164,None,,,,,,,,,,,,,,,,,,29,3,2025-02-18_17h03.02.446,comp,2024.2.4,60.091692646249776,2025-02-18 17h03.15.329660 -0500,
127,127,0,critical,hdw,35.0,3.0,lower,133.0,57.0,70.0,70.0,57.0,133.0,3,4.554983377456665,None,,,,,0,0,0,0,0,127,127,110,507.97536158561707,,,,,,,,,,,,,,,,,,,,,,,,,,,,,,,,,,,,,,,,,,,,,,,,,,,,,,,,,,,,,,,,,,,,,,,,,,,,,,,,,133.0,57.0,70.0,70.0,57.0,133.0,3.0,3.1,-160,250,0,13,198,-279,507.96064162254333,507.9606807231903,507.9627115726471,507.97536158561707,508.1255316734314,508.1255316734314,508.1255316734314,508.1255316734314,508.1255316734314,508.1255316734314,508.1255316734314,512.5432105064392,3,4.554983377456665,None,,,,,,,,,,,,,,,,,,29,3,2025-02-18_17h03.02.446,comp,2024.2.4,60.091692646249776,2025-02-18 17h03.15.329660 -0500,
128,128,0,critical,wdh,35.0,1.0,lower,57.0,133.0,70.0,70.0,133.0,57.0,3,3.197719097137451,None,,,,,0,0,0,0,0,128,128,72,512.5586020946503,,,,,,,,,,,,,,,,,,,,,,,,,,,,,,,,,,,,,,,,,,,,,,,,,,,,,,,,,,,,,,,,,,,,,,,,,,,,,,,,,57.0,133.0,70.0,70.0,133.0,57.0,1.0,1.1,-678,266,-480,262,-320,281,512.5441234111786,512.5441634654999,512.5465545654297,512.5586020946503,512.7087159156799,512.7087159156799,512.7087159156799,512.7087159156799,512.7087159156799,512.7087159156799,512.7087159156799,515.759890794754,3,3.197719097137451,None,,,,,,,,,,,,,,,,,,29,3,2025-02-18_17h03.02.446,comp,2024.2.4,60.091692646249776,2025-02-18 17h03.15.329660 -0500,
129,129,0,filler_random,None,None,None,None,None,None,None,None,None,None,1,1.252105474472046,None,,,,,0,0,0,0,0,129,129,151,515.7755122184753,,,,,,,,,,,,,,,,,,,,,,,,,,,,,,,,,,,,,,,,,,,,,,,,,,,,,,,,,,,,,,,,,,,,,,,,,,,,,,,,,197.93519510977,190.30574544079164,145.0151458026806,116.15095048457077,83.69955912773592,159.65894514318586,3.0,3.1,-249,283,0,-3,234,-267,515.7607944011688,515.7608351707458,515.7633585929871,515.7755122184753,515.9254462718964,515.9254462718964,515.9254462718964,515.9254462718964,515.9254462718964,515.9254462718964,515.9254462718964,517.0432415008545,1,1.252105474472046,None,,,,,,,,,,,,,,,,,,29,3,2025-02-18_17h03.02.446,comp,2024.2.4,60.091692646249776,2025-02-18 17h03.15.329660 -0500,
130,130,0,filler_random,None,None,None,None,None,None,None,None,None,None,2,3.7607476711273193,None,,,,,0,0,0,0,0,130,130,159,517.0584869384766,,,,,,,,,,,,,,,,,,,,,,,,,,,,,,,,,,,,,,,,,,,,,,,,,,,,,,,,,,,,,,,,,,,,,,,,,,,,,,,,,117.92701656767036,174.0098618007832,129.78204261072736,174.73913403212967,152.219355631604,121.14753976686674,3.0,3.1,-270,277,0,-8,244,-270,517.0440993309021,517.0441377162933,517.0460886955261,517.0584869384766,517.2088387012482,517.2088387012482,517.2088387012482,517.2088387012482,517.2088387012482,517.2088387012482,517.2088387012482,520.8265972137451,2,3.7607476711273193,None,,,,,,,,,,,,,,,,,,29,3,2025-02-18_17h03.02.446,comp,2024.2.4,60.091692646249776,2025-02-18 17h03.15.329660 -0500,
131,131,0,critical,wdh,35.0,3.0,upper,125.0,200.0,127.0,127.0,200.0,125.0,3,1.920128583908081,None,,,,,0,0,0,0,0,131,131,75,520.8422055244446,,,,,,,,,,,,,,,,,,,,,,,,,,,,,,,,,,,,,,,,,,,,,,,,,,,,,,,,,,,,,,,,,,,,,,,,,,,,,,,,,125.0,200.0,127.0,127.0,200.0,125.0,3.0,3.2,-260,-284,0,15,222,260,520.8273994922638,520.8274393081665,520.8300137519836,520.8422055244446,520.9921514987946,520.9921514987946,520.9921514987946,520.9921514987946,520.9921514987946,520.9921514987946,520.9921514987946,522.7772228717804,3,1.920128583908081,None,,,,,,,,,,,,,,,,,,29,3,2025-02-18_17h03.02.446,comp,2024.2.4,60.091692646249776,2025-02-18 17h03.15.329660 -0500,
132,132,0,critical,dwh,35.0,2.1,upper,127.0,127.0,125.0,200.0,200.0,125.0,3,1.722233772277832,None,,,,,0,0,0,0,0,132,132,29,522.791939496994,,,,,,,,,,,,,,,,,,,,,,,,,,,,,,,,,,,,,,,,,,,,,,,,,,,,,,,,,,,,,,,,,,,,,,,,,,,,,,,,,127.0,127.0,125.0,200.0,200.0,125.0,2.1,2.12,-260,-276,0,-262,258,263,522.7782123088837,522.7782695293427,522.7804751396179,522.791939496994,522.9423065185547,522.9423065185547,522.9423065185547,522.9423065185547,522.9423065185547,522.9423065185547,522.9423065185547,524.5267868041992,3,1.722233772277832,None,,,,,,,,,,,,,,,,,,29,3,2025-02-18_17h03.02.446,comp,2024.2.4,60.091692646249776,2025-02-18 17h03.15.329660 -0500,
133,133,0,filler_square,None,None,None,None,None,None,None,None,None,None,2,1.172255039215088,None,,,,,0,0,0,0,0,133,133,193,524.5418620109558,,,,,,,,,,,,,,,,,,,,,,,,,,,,,,,,,,,,,,,,,,,,,,,,,,,,,,,,,,,,,,,,,,,,,,,,,,,,,,,,,76.66791777850543,80.22464743712362,121.79231052080738,121.79231052080738,92.2005078352767,63.9845260663993,2.2,2.21,-197,-269,0,259,189,257,524.5277695655823,524.5278108119965,524.5303246974945,524.5418620109558,524.6926386356354,524.6926386356354,524.6926386356354,524.6926386356354,524.6926386356354,524.6926386356354,524.6926386356354,525.72638463974,2,1.172255039215088,None,,,,,,,,,,,,,,,,,,29,3,2025-02-18_17h03.02.446,comp,2024.2.4,60.091692646249776,2025-02-18 17h03.15.329660 -0500,
134,134,0,critical,hwd,35.0,2.1,upper,200.0,125.0,125.0,200.0,127.0,127.0,1,2.4139554500579834,None,,,,,0,0,0,0,0,134,134,17,525.74192237854,,,,,,,,,,,,,,,,,,,,,,,,,,,,,,,,,,,,,,,,,,,,,,,,,,,,,,,,,,,,,,,,,,,,,,,,,,,,,,,,,200.0,125.0,125.0,200.0,127.0,127.0,2.1,2.12,-258,-271,0,-274,260,262,525.7273082733154,525.7273504734039,525.7299208641052,525.74192237854,525.8921871185303,525.8921871185303,525.8921871185303,525.8921871185303,525.8921871185303,525.8921871185303,525.8921871185303,528.1600296497345,1,2.4139554500579834,None,,,,,,,,,,,,,,,,,,29,3,2025-02-18_17h03.02.446,comp,2024.2.4,60.091692646249776,2025-02-18 17h03.15.329660 -0500,
135,135,0,critical,dwh,35.0,4.0,upper,127.0,127.0,125.0,200.0,200.0,125.0,3,1.5713868141174316,None,,,,,0,0,0,0,0,135,135,65,528.1754050254822,,,,,,,,,,,,,,,,,,,,,,,,,,,,,,,,,,,,,,,,,,,,,,,,,,,,,,,,,,,,,,,,,,,,,,,,,,,,,,,,,127.0,127.0,125.0,200.0,200.0,125.0,4.0,4.1,-260,-256,0,16,258,-257,528.1608052253723,528.1608448028564,528.1633338928223,528.1754050254822,528.3253915309906,528.3253915309906,528.3253915309906,528.3253915309906,528.3253915309906,528.3253915309906,528.3253915309906,529.7598989009857,3,1.5713868141174316,None,,,,,,,,,,,,,,,,,,29,3,2025-02-18_17h03.02.446,comp,2024.2.4,60.091692646249776,2025-02-18 17h03.15.329660 -0500,
136,136,0,critical,dwh,35.0,1.0,lower,70.0,70.0,57.0,133.0,133.0,57.0,3,1.4510166645050049,None,,,,,0,0,0,0,0,136,136,60,529.7751708030701,,,,,,,,,,,,,,,,,,,,,,,,,,,,,,,,,,,,,,,,,,,,,,,,,,,,,,,,,,,,,,,,,,,,,,,,,,,,,,,,,70.0,70.0,57.0,133.0,133.0,57.0,1.0,1.1,-678,265,-480,281,-289,290,529.7606837749481,529.7607231140137,529.763233423233,529.7751708030701,529.9252197742462,529.9252197742462,529.9252197742462,529.9252197742462,529.9252197742462,529.9252197742462,529.9252197742462,531.2429604530334,3,1.4510166645050049,None,,,,,,,,,,,,,,,,,,29,3,2025-02-18_17h03.02.446,comp,2024.2.4,60.091692646249776,2025-02-18 17h03.15.329660 -0500,
137,137,0,filler_random,None,None,None,None,None,None,None,None,None,None,1,2.4716806411743164,None,,,,,0,0,0,0,0,137,137,136,531.258486032486,,,,,,,,,,,,,,,,,,,,,,,,,,,,,,,,,,,,,,,,,,,,,,,,,,,,,,,,,,,,,,,,,,,,,,,,,,,,,,,,,195.56964416422935,109.00202133945237,86.70905209839889,134.03518914533484,61.23755358949188,173.4378088384018,2.1,2.12,-218,-287,0,-278,250,288,531.2438547611237,531.2438941001892,531.2464783191681,531.258486032486,531.4087233543396,531.4087233543396,531.4087233543396,531.4087233543396,531.4087233543396,531.4087233543396,531.4087233543396,533.7431449890137,1,2.4716806411743164,None,,,,,,,,,,,,,,,,,,29,3,2025-02-18_17h03.02.446,comp,2024.2.4,60.091692646249776,2025-02-18 17h03.15.329660 -0500,
138,138,0,filler_square,None,None,None,None,None,None,None,None,None,None,2,1.6038947105407715,None,,,,,0,0,0,0,0,138,138,209,533.7584023475647,,,,,,,,,,,,,,,,,,,,,,,,,,,,,,,,,,,,,,,,,,,,,,,,,,,,,,,,,,,,,,,,,,,,,,,,,,,,,,,,,81.92525002165084,121.71121820430713,154.30844526012515,154.30844526012515,145.5717271057938,74.01542030986931,2.1,2.11,-234,269,0,286,210,-254,533.7441008090973,533.7441413402557,533.746214389801,533.7584023475647,533.9085817337036,533.9085817337036,533.9085817337036,533.9085817337036,533.9085817337036,533.9085817337036,533.9085817337036,535.3764989376068,2,1.6038947105407715,None,,,,,,,,,,,,,,,,,,29,3,2025-02-18_17h03.02.446,comp,2024.2.4,60.091692646249776,2025-02-18 17h03.15.329660 -0500,
139,139,0,critical,dhw,20.0,3.0,upper,141.0,141.0,200.0,125.0,125.0,200.0,3,1.63425874710083,None,,,,,0,0,0,0,0,139,139,57,535.4083361625671,,,,,,,,,,,,,,,,,,,,,,,,,,,,,,,,,,,,,,,,,,,,,,,,,,,,,,,,,,,,,,,,,,,,,,,,,,,,,,,,,141.0,141.0,200.0,125.0,125.0,200.0,3.0,3.2,-229,-269,0,-18,258,276,535.3773307800293,535.3773713111877,535.3797874450684,535.4083361625671,535.5421214103699,535.5421214103699,535.5421214103699,535.5421214103699,535.5421214103699,535.5421214103699,535.5421214103699,537.0598311424255,3,1.63425874710083,None,,,,,,,,,,,,,,,,,,29,3,2025-02-18_17h03.02.446,comp,2024.2.4,60.091692646249776,2025-02-18 17h03.15.329660 -0500,
140,140,0,filler_square,None,None,None,None,None,None,None,None,None,None,3,1.1440176963806152,None,,,,,0,0,0,0,0,140,140,181,537.0750498771667,,,,,,,,,,,,,,,,,,,,,,,,,,,,,,,,,,,,,,,,,,,,,,,,,,,,,,,,,,,,,,,,,,,,,,,,,,,,,,,,,102.95727486087326,77.6933235819789,71.75744283588224,122.73436150408826,170.7164113011438,170.7164113011438,2.2,2.21,-196,-285,0,260,243,288,537.0608253479004,537.0608656406403,537.0629894733429,537.0750498771667,537.2253320217133,537.2253320217133,537.2253320217133,537.2253320217133,537.2253320217133,537.2253320217133,537.2253320217133,538.2265844345093,3,1.1440176963806152,None,,,,,,,,,,,,,,,,,,29,3,2025-02-18_17h03.02.446,comp,2024.2.4,60.091692646249776,2025-02-18 17h03.15.329660 -0500,
