thisN,thisTrialN,thisRepN,effect,order,distance,config,diag,h_1,w_1,h_2,w_2,h_3,w_3,rect_choice.keys,rect_choice.rt,rect_choice.duration,instructions_loop.thisRepN,instructions_loop.thisTrialN,instructions_loop.thisN,instructions_loop.thisIndex,blocks.thisRepN,blocks.thisTrialN,blocks.thisN,blocks.thisIndex,trials.thisRepN,trials.thisTrialN,trials.thisN,trials.thisIndex,thisRow.t,notes,consent.started,agree_button.started,decline_button.started,consent_img.started,mouse.started,consent.stopped,agree_button.numClicks,agree_button.timesOn,agree_button.timesOff,decline_button.numClicks,decline_button.timesOn,decline_button.timesOff,mouse.x,mouse.y,mouse.leftButton,mouse.midButton,mouse.rightButton,mouse.time,mouse.clicked_name,exp_params.started,exp_params.stopped,welcome.started,welcome_text.started,welcome.stopped,instructions_1.started,instructions_1_text_1.started,instructions_1_text_2.started,key_resp.started,instructions_1.stopped,instructions_loop.key_resp.keys,instructions_loop.key_resp.rt,instructions_loop.key_resp.duration,instructions_2.started,instructions_2_text_1.started,instructions_2_text_2.started,key_resp_2.started,instructions_2.stopped,instructions_loop.key_resp_2.keys,instructions_loop.key_resp_2.rt,instructions_loop.key_resp_2.duration,instructions_3.started,instructions_3_text_1.started,r1_instr3.started,r2_instr3.started,r3_instr3.started,r1_instr3_label.started,r2_instr3_label.started,r3_instr3_label.started,instructions_3_text_3.started,instructions_3_text_4.started,key_resp_3.started,instructions_3.stopped,instructions_loop.key_resp_3.keys,instructions_loop.key_resp_3.rt,instructions_loop.key_resp_3.duration,instructions_4.started,instructions_4_text_1.started,instructions_4_text_3.started,instructions_4_text_2.started,key_resp_4.started,instructions_4.stopped,instructions_loop.key_resp_4.keys,instructions_loop.key_resp_4.rt,instructions_loop.key_resp_4.duration,instructions_5.started,instructions_5_text_1.started,instructions_5_text_2.started,key_resp_5.started,instructions_5.stopped,instructions_loop.key_resp_5.keys,instructions_loop.key_resp_5.rt,instructions_loop.key_resp_5.duration,start_exp.started,start_exp_text.started,key_resp_6.started,start_exp.stopped,key_resp_6.keys,key_resp_6.rt,key_resp_6.duration,h_1_tmp,w_1_tmp,h_2_tmp,w_2_tmp,h_3_tmp,w_3_tmp,config_tmp,config_tmp_1,r_1_x,r_1_y,r_2_x,r_2_y,r_3_x,r_3_y,pre_trial.started,pre_trial.stopped,choice_trial.started,rect_choice.started,r_1.started,r_2.started,r_3.started,r_1_label.started,r_2_label.started,r_3_label.started,prompt.started,choice_trial.stopped,trials.rect_choice.keys,trials.rect_choice.rt,trials.rect_choice.duration,end_block.started,end_block_text.started,end_block.stopped,end.started,end_text.started,key_resp_7.started,end.stopped,key_resp_7.keys,key_resp_7.rt,key_resp_7.duration,debriefing.started,debrief_form.started,end_debrief.started,debriefing.stopped,end_debrief.keys,end_debrief.rt,end_debrief.duration,participant,computer,date,expName,psychopyVersion,frameRate,expStart,
,,,,,,,,,,,,,,,,,,,,,,,,,,,,,,,0.014774322509765625,0.03490638732910156,0.03490638732910156,0.03490638732910156,0.014590024948120117,21.046388149261475,0,,,0,,,[-101.0],[-512.0],[1],[0],[0],[21.031062602996826],['agree_button'],,,,,,,,,,,,,,,,,,,,,,,,,,,,,,,,,,,,,,,,,,,,,,,,,,,,,,,,,,,,,,,,,,,,,,,,,,,,,,,,,,,,,,,,,,,,,,,,,,,,,,,,,,,30,4,2025-02-18_17h03.42.887,comp,2024.2.4,57.27130347631005,2025-02-18 17h03.51.169108 -0500,
,,,,,,,,,,,,,,,,,,,,,,,,,,,,,,,,,,,,,,,,,,,,,,,,,,21.046892881393433,21.046958684921265,,,,,,,,,,,,,,,,,,,,,,,,,,,,,,,,,,,,,,,,,,,,,,,,,,,,,,,,,,,,,,,,,,,,,,,,,,,,,,,,,,,,,,,,,,,,,,,,,,,,,,,,,30,4,2025-02-18_17h03.42.887,comp,2024.2.4,57.27130347631005,2025-02-18 17h03.51.169108 -0500,
,,,,,,,,,,,,,,,,,,,,,,,,,,,,,,,,,,,,,,,,,,,,,,,,,,,,21.0470027923584,21.06024694442749,23.057767391204834,,,,,,,,,,,,,,,,,,,,,,,,,,,,,,,,,,,,,,,,,,,,,,,,,,,,,,,,,,,,,,,,,,,,,,,,,,,,,,,,,,,,,,,,,,,,,,,,,,,,,,30,4,2025-02-18_17h03.42.887,comp,2024.2.4,57.27130347631005,2025-02-18 17h03.51.169108 -0500,
0,0,0,,,,,,,,,,,,,,,0,0,0,0,,,,,,,,,23.075345993041992,,,,,,,,,,,,,,,,,,,,,,,,,,23.058692693710327,23.075345993041992,23.075345993041992,24.558216333389282,26.377628803253174,space,1.8144233226776123,None,26.3777813911438,26.39316964149475,26.39316964149475,27.89117431640625,31.296639680862427,space,3.4014158248901367,None,31.296796083450317,31.331185579299927,31.331185579299927,31.331185579299927,31.331185579299927,31.331185579299927,31.331185579299927,31.331185579299927,31.331185579299927,31.331185579299927,32.80715322494507,35.41346096992493,space,2.5894713401794434,None,35.41362023353577,35.431013107299805,35.431013107299805,35.431013107299805,36.92911624908447,44.682936668395996,space,7.747998952865601,None,44.683093547821045,44.69778537750244,44.69778537750244,46.199204206466675,46.43188667297363,space,0.22967243194580078,None,46.43208622932434,46.44791126251221,46.44791126251221,47.34908747673035,space,0.8950526714324951,None,,,,,,,,,,,,,,,,,,,,,,,,,,,,,,,,,,,,,,,,,,,,,,,30,4,2025-02-18_17h03.42.887,comp,2024.2.4,57.27130347631005,2025-02-18 17h03.51.169108 -0500,
0,0,0,filler_square,None,None,None,None,None,None,None,None,None,None,3,3.0213279724121094,None,,,,,0,0,0,0,0,0,0,183,47.42419767379761,,,,,,,,,,,,,,,,,,,,,,,,,,,,,,,,,,,,,,,,,,,,,,,,,,,,,,,,,,,,,,,,,,,,,,,,,,,,,,,,,126.63280808052015,59.218222832990605,111.5303883870296,74.18312018682732,134.57362562058063,134.57362562058063,3.0,3.2,-163,-259,0,-18,200,268,47.40777587890625,47.40782427787781,47.409465312957764,47.42419767379761,47.5755569934845,47.5755569934845,47.5755569934845,47.5755569934845,47.5755569934845,47.5755569934845,47.5755569934845,50.45145010948181,3,3.0213279724121094,None,,,,,,,,,,,,,,,,,,30,4,2025-02-18_17h03.42.887,comp,2024.2.4,57.27130347631005,2025-02-18 17h03.51.169108 -0500,
1,1,0,critical,dwh,35.0,2.1,upper,127.0,127.0,125.0,200.0,200.0,125.0,2,5.209110975265503,None,,,,,0,0,0,0,0,1,1,5,50.46816802024841,,,,,,,,,,,,,,,,,,,,,,,,,,,,,,,,,,,,,,,,,,,,,,,,,,,,,,,,,,,,,,,,,,,,,,,,,,,,,,,,,127.0,127.0,125.0,200.0,200.0,125.0,2.1,2.12,-260,-267,0,-257,258,251,50.4529550075531,50.45302987098694,50.45702910423279,50.46816802024841,50.61661458015442,50.61661458015442,50.61661458015442,50.61661458015442,50.61661458015442,50.61661458015442,50.61661458015442,55.67951703071594,2,5.209110975265503,None,,,,,,,,,,,,,,,,,,30,4,2025-02-18_17h03.42.887,comp,2024.2.4,57.27130347631005,2025-02-18 17h03.51.169108 -0500,
2,2,0,filler_square,None,None,None,None,None,None,None,None,None,None,1,4.798985958099365,None,,,,,0,0,0,0,0,2,2,205,55.69499325752258,,,,,,,,,,,,,,,,,,,,,,,,,,,,,,,,,,,,,,,,,,,,,,,,,,,,,,,,,,,,,,,,,,,,,,,,,,,,,,,,,85.16946090443773,85.16946090443773,77.40876866280058,65.11678600283781,82.02078150394104,57.39128334892055,4.0,4.1,-171,-261,0,4,157,-269,55.68125367164612,55.68132925033569,55.68413782119751,55.69499325752258,55.83489418029785,55.83489418029785,55.83489418029785,55.83489418029785,55.83489418029785,55.83489418029785,55.83489418029785,60.50914168357849,1,4.798985958099365,None,,,,,,,,,,,,,,,,,,30,4,2025-02-18_17h03.42.887,comp,2024.2.4,57.27130347631005,2025-02-18 17h03.51.169108 -0500,
3,3,0,critical,hdw,20.0,1.0,lower,133.0,57.0,78.0,78.0,57.0,133.0,3,4.97188401222229,None,,,,,0,0,0,0,0,3,3,114,60.52907466888428,,,,,,,,,,,,,,,,,,,,,,,,,,,,,,,,,,,,,,,,,,,,,,,,,,,,,,,,,,,,,,,,,,,,,,,,,,,,,,,,,133.0,57.0,78.0,78.0,57.0,133.0,1.0,1.2,-164,9,0,14,202,-6,60.51099467277527,60.511072397232056,60.51394605636597,60.52907466888428,60.67121887207031,60.67121887207031,60.67121887207031,60.67121887207031,60.67121887207031,60.67121887207031,60.67121887207031,65.50473666191101,3,4.97188401222229,None,,,,,,,,,,,,,,,,,,30,4,2025-02-18_17h03.42.887,comp,2024.2.4,57.27130347631005,2025-02-18 17h03.51.169108 -0500,
4,4,0,critical,hdw,35.0,1.0,lower,133.0,57.0,70.0,70.0,57.0,133.0,3,4.659036874771118,None,,,,,0,0,0,0,0,4,4,108,65.5215311050415,,,,,,,,,,,,,,,,,,,,,,,,,,,,,,,,,,,,,,,,,,,,,,,,,,,,,,,,,,,,,,,,,,,,,,,,,,,,,,,,,133.0,57.0,70.0,70.0,57.0,133.0,1.0,1.3,320,-254,480,-283,678,-289,65.50644493103027,65.50652289390564,65.50984334945679,65.5215311050415,65.67633581161499,65.67633581161499,65.67633581161499,65.67633581161499,65.67633581161499,65.67633581161499,65.67633581161499,70.19282793998718,3,4.659036874771118,None,,,,,,,,,,,,,,,,,,30,4,2025-02-18_17h03.42.887,comp,2024.2.4,57.27130347631005,2025-02-18 17h03.51.169108 -0500,
5,5,0,critical,wdh,35.0,2.1,upper,125.0,200.0,127.0,127.0,200.0,125.0,1,1.8559274673461914,None,,,,,0,0,0,0,0,5,5,9,70.21306490898132,,,,,,,,,,,,,,,,,,,,,,,,,,,,,,,,,,,,,,,,,,,,,,,,,,,,,,,,,,,,,,,,,,,,,,,,,,,,,,,,,125.0,200.0,127.0,127.0,200.0,125.0,2.1,2.11,-260,278,0,261,222,-278,70.194331407547,70.19440722465515,70.19734001159668,70.21306490898132,70.35630917549133,70.35630917549133,70.35630917549133,70.35630917549133,70.35630917549133,70.35630917549133,70.35630917549133,72.07285118103027,1,1.8559274673461914,None,,,,,,,,,,,,,,,,,,30,4,2025-02-18_17h03.42.887,comp,2024.2.4,57.27130347631005,2025-02-18 17h03.51.169108 -0500,
6,6,0,critical,hdw,35.0,4.0,upper,200.0,125.0,127.0,127.0,125.0,200.0,3,2.748809576034546,None,,,,,0,0,0,0,0,6,6,113,72.08837985992432,,,,,,,,,,,,,,,,,,,,,,,,,,,,,,,,,,,,,,,,,,,,,,,,,,,,,,,,,,,,,,,,,,,,,,,,,,,,,,,,,200.0,125.0,127.0,127.0,125.0,200.0,4.0,4.1,-222,-255,0,1,260,-287,72.07396841049194,72.07399654388428,72.0751600265503,72.08837985992432,72.22484707832336,72.22484707832336,72.22484707832336,72.22484707832336,72.22484707832336,72.22484707832336,72.22484707832336,74.84253644943237,3,2.748809576034546,None,,,,,,,,,,,,,,,,,,30,4,2025-02-18_17h03.42.887,comp,2024.2.4,57.27130347631005,2025-02-18 17h03.51.169108 -0500,
7,7,0,critical,whd,20.0,3.0,upper,125.0,200.0,200.0,125.0,141.0,141.0,1,4.820059299468994,None,,,,,0,0,0,0,0,7,7,93,74.85681748390198,,,,,,,,,,,,,,,,,,,,,,,,,,,,,,,,,,,,,,,,,,,,,,,,,,,,,,,,,,,,,,,,,,,,,,,,,,,,,,,,,125.0,200.0,200.0,125.0,141.0,141.0,3.0,3.2,-258,-260,0,-15,229,259,74.84373021125793,74.84375858306885,74.8449125289917,74.85681748390198,75.01290845870972,75.01290845870972,75.01290845870972,75.01290845870972,75.01290845870972,75.01290845870972,75.01290845870972,79.69482612609863,1,4.820059299468994,None,,,,,,,,,,,,,,,,,,30,4,2025-02-18_17h03.42.887,comp,2024.2.4,57.27130347631005,2025-02-18 17h03.51.169108 -0500,
8,8,0,critical,dwh,35.0,2.1,lower,70.0,70.0,57.0,133.0,133.0,57.0,2,1.4953827857971191,None,,,,,0,0,0,0,0,8,8,28,79.70984983444214,,,,,,,,,,,,,,,,,,,,,,,,,,,,,,,,,,,,,,,,,,,,,,,,,,,,,,,,,,,,,,,,,,,,,,,,,,,,,,,,,70.0,70.0,57.0,133.0,133.0,57.0,2.1,2.12,-198,-257,0,-253,191,279,79.69631862640381,79.69639372825623,79.69957876205444,79.70984983444214,79.85798168182373,79.85798168182373,79.85798168182373,79.85798168182373,79.85798168182373,79.85798168182373,79.85798168182373,81.21245431900024,2,1.4953827857971191,None,,,,,,,,,,,,,,,,,,30,4,2025-02-18_17h03.42.887,comp,2024.2.4,57.27130347631005,2025-02-18 17h03.51.169108 -0500,
9,9,0,filler_random,None,None,None,None,None,None,None,None,None,None,3,3.1590805053710938,None,,,,,0,0,0,0,0,9,9,146,81.23009610176086,,,,,,,,,,,,,,,,,,,,,,,,,,,,,,,,,,,,,,,,,,,,,,,,,,,,,,,,,,,,,,,,,,,,,,,,,,,,,,,,,82.10597082237938,140.4108242182735,144.601037865686,137.10991953997552,138.16999457108494,177.96395725542789,4.0,4.1,-235,-280,0,4,254,-281,81.21416020393372,81.21423649787903,81.21705508232117,81.23009610176086,81.37929558753967,81.37929558753967,81.37929558753967,81.37929558753967,81.37929558753967,81.37929558753967,81.37929558753967,84.39517760276794,3,3.1590805053710938,None,,,,,,,,,,,,,,,,,,30,4,2025-02-18_17h03.42.887,comp,2024.2.4,57.27130347631005,2025-02-18 17h03.51.169108 -0500,
10,10,0,critical,dhw,35.0,3.0,lower,70.0,70.0,133.0,57.0,57.0,133.0,2,3.601942539215088,None,,,,,0,0,0,0,0,10,10,50,84.41092681884766,,,,,,,,,,,,,,,,,,,,,,,,,,,,,,,,,,,,,,,,,,,,,,,,,,,,,,,,,,,,,,,,,,,,,,,,,,,,,,,,,70.0,70.0,133.0,57.0,57.0,133.0,3.0,3.2,-160,-280,0,14,191,256,84.39680337905884,84.39687848091125,84.40015745162964,84.41092681884766,84.55929231643677,84.55929231643677,84.55929231643677,84.55929231643677,84.55929231643677,84.55929231643677,84.55929231643677,88.0292272567749,2,3.601942539215088,None,,,,,,,,,,,,,,,,,,30,4,2025-02-18_17h03.42.887,comp,2024.2.4,57.27130347631005,2025-02-18 17h03.51.169108 -0500,
11,11,0,critical,hwd,20.0,3.0,lower,133.0,57.0,57.0,133.0,78.0,78.0,2,2.041415214538574,None,,,,,0,0,0,0,0,11,11,104,88.04511642456055,,,,,,,,,,,,,,,,,,,,,,,,,,,,,,,,,,,,,,,,,,,,,,,,,,,,,,,,,,,,,,,,,,,,,,,,,,,,,,,,,133.0,57.0,57.0,133.0,78.0,78.0,3.0,3.1,-191,277,0,-19,202,-290,88.03084254264832,88.03091645240784,88.03455805778503,88.04511642456055,88.1979022026062,88.1979022026062,88.1979022026062,88.1979022026062,88.1979022026062,88.1979022026062,88.1979022026062,90.0970242023468,2,2.041415214538574,None,,,,,,,,,,,,,,,,,,30,4,2025-02-18_17h03.42.887,comp,2024.2.4,57.27130347631005,2025-02-18 17h03.51.169108 -0500,
12,12,0,critical,dhw,35.0,3.0,upper,127.0,127.0,200.0,125.0,125.0,200.0,3,2.187256097793579,None,,,,,0,0,0,0,0,12,12,51,90.11325740814209,,,,,,,,,,,,,,,,,,,,,,,,,,,,,,,,,,,,,,,,,,,,,,,,,,,,,,,,,,,,,,,,,,,,,,,,,,,,,,,,,127.0,127.0,200.0,125.0,125.0,200.0,3.0,3.2,-222,-266,0,15,258,270,90.09851431846619,90.09861254692078,90.10253667831421,90.11325740814209,90.26416826248169,90.26416826248169,90.26416826248169,90.26416826248169,90.26416826248169,90.26416826248169,90.26416826248169,92.31303930282593,3,2.187256097793579,None,,,,,,,,,,,,,,,,,,30,4,2025-02-18_17h03.42.887,comp,2024.2.4,57.27130347631005,2025-02-18 17h03.51.169108 -0500,
13,13,0,filler_square,None,None,None,None,None,None,None,None,None,None,3,1.6440341472625732,None,,,,,0,0,0,0,0,13,13,186,92.32905149459839,,,,,,,,,,,,,,,,,,,,,,,,,,,,,,,,,,,,,,,,,,,,,,,,,,,,,,,,,,,,,,,,,,,,,,,,,,,,,,,,,89.35317902979318,75.50300126783591,115.17373473241503,83.9978210343183,122.1949539881249,122.1949539881249,1.0,1.3,304,-277,480,-257,679,-270,92.31486225128174,92.31493759155273,92.31780695915222,92.32905149459839,92.4805064201355,92.4805064201355,92.4805064201355,92.4805064201355,92.4805064201355,92.4805064201355,92.4805064201355,93.97888040542603,3,1.6440341472625732,None,,,,,,,,,,,,,,,,,,30,4,2025-02-18_17h03.42.887,comp,2024.2.4,57.27130347631005,2025-02-18 17h03.51.169108 -0500,
14,14,0,filler_square,None,None,None,None,None,None,None,None,None,None,1,2.4873900413513184,None,,,,,0,0,0,0,0,14,14,190,93.99724292755127,,,,,,,,,,,,,,,,,,,,,,,,,,,,,,,,,,,,,,,,,,,,,,,,,,,,,,,,,,,,,,,,,,,,,,,,,,,,,,,,,71.07794888026355,71.07794888026355,63.124277565688,60.51756295577488,62.301387700229114,65.362752786538,1.0,1.1,-642,259,-480,270,-321,288,93.98084568977356,93.98095321655273,93.98412609100342,93.99724292755127,94.13006472587585,94.13006472587585,94.13006472587585,94.13006472587585,94.13006472587585,94.13006472587585,94.13006472587585,96.50080490112305,1,2.4873900413513184,None,,,,,,,,,,,,,,,,,,30,4,2025-02-18_17h03.42.887,comp,2024.2.4,57.27130347631005,2025-02-18 17h03.51.169108 -0500,
15,15,0,critical,dhw,20.0,3.0,lower,78.0,78.0,133.0,57.0,57.0,133.0,3,1.973764419555664,None,,,,,0,0,0,0,0,15,15,56,96.51876926422119,,,,,,,,,,,,,,,,,,,,,,,,,,,,,,,,,,,,,,,,,,,,,,,,,,,,,,,,,,,,,,,,,,,,,,,,,,,,,,,,,78.0,78.0,133.0,57.0,57.0,133.0,3.0,3.1,-164,268,0,13,191,-261,96.50246572494507,96.50254702568054,96.5061514377594,96.51876926422119,96.66580748558044,96.66580748558044,96.66580748558044,96.66580748558044,96.66580748558044,96.66580748558044,96.66580748558044,98.5017409324646,3,1.973764419555664,None,,,,,,,,,,,,,,,,,,30,4,2025-02-18_17h03.42.887,comp,2024.2.4,57.27130347631005,2025-02-18 17h03.51.169108 -0500,
16,16,0,critical,dhw,35.0,1.0,upper,127.0,127.0,200.0,125.0,125.0,200.0,2,3.750044822692871,None,,,,,0,0,0,0,0,16,16,49,98.51848077774048,,,,,,,,,,,,,,,,,,,,,,,,,,,,,,,,,,,,,,,,,,,,,,,,,,,,,,,,,,,,,,,,,,,,,,,,,,,,,,,,,127.0,127.0,200.0,125.0,125.0,200.0,1.0,1.1,-702,254,-480,273,-222,252,98.50334215164185,98.50344467163086,98.50725293159485,98.51848077774048,98.67325115203857,98.67325115203857,98.67325115203857,98.67325115203857,98.67325115203857,98.67325115203857,98.67325115203857,102.27087140083313,2,3.750044822692871,None,,,,,,,,,,,,,,,,,,30,4,2025-02-18_17h03.42.887,comp,2024.2.4,57.27130347631005,2025-02-18 17h03.51.169108 -0500,
17,17,0,critical,wdh,35.0,4.0,lower,57.0,133.0,70.0,70.0,133.0,57.0,1,2.213747262954712,None,,,,,0,0,0,0,0,17,17,76,102.28703546524048,,,,,,,,,,,,,,,,,,,,,,,,,,,,,,,,,,,,,,,,,,,,,,,,,,,,,,,,,,,,,,,,,,,,,,,,,,,,,,,,,57.0,133.0,70.0,70.0,133.0,57.0,4.0,4.2,-198,8,0,-282,160,12,102.27244734764099,102.27252912521362,102.27632021903992,102.28703546524048,102.43268346786499,102.43268346786499,102.43268346786499,102.43268346786499,102.43268346786499,102.43268346786499,102.43268346786499,104.51960396766663,1,2.213747262954712,None,,,,,,,,,,,,,,,,,,30,4,2025-02-18_17h03.42.887,comp,2024.2.4,57.27130347631005,2025-02-18 17h03.51.169108 -0500,
18,18,0,critical,dwh,35.0,1.0,upper,127.0,127.0,125.0,200.0,200.0,125.0,2,2.0381925106048584,None,,,,,0,0,0,0,0,18,18,61,104.53702354431152,,,,,,,,,,,,,,,,,,,,,,,,,,,,,,,,,,,,,,,,,,,,,,,,,,,,,,,,,,,,,,,,,,,,,,,,,,,,,,,,,127.0,127.0,125.0,200.0,200.0,125.0,1.0,1.2,-260,-9,0,-3,258,2,104.52112698554993,104.52125310897827,104.5241208076477,104.53702354431152,104.69216895103455,104.69216895103455,104.69216895103455,104.69216895103455,104.69216895103455,104.69216895103455,104.69216895103455,106.58579969406128,2,2.0381925106048584,None,,,,,,,,,,,,,,,,,,30,4,2025-02-18_17h03.42.887,comp,2024.2.4,57.27130347631005,2025-02-18 17h03.51.169108 -0500,
19,19,0,critical,wdh,35.0,2.1,lower,57.0,133.0,70.0,70.0,133.0,57.0,1,1.843066692352295,None,,,,,0,0,0,0,0,19,19,32,106.60217475891113,,,,,,,,,,,,,,,,,,,,,,,,,,,,,,,,,,,,,,,,,,,,,,,,,,,,,,,,,,,,,,,,,,,,,,,,,,,,,,,,,57.0,133.0,70.0,70.0,133.0,57.0,2.1,2.11,-198,281,0,286,160,-289,106.5872790813446,106.58735489845276,106.59146118164062,106.60217475891113,106.75112533569336,106.75112533569336,106.75112533569336,106.75112533569336,106.75112533569336,106.75112533569336,106.75112533569336,108.45269894599915,1,1.843066692352295,None,,,,,,,,,,,,,,,,,,30,4,2025-02-18_17h03.42.887,comp,2024.2.4,57.27130347631005,2025-02-18 17h03.51.169108 -0500,
20,20,0,catch,None,None,None,None,None,None,None,None,None,None,3,2.255864381790161,None,,,,,0,0,0,0,0,20,20,123,108.46914315223694,,,,,,,,,,,,,,,,,,,,,,,,,,,,,,,,,,,,,,,,,,,,,,,,,,,,,,,,,,,,,,,,,,,,,,,,,,,,,,,,,94,96,112,78,129,196,1.0,1.1,-663,275,-480,263,-247,254,108.45480585098267,108.45488405227661,108.4583101272583,108.46914315223694,108.61911368370056,108.61911368370056,108.61911368370056,108.61911368370056,108.61911368370056,108.61911368370056,108.61911368370056,110.7365493774414,3,2.255864381790161,None,,,,,,,,,,,,,,,,,,30,4,2025-02-18_17h03.42.887,comp,2024.2.4,57.27130347631005,2025-02-18 17h03.51.169108 -0500,
21,21,0,critical,hdw,20.0,2.1,lower,133.0,57.0,78.0,78.0,57.0,133.0,3,2.2125589847564697,None,,,,,0,0,0,0,0,21,21,46,110.75271916389465,,,,,,,,,,,,,,,,,,,,,,,,,,,,,,,,,,,,,,,,,,,,,,,,,,,,,,,,,,,,,,,,,,,,,,,,,,,,,,,,,133.0,57.0,78.0,78.0,57.0,133.0,2.1,2.12,-164,-284,0,-281,202,278,110.7381284236908,110.73820924758911,110.74168562889099,110.75271916389465,110.90936422348022,110.90936422348022,110.90936422348022,110.90936422348022,110.90936422348022,110.90936422348022,110.90936422348022,112.97251152992249,3,2.2125589847564697,None,,,,,,,,,,,,,,,,,,30,4,2025-02-18_17h03.42.887,comp,2024.2.4,57.27130347631005,2025-02-18 17h03.51.169108 -0500,
22,22,0,critical,dwh,20.0,2.1,upper,141.0,141.0,125.0,200.0,200.0,125.0,2,2.0114760398864746,None,,,,,0,0,0,0,0,22,22,7,112.99311256408691,,,,,,,,,,,,,,,,,,,,,,,,,,,,,,,,,,,,,,,,,,,,,,,,,,,,,,,,,,,,,,,,,,,,,,,,,,,,,,,,,141.0,141.0,125.0,200.0,200.0,125.0,2.1,2.12,-266,-258,0,-250,258,257,112.9743001461029,112.97439336776733,112.97746562957764,112.99311256408691,113.13835954666138,113.13835954666138,113.13835954666138,113.13835954666138,113.13835954666138,113.13835954666138,113.13835954666138,115.01892852783203,2,2.0114760398864746,None,,,,,,,,,,,,,,,,,,30,4,2025-02-18_17h03.42.887,comp,2024.2.4,57.27130347631005,2025-02-18 17h03.51.169108 -0500,
23,23,0,critical,wdh,35.0,1.0,upper,125.0,200.0,127.0,127.0,200.0,125.0,1,2.0658226013183594,None,,,,,0,0,0,0,0,23,23,73,115.03540539741516,,,,,,,,,,,,,,,,,,,,,,,,,,,,,,,,,,,,,,,,,,,,,,,,,,,,,,,,,,,,,,,,,,,,,,,,,,,,,,,,,125.0,200.0,127.0,127.0,200.0,125.0,1.0,1.3,220,-253,480,-256,702,-283,115.0204405784607,115.02051734924316,115.02328944206238,115.03540539741516,115.19002342224121,115.19002342224121,115.19002342224121,115.19002342224121,115.19002342224121,115.19002342224121,115.19002342224121,117.10527658462524,1,2.0658226013183594,None,,,,,,,,,,,,,,,,,,30,4,2025-02-18_17h03.42.887,comp,2024.2.4,57.27130347631005,2025-02-18 17h03.51.169108 -0500,
24,24,0,critical,dwh,35.0,3.0,lower,70.0,70.0,57.0,133.0,133.0,57.0,2,3.867595911026001,None,,,,,0,0,0,0,0,24,24,62,117.12093448638916,,,,,,,,,,,,,,,,,,,,,,,,,,,,,,,,,,,,,,,,,,,,,,,,,,,,,,,,,,,,,,,,,,,,,,,,,,,,,,,,,70.0,70.0,57.0,133.0,133.0,57.0,3.0,3.2,-198,-290,0,10,191,276,117.10681247711182,117.10688734054565,117.11024498939514,117.12093448638916,117.27160429954529,117.27160429954529,117.27160429954529,117.27160429954529,117.27160429954529,117.27160429954529,117.27160429954529,121.00593328475952,2,3.867595911026001,None,,,,,,,,,,,,,,,,,,30,4,2025-02-18_17h03.42.887,comp,2024.2.4,57.27130347631005,2025-02-18 17h03.51.169108 -0500,
25,25,0,critical,whd,20.0,2.1,upper,125.0,200.0,200.0,125.0,141.0,141.0,1,2.8468546867370605,None,,,,,0,0,0,0,0,25,25,39,121.02217841148376,,,,,,,,,,,,,,,,,,,,,,,,,,,,,,,,,,,,,,,,,,,,,,,,,,,,,,,,,,,,,,,,,,,,,,,,,,,,,,,,,125.0,200.0,200.0,125.0,141.0,141.0,2.1,2.11,-258,286,0,273,229,-255,121.0074896812439,121.00756502151489,121.01082801818848,121.02217841148376,121.16252112388611,121.16252112388611,121.16252112388611,121.16252112388611,121.16252112388611,121.16252112388611,121.16252112388611,123.87300443649292,1,2.8468546867370605,None,,,,,,,,,,,,,,,,,,30,4,2025-02-18_17h03.42.887,comp,2024.2.4,57.27130347631005,2025-02-18 17h03.51.169108 -0500,
26,26,0,critical,hwd,35.0,1.0,lower,133.0,57.0,57.0,133.0,70.0,70.0,2,1.3931689262390137,None,,,,,0,0,0,0,0,26,26,96,123.89136028289795,,,,,,,,,,,,,,,,,,,,,,,,,,,,,,,,,,,,,,,,,,,,,,,,,,,,,,,,,,,,,,,,,,,,,,,,,,,,,,,,,133.0,57.0,57.0,133.0,70.0,70.0,1.0,1.1,-671,258,-480,287,-282,287,123.87465453147888,123.87473225593567,123.87789821624756,123.89136028289795,124.0416784286499,124.0416784286499,124.0416784286499,124.0416784286499,124.0416784286499,124.0416784286499,124.0416784286499,125.29793643951416,2,1.3931689262390137,None,,,,,,,,,,,,,,,,,,30,4,2025-02-18_17h03.42.887,comp,2024.2.4,57.27130347631005,2025-02-18 17h03.51.169108 -0500,
27,27,0,critical,whd,20.0,1.0,upper,125.0,200.0,200.0,125.0,141.0,141.0,1,1.2063922882080078,None,,,,,0,0,0,0,0,27,27,91,125.3182270526886,,,,,,,,,,,,,,,,,,,,,,,,,,,,,,,,,,,,,,,,,,,,,,,,,,,,,,,,,,,,,,,,,,,,,,,,,,,,,,,,,125.0,200.0,200.0,125.0,141.0,141.0,1.0,1.3,222,-290,480,-263,709,-280,125.29951906204224,125.2996232509613,125.30299687385559,125.3182270526886,125.45883679389954,125.45883679389954,125.45883679389954,125.45883679389954,125.45883679389954,125.45883679389954,125.45883679389954,126.54106068611145,1,1.2063922882080078,None,,,,,,,,,,,,,,,,,,30,4,2025-02-18_17h03.42.887,comp,2024.2.4,57.27130347631005,2025-02-18 17h03.51.169108 -0500,
28,28,0,filler_square,None,None,None,None,None,None,None,None,None,None,2,1.1912975311279297,None,,,,,0,0,0,0,0,28,28,187,126.55733156204224,,,,,,,,,,,,,,,,,,,,,,,,,,,,,,,,,,,,,,,,,,,,,,,,,,,,,,,,,,,,,,,,,,,,,,,,,,,,,,,,,65.49163635291353,70.04580502694462,87.49644114277189,87.49644114277189,67.28905066888737,58.5662041604863,4.0,4.1,-175,-250,0,1,169,-274,126.54301595687866,126.54309296607971,126.54636812210083,126.55733156204224,126.71151566505432,126.71151566505432,126.71151566505432,126.71151566505432,126.71151566505432,126.71151566505432,126.71151566505432,127.75902652740479,2,1.1912975311279297,None,,,,,,,,,,,,,,,,,,30,4,2025-02-18_17h03.42.887,comp,2024.2.4,57.27130347631005,2025-02-18 17h03.51.169108 -0500,
29,29,0,critical,hdw,20.0,2.1,upper,200.0,125.0,141.0,141.0,125.0,200.0,3,1.6271047592163086,None,,,,,0,0,0,0,0,29,29,23,127.77787160873413,,,,,,,,,,,,,,,,,,,,,,,,,,,,,,,,,,,,,,,,,,,,,,,,,,,,,,,,,,,,,,,,,,,,,,,,,,,,,,,,,200.0,125.0,141.0,141.0,125.0,200.0,2.1,2.12,-229,-256,0,-274,266,278,127.76053190231323,127.76060676574707,127.76375341415405,127.77787160873413,127.9260721206665,127.9260721206665,127.9260721206665,127.9260721206665,127.9260721206665,127.9260721206665,127.9260721206665,129.40739059448242,3,1.6271047592163086,None,,,,,,,,,,,,,,,,,,30,4,2025-02-18_17h03.42.887,comp,2024.2.4,57.27130347631005,2025-02-18 17h03.51.169108 -0500,
30,30,0,critical,dwh,35.0,2.1,upper,127.0,127.0,125.0,200.0,200.0,125.0,2,2.0449838638305664,None,,,,,0,0,0,0,0,30,30,29,129.4244065284729,,,,,,,,,,,,,,,,,,,,,,,,,,,,,,,,,,,,,,,,,,,,,,,,,,,,,,,,,,,,,,,,,,,,,,,,,,,,,,,,,127.0,127.0,125.0,200.0,200.0,125.0,2.1,2.11,-260,265,0,260,258,-287,129.40906977653503,129.40914583206177,129.41261386871338,129.4244065284729,129.5735182762146,129.5735182762146,129.5735182762146,129.5735182762146,129.5735182762146,129.5735182762146,129.5735182762146,131.47528076171875,2,2.0449838638305664,None,,,,,,,,,,,,,,,,,,30,4,2025-02-18_17h03.42.887,comp,2024.2.4,57.27130347631005,2025-02-18 17h03.51.169108 -0500,
31,31,0,critical,whd,35.0,2.1,lower,57.0,133.0,133.0,57.0,70.0,70.0,2,3.697871208190918,None,,,,,0,0,0,0,0,31,31,36,131.49151158332825,,,,,,,,,,,,,,,,,,,,,,,,,,,,,,,,,,,,,,,,,,,,,,,,,,,,,,,,,,,,,,,,,,,,,,,,,,,,,,,,,57.0,133.0,133.0,57.0,70.0,70.0,2.1,2.11,-191,267,0,264,160,-254,131.47678470611572,131.4768590927124,131.47978258132935,131.49151158332825,131.64484786987305,131.64484786987305,131.64484786987305,131.64484786987305,131.64484786987305,131.64484786987305,131.64484786987305,135.194580078125,2,3.697871208190918,None,,,,,,,,,,,,,,,,,,30,4,2025-02-18_17h03.42.887,comp,2024.2.4,57.27130347631005,2025-02-18 17h03.51.169108 -0500,
32,32,0,filler_random,None,None,None,None,None,None,None,None,None,None,3,2.377739429473877,None,,,,,0,0,0,0,0,32,32,148,135.21101546287537,,,,,,,,,,,,,,,,,,,,,,,,,,,,,,,,,,,,,,,,,,,,,,,,,,,,,,,,,,,,,,,,,,,,,,,,,,,,,,,,,121.6538080940387,114.67768773169479,137.864147535603,105.93897649073119,91.6905272932452,176.88633604079385,2.1,2.11,-206,266,0,262,237,-290,135.19625115394592,135.19632625579834,135.200297832489,135.21101546287537,135.3602921962738,135.3602921962738,135.3602921962738,135.3602921962738,135.3602921962738,135.3602921962738,135.3602921962738,137.6032738685608,3,2.377739429473877,None,,,,,,,,,,,,,,,,,,30,4,2025-02-18_17h03.42.887,comp,2024.2.4,57.27130347631005,2025-02-18 17h03.51.169108 -0500,
33,33,0,critical,hwd,35.0,4.0,lower,133.0,57.0,57.0,133.0,70.0,70.0,2,0.9200301170349121,None,,,,,0,0,0,0,0,33,33,100,137.62092447280884,,,,,,,,,,,,,,,,,,,,,,,,,,,,,,,,,,,,,,,,,,,,,,,,,,,,,,,,,,,,,,,,,,,,,,,,,,,,,,,,,133.0,57.0,57.0,133.0,70.0,70.0,4.0,4.1,-191,-286,0,12,198,-265,137.60484170913696,137.60491728782654,137.60819745063782,137.62092447280884,137.76176381111145,137.76176381111145,137.76176381111145,137.76176381111145,137.76176381111145,137.76176381111145,137.76176381111145,138.54786729812622,2,0.9200301170349121,None,,,,,,,,,,,,,,,,,,30,4,2025-02-18_17h03.42.887,comp,2024.2.4,57.27130347631005,2025-02-18 17h03.51.169108 -0500,
34,34,0,critical,dwh,20.0,2.1,lower,78.0,78.0,57.0,133.0,133.0,57.0,2,1.990774154663086,None,,,,,0,0,0,0,0,34,34,30,138.56612420082092,,,,,,,,,,,,,,,,,,,,,,,,,,,,,,,,,,,,,,,,,,,,,,,,,,,,,,,,,,,,,,,,,,,,,,,,,,,,,,,,,78.0,78.0,57.0,133.0,133.0,57.0,2.1,2.11,-202,284,0,283,191,-275,138.54955005645752,138.54962682724,138.5528838634491,138.56612420082092,138.71282958984375,138.71282958984375,138.71282958984375,138.71282958984375,138.71282958984375,138.71282958984375,138.71282958984375,140.56078553199768,2,1.990774154663086,None,,,,,,,,,,,,,,,,,,30,4,2025-02-18_17h03.42.887,comp,2024.2.4,57.27130347631005,2025-02-18 17h03.51.169108 -0500,
35,35,0,filler_square,None,None,None,None,None,None,None,None,None,None,1,0.902940034866333,None,,,,,0,0,0,0,0,35,35,175,140.58161520957947,,,,,,,,,,,,,,,,,,,,,,,,,,,,,,,,,,,,,,,,,,,,,,,,,,,,,,,,,,,,,,,,,,,,,,,,,,,,,,,,,129.16232920567046,129.16232920567046,66.37722061151217,99.47795972596495,110.18810669632526,73.83373037816956,4.0,4.1,-210,-275,0,-15,183,-288,140.56275987625122,140.56283807754517,140.56601881980896,140.58161520957947,140.72988605499268,140.72988605499268,140.72988605499268,140.72988605499268,140.72988605499268,140.72988605499268,140.72988605499268,141.49675011634827,1,0.902940034866333,None,,,,,,,,,,,,,,,,,,30,4,2025-02-18_17h03.42.887,comp,2024.2.4,57.27130347631005,2025-02-18 17h03.51.169108 -0500,
36,36,0,critical,dhw,20.0,4.0,lower,78.0,78.0,133.0,57.0,57.0,133.0,3,1.962451457977295,None,,,,,0,0,0,0,0,36,36,58,141.51467561721802,,,,,,,,,,,,,,,,,,,,,,,,,,,,,,,,,,,,,,,,,,,,,,,,,,,,,,,,,,,,,,,,,,,,,,,,,,,,,,,,,78.0,78.0,133.0,57.0,57.0,133.0,4.0,4.1,-164,-280,0,-5,191,-288,141.49825239181519,141.49832773208618,141.5014910697937,141.51467561721802,141.66289830207825,141.66289830207825,141.66289830207825,141.66289830207825,141.66289830207825,141.66289830207825,141.66289830207825,143.49606657028198,3,1.962451457977295,None,,,,,,,,,,,,,,,,,,30,4,2025-02-18_17h03.42.887,comp,2024.2.4,57.27130347631005,2025-02-18 17h03.51.169108 -0500,
37,37,0,critical,wdh,35.0,3.0,lower,57.0,133.0,70.0,70.0,133.0,57.0,1,1.98061203956604,None,,,,,0,0,0,0,0,37,37,74,143.51292610168457,,,,,,,,,,,,,,,,,,,,,,,,,,,,,,,,,,,,,,,,,,,,,,,,,,,,,,,,,,,,,,,,,,,,,,,,,,,,,,,,,57.0,133.0,70.0,70.0,133.0,57.0,3.0,3.2,-198,-265,0,-3,160,269,143.49764943122864,143.4977250099182,143.50096464157104,143.51292610168457,143.6667993068695,143.6667993068695,143.6667993068695,143.6667993068695,143.6667993068695,143.6667993068695,143.6667993068695,145.50072360038757,1,1.98061203956604,None,,,,,,,,,,,,,,,,,,30,4,2025-02-18_17h03.42.887,comp,2024.2.4,57.27130347631005,2025-02-18 17h03.51.169108 -0500,
38,38,0,critical,dwh,20.0,2.1,lower,78.0,78.0,57.0,133.0,133.0,57.0,2,2.055536985397339,None,,,,,0,0,0,0,0,38,38,6,145.51710057258606,,,,,,,,,,,,,,,,,,,,,,,,,,,,,,,,,,,,,,,,,,,,,,,,,,,,,,,,,,,,,,,,,,,,,,,,,,,,,,,,,78.0,78.0,57.0,133.0,133.0,57.0,2.1,2.11,-202,260,0,274,191,-260,145.50234389305115,145.5024573802948,145.50555658340454,145.51710057258606,145.663982629776,145.663982629776,145.663982629776,145.663982629776,145.663982629776,145.663982629776,145.663982629776,147.58414673805237,2,2.055536985397339,None,,,,,,,,,,,,,,,,,,30,4,2025-02-18_17h03.42.887,comp,2024.2.4,57.27130347631005,2025-02-18 17h03.51.169108 -0500,
39,39,0,filler_square,None,None,None,None,None,None,None,None,None,None,3,1.3842179775238037,None,,,,,0,0,0,0,0,39,39,185,147.6053445339203,,,,,,,,,,,,,,,,,,,,,,,,,,,,,,,,,,,,,,,,,,,,,,,,,,,,,,,,,,,,,,,,,,,,,,,,,,,,,,,,,66.83948344317568,68.05922129757113,71.39817028502145,61.39439662595396,73.50400536960586,73.50400536960586,1.0,1.2,-161,-9,0,-14,163,17,147.5862271785736,147.58631539344788,147.5895471572876,147.6053445339203,147.74490690231323,147.74490690231323,147.74490690231323,147.74490690231323,147.74490690231323,147.74490690231323,147.74490690231323,148.9976499080658,3,1.3842179775238037,None,,,,,,,,,,,,,,,,,,30,4,2025-02-18_17h03.42.887,comp,2024.2.4,57.27130347631005,2025-02-18 17h03.51.169108 -0500,
40,40,0,filler_random,None,None,None,None,None,None,None,None,None,None,1,1.7477965354919434,None,,,,,0,0,0,0,0,40,40,167,149.01719307899475,,,,,,,,,,,,,,,,,,,,,,,,,,,,,,,,,,,,,,,,,,,,,,,,,,,,,,,,,,,,,,,,,,,,,,,,,,,,,,,,,98.75266261425747,156.68380294866637,137.816275794848,77.49393617872093,58.65215070588172,156.71126636923333,2.2,2.22,-213,281,0,-269,213,-274,148.99930667877197,148.99938297271729,149.00259590148926,149.01719307899475,149.163654088974,149.163654088974,149.163654088974,149.163654088974,149.163654088974,149.163654088974,149.163654088974,150.76972365379333,1,1.7477965354919434,None,,,,,,,,,,,,,,,,,,30,4,2025-02-18_17h03.42.887,comp,2024.2.4,57.27130347631005,2025-02-18 17h03.51.169108 -0500,
41,41,0,filler_random,None,None,None,None,None,None,None,None,None,None,3,1.3472695350646973,None,,,,,0,0,0,0,0,41,41,151,150.78532671928406,,,,,,,,,,,,,,,,,,,,,,,,,,,,,,,,,,,,,,,,,,,,,,,,,,,,,,,,,,,,,,,,,,,,,,,,,,,,,,,,,179.80298624614636,58.67423806255332,139.20545568828797,118.46741012959356,159.28146759044165,171.85080745917213,2.1,2.11,-185,255,0,267,241,-268,150.7714855670929,150.771564245224,150.77475214004517,150.78532671928406,150.93649101257324,150.93649101257324,150.93649101257324,150.93649101257324,150.93649101257324,150.93649101257324,150.93649101257324,152.148029088974,3,1.3472695350646973,None,,,,,,,,,,,,,,,,,,30,4,2025-02-18_17h03.42.887,comp,2024.2.4,57.27130347631005,2025-02-18 17h03.51.169108 -0500,
42,42,0,critical,whd,35.0,1.0,lower,57.0,133.0,133.0,57.0,70.0,70.0,1,2.577462673187256,None,,,,,0,0,0,0,0,42,42,84,152.16364693641663,,,,,,,,,,,,,,,,,,,,,,,,,,,,,,,,,,,,,,,,,,,,,,,,,,,,,,,,,,,,,,,,,,,,,,,,,,,,,,,,,57.0,133.0,133.0,57.0,70.0,70.0,1.0,1.2,-191,-8,0,20,160,-16,152.14946103096008,152.1495430469513,152.1523733139038,152.16364693641663,152.30149126052856,152.30149126052856,152.30149126052856,152.30149126052856,152.30149126052856,152.30149126052856,152.30149126052856,154.75038599967957,1,2.577462673187256,None,,,,,,,,,,,,,,,,,,30,4,2025-02-18_17h03.42.887,comp,2024.2.4,57.27130347631005,2025-02-18 17h03.51.169108 -0500,
43,43,0,critical,hdw,35.0,3.0,lower,133.0,57.0,70.0,70.0,57.0,133.0,3,2.4307456016540527,None,,,,,0,0,0,0,0,43,43,110,154.7660584449768,,,,,,,,,,,,,,,,,,,,,,,,,,,,,,,,,,,,,,,,,,,,,,,,,,,,,,,,,,,,,,,,,,,,,,,,,,,,,,,,,133.0,57.0,70.0,70.0,57.0,133.0,3.0,3.1,-160,251,0,-18,198,-283,154.7518675327301,154.751944065094,154.75533771514893,154.7660584449768,154.91701078414917,154.91701078414917,154.91701078414917,154.91701078414917,154.91701078414917,154.91701078414917,154.91701078414917,157.19962310791016,3,2.4307456016540527,None,,,,,,,,,,,,,,,,,,30,4,2025-02-18_17h03.42.887,comp,2024.2.4,57.27130347631005,2025-02-18 17h03.51.169108 -0500,
44,44,0,critical,dwh,20.0,1.0,lower,78.0,78.0,57.0,133.0,133.0,57.0,2,1.9169795513153076,None,,,,,0,0,0,0,0,44,44,66,157.21580958366394,,,,,,,,,,,,,,,,,,,,,,,,,,,,,,,,,,,,,,,,,,,,,,,,,,,,,,,,,,,,,,,,,,,,,,,,,,,,,,,,,78.0,78.0,57.0,133.0,133.0,57.0,1.0,1.2,-202,-2,0,-9,191,0,157.20105385780334,157.20113039016724,157.20399284362793,157.21580958366394,157.3711977005005,157.3711977005005,157.3711977005005,157.3711977005005,157.3711977005005,157.3711977005005,157.3711977005005,159.13731718063354,2,1.9169795513153076,None,,,,,,,,,,,,,,,,,,30,4,2025-02-18_17h03.42.887,comp,2024.2.4,57.27130347631005,2025-02-18 17h03.51.169108 -0500,
45,45,0,filler_square,None,None,None,None,None,None,None,None,None,None,2,1.1879785060882568,None,,,,,0,0,0,0,0,45,45,207,159.15388369560242,,,,,,,,,,,,,,,,,,,,,,,,,,,,,,,,,,,,,,,,,,,,,,,,,,,,,,,,,,,,,,,,,,,,,,,,,,,,,,,,,113.13737992927847,103.52606596192547,170.62132566176712,170.62132566176712,158.77651754552394,146.54188276522765,3.0,3.2,-233,-279,0,-17,255,290,159.13913655281067,159.13921523094177,159.14303827285767,159.15388369560242,159.30383276939392,159.30383276939392,159.30383276939392,159.30383276939392,159.30383276939392,159.30383276939392,159.30383276939392,160.35326957702637,2,1.1879785060882568,None,,,,,,,,,,,,,,,,,,30,4,2025-02-18_17h03.42.887,comp,2024.2.4,57.27130347631005,2025-02-18 17h03.51.169108 -0500,
46,46,0,critical,hwd,35.0,2.1,upper,200.0,125.0,125.0,200.0,127.0,127.0,2,2.684051275253296,None,,,,,0,0,0,0,0,46,46,17,160.36863207817078,,,,,,,,,,,,,,,,,,,,,,,,,,,,,,,,,,,,,,,,,,,,,,,,,,,,,,,,,,,,,,,,,,,,,,,,,,,,,,,,,200.0,125.0,125.0,200.0,127.0,127.0,2.1,2.12,-258,-279,0,-275,260,282,160.35477805137634,160.35485577583313,160.35794949531555,160.36863207817078,160.52212858200073,160.52212858200073,160.52212858200073,160.52212858200073,160.52212858200073,160.52212858200073,160.52212858200073,163.06803488731384,2,2.684051275253296,None,,,,,,,,,,,,,,,,,,30,4,2025-02-18_17h03.42.887,comp,2024.2.4,57.27130347631005,2025-02-18 17h03.51.169108 -0500,
47,47,0,critical,wdh,35.0,2.1,lower,57.0,133.0,70.0,70.0,133.0,57.0,3,4.081279993057251,None,,,,,0,0,0,0,0,47,47,8,163.08383297920227,,,,,,,,,,,,,,,,,,,,,,,,,,,,,,,,,,,,,,,,,,,,,,,,,,,,,,,,,,,,,,,,,,,,,,,,,,,,,,,,,57.0,133.0,70.0,70.0,133.0,57.0,2.1,2.12,-198,-250,0,-261,160,281,163.06960153579712,163.069678068161,163.07254147529602,163.08383297920227,163.22038221359253,163.22038221359253,163.22038221359253,163.22038221359253,163.22038221359253,163.22038221359253,163.22038221359253,167.16915774345398,3,4.081279993057251,None,,,,,,,,,,,,,,,,,,30,4,2025-02-18_17h03.42.887,comp,2024.2.4,57.27130347631005,2025-02-18 17h03.51.169108 -0500,
48,48,0,critical,dwh,20.0,4.0,lower,78.0,78.0,57.0,133.0,133.0,57.0,3,1.2592599391937256,None,,,,,0,0,0,0,0,48,48,70,167.18538117408752,,,,,,,,,,,,,,,,,,,,,,,,,,,,,,,,,,,,,,,,,,,,,,,,,,,,,,,,,,,,,,,,,,,,,,,,,,,,,,,,,78.0,78.0,57.0,133.0,133.0,57.0,4.0,4.1,-202,-255,0,2,191,-282,167.1707684993744,167.17084455490112,167.17407417297363,167.18538117408752,167.3371822834015,167.3371822834015,167.3371822834015,167.3371822834015,167.3371822834015,167.3371822834015,167.3371822834015,168.4550211429596,3,1.2592599391937256,None,,,,,,,,,,,,,,,,,,30,4,2025-02-18_17h03.42.887,comp,2024.2.4,57.27130347631005,2025-02-18 17h03.51.169108 -0500,
49,49,0,critical,whd,20.0,4.0,upper,125.0,200.0,200.0,125.0,141.0,141.0,1,1.902134895324707,None,,,,,0,0,0,0,0,49,49,95,168.4708173274994,,,,,,,,,,,,,,,,,,,,,,,,,,,,,,,,,,,,,,,,,,,,,,,,,,,,,,,,,,,,,,,,,,,,,,,,,,,,,,,,,125.0,200.0,200.0,125.0,141.0,141.0,4.0,4.1,-258,-250,0,-10,229,-260,168.45653176307678,168.45660758018494,168.4596917629242,168.4708173274994,168.62078022956848,168.62078022956848,168.62078022956848,168.62078022956848,168.62078022956848,168.62078022956848,168.62078022956848,170.37999415397644,1,1.902134895324707,None,,,,,,,,,,,,,,,,,,30,4,2025-02-18_17h03.42.887,comp,2024.2.4,57.27130347631005,2025-02-18 17h03.51.169108 -0500,
50,50,0,filler_random,None,None,None,None,None,None,None,None,None,None,2,1.4207432270050049,None,,,,,0,0,0,0,0,50,50,132,170.40021967887878,,,,,,,,,,,,,,,,,,,,,,,,,,,,,,,,,,,,,,,,,,,,,,,,,,,,,,,,,,,,,,,,,,,,,,,,,,,,,,,,,184.15998079215592,96.9303733774448,163.91006624385977,131.19793404614592,63.09431980581675,95.8733186963481,1.0,1.1,-690,285,-480,263,-270,285,170.38168954849243,170.381765127182,170.38458132743835,170.40021967887878,170.53862380981445,170.53862380981445,170.53862380981445,170.53862380981445,170.53862380981445,170.53862380981445,170.53862380981445,171.8287272453308,2,1.4207432270050049,None,,,,,,,,,,,,,,,,,,30,4,2025-02-18_17h03.42.887,comp,2024.2.4,57.27130347631005,2025-02-18 17h03.51.169108 -0500,
51,51,0,filler_random,None,None,None,None,None,None,None,None,None,None,2,1.20438814163208,None,,,,,0,0,0,0,0,51,51,147,171.84819436073303,,,,,,,,,,,,,,,,,,,,,,,,,,,,,,,,,,,,,,,,,,,,,,,,,,,,,,,,,,,,,,,,,,,,,,,,,,,,,,,,,82.71906640756936,130.063486559818,101.08557711698816,197.27307074239172,59.02278094169132,191.39654141143356,2.2,2.21,-260,-263,0,284,290,280,171.83044838905334,171.83052897453308,171.8333728313446,171.84819436073303,171.9894404411316,171.9894404411316,171.9894404411316,171.9894404411316,171.9894404411316,171.9894404411316,171.9894404411316,173.0558958053589,2,1.20438814163208,None,,,,,,,,,,,,,,,,,,30,4,2025-02-18_17h03.42.887,comp,2024.2.4,57.27130347631005,2025-02-18 17h03.51.169108 -0500,
52,52,0,filler_random,None,None,None,None,None,None,None,None,None,None,3,1.9251048564910889,None,,,,,0,0,0,0,0,52,52,145,173.0714409351349,,,,,,,,,,,,,,,,,,,,,,,,,,,,,,,,,,,,,,,,,,,,,,,,,,,,,,,,,,,,,,,,,,,,,,,,,,,,,,,,,191.56917111156397,61.11779543012226,113.12961831158572,123.01701866691404,190.82612200308128,174.82748258768567,3.0,3.2,-188,-251,0,-19,245,278,173.05761790275574,173.05769777297974,173.06085777282715,173.0714409351349,173.22252011299133,173.22252011299133,173.22252011299133,173.22252011299133,173.22252011299133,173.22252011299133,173.22252011299133,175.0128710269928,3,1.9251048564910889,None,,,,,,,,,,,,,,,,,,30,4,2025-02-18_17h03.42.887,comp,2024.2.4,57.27130347631005,2025-02-18 17h03.51.169108 -0500,
53,53,0,critical,hdw,20.0,4.0,lower,133.0,57.0,78.0,78.0,57.0,133.0,3,3.0956335067749023,None,,,,,0,0,0,0,0,53,53,118,175.0290355682373,,,,,,,,,,,,,,,,,,,,,,,,,,,,,,,,,,,,,,,,,,,,,,,,,,,,,,,,,,,,,,,,,,,,,,,,,,,,,,,,,133.0,57.0,78.0,78.0,57.0,133.0,4.0,4.2,-164,1,0,-276,202,-15,175.01446175575256,175.01453685760498,175.0178325176239,175.0290355682373,175.17105412483215,175.17105412483215,175.17105412483215,175.17105412483215,175.17105412483215,175.17105412483215,175.17105412483215,178.14385294914246,3,3.0956335067749023,None,,,,,,,,,,,,,,,,,,30,4,2025-02-18_17h03.42.887,comp,2024.2.4,57.27130347631005,2025-02-18 17h03.51.169108 -0500,
54,54,0,critical,whd,35.0,3.0,upper,125.0,200.0,200.0,125.0,127.0,127.0,1,1.3965098857879639,None,,,,,0,0,0,0,0,54,54,87,178.1601755619049,,,,,,,,,,,,,,,,,,,,,,,,,,,,,,,,,,,,,,,,,,,,,,,,,,,,,,,,,,,,,,,,,,,,,,,,,,,,,,,,,125.0,200.0,200.0,125.0,127.0,127.0,3.0,3.2,-258,-254,0,3,222,254,178.1456105709076,178.1457359790802,178.14909386634827,178.1601755619049,178.30558323860168,178.30558323860168,178.30558323860168,178.30558323860168,178.30558323860168,178.30558323860168,178.30558323860168,179.56077408790588,1,1.3965098857879639,None,,,,,,,,,,,,,,,,,,30,4,2025-02-18_17h03.42.887,comp,2024.2.4,57.27130347631005,2025-02-18 17h03.51.169108 -0500,
55,55,0,filler_square,None,None,None,None,None,None,None,None,None,None,1,1.6101140975952148,None,,,,,0,0,0,0,0,55,55,178,179.57864356040955,,,,,,,,,,,,,,,,,,,,,,,,,,,,,,,,,,,,,,,,,,,,,,,,,,,,,,,,,,,,,,,,,,,,,,,,,,,,,,,,,81.82674499548772,81.82674499548772,70.59524471933437,67.27074660636136,74.50903303438588,73.49644669176854,4.0,4.2,-171,-18,0,-278,166,0,179.56269097328186,179.56278681755066,179.56574153900146,179.57864356040955,179.724294424057,179.724294424057,179.724294424057,179.724294424057,179.724294424057,179.724294424057,179.724294424057,181.19248175621033,1,1.6101140975952148,None,,,,,,,,,,,,,,,,,,30,4,2025-02-18_17h03.42.887,comp,2024.2.4,57.27130347631005,2025-02-18 17h03.51.169108 -0500,
56,56,0,critical,whd,35.0,2.1,upper,125.0,200.0,200.0,125.0,127.0,127.0,1,2.732825756072998,None,,,,,0,0,0,0,0,56,56,37,181.20848941802979,,,,,,,,,,,,,,,,,,,,,,,,,,,,,,,,,,,,,,,,,,,,,,,,,,,,,,,,,,,,,,,,,,,,,,,,,,,,,,,,,125.0,200.0,200.0,125.0,127.0,127.0,2.1,2.12,-258,-275,0,-266,222,273,181.19406723976135,181.1941430568695,181.19768166542053,181.20848941802979,181.3611295223236,181.3611295223236,181.3611295223236,181.3611295223236,181.3611295223236,181.3611295223236,181.3611295223236,183.9594783782959,1,2.732825756072998,None,,,,,,,,,,,,,,,,,,30,4,2025-02-18_17h03.42.887,comp,2024.2.4,57.27130347631005,2025-02-18 17h03.51.169108 -0500,
57,57,0,filler_random,None,None,None,None,None,None,None,None,None,None,3,2.405595064163208,None,,,,,0,0,0,0,0,57,57,169,183.97511982917786,,,,,,,,,,,,,,,,,,,,,,,,,,,,,,,,,,,,,,,,,,,,,,,,,,,,,,,,,,,,,,,,,,,,,,,,,,,,,,,,,90.52843258287213,117.53605656044434,82.6027284434818,136.56736513889564,142.1633896106027,91.89502625364116,3.0,3.2,-223,-252,0,10,210,277,183.96119904518127,183.96129179000854,183.96471190452576,183.97511982917786,184.1293466091156,184.1293466091156,184.1293466091156,184.1293466091156,184.1293466091156,184.1293466091156,184.1293466091156,186.3926067352295,3,2.405595064163208,None,,,,,,,,,,,,,,,,,,30,4,2025-02-18_17h03.42.887,comp,2024.2.4,57.27130347631005,2025-02-18 17h03.51.169108 -0500,
58,58,0,filler_random,None,None,None,None,None,None,None,None,None,None,2,1.2120282649993896,None,,,,,0,0,0,0,0,58,58,140,186.40912985801697,,,,,,,,,,,,,,,,,,,,,,,,,,,,,,,,,,,,,,,,,,,,,,,,,,,,,,,,,,,,,,,,,,,,,,,,,,,,,,,,,145.53253855511613,134.92546642575576,157.42029999276912,154.09165386474172,86.84851120423829,146.67009811962834,4.0,4.1,-241,-262,0,18,246,-273,186.3943428993225,186.39447474479675,186.3979136943817,186.40912985801697,186.5623917579651,186.5623917579651,186.5623917579651,186.5623917579651,186.5623917579651,186.5623917579651,186.5623917579651,187.62804865837097,2,1.2120282649993896,None,,,,,,,,,,,,,,,,,,30,4,2025-02-18_17h03.42.887,comp,2024.2.4,57.27130347631005,2025-02-18 17h03.51.169108 -0500,
59,59,0,critical,whd,20.0,4.0,lower,57.0,133.0,133.0,57.0,78.0,78.0,1,3.6528539657592773,None,,,,,0,0,0,0,0,59,59,94,187.64773440361023,,,,,,,,,,,,,,,,,,,,,,,,,,,,,,,,,,,,,,,,,,,,,,,,,,,,,,,,,,,,,,,,,,,,,,,,,,,,,,,,,57.0,133.0,133.0,57.0,78.0,78.0,4.0,4.2,-191,-10,0,-260,164,17,187.62961411476135,187.62970638275146,187.6329481601715,187.64773440361023,187.79491662979126,187.79491662979126,187.79491662979126,187.79491662979126,187.79491662979126,187.79491662979126,187.79491662979126,191.310373544693,1,3.6528539657592773,None,,,,,,,,,,,,,,,,,,30,4,2025-02-18_17h03.42.887,comp,2024.2.4,57.27130347631005,2025-02-18 17h03.51.169108 -0500,
60,60,0,critical,hdw,35.0,2.1,upper,200.0,125.0,127.0,127.0,125.0,200.0,3,1.685389757156372,None,,,,,0,0,0,0,0,60,60,45,191.3273057937622,,,,,,,,,,,,,,,,,,,,,,,,,,,,,,,,,,,,,,,,,,,,,,,,,,,,,,,,,,,,,,,,,,,,,,,,,,,,,,,,,200.0,125.0,127.0,127.0,125.0,200.0,2.1,2.12,-222,-286,0,-290,260,264,191.31197714805603,191.31205248832703,191.31549644470215,191.3273057937622,191.47502613067627,191.47502613067627,191.47502613067627,191.47502613067627,191.47502613067627,191.47502613067627,191.47502613067627,193.01536440849304,3,1.685389757156372,None,,,,,,,,,,,,,,,,,,30,4,2025-02-18_17h03.42.887,comp,2024.2.4,57.27130347631005,2025-02-18 17h03.51.169108 -0500,
61,61,0,critical,whd,35.0,3.0,lower,57.0,133.0,133.0,57.0,70.0,70.0,1,1.7851812839508057,None,,,,,0,0,0,0,0,61,61,86,193.03607845306396,,,,,,,,,,,,,,,,,,,,,,,,,,,,,,,,,,,,,,,,,,,,,,,,,,,,,,,,,,,,,,,,,,,,,,,,,,,,,,,,,57.0,133.0,133.0,57.0,70.0,70.0,3.0,3.2,-191,-254,0,10,160,281,193.01689410209656,193.01696944236755,193.0202841758728,193.03607845306396,193.1788878440857,193.1788878440857,193.1788878440857,193.1788878440857,193.1788878440857,193.1788878440857,193.1788878440857,194.82867860794067,1,1.7851812839508057,None,,,,,,,,,,,,,,,,,,30,4,2025-02-18_17h03.42.887,comp,2024.2.4,57.27130347631005,2025-02-18 17h03.51.169108 -0500,
62,62,0,filler_square,None,None,None,None,None,None,None,None,None,None,2,5.851758241653442,None,,,,,0,0,0,0,0,62,62,206,194.84896755218506,,,,,,,,,,,,,,,,,,,,,,,,,,,,,,,,,,,,,,,,,,,,,,,,,,,,,,,,,,,,,,,,,,,,,,,,,,,,,,,,,69.6278207440785,74.66320550535227,81.26660990545211,81.26660990545211,77.49214476830436,79.5174590499524,2.2,2.21,-174,-268,0,259,176,262,194.83052897453308,194.83065915107727,194.83392548561096,194.84896755218506,194.98393893241882,194.98393893241882,194.98393893241882,194.98393893241882,194.98393893241882,194.98393893241882,194.98393893241882,200.71465468406677,2,5.851758241653442,None,,,,,,,,,,,,,,,,,,30,4,2025-02-18_17h03.42.887,comp,2024.2.4,57.27130347631005,2025-02-18 17h03.51.169108 -0500,
63,63,0,filler_square,None,None,None,None,None,None,None,None,None,None,3,1.923612117767334,None,,,,,0,0,0,0,0,63,63,198,200.7300591468811,,,,,,,,,,,,,,,,,,,,,,,,,,,,,,,,,,,,,,,,,,,,,,,,,,,,,,,,,,,,,,,,,,,,,,,,,,,,,,,,,165.92778168116797,159.480440335273,171.88891217194956,89.08269459364422,174.22553169690298,174.22553169690298,2.2,2.21,-220,-256,0,268,228,287,200.71638798713684,200.71648621559143,200.7198178768158,200.7300591468811,200.8786792755127,200.8786792755127,200.8786792755127,200.8786792755127,200.8786792755127,200.8786792755127,200.8786792755127,202.66523694992065,3,1.923612117767334,None,,,,,,,,,,,,,,,,,,30,4,2025-02-18_17h03.42.887,comp,2024.2.4,57.27130347631005,2025-02-18 17h03.51.169108 -0500,
64,64,0,filler_random,None,None,None,None,None,None,None,None,None,None,1,3.339726209640503,None,,,,,0,0,0,0,0,64,64,161,202.68178725242615,,,,,,,,,,,,,,,,,,,,,,,,,,,,,,,,,,,,,,,,,,,,,,,,,,,,,,,,,,,,,,,,,,,,,,,,,,,,,,,,,95.16649870426363,148.4888526818525,97.00775085172198,150.97149986534166,86.33924653079501,114.82906518080021,2.2,2.22,-246,266,0,-260,229,-257,202.66716241836548,202.66729617118835,202.6706578731537,202.68178725242615,202.83093166351318,202.83093166351318,202.83093166351318,202.83093166351318,202.83093166351318,202.83093166351318,202.83093166351318,206.03301739692688,1,3.339726209640503,None,,,,,,,,,,,,,,,,,,30,4,2025-02-18_17h03.42.887,comp,2024.2.4,57.27130347631005,2025-02-18 17h03.51.169108 -0500,
65,65,0,critical,hwd,35.0,2.1,upper,200.0,125.0,125.0,200.0,127.0,127.0,2,7.067123889923096,None,,,,,0,0,0,0,0,65,65,41,206.04960894584656,,,,,,,,,,,,,,,,,,,,,,,,,,,,,,,,,,,,,,,,,,,,,,,,,,,,,,,,,,,,,,,,,,,,,,,,,,,,,,,,,200.0,125.0,125.0,200.0,127.0,127.0,2.1,2.12,-258,-289,0,-267,260,284,206.0345275402069,206.03462386131287,206.03862190246582,206.04960894584656,206.1983494758606,206.1983494758606,206.1983494758606,206.1983494758606,206.1983494758606,206.1983494758606,206.1983494758606,213.13104462623596,2,7.067123889923096,None,,,,,,,,,,,,,,,,,,30,4,2025-02-18_17h03.42.887,comp,2024.2.4,57.27130347631005,2025-02-18 17h03.51.169108 -0500,
66,66,0,critical,dhw,20.0,4.0,upper,141.0,141.0,200.0,125.0,125.0,200.0,3,2.487610101699829,None,,,,,0,0,0,0,0,66,66,59,213.1492314338684,,,,,,,,,,,,,,,,,,,,,,,,,,,,,,,,,,,,,,,,,,,,,,,,,,,,,,,,,,,,,,,,,,,,,,,,,,,,,,,,,141.0,141.0,200.0,125.0,125.0,200.0,4.0,4.1,-229,-252,0,3,258,-260,213.13259410858154,213.13266706466675,213.13556003570557,213.1492314338684,213.30135846138,213.30135846138,213.30135846138,213.30135846138,213.30135846138,213.30135846138,213.30135846138,215.63901329040527,3,2.487610101699829,None,,,,,,,,,,,,,,,,,,30,4,2025-02-18_17h03.42.887,comp,2024.2.4,57.27130347631005,2025-02-18 17h03.51.169108 -0500,
67,67,0,filler_random,None,None,None,None,None,None,None,None,None,None,2,1.2831370830535889,None,,,,,0,0,0,0,0,67,67,143,215.65947151184082,,,,,,,,,,,,,,,,,,,,,,,,,,,,,,,,,,,,,,,,,,,,,,,,,,,,,,,,,,,,,,,,,,,,,,,,,,,,,,,,,57.40055496116292,62.27458120829196,193.03229399786414,163.5689919888756,190.71151383781657,71.92768810065226,4.0,4.2,-209,-6,0,-270,214,-18,215.64127564430237,215.64135646820068,215.64430689811707,215.65947151184082,215.8042140007019,215.8042140007019,215.8042140007019,215.8042140007019,215.8042140007019,215.8042140007019,215.8042140007019,216.95349884033203,2,1.2831370830535889,None,,,,,,,,,,,,,,,,,,30,4,2025-02-18_17h03.42.887,comp,2024.2.4,57.27130347631005,2025-02-18 17h03.51.169108 -0500,
68,68,0,filler_random,None,None,None,None,None,None,None,None,None,None,3,1.83489990234375,None,,,,,0,0,0,0,0,68,68,135,216.96965956687927,,,,,,,,,,,,,,,,,,,,,,,,,,,,,,,,,,,,,,,,,,,,,,,,,,,,,,,,,,,,,,,,,,,,,,,,,,,,,,,,,122.95289314961055,75.02419677722206,84.21112609820676,159.7843260554758,199.81813792477422,135.4323928563196,4.0,4.2,-213,18,0,-271,244,2,216.9552824497223,216.9554407596588,216.95875144004822,216.96965956687927,217.12668180465698,217.12668180465698,217.12668180465698,217.12668180465698,217.12668180465698,217.12668180465698,217.12668180465698,218.81974267959595,3,1.83489990234375,None,,,,,,,,,,,,,,,,,,30,4,2025-02-18_17h03.42.887,comp,2024.2.4,57.27130347631005,2025-02-18 17h03.51.169108 -0500,
69,69,0,filler_random,None,None,None,None,None,None,None,None,None,None,1,1.9990298748016357,None,,,,,0,0,0,0,0,69,69,166,218.83814573287964,,,,,,,,,,,,,,,,,,,,,,,,,,,,,,,,,,,,,,,,,,,,,,,,,,,,,,,,,,,,,,,,,,,,,,,,,,,,,,,,,178.85127278730835,162.77822371885372,120.40626477447668,78.32726994604107,101.55190717879618,112.19254559273492,2.1,2.11,-217,282,0,273,191,-258,218.82138800621033,218.8214955329895,218.8245348930359,218.83814573287964,218.98712468147278,218.98712468147278,218.98712468147278,218.98712468147278,218.98712468147278,218.98712468147278,218.98712468147278,220.83928418159485,1,1.9990298748016357,None,,,,,,,,,,,,,,,,,,30,4,2025-02-18_17h03.42.887,comp,2024.2.4,57.27130347631005,2025-02-18 17h03.51.169108 -0500,
70,70,0,critical,dhw,20.0,1.0,lower,78.0,78.0,133.0,57.0,57.0,133.0,2,4.061824798583984,None,,,,,0,0,0,0,0,70,70,54,220.8554904460907,,,,,,,,,,,,,,,,,,,,,,,,,,,,,,,,,,,,,,,,,,,,,,,,,,,,,,,,,,,,,,,,,,,,,,,,,,,,,,,,,78.0,78.0,133.0,57.0,57.0,133.0,1.0,1.1,-644,281,-480,272,-289,288,220.8408100605011,220.840886592865,220.8444697856903,220.8554904460907,221.00204300880432,221.00204300880432,221.00204300880432,221.00204300880432,221.00204300880432,221.00204300880432,221.00204300880432,224.92231965065002,2,4.061824798583984,None,,,,,,,,,,,,,,,,,,30,4,2025-02-18_17h03.42.887,comp,2024.2.4,57.27130347631005,2025-02-18 17h03.51.169108 -0500,
71,71,0,critical,dhw,20.0,2.1,upper,141.0,141.0,200.0,125.0,125.0,200.0,3,2.546505928039551,None,,,,,0,0,0,0,0,71,71,3,224.9387948513031,,,,,,,,,,,,,,,,,,,,,,,,,,,,,,,,,,,,,,,,,,,,,,,,,,,,,,,,,,,,,,,,,,,,,,,,,,,,,,,,,141.0,141.0,200.0,125.0,125.0,200.0,2.1,2.12,-229,-263,0,-253,258,267,224.92395615577698,224.9240334033966,224.92748880386353,224.9387948513031,225.094313621521,225.094313621521,225.094313621521,225.094313621521,225.094313621521,225.094313621521,225.094313621521,227.4916934967041,3,2.546505928039551,None,,,,,,,,,,,,,,,,,,30,4,2025-02-18_17h03.42.887,comp,2024.2.4,57.27130347631005,2025-02-18 17h03.51.169108 -0500,
72,72,0,critical,whd,35.0,2.1,lower,57.0,133.0,133.0,57.0,70.0,70.0,2,2.153111219406128,None,,,,,0,0,0,0,0,72,72,12,227.50751161575317,,,,,,,,,,,,,,,,,,,,,,,,,,,,,,,,,,,,,,,,,,,,,,,,,,,,,,,,,,,,,,,,,,,,,,,,,,,,,,,,,57.0,133.0,133.0,57.0,70.0,70.0,2.1,2.11,-191,282,0,250,160,-272,227.49331283569336,227.493390083313,227.49635076522827,227.50751161575317,227.65543913841248,227.65543913841248,227.65543913841248,227.65543913841248,227.65543913841248,227.65543913841248,227.65543913841248,229.6654508113861,2,2.153111219406128,None,,,,,,,,,,,,,,,,,,30,4,2025-02-18_17h03.42.887,comp,2024.2.4,57.27130347631005,2025-02-18 17h03.51.169108 -0500,
73,73,0,filler_random,None,None,None,None,None,None,None,None,None,None,2,1.4091041088104248,None,,,,,0,0,0,0,0,73,73,157,229.6837112903595,,,,,,,,,,,,,,,,,,,,,,,,,,,,,,,,,,,,,,,,,,,,,,,,,,,,,,,,,,,,,,,,,,,,,,,,,,,,,,,,,124.38796675026342,97.52257071027819,149.3475357983917,160.33927875300586,137.07238803937855,164.89977974581578,2.1,2.11,-225,275,0,280,259,-274,229.66716504096985,229.6672534942627,229.67058300971985,229.6837112903595,229.8250024318695,229.8250024318695,229.8250024318695,229.8250024318695,229.8250024318695,229.8250024318695,229.8250024318695,231.10789895057678,2,1.4091041088104248,None,,,,,,,,,,,,,,,,,,30,4,2025-02-18_17h03.42.887,comp,2024.2.4,57.27130347631005,2025-02-18 17h03.51.169108 -0500,
74,74,0,filler_square,None,None,None,None,None,None,None,None,None,None,2,1.0093674659729004,None,,,,,0,0,0,0,0,74,74,189,231.1241433620453,,,,,,,,,,,,,,,,,,,,,,,,,,,,,,,,,,,,,,,,,,,,,,,,,,,,,,,,,,,,,,,,,,,,,,,,,,,,,,,,,92.90739925385125,147.62435936319008,161.19131595355077,161.19131595355077,79.87489683467645,147.60328156679185,1.0,1.1,-730,288,-480,287,-230,284,231.109783411026,231.10988879203796,231.11291885375977,231.1241433620453,231.27676677703857,231.27676677703857,231.27676677703857,231.27676677703857,231.27676677703857,231.27676677703857,231.27676677703857,232.14178085327148,2,1.0093674659729004,None,,,,,,,,,,,,,,,,,,30,4,2025-02-18_17h03.42.887,comp,2024.2.4,57.27130347631005,2025-02-18 17h03.51.169108 -0500,
75,75,0,filler_square,None,None,None,None,None,None,None,None,None,None,3,1.5008480548858643,None,,,,,0,0,0,0,0,75,75,195,232.15978574752808,,,,,,,,,,,,,,,,,,,,,,,,,,,,,,,,,,,,,,,,,,,,,,,,,,,,,,,,,,,,,,,,,,,,,,,,,,,,,,,,,87.4693631543947,90.5803912126483,79.97673134841504,60.76925322384914,163.13864557691102,163.13864557691102,4.0,4.1,-172,-255,0,-7,208,-288,232.143550157547,232.14362597465515,232.14652681350708,232.15978574752808,232.30870032310486,232.30870032310486,232.30870032310486,232.30870032310486,232.30870032310486,232.30870032310486,232.30870032310486,233.67604684829712,3,1.5008480548858643,None,,,,,,,,,,,,,,,,,,30,4,2025-02-18_17h03.42.887,comp,2024.2.4,57.27130347631005,2025-02-18 17h03.51.169108 -0500,
76,76,0,filler_square,None,None,None,None,None,None,None,None,None,None,1,1.3439159393310547,None,,,,,0,0,0,0,0,76,76,179,233.69350719451904,,,,,,,,,,,,,,,,,,,,,,,,,,,,,,,,,,,,,,,,,,,,,,,,,,,,,,,,,,,,,,,,,,,,,,,,,,,,,,,,,151.71678089254755,151.71678089254755,89.0573713636887,137.39031828715105,138.23171146065482,65.29346663452318,2.2,2.22,-241,254,0,-259,197,-251,233.67779922485352,233.67787528038025,233.68088698387146,233.69350719451904,233.84102988243103,233.84102988243103,233.84102988243103,233.84102988243103,233.84102988243103,233.84102988243103,233.84102988243103,235.04566025733948,1,1.3439159393310547,None,,,,,,,,,,,,,,,,,,30,4,2025-02-18_17h03.42.887,comp,2024.2.4,57.27130347631005,2025-02-18 17h03.51.169108 -0500,
77,77,0,filler_square,None,None,None,None,None,None,None,None,None,None,2,1.6903331279754639,None,,,,,0,0,0,0,0,77,77,181,235.06651782989502,,,,,,,,,,,,,,,,,,,,,,,,,,,,,,,,,,,,,,,,,,,,,,,,,,,,,,,,,,,,,,,,,,,,,,,,,,,,,,,,,109.48349339322941,109.48349339322941,84.14747198625795,107.319605474859,64.61233206247384,96.25867881663433,2.2,2.21,-204,-272,0,288,198,267,235.0478367805481,235.04791688919067,235.0508086681366,235.06651782989502,235.20557188987732,235.20557188987732,235.20557188987732,235.20557188987732,235.20557188987732,235.20557188987732,235.20557188987732,236.7622582912445,2,1.6903331279754639,None,,,,,,,,,,,,,,,,,,30,4,2025-02-18_17h03.42.887,comp,2024.2.4,57.27130347631005,2025-02-18 17h03.51.169108 -0500,
78,78,0,critical,hdw,35.0,2.1,lower,133.0,57.0,70.0,70.0,57.0,133.0,3,2.3468410968780518,None,,,,,0,0,0,0,0,78,78,44,236.77793407440186,,,,,,,,,,,,,,,,,,,,,,,,,,,,,,,,,,,,,,,,,,,,,,,,,,,,,,,,,,,,,,,,,,,,,,,,,,,,,,,,,133.0,57.0,70.0,70.0,57.0,133.0,2.1,2.12,-160,-254,0,-269,198,270,236.76376247406006,236.7638394832611,236.76707863807678,236.77793407440186,236.9301209449768,236.9301209449768,236.9301209449768,236.9301209449768,236.9301209449768,236.9301209449768,236.9301209449768,239.12695908546448,3,2.3468410968780518,None,,,,,,,,,,,,,,,,,,30,4,2025-02-18_17h03.42.887,comp,2024.2.4,57.27130347631005,2025-02-18 17h03.51.169108 -0500,
79,79,0,filler_random,None,None,None,None,None,None,None,None,None,None,3,1.381145715713501,None,,,,,0,0,0,0,0,79,79,137,239.14346837997437,,,,,,,,,,,,,,,,,,,,,,,,,,,,,,,,,,,,,,,,,,,,,,,,,,,,,,,,,,,,,,,,,,,,,,,,,,,,,,,,,108.2642517120732,64.16124005092324,57.12678882950337,92.30162840099237,191.0852112773418,182.65037026005172,4.0,4.1,-174,-252,0,-16,233,-286,239.12860703468323,239.12868452072144,239.13272380828857,239.14346837997437,239.29395198822021,239.29395198822021,239.29395198822021,239.29395198822021,239.29395198822021,239.29395198822021,239.29395198822021,240.52755880355835,3,1.381145715713501,None,,,,,,,,,,,,,,,,,,30,4,2025-02-18_17h03.42.887,comp,2024.2.4,57.27130347631005,2025-02-18 17h03.51.169108 -0500,
80,80,0,critical,dhw,35.0,2.1,upper,127.0,127.0,200.0,125.0,125.0,200.0,3,2.6765737533569336,None,,,,,0,0,0,0,0,80,80,1,240.54403281211853,,,,,,,,,,,,,,,,,,,,,,,,,,,,,,,,,,,,,,,,,,,,,,,,,,,,,,,,,,,,,,,,,,,,,,,,,,,,,,,,,127.0,127.0,200.0,125.0,125.0,200.0,2.1,2.11,-222,277,0,278,258,-282,240.52908396720886,240.5291600227356,240.53317546844482,240.54403281211853,240.69263243675232,240.69263243675232,240.69263243675232,240.69263243675232,240.69263243675232,240.69263243675232,240.69263243675232,243.23259496688843,3,2.6765737533569336,None,,,,,,,,,,,,,,,,,,30,4,2025-02-18_17h03.42.887,comp,2024.2.4,57.27130347631005,2025-02-18 17h03.51.169108 -0500,
81,81,0,critical,whd,20.0,2.1,lower,57.0,133.0,133.0,57.0,78.0,78.0,2,1.6239697933197021,None,,,,,0,0,0,0,0,81,81,14,243.25327253341675,,,,,,,,,,,,,,,,,,,,,,,,,,,,,,,,,,,,,,,,,,,,,,,,,,,,,,,,,,,,,,,,,,,,,,,,,,,,,,,,,57.0,133.0,133.0,57.0,78.0,78.0,2.1,2.11,-191,269,0,280,164,-254,243.23423075675964,243.23431873321533,243.23755979537964,243.25327253341675,243.39780807495117,243.39780807495117,243.39780807495117,243.39780807495117,243.39780807495117,243.39780807495117,243.39780807495117,244.88583397865295,2,1.6239697933197021,None,,,,,,,,,,,,,,,,,,30,4,2025-02-18_17h03.42.887,comp,2024.2.4,57.27130347631005,2025-02-18 17h03.51.169108 -0500,
82,82,0,filler_square,None,None,None,None,None,None,None,None,None,None,3,1.1042673587799072,None,,,,,0,0,0,0,0,82,82,208,244.90096759796143,,,,,,,,,,,,,,,,,,,,,,,,,,,,,,,,,,,,,,,,,,,,,,,,,,,,,,,,,,,,,,,,,,,,,,,,,,,,,,,,,157.7141909789539,155.7874884116103,159.0742826835699,66.64831111408293,179.73915595893612,179.73915595893612,1.0,1.2,-207,10,0,-17,219,-5,244.88748788833618,244.88756489753723,244.89034008979797,244.90096759796143,245.047048330307,245.047048330307,245.047048330307,245.047048330307,245.047048330307,245.047048330307,245.047048330307,246.0145981311798,3,1.1042673587799072,None,,,,,,,,,,,,,,,,,,30,4,2025-02-18_17h03.42.887,comp,2024.2.4,57.27130347631005,2025-02-18 17h03.51.169108 -0500,
83,83,0,filler_square,None,None,None,None,None,None,None,None,None,None,3,1.030547857284546,None,,,,,0,0,0,0,0,83,83,196,246.03024053573608,,,,,,,,,,,,,,,,,,,,,,,,,,,,,,,,,,,,,,,,,,,,,,,,,,,,,,,,,,,,,,,,,,,,,,,,,,,,,,,,,86.79259940978109,73.03504980198191,157.34681412881594,149.10150242400513,188.9589561513973,188.9589561513973,3.0,3.2,-207,-285,0,-19,265,262,246.0163550376892,246.01647233963013,246.01965808868408,246.03024053573608,246.1783802509308,246.1783802509308,246.1783802509308,246.1783802509308,246.1783802509308,246.1783802509308,246.1783802509308,247.06268620491028,3,1.030547857284546,None,,,,,,,,,,,,,,,,,,30,4,2025-02-18_17h03.42.887,comp,2024.2.4,57.27130347631005,2025-02-18 17h03.51.169108 -0500,
84,84,0,filler_random,None,None,None,None,None,None,None,None,None,None,1,2.869544744491577,None,,,,,0,0,0,0,0,84,84,152,247.07916045188904,,,,,,,,,,,,,,,,,,,,,,,,,,,,,,,,,,,,,,,,,,,,,,,,,,,,,,,,,,,,,,,,,,,,,,,,,,,,,,,,,175.3268471477533,173.54371568065983,147.9844436777009,196.17481267898972,74.54199225301863,156.94001597381856,4.0,4.2,-281,9,0,-278,273,20,247.06432247161865,247.06439852714539,247.06858110427856,247.07916045188904,247.22656154632568,247.22656154632568,247.22656154632568,247.22656154632568,247.22656154632568,247.22656154632568,247.22656154632568,249.9627068042755,1,2.869544744491577,None,,,,,,,,,,,,,,,,,,30,4,2025-02-18_17h03.42.887,comp,2024.2.4,57.27130347631005,2025-02-18 17h03.51.169108 -0500,
85,85,0,critical,wdh,20.0,2.1,lower,57.0,133.0,78.0,78.0,133.0,57.0,1,1.9943561553955078,None,,,,,0,0,0,0,0,85,85,34,249.9782919883728,,,,,,,,,,,,,,,,,,,,,,,,,,,,,,,,,,,,,,,,,,,,,,,,,,,,,,,,,,,,,,,,,,,,,,,,,,,,,,,,,57.0,133.0,78.0,78.0,133.0,57.0,2.1,2.11,-202,251,0,253,164,-286,249.9642288684845,249.96430349349976,249.96718788146973,249.9782919883728,250.1298258304596,250.1298258304596,250.1298258304596,250.1298258304596,250.1298258304596,250.1298258304596,250.1298258304596,251.98631381988525,1,1.9943561553955078,None,,,,,,,,,,,,,,,,,,30,4,2025-02-18_17h03.42.887,comp,2024.2.4,57.27130347631005,2025-02-18 17h03.51.169108 -0500,
86,86,0,critical,whd,20.0,2.1,upper,125.0,200.0,200.0,125.0,141.0,141.0,1,3.4272620677948,None,,,,,0,0,0,0,0,86,86,15,252.00198459625244,,,,,,,,,,,,,,,,,,,,,,,,,,,,,,,,,,,,,,,,,,,,,,,,,,,,,,,,,,,,,,,,,,,,,,,,,,,,,,,,,125.0,200.0,200.0,125.0,141.0,141.0,2.1,2.12,-258,-254,0,-266,229,275,251.98794746398926,251.98802256584167,251.99089193344116,252.00198459625244,252.14859676361084,252.14859676361084,252.14859676361084,252.14859676361084,252.14859676361084,252.14859676361084,252.14859676361084,255.43617844581604,1,3.4272620677948,None,,,,,,,,,,,,,,,,,,30,4,2025-02-18_17h03.42.887,comp,2024.2.4,57.27130347631005,2025-02-18 17h03.51.169108 -0500,
87,87,0,catch,None,None,None,None,None,None,None,None,None,None,1,0.9120187759399414,None,,,,,0,0,0,0,0,87,87,126,255.45319652557373,,,,,,,,,,,,,,,,,,,,,,,,,,,,,,,,,,,,,,,,,,,,,,,,,,,,,,,,,,,,,,,,,,,,,,,,,,,,,,,,,137,188,68,122,116,74,3.0,3.1,-251,276,0,-9,194,-271,255.43807768821716,255.438157081604,255.44124054908752,255.45319652557373,255.59947419166565,255.59947419166565,255.59947419166565,255.59947419166565,255.59947419166565,255.59947419166565,255.59947419166565,256.3798360824585,1,0.9120187759399414,None,,,,,,,,,,,,,,,,,,30,4,2025-02-18_17h03.42.887,comp,2024.2.4,57.27130347631005,2025-02-18 17h03.51.169108 -0500,
88,88,0,critical,hdw,20.0,3.0,upper,200.0,125.0,141.0,141.0,125.0,200.0,3,1.713200569152832,None,,,,,0,0,0,0,0,88,88,117,256.3962736129761,,,,,,,,,,,,,,,,,,,,,,,,,,,,,,,,,,,,,,,,,,,,,,,,,,,,,,,,,,,,,,,,,,,,,,,,,,,,,,,,,200.0,125.0,141.0,141.0,125.0,200.0,3.0,3.2,-229,-267,0,-11,266,251,256.381338596344,256.3814368247986,256.38427329063416,256.3962736129761,256.55191016197205,256.55191016197205,256.55191016197205,256.55191016197205,256.55191016197205,256.55191016197205,256.55191016197205,258.11646819114685,3,1.713200569152832,None,,,,,,,,,,,,,,,,,,30,4,2025-02-18_17h03.42.887,comp,2024.2.4,57.27130347631005,2025-02-18 17h03.51.169108 -0500,
89,89,0,filler_random,None,None,None,None,None,None,None,None,None,None,1,1.502159595489502,None,,,,,0,0,0,0,0,89,89,153,258.134601354599,,,,,,,,,,,,,,,,,,,,,,,,,,,,,,,,,,,,,,,,,,,,,,,,,,,,,,,,,,,,,,,,,,,,,,,,,,,,,,,,,199.79649142224153,170.472057236122,160.2793905587303,121.67863696326135,97.01248432073467,117.00197936441387,2.1,2.11,-242,254,0,290,215,-280,258.118136882782,258.1182117462158,258.12151288986206,258.134601354599,258.2831771373749,258.2831771373749,258.2831771373749,258.2831771373749,258.2831771373749,258.2831771373749,258.2831771373749,259.65162324905396,1,1.502159595489502,None,,,,,,,,,,,,,,,,,,30,4,2025-02-18_17h03.42.887,comp,2024.2.4,57.27130347631005,2025-02-18 17h03.51.169108 -0500,
90,90,0,filler_square,None,None,None,None,None,None,None,None,None,None,3,1.6180565357208252,None,,,,,0,0,0,0,0,90,90,188,259.66694498062134,,,,,,,,,,,,,,,,,,,,,,,,,,,,,,,,,,,,,,,,,,,,,,,,,,,,,,,,,,,,,,,,,,,,,,,,,,,,,,,,,59.07567933140048,61.2886604122993,64.69752039984348,64.69752039984348,64.66077012728894,57.10769406316479,4.0,4.1,-159,-259,0,6,157,-265,259.6534945964813,259.65357184410095,259.65666818618774,259.66694498062134,259.8186140060425,259.8186140060425,259.8186140060425,259.8186140060425,259.8186140060425,259.8186140060425,259.8186140060425,261.3023204803467,3,1.6180565357208252,None,,,,,,,,,,,,,,,,,,30,4,2025-02-18_17h03.42.887,comp,2024.2.4,57.27130347631005,2025-02-18 17h03.51.169108 -0500,
91,91,0,critical,wdh,35.0,1.0,lower,57.0,133.0,70.0,70.0,133.0,57.0,1,3.176034927368164,None,,,,,0,0,0,0,0,91,91,72,261.31730556488037,,,,,,,,,,,,,,,,,,,,,,,,,,,,,,,,,,,,,,,,,,,,,,,,,,,,,,,,,,,,,,,,,,,,,,,,,,,,,,,,,57.0,133.0,70.0,70.0,133.0,57.0,1.0,1.2,-198,-3,0,4,160,-3,261.30397486686707,261.3040523529053,261.30710339546204,261.31730556488037,261.4696044921875,261.4696044921875,261.4696044921875,261.4696044921875,261.4696044921875,261.4696044921875,261.4696044921875,264.50228214263916,1,3.176034927368164,None,,,,,,,,,,,,,,,,,,30,4,2025-02-18_17h03.42.887,comp,2024.2.4,57.27130347631005,2025-02-18 17h03.51.169108 -0500,
92,92,0,catch,None,None,None,None,None,None,None,None,None,None,2,0.9185094833374023,None,,,,,0,0,0,0,0,92,92,120,264.5182960033417,,,,,,,,,,,,,,,,,,,,,,,,,,,,,,,,,,,,,,,,,,,,,,,,,,,,,,,,,,,,,,,,,,,,,,,,,,,,,,,,,133,57,166,159,118,72,1.0,1.3,276,-273,480,-266,692,-256,264.5041415691376,264.5042178630829,264.50764083862305,264.5182960033417,264.66718673706055,264.66718673706055,264.66718673706055,264.66718673706055,264.66718673706055,264.66718673706055,264.66718673706055,265.44851899147034,2,0.9185094833374023,None,,,,,,,,,,,,,,,,,,30,4,2025-02-18_17h03.42.887,comp,2024.2.4,57.27130347631005,2025-02-18 17h03.51.169108 -0500,
93,93,0,critical,dhw,20.0,2.1,lower,78.0,78.0,133.0,57.0,57.0,133.0,3,1.6119399070739746,None,,,,,0,0,0,0,0,93,93,2,265.46472120285034,,,,,,,,,,,,,,,,,,,,,,,,,,,,,,,,,,,,,,,,,,,,,,,,,,,,,,,,,,,,,,,,,,,,,,,,,,,,,,,,,78.0,78.0,133.0,57.0,57.0,133.0,2.1,2.12,-164,-273,0,-270,191,259,265.44999861717224,265.45007252693176,265.4528708457947,265.46472120285034,265.6164755821228,265.6164755821228,265.6164755821228,265.6164755821228,265.6164755821228,265.6164755821228,265.6164755821228,267.09149146080017,3,1.6119399070739746,None,,,,,,,,,,,,,,,,,,30,4,2025-02-18_17h03.42.887,comp,2024.2.4,57.27130347631005,2025-02-18 17h03.51.169108 -0500,
94,94,0,filler_square,None,None,None,None,None,None,None,None,None,None,2,1.0481994152069092,None,,,,,0,0,0,0,0,94,94,194,267.108389377594,,,,,,,,,,,,,,,,,,,,,,,,,,,,,,,,,,,,,,,,,,,,,,,,,,,,,,,,,,,,,,,,,,,,,,,,,,,,,,,,,70.55808960397792,77.3948519947198,84.44499166895245,84.44499166895245,57.79118842059362,80.09782376881408,4.0,4.1,-177,-261,0,-11,178,-285,267.09330654144287,267.0934634208679,267.09665870666504,267.108389377594,267.25629353523254,267.25629353523254,267.25629353523254,267.25629353523254,267.25629353523254,267.25629353523254,267.25629353523254,268.1675503253937,2,1.0481994152069092,None,,,,,,,,,,,,,,,,,,30,4,2025-02-18_17h03.42.887,comp,2024.2.4,57.27130347631005,2025-02-18 17h03.51.169108 -0500,
95,95,0,critical,whd,35.0,2.1,upper,125.0,200.0,200.0,125.0,127.0,127.0,1,2.532560348510742,None,,,,,0,0,0,0,0,95,95,13,268.18427562713623,,,,,,,,,,,,,,,,,,,,,,,,,,,,,,,,,,,,,,,,,,,,,,,,,,,,,,,,,,,,,,,,,,,,,,,,,,,,,,,,,125.0,200.0,200.0,125.0,127.0,127.0,2.1,2.12,-258,-271,0,-288,222,273,268.1691036224365,268.16917991638184,268.1724727153778,268.18427562713623,268.32201957702637,268.32201957702637,268.32201957702637,268.32201957702637,268.32201957702637,268.32201957702637,268.32201957702637,270.72172260284424,1,2.532560348510742,None,,,,,,,,,,,,,,,,,,30,4,2025-02-18_17h03.42.887,comp,2024.2.4,57.27130347631005,2025-02-18 17h03.51.169108 -0500,
96,96,0,filler_random,None,None,None,None,None,None,None,None,None,None,2,0.994788408279419,None,,,,,0,0,0,0,0,96,96,160,270.73852920532227,,,,,,,,,,,,,,,,,,,,,,,,,,,,,,,,,,,,,,,,,,,,,,,,,,,,,,,,,,,,,,,,,,,,,,,,,,,,,,,,,125.53021050690997,121.89812279467768,157.80253184592829,141.22863136115296,152.4367880545119,76.80450522293152,2.1,2.12,-228,-278,0,-265,205,276,270.7236981391907,270.7237780094147,270.7273864746094,270.73852920532227,270.8876540660858,270.8876540660858,270.8876540660858,270.8876540660858,270.8876540660858,270.8876540660858,270.8876540660858,271.7380301952362,2,0.994788408279419,None,,,,,,,,,,,,,,,,,,30,4,2025-02-18_17h03.42.887,comp,2024.2.4,57.27130347631005,2025-02-18 17h03.51.169108 -0500,
97,97,0,critical,hwd,35.0,4.0,upper,200.0,125.0,125.0,200.0,127.0,127.0,1,1.8430233001708984,None,,,,,0,0,0,0,0,97,97,101,271.7542164325714,,,,,,,,,,,,,,,,,,,,,,,,,,,,,,,,,,,,,,,,,,,,,,,,,,,,,,,,,,,,,,,,,,,,,,,,,,,,,,,,,200.0,125.0,125.0,200.0,127.0,127.0,4.0,4.1,-258,-289,0,-16,260,-272,271.7394633293152,271.73953890800476,271.7436263561249,271.7542164325714,271.9039008617401,271.9039008617401,271.9039008617401,271.9039008617401,271.9039008617401,271.9039008617401,271.9039008617401,273.6044669151306,1,1.8430233001708984,None,,,,,,,,,,,,,,,,,,30,4,2025-02-18_17h03.42.887,comp,2024.2.4,57.27130347631005,2025-02-18 17h03.51.169108 -0500,
98,98,0,critical,wdh,35.0,3.0,upper,125.0,200.0,127.0,127.0,200.0,125.0,3,1.5438425540924072,None,,,,,0,0,0,0,0,98,98,75,273.62085032463074,,,,,,,,,,,,,,,,,,,,,,,,,,,,,,,,,,,,,,,,,,,,,,,,,,,,,,,,,,,,,,,,,,,,,,,,,,,,,,,,,125.0,200.0,127.0,127.0,200.0,125.0,3.0,3.2,-260,-285,0,-7,222,253,273.6060152053833,273.60609436035156,273.6101019382477,273.62085032463074,273.7733392715454,273.7733392715454,273.7733392715454,273.7733392715454,273.7733392715454,273.7733392715454,273.7733392715454,275.1741535663605,3,1.5438425540924072,None,,,,,,,,,,,,,,,,,,30,4,2025-02-18_17h03.42.887,comp,2024.2.4,57.27130347631005,2025-02-18 17h03.51.169108 -0500,
99,99,0,critical,whd,20.0,3.0,lower,57.0,133.0,133.0,57.0,78.0,78.0,1,4.4783220291137695,None,,,,,0,0,0,0,0,99,99,92,275.19037675857544,,,,,,,,,,,,,,,,,,,,,,,,,,,,,,,,,,,,,,,,,,,,,,,,,,,,,,,,,,,,,,,,,,,,,,,,,,,,,,,,,57.0,133.0,133.0,57.0,78.0,78.0,3.0,3.2,-191,-286,0,9,164,255,275.17592549324036,275.1760494709015,275.17965507507324,275.19037675857544,275.33729457855225,275.33729457855225,275.33729457855225,275.33729457855225,275.33729457855225,275.33729457855225,275.33729457855225,279.6737234592438,1,4.4783220291137695,None,,,,,,,,,,,,,,,,,,30,4,2025-02-18_17h03.42.887,comp,2024.2.4,57.27130347631005,2025-02-18 17h03.51.169108 -0500,
100,100,0,filler_random,None,None,None,None,None,None,None,None,None,None,2,0.8593623638153076,None,,,,,0,0,0,0,0,100,100,150,279.68937587738037,,,,,,,,,,,,,,,,,,,,,,,,,,,,,,,,,,,,,,,,,,,,,,,,,,,,,,,,,,,,,,,,,,,,,,,,,,,,,,,,,143.23450692260747,82.45643497614054,195.52959681734433,153.07003065846376,170.21272532508027,106.05472045783463,2.1,2.12,-214,-262,0,-274,226,279,279.6755301952362,279.6756103038788,279.67871046066284,279.68937587738037,279.8371455669403,279.8371455669403,279.8371455669403,279.8371455669403,279.8371455669403,279.8371455669403,279.8371455669403,280.5589783191681,2,0.8593623638153076,None,,,,,,,,,,,,,,,,,,30,4,2025-02-18_17h03.42.887,comp,2024.2.4,57.27130347631005,2025-02-18 17h03.51.169108 -0500,
101,101,0,critical,whd,35.0,4.0,upper,125.0,200.0,200.0,125.0,127.0,127.0,1,1.6019749641418457,None,,,,,0,0,0,0,0,101,101,89,280.5794560909271,,,,,,,,,,,,,,,,,,,,,,,,,,,,,,,,,,,,,,,,,,,,,,,,,,,,,,,,,,,,,,,,,,,,,,,,,,,,,,,,,125.0,200.0,200.0,125.0,127.0,127.0,4.0,4.2,-258,8,0,-258,222,7,280.56095147132874,280.5610828399658,280.5639843940735,280.5794560909271,280.7238504886627,280.7238504886627,280.7238504886627,280.7238504886627,280.7238504886627,280.7238504886627,280.7238504886627,282.18954586982727,1,1.6019749641418457,None,,,,,,,,,,,,,,,,,,30,4,2025-02-18_17h03.42.887,comp,2024.2.4,57.27130347631005,2025-02-18 17h03.51.169108 -0500,
102,102,0,catch,None,None,None,None,None,None,None,None,None,None,2,0.7789187431335449,None,,,,,0,0,0,0,0,102,102,124,282.2099702358246,,,,,,,,,,,,,,,,,,,,,,,,,,,,,,,,,,,,,,,,,,,,,,,,,,,,,,,,,,,,,,,,,,,,,,,,,,,,,,,,,64,126,151,174,130,60,1.0,1.1,-726,285,-480,251,-267,279,282.1916558742523,282.19173312187195,282.19490671157837,282.2099702358246,282.3563086986542,282.3563086986542,282.3563086986542,282.3563086986542,282.3563086986542,282.3563086986542,282.3563086986542,282.9941990375519,2,0.7789187431335449,None,,,,,,,,,,,,,,,,,,30,4,2025-02-18_17h03.42.887,comp,2024.2.4,57.27130347631005,2025-02-18 17h03.51.169108 -0500,
103,103,0,critical,hwd,20.0,3.0,upper,200.0,125.0,125.0,200.0,141.0,141.0,2,1.7258832454681396,None,,,,,0,0,0,0,0,103,103,105,283.0149075984955,,,,,,,,,,,,,,,,,,,,,,,,,,,,,,,,,,,,,,,,,,,,,,,,,,,,,,,,,,,,,,,,,,,,,,,,,,,,,,,,,200.0,125.0,125.0,200.0,141.0,141.0,3.0,3.2,-258,-286,0,13,266,284,282.99585127830505,282.9959285259247,282.99921798706055,283.0149075984955,283.1583409309387,283.1583409309387,283.1583409309387,283.1583409309387,283.1583409309387,283.1583409309387,283.1583409309387,284.74264121055603,2,1.7258832454681396,None,,,,,,,,,,,,,,,,,,30,4,2025-02-18_17h03.42.887,comp,2024.2.4,57.27130347631005,2025-02-18 17h03.51.169108 -0500,
104,104,0,catch,None,None,None,None,None,None,None,None,None,None,3,1.2713253498077393,None,,,,,0,0,0,0,0,104,104,127,284.75823998451233,,,,,,,,,,,,,,,,,,,,,,,,,,,,,,,,,,,,,,,,,,,,,,,,,,,,,,,,,,,,,,,,,,,,,,,,,,,,,,,,,95,95,100,90,148,177,2.2,2.22,-188,253,0,-288,230,-255,284.7445707321167,284.7446496486664,284.74768829345703,284.75823998451233,284.904244184494,284.904244184494,284.904244184494,284.904244184494,284.904244184494,284.904244184494,284.904244184494,286.0464870929718,3,1.2713253498077393,None,,,,,,,,,,,,,,,,,,30,4,2025-02-18_17h03.42.887,comp,2024.2.4,57.27130347631005,2025-02-18 17h03.51.169108 -0500,
105,105,0,filler_square,None,None,None,None,None,None,None,None,None,None,1,1.914088249206543,None,,,,,0,0,0,0,0,105,105,192,286.06652450561523,,,,,,,,,,,,,,,,,,,,,,,,,,,,,,,,,,,,,,,,,,,,,,,,,,,,,,,,,,,,,,,,,,,,,,,,,,,,,,,,,61.1367789181833,62.25189889899322,58.88354958324662,59.4503773346603,62.795430358012396,62.795430358012396,3.0,3.2,-157,-262,0,-10,157,252,286.0482409000397,286.0483181476593,286.0511882305145,286.06652450561523,286.20893907546997,286.20893907546997,286.20893907546997,286.20893907546997,286.20893907546997,286.20893907546997,286.20893907546997,287.9909715652466,1,1.914088249206543,None,,,,,,,,,,,,,,,,,,30,4,2025-02-18_17h03.42.887,comp,2024.2.4,57.27130347631005,2025-02-18 17h03.51.169108 -0500,
106,106,0,filler_random,None,None,None,None,None,None,None,None,None,None,3,1.1335015296936035,None,,,,,0,0,0,0,0,106,106,139,288.0072548389435,,,,,,,,,,,,,,,,,,,,,,,,,,,,,,,,,,,,,,,,,,,,,,,,,,,,,,,,,,,,,,,,,,,,,,,,,,,,,,,,,88.07825497667369,89.98217986776177,72.28204485454202,147.5554542534781,188.56907085054556,193.8278065112231,2.2,2.22,-215,283,0,-264,267,-250,287.99261689186096,287.9926915168762,287.9956274032593,288.0072548389435,288.16163301467896,288.16163301467896,288.16163301467896,288.16163301467896,288.16163301467896,288.16163301467896,288.16163301467896,289.1428680419922,3,1.1335015296936035,None,,,,,,,,,,,,,,,,,,30,4,2025-02-18_17h03.42.887,comp,2024.2.4,57.27130347631005,2025-02-18 17h03.51.169108 -0500,
107,107,0,filler_random,None,None,None,None,None,None,None,None,None,None,1,1.2447917461395264,None,,,,,0,0,0,0,0,107,107,154,289.16051959991455,,,,,,,,,,,,,,,,,,,,,,,,,,,,,,,,,,,,,,,,,,,,,,,,,,,,,,,,,,,,,,,,,,,,,,,,,,,,,,,,,110.03718395540986,119.65563220805734,94.41631174183347,71.51772371429264,113.31131906081738,70.89572842036901,1.0,1.3,288,-269,480,-273,647,-255,289.1445233821869,289.1445987224579,289.1474075317383,289.16051959991455,289.3081638813019,289.3081638813019,289.3081638813019,289.3081638813019,289.3081638813019,289.3081638813019,289.3081638813019,290.4119701385498,1,1.2447917461395264,None,,,,,,,,,,,,,,,,,,30,4,2025-02-18_17h03.42.887,comp,2024.2.4,57.27130347631005,2025-02-18 17h03.51.169108 -0500,
108,108,0,catch,None,None,None,None,None,None,None,None,None,None,2,0.7923729419708252,None,,,,,0,0,0,0,0,108,108,128,290.4290735721588,,,,,,,,,,,,,,,,,,,,,,,,,,,,,,,,,,,,,,,,,,,,,,,,,,,,,,,,,,,,,,,,,,,,,,,,,,,,,,,,,93,97,171,154,94,96,3.0,3.1,-222,286,0,12,221,-275,290.4139401912689,290.4140179157257,290.41782689094543,290.4290735721588,290.58339285850525,290.58339285850525,290.58339285850525,290.58339285850525,290.58339285850525,290.58339285850525,290.58339285850525,291.2246527671814,2,0.7923729419708252,None,,,,,,,,,,,,,,,,,,30,4,2025-02-18_17h03.42.887,comp,2024.2.4,57.27130347631005,2025-02-18 17h03.51.169108 -0500,
109,109,0,filler_random,None,None,None,None,None,None,None,None,None,None,2,1.4436817169189453,None,,,,,0,0,0,0,0,109,109,162,291.2410423755646,,,,,,,,,,,,,,,,,,,,,,,,,,,,,,,,,,,,,,,,,,,,,,,,,,,,,,,,,,,,,,,,,,,,,,,,,,,,,,,,,137.87748886904342,71.1153363204537,181.31381285100662,99.92190711389,85.54470319114682,93.04737208658631,2.2,2.22,-182,284,0,-258,192,-255,291.2262313365936,291.2263059616089,291.2291359901428,291.2410423755646,291.3795986175537,291.3795986175537,291.3795986175537,291.3795986175537,291.3795986175537,291.3795986175537,291.3795986175537,292.6934599876404,2,1.4436817169189453,None,,,,,,,,,,,,,,,,,,30,4,2025-02-18_17h03.42.887,comp,2024.2.4,57.27130347631005,2025-02-18 17h03.51.169108 -0500,
110,110,0,filler_random,None,None,None,None,None,None,None,None,None,None,1,3.543259620666504,None,,,,,0,0,0,0,0,110,110,142,292.7097895145416,,,,,,,,,,,,,,,,,,,,,,,,,,,,,,,,,,,,,,,,,,,,,,,,,,,,,,,,,,,,,,,,,,,,,,,,,,,,,,,,,160.05888895318986,99.85613563491374,85.83116498380411,101.97182987891065,143.8490114696816,78.93885258030569,2.1,2.11,-197,260,0,252,186,-276,292.6951060295105,292.69518208503723,292.6984827518463,292.7097895145416,292.8602273464203,292.8602273464203,292.8602273464203,292.8602273464203,292.8602273464203,292.8602273464203,292.8602273464203,296.26129698753357,1,3.543259620666504,None,,,,,,,,,,,,,,,,,,30,4,2025-02-18_17h03.42.887,comp,2024.2.4,57.27130347631005,2025-02-18 17h03.51.169108 -0500,
111,111,0,filler_square,None,None,None,None,None,None,None,None,None,None,2,3.1690385341644287,None,,,,,0,0,0,0,0,111,111,180,296.2756872177124,,,,,,,,,,,,,,,,,,,,,,,,,,,,,,,,,,,,,,,,,,,,,,,,,,,,,,,,,,,,,,,,,,,,,,,,,,,,,,,,,140.72288569994407,140.72288569994407,140.16393870754234,113.5440760140068,93.9114750378233,125.72125631091996,3.0,3.1,-223,260,0,11,216,-257,296.26312947273254,296.26320695877075,296.26623797416687,296.2756872177124,296.41580748558044,296.41580748558044,296.41580748558044,296.41580748558044,296.41580748558044,296.41580748558044,296.41580748558044,299.46238923072815,2,3.1690385341644287,None,,,,,,,,,,,,,,,,,,30,4,2025-02-18_17h03.42.887,comp,2024.2.4,57.27130347631005,2025-02-18 17h03.51.169108 -0500,
112,112,0,filler_square,None,None,None,None,None,None,None,None,None,None,3,0.9415609836578369,None,,,,,0,0,0,0,0,112,112,202,299.47904086112976,,,,,,,,,,,,,,,,,,,,,,,,,,,,,,,,,,,,,,,,,,,,,,,,,,,,,,,,,,,,,,,,,,,,,,,,,,,,,,,,,167.59553298118868,80.76151373729662,171.69962459196876,196.288057838888,198.33711874509348,198.33711874509348,4.0,4.1,-235,-272,0,9,293,-271,299.4643850326538,299.46452355384827,299.4676649570465,299.47904086112976,299.63089871406555,299.63089871406555,299.63089871406555,299.63089871406555,299.63089871406555,299.63089871406555,299.63089871406555,300.43066215515137,3,0.9415609836578369,None,,,,,,,,,,,,,,,,,,30,4,2025-02-18_17h03.42.887,comp,2024.2.4,57.27130347631005,2025-02-18 17h03.51.169108 -0500,
113,113,0,filler_square,None,None,None,None,None,None,None,None,None,None,2,0.7570571899414062,None,,,,,0,0,0,0,0,113,113,203,300.4475338459015,,,,,,,,,,,,,,,,,,,,,,,,,,,,,,,,,,,,,,,,,,,,,,,,,,,,,,,,,,,,,,,,,,,,,,,,,,,,,,,,,106.52650390556508,64.07239114668387,136.71361070093866,136.71361070093866,93.46098583883483,132.60106715826146,2.2,2.21,-196,-280,0,259,231,276,300.4326083660126,300.43273639678955,300.43657994270325,300.4475338459015,300.5969443321228,300.5969443321228,300.5969443321228,300.5969443321228,300.5969443321228,300.5969443321228,300.5969443321228,301.21653389930725,2,0.7570571899414062,None,,,,,,,,,,,,,,,,,,30,4,2025-02-18_17h03.42.887,comp,2024.2.4,57.27130347631005,2025-02-18 17h03.51.169108 -0500,
114,114,0,filler_square,None,None,None,None,None,None,None,None,None,None,3,1.344162940979004,None,,,,,0,0,0,0,0,114,114,170,301.2373068332672,,,,,,,,,,,,,,,,,,,,,,,,,,,,,,,,,,,,,,,,,,,,,,,,,,,,,,,,,,,,,,,,,,,,,,,,,,,,,,,,,153.15466113421294,160.6240903375924,107.63750008008054,84.85488010663794,188.49915997089593,188.49915997089593,3.0,3.2,-219,-275,0,-16,233,283,301.21859765052795,301.2186782360077,301.2218105792999,301.2373068332672,301.38402366638184,301.38402366638184,301.38402366638184,301.38402366638184,301.38402366638184,301.38402366638184,301.38402366638184,302.5866060256958,3,1.344162940979004,None,,,,,,,,,,,,,,,,,,30,4,2025-02-18_17h03.42.887,comp,2024.2.4,57.27130347631005,2025-02-18 17h03.51.169108 -0500,
115,115,0,critical,hwd,35.0,1.0,upper,200.0,125.0,125.0,200.0,127.0,127.0,2,2.018111228942871,None,,,,,0,0,0,0,0,115,115,97,302.60249733924866,,,,,,,,,,,,,,,,,,,,,,,,,,,,,,,,,,,,,,,,,,,,,,,,,,,,,,,,,,,,,,,,,,,,,,,,,,,,,,,,,200.0,125.0,125.0,200.0,127.0,127.0,1.0,1.3,222,-284,480,-262,740,-286,302.5881173610687,302.5881927013397,302.5910179615021,302.60249733924866,302.7489185333252,302.7489185333252,302.7489185333252,302.7489185333252,302.7489185333252,302.7489185333252,302.7489185333252,304.633024930954,2,2.018111228942871,None,,,,,,,,,,,,,,,,,,30,4,2025-02-18_17h03.42.887,comp,2024.2.4,57.27130347631005,2025-02-18 17h03.51.169108 -0500,
116,116,0,filler_random,None,None,None,None,None,None,None,None,None,None,3,0.9640727043151855,None,,,,,0,0,0,0,0,116,116,165,304.6486792564392,,,,,,,,,,,,,,,,,,,,,,,,,,,,,,,,,,,,,,,,,,,,,,,,,,,,,,,,,,,,,,,,,,,,,,,,,,,,,,,,,179.12421029238197,72.87231769197491,83.97581315617805,109.63679893191019,182.46721738633798,151.9801692683545,2.2,2.21,-187,-275,0,252,227,277,304.6347727775574,304.6348478794098,304.6378276348114,304.6486792564392,304.7965168952942,304.7965168952942,304.7965168952942,304.7965168952942,304.7965168952942,304.7965168952942,304.7965168952942,305.6311106681824,3,0.9640727043151855,None,,,,,,,,,,,,,,,,,,30,4,2025-02-18_17h03.42.887,comp,2024.2.4,57.27130347631005,2025-02-18 17h03.51.169108 -0500,
117,117,0,critical,hdw,20.0,2.1,lower,133.0,57.0,78.0,78.0,57.0,133.0,3,1.584157943725586,None,,,,,0,0,0,0,0,117,117,22,305.6449558734894,,,,,,,,,,,,,,,,,,,,,,,,,,,,,,,,,,,,,,,,,,,,,,,,,,,,,,,,,,,,,,,,,,,,,,,,,,,,,,,,,133.0,57.0,78.0,78.0,57.0,133.0,2.1,2.11,-164,270,0,280,202,-258,305.6326253414154,305.6327028274536,305.63591146469116,305.6449558734894,305.7971603870392,305.7971603870392,305.7971603870392,305.7971603870392,305.7971603870392,305.7971603870392,305.7971603870392,307.2475254535675,3,1.584157943725586,None,,,,,,,,,,,,,,,,,,30,4,2025-02-18_17h03.42.887,comp,2024.2.4,57.27130347631005,2025-02-18 17h03.51.169108 -0500,
118,118,0,critical,dwh,20.0,3.0,lower,78.0,78.0,57.0,133.0,133.0,57.0,2,1.2533690929412842,None,,,,,0,0,0,0,0,118,118,68,307.2632369995117,,,,,,,,,,,,,,,,,,,,,,,,,,,,,,,,,,,,,,,,,,,,,,,,,,,,,,,,,,,,,,,,,,,,,,,,,,,,,,,,,78.0,78.0,57.0,133.0,133.0,57.0,3.0,3.1,-202,277,0,-5,191,-264,307.24894762039185,307.2490212917328,307.25199842453003,307.2632369995117,307.4148852825165,307.4148852825165,307.4148852825165,307.4148852825165,307.4148852825165,307.4148852825165,307.4148852825165,308.5305247306824,2,1.2533690929412842,None,,,,,,,,,,,,,,,,,,30,4,2025-02-18_17h03.42.887,comp,2024.2.4,57.27130347631005,2025-02-18 17h03.51.169108 -0500,
119,119,0,critical,dwh,20.0,3.0,upper,141.0,141.0,125.0,200.0,200.0,125.0,3,2.258448362350464,None,,,,,0,0,0,0,0,119,119,69,308.5464596748352,,,,,,,,,,,,,,,,,,,,,,,,,,,,,,,,,,,,,,,,,,,,,,,,,,,,,,,,,,,,,,,,,,,,,,,,,,,,,,,,,141.0,141.0,125.0,200.0,200.0,125.0,3.0,3.1,-266,254,0,-5,258,-274,308.5319814682007,308.5320556163788,308.53510093688965,308.5464596748352,308.69455122947693,308.69455122947693,308.69455122947693,308.69455122947693,308.69455122947693,308.69455122947693,308.69455122947693,310.81387662887573,3,2.258448362350464,None,,,,,,,,,,,,,,,,,,30,4,2025-02-18_17h03.42.887,comp,2024.2.4,57.27130347631005,2025-02-18 17h03.51.169108 -0500,
120,120,0,critical,wdh,20.0,2.1,upper,125.0,200.0,141.0,141.0,200.0,125.0,1,1.6956045627593994,None,,,,,0,0,0,0,0,120,120,35,310.830358505249,,,,,,,,,,,,,,,,,,,,,,,,,,,,,,,,,,,,,,,,,,,,,,,,,,,,,,,,,,,,,,,,,,,,,,,,,,,,,,,,,125.0,200.0,141.0,141.0,200.0,125.0,2.1,2.11,-266,264,0,252,229,-264,310.8153545856476,310.8154602050781,310.81866002082825,310.830358505249,310.96766543388367,310.96766543388367,310.96766543388367,310.96766543388367,310.96766543388367,310.96766543388367,310.96766543388367,312.53222703933716,1,1.6956045627593994,None,,,,,,,,,,,,,,,,,,30,4,2025-02-18_17h03.42.887,comp,2024.2.4,57.27130347631005,2025-02-18 17h03.51.169108 -0500,
121,121,0,critical,hdw,35.0,2.1,upper,200.0,125.0,127.0,127.0,125.0,200.0,1,0.9926950931549072,None,,,,,0,0,0,0,0,121,121,21,312.5484411716461,,,,,,,,,,,,,,,,,,,,,,,,,,,,,,,,,,,,,,,,,,,,,,,,,,,,,,,,,,,,,,,,,,,,,,,,,,,,,,,,,200.0,125.0,127.0,127.0,125.0,200.0,2.1,2.11,-222,286,0,267,260,-273,312.5337655544281,312.53384160995483,312.53685307502747,312.5484411716461,312.70000767707825,312.70000767707825,312.70000767707825,312.70000767707825,312.70000767707825,312.70000767707825,312.70000767707825,313.5509192943573,1,0.9926950931549072,None,,,,,,,,,,,,,,,,,,30,4,2025-02-18_17h03.42.887,comp,2024.2.4,57.27130347631005,2025-02-18 17h03.51.169108 -0500,
122,122,0,filler_square,None,None,None,None,None,None,None,None,None,None,2,1.1493089199066162,None,,,,,0,0,0,0,0,122,122,200,313.567405462265,,,,,,,,,,,,,,,,,,,,,,,,,,,,,,,,,,,,,,,,,,,,,,,,,,,,,,,,,,,,,,,,,,,,,,,,,,,,,,,,,75.84803533621445,74.21799430489757,124.1868634686363,124.1868634686363,90.90293991036884,60.49217096214976,3.0,3.2,-195,-287,0,-6,188,262,313.55266404151917,313.5527412891388,313.5568561553955,313.567405462265,313.7175407409668,313.7175407409668,313.7175407409668,313.7175407409668,313.7175407409668,313.7175407409668,313.7175407409668,314.7336223125458,2,1.1493089199066162,None,,,,,,,,,,,,,,,,,,30,4,2025-02-18_17h03.42.887,comp,2024.2.4,57.27130347631005,2025-02-18 17h03.51.169108 -0500,
123,123,0,filler_square,None,None,None,None,None,None,None,None,None,None,2,1.367682695388794,None,,,,,0,0,0,0,0,123,123,182,314.7492971420288,,,,,,,,,,,,,,,,,,,,,,,,,,,,,,,,,,,,,,,,,,,,,,,,,,,,,,,,,,,,,,,,,,,,,,,,,,,,,,,,,59.67831065991486,57.94627596763606,62.13692152759698,62.13692152759698,57.49172177546583,61.22975192905397,2.1,2.11,-156,267,0,288,158,-285,314.73546385765076,314.7355811595917,314.738972902298,314.7492971420288,314.8971929550171,314.8971929550171,314.8971929550171,314.8971929550171,314.8971929550171,314.8971929550171,314.8971929550171,316.1190342903137,2,1.367682695388794,None,,,,,,,,,,,,,,,,,,30,4,2025-02-18_17h03.42.887,comp,2024.2.4,57.27130347631005,2025-02-18 17h03.51.169108 -0500,
124,124,0,critical,wdh,20.0,2.1,upper,125.0,200.0,141.0,141.0,200.0,125.0,1,1.9258232116699219,None,,,,,0,0,0,0,0,124,124,11,316.13476753234863,,,,,,,,,,,,,,,,,,,,,,,,,,,,,,,,,,,,,,,,,,,,,,,,,,,,,,,,,,,,,,,,,,,,,,,,,,,,,,,,,125.0,200.0,141.0,141.0,200.0,125.0,2.1,2.12,-266,-264,0,-258,229,267,316.1206316947937,316.1207101345062,316.12405800819397,316.13476753234863,316.2827396392822,316.2827396392822,316.2827396392822,316.2827396392822,316.2827396392822,316.2827396392822,316.2827396392822,318.0699543952942,1,1.9258232116699219,None,,,,,,,,,,,,,,,,,,30,4,2025-02-18_17h03.42.887,comp,2024.2.4,57.27130347631005,2025-02-18 17h03.51.169108 -0500,
125,125,0,catch,None,None,None,None,None,None,None,None,None,None,3,1.8697478771209717,None,,,,,0,0,0,0,0,125,125,125,318.08695793151855,,,,,,,,,,,,,,,,,,,,,,,,,,,,,,,,,,,,,,,,,,,,,,,,,,,,,,,,,,,,,,,,,,,,,,,,,,,,,,,,,115,75,84,106,145,180,3.0,3.1,-186,285,0,2,239,-277,318.0719895362854,318.072069644928,318.0753676891327,318.08695793151855,318.23473739624023,318.23473739624023,318.23473739624023,318.23473739624023,318.23473739624023,318.23473739624023,318.23473739624023,319.9708001613617,3,1.8697478771209717,None,,,,,,,,,,,,,,,,,,30,4,2025-02-18_17h03.42.887,comp,2024.2.4,57.27130347631005,2025-02-18 17h03.51.169108 -0500,
126,126,0,critical,hdw,35.0,1.0,upper,200.0,125.0,127.0,127.0,125.0,200.0,3,1.8510770797729492,None,,,,,0,0,0,0,0,126,126,109,319.9859926700592,,,,,,,,,,,,,,,,,,,,,,,,,,,,,,,,,,,,,,,,,,,,,,,,,,,,,,,,,,,,,,,,,,,,,,,,,,,,,,,,,200.0,125.0,127.0,127.0,125.0,200.0,1.0,1.1,-702,267,-480,266,-220,260,319.97229528427124,319.972371339798,319.97532963752747,319.9859926700592,320.13724756240845,320.13724756240845,320.13724756240845,320.13724756240845,320.13724756240845,320.13724756240845,320.13724756240845,321.84092712402344,3,1.8510770797729492,None,,,,,,,,,,,,,,,,,,30,4,2025-02-18_17h03.42.887,comp,2024.2.4,57.27130347631005,2025-02-18 17h03.51.169108 -0500,
127,127,0,filler_random,None,None,None,None,None,None,None,None,None,None,1,0.9479572772979736,None,,,,,0,0,0,0,0,127,127,149,321.8569712638855,,,,,,,,,,,,,,,,,,,,,,,,,,,,,,,,,,,,,,,,,,,,,,,,,,,,,,,,,,,,,,,,,,,,,,,,,,,,,,,,,90.23643357928836,123.05456623284817,85.34786359423175,68.31049534931701,66.2269755325996,189.18156629695355,3.0,3.2,-192,-260,0,17,225,267,321.8425626754761,321.84264039993286,321.8454065322876,321.8569712638855,322.00353026390076,322.00353026390076,322.00353026390076,322.00353026390076,322.00353026390076,322.00353026390076,322.00353026390076,322.80702471733093,1,0.9479572772979736,None,,,,,,,,,,,,,,,,,,30,4,2025-02-18_17h03.42.887,comp,2024.2.4,57.27130347631005,2025-02-18 17h03.51.169108 -0500,
128,128,0,critical,hdw,35.0,3.0,upper,200.0,125.0,127.0,127.0,125.0,200.0,1,1.2917959690093994,None,,,,,0,0,0,0,0,128,128,111,322.8251404762268,,,,,,,,,,,,,,,,,,,,,,,,,,,,,,,,,,,,,,,,,,,,,,,,,,,,,,,,,,,,,,,,,,,,,,,,,,,,,,,,,200.0,125.0,127.0,127.0,125.0,200.0,3.0,3.1,-222,289,0,0,260,-276,322.8085997104645,322.80867552757263,322.811949968338,322.8251404762268,322.969673871994,322.969673871994,322.969673871994,322.969673871994,322.969673871994,322.969673871994,322.969673871994,324.1189196109772,1,1.2917959690093994,None,,,,,,,,,,,,,,,,,,30,4,2025-02-18_17h03.42.887,comp,2024.2.4,57.27130347631005,2025-02-18 17h03.51.169108 -0500,
129,129,0,filler_random,None,None,None,None,None,None,None,None,None,None,1,0.8210334777832031,None,,,,,0,0,0,0,0,129,129,133,324.1357560157776,,,,,,,,,,,,,,,,,,,,,,,,,,,,,,,,,,,,,,,,,,,,,,,,,,,,,,,,,,,,,,,,,,,,,,,,,,,,,,,,,139.55395121640015,189.34395508497963,139.82041385747021,99.7384826434605,135.3485624275906,71.99289854392643,2.1,2.12,-241,-252,0,-272,182,276,324.12064838409424,324.12077379226685,324.1240265369415,324.1357560157776,324.27189803123474,324.27189803123474,324.27189803123474,324.27189803123474,324.27189803123474,324.27189803123474,324.27189803123474,324.9688036441803,1,0.8210334777832031,None,,,,,,,,,,,,,,,,,,30,4,2025-02-18_17h03.42.887,comp,2024.2.4,57.27130347631005,2025-02-18 17h03.51.169108 -0500,
130,130,0,critical,hdw,20.0,1.0,upper,200.0,125.0,141.0,141.0,125.0,200.0,3,1.847733497619629,None,,,,,0,0,0,0,0,130,130,115,324.9889259338379,,,,,,,,,,,,,,,,,,,,,,,,,,,,,,,,,,,,,,,,,,,,,,,,,,,,,,,,,,,,,,,,,,,,,,,,,,,,,,,,,200.0,125.0,141.0,141.0,125.0,200.0,1.0,1.3,251,-260,480,-265,746,-275,324.9703953266144,324.97050166130066,324.97388434410095,324.9889259338379,325.1449761390686,325.1449761390686,325.1449761390686,325.1449761390686,325.1449761390686,325.1449761390686,325.1449761390686,326.85671043395996,3,1.847733497619629,None,,,,,,,,,,,,,,,,,,30,4,2025-02-18_17h03.42.887,comp,2024.2.4,57.27130347631005,2025-02-18 17h03.51.169108 -0500,
131,131,0,critical,hwd,20.0,2.1,upper,200.0,125.0,125.0,200.0,141.0,141.0,2,1.938767433166504,None,,,,,0,0,0,0,0,131,131,19,326.8745656013489,,,,,,,,,,,,,,,,,,,,,,,,,,,,,,,,,,,,,,,,,,,,,,,,,,,,,,,,,,,,,,,,,,,,,,,,,,,,,,,,,200.0,125.0,125.0,200.0,141.0,141.0,2.1,2.11,-258,259,0,286,266,-287,326.8583323955536,326.85843682289124,326.861834526062,326.8745656013489,327.0198497772217,327.0198497772217,327.0198497772217,327.0198497772217,327.0198497772217,327.0198497772217,327.0198497772217,328.82067108154297,2,1.938767433166504,None,,,,,,,,,,,,,,,,,,30,4,2025-02-18_17h03.42.887,comp,2024.2.4,57.27130347631005,2025-02-18 17h03.51.169108 -0500,
132,132,0,critical,hwd,20.0,4.0,upper,200.0,125.0,125.0,200.0,141.0,141.0,1,1.88067626953125,None,,,,,0,0,0,0,0,132,132,107,328.83634400367737,,,,,,,,,,,,,,,,,,,,,,,,,,,,,,,,,,,,,,,,,,,,,,,,,,,,,,,,,,,,,,,,,,,,,,,,,,,,,,,,,200.0,125.0,125.0,200.0,141.0,141.0,4.0,4.1,-258,-280,0,4,266,-286,328.8221745491028,328.82224917411804,328.82524585723877,328.83634400367737,328.98572182655334,328.98572182655334,328.98572182655334,328.98572182655334,328.98572182655334,328.98572182655334,328.98572182655334,330.72121930122375,1,1.88067626953125,None,,,,,,,,,,,,,,,,,,30,4,2025-02-18_17h03.42.887,comp,2024.2.4,57.27130347631005,2025-02-18 17h03.51.169108 -0500,
133,133,0,critical,wdh,20.0,1.0,upper,125.0,200.0,141.0,141.0,200.0,125.0,3,1.0957248210906982,None,,,,,0,0,0,0,0,133,133,79,330.7408757209778,,,,,,,,,,,,,,,,,,,,,,,,,,,,,,,,,,,,,,,,,,,,,,,,,,,,,,,,,,,,,,,,,,,,,,,,,,,,,,,,,125.0,200.0,141.0,141.0,200.0,125.0,1.0,1.1,-746,284,-480,266,-251,281,330.7226912975311,330.72276639938354,330.7257580757141,330.7408757209778,330.888986825943,330.888986825943,330.888986825943,330.888986825943,330.888986825943,330.888986825943,330.888986825943,331.8393337726593,3,1.0957248210906982,None,,,,,,,,,,,,,,,,,,30,4,2025-02-18_17h03.42.887,comp,2024.2.4,57.27130347631005,2025-02-18 17h03.51.169108 -0500,
134,134,0,critical,dwh,20.0,2.1,upper,141.0,141.0,125.0,200.0,200.0,125.0,3,2.23793625831604,None,,,,,0,0,0,0,0,134,134,31,331.85562658309937,,,,,,,,,,,,,,,,,,,,,,,,,,,,,,,,,,,,,,,,,,,,,,,,,,,,,,,,,,,,,,,,,,,,,,,,,,,,,,,,,141.0,141.0,125.0,200.0,200.0,125.0,2.1,2.11,-266,265,0,258,258,-265,331.84086775779724,331.84094500541687,331.844908952713,331.85562658309937,332.0043852329254,332.0043852329254,332.0043852329254,332.0043852329254,332.0043852329254,332.0043852329254,332.0043852329254,334.1132881641388,3,2.23793625831604,None,,,,,,,,,,,,,,,,,,30,4,2025-02-18_17h03.42.887,comp,2024.2.4,57.27130347631005,2025-02-18 17h03.51.169108 -0500,
135,135,0,critical,dhw,35.0,2.1,lower,70.0,70.0,133.0,57.0,57.0,133.0,2,1.418619155883789,None,,,,,0,0,0,0,0,135,135,24,334.13037610054016,,,,,,,,,,,,,,,,,,,,,,,,,,,,,,,,,,,,,,,,,,,,,,,,,,,,,,,,,,,,,,,,,,,,,,,,,,,,,,,,,70.0,70.0,133.0,57.0,57.0,133.0,2.1,2.11,-160,255,0,271,191,-276,334.1147747039795,334.11485052108765,334.1177065372467,334.13037610054016,334.28115582466125,334.28115582466125,334.28115582466125,334.28115582466125,334.28115582466125,334.28115582466125,334.28115582466125,335.55750465393066,2,1.418619155883789,None,,,,,,,,,,,,,,,,,,30,4,2025-02-18_17h03.42.887,comp,2024.2.4,57.27130347631005,2025-02-18 17h03.51.169108 -0500,
136,136,0,critical,hwd,20.0,2.1,lower,133.0,57.0,57.0,133.0,78.0,78.0,1,1.6475551128387451,None,,,,,0,0,0,0,0,136,136,42,335.57314825057983,,,,,,,,,,,,,,,,,,,,,,,,,,,,,,,,,,,,,,,,,,,,,,,,,,,,,,,,,,,,,,,,,,,,,,,,,,,,,,,,,133.0,57.0,57.0,133.0,78.0,78.0,2.1,2.11,-191,260,0,255,202,-282,335.55905318260193,335.5591285228729,335.5624589920044,335.57314825057983,335.723646402359,335.723646402359,335.723646402359,335.723646402359,335.723646402359,335.723646402359,335.723646402359,337.2241110801697,1,1.6475551128387451,None,,,,,,,,,,,,,,,,,,30,4,2025-02-18_17h03.42.887,comp,2024.2.4,57.27130347631005,2025-02-18 17h03.51.169108 -0500,
137,137,0,critical,wdh,35.0,2.1,upper,125.0,200.0,127.0,127.0,200.0,125.0,1,1.130408525466919,None,,,,,0,0,0,0,0,137,137,33,337.24221086502075,,,,,,,,,,,,,,,,,,,,,,,,,,,,,,,,,,,,,,,,,,,,,,,,,,,,,,,,,,,,,,,,,,,,,,,,,,,,,,,,,125.0,200.0,127.0,127.0,200.0,125.0,2.1,2.11,-260,258,0,275,222,-274,337.2256693840027,337.22574639320374,337.22906732559204,337.24221086502075,337.3897132873535,337.3897132873535,337.3897132873535,337.3897132873535,337.3897132873535,337.3897132873535,337.3897132873535,338.3750638961792,1,1.130408525466919,None,,,,,,,,,,,,,,,,,,30,4,2025-02-18_17h03.42.887,comp,2024.2.4,57.27130347631005,2025-02-18 17h03.51.169108 -0500,
138,138,0,filler_square,None,None,None,None,None,None,None,None,None,None,2,0.8530035018920898,None,,,,,0,0,0,0,0,138,138,173,338.3916847705841,,,,,,,,,,,,,,,,,,,,,,,,,,,,,,,,,,,,,,,,,,,,,,,,,,,,,,,,,,,,,,,,,,,,,,,,,,,,,,,,,104.0282521165609,84.72397969990304,135.6521113915167,135.6521113915167,118.25377141115814,110.90005462224036,1.0,1.1,-686,255,-480,264,-261,276,338.37682008743286,338.37689661979675,338.3801848888397,338.3916847705841,338.54126477241516,338.54126477241516,338.54126477241516,338.54126477241516,338.54126477241516,338.54126477241516,338.54126477241516,339.25754570961,2,0.8530035018920898,None,,,,,,,,,,,,,,,,,,30,4,2025-02-18_17h03.42.887,comp,2024.2.4,57.27130347631005,2025-02-18 17h03.51.169108 -0500,
139,139,0,filler_random,None,None,None,None,None,None,None,None,None,None,2,0.8666822910308838,None,,,,,0,0,0,0,0,139,139,136,339.2743089199066,,,,,,,,,,,,,,,,,,,,,,,,,,,,,,,,,,,,,,,,,,,,,,,,,,,,,,,,,,,,,,,,,,,,,,,,,,,,,,,,,80.13502709127786,79.30445920332951,160.29160701963218,124.15190652589648,90.73541450034563,84.46401211745953,2.1,2.12,-198,-253,0,-276,200,278,339.25930643081665,339.25945568084717,339.2628846168518,339.2743089199066,339.42293310165405,339.42293310165405,339.42293310165405,339.42293310165405,339.42293310165405,339.42293310165405,339.42293310165405,340.1449816226959,2,0.8666822910308838,None,,,,,,,,,,,,,,,,,,30,4,2025-02-18_17h03.42.887,comp,2024.2.4,57.27130347631005,2025-02-18 17h03.51.169108 -0500,
140,140,0,critical,dhw,35.0,4.0,lower,70.0,70.0,133.0,57.0,57.0,133.0,3,3.065783977508545,None,,,,,0,0,0,0,0,140,140,52,340.16290163993835,,,,,,,,,,,,,,,,,,,,,,,,,,,,,,,,,,,,,,,,,,,,,,,,,,,,,,,,,,,,,,,,,,,,,,,,,,,,,,,,,70.0,70.0,133.0,57.0,57.0,133.0,4.0,4.1,-160,-268,0,-16,191,-290,340.1467936038971,340.1469295024872,340.1499707698822,340.16290163993835,340.308899641037,340.308899641037,340.308899641037,340.308899641037,340.308899641037,340.308899641037,340.308899641037,343.24268674850464,3,3.065783977508545,None,,,,,,,,,,,,,,,,,,30,4,2025-02-18_17h03.42.887,comp,2024.2.4,57.27130347631005,2025-02-18 17h03.51.169108 -0500,
