thisN,thisTrialN,thisRepN,effect,order,distance,config,diag,h_1,w_1,h_2,w_2,h_3,w_3,rect_choice.keys,rect_choice.rt,rect_choice.duration,instructions_loop.thisRepN,instructions_loop.thisTrialN,instructions_loop.thisN,instructions_loop.thisIndex,blocks.thisRepN,blocks.thisTrialN,blocks.thisN,blocks.thisIndex,trials.thisRepN,trials.thisTrialN,trials.thisN,trials.thisIndex,thisRow.t,notes,consent.started,agree_button.started,decline_button.started,consent_img.started,mouse.started,consent.stopped,agree_button.numClicks,agree_button.timesOn,agree_button.timesOff,decline_button.numClicks,decline_button.timesOn,decline_button.timesOff,mouse.x,mouse.y,mouse.leftButton,mouse.midButton,mouse.rightButton,mouse.time,mouse.clicked_name,exp_params.started,exp_params.stopped,welcome.started,welcome_text.started,welcome.stopped,instructions_1.started,instructions_1_text_1.started,instructions_1_text_2.started,key_resp.started,instructions_1.stopped,instructions_loop.key_resp.keys,instructions_loop.key_resp.rt,instructions_loop.key_resp.duration,instructions_2.started,instructions_2_text_1.started,instructions_2_text_2.started,key_resp_2.started,instructions_2.stopped,instructions_loop.key_resp_2.keys,instructions_loop.key_resp_2.rt,instructions_loop.key_resp_2.duration,instructions_3.started,instructions_3_text_1.started,r1_instr3.started,r2_instr3.started,r3_instr3.started,r1_instr3_label.started,r2_instr3_label.started,r3_instr3_label.started,instructions_3_text_3.started,instructions_3_text_4.started,key_resp_3.started,instructions_3.stopped,instructions_loop.key_resp_3.keys,instructions_loop.key_resp_3.rt,instructions_loop.key_resp_3.duration,instructions_4.started,instructions_4_text_1.started,instructions_4_text_3.started,instructions_4_text_2.started,key_resp_4.started,instructions_4.stopped,instructions_loop.key_resp_4.keys,instructions_loop.key_resp_4.rt,instructions_loop.key_resp_4.duration,instructions_5.started,instructions_5_text_1.started,instructions_5_text_2.started,key_resp_5.started,instructions_5.stopped,instructions_loop.key_resp_5.keys,instructions_loop.key_resp_5.rt,instructions_loop.key_resp_5.duration,start_exp.started,start_exp_text.started,key_resp_6.started,start_exp.stopped,key_resp_6.keys,key_resp_6.rt,key_resp_6.duration,h_1_tmp,w_1_tmp,h_2_tmp,w_2_tmp,h_3_tmp,w_3_tmp,config_tmp,config_tmp_1,r_1_x,r_1_y,r_2_x,r_2_y,r_3_x,r_3_y,pre_trial.started,pre_trial.stopped,choice_trial.started,rect_choice.started,r_1.started,r_2.started,r_3.started,r_1_label.started,r_2_label.started,r_3_label.started,prompt.started,choice_trial.stopped,trials.rect_choice.keys,trials.rect_choice.rt,trials.rect_choice.duration,end_block.started,end_block_text.started,end_block.stopped,end.started,end_text.started,key_resp_7.started,end.stopped,key_resp_7.keys,key_resp_7.rt,key_resp_7.duration,debriefing.started,debrief_form.started,end_debrief.started,debriefing.stopped,end_debrief.keys,end_debrief.rt,end_debrief.duration,participant,computer,date,expName,psychopyVersion,frameRate,expStart,
,,,,,,,,,,,,,,,,,,,,,,,,,,,,,,,0.016652822494506836,0.04385042190551758,0.04385042190551758,0.04385042190551758,0.016304731369018555,9.60124683380127,1,[9.556166648864746],[9.556177139282227],0,,,[-62.0],[-500.0],[1],[0],[0],[9.583727598190308],['agree_button'],,,,,,,,,,,,,,,,,,,,,,,,,,,,,,,,,,,,,,,,,,,,,,,,,,,,,,,,,,,,,,,,,,,,,,,,,,,,,,,,,,,,,,,,,,,,,,,,,,,,,,,,,,,31,5,2025-02-18_17h04.13.213,comp,2024.2.4,60.07929777920381,2025-02-18 17h04.23.439396 -0500,
,,,,,,,,,,,,,,,,,,,,,,,,,,,,,,,,,,,,,,,,,,,,,,,,,,9.601525068283081,9.601561307907104,,,,,,,,,,,,,,,,,,,,,,,,,,,,,,,,,,,,,,,,,,,,,,,,,,,,,,,,,,,,,,,,,,,,,,,,,,,,,,,,,,,,,,,,,,,,,,,,,,,,,,,,,31,5,2025-02-18_17h04.13.213,comp,2024.2.4,60.07929777920381,2025-02-18 17h04.23.439396 -0500,
,,,,,,,,,,,,,,,,,,,,,,,,,,,,,,,,,,,,,,,,,,,,,,,,,,,,9.601585149765015,9.61486530303955,11.613147974014282,,,,,,,,,,,,,,,,,,,,,,,,,,,,,,,,,,,,,,,,,,,,,,,,,,,,,,,,,,,,,,,,,,,,,,,,,,,,,,,,,,,,,,,,,,,,,,,,,,,,,,31,5,2025-02-18_17h04.13.213,comp,2024.2.4,60.07929777920381,2025-02-18 17h04.23.439396 -0500,
0,0,0,,,,,,,,,,,,,,,0,0,0,0,,,,,,,,,11.629931211471558,,,,,,,,,,,,,,,,,,,,,,,,,,11.613690614700317,11.629931211471558,11.629931211471558,13.113152503967285,14.981193542480469,space,1.8518118858337402,None,14.981276035308838,14.996694087982178,14.996694087982178,16.496498823165894,22.397526025772095,space,5.884218454360962,None,22.397613286972046,22.419328689575195,22.419328689575195,22.419328689575195,22.419328689575195,22.419328689575195,22.419328689575195,22.419328689575195,22.419328689575195,22.419328689575195,23.896711587905884,30.181221961975098,space,6.267904043197632,None,30.18131446838379,30.196649312973022,30.196649312973022,30.196649312973022,31.696341514587402,34.93090200424194,space,3.229341745376587,None,34.930986166000366,34.946516275405884,34.946516275405884,36.4462251663208,38.197221994400024,space,1.734257459640503,None,38.1973352432251,38.21284198760986,38.21284198760986,39.76378846168518,space,1.5355982780456543,None,,,,,,,,,,,,,,,,,,,,,,,,,,,,,,,,,,,,,,,,,,,,,,,31,5,2025-02-18_17h04.13.213,comp,2024.2.4,60.07929777920381,2025-02-18 17h04.23.439396 -0500,
0,0,0,filler_random,None,None,None,None,None,None,None,None,None,None,2,3.366473913192749,None,,,,,0,0,0,0,0,0,0,156,39.82294940948486,,,,,,,,,,,,,,,,,,,,,,,,,,,,,,,,,,,,,,,,,,,,,,,,,,,,,,,,,,,,,,,,,,,,,,,,,,,,,,,,,142.6600007660964,178.78258213501582,136.63977099801053,198.10226778400624,135.33536690621037,153.43262047694262,1.0,1.3,196,-268,480,-277,752,-287,39.80957841873169,39.809624671936035,39.81161403656006,39.82294940948486,39.96977162361145,39.96977162361145,39.96977162361145,39.96977162361145,39.96977162361145,39.96977162361145,39.96977162361145,43.197420597076416,2,3.366473913192749,None,,,,,,,,,,,,,,,,,,31,5,2025-02-18_17h04.13.213,comp,2024.2.4,60.07929777920381,2025-02-18 17h04.23.439396 -0500,
1,1,0,critical,wdh,20.0,1.0,lower,57.0,133.0,78.0,78.0,133.0,57.0,3,4.639448881149292,None,,,,,0,0,0,0,0,1,1,78,43.21292209625244,,,,,,,,,,,,,,,,,,,,,,,,,,,,,,,,,,,,,,,,,,,,,,,,,,,,,,,,,,,,,,,,,,,,,,,,,,,,,,,,,57.0,133.0,78.0,78.0,133.0,57.0,1.0,1.1,-682,288,-480,287,-316,287,43.19824838638306,43.19828939437866,43.20042395591736,43.21292209625244,43.362839221954346,43.362839221954346,43.362839221954346,43.362839221954346,43.362839221954346,43.362839221954346,43.362839221954346,47.86412024497986,3,4.639448881149292,None,,,,,,,,,,,,,,,,,,31,5,2025-02-18_17h04.13.213,comp,2024.2.4,60.07929777920381,2025-02-18 17h04.23.439396 -0500,
2,2,0,critical,hdw,20.0,3.0,lower,133.0,57.0,78.0,78.0,57.0,133.0,1,2.350452184677124,None,,,,,0,0,0,0,0,2,2,116,47.879287242889404,,,,,,,,,,,,,,,,,,,,,,,,,,,,,,,,,,,,,,,,,,,,,,,,,,,,,,,,,,,,,,,,,,,,,,,,,,,,,,,,,133.0,57.0,78.0,78.0,57.0,133.0,3.0,3.2,-164,-272,0,6,202,263,47.86494278907776,47.86498308181763,47.86742091178894,47.879287242889404,48.029462814331055,48.029462814331055,48.029462814331055,48.029462814331055,48.029462814331055,48.029462814331055,48.029462814331055,50.24753212928772,1,2.350452184677124,None,,,,,,,,,,,,,,,,,,31,5,2025-02-18_17h04.13.213,comp,2024.2.4,60.07929777920381,2025-02-18 17h04.23.439396 -0500,
3,3,0,critical,dhw,20.0,2.1,upper,141.0,141.0,200.0,125.0,125.0,200.0,2,1.6002836227416992,None,,,,,0,0,0,0,0,3,3,27,50.26280999183655,,,,,,,,,,,,,,,,,,,,,,,,,,,,,,,,,,,,,,,,,,,,,,,,,,,,,,,,,,,,,,,,,,,,,,,,,,,,,,,,,141.0,141.0,200.0,125.0,125.0,200.0,2.1,2.12,-229,-261,0,-288,258,268,50.248358964920044,50.248400926589966,50.250935554504395,50.26280999183655,50.41296029090881,50.41296029090881,50.41296029090881,50.41296029090881,50.41296029090881,50.41296029090881,50.41296029090881,51.86431694030762,2,1.6002836227416992,None,,,,,,,,,,,,,,,,,,31,5,2025-02-18_17h04.13.213,comp,2024.2.4,60.07929777920381,2025-02-18 17h04.23.439396 -0500,
4,4,0,critical,hwd,35.0,2.1,upper,200.0,125.0,125.0,200.0,127.0,127.0,1,1.84584641456604,None,,,,,0,0,0,0,0,4,4,17,51.87953782081604,,,,,,,,,,,,,,,,,,,,,,,,,,,,,,,,,,,,,,,,,,,,,,,,,,,,,,,,,,,,,,,,,,,,,,,,,,,,,,,,,200.0,125.0,125.0,200.0,127.0,127.0,2.1,2.11,-258,284,0,284,260,-255,51.865180253982544,51.86522078514099,51.8676016330719,51.87953782081604,52.029545545578,52.029545545578,52.029545545578,52.029545545578,52.029545545578,52.029545545578,52.029545545578,53.73070454597473,1,1.84584641456604,None,,,,,,,,,,,,,,,,,,31,5,2025-02-18_17h04.13.213,comp,2024.2.4,60.07929777920381,2025-02-18 17h04.23.439396 -0500,
5,5,0,critical,whd,20.0,3.0,lower,57.0,133.0,133.0,57.0,78.0,78.0,2,2.995065212249756,None,,,,,0,0,0,0,0,5,5,92,53.74620842933655,,,,,,,,,,,,,,,,,,,,,,,,,,,,,,,,,,,,,,,,,,,,,,,,,,,,,,,,,,,,,,,,,,,,,,,,,,,,,,,,,57.0,133.0,133.0,57.0,78.0,78.0,3.0,3.1,-191,253,0,17,164,-264,53.73149132728577,53.73153281211853,53.734806299209595,53.74620842933655,53.89593315124512,53.89593315124512,53.89593315124512,53.89593315124512,53.89593315124512,53.89593315124512,53.89593315124512,56.74726605415344,2,2.995065212249756,None,,,,,,,,,,,,,,,,,,31,5,2025-02-18_17h04.13.213,comp,2024.2.4,60.07929777920381,2025-02-18 17h04.23.439396 -0500,
6,6,0,critical,whd,35.0,2.1,lower,57.0,133.0,133.0,57.0,70.0,70.0,2,2.410325050354004,None,,,,,0,0,0,0,0,6,6,12,56.76278471946716,,,,,,,,,,,,,,,,,,,,,,,,,,,,,,,,,,,,,,,,,,,,,,,,,,,,,,,,,,,,,,,,,,,,,,,,,,,,,,,,,57.0,133.0,133.0,57.0,70.0,70.0,2.1,2.11,-191,256,0,287,160,-251,56.74805736541748,56.74809765815735,56.7501163482666,56.76278471946716,56.912585973739624,56.912585973739624,56.912585973739624,56.912585973739624,56.912585973739624,56.912585973739624,56.912585973739624,59.180431842803955,2,2.410325050354004,None,,,,,,,,,,,,,,,,,,31,5,2025-02-18_17h04.13.213,comp,2024.2.4,60.07929777920381,2025-02-18 17h04.23.439396 -0500,
7,7,0,critical,dhw,35.0,2.1,upper,127.0,127.0,200.0,125.0,125.0,200.0,3,1.7522046566009521,None,,,,,0,0,0,0,0,7,7,1,59.19602131843567,,,,,,,,,,,,,,,,,,,,,,,,,,,,,,,,,,,,,,,,,,,,,,,,,,,,,,,,,,,,,,,,,,,,,,,,,,,,,,,,,127.0,127.0,200.0,125.0,125.0,200.0,2.1,2.11,-222,260,0,288,258,-272,59.1812858581543,59.18132758140564,59.18333673477173,59.19602131843567,59.34610056877136,59.34610056877136,59.34610056877136,59.34610056877136,59.34610056877136,59.34610056877136,59.34610056877136,60.96380662918091,3,1.7522046566009521,None,,,,,,,,,,,,,,,,,,31,5,2025-02-18_17h04.13.213,comp,2024.2.4,60.07929777920381,2025-02-18 17h04.23.439396 -0500,
8,8,0,critical,hwd,35.0,2.1,lower,133.0,57.0,57.0,133.0,70.0,70.0,1,1.8836581707000732,None,,,,,0,0,0,0,0,8,8,40,60.97906303405762,,,,,,,,,,,,,,,,,,,,,,,,,,,,,,,,,,,,,,,,,,,,,,,,,,,,,,,,,,,,,,,,,,,,,,,,,,,,,,,,,133.0,57.0,57.0,133.0,70.0,70.0,2.1,2.12,-191,-276,0,-279,198,266,60.96456551551819,60.96460580825806,60.96686005592346,60.97906303405762,61.12921714782715,61.12921714782715,61.12921714782715,61.12921714782715,61.12921714782715,61.12921714782715,61.12921714782715,62.864022970199585,1,1.8836581707000732,None,,,,,,,,,,,,,,,,,,31,5,2025-02-18_17h04.13.213,comp,2024.2.4,60.07929777920381,2025-02-18 17h04.23.439396 -0500,
9,9,0,filler_square,None,None,None,None,None,None,None,None,None,None,3,2.0937795639038086,None,,,,,0,0,0,0,0,9,9,175,62.87947678565979,,,,,,,,,,,,,,,,,,,,,,,,,,,,,,,,,,,,,,,,,,,,,,,,,,,,,,,,,,,,,,,,,,,,,,,,,,,,,,,,,63.27357769713639,60.808040364155154,61.69805756876638,58.70484119519875,65.49817066362442,65.49817066362442,2.2,2.21,-156,-288,0,255,158,281,62.8650438785553,62.86508750915527,62.86716151237488,62.87947678565979,63.02922701835632,63.02922701835632,63.02922701835632,63.02922701835632,63.02922701835632,63.02922701835632,63.02922701835632,64.98046112060547,3,2.0937795639038086,None,,,,,,,,,,,,,,,,,,31,5,2025-02-18_17h04.13.213,comp,2024.2.4,60.07929777920381,2025-02-18 17h04.23.439396 -0500,
10,10,0,critical,dhw,35.0,3.0,upper,127.0,127.0,200.0,125.0,125.0,200.0,3,2.0500752925872803,None,,,,,0,0,0,0,0,10,10,51,64.99611306190491,,,,,,,,,,,,,,,,,,,,,,,,,,,,,,,,,,,,,,,,,,,,,,,,,,,,,,,,,,,,,,,,,,,,,,,,,,,,,,,,,127.0,127.0,200.0,125.0,125.0,200.0,3.0,3.2,-222,-264,0,-14,258,284,64.98128032684326,64.98132252693176,64.98341417312622,64.99611306190491,65.14613676071167,65.14613676071167,65.14613676071167,65.14613676071167,65.14613676071167,65.14613676071167,65.14613676071167,67.04744625091553,3,2.0500752925872803,None,,,,,,,,,,,,,,,,,,31,5,2025-02-18_17h04.13.213,comp,2024.2.4,60.07929777920381,2025-02-18 17h04.23.439396 -0500,
11,11,0,filler_square,None,None,None,None,None,None,None,None,None,None,1,1.8052630424499512,None,,,,,0,0,0,0,0,11,11,171,67.06270670890808,,,,,,,,,,,,,,,,,,,,,,,,,,,,,,,,,,,,,,,,,,,,,,,,,,,,,,,,,,,,,,,,,,,,,,,,,,,,,,,,,70.1605097083946,70.1605097083946,65.39974711445298,66.98054136832666,67.29358609872638,60.026203575936286,2.1,2.12,-165,-263,0,-258,160,260,67.04844045639038,67.04848289489746,67.05063772201538,67.06270670890808,67.21254587173462,67.21254587173462,67.21254587173462,67.21254587173462,67.21254587173462,67.21254587173462,67.21254587173462,68.88022637367249,1,1.8052630424499512,None,,,,,,,,,,,,,,,,,,31,5,2025-02-18_17h04.13.213,comp,2024.2.4,60.07929777920381,2025-02-18 17h04.23.439396 -0500,
12,12,0,critical,hdw,20.0,2.1,upper,200.0,125.0,141.0,141.0,125.0,200.0,1,2.2523858547210693,None,,,,,0,0,0,0,0,12,12,47,68.89578294754028,,,,,,,,,,,,,,,,,,,,,,,,,,,,,,,,,,,,,,,,,,,,,,,,,,,,,,,,,,,,,,,,,,,,,,,,,,,,,,,,,200.0,125.0,141.0,141.0,125.0,200.0,2.1,2.11,-229,284,0,278,266,-255,68.88104963302612,68.88109159469604,68.88352012634277,68.89578294754028,69.0463662147522,69.0463662147522,69.0463662147522,69.0463662147522,69.0463662147522,69.0463662147522,69.0463662147522,71.16374659538269,1,2.2523858547210693,None,,,,,,,,,,,,,,,,,,31,5,2025-02-18_17h04.13.213,comp,2024.2.4,60.07929777920381,2025-02-18 17h04.23.439396 -0500,
13,13,0,filler_random,None,None,None,None,None,None,None,None,None,None,1,2.467128276824951,None,,,,,0,0,0,0,0,13,13,133,71.17892718315125,,,,,,,,,,,,,,,,,,,,,,,,,,,,,,,,,,,,,,,,,,,,,,,,,,,,,,,,,,,,,,,,,,,,,,,,,,,,,,,,,180.76074011738598,126.91030147307126,184.03124492229887,60.18148965963243,136.22025935705307,145.9181752838286,3.0,3.1,-190,263,0,2,199,-253,71.16463804244995,71.16469120979309,71.16672134399414,71.17892718315125,71.32936120033264,71.32936120033264,71.32936120033264,71.32936120033264,71.32936120033264,71.32936120033264,71.32936120033264,73.66361331939697,1,2.467128276824951,None,,,,,,,,,,,,,,,,,,31,5,2025-02-18_17h04.13.213,comp,2024.2.4,60.07929777920381,2025-02-18 17h04.23.439396 -0500,
14,14,0,filler_random,None,None,None,None,None,None,None,None,None,None,3,1.804821491241455,None,,,,,0,0,0,0,0,14,14,168,73.6789779663086,,,,,,,,,,,,,,,,,,,,,,,,,,,,,,,,,,,,,,,,,,,,,,,,,,,,,,,,,,,,,,,,,,,,,,,,,,,,,,,,,199.9382076856133,80.93384597646539,145.9891315252309,87.15172482612796,131.673394605125,151.20992001961224,2.1,2.12,-180,-290,0,-280,215,251,73.66455316543579,73.6645941734314,73.66778087615967,73.6789779663086,73.82934546470642,73.82934546470642,73.82934546470642,73.82934546470642,73.82934546470642,73.82934546470642,73.82934546470642,75.49737429618835,3,1.804821491241455,None,,,,,,,,,,,,,,,,,,31,5,2025-02-18_17h04.13.213,comp,2024.2.4,60.07929777920381,2025-02-18 17h04.23.439396 -0500,
15,15,0,critical,hdw,20.0,2.1,upper,200.0,125.0,141.0,141.0,125.0,200.0,3,1.717099666595459,None,,,,,0,0,0,0,0,15,15,23,75.51237726211548,,,,,,,,,,,,,,,,,,,,,,,,,,,,,,,,,,,,,,,,,,,,,,,,,,,,,,,,,,,,,,,,,,,,,,,,,,,,,,,,,200.0,125.0,141.0,141.0,125.0,200.0,2.1,2.11,-229,258,0,260,266,-267,75.49822187423706,75.49826383590698,75.50034022331238,75.51237726211548,75.66257929801941,75.66257929801941,75.66257929801941,75.66257929801941,75.66257929801941,75.66257929801941,75.66257929801941,77.24692869186401,3,1.717099666595459,None,,,,,,,,,,,,,,,,,,31,5,2025-02-18_17h04.13.213,comp,2024.2.4,60.07929777920381,2025-02-18 17h04.23.439396 -0500,
16,16,0,critical,hdw,20.0,3.0,upper,200.0,125.0,141.0,141.0,125.0,200.0,1,1.4162700176239014,None,,,,,0,0,0,0,0,16,16,117,77.26230573654175,,,,,,,,,,,,,,,,,,,,,,,,,,,,,,,,,,,,,,,,,,,,,,,,,,,,,,,,,,,,,,,,,,,,,,,,,,,,,,,,,200.0,125.0,141.0,141.0,125.0,200.0,3.0,3.2,-229,-251,0,-5,266,269,77.24772119522095,77.24776124954224,77.2501425743103,77.26230573654175,77.41263556480408,77.41263556480408,77.41263556480408,77.41263556480408,77.41263556480408,77.41263556480408,77.41263556480408,78.68036270141602,1,1.4162700176239014,None,,,,,,,,,,,,,,,,,,31,5,2025-02-18_17h04.13.213,comp,2024.2.4,60.07929777920381,2025-02-18 17h04.23.439396 -0500,
17,17,0,filler_random,None,None,None,None,None,None,None,None,None,None,1,1.8770811557769775,None,,,,,0,0,0,0,0,17,17,166,78.6958122253418,,,,,,,,,,,,,,,,,,,,,,,,,,,,,,,,,,,,,,,,,,,,,,,,,,,,,,,,,,,,,,,,,,,,,,,,,,,,,,,,,101.94073652959513,118.09863143184161,84.64172647733324,80.80630323246507,74.63310616805333,86.84945302682834,3.0,3.1,-195,251,0,13,180,-289,78.68124413490295,78.68128538131714,78.68333196640015,78.6958122253418,78.84560537338257,78.84560537338257,78.84560537338257,78.84560537338257,78.84560537338257,78.84560537338257,78.84560537338257,80.5802161693573,1,1.8770811557769775,None,,,,,,,,,,,,,,,,,,31,5,2025-02-18_17h04.13.213,comp,2024.2.4,60.07929777920381,2025-02-18 17h04.23.439396 -0500,
18,18,0,filler_square,None,None,None,None,None,None,None,None,None,None,3,1.8091583251953125,None,,,,,0,0,0,0,0,18,18,180,80.59582996368408,,,,,,,,,,,,,,,,,,,,,,,,,,,,,,,,,,,,,,,,,,,,,,,,,,,,,,,,,,,,,,,,,,,,,,,,,,,,,,,,,60.150601808597656,113.12191674947016,105.19922059026953,82.73190208089372,121.23602754683473,121.23602754683473,2.1,2.12,-194,-269,0,-268,198,254,80.58117127418518,80.581209897995,80.58315014839172,80.59582996368408,80.74569153785706,80.74569153785706,80.74569153785706,80.74569153785706,80.74569153785706,80.74569153785706,80.74569153785706,82.41354966163635,3,1.8091583251953125,None,,,,,,,,,,,,,,,,,,31,5,2025-02-18_17h04.13.213,comp,2024.2.4,60.07929777920381,2025-02-18 17h04.23.439396 -0500,
19,19,0,filler_square,None,None,None,None,None,None,None,None,None,None,1,1.654628038406372,None,,,,,0,0,0,0,0,19,19,209,82.42923021316528,,,,,,,,,,,,,,,,,,,,,,,,,,,,,,,,,,,,,,,,,,,,,,,,,,,,,,,,,,,,,,,,,,,,,,,,,,,,,,,,,195.1524390675132,195.1524390675132,174.42802201904507,137.06196736285852,104.8117257939339,131.46625738843898,4.0,4.2,-262,-3,0,-283,230,-9,82.41454577445984,82.41458773612976,82.41711068153381,82.42923021316528,82.57929491996765,82.57929491996765,82.57929491996765,82.57929491996765,82.57929491996765,82.57929491996765,82.57929491996765,84.09709453582764,1,1.654628038406372,None,,,,,,,,,,,,,,,,,,31,5,2025-02-18_17h04.13.213,comp,2024.2.4,60.07929777920381,2025-02-18 17h04.23.439396 -0500,
20,20,0,catch,None,None,None,None,None,None,None,None,None,None,1,1.1008648872375488,None,,,,,0,0,0,0,0,20,20,124,84.11219620704651,,,,,,,,,,,,,,,,,,,,,,,,,,,,,,,,,,,,,,,,,,,,,,,,,,,,,,,,,,,,,,,,,,,,,,,,,,,,,,,,,152,173,73,117,93,97,2.2,2.22,-241,265,0,-269,203,-277,84.09816694259644,84.09821033477783,84.10031867027283,84.11219620704651,84.26234889030457,84.26234889030457,84.26234889030457,84.26234889030457,84.26234889030457,84.26234889030457,84.26234889030457,85.2302098274231,1,1.1008648872375488,None,,,,,,,,,,,,,,,,,,31,5,2025-02-18_17h04.13.213,comp,2024.2.4,60.07929777920381,2025-02-18 17h04.23.439396 -0500,
21,21,0,critical,dwh,20.0,2.1,upper,141.0,141.0,125.0,200.0,200.0,125.0,2,2.1271474361419678,None,,,,,0,0,0,0,0,21,21,7,85.24557447433472,,,,,,,,,,,,,,,,,,,,,,,,,,,,,,,,,,,,,,,,,,,,,,,,,,,,,,,,,,,,,,,,,,,,,,,,,,,,,,,,,141.0,141.0,125.0,200.0,200.0,125.0,2.1,2.12,-266,-261,0,-260,258,271,85.23102927207947,85.23106908798218,85.23354291915894,85.24557447433472,85.3957941532135,85.3957941532135,85.3957941532135,85.3957941532135,85.3957941532135,85.3957941532135,85.3957941532135,87.38024497032166,2,2.1271474361419678,None,,,,,,,,,,,,,,,,,,31,5,2025-02-18_17h04.13.213,comp,2024.2.4,60.07929777920381,2025-02-18 17h04.23.439396 -0500,
22,22,0,filler_square,None,None,None,None,None,None,None,None,None,None,1,1.1521527767181396,None,,,,,0,0,0,0,0,22,22,202,87.39583539962769,,,,,,,,,,,,,,,,,,,,,,,,,,,,,,,,,,,,,,,,,,,,,,,,,,,,,,,,,,,,,,,,,,,,,,,,,,,,,,,,,169.47953055860387,169.47953055860387,89.56619399111352,65.68986474597631,122.13198910648293,168.85179329442428,1.0,1.3,266,-258,480,-289,693,-269,87.38121676445007,87.3812575340271,87.38370561599731,87.39583539962769,87.54572057723999,87.54572057723999,87.54572057723999,87.54572057723999,87.54572057723999,87.54572057723999,87.54572057723999,88.56348776817322,1,1.1521527767181396,None,,,,,,,,,,,,,,,,,,31,5,2025-02-18_17h04.13.213,comp,2024.2.4,60.07929777920381,2025-02-18 17h04.23.439396 -0500,
23,23,0,filler_square,None,None,None,None,None,None,None,None,None,None,2,1.7778263092041016,None,,,,,0,0,0,0,0,23,23,196,88.57891631126404,,,,,,,,,,,,,,,,,,,,,,,,,,,,,,,,,,,,,,,,,,,,,,,,,,,,,,,,,,,,,,,,,,,,,,,,,,,,,,,,,65.98824622890845,61.61399667254884,66.32889286641792,66.32889286641792,63.45952195533364,61.421768630285904,2.1,2.12,-160,-266,0,-251,160,254,88.56446051597595,88.5645010471344,88.56702303886414,88.57891631126404,88.72894072532654,88.72894072532654,88.72894072532654,88.72894072532654,88.72894072532654,88.72894072532654,88.72894072532654,90.36335730552673,2,1.7778263092041016,None,,,,,,,,,,,,,,,,,,31,5,2025-02-18_17h04.13.213,comp,2024.2.4,60.07929777920381,2025-02-18 17h04.23.439396 -0500,
24,24,0,critical,wdh,20.0,1.0,upper,125.0,200.0,141.0,141.0,200.0,125.0,3,1.7847685813903809,None,,,,,0,0,0,0,0,24,24,79,90.37909030914307,,,,,,,,,,,,,,,,,,,,,,,,,,,,,,,,,,,,,,,,,,,,,,,,,,,,,,,,,,,,,,,,,,,,,,,,,,,,,,,,,125.0,200.0,141.0,141.0,200.0,125.0,1.0,1.2,-266,-16,0,7,229,4,90.36416912078857,90.36421012878418,90.36673188209534,90.37909030914307,90.5290515422821,90.5290515422821,90.5290515422821,90.5290515422821,90.5290515422821,90.5290515422821,90.5290515422821,92.18014359474182,3,1.7847685813903809,None,,,,,,,,,,,,,,,,,,31,5,2025-02-18_17h04.13.213,comp,2024.2.4,60.07929777920381,2025-02-18 17h04.23.439396 -0500,
25,25,0,filler_square,None,None,None,None,None,None,None,None,None,None,1,1.1049792766571045,None,,,,,0,0,0,0,0,25,25,170,92.19547295570374,,,,,,,,,,,,,,,,,,,,,,,,,,,,,,,,,,,,,,,,,,,,,,,,,,,,,,,,,,,,,,,,,,,,,,,,,,,,,,,,,87.45773891421817,87.45773891421817,82.40310197910074,71.81598306739205,70.55580247556253,62.86856714863537,2.1,2.11,-176,276,0,263,163,-285,92.18112707138062,92.1811683177948,92.18364000320435,92.19547295570374,92.3454840183258,92.3454840183258,92.3454840183258,92.3454840183258,92.3454840183258,92.3454840183258,92.3454840183258,93.31323504447937,1,1.1049792766571045,None,,,,,,,,,,,,,,,,,,31,5,2025-02-18_17h04.13.213,comp,2024.2.4,60.07929777920381,2025-02-18 17h04.23.439396 -0500,
26,26,0,critical,whd,20.0,2.1,lower,57.0,133.0,133.0,57.0,78.0,78.0,3,1.8919446468353271,None,,,,,0,0,0,0,0,26,26,14,93.32893204689026,,,,,,,,,,,,,,,,,,,,,,,,,,,,,,,,,,,,,,,,,,,,,,,,,,,,,,,,,,,,,,,,,,,,,,,,,,,,,,,,,57.0,133.0,133.0,57.0,78.0,78.0,2.1,2.12,-191,-279,0,-266,164,263,93.31404328346252,93.31408333778381,93.3165111541748,93.32893204689026,93.47879552841187,93.47879552841187,93.47879552841187,93.47879552841187,93.47879552841187,93.47879552841187,93.47879552841187,95.23006796836853,3,1.8919446468353271,None,,,,,,,,,,,,,,,,,,31,5,2025-02-18_17h04.13.213,comp,2024.2.4,60.07929777920381,2025-02-18 17h04.23.439396 -0500,
27,27,0,critical,hwd,35.0,2.1,lower,133.0,57.0,57.0,133.0,70.0,70.0,1,1.7021007537841797,None,,,,,0,0,0,0,0,27,27,16,95.24565267562866,,,,,,,,,,,,,,,,,,,,,,,,,,,,,,,,,,,,,,,,,,,,,,,,,,,,,,,,,,,,,,,,,,,,,,,,,,,,,,,,,133.0,57.0,57.0,133.0,70.0,70.0,2.1,2.11,-191,258,0,275,198,-250,95.23089456558228,95.23093771934509,95.233327627182,95.24565267562866,95.39545893669128,95.39545893669128,95.39545893669128,95.39545893669128,95.39545893669128,95.39545893669128,95.39545893669128,96.9632556438446,1,1.7021007537841797,None,,,,,,,,,,,,,,,,,,31,5,2025-02-18_17h04.13.213,comp,2024.2.4,60.07929777920381,2025-02-18 17h04.23.439396 -0500,
28,28,0,filler_square,None,None,None,None,None,None,None,None,None,None,1,2.4010114669799805,None,,,,,0,0,0,0,0,28,28,197,96.97871446609497,,,,,,,,,,,,,,,,,,,,,,,,,,,,,,,,,,,,,,,,,,,,,,,,,,,,,,,,,,,,,,,,,,,,,,,,,,,,,,,,,84.9085197998351,84.9085197998351,61.77912981243268,61.14427431731749,68.95667671110726,77.02122362864311,2.2,2.21,-169,-266,0,271,165,263,96.96425223350525,96.96429419517517,96.9668300151825,96.97871446609497,97.12885236740112,97.12885236740112,97.12885236740112,97.12885236740112,97.12885236740112,97.12885236740112,97.12885236740112,99.39651584625244,1,2.4010114669799805,None,,,,,,,,,,,,,,,,,,31,5,2025-02-18_17h04.13.213,comp,2024.2.4,60.07929777920381,2025-02-18 17h04.23.439396 -0500,
29,29,0,critical,hdw,20.0,2.1,lower,133.0,57.0,78.0,78.0,57.0,133.0,3,2.0019969940185547,None,,,,,0,0,0,0,0,29,29,22,99.41198325157166,,,,,,,,,,,,,,,,,,,,,,,,,,,,,,,,,,,,,,,,,,,,,,,,,,,,,,,,,,,,,,,,,,,,,,,,,,,,,,,,,133.0,57.0,78.0,78.0,57.0,133.0,2.1,2.11,-164,283,0,289,202,-261,99.39734673500061,99.39738702774048,99.39997124671936,99.41198325157166,99.56210207939148,99.56210207939148,99.56210207939148,99.56210207939148,99.56210207939148,99.56210207939148,99.56210207939148,101.42996716499329,3,2.0019969940185547,None,,,,,,,,,,,,,,,,,,31,5,2025-02-18_17h04.13.213,comp,2024.2.4,60.07929777920381,2025-02-18 17h04.23.439396 -0500,
30,30,0,critical,wdh,20.0,2.1,upper,125.0,200.0,141.0,141.0,200.0,125.0,3,1.6644704341888428,None,,,,,0,0,0,0,0,30,30,11,101.44528794288635,,,,,,,,,,,,,,,,,,,,,,,,,,,,,,,,,,,,,,,,,,,,,,,,,,,,,,,,,,,,,,,,,,,,,,,,,,,,,,,,,125.0,200.0,141.0,141.0,200.0,125.0,2.1,2.11,-266,290,0,287,229,-268,101.43081259727478,101.43085503578186,101.43325471878052,101.44528794288635,101.59570360183716,101.59570360183716,101.59570360183716,101.59570360183716,101.59570360183716,101.59570360183716,101.59570360183716,103.11362171173096,3,1.6644704341888428,None,,,,,,,,,,,,,,,,,,31,5,2025-02-18_17h04.13.213,comp,2024.2.4,60.07929777920381,2025-02-18 17h04.23.439396 -0500,
31,31,0,critical,dhw,35.0,2.1,lower,70.0,70.0,133.0,57.0,57.0,133.0,3,2.243605852127075,None,,,,,0,0,0,0,0,31,31,24,103.12890601158142,,,,,,,,,,,,,,,,,,,,,,,,,,,,,,,,,,,,,,,,,,,,,,,,,,,,,,,,,,,,,,,,,,,,,,,,,,,,,,,,,70.0,70.0,133.0,57.0,57.0,133.0,2.1,2.12,-160,-265,0,-255,191,270,103.11444807052612,103.11448931694031,103.1165931224823,103.12890601158142,103.27864217758179,103.27864217758179,103.27864217758179,103.27864217758179,103.27864217758179,103.27864217758179,103.27864217758179,105.37978434562683,3,2.243605852127075,None,,,,,,,,,,,,,,,,,,31,5,2025-02-18_17h04.13.213,comp,2024.2.4,60.07929777920381,2025-02-18 17h04.23.439396 -0500,
32,32,0,filler_square,None,None,None,None,None,None,None,None,None,None,3,2.4088945388793945,None,,,,,0,0,0,0,0,32,32,194,105.39560794830322,,,,,,,,,,,,,,,,,,,,,,,,,,,,,,,,,,,,,,,,,,,,,,,,,,,,,,,,,,,,,,,,,,,,,,,,,,,,,,,,,77.70899962018908,87.54651403644132,123.81712953704009,79.72095473538943,141.38211074810016,141.38211074810016,1.0,1.3,300,-261,480,-253,687,-271,105.38079285621643,105.38083553314209,105.38317823410034,105.39560794830322,105.54532814025879,105.54532814025879,105.54532814025879,105.54532814025879,105.54532814025879,105.54532814025879,105.54532814025879,107.81310606002808,3,2.4088945388793945,None,,,,,,,,,,,,,,,,,,31,5,2025-02-18_17h04.13.213,comp,2024.2.4,60.07929777920381,2025-02-18 17h04.23.439396 -0500,
33,33,0,critical,wdh,20.0,4.0,lower,57.0,133.0,78.0,78.0,133.0,57.0,3,2.5598747730255127,None,,,,,0,0,0,0,0,33,33,82,107.82878541946411,,,,,,,,,,,,,,,,,,,,,,,,,,,,,,,,,,,,,,,,,,,,,,,,,,,,,,,,,,,,,,,,,,,,,,,,,,,,,,,,,57.0,133.0,78.0,78.0,133.0,57.0,4.0,4.2,-202,18,0,-286,164,-2,107.81393575668335,107.81397819519043,107.8163149356842,107.82878541946411,107.97860145568848,107.97860145568848,107.97860145568848,107.97860145568848,107.97860145568848,107.97860145568848,107.97860145568848,110.39657521247864,3,2.5598747730255127,None,,,,,,,,,,,,,,,,,,31,5,2025-02-18_17h04.13.213,comp,2024.2.4,60.07929777920381,2025-02-18 17h04.23.439396 -0500,
34,34,0,filler_square,None,None,None,None,None,None,None,None,None,None,3,1.3922960758209229,None,,,,,0,0,0,0,0,34,34,188,110.41224503517151,,,,,,,,,,,,,,,,,,,,,,,,,,,,,,,,,,,,,,,,,,,,,,,,,,,,,,,,,,,,,,,,,,,,,,,,,,,,,,,,,57.423121907923324,61.07184255692826,58.85751206898616,64.09781964170475,65.23476790416036,65.23476790416036,2.1,2.11,-159,270,0,254,161,-267,110.39756751060486,110.39761209487915,110.40009689331055,110.41224503517151,110.56193161010742,110.56193161010742,110.56193161010742,110.56193161010742,110.56193161010742,110.56193161010742,110.56193161010742,111.8130931854248,3,1.3922960758209229,None,,,,,,,,,,,,,,,,,,31,5,2025-02-18_17h04.13.213,comp,2024.2.4,60.07929777920381,2025-02-18 17h04.23.439396 -0500,
35,35,0,critical,dhw,20.0,1.0,lower,78.0,78.0,133.0,57.0,57.0,133.0,1,2.4546315670013428,None,,,,,0,0,0,0,0,35,35,54,111.82889294624329,,,,,,,,,,,,,,,,,,,,,,,,,,,,,,,,,,,,,,,,,,,,,,,,,,,,,,,,,,,,,,,,,,,,,,,,,,,,,,,,,78.0,78.0,133.0,57.0,57.0,133.0,1.0,1.1,-644,289,-480,257,-289,270,111.81392860412598,111.81397008895874,111.81639337539673,111.82889294624329,111.97857522964478,111.97857522964478,111.97857522964478,111.97857522964478,111.97857522964478,111.97857522964478,111.97857522964478,114.29655718803406,1,2.4546315670013428,None,,,,,,,,,,,,,,,,,,31,5,2025-02-18_17h04.13.213,comp,2024.2.4,60.07929777920381,2025-02-18 17h04.23.439396 -0500,
36,36,0,filler_random,None,None,None,None,None,None,None,None,None,None,2,2.5396227836608887,None,,,,,0,0,0,0,0,36,36,155,114.31180620193481,,,,,,,,,,,,,,,,,,,,,,,,,,,,,,,,,,,,,,,,,,,,,,,,,,,,,,,,,,,,,,,,,,,,,,,,,,,,,,,,,121.29277325580885,100.92332108193006,164.36787613203546,154.73811188580362,116.12149560813141,171.46565557344178,2.1,2.12,-224,-264,0,-278,259,259,114.29750037193298,114.29754090309143,114.29959726333618,114.31180620193481,114.46203637123108,114.46203637123108,114.46203637123108,114.46203637123108,114.46203637123108,114.46203637123108,114.46203637123108,116.86329364776611,2,2.5396227836608887,None,,,,,,,,,,,,,,,,,,31,5,2025-02-18_17h04.13.213,comp,2024.2.4,60.07929777920381,2025-02-18 17h04.23.439396 -0500,
37,37,0,filler_square,None,None,None,None,None,None,None,None,None,None,3,1.3174958229064941,None,,,,,0,0,0,0,0,37,37,205,116.87841963768005,,,,,,,,,,,,,,,,,,,,,,,,,,,,,,,,,,,,,,,,,,,,,,,,,,,,,,,,,,,,,,,,,,,,,,,,,,,,,,,,,59.065760670672184,69.76415432101953,101.24627387780406,65.12278906952524,104.70974986537357,104.70974986537357,3.0,3.2,-163,-287,0,2,181,273,116.86429738998413,116.86434078216553,116.86682534217834,116.87841963768005,117.0287618637085,117.0287618637085,117.0287618637085,117.0287618637085,117.0287618637085,117.0287618637085,117.0287618637085,118.2130434513092,3,1.3174958229064941,None,,,,,,,,,,,,,,,,,,31,5,2025-02-18_17h04.13.213,comp,2024.2.4,60.07929777920381,2025-02-18 17h04.23.439396 -0500,
38,38,0,critical,hdw,35.0,2.1,upper,200.0,125.0,127.0,127.0,125.0,200.0,3,1.312166452407837,None,,,,,0,0,0,0,0,38,38,21,118.22848153114319,,,,,,,,,,,,,,,,,,,,,,,,,,,,,,,,,,,,,,,,,,,,,,,,,,,,,,,,,,,,,,,,,,,,,,,,,,,,,,,,,200.0,125.0,127.0,127.0,125.0,200.0,2.1,2.12,-222,-254,0,-275,260,270,118.21385288238525,118.21389484405518,118.21637296676636,118.22848153114319,118.37876224517822,118.37876224517822,118.37876224517822,118.37876224517822,118.37876224517822,118.37876224517822,118.37876224517822,119.54650735855103,3,1.312166452407837,None,,,,,,,,,,,,,,,,,,31,5,2025-02-18_17h04.13.213,comp,2024.2.4,60.07929777920381,2025-02-18 17h04.23.439396 -0500,
39,39,0,filler_random,None,None,None,None,None,None,None,None,None,None,2,1.105403184890747,None,,,,,0,0,0,0,0,39,39,161,119.561847448349,,,,,,,,,,,,,,,,,,,,,,,,,,,,,,,,,,,,,,,,,,,,,,,,,,,,,,,,,,,,,,,,,,,,,,,,,,,,,,,,,162.98015221302467,197.74858136971116,187.9621500166063,166.45009371682477,96.95179248039815,139.80460781695405,4.0,4.1,-278,-280,0,-6,249,-255,119.54742503166199,119.54746723175049,119.55007266998291,119.561847448349,119.71206641197205,119.71206641197205,119.71206641197205,119.71206641197205,119.71206641197205,119.71206641197205,119.71206641197205,120.68001103401184,2,1.105403184890747,None,,,,,,,,,,,,,,,,,,31,5,2025-02-18_17h04.13.213,comp,2024.2.4,60.07929777920381,2025-02-18 17h04.23.439396 -0500,
40,40,0,critical,hdw,35.0,4.0,lower,133.0,57.0,70.0,70.0,57.0,133.0,2,1.1417169570922852,None,,,,,0,0,0,0,0,40,40,112,120.69515419006348,,,,,,,,,,,,,,,,,,,,,,,,,,,,,,,,,,,,,,,,,,,,,,,,,,,,,,,,,,,,,,,,,,,,,,,,,,,,,,,,,133.0,57.0,70.0,70.0,57.0,133.0,4.0,4.1,-160,-256,0,18,198,-273,120.68081593513489,120.68085741996765,120.6841938495636,120.69515419006348,120.84511160850525,120.84511160850525,120.84511160850525,120.84511160850525,120.84511160850525,120.84511160850525,120.84511160850525,121.84633588790894,2,1.1417169570922852,None,,,,,,,,,,,,,,,,,,31,5,2025-02-18_17h04.13.213,comp,2024.2.4,60.07929777920381,2025-02-18 17h04.23.439396 -0500,
41,41,0,critical,whd,20.0,2.1,upper,125.0,200.0,200.0,125.0,141.0,141.0,2,1.6942903995513916,None,,,,,0,0,0,0,0,41,41,39,121.86204409599304,,,,,,,,,,,,,,,,,,,,,,,,,,,,,,,,,,,,,,,,,,,,,,,,,,,,,,,,,,,,,,,,,,,,,,,,,,,,,,,,,125.0,200.0,200.0,125.0,141.0,141.0,2.1,2.12,-258,-276,0,-283,229,263,121.84717082977295,121.84721374511719,121.84970879554749,121.86204409599304,122.01195454597473,122.01195454597473,122.01195454597473,122.01195454597473,122.01195454597473,122.01195454597473,122.01195454597473,123.56308245658875,2,1.6942903995513916,None,,,,,,,,,,,,,,,,,,31,5,2025-02-18_17h04.13.213,comp,2024.2.4,60.07929777920381,2025-02-18 17h04.23.439396 -0500,
42,42,0,critical,hwd,35.0,3.0,upper,200.0,125.0,125.0,200.0,127.0,127.0,3,1.3453946113586426,None,,,,,0,0,0,0,0,42,42,99,123.57904005050659,,,,,,,,,,,,,,,,,,,,,,,,,,,,,,,,,,,,,,,,,,,,,,,,,,,,,,,,,,,,,,,,,,,,,,,,,,,,,,,,,200.0,125.0,125.0,200.0,127.0,127.0,3.0,3.2,-258,-283,0,18,260,257,123.56389045715332,123.56393241882324,123.56603908538818,123.57904005050659,123.72873044013977,123.72873044013977,123.72873044013977,123.72873044013977,123.72873044013977,123.72873044013977,123.72873044013977,124.92988705635071,3,1.3453946113586426,None,,,,,,,,,,,,,,,,,,31,5,2025-02-18_17h04.13.213,comp,2024.2.4,60.07929777920381,2025-02-18 17h04.23.439396 -0500,
43,43,0,critical,dhw,20.0,2.1,lower,78.0,78.0,133.0,57.0,57.0,133.0,3,1.6110527515411377,None,,,,,0,0,0,0,0,43,43,2,124.94526672363281,,,,,,,,,,,,,,,,,,,,,,,,,,,,,,,,,,,,,,,,,,,,,,,,,,,,,,,,,,,,,,,,,,,,,,,,,,,,,,,,,78.0,78.0,133.0,57.0,57.0,133.0,2.1,2.11,-164,281,0,266,191,-260,124.93070602416992,124.930748462677,124.93403339385986,124.94526672363281,125.09519577026367,125.09519577026367,125.09519577026367,125.09519577026367,125.09519577026367,125.09519577026367,125.09519577026367,126.56298613548279,3,1.6110527515411377,None,,,,,,,,,,,,,,,,,,31,5,2025-02-18_17h04.13.213,comp,2024.2.4,60.07929777920381,2025-02-18 17h04.23.439396 -0500,
44,44,0,filler_square,None,None,None,None,None,None,None,None,None,None,2,1.0587050914764404,None,,,,,0,0,0,0,0,44,44,179,126.57864618301392,,,,,,,,,,,,,,,,,,,,,,,,,,,,,,,,,,,,,,,,,,,,,,,,,,,,,,,,,,,,,,,,,,,,,,,,,,,,,,,,,140.7048738029785,150.55481639290463,172.8720980359944,172.8720980359944,87.71178321440607,149.56564240143504,4.0,4.1,-258,-281,0,17,257,-253,126.5639636516571,126.56400799751282,126.56633758544922,126.57864618301392,126.72869110107422,126.72869110107422,126.72869110107422,126.72869110107422,126.72869110107422,126.72869110107422,126.72869110107422,127.64642286300659,2,1.0587050914764404,None,,,,,,,,,,,,,,,,,,31,5,2025-02-18_17h04.13.213,comp,2024.2.4,60.07929777920381,2025-02-18 17h04.23.439396 -0500,
45,45,0,critical,dwh,35.0,1.0,lower,70.0,70.0,57.0,133.0,133.0,57.0,3,1.5581393241882324,None,,,,,0,0,0,0,0,45,45,60,127.66209268569946,,,,,,,,,,,,,,,,,,,,,,,,,,,,,,,,,,,,,,,,,,,,,,,,,,,,,,,,,,,,,,,,,,,,,,,,,,,,,,,,,70.0,70.0,57.0,133.0,133.0,57.0,1.0,1.2,-198,-12,0,12,191,-5,127.64736485481262,127.64740681648254,127.65008354187012,127.66209268569946,127.81184649467468,127.81184649467468,127.81184649467468,127.81184649467468,127.81184649467468,127.81184649467468,127.81184649467468,129.2294533252716,3,1.5581393241882324,None,,,,,,,,,,,,,,,,,,31,5,2025-02-18_17h04.13.213,comp,2024.2.4,60.07929777920381,2025-02-18 17h04.23.439396 -0500,
46,46,0,critical,dhw,35.0,4.0,lower,70.0,70.0,133.0,57.0,57.0,133.0,2,1.3503153324127197,None,,,,,0,0,0,0,0,46,46,52,129.2451047897339,,,,,,,,,,,,,,,,,,,,,,,,,,,,,,,,,,,,,,,,,,,,,,,,,,,,,,,,,,,,,,,,,,,,,,,,,,,,,,,,,70.0,70.0,133.0,57.0,57.0,133.0,4.0,4.1,-160,-289,0,-8,191,-262,129.23026323318481,129.23030424118042,129.23287677764893,129.2451047897339,129.3950424194336,129.3950424194336,129.3950424194336,129.3950424194336,129.3950424194336,129.3950424194336,129.3950424194336,130.61291122436523,2,1.3503153324127197,None,,,,,,,,,,,,,,,,,,31,5,2025-02-18_17h04.13.213,comp,2024.2.4,60.07929777920381,2025-02-18 17h04.23.439396 -0500,
47,47,0,filler_random,None,None,None,None,None,None,None,None,None,None,3,1.2959318161010742,None,,,,,0,0,0,0,0,47,47,135,130.62827467918396,,,,,,,,,,,,,,,,,,,,,,,,,,,,,,,,,,,,,,,,,,,,,,,,,,,,,,,,,,,,,,,,,,,,,,,,,,,,,,,,,180.0576714041452,83.16130240353104,81.05373422003234,192.88545468475812,120.35809063880939,125.52906822679168,4.0,4.2,-234,-15,0,-287,255,-15,130.6138207912445,130.61386251449585,130.61622834205627,130.62827467918396,130.7784140110016,130.7784140110016,130.7784140110016,130.7784140110016,130.7784140110016,130.7784140110016,130.7784140110016,131.92978882789612,3,1.2959318161010742,None,,,,,,,,,,,,,,,,,,31,5,2025-02-18_17h04.13.213,comp,2024.2.4,60.07929777920381,2025-02-18 17h04.23.439396 -0500,
48,48,0,filler_random,None,None,None,None,None,None,None,None,None,None,1,1.170046329498291,None,,,,,0,0,0,0,0,48,48,130,131.94531345367432,,,,,,,,,,,,,,,,,,,,,,,,,,,,,,,,,,,,,,,,,,,,,,,,,,,,,,,,,,,,,,,,,,,,,,,,,,,,,,,,,135.13310350496545,180.01246055730297,102.38058615132115,72.77534386542354,157.4122665018533,153.84794644347613,4.0,4.1,-222,-267,0,13,209,-282,131.93071484565735,131.93075799942017,131.9328248500824,131.94531345367432,132.09517288208008,132.09517288208008,132.09517288208008,132.09517288208008,132.09517288208008,132.09517288208008,132.09517288208008,133.129807472229,1,1.170046329498291,None,,,,,,,,,,,,,,,,,,31,5,2025-02-18_17h04.13.213,comp,2024.2.4,60.07929777920381,2025-02-18 17h04.23.439396 -0500,
49,49,0,filler_random,None,None,None,None,None,None,None,None,None,None,3,1.043269157409668,None,,,,,0,0,0,0,0,49,49,150,133.1449213027954,,,,,,,,,,,,,,,,,,,,,,,,,,,,,,,,,,,,,,,,,,,,,,,,,,,,,,,,,,,,,,,,,,,,,,,,,,,,,,,,,178.93058552440704,81.78726528460169,123.77221278852832,154.21946933474692,137.31990569375944,190.84617564491165,2.2,2.21,-214,-262,0,280,269,280,133.13072729110718,133.13077926635742,133.13332152366638,133.1449213027954,133.29508185386658,133.29508185386658,133.29508185386658,133.29508185386658,133.29508185386658,133.29508185386658,133.29508185386658,134.1961965560913,3,1.043269157409668,None,,,,,,,,,,,,,,,,,,31,5,2025-02-18_17h04.13.213,comp,2024.2.4,60.07929777920381,2025-02-18 17h04.23.439396 -0500,
50,50,0,critical,dwh,35.0,4.0,upper,127.0,127.0,125.0,200.0,200.0,125.0,2,1.281808853149414,None,,,,,0,0,0,0,0,50,50,65,134.2117302417755,,,,,,,,,,,,,,,,,,,,,,,,,,,,,,,,,,,,,,,,,,,,,,,,,,,,,,,,,,,,,,,,,,,,,,,,,,,,,,,,,127.0,127.0,125.0,200.0,200.0,125.0,4.0,4.1,-260,-276,0,-17,258,-266,134.19699025154114,134.19703269004822,134.19944834709167,134.2117302417755,134.36180233955383,134.36180233955383,134.36180233955383,134.36180233955383,134.36180233955383,134.36180233955383,134.36180233955383,135.49642515182495,2,1.281808853149414,None,,,,,,,,,,,,,,,,,,31,5,2025-02-18_17h04.13.213,comp,2024.2.4,60.07929777920381,2025-02-18 17h04.23.439396 -0500,
51,51,0,critical,whd,35.0,1.0,upper,125.0,200.0,200.0,125.0,127.0,127.0,2,1.517026424407959,None,,,,,0,0,0,0,0,51,51,85,135.51172041893005,,,,,,,,,,,,,,,,,,,,,,,,,,,,,,,,,,,,,,,,,,,,,,,,,,,,,,,,,,,,,,,,,,,,,,,,,,,,,,,,,125.0,200.0,200.0,125.0,127.0,127.0,1.0,1.3,222,-257,480,-283,702,-272,135.49725794792175,135.49730014801025,135.49935221672058,135.51172041893005,135.6618893146515,135.6618893146515,135.6618893146515,135.6618893146515,135.6618893146515,135.6618893146515,135.6618893146515,137.0462827682495,2,1.517026424407959,None,,,,,,,,,,,,,,,,,,31,5,2025-02-18_17h04.13.213,comp,2024.2.4,60.07929777920381,2025-02-18 17h04.23.439396 -0500,
52,52,0,critical,hwd,20.0,3.0,lower,133.0,57.0,57.0,133.0,78.0,78.0,2,3.2002365589141846,None,,,,,0,0,0,0,0,52,52,104,137.06150817871094,,,,,,,,,,,,,,,,,,,,,,,,,,,,,,,,,,,,,,,,,,,,,,,,,,,,,,,,,,,,,,,,,,,,,,,,,,,,,,,,,133.0,57.0,57.0,133.0,78.0,78.0,3.0,3.1,-191,250,0,-18,202,-263,137.0470838546753,137.04712343215942,137.04954886436462,137.06150817871094,137.2119014263153,137.2119014263153,137.2119014263153,137.2119014263153,137.2119014263153,137.2119014263153,137.2119014263153,140.27948784828186,2,3.2002365589141846,None,,,,,,,,,,,,,,,,,,31,5,2025-02-18_17h04.13.213,comp,2024.2.4,60.07929777920381,2025-02-18 17h04.23.439396 -0500,
53,53,0,critical,whd,35.0,1.0,lower,57.0,133.0,133.0,57.0,70.0,70.0,1,1.3994581699371338,None,,,,,0,0,0,0,0,53,53,84,140.29478454589844,,,,,,,,,,,,,,,,,,,,,,,,,,,,,,,,,,,,,,,,,,,,,,,,,,,,,,,,,,,,,,,,,,,,,,,,,,,,,,,,,57.0,133.0,133.0,57.0,70.0,70.0,1.0,1.2,-191,-1,0,19,160,-3,140.28028082847595,140.28032207489014,140.28286719322205,140.29478454589844,140.44483351707458,140.44483351707458,140.44483351707458,140.44483351707458,140.44483351707458,140.44483351707458,140.44483351707458,141.69599676132202,1,1.3994581699371338,None,,,,,,,,,,,,,,,,,,31,5,2025-02-18_17h04.13.213,comp,2024.2.4,60.07929777920381,2025-02-18 17h04.23.439396 -0500,
54,54,0,catch,None,None,None,None,None,None,None,None,None,None,2,0.9253830909729004,None,,,,,0,0,0,0,0,54,54,127,141.71154189109802,,,,,,,,,,,,,,,,,,,,,,,,,,,,,,,,,,,,,,,,,,,,,,,,,,,,,,,,,,,,,,,,,,,,,,,,,,,,,,,,,100,90,179,146,83,107,4.0,4.1,-214,-277,0,11,222,-252,141.69707918167114,141.69712090492249,141.69968152046204,141.71154189109802,141.8617308139801,141.8617308139801,141.8617308139801,141.8617308139801,141.8617308139801,141.8617308139801,141.8617308139801,142.64606952667236,2,0.9253830909729004,None,,,,,,,,,,,,,,,,,,31,5,2025-02-18_17h04.13.213,comp,2024.2.4,60.07929777920381,2025-02-18 17h04.23.439396 -0500,
55,55,0,filler_random,None,None,None,None,None,None,None,None,None,None,2,1.1103267669677734,None,,,,,0,0,0,0,0,55,55,143,142.6616883277893,,,,,,,,,,,,,,,,,,,,,,,,,,,,,,,,,,,,,,,,,,,,,,,,,,,,,,,,,,,,,,,,,,,,,,,,,,,,,,,,,143.37068232987872,72.93971625415375,195.23810737917364,186.80558337325502,104.0626335607155,142.53192454100252,2.1,2.12,-226,-283,0,-265,261,284,142.64710354804993,142.64714741706848,142.64960980415344,142.6616883277893,142.81169509887695,142.81169509887695,142.81169509887695,142.81169509887695,142.81169509887695,142.81169509887695,142.81169509887695,143.77947854995728,2,1.1103267669677734,None,,,,,,,,,,,,,,,,,,31,5,2025-02-18_17h04.13.213,comp,2024.2.4,60.07929777920381,2025-02-18 17h04.23.439396 -0500,
56,56,0,critical,whd,35.0,4.0,lower,57.0,133.0,133.0,57.0,70.0,70.0,1,1.936586856842041,None,,,,,0,0,0,0,0,56,56,88,143.79491806030273,,,,,,,,,,,,,,,,,,,,,,,,,,,,,,,,,,,,,,,,,,,,,,,,,,,,,,,,,,,,,,,,,,,,,,,,,,,,,,,,,57.0,133.0,133.0,57.0,70.0,70.0,4.0,4.1,-191,-270,0,-20,160,-261,143.78028416633606,143.78032445907593,143.78284358978271,143.79491806030273,143.94492268562317,143.94492268562317,143.94492268562317,143.94492268562317,143.94492268562317,143.94492268562317,143.94492268562317,145.74607729911804,1,1.936586856842041,None,,,,,,,,,,,,,,,,,,31,5,2025-02-18_17h04.13.213,comp,2024.2.4,60.07929777920381,2025-02-18 17h04.23.439396 -0500,
57,57,0,critical,dhw,20.0,2.1,lower,78.0,78.0,133.0,57.0,57.0,133.0,3,1.9857614040374756,None,,,,,0,0,0,0,0,57,57,26,145.7613546848297,,,,,,,,,,,,,,,,,,,,,,,,,,,,,,,,,,,,,,,,,,,,,,,,,,,,,,,,,,,,,,,,,,,,,,,,,,,,,,,,,78.0,78.0,133.0,57.0,57.0,133.0,2.1,2.11,-164,282,0,263,191,-274,145.74686002731323,145.74690055847168,145.74929285049438,145.7613546848297,145.9114899635315,145.9114899635315,145.9114899635315,145.9114899635315,145.9114899635315,145.9114899635315,145.9114899635315,147.7625548839569,3,1.9857614040374756,None,,,,,,,,,,,,,,,,,,31,5,2025-02-18_17h04.13.213,comp,2024.2.4,60.07929777920381,2025-02-18 17h04.23.439396 -0500,
58,58,0,filler_random,None,None,None,None,None,None,None,None,None,None,1,1.273029088973999,None,,,,,0,0,0,0,0,58,58,137,147.7779026031494,,,,,,,,,,,,,,,,,,,,,,,,,,,,,,,,,,,,,,,,,,,,,,,,,,,,,,,,,,,,,,,,,,,,,,,,,,,,,,,,,112.37355821215945,189.21771984153412,167.72182427607555,95.34510353368307,84.8537824455756,115.09414713069903,3.0,3.1,-238,279,0,13,201,-275,147.7634916305542,147.7635316848755,147.7658236026764,147.7779026031494,147.92812776565552,147.92812776565552,147.92812776565552,147.92812776565552,147.92812776565552,147.92812776565552,147.92812776565552,149.06273698806763,1,1.273029088973999,None,,,,,,,,,,,,,,,,,,31,5,2025-02-18_17h04.13.213,comp,2024.2.4,60.07929777920381,2025-02-18 17h04.23.439396 -0500,
59,59,0,critical,hdw,20.0,1.0,lower,133.0,57.0,78.0,78.0,57.0,133.0,2,1.7835350036621094,None,,,,,0,0,0,0,0,59,59,114,149.07799220085144,,,,,,,,,,,,,,,,,,,,,,,,,,,,,,,,,,,,,,,,,,,,,,,,,,,,,,,,,,,,,,,,,,,,,,,,,,,,,,,,,133.0,57.0,78.0,78.0,57.0,133.0,1.0,1.1,-644,262,-480,262,-278,256,149.06355166435242,149.06359386444092,149.06592226028442,149.07799220085144,149.22800755500793,149.22800755500793,149.22800755500793,149.22800755500793,149.22800755500793,149.22800755500793,149.22800755500793,150.87932181358337,2,1.7835350036621094,None,,,,,,,,,,,,,,,,,,31,5,2025-02-18_17h04.13.213,comp,2024.2.4,60.07929777920381,2025-02-18 17h04.23.439396 -0500,
60,60,0,critical,dwh,35.0,2.1,lower,70.0,70.0,57.0,133.0,133.0,57.0,3,1.3338277339935303,None,,,,,0,0,0,0,0,60,60,28,150.89454817771912,,,,,,,,,,,,,,,,,,,,,,,,,,,,,,,,,,,,,,,,,,,,,,,,,,,,,,,,,,,,,,,,,,,,,,,,,,,,,,,,,70.0,70.0,57.0,133.0,133.0,57.0,2.1,2.11,-198,277,0,289,191,-277,150.88013887405396,150.88018083572388,150.8827600479126,150.89454817771912,151.04468727111816,151.04468727111816,151.04468727111816,151.04468727111816,151.04468727111816,151.04468727111816,151.04468727111816,152.22964024543762,3,1.3338277339935303,None,,,,,,,,,,,,,,,,,,31,5,2025-02-18_17h04.13.213,comp,2024.2.4,60.07929777920381,2025-02-18 17h04.23.439396 -0500,
61,61,0,critical,hwd,20.0,4.0,lower,133.0,57.0,57.0,133.0,78.0,78.0,2,1.3110041618347168,None,,,,,0,0,0,0,0,61,61,106,152.2449607849121,,,,,,,,,,,,,,,,,,,,,,,,,,,,,,,,,,,,,,,,,,,,,,,,,,,,,,,,,,,,,,,,,,,,,,,,,,,,,,,,,133.0,57.0,57.0,133.0,78.0,78.0,4.0,4.2,-191,-6,0,-254,202,14,152.23044633865356,152.23048734664917,152.23313736915588,152.2449607849121,152.39487767219543,152.39487767219543,152.39487767219543,152.39487767219543,152.39487767219543,152.39487767219543,152.39487767219543,153.56262183189392,2,1.3110041618347168,None,,,,,,,,,,,,,,,,,,31,5,2025-02-18_17h04.13.213,comp,2024.2.4,60.07929777920381,2025-02-18 17h04.23.439396 -0500,
62,62,0,critical,dwh,20.0,2.1,lower,78.0,78.0,57.0,133.0,133.0,57.0,2,1.8501057624816895,None,,,,,0,0,0,0,0,62,62,30,153.57834267616272,,,,,,,,,,,,,,,,,,,,,,,,,,,,,,,,,,,,,,,,,,,,,,,,,,,,,,,,,,,,,,,,,,,,,,,,,,,,,,,,,78.0,78.0,57.0,133.0,133.0,57.0,2.1,2.12,-202,-262,0,-271,191,289,153.56343507766724,153.56347560882568,153.5659921169281,153.57834267616272,153.72808718681335,153.72808718681335,153.72808718681335,153.72808718681335,153.72808718681335,153.72808718681335,153.72808718681335,155.4458520412445,2,1.8501057624816895,None,,,,,,,,,,,,,,,,,,31,5,2025-02-18_17h04.13.213,comp,2024.2.4,60.07929777920381,2025-02-18 17h04.23.439396 -0500,
63,63,0,critical,whd,35.0,2.1,upper,125.0,200.0,200.0,125.0,127.0,127.0,2,1.6319358348846436,None,,,,,0,0,0,0,0,63,63,37,155.46121430397034,,,,,,,,,,,,,,,,,,,,,,,,,,,,,,,,,,,,,,,,,,,,,,,,,,,,,,,,,,,,,,,,,,,,,,,,,,,,,,,,,125.0,200.0,200.0,125.0,127.0,127.0,2.1,2.11,-258,269,0,266,222,-287,155.4466588497162,155.44671320915222,155.4490623474121,155.46121430397034,155.6115300655365,155.6115300655365,155.6115300655365,155.6115300655365,155.6115300655365,155.6115300655365,155.6115300655365,157.09615874290466,2,1.6319358348846436,None,,,,,,,,,,,,,,,,,,31,5,2025-02-18_17h04.13.213,comp,2024.2.4,60.07929777920381,2025-02-18 17h04.23.439396 -0500,
64,64,0,filler_square,None,None,None,None,None,None,None,None,None,None,3,1.0284197330474854,None,,,,,0,0,0,0,0,64,64,173,157.11143732070923,,,,,,,,,,,,,,,,,,,,,,,,,,,,,,,,,,,,,,,,,,,,,,,,,,,,,,,,,,,,,,,,,,,,,,,,,,,,,,,,,58.87899902513326,87.3404239883618,65.61418426109792,70.51181343614671,112.88516067531572,112.88516067531572,2.1,2.12,-175,-251,0,-260,188,272,157.0971381664276,157.09717988967896,157.0995774269104,157.11143732070923,157.26132082939148,157.26132082939148,157.26132082939148,157.26132082939148,157.26132082939148,157.26132082939148,157.26132082939148,158.1457440853119,3,1.0284197330474854,None,,,,,,,,,,,,,,,,,,31,5,2025-02-18_17h04.13.213,comp,2024.2.4,60.07929777920381,2025-02-18 17h04.23.439396 -0500,
65,65,0,filler_square,None,None,None,None,None,None,None,None,None,None,2,1.169729471206665,None,,,,,0,0,0,0,0,65,65,176,158.16135168075562,,,,,,,,,,,,,,,,,,,,,,,,,,,,,,,,,,,,,,,,,,,,,,,,,,,,,,,,,,,,,,,,,,,,,,,,,,,,,,,,,106.42086325986897,107.1975740489431,165.5637716713967,165.5637716713967,102.00190170217779,132.19783960317864,3.0,3.2,-232,-262,0,-11,245,280,158.14670658111572,158.1467490196228,158.14905500411987,158.16135168075562,158.31143498420715,158.31143498420715,158.31143498420715,158.31143498420715,158.31143498420715,158.31143498420715,158.31143498420715,159.34587717056274,2,1.169729471206665,None,,,,,,,,,,,,,,,,,,31,5,2025-02-18_17h04.13.213,comp,2024.2.4,60.07929777920381,2025-02-18 17h04.23.439396 -0500,
66,66,0,critical,dwh,20.0,3.0,upper,141.0,141.0,125.0,200.0,200.0,125.0,2,1.9701941013336182,None,,,,,0,0,0,0,0,66,66,69,159.36117029190063,,,,,,,,,,,,,,,,,,,,,,,,,,,,,,,,,,,,,,,,,,,,,,,,,,,,,,,,,,,,,,,,,,,,,,,,,,,,,,,,,141.0,141.0,125.0,200.0,200.0,125.0,3.0,3.2,-266,-257,0,-16,258,274,159.34670233726501,159.34674263000488,159.34910440444946,159.36117029190063,159.5114722251892,159.5114722251892,159.5114722251892,159.5114722251892,159.5114722251892,159.5114722251892,159.5114722251892,161.34614658355713,2,1.9701941013336182,None,,,,,,,,,,,,,,,,,,31,5,2025-02-18_17h04.13.213,comp,2024.2.4,60.07929777920381,2025-02-18 17h04.23.439396 -0500,
67,67,0,critical,wdh,35.0,2.1,lower,57.0,133.0,70.0,70.0,133.0,57.0,1,1.633885383605957,None,,,,,0,0,0,0,0,67,67,8,161.36133289337158,,,,,,,,,,,,,,,,,,,,,,,,,,,,,,,,,,,,,,,,,,,,,,,,,,,,,,,,,,,,,,,,,,,,,,,,,,,,,,,,,57.0,133.0,70.0,70.0,133.0,57.0,2.1,2.12,-198,-262,0,-273,160,256,161.34696531295776,161.34700846672058,161.3494529724121,161.36133289337158,161.5112407207489,161.5112407207489,161.5112407207489,161.5112407207489,161.5112407207489,161.5112407207489,161.5112407207489,163.01235055923462,1,1.633885383605957,None,,,,,,,,,,,,,,,,,,31,5,2025-02-18_17h04.13.213,comp,2024.2.4,60.07929777920381,2025-02-18 17h04.23.439396 -0500,
68,68,0,critical,whd,20.0,2.1,upper,125.0,200.0,200.0,125.0,141.0,141.0,2,2.400503158569336,None,,,,,0,0,0,0,0,68,68,15,163.02783727645874,,,,,,,,,,,,,,,,,,,,,,,,,,,,,,,,,,,,,,,,,,,,,,,,,,,,,,,,,,,,,,,,,,,,,,,,,,,,,,,,,125.0,200.0,200.0,125.0,141.0,141.0,2.1,2.12,-258,-271,0,-276,229,286,163.0131540298462,163.0131938457489,163.0157117843628,163.02783727645874,163.17804551124573,163.17804551124573,163.17804551124573,163.17804551124573,163.17804551124573,163.17804551124573,163.17804551124573,165.44593501091003,2,2.400503158569336,None,,,,,,,,,,,,,,,,,,31,5,2025-02-18_17h04.13.213,comp,2024.2.4,60.07929777920381,2025-02-18 17h04.23.439396 -0500,
69,69,0,filler_square,None,None,None,None,None,None,None,None,None,None,2,1.416679859161377,None,,,,,0,0,0,0,0,69,69,189,165.4611301422119,,,,,,,,,,,,,,,,,,,,,,,,,,,,,,,,,,,,,,,,,,,,,,,,,,,,,,,,,,,,,,,,,,,,,,,,,,,,,,,,,128.73149074511718,161.0864235600351,181.41570693686998,181.41570693686998,83.46191642439098,82.1925433691626,2.2,2.22,-267,263,0,-270,228,-273,165.4469096660614,165.44695043563843,165.44932770729065,165.4611301422119,165.61140990257263,165.61140990257263,165.61140990257263,165.61140990257263,165.61140990257263,165.61140990257263,165.61140990257263,166.87928652763367,2,1.416679859161377,None,,,,,,,,,,,,,,,,,,31,5,2025-02-18_17h04.13.213,comp,2024.2.4,60.07929777920381,2025-02-18 17h04.23.439396 -0500,
70,70,0,critical,hwd,35.0,2.1,upper,200.0,125.0,125.0,200.0,127.0,127.0,1,3.333660364151001,None,,,,,0,0,0,0,0,70,70,41,166.89460158348083,,,,,,,,,,,,,,,,,,,,,,,,,,,,,,,,,,,,,,,,,,,,,,,,,,,,,,,,,,,,,,,,,,,,,,,,,,,,,,,,,200.0,125.0,125.0,200.0,127.0,127.0,2.1,2.11,-258,269,0,286,260,-267,166.88008856773376,166.88013076782227,166.88257503509521,166.89460158348083,167.06323981285095,167.06323981285095,167.06323981285095,167.06323981285095,167.06323981285095,167.06323981285095,167.06323981285095,170.24588060379028,1,3.333660364151001,None,,,,,,,,,,,,,,,,,,31,5,2025-02-18_17h04.13.213,comp,2024.2.4,60.07929777920381,2025-02-18 17h04.23.439396 -0500,
71,71,0,critical,dhw,35.0,2.1,upper,127.0,127.0,200.0,125.0,125.0,200.0,3,1.7424519062042236,None,,,,,0,0,0,0,0,71,71,25,170.26122736930847,,,,,,,,,,,,,,,,,,,,,,,,,,,,,,,,,,,,,,,,,,,,,,,,,,,,,,,,,,,,,,,,,,,,,,,,,,,,,,,,,127.0,127.0,200.0,125.0,125.0,200.0,2.1,2.11,-222,256,0,251,258,-281,170.24683332443237,170.2468752861023,170.25018525123596,170.26122736930847,170.41129612922668,170.41129612922668,170.41129612922668,170.41129612922668,170.41129612922668,170.41129612922668,170.41129612922668,172.01247024536133,3,1.7424519062042236,None,,,,,,,,,,,,,,,,,,31,5,2025-02-18_17h04.13.213,comp,2024.2.4,60.07929777920381,2025-02-18 17h04.23.439396 -0500,
72,72,0,critical,hwd,20.0,1.0,upper,200.0,125.0,125.0,200.0,141.0,141.0,1,1.7519457340240479,None,,,,,0,0,0,0,0,72,72,103,172.02805042266846,,,,,,,,,,,,,,,,,,,,,,,,,,,,,,,,,,,,,,,,,,,,,,,,,,,,,,,,,,,,,,,,,,,,,,,,,,,,,,,,,200.0,125.0,125.0,200.0,141.0,141.0,1.0,1.2,-258,18,0,3,266,-2,172.01326990127563,172.01331305503845,172.0157253742218,172.02805042266846,172.17802453041077,172.17802453041077,172.17802453041077,172.17802453041077,172.17802453041077,172.17802453041077,172.17802453041077,173.79571843147278,1,1.7519457340240479,None,,,,,,,,,,,,,,,,,,31,5,2025-02-18_17h04.13.213,comp,2024.2.4,60.07929777920381,2025-02-18 17h04.23.439396 -0500,
73,73,0,critical,dhw,35.0,1.0,upper,127.0,127.0,200.0,125.0,125.0,200.0,2,1.703981637954712,None,,,,,0,0,0,0,0,73,73,49,173.81086373329163,,,,,,,,,,,,,,,,,,,,,,,,,,,,,,,,,,,,,,,,,,,,,,,,,,,,,,,,,,,,,,,,,,,,,,,,,,,,,,,,,127.0,127.0,200.0,125.0,125.0,200.0,1.0,1.1,-702,279,-480,263,-222,275,173.7965030670166,173.7965431213379,173.79856824874878,173.81086373329163,173.96125531196594,173.96125531196594,173.96125531196594,173.96125531196594,173.96125531196594,173.96125531196594,173.96125531196594,175.52920770645142,2,1.703981637954712,None,,,,,,,,,,,,,,,,,,31,5,2025-02-18_17h04.13.213,comp,2024.2.4,60.07929777920381,2025-02-18 17h04.23.439396 -0500,
74,74,0,critical,dwh,20.0,1.0,lower,78.0,78.0,57.0,133.0,133.0,57.0,1,1.5641610622406006,None,,,,,0,0,0,0,0,74,74,66,175.54451751708984,,,,,,,,,,,,,,,,,,,,,,,,,,,,,,,,,,,,,,,,,,,,,,,,,,,,,,,,,,,,,,,,,,,,,,,,,,,,,,,,,78.0,78.0,57.0,133.0,133.0,57.0,1.0,1.1,-682,275,-480,266,-289,254,175.53004097938538,175.53008437156677,175.53360867500305,175.54451751708984,175.6945333480835,175.6945333480835,175.6945333480835,175.6945333480835,175.6945333480835,175.6945333480835,175.6945333480835,177.11247420310974,1,1.5641610622406006,None,,,,,,,,,,,,,,,,,,31,5,2025-02-18_17h04.13.213,comp,2024.2.4,60.07929777920381,2025-02-18 17h04.23.439396 -0500,
75,75,0,critical,dwh,20.0,4.0,lower,78.0,78.0,57.0,133.0,133.0,57.0,2,1.1546692848205566,None,,,,,0,0,0,0,0,75,75,70,177.12789845466614,,,,,,,,,,,,,,,,,,,,,,,,,,,,,,,,,,,,,,,,,,,,,,,,,,,,,,,,,,,,,,,,,,,,,,,,,,,,,,,,,78.0,78.0,57.0,133.0,133.0,57.0,4.0,4.1,-202,-250,0,-19,191,-260,177.11330389976501,177.11334586143494,177.11639213562012,177.12789845466614,177.27768063545227,177.27768063545227,177.27768063545227,177.27768063545227,177.27768063545227,177.27768063545227,177.27768063545227,178.29549360275269,2,1.1546692848205566,None,,,,,,,,,,,,,,,,,,31,5,2025-02-18_17h04.13.213,comp,2024.2.4,60.07929777920381,2025-02-18 17h04.23.439396 -0500,
76,76,0,critical,dwh,35.0,3.0,lower,70.0,70.0,57.0,133.0,133.0,57.0,2,0.9823417663574219,None,,,,,0,0,0,0,0,76,76,62,178.31085443496704,,,,,,,,,,,,,,,,,,,,,,,,,,,,,,,,,,,,,,,,,,,,,,,,,,,,,,,,,,,,,,,,,,,,,,,,,,,,,,,,,70.0,70.0,57.0,133.0,133.0,57.0,3.0,3.2,-198,-265,0,-16,191,287,178.2962782382965,178.29631805419922,178.29887175559998,178.31085443496704,178.4610733985901,178.4610733985901,178.4610733985901,178.4610733985901,178.4610733985901,178.4610733985901,178.4610733985901,179.2957329750061,2,0.9823417663574219,None,,,,,,,,,,,,,,,,,,31,5,2025-02-18_17h04.13.213,comp,2024.2.4,60.07929777920381,2025-02-18 17h04.23.439396 -0500,
77,77,0,critical,hwd,20.0,4.0,upper,200.0,125.0,125.0,200.0,141.0,141.0,1,1.1714069843292236,None,,,,,0,0,0,0,0,77,77,107,179.3111834526062,,,,,,,,,,,,,,,,,,,,,,,,,,,,,,,,,,,,,,,,,,,,,,,,,,,,,,,,,,,,,,,,,,,,,,,,,,,,,,,,,200.0,125.0,125.0,200.0,141.0,141.0,4.0,4.1,-258,-262,0,-14,266,-264,179.29652285575867,179.29656624794006,179.2985966205597,179.3111834526062,179.46119952201843,179.46119952201843,179.46119952201843,179.46119952201843,179.46119952201843,179.46119952201843,179.46119952201843,180.49561405181885,1,1.1714069843292236,None,,,,,,,,,,,,,,,,,,31,5,2025-02-18_17h04.13.213,comp,2024.2.4,60.07929777920381,2025-02-18 17h04.23.439396 -0500,
78,78,0,filler_square,None,None,None,None,None,None,None,None,None,None,3,0.8445508480072021,None,,,,,0,0,0,0,0,78,78,198,180.51085877418518,,,,,,,,,,,,,,,,,,,,,,,,,,,,,,,,,,,,,,,,,,,,,,,,,,,,,,,,,,,,,,,,,,,,,,,,,,,,,,,,,165.55805210104072,116.3492415192726,172.96633250490908,119.2876908851297,186.05182256654453,186.05182256654453,3.0,3.2,-214,-253,0,6,249,281,180.4965443611145,180.49658465385437,180.498530626297,180.51085877418518,180.66128754615784,180.66128754615784,180.66128754615784,180.66128754615784,180.66128754615784,180.66128754615784,180.66128754615784,181.362318277359,3,0.8445508480072021,None,,,,,,,,,,,,,,,,,,31,5,2025-02-18_17h04.13.213,comp,2024.2.4,60.07929777920381,2025-02-18 17h04.23.439396 -0500,
79,79,0,filler_square,None,None,None,None,None,None,None,None,None,None,2,1.033646821975708,None,,,,,0,0,0,0,0,79,79,191,181.37777042388916,,,,,,,,,,,,,,,,,,,,,,,,,,,,,,,,,,,,,,,,,,,,,,,,,,,,,,,,,,,,,,,,,,,,,,,,,,,,,,,,,154.13878012880772,92.63342065340599,156.4997174685235,156.4997174685235,57.33710457097163,106.14581441164816,1.0,1.2,-221,9,0,3,227,-1,181.3632628917694,181.3633041381836,181.36577820777893,181.37777042388916,181.52772498130798,181.52772498130798,181.52772498130798,181.52772498130798,181.52772498130798,181.52772498130798,181.52772498130798,182.41255712509155,2,1.033646821975708,None,,,,,,,,,,,,,,,,,,31,5,2025-02-18_17h04.13.213,comp,2024.2.4,60.07929777920381,2025-02-18 17h04.23.439396 -0500,
80,80,0,critical,dhw,20.0,4.0,lower,78.0,78.0,133.0,57.0,57.0,133.0,3,1.30307936668396,None,,,,,0,0,0,0,0,80,80,58,182.42782640457153,,,,,,,,,,,,,,,,,,,,,,,,,,,,,,,,,,,,,,,,,,,,,,,,,,,,,,,,,,,,,,,,,,,,,,,,,,,,,,,,,78.0,78.0,133.0,57.0,57.0,133.0,4.0,4.2,-164,13,0,-256,191,13,182.413348197937,182.41339015960693,182.41599035263062,182.42782640457153,182.57783389091492,182.57783389091492,182.57783389091492,182.57783389091492,182.57783389091492,182.57783389091492,182.57783389091492,183.74544501304626,3,1.30307936668396,None,,,,,,,,,,,,,,,,,,31,5,2025-02-18_17h04.13.213,comp,2024.2.4,60.07929777920381,2025-02-18 17h04.23.439396 -0500,
81,81,0,filler_random,None,None,None,None,None,None,None,None,None,None,1,1.1856889724731445,None,,,,,0,0,0,0,0,81,81,157,183.76084423065186,,,,,,,,,,,,,,,,,,,,,,,,,,,,,,,,,,,,,,,,,,,,,,,,,,,,,,,,,,,,,,,,,,,,,,,,,,,,,,,,,129.64113636544033,158.93168366417166,91.61248732526013,197.68219673402695,171.56945758626998,72.9437581660831,4.0,4.2,-274,12,0,-288,231,-10,183.74635553359985,183.7463982105255,183.7489356994629,183.76084423065186,183.91110134124756,183.91110134124756,183.91110134124756,183.91110134124756,183.91110134124756,183.91110134124756,183.91110134124756,184.9621226787567,1,1.1856889724731445,None,,,,,,,,,,,,,,,,,,31,5,2025-02-18_17h04.13.213,comp,2024.2.4,60.07929777920381,2025-02-18 17h04.23.439396 -0500,
82,82,0,filler_random,None,None,None,None,None,None,None,None,None,None,2,0.8419609069824219,None,,,,,0,0,0,0,0,82,82,134,184.97753047943115,,,,,,,,,,,,,,,,,,,,,,,,,,,,,,,,,,,,,,,,,,,,,,,,,,,,,,,,,,,,,,,,,,,,,,,,,,,,,,,,,89.10939077623814,155.67756751364536,195.38166060182607,156.96900948675705,60.35425420228404,176.36255885884242,2.2,2.21,-252,-272,0,266,263,286,184.96305561065674,184.96309852600098,184.96553587913513,184.97753047943115,185.12777471542358,185.12777471542358,185.12777471542358,185.12777471542358,185.12777471542358,185.12777471542358,185.12777471542358,185.82904410362244,2,0.8419609069824219,None,,,,,,,,,,,,,,,,,,31,5,2025-02-18_17h04.13.213,comp,2024.2.4,60.07929777920381,2025-02-18 17h04.23.439396 -0500,
83,83,0,critical,hdw,20.0,2.1,lower,133.0,57.0,78.0,78.0,57.0,133.0,3,1.3020765781402588,None,,,,,0,0,0,0,0,83,83,46,185.8445110321045,,,,,,,,,,,,,,,,,,,,,,,,,,,,,,,,,,,,,,,,,,,,,,,,,,,,,,,,,,,,,,,,,,,,,,,,,,,,,,,,,133.0,57.0,78.0,78.0,57.0,133.0,2.1,2.12,-164,-258,0,-253,202,268,185.82984590530396,185.8298864364624,185.83228635787964,185.8445110321045,185.99428343772888,185.99428343772888,185.99428343772888,185.99428343772888,185.99428343772888,185.99428343772888,185.99428343772888,187.16207695007324,3,1.3020765781402588,None,,,,,,,,,,,,,,,,,,31,5,2025-02-18_17h04.13.213,comp,2024.2.4,60.07929777920381,2025-02-18 17h04.23.439396 -0500,
84,84,0,filler_square,None,None,None,None,None,None,None,None,None,None,2,0.9621963500976562,None,,,,,0,0,0,0,0,84,84,182,187.17754483222961,,,,,,,,,,,,,,,,,,,,,,,,,,,,,,,,,,,,,,,,,,,,,,,,,,,,,,,,,,,,,,,,,,,,,,,,,,,,,,,,,88.14486368620004,99.67919299956603,132.32130021961382,132.32130021961382,68.97904720129334,114.8988252232632,3.0,3.1,-212,259,0,-13,220,-255,187.1630401611328,187.16308164596558,187.16548776626587,187.17754483222961,187.3279311656952,187.3279311656952,187.3279311656952,187.3279311656952,187.3279311656952,187.3279311656952,187.3279311656952,188.1454315185547,2,0.9621963500976562,None,,,,,,,,,,,,,,,,,,31,5,2025-02-18_17h04.13.213,comp,2024.2.4,60.07929777920381,2025-02-18 17h04.23.439396 -0500,
85,85,0,critical,whd,20.0,1.0,upper,125.0,200.0,200.0,125.0,141.0,141.0,2,1.099992036819458,None,,,,,0,0,0,0,0,85,85,91,188.1609857082367,,,,,,,,,,,,,,,,,,,,,,,,,,,,,,,,,,,,,,,,,,,,,,,,,,,,,,,,,,,,,,,,,,,,,,,,,,,,,,,,,125.0,200.0,200.0,125.0,141.0,141.0,1.0,1.2,-258,4,0,8,229,18,188.1461980342865,188.14623951911926,188.14838910102844,188.1609857082367,188.3111915588379,188.3111915588379,188.3111915588379,188.3111915588379,188.3111915588379,188.3111915588379,188.3111915588379,189.26250910758972,2,1.099992036819458,None,,,,,,,,,,,,,,,,,,31,5,2025-02-18_17h04.13.213,comp,2024.2.4,60.07929777920381,2025-02-18 17h04.23.439396 -0500,
86,86,0,critical,hdw,35.0,2.1,lower,133.0,57.0,70.0,70.0,57.0,133.0,1,1.3259782791137695,None,,,,,0,0,0,0,0,86,86,20,189.27771973609924,,,,,,,,,,,,,,,,,,,,,,,,,,,,,,,,,,,,,,,,,,,,,,,,,,,,,,,,,,,,,,,,,,,,,,,,,,,,,,,,,133.0,57.0,70.0,70.0,57.0,133.0,2.1,2.12,-160,-284,0,-287,198,257,189.2633056640625,189.26334762573242,189.26575016975403,189.27771973609924,189.42754411697388,189.42754411697388,189.42754411697388,189.42754411697388,189.42754411697388,189.42754411697388,189.42754411697388,190.61190748214722,1,1.3259782791137695,None,,,,,,,,,,,,,,,,,,31,5,2025-02-18_17h04.13.213,comp,2024.2.4,60.07929777920381,2025-02-18 17h04.23.439396 -0500,
87,87,0,critical,hwd,20.0,2.1,lower,133.0,57.0,57.0,133.0,78.0,78.0,1,2.416996955871582,None,,,,,0,0,0,0,0,87,87,18,190.62774419784546,,,,,,,,,,,,,,,,,,,,,,,,,,,,,,,,,,,,,,,,,,,,,,,,,,,,,,,,,,,,,,,,,,,,,,,,,,,,,,,,,133.0,57.0,57.0,133.0,78.0,78.0,2.1,2.12,-191,-267,0,-274,202,262,190.61272549629211,190.61276745796204,190.6151328086853,190.62774419784546,190.77755117416382,190.77755117416382,190.77755117416382,190.77755117416382,190.77755117416382,190.77755117416382,190.77755117416382,193.0621588230133,1,2.416996955871582,None,,,,,,,,,,,,,,,,,,31,5,2025-02-18_17h04.13.213,comp,2024.2.4,60.07929777920381,2025-02-18 17h04.23.439396 -0500,
88,88,0,filler_random,None,None,None,None,None,None,None,None,None,None,1,1.0688178539276123,None,,,,,0,0,0,0,0,88,88,158,193.07759547233582,,,,,,,,,,,,,,,,,,,,,,,,,,,,,,,,,,,,,,,,,,,,,,,,,,,,,,,,,,,,,,,,,,,,,,,,,,,,,,,,,88.04377677071406,165.49253779518324,115.00774954606328,104.39738654057486,106.076929607034,63.414599991108396,4.0,4.2,-231,-9,0,-256,180,-3,193.06310415267944,193.06314396858215,193.06579113006592,193.07759547233582,193.22756361961365,193.22756361961365,193.22756361961365,193.22756361961365,193.22756361961365,193.22756361961365,193.22756361961365,194.16203093528748,1,1.0688178539276123,None,,,,,,,,,,,,,,,,,,31,5,2025-02-18_17h04.13.213,comp,2024.2.4,60.07929777920381,2025-02-18 17h04.23.439396 -0500,
89,89,0,filler_random,None,None,None,None,None,None,None,None,None,None,1,1.033837080001831,None,,,,,0,0,0,0,0,89,89,138,194.17740893363953,,,,,,,,,,,,,,,,,,,,,,,,,,,,,,,,,,,,,,,,,,,,,,,,,,,,,,,,,,,,,,,,,,,,,,,,,,,,,,,,,103.19958758877905,159.354627867927,60.472664740176015,83.68181007186817,104.02716029674504,107.72166264416333,2.2,2.21,-218,-258,0,275,192,265,194.16293787956238,194.16297793388367,194.16538190841675,194.17740893363953,194.32767820358276,194.32767820358276,194.32767820358276,194.32767820358276,194.32767820358276,194.32767820358276,194.32767820358276,195.2286205291748,1,1.033837080001831,None,,,,,,,,,,,,,,,,,,31,5,2025-02-18_17h04.13.213,comp,2024.2.4,60.07929777920381,2025-02-18 17h04.23.439396 -0500,
90,90,0,catch,None,None,None,None,None,None,None,None,None,None,1,1.2549028396606445,None,,,,,0,0,0,0,0,90,90,122,195.24407577514648,,,,,,,,,,,,,,,,,,,,,,,,,,,,,,,,,,,,,,,,,,,,,,,,,,,,,,,,,,,,,,,,,,,,,,,,,,,,,,,,,198,127,64,126,110,80,2.2,2.21,-222,-286,0,260,199,270,195.22969484329224,195.22973728179932,195.23211431503296,195.24407577514648,195.3941957950592,195.3941957950592,195.3941957950592,195.3941957950592,195.3941957950592,195.3941957950592,195.3941957950592,196.51204442977905,1,1.2549028396606445,None,,,,,,,,,,,,,,,,,,31,5,2025-02-18_17h04.13.213,comp,2024.2.4,60.07929777920381,2025-02-18 17h04.23.439396 -0500,
91,91,0,critical,hdw,35.0,2.1,upper,200.0,125.0,127.0,127.0,125.0,200.0,3,1.3337135314941406,None,,,,,0,0,0,0,0,91,91,45,196.5272753238678,,,,,,,,,,,,,,,,,,,,,,,,,,,,,,,,,,,,,,,,,,,,,,,,,,,,,,,,,,,,,,,,,,,,,,,,,,,,,,,,,200.0,125.0,127.0,127.0,125.0,200.0,2.1,2.11,-222,261,0,263,260,-269,196.51285123825073,196.51289200782776,196.51532530784607,196.5272753238678,196.67773914337158,196.67773914337158,196.67773914337158,196.67773914337158,196.67773914337158,196.67773914337158,196.67773914337158,197.86226534843445,3,1.3337135314941406,None,,,,,,,,,,,,,,,,,,31,5,2025-02-18_17h04.13.213,comp,2024.2.4,60.07929777920381,2025-02-18 17h04.23.439396 -0500,
92,92,0,filler_random,None,None,None,None,None,None,None,None,None,None,3,0.9503593444824219,None,,,,,0,0,0,0,0,92,92,147,197.87746334075928,,,,,,,,,,,,,,,,,,,,,,,,,,,,,,,,,,,,,,,,,,,,,,,,,,,,,,,,,,,,,,,,,,,,,,,,,,,,,,,,,87.68684275168796,183.607066187222,58.92319048158581,124.19845298307642,187.66054519198215,117.83712981932561,2.1,2.11,-250,254,0,264,217,-278,197.86320424079895,197.8632457256317,197.8656735420227,197.87746334075928,198.02778315544128,198.02778315544128,198.02778315544128,198.02778315544128,198.02778315544128,198.02778315544128,198.02778315544128,198.8453872203827,3,0.9503593444824219,None,,,,,,,,,,,,,,,,,,31,5,2025-02-18_17h04.13.213,comp,2024.2.4,60.07929777920381,2025-02-18 17h04.23.439396 -0500,
93,93,0,critical,dhw,35.0,3.0,lower,70.0,70.0,133.0,57.0,57.0,133.0,3,1.2630023956298828,None,,,,,0,0,0,0,0,93,93,50,198.86058831214905,,,,,,,,,,,,,,,,,,,,,,,,,,,,,,,,,,,,,,,,,,,,,,,,,,,,,,,,,,,,,,,,,,,,,,,,,,,,,,,,,70.0,70.0,133.0,57.0,57.0,133.0,3.0,3.1,-160,279,0,20,191,-279,198.8461742401123,198.84621405601501,198.84875082969666,198.86058831214905,199.01072669029236,199.01072669029236,199.01072669029236,199.01072669029236,199.01072669029236,199.01072669029236,199.01072669029236,200.12871646881104,3,1.2630023956298828,None,,,,,,,,,,,,,,,,,,31,5,2025-02-18_17h04.13.213,comp,2024.2.4,60.07929777920381,2025-02-18 17h04.23.439396 -0500,
94,94,0,filler_square,None,None,None,None,None,None,None,None,None,None,1,1.0834999084472656,None,,,,,0,0,0,0,0,94,94,177,200.14426136016846,,,,,,,,,,,,,,,,,,,,,,,,,,,,,,,,,,,,,,,,,,,,,,,,,,,,,,,,,,,,,,,,,,,,,,,,,,,,,,,,,123.81405021888912,123.81405021888912,103.26107508315692,86.49781013595464,88.72190047271602,89.14298953907937,1.0,1.1,-681,278,-480,288,-296,257,200.12969660758972,200.12974166870117,200.13206672668457,200.14426136016846,200.29419326782227,200.29419326782227,200.29419326782227,200.29419326782227,200.29419326782227,200.29419326782227,200.29419326782227,201.24542427062988,1,1.0834999084472656,None,,,,,,,,,,,,,,,,,,31,5,2025-02-18_17h04.13.213,comp,2024.2.4,60.07929777920381,2025-02-18 17h04.23.439396 -0500,
95,95,0,critical,dhw,35.0,1.0,lower,70.0,70.0,133.0,57.0,57.0,133.0,2,1.3106238842010498,None,,,,,0,0,0,0,0,95,95,48,201.26063561439514,,,,,,,,,,,,,,,,,,,,,,,,,,,,,,,,,,,,,,,,,,,,,,,,,,,,,,,,,,,,,,,,,,,,,,,,,,,,,,,,,70.0,70.0,133.0,57.0,57.0,133.0,1.0,1.2,-160,5,0,19,191,5,201.24623894691467,201.24628019332886,201.2489595413208,201.26063561439514,201.41070652008057,201.41070652008057,201.41070652008057,201.41070652008057,201.41070652008057,201.41070652008057,201.41070652008057,202.57864236831665,2,1.3106238842010498,None,,,,,,,,,,,,,,,,,,31,5,2025-02-18_17h04.13.213,comp,2024.2.4,60.07929777920381,2025-02-18 17h04.23.439396 -0500,
96,96,0,filler_random,None,None,None,None,None,None,None,None,None,None,2,1.2721374034881592,None,,,,,0,0,0,0,0,96,96,160,202.59417176246643,,,,,,,,,,,,,,,,,,,,,,,,,,,,,,,,,,,,,,,,,,,,,,,,,,,,,,,,,,,,,,,,,,,,,,,,,,,,,,,,,104.18156480128178,198.33131485490424,193.05719479568089,126.52145300637858,94.64155723420738,98.59319779647606,4.0,4.1,-258,-254,0,-11,209,-284,202.57957887649536,202.57962012290955,202.5819535255432,202.59417176246643,202.7441737651825,202.7441737651825,202.7441737651825,202.7441737651825,202.7441737651825,202.7441737651825,202.7441737651825,203.87881731987,2,1.2721374034881592,None,,,,,,,,,,,,,,,,,,31,5,2025-02-18_17h04.13.213,comp,2024.2.4,60.07929777920381,2025-02-18 17h04.23.439396 -0500,
97,97,0,critical,dwh,20.0,4.0,upper,141.0,141.0,125.0,200.0,200.0,125.0,2,2.1987264156341553,None,,,,,0,0,0,0,0,97,97,71,203.89396452903748,,,,,,,,,,,,,,,,,,,,,,,,,,,,,,,,,,,,,,,,,,,,,,,,,,,,,,,,,,,,,,,,,,,,,,,,,,,,,,,,,141.0,141.0,125.0,200.0,200.0,125.0,4.0,4.2,-266,12,0,-251,258,-15,203.87959623336792,203.8796365261078,203.88169026374817,203.89396452903748,204.04425883293152,204.04425883293152,204.04425883293152,204.04425883293152,204.04425883293152,204.04425883293152,204.04425883293152,206.09559297561646,2,2.1987264156341553,None,,,,,,,,,,,,,,,,,,31,5,2025-02-18_17h04.13.213,comp,2024.2.4,60.07929777920381,2025-02-18 17h04.23.439396 -0500,
98,98,0,filler_square,None,None,None,None,None,None,None,None,None,None,2,1.182159185409546,None,,,,,0,0,0,0,0,98,98,185,206.11084175109863,,,,,,,,,,,,,,,,,,,,,,,,,,,,,,,,,,,,,,,,,,,,,,,,,,,,,,,,,,,,,,,,,,,,,,,,,,,,,,,,,65.42943274015371,67.17067745263117,88.60730553601586,88.60730553601586,71.9950981415428,63.430771105032406,1.0,1.1,-654,275,-480,289,-308,274,206.0965826511383,206.0966236591339,206.09903502464294,206.11084175109863,206.26058292388916,206.26058292388916,206.26058292388916,206.26058292388916,206.26058292388916,206.26058292388916,206.26058292388916,207.29558062553406,2,1.182159185409546,None,,,,,,,,,,,,,,,,,,31,5,2025-02-18_17h04.13.213,comp,2024.2.4,60.07929777920381,2025-02-18 17h04.23.439396 -0500,
99,99,0,critical,hdw,35.0,3.0,lower,133.0,57.0,70.0,70.0,57.0,133.0,3,1.4284279346466064,None,,,,,0,0,0,0,0,99,99,110,207.310866355896,,,,,,,,,,,,,,,,,,,,,,,,,,,,,,,,,,,,,,,,,,,,,,,,,,,,,,,,,,,,,,,,,,,,,,,,,,,,,,,,,133.0,57.0,70.0,70.0,57.0,133.0,3.0,3.2,-160,-259,0,1,198,254,207.29638290405273,207.29642271995544,207.29880619049072,207.310866355896,207.46058893203735,207.46058893203735,207.46058893203735,207.46058893203735,207.46058893203735,207.46058893203735,207.46058893203735,208.74514985084534,3,1.4284279346466064,None,,,,,,,,,,,,,,,,,,31,5,2025-02-18_17h04.13.213,comp,2024.2.4,60.07929777920381,2025-02-18 17h04.23.439396 -0500,
100,100,0,critical,dwh,35.0,1.0,upper,127.0,127.0,125.0,200.0,200.0,125.0,3,1.250556230545044,None,,,,,0,0,0,0,0,100,100,61,208.76079416275024,,,,,,,,,,,,,,,,,,,,,,,,,,,,,,,,,,,,,,,,,,,,,,,,,,,,,,,,,,,,,,,,,,,,,,,,,,,,,,,,,127.0,127.0,125.0,200.0,200.0,125.0,1.0,1.3,220,-260,480,-255,738,-255,208.7459704875946,208.7460126876831,208.74841022491455,208.76079416275024,208.91080689430237,208.91080689430237,208.91080689430237,208.91080689430237,208.91080689430237,208.91080689430237,208.91080689430237,210.02855920791626,3,1.250556230545044,None,,,,,,,,,,,,,,,,,,31,5,2025-02-18_17h04.13.213,comp,2024.2.4,60.07929777920381,2025-02-18 17h04.23.439396 -0500,
101,101,0,critical,wdh,35.0,1.0,lower,57.0,133.0,70.0,70.0,133.0,57.0,3,2.0704925060272217,None,,,,,0,0,0,0,0,101,101,72,210.04389595985413,,,,,,,,,,,,,,,,,,,,,,,,,,,,,,,,,,,,,,,,,,,,,,,,,,,,,,,,,,,,,,,,,,,,,,,,,,,,,,,,,57.0,133.0,70.0,70.0,133.0,57.0,1.0,1.3,282,-276,480,-288,640,-263,210.02937602996826,210.02941799163818,210.03146743774414,210.04389595985413,210.19398498535156,210.19398498535156,210.19398498535156,210.19398498535156,210.19398498535156,210.19398498535156,210.19398498535156,212.1284155845642,3,2.0704925060272217,None,,,,,,,,,,,,,,,,,,31,5,2025-02-18_17h04.13.213,comp,2024.2.4,60.07929777920381,2025-02-18 17h04.23.439396 -0500,
102,102,0,critical,hdw,35.0,3.0,upper,200.0,125.0,127.0,127.0,125.0,200.0,3,1.3222484588623047,None,,,,,0,0,0,0,0,102,102,111,212.14382481575012,,,,,,,,,,,,,,,,,,,,,,,,,,,,,,,,,,,,,,,,,,,,,,,,,,,,,,,,,,,,,,,,,,,,,,,,,,,,,,,,,200.0,125.0,127.0,127.0,125.0,200.0,3.0,3.1,-222,252,0,17,260,-259,212.12921476364136,212.12925744056702,212.13125681877136,212.14382481575012,212.294207572937,212.294207572937,212.294207572937,212.294207572937,212.294207572937,212.294207572937,212.294207572937,213.47864317893982,3,1.3222484588623047,None,,,,,,,,,,,,,,,,,,31,5,2025-02-18_17h04.13.213,comp,2024.2.4,60.07929777920381,2025-02-18 17h04.23.439396 -0500,
103,103,0,filler_square,None,None,None,None,None,None,None,None,None,None,2,0.9669792652130127,None,,,,,0,0,0,0,0,103,103,206,213.49376773834229,,,,,,,,,,,,,,,,,,,,,,,,,,,,,,,,,,,,,,,,,,,,,,,,,,,,,,,,,,,,,,,,,,,,,,,,,,,,,,,,,84.95772648775402,66.02069516872956,92.03986231796246,92.03986231796246,70.36551340721971,58.619466102562406,3.0,3.1,-175,282,0,-17,171,-272,213.47961401939392,213.47965598106384,213.48172163963318,213.49376773834229,213.6438660621643,213.6438660621643,213.6438660621643,213.6438660621643,213.6438660621643,213.6438660621643,213.6438660621643,214.46207189559937,2,0.9669792652130127,None,,,,,,,,,,,,,,,,,,31,5,2025-02-18_17h04.13.213,comp,2024.2.4,60.07929777920381,2025-02-18 17h04.23.439396 -0500,
104,104,0,critical,whd,35.0,2.1,lower,57.0,133.0,133.0,57.0,70.0,70.0,2,1.9833614826202393,None,,,,,0,0,0,0,0,104,104,36,214.47739005088806,,,,,,,,,,,,,,,,,,,,,,,,,,,,,,,,,,,,,,,,,,,,,,,,,,,,,,,,,,,,,,,,,,,,,,,,,,,,,,,,,57.0,133.0,133.0,57.0,70.0,70.0,2.1,2.11,-191,277,0,270,160,-287,214.46288204193115,214.4629237651825,214.46499109268188,214.47739005088806,214.62721753120422,214.62721753120422,214.62721753120422,214.62721753120422,214.62721753120422,214.62721753120422,214.62721753120422,216.46213936805725,2,1.9833614826202393,None,,,,,,,,,,,,,,,,,,31,5,2025-02-18_17h04.13.213,comp,2024.2.4,60.07929777920381,2025-02-18 17h04.23.439396 -0500,
105,105,0,filler_square,None,None,None,None,None,None,None,None,None,None,3,1.5259685516357422,None,,,,,0,0,0,0,0,105,105,207,216.47743773460388,,,,,,,,,,,,,,,,,,,,,,,,,,,,,,,,,,,,,,,,,,,,,,,,,,,,,,,,,,,,,,,,,,,,,,,,,,,,,,,,,58.95970830180381,57.91287331047545,60.65700765562626,60.65700765562626,60.43541543778826,57.12466059182667,3.0,3.2,-155,-270,0,-3,155,274,216.46312856674194,216.46317195892334,216.46532082557678,216.47743773460388,216.62722873687744,216.62722873687744,216.62722873687744,216.62722873687744,216.62722873687744,216.62722873687744,216.62722873687744,218.01170825958252,3,1.5259685516357422,None,,,,,,,,,,,,,,,,,,31,5,2025-02-18_17h04.13.213,comp,2024.2.4,60.07929777920381,2025-02-18 17h04.23.439396 -0500,
106,106,0,catch,None,None,None,None,None,None,None,None,None,None,1,1.0383026599884033,None,,,,,0,0,0,0,0,106,106,121,218.02773308753967,,,,,,,,,,,,,,,,,,,,,,,,,,,,,,,,,,,,,,,,,,,,,,,,,,,,,,,,,,,,,,,,,,,,,,,,,,,,,,,,,183,142,92,98,100,90,2.2,2.22,-216,263,0,-255,190,-266,218.01277351379395,218.0128161907196,218.01488089561462,218.02773308753967,218.1772632598877,218.1772632598877,218.1772632598877,218.1772632598877,218.1772632598877,218.1772632598877,218.1772632598877,219.07856798171997,1,1.0383026599884033,None,,,,,,,,,,,,,,,,,,31,5,2025-02-18_17h04.13.213,comp,2024.2.4,60.07929777920381,2025-02-18 17h04.23.439396 -0500,
107,107,0,critical,whd,35.0,2.1,upper,125.0,200.0,200.0,125.0,127.0,127.0,2,1.2453413009643555,None,,,,,0,0,0,0,0,107,107,13,219.09373116493225,,,,,,,,,,,,,,,,,,,,,,,,,,,,,,,,,,,,,,,,,,,,,,,,,,,,,,,,,,,,,,,,,,,,,,,,,,,,,,,,,125.0,200.0,200.0,125.0,127.0,127.0,2.1,2.11,-258,283,0,274,222,-272,219.07938647270203,219.07942843437195,219.08200097084045,219.09373116493225,219.24405527114868,219.24405527114868,219.24405527114868,219.24405527114868,219.24405527114868,219.24405527114868,219.24405527114868,220.34527397155762,2,1.2453413009643555,None,,,,,,,,,,,,,,,,,,31,5,2025-02-18_17h04.13.213,comp,2024.2.4,60.07929777920381,2025-02-18 17h04.23.439396 -0500,
108,108,0,critical,wdh,35.0,2.1,upper,125.0,200.0,127.0,127.0,200.0,125.0,1,1.3380818367004395,None,,,,,0,0,0,0,0,108,108,33,220.3606195449829,,,,,,,,,,,,,,,,,,,,,,,,,,,,,,,,,,,,,,,,,,,,,,,,,,,,,,,,,,,,,,,,,,,,,,,,,,,,,,,,,125.0,200.0,127.0,127.0,200.0,125.0,2.1,2.11,-260,283,0,261,222,-282,220.34609365463257,220.34613394737244,220.34822463989258,220.3606195449829,220.51072907447815,220.51072907447815,220.51072907447815,220.51072907447815,220.51072907447815,220.51072907447815,220.51072907447815,221.7118616104126,1,1.3380818367004395,None,,,,,,,,,,,,,,,,,,31,5,2025-02-18_17h04.13.213,comp,2024.2.4,60.07929777920381,2025-02-18 17h04.23.439396 -0500,
109,109,0,critical,dhw,35.0,2.1,lower,70.0,70.0,133.0,57.0,57.0,133.0,2,1.1963791847229004,None,,,,,0,0,0,0,0,109,109,0,221.72704601287842,,,,,,,,,,,,,,,,,,,,,,,,,,,,,,,,,,,,,,,,,,,,,,,,,,,,,,,,,,,,,,,,,,,,,,,,,,,,,,,,,70.0,70.0,133.0,57.0,57.0,133.0,2.1,2.11,-160,257,0,264,191,-285,221.71264028549194,221.71269297599792,221.7150092124939,221.72704601287842,221.87721252441406,221.87721252441406,221.87721252441406,221.87721252441406,221.87721252441406,221.87721252441406,221.87721252441406,222.9284484386444,2,1.1963791847229004,None,,,,,,,,,,,,,,,,,,31,5,2025-02-18_17h04.13.213,comp,2024.2.4,60.07929777920381,2025-02-18 17h04.23.439396 -0500,
110,110,0,critical,whd,35.0,4.0,upper,125.0,200.0,200.0,125.0,127.0,127.0,2,0.9167475700378418,None,,,,,0,0,0,0,0,110,110,89,222.94386625289917,,,,,,,,,,,,,,,,,,,,,,,,,,,,,,,,,,,,,,,,,,,,,,,,,,,,,,,,,,,,,,,,,,,,,,,,,,,,,,,,,125.0,200.0,200.0,125.0,127.0,127.0,4.0,4.1,-258,-281,0,-15,222,-263,222.9292597770691,222.92929983139038,222.9318447113037,222.94386625289917,223.09394478797913,223.09394478797913,223.09394478797913,223.09394478797913,223.09394478797913,223.09394478797913,223.09394478797913,223.87856650352478,2,0.9167475700378418,None,,,,,,,,,,,,,,,,,,31,5,2025-02-18_17h04.13.213,comp,2024.2.4,60.07929777920381,2025-02-18 17h04.23.439396 -0500,
111,111,0,critical,hdw,20.0,1.0,upper,200.0,125.0,141.0,141.0,125.0,200.0,1,1.1670596599578857,None,,,,,0,0,0,0,0,111,111,115,223.8936517238617,,,,,,,,,,,,,,,,,,,,,,,,,,,,,,,,,,,,,,,,,,,,,,,,,,,,,,,,,,,,,,,,,,,,,,,,,,,,,,,,,200.0,125.0,141.0,141.0,125.0,200.0,1.0,1.3,251,-271,480,-260,746,-266,223.87937760353088,223.87941646575928,223.88163948059082,223.8936517238617,224.04394698143005,224.04394698143005,224.04394698143005,224.04394698143005,224.04394698143005,224.04394698143005,224.04394698143005,225.07857251167297,1,1.1670596599578857,None,,,,,,,,,,,,,,,,,,31,5,2025-02-18_17h04.13.213,comp,2024.2.4,60.07929777920381,2025-02-18 17h04.23.439396 -0500,
112,112,0,filler_square,None,None,None,None,None,None,None,None,None,None,1,1.0145263671875,None,,,,,0,0,0,0,0,112,112,192,225.093656539917,,,,,,,,,,,,,,,,,,,,,,,,,,,,,,,,,,,,,,,,,,,,,,,,,,,,,,,,,,,,,,,,,,,,,,,,,,,,,,,,,178.36835359171857,178.36835359171857,92.02563514229026,100.96893851570697,133.6889034106879,71.37755884110905,2.1,2.12,-236,-287,0,-254,182,281,225.07956433296204,225.07960653305054,225.08209109306335,225.093656539917,225.24388122558594,225.24388122558594,225.24388122558594,225.24388122558594,225.24388122558594,225.24388122558594,225.24388122558594,226.1118564605713,1,1.0145263671875,None,,,,,,,,,,,,,,,,,,31,5,2025-02-18_17h04.13.213,comp,2024.2.4,60.07929777920381,2025-02-18 17h04.23.439396 -0500,
113,113,0,catch,None,None,None,None,None,None,None,None,None,None,2,0.9499537944793701,None,,,,,0,0,0,0,0,113,113,120,226.12735891342163,,,,,,,,,,,,,,,,,,,,,,,,,,,,,,,,,,,,,,,,,,,,,,,,,,,,,,,,,,,,,,,,,,,,,,,,,,,,,,,,,115,75,160,165,58,132,2.2,2.22,-216,250,0,-261,244,-273,226.112948179245,226.1129903793335,226.11506390571594,226.12735891342163,226.27715730667114,226.27715730667114,226.27715730667114,226.27715730667114,226.27715730667114,226.27715730667114,226.27715730667114,227.09485268592834,2,0.9499537944793701,None,,,,,,,,,,,,,,,,,,31,5,2025-02-18_17h04.13.213,comp,2024.2.4,60.07929777920381,2025-02-18 17h04.23.439396 -0500,
114,114,0,filler_random,None,None,None,None,None,None,None,None,None,None,2,0.9717147350311279,None,,,,,0,0,0,0,0,114,114,169,227.11021423339844,,,,,,,,,,,,,,,,,,,,,,,,,,,,,,,,,,,,,,,,,,,,,,,,,,,,,,,,,,,,,,,,,,,,,,,,,,,,,,,,,148.08629895258275,104.07731428394953,177.19928456203218,124.22820125060238,76.1575052745483,114.01799282268384,4.0,4.2,-210,3,0,-251,215,12,227.09577798843384,227.0958194732666,227.0982005596161,227.11021423339844,227.2605230808258,227.2605230808258,227.2605230808258,227.2605230808258,227.2605230808258,227.2605230808258,227.2605230808258,228.09501767158508,2,0.9717147350311279,None,,,,,,,,,,,,,,,,,,31,5,2025-02-18_17h04.13.213,comp,2024.2.4,60.07929777920381,2025-02-18 17h04.23.439396 -0500,
115,115,0,filler_square,None,None,None,None,None,None,None,None,None,None,3,1.0203475952148438,None,,,,,0,0,0,0,0,115,115,200,228.11017179489136,,,,,,,,,,,,,,,,,,,,,,,,,,,,,,,,,,,,,,,,,,,,,,,,,,,,,,,,,,,,,,,,,,,,,,,,,,,,,,,,,159.81330246325598,136.3649646612327,80.56992399800617,103.20997976502655,182.3226462411552,182.3226462411552,2.1,2.12,-216,-256,0,-262,239,275,228.09598064422607,228.09602308273315,228.09849166870117,228.11017179489136,228.26071739196777,228.26071739196777,228.26071739196777,228.26071739196777,228.26071739196777,228.26071739196777,228.26071739196777,229.14506030082703,3,1.0203475952148438,None,,,,,,,,,,,,,,,,,,31,5,2025-02-18_17h04.13.213,comp,2024.2.4,60.07929777920381,2025-02-18 17h04.23.439396 -0500,
116,116,0,catch,None,None,None,None,None,None,None,None,None,None,2,1.1536779403686523,None,,,,,0,0,0,0,0,116,116,126,229.16036415100098,,,,,,,,,,,,,,,,,,,,,,,,,,,,,,,,,,,,,,,,,,,,,,,,,,,,,,,,,,,,,,,,,,,,,,,,,,,,,,,,,79,111,157,168,133,57,1.0,1.3,244,-265,480,-252,688,-256,229.14611077308655,229.14615082740784,229.14853191375732,229.16036415100098,229.31046676635742,229.31046676635742,229.31046676635742,229.31046676635742,229.31046676635742,229.31046676635742,229.31046676635742,230.32851457595825,2,1.1536779403686523,None,,,,,,,,,,,,,,,,,,31,5,2025-02-18_17h04.13.213,comp,2024.2.4,60.07929777920381,2025-02-18 17h04.23.439396 -0500,
117,117,0,filler_square,None,None,None,None,None,None,None,None,None,None,1,1.2506489753723145,None,,,,,0,0,0,0,0,117,117,199,230.34354281425476,,,,,,,,,,,,,,,,,,,,,,,,,,,,,,,,,,,,,,,,,,,,,,,,,,,,,,,,,,,,,,,,,,,,,,,,,,,,,,,,,74.93146214109787,74.93146214109787,71.11262511185981,68.44420520335964,63.72640014481887,67.2436402689597,2.2,2.21,-168,-276,0,265,164,268,230.329505443573,230.32954907417297,230.3320517539978,230.34354281425476,230.49370527267456,230.49370527267456,230.49370527267456,230.49370527267456,230.49370527267456,230.49370527267456,230.49370527267456,231.59534311294556,1,1.2506489753723145,None,,,,,,,,,,,,,,,,,,31,5,2025-02-18_17h04.13.213,comp,2024.2.4,60.07929777920381,2025-02-18 17h04.23.439396 -0500,
118,118,0,critical,hwd,35.0,4.0,upper,200.0,125.0,125.0,200.0,127.0,127.0,2,1.7674028873443604,None,,,,,0,0,0,0,0,118,118,101,231.61049938201904,,,,,,,,,,,,,,,,,,,,,,,,,,,,,,,,,,,,,,,,,,,,,,,,,,,,,,,,,,,,,,,,,,,,,,,,,,,,,,,,,200.0,125.0,125.0,200.0,127.0,127.0,4.0,4.1,-258,-262,0,-13,260,-276,231.59615468978882,231.5961971282959,231.59873294830322,231.61049938201904,231.76055002212524,231.76055002212524,231.76055002212524,231.76055002212524,231.76055002212524,231.76055002212524,231.76055002212524,233.39497900009155,2,1.7674028873443604,None,,,,,,,,,,,,,,,,,,31,5,2025-02-18_17h04.13.213,comp,2024.2.4,60.07929777920381,2025-02-18 17h04.23.439396 -0500,
119,119,0,critical,wdh,20.0,3.0,upper,125.0,200.0,141.0,141.0,200.0,125.0,3,1.3285918235778809,None,,,,,0,0,0,0,0,119,119,81,233.4102761745453,,,,,,,,,,,,,,,,,,,,,,,,,,,,,,,,,,,,,,,,,,,,,,,,,,,,,,,,,,,,,,,,,,,,,,,,,,,,,,,,,125.0,200.0,141.0,141.0,200.0,125.0,3.0,3.1,-266,287,0,-10,229,-289,233.39588451385498,233.39592576026917,233.39800453186035,233.4102761745453,233.5605275630951,233.5605275630951,233.5605275630951,233.5605275630951,233.5605275630951,233.5605275630951,233.5605275630951,234.7449278831482,3,1.3285918235778809,None,,,,,,,,,,,,,,,,,,31,5,2025-02-18_17h04.13.213,comp,2024.2.4,60.07929777920381,2025-02-18 17h04.23.439396 -0500,
120,120,0,critical,hwd,35.0,3.0,lower,133.0,57.0,57.0,133.0,70.0,70.0,2,1.2175390720367432,None,,,,,0,0,0,0,0,120,120,98,234.76039791107178,,,,,,,,,,,,,,,,,,,,,,,,,,,,,,,,,,,,,,,,,,,,,,,,,,,,,,,,,,,,,,,,,,,,,,,,,,,,,,,,,133.0,57.0,57.0,133.0,70.0,70.0,3.0,3.2,-191,-286,0,-19,198,258,234.74571776390076,234.74575996398926,234.7478313446045,234.76039791107178,234.91034507751465,234.91034507751465,234.91034507751465,234.91034507751465,234.91034507751465,234.91034507751465,234.91034507751465,235.99486756324768,2,1.2175390720367432,None,,,,,,,,,,,,,,,,,,31,5,2025-02-18_17h04.13.213,comp,2024.2.4,60.07929777920381,2025-02-18 17h04.23.439396 -0500,
121,121,0,filler_random,None,None,None,None,None,None,None,None,None,None,3,1.039499282836914,None,,,,,0,0,0,0,0,121,121,131,236.01018810272217,,,,,,,,,,,,,,,,,,,,,,,,,,,,,,,,,,,,,,,,,,,,,,,,,,,,,,,,,,,,,,,,,,,,,,,,,,,,,,,,,167.898446829548,84.28004674948914,144.24416573334105,174.99799171808843,156.52948894686978,191.99777228351869,2.1,2.11,-226,252,0,270,279,-280,235.9958028793335,235.99584698677063,235.9981837272644,236.01018810272217,236.16051316261292,236.16051316261292,236.16051316261292,236.16051316261292,236.16051316261292,236.16051316261292,236.16051316261292,237.06199526786804,3,1.039499282836914,None,,,,,,,,,,,,,,,,,,31,5,2025-02-18_17h04.13.213,comp,2024.2.4,60.07929777920381,2025-02-18 17h04.23.439396 -0500,
122,122,0,critical,hdw,35.0,2.1,lower,133.0,57.0,70.0,70.0,57.0,133.0,1,1.126056432723999,None,,,,,0,0,0,0,0,122,122,44,237.0769078731537,,,,,,,,,,,,,,,,,,,,,,,,,,,,,,,,,,,,,,,,,,,,,,,,,,,,,,,,,,,,,,,,,,,,,,,,,,,,,,,,,133.0,57.0,70.0,70.0,57.0,133.0,2.1,2.12,-160,-270,0,-257,198,290,237.06281685829163,237.06285691261292,237.06491994857788,237.0769078731537,237.22705960273743,237.22705960273743,237.22705960273743,237.22705960273743,237.22705960273743,237.22705960273743,237.22705960273743,238.21147108078003,1,1.126056432723999,None,,,,,,,,,,,,,,,,,,31,5,2025-02-18_17h04.13.213,comp,2024.2.4,60.07929777920381,2025-02-18 17h04.23.439396 -0500,
123,123,0,filler_square,None,None,None,None,None,None,None,None,None,None,2,0.9673416614532471,None,,,,,0,0,0,0,0,123,123,184,238.2272126674652,,,,,,,,,,,,,,,,,,,,,,,,,,,,,,,,,,,,,,,,,,,,,,,,,,,,,,,,,,,,,,,,,,,,,,,,,,,,,,,,,91.51642854404861,82.05400897326503,199.68919219769927,199.68919219769927,179.985102864944,109.24628426607599,1.0,1.3,243,-285,480,-275,730,-277,238.21245121955872,238.21249270439148,238.2149851322174,238.2272126674652,238.37714624404907,238.37714624404907,238.37714624404907,238.37714624404907,238.37714624404907,238.37714624404907,238.37714624404907,239.2115671634674,2,0.9673416614532471,None,,,,,,,,,,,,,,,,,,31,5,2025-02-18_17h04.13.213,comp,2024.2.4,60.07929777920381,2025-02-18 17h04.23.439396 -0500,
124,124,0,critical,wdh,35.0,2.1,lower,57.0,133.0,70.0,70.0,133.0,57.0,1,1.4229705333709717,None,,,,,0,0,0,0,0,124,124,32,239.2268476486206,,,,,,,,,,,,,,,,,,,,,,,,,,,,,,,,,,,,,,,,,,,,,,,,,,,,,,,,,,,,,,,,,,,,,,,,,,,,,,,,,57.0,133.0,70.0,70.0,133.0,57.0,2.1,2.11,-198,256,0,266,160,-277,239.2123839855194,239.21242666244507,239.21447443962097,239.2268476486206,239.3768515586853,239.3768515586853,239.3768515586853,239.3768515586853,239.3768515586853,239.3768515586853,239.3768515586853,240.66129779815674,1,1.4229705333709717,None,,,,,,,,,,,,,,,,,,31,5,2025-02-18_17h04.13.213,comp,2024.2.4,60.07929777920381,2025-02-18 17h04.23.439396 -0500,
125,125,0,filler_random,None,None,None,None,None,None,None,None,None,None,1,0.8618061542510986,None,,,,,0,0,0,0,0,125,125,141,240.67700743675232,,,,,,,,,,,,,,,,,,,,,,,,,,,,,,,,,,,,,,,,,,,,,,,,,,,,,,,,,,,,,,,,,,,,,,,,,,,,,,,,,108.78236142806418,145.05321075140097,122.15056524273926,85.75111881384743,59.527586353797815,128.00938545192508,4.0,4.2,-211,-9,0,-263,203,17,240.6622200012207,240.66226267814636,240.66483616828918,240.67700743675232,240.82701754570007,240.82701754570007,240.82701754570007,240.82701754570007,240.82701754570007,240.82701754570007,240.82701754570007,241.54474020004272,1,0.8618061542510986,None,,,,,,,,,,,,,,,,,,31,5,2025-02-18_17h04.13.213,comp,2024.2.4,60.07929777920381,2025-02-18 17h04.23.439396 -0500,
126,126,0,critical,dwh,35.0,2.1,upper,127.0,127.0,125.0,200.0,200.0,125.0,3,1.4891035556793213,None,,,,,0,0,0,0,0,126,126,5,241.5605456829071,,,,,,,,,,,,,,,,,,,,,,,,,,,,,,,,,,,,,,,,,,,,,,,,,,,,,,,,,,,,,,,,,,,,,,,,,,,,,,,,,127.0,127.0,125.0,200.0,200.0,125.0,2.1,2.12,-260,-279,0,-278,258,280,241.545565366745,241.5456085205078,241.54772114753723,241.5605456829071,241.71050429344177,241.71050429344177,241.71050429344177,241.71050429344177,241.71050429344177,241.71050429344177,241.71050429344177,243.06159090995789,3,1.4891035556793213,None,,,,,,,,,,,,,,,,,,31,5,2025-02-18_17h04.13.213,comp,2024.2.4,60.07929777920381,2025-02-18 17h04.23.439396 -0500,
127,127,0,filler_random,None,None,None,None,None,None,None,None,None,None,1,1.1011090278625488,None,,,,,0,0,0,0,0,127,127,162,243.07682085037231,,,,,,,,,,,,,,,,,,,,,,,,,,,,,,,,,,,,,,,,,,,,,,,,,,,,,,,,,,,,,,,,,,,,,,,,,,,,,,,,,178.0872035880618,166.43624703757092,85.48212661048018,126.40549713104079,165.58136248600692,84.7919007137132,2.2,2.22,-242,260,0,-253,202,-283,243.06246709823608,243.06250739097595,243.06446266174316,243.07682085037231,243.2269675731659,243.2269675731659,243.2269675731659,243.2269675731659,243.2269675731659,243.2269675731659,243.2269675731659,244.19482946395874,1,1.1011090278625488,None,,,,,,,,,,,,,,,,,,31,5,2025-02-18_17h04.13.213,comp,2024.2.4,60.07929777920381,2025-02-18 17h04.23.439396 -0500,
128,128,0,filler_square,None,None,None,None,None,None,None,None,None,None,2,0.960533857345581,None,,,,,0,0,0,0,0,128,128,195,244.2101924419403,,,,,,,,,,,,,,,,,,,,,,,,,,,,,,,,,,,,,,,,,,,,,,,,,,,,,,,,,,,,,,,,,,,,,,,,,,,,,,,,,116.50738251010615,90.05283510740603,156.53942856387616,156.53942856387616,62.1731587313557,86.87606203528827,3.0,3.1,-219,281,0,0,218,-276,244.19580006599426,244.19584131240845,244.19913125038147,244.2101924419403,244.36027073860168,244.36027073860168,244.36027073860168,244.36027073860168,244.36027073860168,244.36027073860168,244.36027073860168,245.1780903339386,2,0.960533857345581,None,,,,,,,,,,,,,,,,,,31,5,2025-02-18_17h04.13.213,comp,2024.2.4,60.07929777920381,2025-02-18 17h04.23.439396 -0500,
129,129,0,critical,dwh,35.0,3.0,upper,127.0,127.0,125.0,200.0,200.0,125.0,2,1.104743480682373,None,,,,,0,0,0,0,0,129,129,63,245.1936218738556,,,,,,,,,,,,,,,,,,,,,,,,,,,,,,,,,,,,,,,,,,,,,,,,,,,,,,,,,,,,,,,,,,,,,,,,,,,,,,,,,127.0,127.0,125.0,200.0,200.0,125.0,3.0,3.2,-260,-274,0,-7,258,265,245.17890191078186,245.17894458770752,245.1813576221466,245.1936218738556,245.3437762260437,245.3437762260437,245.3437762260437,245.3437762260437,245.3437762260437,245.3437762260437,245.3437762260437,246.3114697933197,2,1.104743480682373,None,,,,,,,,,,,,,,,,,,31,5,2025-02-18_17h04.13.213,comp,2024.2.4,60.07929777920381,2025-02-18 17h04.23.439396 -0500,
130,130,0,filler_random,None,None,None,None,None,None,None,None,None,None,3,1.067434549331665,None,,,,,0,0,0,0,0,130,130,139,246.32668733596802,,,,,,,,,,,,,,,,,,,,,,,,,,,,,,,,,,,,,,,,,,,,,,,,,,,,,,,,,,,,,,,,,,,,,,,,,,,,,,,,,112.17256274344905,93.03970655047213,68.09014758637818,76.20065805576854,152.4002583376387,152.89330343540223,4.0,4.1,-181,-251,0,-18,211,-285,246.31240057945251,246.31244134902954,246.31465601921082,246.32668733596802,246.4768304824829,246.4768304824829,246.4768304824829,246.4768304824829,246.4768304824829,246.4768304824829,246.4768304824829,247.41122794151306,3,1.067434549331665,None,,,,,,,,,,,,,,,,,,31,5,2025-02-18_17h04.13.213,comp,2024.2.4,60.07929777920381,2025-02-18 17h04.23.439396 -0500,
131,131,0,filler_random,None,None,None,None,None,None,None,None,None,None,2,0.9440851211547852,None,,,,,0,0,0,0,0,131,131,148,247.4266014099121,,,,,,,,,,,,,,,,,,,,,,,,,,,,,,,,,,,,,,,,,,,,,,,,,,,,,,,,,,,,,,,,,,,,,,,,,,,,,,,,,89.69590628418118,119.43087539336312,107.24775460764695,170.00444897904202,108.21910980272926,88.8780212565766,2.2,2.22,-241,280,0,-283,225,-283,247.41211223602295,247.4121539592743,247.41457724571228,247.4266014099121,247.5770628452301,247.5770628452301,247.5770628452301,247.5770628452301,247.5770628452301,247.5770628452301,247.5770628452301,248.37820625305176,2,0.9440851211547852,None,,,,,,,,,,,,,,,,,,31,5,2025-02-18_17h04.13.213,comp,2024.2.4,60.07929777920381,2025-02-18 17h04.23.439396 -0500,
132,132,0,critical,dwh,20.0,2.1,lower,78.0,78.0,57.0,133.0,133.0,57.0,3,1.351919412612915,None,,,,,0,0,0,0,0,132,132,6,248.39378023147583,,,,,,,,,,,,,,,,,,,,,,,,,,,,,,,,,,,,,,,,,,,,,,,,,,,,,,,,,,,,,,,,,,,,,,,,,,,,,,,,,78.0,78.0,57.0,133.0,133.0,57.0,2.1,2.11,-202,286,0,279,191,-261,248.3790066242218,248.37904858589172,248.38147401809692,248.39378023147583,248.54346013069153,248.54346013069153,248.54346013069153,248.54346013069153,248.54346013069153,248.54346013069153,248.54346013069153,249.76120948791504,3,1.351919412612915,None,,,,,,,,,,,,,,,,,,31,5,2025-02-18_17h04.13.213,comp,2024.2.4,60.07929777920381,2025-02-18 17h04.23.439396 -0500,
133,133,0,critical,dwh,20.0,3.0,lower,78.0,78.0,57.0,133.0,133.0,57.0,2,1.099745512008667,None,,,,,0,0,0,0,0,133,133,68,249.7767207622528,,,,,,,,,,,,,,,,,,,,,,,,,,,,,,,,,,,,,,,,,,,,,,,,,,,,,,,,,,,,,,,,,,,,,,,,,,,,,,,,,78.0,78.0,57.0,133.0,133.0,57.0,3.0,3.2,-202,-269,0,12,191,256,249.7619833946228,249.7620234489441,249.7644326686859,249.7767207622528,249.92672395706177,249.92672395706177,249.92672395706177,249.92672395706177,249.92672395706177,249.92672395706177,249.92672395706177,250.87807440757751,2,1.099745512008667,None,,,,,,,,,,,,,,,,,,31,5,2025-02-18_17h04.13.213,comp,2024.2.4,60.07929777920381,2025-02-18 17h04.23.439396 -0500,
134,134,0,critical,hwd,20.0,2.1,upper,200.0,125.0,125.0,200.0,141.0,141.0,2,1.750176191329956,None,,,,,0,0,0,0,0,134,134,43,250.89360570907593,,,,,,,,,,,,,,,,,,,,,,,,,,,,,,,,,,,,,,,,,,,,,,,,,,,,,,,,,,,,,,,,,,,,,,,,,,,,,,,,,200.0,125.0,125.0,200.0,141.0,141.0,2.1,2.11,-258,278,0,273,266,-260,250.87888169288635,250.87892389297485,250.88135743141174,250.89360570907593,251.04370379447937,251.04370379447937,251.04370379447937,251.04370379447937,251.04370379447937,251.04370379447937,251.04370379447937,252.66150331497192,2,1.750176191329956,None,,,,,,,,,,,,,,,,,,31,5,2025-02-18_17h04.13.213,comp,2024.2.4,60.07929777920381,2025-02-18 17h04.23.439396 -0500,
135,135,0,critical,whd,20.0,4.0,lower,57.0,133.0,133.0,57.0,78.0,78.0,3,2.237131118774414,None,,,,,0,0,0,0,0,135,135,94,252.67663264274597,,,,,,,,,,,,,,,,,,,,,,,,,,,,,,,,,,,,,,,,,,,,,,,,,,,,,,,,,,,,,,,,,,,,,,,,,,,,,,,,,57.0,133.0,133.0,57.0,78.0,78.0,4.0,4.1,-191,-254,0,7,164,-255,252.66231179237366,252.66235256195068,252.6648404598236,252.67663264274597,252.8269248008728,252.8269248008728,252.8269248008728,252.8269248008728,252.8269248008728,252.8269248008728,252.8269248008728,254.92779064178467,3,2.237131118774414,None,,,,,,,,,,,,,,,,,,31,5,2025-02-18_17h04.13.213,comp,2024.2.4,60.07929777920381,2025-02-18 17h04.23.439396 -0500,
136,136,0,filler_random,None,None,None,None,None,None,None,None,None,None,2,0.9704897403717041,None,,,,,0,0,0,0,0,136,136,140,254.94324326515198,,,,,,,,,,,,,,,,,,,,,,,,,,,,,,,,,,,,,,,,,,,,,,,,,,,,,,,,,,,,,,,,,,,,,,,,,,,,,,,,,127.57795451707184,157.60961103188367,124.58944368211122,174.88434568072321,92.59366353291861,73.02934470070755,4.0,4.2,-262,5,0,-252,220,5,254.9286913871765,254.92873287200928,254.93105697631836,254.94324326515198,255.1101999282837,255.1101999282837,255.1101999282837,255.1101999282837,255.1101999282837,255.1101999282837,255.1101999282837,255.92794609069824,2,0.9704897403717041,None,,,,,,,,,,,,,,,,,,31,5,2025-02-18_17h04.13.213,comp,2024.2.4,60.07929777920381,2025-02-18 17h04.23.439396 -0500,
137,137,0,critical,wdh,35.0,3.0,upper,125.0,200.0,127.0,127.0,200.0,125.0,1,1.1382973194122314,None,,,,,0,0,0,0,0,137,137,75,255.94323134422302,,,,,,,,,,,,,,,,,,,,,,,,,,,,,,,,,,,,,,,,,,,,,,,,,,,,,,,,,,,,,,,,,,,,,,,,,,,,,,,,,125.0,200.0,127.0,127.0,200.0,125.0,3.0,3.2,-260,-271,0,8,222,263,255.92875456809998,255.92879700660706,255.9311923980713,255.94323134422302,256.09350538253784,256.09350538253784,256.09350538253784,256.09350538253784,256.09350538253784,256.09350538253784,256.09350538253784,257.09468698501587,1,1.1382973194122314,None,,,,,,,,,,,,,,,,,,31,5,2025-02-18_17h04.13.213,comp,2024.2.4,60.07929777920381,2025-02-18 17h04.23.439396 -0500,
138,138,0,critical,dhw,20.0,3.0,upper,141.0,141.0,200.0,125.0,125.0,200.0,3,1.1556899547576904,None,,,,,0,0,0,0,0,138,138,57,257.10979437828064,,,,,,,,,,,,,,,,,,,,,,,,,,,,,,,,,,,,,,,,,,,,,,,,,,,,,,,,,,,,,,,,,,,,,,,,,,,,,,,,,141.0,141.0,200.0,125.0,125.0,200.0,3.0,3.1,-229,283,0,7,258,-272,257.0954270362854,257.09546732902527,257.0973868370056,257.10979437828064,257.26035141944885,257.26035141944885,257.26035141944885,257.26035141944885,257.26035141944885,257.26035141944885,257.26035141944885,258.27799367904663,3,1.1556899547576904,None,,,,,,,,,,,,,,,,,,31,5,2025-02-18_17h04.13.213,comp,2024.2.4,60.07929777920381,2025-02-18 17h04.23.439396 -0500,
139,139,0,critical,dwh,35.0,4.0,lower,70.0,70.0,57.0,133.0,133.0,57.0,2,1.4453389644622803,None,,,,,0,0,0,0,0,139,139,64,258.29327178001404,,,,,,,,,,,,,,,,,,,,,,,,,,,,,,,,,,,,,,,,,,,,,,,,,,,,,,,,,,,,,,,,,,,,,,,,,,,,,,,,,70.0,70.0,57.0,133.0,133.0,57.0,4.0,4.1,-198,-256,0,-2,191,-262,258.2788143157959,258.27885603904724,258.2811813354492,258.29327178001404,258.4434332847595,258.4434332847595,258.4434332847595,258.4434332847595,258.4434332847595,258.4434332847595,258.4434332847595,259.74456310272217,2,1.4453389644622803,None,,,,,,,,,,,,,,,,,,31,5,2025-02-18_17h04.13.213,comp,2024.2.4,60.07929777920381,2025-02-18 17h04.23.439396 -0500,
