thisN,thisTrialN,thisRepN,effect,order,distance,config,diag,h_1,w_1,h_2,w_2,h_3,w_3,rect_choice.keys,rect_choice.rt,rect_choice.duration,instructions_loop.thisRepN,instructions_loop.thisTrialN,instructions_loop.thisN,instructions_loop.thisIndex,blocks.thisRepN,blocks.thisTrialN,blocks.thisN,blocks.thisIndex,trials.thisRepN,trials.thisTrialN,trials.thisN,trials.thisIndex,thisRow.t,notes,consent.started,agree_button.started,decline_button.started,consent_img.started,mouse.started,consent.stopped,agree_button.numClicks,agree_button.timesOn,agree_button.timesOff,decline_button.numClicks,decline_button.timesOn,decline_button.timesOff,mouse.x,mouse.y,mouse.leftButton,mouse.midButton,mouse.rightButton,mouse.time,mouse.clicked_name,exp_params.started,exp_params.stopped,welcome.started,welcome_text.started,welcome.stopped,instructions_1.started,instructions_1_text_1.started,instructions_1_text_2.started,key_resp.started,instructions_1.stopped,instructions_loop.key_resp.keys,instructions_loop.key_resp.rt,instructions_loop.key_resp.duration,instructions_2.started,instructions_2_text_1.started,instructions_2_text_2.started,key_resp_2.started,instructions_2.stopped,instructions_loop.key_resp_2.keys,instructions_loop.key_resp_2.rt,instructions_loop.key_resp_2.duration,instructions_3.started,instructions_3_text_1.started,r1_instr3.started,r2_instr3.started,r3_instr3.started,r1_instr3_label.started,r2_instr3_label.started,r3_instr3_label.started,instructions_3_text_3.started,instructions_3_text_4.started,key_resp_3.started,instructions_3.stopped,instructions_loop.key_resp_3.keys,instructions_loop.key_resp_3.rt,instructions_loop.key_resp_3.duration,instructions_4.started,instructions_4_text_1.started,instructions_4_text_3.started,instructions_4_text_2.started,key_resp_4.started,instructions_4.stopped,instructions_loop.key_resp_4.keys,instructions_loop.key_resp_4.rt,instructions_loop.key_resp_4.duration,instructions_5.started,instructions_5_text_1.started,instructions_5_text_2.started,key_resp_5.started,instructions_5.stopped,instructions_loop.key_resp_5.keys,instructions_loop.key_resp_5.rt,instructions_loop.key_resp_5.duration,start_exp.started,start_exp_text.started,key_resp_6.started,start_exp.stopped,key_resp_6.keys,key_resp_6.rt,key_resp_6.duration,h_1_tmp,w_1_tmp,h_2_tmp,w_2_tmp,h_3_tmp,w_3_tmp,config_tmp,config_tmp_1,r_1_x,r_1_y,r_2_x,r_2_y,r_3_x,r_3_y,pre_trial.started,pre_trial.stopped,choice_trial.started,rect_choice.started,r_1.started,r_2.started,r_3.started,r_1_label.started,r_2_label.started,r_3_label.started,prompt.started,choice_trial.stopped,trials.rect_choice.keys,trials.rect_choice.rt,trials.rect_choice.duration,end_block.started,end_block_text.started,end_block.stopped,end.started,end_text.started,key_resp_7.started,end.stopped,key_resp_7.keys,key_resp_7.rt,key_resp_7.duration,debriefing.started,debrief_form.started,end_debrief.started,debriefing.stopped,end_debrief.keys,end_debrief.rt,end_debrief.duration,participant,computer,date,expName,psychopyVersion,frameRate,expStart,
,,,,,,,,,,,,,,,,,,,,,,,,,,,,,,,0.03623151779174805,0.09129834175109863,0.09129834175109863,0.09129834175109863,0.03603935241699219,14.914041996002197,1,[14.820219039916992],[14.820240497589111],0,,,"[-26.0, -75.0]","[-72.0, -507.0]","[1, 1]","[0, 0]","[0, 0]","[13.260048627853394, 14.866959571838379]","[None, 'agree_button']",,,,,,,,,,,,,,,,,,,,,,,,,,,,,,,,,,,,,,,,,,,,,,,,,,,,,,,,,,,,,,,,,,,,,,,,,,,,,,,,,,,,,,,,,,,,,,,,,,,,,,,,,,,32,1,2025-02-19_11h19.32.835,comp,2024.2.4,55.90161815058223,2025-02-19 11h20.14.048737 -0500,
,,,,,,,,,,,,,,,,,,,,,,,,,,,,,,,,,,,,,,,,,,,,,,,,,,14.91459584236145,14.914663076400757,,,,,,,,,,,,,,,,,,,,,,,,,,,,,,,,,,,,,,,,,,,,,,,,,,,,,,,,,,,,,,,,,,,,,,,,,,,,,,,,,,,,,,,,,,,,,,,,,,,,,,,,,32,1,2025-02-19_11h19.32.835,comp,2024.2.4,55.90161815058223,2025-02-19 11h20.14.048737 -0500,
,,,,,,,,,,,,,,,,,,,,,,,,,,,,,,,,,,,,,,,,,,,,,,,,,,,,14.914706230163574,14.9726881980896,16.91646432876587,,,,,,,,,,,,,,,,,,,,,,,,,,,,,,,,,,,,,,,,,,,,,,,,,,,,,,,,,,,,,,,,,,,,,,,,,,,,,,,,,,,,,,,,,,,,,,,,,,,,,,32,1,2025-02-19_11h19.32.835,comp,2024.2.4,55.90161815058223,2025-02-19 11h20.14.048737 -0500,
0,0,0,,,,,,,,,,,,,,,0,0,0,0,,,,,,,,,16.933350324630737,,,,,,,,,,,,,,,,,,,,,,,,,,16.917380332946777,16.933350324630737,16.933350324630737,18.417028427124023,22.206079244613647,space,3.764951467514038,None,22.206260204315186,22.22076916694641,22.22076916694641,23.718623876571655,29.154260873794556,space,5.422475814819336,None,29.154404878616333,29.222429037094116,29.222429037094116,29.222429037094116,29.222429037094116,29.222429037094116,29.222429037094116,29.222429037094116,29.222429037094116,29.222429037094116,30.669713020324707,32.73978614807129,space,2.064296245574951,None,32.739948987960815,32.756380558013916,32.756380558013916,32.756380558013916,34.247180461883545,43.760050535202026,space,9.509978771209717,None,43.760207414627075,43.77717328071594,43.77717328071594,45.275407791137695,45.9772686958313,space,0.6978979110717773,None,45.977460622787476,45.993247747421265,45.993247747421265,47.76066040992737,space,1.7638161182403564,None,,,,,,,,,,,,,,,,,,,,,,,,,,,,,,,,,,,,,,,,,,,,,,,32,1,2025-02-19_11h19.32.835,comp,2024.2.4,55.90161815058223,2025-02-19 11h20.14.048737 -0500,
0,0,0,critical,whd,20.0,2.1,upper,125.0,200.0,200.0,125.0,141.0,141.0,1,11.683443307876587,None,,,,,0,0,0,0,0,0,0,15,47.962045669555664,,,,,,,,,,,,,,,,,,,,,,,,,,,,,,,,,,,,,,,,,,,,,,,,,,,,,,,,,,,,,,,,,,,,,,,,,,,,,,,,,125.0,200.0,200.0,125.0,141.0,141.0,2.1,2.12,-258,-286,0,-262,229,281,47.94498562812805,47.94504117965698,47.94697380065918,47.962045669555664,48.119810581207275,48.119810581207275,48.119810581207275,48.119810581207275,48.119810581207275,48.119810581207275,48.119810581207275,59.64767622947693,1,11.683443307876587,None,,,,,,,,,,,,,,,,,,32,1,2025-02-19_11h19.32.835,comp,2024.2.4,55.90161815058223,2025-02-19 11h20.14.048737 -0500,
1,1,0,critical,wdh,35.0,1.0,lower,57.0,133.0,70.0,70.0,133.0,57.0,1,2.9591968059539795,None,,,,,0,0,0,0,0,1,1,72,59.66404485702515,,,,,,,,,,,,,,,,,,,,,,,,,,,,,,,,,,,,,,,,,,,,,,,,,,,,,,,,,,,,,,,,,,,,,,,,,,,,,,,,,57.0,133.0,70.0,70.0,133.0,57.0,1.0,1.2,-198,-5,0,-19,160,19,59.64918875694275,59.64926743507385,59.65229773521423,59.66404485702515,59.80346918106079,59.80346918106079,59.80346918106079,59.80346918106079,59.80346918106079,59.80346918106079,59.80346918106079,62.63406276702881,1,2.9591968059539795,None,,,,,,,,,,,,,,,,,,32,1,2025-02-19_11h19.32.835,comp,2024.2.4,55.90161815058223,2025-02-19 11h20.14.048737 -0500,
2,2,0,filler_square,None,None,None,None,None,None,None,None,None,None,1,1.8346309661865234,None,,,,,0,0,0,0,0,2,2,194,62.65077829360962,,,,,,,,,,,,,,,,,,,,,,,,,,,,,,,,,,,,,,,,,,,,,,,,,,,,,,,,,,,,,,,,,,,,,,,,,,,,,,,,,144.32159386647342,144.32159386647342,111.49409649186045,134.7314029701818,81.54946722310842,63.916138945306,4.0,4.1,-236,-270,0,7,195,-254,62.6360969543457,62.63618278503418,62.63997268676758,62.65077829360962,62.80357503890991,62.80357503890991,62.80357503890991,62.80357503890991,62.80357503890991,62.80357503890991,62.80357503890991,64.48750257492065,1,1.8346309661865234,None,,,,,,,,,,,,,,,,,,32,1,2025-02-19_11h19.32.835,comp,2024.2.4,55.90161815058223,2025-02-19 11h20.14.048737 -0500,
3,3,0,filler_square,None,None,None,None,None,None,None,None,None,None,1,2.3928515911102295,None,,,,,0,0,0,0,0,3,3,172,64.5084125995636,,,,,,,,,,,,,,,,,,,,,,,,,,,,,,,,,,,,,,,,,,,,,,,,,,,,,,,,,,,,,,,,,,,,,,,,,,,,,,,,,113.71231157524024,113.71231157524024,84.18761490695684,79.43315398394036,87.79473570735061,106.56442641341408,4.0,4.1,-193,-251,0,11,189,-257,64.48932933807373,64.48940873146057,64.49261355400085,64.5084125995636,64.65228199958801,64.65228199958801,64.65228199958801,64.65228199958801,64.65228199958801,64.65228199958801,64.65228199958801,66.9161581993103,1,2.3928515911102295,None,,,,,,,,,,,,,,,,,,32,1,2025-02-19_11h19.32.835,comp,2024.2.4,55.90161815058223,2025-02-19 11h20.14.048737 -0500,
4,4,0,critical,whd,20.0,4.0,lower,57.0,133.0,133.0,57.0,78.0,78.0,2,4.265252590179443,None,,,,,0,0,0,0,0,4,4,94,66.93233752250671,,,,,,,,,,,,,,,,,,,,,,,,,,,,,,,,,,,,,,,,,,,,,,,,,,,,,,,,,,,,,,,,,,,,,,,,,,,,,,,,,57.0,133.0,133.0,57.0,78.0,78.0,4.0,4.1,-191,-283,0,-18,164,-253,66.91769170761108,66.91779947280884,66.92108368873596,66.93233752250671,67.09284996986389,67.09284996986389,67.09284996986389,67.09284996986389,67.09284996986389,67.09284996986389,67.09284996986389,71.21733331680298,2,4.265252590179443,None,,,,,,,,,,,,,,,,,,32,1,2025-02-19_11h19.32.835,comp,2024.2.4,55.90161815058223,2025-02-19 11h20.14.048737 -0500,
5,5,0,critical,hwd,20.0,4.0,upper,200.0,125.0,125.0,200.0,141.0,141.0,1,3.458317995071411,None,,,,,0,0,0,0,0,5,5,107,71.2356767654419,,,,,,,,,,,,,,,,,,,,,,,,,,,,,,,,,,,,,,,,,,,,,,,,,,,,,,,,,,,,,,,,,,,,,,,,,,,,,,,,,200.0,125.0,125.0,200.0,141.0,141.0,4.0,4.1,-258,-287,0,-4,266,-281,71.21890211105347,71.21897840499878,71.22202229499817,71.2356767654419,71.38407874107361,71.38407874107361,71.38407874107361,71.38407874107361,71.38407874107361,71.38407874107361,71.38407874107361,74.70182991027832,1,3.458317995071411,None,,,,,,,,,,,,,,,,,,32,1,2025-02-19_11h19.32.835,comp,2024.2.4,55.90161815058223,2025-02-19 11h20.14.048737 -0500,
6,6,0,filler_square,None,None,None,None,None,None,None,None,None,None,3,1.650930643081665,None,,,,,0,0,0,0,0,6,6,206,74.72246766090393,,,,,,,,,,,,,,,,,,,,,,,,,,,,,,,,,,,,,,,,,,,,,,,,,,,,,,,,,,,,,,,,,,,,,,,,,,,,,,,,,129.39005688955126,86.87944323790771,117.27736481035166,66.96649154168661,137.66198872232573,137.66198872232573,2.1,2.12,-173,-270,0,-262,198,273,74.70382738113403,74.70393252372742,74.70717263221741,74.72246766090393,74.87040138244629,74.87040138244629,74.87040138244629,74.87040138244629,74.87040138244629,74.87040138244629,74.87040138244629,76.38854765892029,3,1.650930643081665,None,,,,,,,,,,,,,,,,,,32,1,2025-02-19_11h19.32.835,comp,2024.2.4,55.90161815058223,2025-02-19 11h20.14.048737 -0500,
7,7,0,critical,whd,35.0,3.0,upper,125.0,200.0,200.0,125.0,127.0,127.0,1,1.7346107959747314,None,,,,,0,0,0,0,0,7,7,87,76.40647387504578,,,,,,,,,,,,,,,,,,,,,,,,,,,,,,,,,,,,,,,,,,,,,,,,,,,,,,,,,,,,,,,,,,,,,,,,,,,,,,,,,125.0,200.0,200.0,125.0,127.0,127.0,3.0,3.2,-258,-251,0,-17,222,279,76.39014315605164,76.39021611213684,76.39385175704956,76.40647387504578,76.55331754684448,76.55331754684448,76.55331754684448,76.55331754684448,76.55331754684448,76.55331754684448,76.55331754684448,78.15543842315674,1,1.7346107959747314,None,,,,,,,,,,,,,,,,,,32,1,2025-02-19_11h19.32.835,comp,2024.2.4,55.90161815058223,2025-02-19 11h20.14.048737 -0500,
8,8,0,critical,hwd,20.0,4.0,lower,133.0,57.0,57.0,133.0,78.0,78.0,2,2.911713123321533,None,,,,,0,0,0,0,0,8,8,106,78.17383790016174,,,,,,,,,,,,,,,,,,,,,,,,,,,,,,,,,,,,,,,,,,,,,,,,,,,,,,,,,,,,,,,,,,,,,,,,,,,,,,,,,133.0,57.0,57.0,133.0,78.0,78.0,4.0,4.2,-191,-12,0,-261,202,-16,78.15716195106506,78.1572425365448,78.16094136238098,78.17383790016174,78.32031583786011,78.32031583786011,78.32031583786011,78.32031583786011,78.32031583786011,78.32031583786011,78.32031583786011,81.09143447875977,2,2.911713123321533,None,,,,,,,,,,,,,,,,,,32,1,2025-02-19_11h19.32.835,comp,2024.2.4,55.90161815058223,2025-02-19 11h20.14.048737 -0500,
9,9,0,filler_random,None,None,None,None,None,None,None,None,None,None,3,1.6297171115875244,None,,,,,0,0,0,0,0,9,9,149,81.11147713661194,,,,,,,,,,,,,,,,,,,,,,,,,,,,,,,,,,,,,,,,,,,,,,,,,,,,,,,,,,,,,,,,,,,,,,,,,,,,,,,,,119.696753516803,113.89022083099101,139.96253106594025,111.97810868657618,125.29995964237354,170.52705915673818,1.0,1.2,-209,11,0,11,237,-10,81.09317660331726,81.09325647354126,81.09616327285767,81.11147713661194,81.25482940673828,81.25482940673828,81.25482940673828,81.25482940673828,81.25482940673828,81.25482940673828,81.25482940673828,82.75519728660583,3,1.6297171115875244,None,,,,,,,,,,,,,,,,,,32,1,2025-02-19_11h19.32.835,comp,2024.2.4,55.90161815058223,2025-02-19 11h20.14.048737 -0500,
10,10,0,critical,whd,20.0,2.1,lower,57.0,133.0,133.0,57.0,78.0,78.0,1,5.058472633361816,None,,,,,0,0,0,0,0,10,10,14,82.77059197425842,,,,,,,,,,,,,,,,,,,,,,,,,,,,,,,,,,,,,,,,,,,,,,,,,,,,,,,,,,,,,,,,,,,,,,,,,,,,,,,,,57.0,133.0,133.0,57.0,78.0,78.0,2.1,2.11,-191,272,0,266,164,-276,82.75668025016785,82.75680780410767,82.7602550983429,82.77059197425842,82.91952633857727,82.91952633857727,82.91952633857727,82.91952633857727,82.91952633857727,82.91952633857727,82.91952633857727,87.8391261100769,1,5.058472633361816,None,,,,,,,,,,,,,,,,,,32,1,2025-02-19_11h19.32.835,comp,2024.2.4,55.90161815058223,2025-02-19 11h20.14.048737 -0500,
11,11,0,catch,None,None,None,None,None,None,None,None,None,None,2,1.742250919342041,None,,,,,0,0,0,0,0,11,11,121,87.85590505599976,,,,,,,,,,,,,,,,,,,,,,,,,,,,,,,,,,,,,,,,,,,,,,,,,,,,,,,,,,,,,,,,,,,,,,,,,,,,,,,,,89,101,136,189,85,105,2.2,2.21,-241,-289,0,266,243,269,87.84104490280151,87.84112477302551,87.8441698551178,87.85590505599976,88.00615668296814,88.00615668296814,88.00615668296814,88.00615668296814,88.00615668296814,88.00615668296814,88.00615668296814,89.608962059021,2,1.742250919342041,None,,,,,,,,,,,,,,,,,,32,1,2025-02-19_11h19.32.835,comp,2024.2.4,55.90161815058223,2025-02-19 11h20.14.048737 -0500,
12,12,0,critical,hwd,20.0,1.0,upper,200.0,125.0,125.0,200.0,141.0,141.0,1,2.8036508560180664,None,,,,,0,0,0,0,0,12,12,103,89.6254312992096,,,,,,,,,,,,,,,,,,,,,,,,,,,,,,,,,,,,,,,,,,,,,,,,,,,,,,,,,,,,,,,,,,,,,,,,,,,,,,,,,200.0,125.0,125.0,200.0,141.0,141.0,1.0,1.3,222,-281,480,-267,746,-252,89.61081886291504,89.61090326309204,89.61466932296753,89.6254312992096,89.77630972862244,89.77630972862244,89.77630972862244,89.77630972862244,89.77630972862244,89.77630972862244,89.77630972862244,92.44119453430176,1,2.8036508560180664,None,,,,,,,,,,,,,,,,,,32,1,2025-02-19_11h19.32.835,comp,2024.2.4,55.90161815058223,2025-02-19 11h20.14.048737 -0500,
13,13,0,filler_square,None,None,None,None,None,None,None,None,None,None,1,2.339923858642578,None,,,,,0,0,0,0,0,13,13,205,92.4573974609375,,,,,,,,,,,,,,,,,,,,,,,,,,,,,,,,,,,,,,,,,,,,,,,,,,,,,,,,,,,,,,,,,,,,,,,,,,,,,,,,,64.13490105077676,64.13490105077676,62.10806331664219,63.25686538161306,60.924982687973085,58.69145815028618,2.1,2.12,-160,-256,0,-258,157,264,92.44297194480896,92.44304919242859,92.446204662323,92.4573974609375,92.61028122901917,92.61028122901917,92.61028122901917,92.61028122901917,92.61028122901917,92.61028122901917,92.61028122901917,94.80034732818604,1,2.339923858642578,None,,,,,,,,,,,,,,,,,,32,1,2025-02-19_11h19.32.835,comp,2024.2.4,55.90161815058223,2025-02-19 11h20.14.048737 -0500,
14,14,0,critical,dhw,35.0,2.1,lower,70.0,70.0,133.0,57.0,57.0,133.0,3,2.7457144260406494,None,,,,,0,0,0,0,0,14,14,0,94.81933999061584,,,,,,,,,,,,,,,,,,,,,,,,,,,,,,,,,,,,,,,,,,,,,,,,,,,,,,,,,,,,,,,,,,,,,,,,,,,,,,,,,70.0,70.0,133.0,57.0,57.0,133.0,2.1,2.12,-160,-284,0,-290,191,288,94.80197548866272,94.80205082893372,94.80524039268494,94.81933999061584,94.96398901939392,94.96398901939392,94.96398901939392,94.96398901939392,94.96398901939392,94.96398901939392,94.96398901939392,97.57464146614075,3,2.7457144260406494,None,,,,,,,,,,,,,,,,,,32,1,2025-02-19_11h19.32.835,comp,2024.2.4,55.90161815058223,2025-02-19 11h20.14.048737 -0500,
15,15,0,filler_random,None,None,None,None,None,None,None,None,None,None,3,2.46990966796875,None,,,,,0,0,0,0,0,15,15,148,97.5911717414856,,,,,,,,,,,,,,,,,,,,,,,,,,,,,,,,,,,,,,,,,,,,,,,,,,,,,,,,,,,,,,,,,,,,,,,,,,,,,,,,,83.60562119947599,86.02320242346647,60.16852950050178,132.01635135003872,191.2274722606764,111.62618677697913,3.0,3.1,-205,264,0,6,218,-265,97.57638263702393,97.57646131515503,97.57934331893921,97.5911717414856,97.74300837516785,97.74300837516785,97.74300837516785,97.74300837516785,97.74300837516785,97.74300837516785,97.74300837516785,100.07708430290222,3,2.46990966796875,None,,,,,,,,,,,,,,,,,,32,1,2025-02-19_11h19.32.835,comp,2024.2.4,55.90161815058223,2025-02-19 11h20.14.048737 -0500,
16,16,0,critical,hdw,35.0,1.0,upper,200.0,125.0,127.0,127.0,125.0,200.0,3,2.9366350173950195,None,,,,,0,0,0,0,0,16,16,109,100.09269952774048,,,,,,,,,,,,,,,,,,,,,,,,,,,,,,,,,,,,,,,,,,,,,,,,,,,,,,,,,,,,,,,,,,,,,,,,,,,,,,,,,200.0,125.0,127.0,127.0,125.0,200.0,1.0,1.2,-222,-4,0,12,260,-5,100.07852411270142,100.07859635353088,100.08163094520569,100.09269952774048,100.24366617202759,100.24366617202759,100.24366617202759,100.24366617202759,100.24366617202759,100.24366617202759,100.24366617202759,103.04382944107056,3,2.9366350173950195,None,,,,,,,,,,,,,,,,,,32,1,2025-02-19_11h19.32.835,comp,2024.2.4,55.90161815058223,2025-02-19 11h20.14.048737 -0500,
17,17,0,filler_square,None,None,None,None,None,None,None,None,None,None,3,0.9536387920379639,None,,,,,0,0,0,0,0,17,17,204,103.05986452102661,,,,,,,,,,,,,,,,,,,,,,,,,,,,,,,,,,,,,,,,,,,,,,,,,,,,,,,,,,,,,,,,,,,,,,,,,,,,,,,,,68.34667009373392,60.19220595872337,70.6294094838028,67.0555864362949,127.014899145345,127.014899145345,4.0,4.1,-160,-253,0,3,193,-257,103.04553318023682,103.04560685157776,103.04855060577393,103.05986452102661,103.20030474662781,103.20030474662781,103.20030474662781,103.20030474662781,103.20030474662781,103.20030474662781,103.20030474662781,104.03167080879211,3,0.9536387920379639,None,,,,,,,,,,,,,,,,,,32,1,2025-02-19_11h19.32.835,comp,2024.2.4,55.90161815058223,2025-02-19 11h20.14.048737 -0500,
18,18,0,critical,dhw,35.0,3.0,upper,127.0,127.0,200.0,125.0,125.0,200.0,3,1.7750184535980225,None,,,,,0,0,0,0,0,18,18,51,104.04676747322083,,,,,,,,,,,,,,,,,,,,,,,,,,,,,,,,,,,,,,,,,,,,,,,,,,,,,,,,,,,,,,,,,,,,,,,,,,,,,,,,,127.0,127.0,200.0,125.0,125.0,200.0,3.0,3.1,-222,271,0,18,258,-280,104.0332043170929,104.03328275680542,104.03646039962769,104.04676747322083,104.19552803039551,104.19552803039551,104.19552803039551,104.19552803039551,104.19552803039551,104.19552803039551,104.19552803039551,105.82958889007568,3,1.7750184535980225,None,,,,,,,,,,,,,,,,,,32,1,2025-02-19_11h19.32.835,comp,2024.2.4,55.90161815058223,2025-02-19 11h20.14.048737 -0500,
19,19,0,critical,dhw,20.0,2.1,upper,141.0,141.0,200.0,125.0,125.0,200.0,2,3.4235634803771973,None,,,,,0,0,0,0,0,19,19,27,105.8460419178009,,,,,,,,,,,,,,,,,,,,,,,,,,,,,,,,,,,,,,,,,,,,,,,,,,,,,,,,,,,,,,,,,,,,,,,,,,,,,,,,,141.0,141.0,200.0,125.0,125.0,200.0,2.1,2.12,-229,-280,0,-255,258,269,105.8311824798584,105.83126187324524,105.83528065681458,105.8460419178009,105.99594831466675,105.99594831466675,105.99594831466675,105.99594831466675,105.99594831466675,105.99594831466675,105.99594831466675,109.27201700210571,2,3.4235634803771973,None,,,,,,,,,,,,,,,,,,32,1,2025-02-19_11h19.32.835,comp,2024.2.4,55.90161815058223,2025-02-19 11h20.14.048737 -0500,
20,20,0,critical,whd,20.0,3.0,lower,57.0,133.0,133.0,57.0,78.0,78.0,1,4.068586826324463,None,,,,,0,0,0,0,0,20,20,92,109.28961658477783,,,,,,,,,,,,,,,,,,,,,,,,,,,,,,,,,,,,,,,,,,,,,,,,,,,,,,,,,,,,,,,,,,,,,,,,,,,,,,,,,57.0,133.0,133.0,57.0,78.0,78.0,3.0,3.2,-191,-282,0,13,164,279,109.27353382110596,109.27360987663269,109.27643299102783,109.28961658477783,109.43613600730896,109.43613600730896,109.43613600730896,109.43613600730896,109.43613600730896,109.43613600730896,109.43613600730896,113.36395382881165,1,4.068586826324463,None,,,,,,,,,,,,,,,,,,32,1,2025-02-19_11h19.32.835,comp,2024.2.4,55.90161815058223,2025-02-19 11h20.14.048737 -0500,
21,21,0,critical,wdh,35.0,2.1,lower,57.0,133.0,70.0,70.0,133.0,57.0,1,2.6572206020355225,None,,,,,0,0,0,0,0,21,21,8,113.38061881065369,,,,,,,,,,,,,,,,,,,,,,,,,,,,,,,,,,,,,,,,,,,,,,,,,,,,,,,,,,,,,,,,,,,,,,,,,,,,,,,,,57.0,133.0,70.0,70.0,133.0,57.0,2.1,2.11,-198,286,0,270,160,-267,113.36543869972229,113.36551570892334,113.36854648590088,113.38061881065369,113.53209781646729,113.53209781646729,113.53209781646729,113.53209781646729,113.53209781646729,113.53209781646729,113.53209781646729,116.04596996307373,1,2.6572206020355225,None,,,,,,,,,,,,,,,,,,32,1,2025-02-19_11h19.32.835,comp,2024.2.4,55.90161815058223,2025-02-19 11h20.14.048737 -0500,
22,22,0,critical,wdh,35.0,2.1,upper,125.0,200.0,127.0,127.0,200.0,125.0,1,2.1337170600891113,None,,,,,0,0,0,0,0,22,22,33,116.0636556148529,,,,,,,,,,,,,,,,,,,,,,,,,,,,,,,,,,,,,,,,,,,,,,,,,,,,,,,,,,,,,,,,,,,,,,,,,,,,,,,,,125.0,200.0,127.0,127.0,200.0,125.0,2.1,2.11,-260,263,0,281,222,-265,116.04754662513733,116.04762363433838,116.05080199241638,116.0636556148529,116.23179125785828,116.23179125785828,116.23179125785828,116.23179125785828,116.23179125785828,116.23179125785828,116.23179125785828,118.21914482116699,1,2.1337170600891113,None,,,,,,,,,,,,,,,,,,32,1,2025-02-19_11h19.32.835,comp,2024.2.4,55.90161815058223,2025-02-19 11h20.14.048737 -0500,
23,23,0,critical,dhw,35.0,4.0,lower,70.0,70.0,133.0,57.0,57.0,133.0,3,2.19032621383667,None,,,,,0,0,0,0,0,23,23,52,118.23888850212097,,,,,,,,,,,,,,,,,,,,,,,,,,,,,,,,,,,,,,,,,,,,,,,,,,,,,,,,,,,,,,,,,,,,,,,,,,,,,,,,,70.0,70.0,133.0,57.0,57.0,133.0,4.0,4.2,-160,6,0,-256,191,-9,118.22087121009827,118.2210009098053,118.22429084777832,118.23888850212097,118.38269448280334,118.38269448280334,118.38269448280334,118.38269448280334,118.38269448280334,118.38269448280334,118.38269448280334,120.43358945846558,3,2.19032621383667,None,,,,,,,,,,,,,,,,,,32,1,2025-02-19_11h19.32.835,comp,2024.2.4,55.90161815058223,2025-02-19 11h20.14.048737 -0500,
24,24,0,critical,dhw,20.0,1.0,lower,78.0,78.0,133.0,57.0,57.0,133.0,3,3.3315670490264893,None,,,,,0,0,0,0,0,24,24,54,120.44960260391235,,,,,,,,,,,,,,,,,,,,,,,,,,,,,,,,,,,,,,,,,,,,,,,,,,,,,,,,,,,,,,,,,,,,,,,,,,,,,,,,,78.0,78.0,133.0,57.0,57.0,133.0,1.0,1.2,-164,-17,0,-16,191,5,120.43510437011719,120.43518257141113,120.43853497505188,120.44960260391235,120.60427641868591,120.60427641868591,120.60427641868591,120.60427641868591,120.60427641868591,120.60427641868591,120.60427641868591,123.78548622131348,3,3.3315670490264893,None,,,,,,,,,,,,,,,,,,32,1,2025-02-19_11h19.32.835,comp,2024.2.4,55.90161815058223,2025-02-19 11h20.14.048737 -0500,
25,25,0,filler_square,None,None,None,None,None,None,None,None,None,None,3,1.1399919986724854,None,,,,,0,0,0,0,0,25,25,182,123.80204963684082,,,,,,,,,,,,,,,,,,,,,,,,,,,,,,,,,,,,,,,,,,,,,,,,,,,,,,,,,,,,,,,,,,,,,,,,,,,,,,,,,113.85636825447743,62.731939178164765,59.24408183428944,58.36423478923579,188.70615579470223,188.70615579470223,2.1,2.12,-157,-275,0,-255,220,271,123.78756928443909,123.78765082359314,123.79113578796387,123.80204963684082,123.95194673538208,123.95194673538208,123.95194673538208,123.95194673538208,123.95194673538208,123.95194673538208,123.95194673538208,124.94888091087341,3,1.1399919986724854,None,,,,,,,,,,,,,,,,,,32,1,2025-02-19_11h19.32.835,comp,2024.2.4,55.90161815058223,2025-02-19 11h20.14.048737 -0500,
26,26,0,filler_square,None,None,None,None,None,None,None,None,None,None,1,3.896366596221924,None,,,,,0,0,0,0,0,26,26,180,124.96558547019958,,,,,,,,,,,,,,,,,,,,,,,,,,,,,,,,,,,,,,,,,,,,,,,,,,,,,,,,,,,,,,,,,,,,,,,,,,,,,,,,,65.92643040451631,72.87463090253924,72.4996805334119,66.78518068458263,83.1783115905225,83.1783115905225,2.1,2.12,-166,-270,0,-254,171,267,124.95071268081665,124.95082092285156,124.95365023612976,124.96558547019958,125.11491966247559,125.11491966247559,125.11491966247559,125.11491966247559,125.11491966247559,125.11491966247559,125.11491966247559,128.86897349357605,1,3.896366596221924,None,,,,,,,,,,,,,,,,,,32,1,2025-02-19_11h19.32.835,comp,2024.2.4,55.90161815058223,2025-02-19 11h20.14.048737 -0500,
27,27,0,filler_random,None,None,None,None,None,None,None,None,None,None,2,1.1605262756347656,None,,,,,0,0,0,0,0,27,27,144,128.8853726387024,,,,,,,,,,,,,,,,,,,,,,,,,,,,,,,,,,,,,,,,,,,,,,,,,,,,,,,,,,,,,,,,,,,,,,,,,,,,,,,,,70.43692396332698,70.71469841960919,136.34441541298975,120.32418242757032,93.05138593500828,110.25678158065685,2.1,2.11,-192,255,0,254,211,-266,128.87059450149536,128.8706705570221,128.87377405166626,128.8853726387024,129.03593826293945,129.03593826293945,129.03593826293945,129.03593826293945,129.03593826293945,129.03593826293945,129.03593826293945,130.05436396598816,2,1.1605262756347656,None,,,,,,,,,,,,,,,,,,32,1,2025-02-19_11h19.32.835,comp,2024.2.4,55.90161815058223,2025-02-19 11h20.14.048737 -0500,
28,28,0,critical,hwd,20.0,2.1,upper,200.0,125.0,125.0,200.0,141.0,141.0,1,2.030531644821167,None,,,,,0,0,0,0,0,28,28,43,130.07063007354736,,,,,,,,,,,,,,,,,,,,,,,,,,,,,,,,,,,,,,,,,,,,,,,,,,,,,,,,,,,,,,,,,,,,,,,,,,,,,,,,,200.0,125.0,125.0,200.0,141.0,141.0,2.1,2.12,-258,-257,0,-268,266,287,130.05588030815125,130.05595898628235,130.05992722511292,130.07063007354736,130.2232587337494,130.2232587337494,130.2232587337494,130.2232587337494,130.2232587337494,130.2232587337494,130.2232587337494,132.1043610572815,1,2.030531644821167,None,,,,,,,,,,,,,,,,,,32,1,2025-02-19_11h19.32.835,comp,2024.2.4,55.90161815058223,2025-02-19 11h20.14.048737 -0500,
29,29,0,critical,dhw,35.0,2.1,upper,127.0,127.0,200.0,125.0,125.0,200.0,3,1.741264820098877,None,,,,,0,0,0,0,0,29,29,25,132.12082386016846,,,,,,,,,,,,,,,,,,,,,,,,,,,,,,,,,,,,,,,,,,,,,,,,,,,,,,,,,,,,,,,,,,,,,,,,,,,,,,,,,127.0,127.0,200.0,125.0,125.0,200.0,2.1,2.11,-222,276,0,260,258,-257,132.10587978363037,132.1059820652008,132.10999870300293,132.12082386016846,132.26904892921448,132.26904892921448,132.26904892921448,132.26904892921448,132.26904892921448,132.26904892921448,132.26904892921448,133.8717555999756,3,1.741264820098877,None,,,,,,,,,,,,,,,,,,32,1,2025-02-19_11h19.32.835,comp,2024.2.4,55.90161815058223,2025-02-19 11h20.14.048737 -0500,
30,30,0,critical,wdh,35.0,3.0,upper,125.0,200.0,127.0,127.0,200.0,125.0,1,1.9489409923553467,None,,,,,0,0,0,0,0,30,30,75,133.88818550109863,,,,,,,,,,,,,,,,,,,,,,,,,,,,,,,,,,,,,,,,,,,,,,,,,,,,,,,,,,,,,,,,,,,,,,,,,,,,,,,,,125.0,200.0,127.0,127.0,200.0,125.0,3.0,3.1,-260,285,0,-20,222,-267,133.8733139038086,133.87339186668396,133.87741136550903,133.88818550109863,134.03883171081543,134.03883171081543,134.03883171081543,134.03883171081543,134.03883171081543,134.03883171081543,134.03883171081543,135.85456609725952,1,1.9489409923553467,None,,,,,,,,,,,,,,,,,,32,1,2025-02-19_11h19.32.835,comp,2024.2.4,55.90161815058223,2025-02-19 11h20.14.048737 -0500,
31,31,0,filler_random,None,None,None,None,None,None,None,None,None,None,3,2.093203544616699,None,,,,,0,0,0,0,0,31,31,165,135.8733594417572,,,,,,,,,,,,,,,,,,,,,,,,,,,,,,,,,,,,,,,,,,,,,,,,,,,,,,,,,,,,,,,,,,,,,,,,,,,,,,,,,92.89680714309758,194.6358884256267,89.8587514742168,181.92851198148742,191.42602343430974,119.57842976284262,4.0,4.1,-284,-275,0,19,247,-282,135.856294631958,135.8563678264618,135.85941243171692,135.8733594417572,136.02163887023926,136.02163887023926,136.02163887023926,136.02163887023926,136.02163887023926,136.02163887023926,136.02163887023926,137.97168946266174,3,2.093203544616699,None,,,,,,,,,,,,,,,,,,32,1,2025-02-19_11h19.32.835,comp,2024.2.4,55.90161815058223,2025-02-19 11h20.14.048737 -0500,
32,32,0,critical,dwh,35.0,2.1,upper,127.0,127.0,125.0,200.0,200.0,125.0,2,1.7833025455474854,None,,,,,0,0,0,0,0,32,32,5,137.99044704437256,,,,,,,,,,,,,,,,,,,,,,,,,,,,,,,,,,,,,,,,,,,,,,,,,,,,,,,,,,,,,,,,,,,,,,,,,,,,,,,,,127.0,127.0,125.0,200.0,200.0,125.0,2.1,2.12,-260,-263,0,-271,258,282,137.97328281402588,137.97336101531982,137.9766342639923,137.99044704437256,138.12752532958984,138.12752532958984,138.12752532958984,138.12752532958984,138.12752532958984,138.12752532958984,138.12752532958984,139.77570223808289,2,1.7833025455474854,None,,,,,,,,,,,,,,,,,,32,1,2025-02-19_11h19.32.835,comp,2024.2.4,55.90161815058223,2025-02-19 11h20.14.048737 -0500,
33,33,0,filler_square,None,None,None,None,None,None,None,None,None,None,3,3.741594076156616,None,,,,,0,0,0,0,0,33,33,209,139.79256176948547,,,,,,,,,,,,,,,,,,,,,,,,,,,,,,,,,,,,,,,,,,,,,,,,,,,,,,,,,,,,,,,,,,,,,,,,,,,,,,,,,60.14177953371083,68.6384293635916,79.63775880390088,79.63775880390088,77.58474872054977,64.85037174669245,3.0,3.1,-170,271,0,-14,168,-265,139.7776074409485,139.77768731117249,139.7809829711914,139.79256176948547,139.9391577243805,139.9391577243805,139.9391577243805,139.9391577243805,139.9391577243805,139.9391577243805,139.9391577243805,143.54010272026062,3,3.741594076156616,None,,,,,,,,,,,,,,,,,,32,1,2025-02-19_11h19.32.835,comp,2024.2.4,55.90161815058223,2025-02-19 11h20.14.048737 -0500,
34,34,0,critical,dhw,20.0,2.1,upper,141.0,141.0,200.0,125.0,125.0,200.0,3,2.9674222469329834,None,,,,,0,0,0,0,0,34,34,3,143.5578145980835,,,,,,,,,,,,,,,,,,,,,,,,,,,,,,,,,,,,,,,,,,,,,,,,,,,,,,,,,,,,,,,,,,,,,,,,,,,,,,,,,141.0,141.0,200.0,125.0,125.0,200.0,2.1,2.12,-229,-268,0,-260,258,286,143.54161190986633,143.5416910648346,143.5447382926941,143.5578145980835,143.69927287101746,143.69927287101746,143.69927287101746,143.69927287101746,143.69927287101746,143.69927287101746,143.69927287101746,146.54186940193176,3,2.9674222469329834,None,,,,,,,,,,,,,,,,,,32,1,2025-02-19_11h19.32.835,comp,2024.2.4,55.90161815058223,2025-02-19 11h20.14.048737 -0500,
35,35,0,critical,hwd,35.0,4.0,lower,133.0,57.0,57.0,133.0,70.0,70.0,2,2.79970645904541,None,,,,,0,0,0,0,0,35,35,100,146.55749893188477,,,,,,,,,,,,,,,,,,,,,,,,,,,,,,,,,,,,,,,,,,,,,,,,,,,,,,,,,,,,,,,,,,,,,,,,,,,,,,,,,133.0,57.0,57.0,133.0,70.0,70.0,4.0,4.1,-191,-274,0,0,198,-254,146.54355096817017,146.54367637634277,146.54713201522827,146.55749893188477,146.708393573761,146.708393573761,146.708393573761,146.708393573761,146.708393573761,146.708393573761,146.708393573761,149.3613166809082,2,2.79970645904541,None,,,,,,,,,,,,,,,,,,32,1,2025-02-19_11h19.32.835,comp,2024.2.4,55.90161815058223,2025-02-19 11h20.14.048737 -0500,
36,36,0,critical,hwd,35.0,3.0,upper,200.0,125.0,125.0,200.0,127.0,127.0,2,4.493016481399536,None,,,,,0,0,0,0,0,36,36,99,149.37705087661743,,,,,,,,,,,,,,,,,,,,,,,,,,,,,,,,,,,,,,,,,,,,,,,,,,,,,,,,,,,,,,,,,,,,,,,,,,,,,,,,,200.0,125.0,125.0,200.0,127.0,127.0,3.0,3.1,-258,272,0,0,260,-289,149.36280012130737,149.36289811134338,149.36621475219727,149.37705087661743,149.52594423294067,149.52594423294067,149.52594423294067,149.52594423294067,149.52594423294067,149.52594423294067,149.52594423294067,153.87566614151,2,4.493016481399536,None,,,,,,,,,,,,,,,,,,32,1,2025-02-19_11h19.32.835,comp,2024.2.4,55.90161815058223,2025-02-19 11h20.14.048737 -0500,
37,37,0,critical,hdw,35.0,3.0,upper,200.0,125.0,127.0,127.0,125.0,200.0,1,3.7692925930023193,None,,,,,0,0,0,0,0,37,37,111,153.89191150665283,,,,,,,,,,,,,,,,,,,,,,,,,,,,,,,,,,,,,,,,,,,,,,,,,,,,,,,,,,,,,,,,,,,,,,,,,,,,,,,,,200.0,125.0,127.0,127.0,125.0,200.0,3.0,3.2,-222,-289,0,-11,260,269,153.87723207473755,153.8773114681244,153.88022255897522,153.89191150665283,154.04457759857178,154.04457759857178,154.04457759857178,154.04457759857178,154.04457759857178,154.04457759857178,154.04457759857178,157.67768788337708,1,3.7692925930023193,None,,,,,,,,,,,,,,,,,,32,1,2025-02-19_11h19.32.835,comp,2024.2.4,55.90161815058223,2025-02-19 11h20.14.048737 -0500,
38,38,0,critical,whd,20.0,2.1,upper,125.0,200.0,200.0,125.0,141.0,141.0,1,1.5675406455993652,None,,,,,0,0,0,0,0,38,38,39,157.69402718544006,,,,,,,,,,,,,,,,,,,,,,,,,,,,,,,,,,,,,,,,,,,,,,,,,,,,,,,,,,,,,,,,,,,,,,,,,,,,,,,,,125.0,200.0,200.0,125.0,141.0,141.0,2.1,2.11,-258,279,0,276,229,-257,157.67928457260132,157.67935872077942,157.68257355690002,157.69402718544006,157.84915733337402,157.84915733337402,157.84915733337402,157.84915733337402,157.84915733337402,157.84915733337402,157.84915733337402,159.266939163208,1,1.5675406455993652,None,,,,,,,,,,,,,,,,,,32,1,2025-02-19_11h19.32.835,comp,2024.2.4,55.90161815058223,2025-02-19 11h20.14.048737 -0500,
39,39,0,critical,dwh,20.0,4.0,lower,78.0,78.0,57.0,133.0,133.0,57.0,1,4.615159749984741,None,,,,,0,0,0,0,0,39,39,70,159.28607654571533,,,,,,,,,,,,,,,,,,,,,,,,,,,,,,,,,,,,,,,,,,,,,,,,,,,,,,,,,,,,,,,,,,,,,,,,,,,,,,,,,78.0,78.0,57.0,133.0,133.0,57.0,4.0,4.2,-202,-6,0,-285,191,8,159.26860284805298,159.26868081092834,159.27150535583496,159.28607654571533,159.43536972999573,159.43536972999573,159.43536972999573,159.43536972999573,159.43536972999573,159.43536972999573,159.43536972999573,163.91311264038086,1,4.615159749984741,None,,,,,,,,,,,,,,,,,,32,1,2025-02-19_11h19.32.835,comp,2024.2.4,55.90161815058223,2025-02-19 11h20.14.048737 -0500,
40,40,0,critical,dhw,20.0,1.0,upper,141.0,141.0,200.0,125.0,125.0,200.0,3,1.851907730102539,None,,,,,0,0,0,0,0,40,40,55,163.92940950393677,,,,,,,,,,,,,,,,,,,,,,,,,,,,,,,,,,,,,,,,,,,,,,,,,,,,,,,,,,,,,,,,,,,,,,,,,,,,,,,,,141.0,141.0,200.0,125.0,125.0,200.0,1.0,1.2,-229,0,0,-7,258,-7,163.91456985473633,163.9146478176117,163.9178388118744,163.92940950393677,164.08124113082886,164.08124113082886,164.08124113082886,164.08124113082886,164.08124113082886,164.08124113082886,164.08124113082886,165.7956416606903,3,1.851907730102539,None,,,,,,,,,,,,,,,,,,32,1,2025-02-19_11h19.32.835,comp,2024.2.4,55.90161815058223,2025-02-19 11h20.14.048737 -0500,
41,41,0,critical,whd,20.0,1.0,lower,57.0,133.0,133.0,57.0,78.0,78.0,1,4.618340969085693,None,,,,,0,0,0,0,0,41,41,90,165.81115579605103,,,,,,,,,,,,,,,,,,,,,,,,,,,,,,,,,,,,,,,,,,,,,,,,,,,,,,,,,,,,,,,,,,,,,,,,,,,,,,,,,57.0,133.0,133.0,57.0,78.0,78.0,1.0,1.3,289,-286,480,-265,644,-289,165.7971625328064,165.79724144935608,165.8001003265381,165.81115579605103,165.96857070922852,165.96857070922852,165.96857070922852,165.96857070922852,165.96857070922852,165.96857070922852,165.96857070922852,170.43424701690674,1,4.618340969085693,None,,,,,,,,,,,,,,,,,,32,1,2025-02-19_11h19.32.835,comp,2024.2.4,55.90161815058223,2025-02-19 11h20.14.048737 -0500,
42,42,0,critical,hwd,35.0,3.0,lower,133.0,57.0,57.0,133.0,70.0,70.0,2,4.609841346740723,None,,,,,0,0,0,0,0,42,42,98,170.45207166671753,,,,,,,,,,,,,,,,,,,,,,,,,,,,,,,,,,,,,,,,,,,,,,,,,,,,,,,,,,,,,,,,,,,,,,,,,,,,,,,,,133.0,57.0,57.0,133.0,70.0,70.0,3.0,3.1,-191,261,0,-7,198,-282,170.43580102920532,170.43592810630798,170.43880414962769,170.45207166671753,170.59977841377258,170.59977841377258,170.59977841377258,170.59977841377258,170.59977841377258,170.59977841377258,170.59977841377258,175.06745839118958,2,4.609841346740723,None,,,,,,,,,,,,,,,,,,32,1,2025-02-19_11h19.32.835,comp,2024.2.4,55.90161815058223,2025-02-19 11h20.14.048737 -0500,
43,43,0,filler_square,None,None,None,None,None,None,None,None,None,None,2,1.09804368019104,None,,,,,0,0,0,0,0,43,43,170,175.08402943611145,,,,,,,,,,,,,,,,,,,,,,,,,,,,,,,,,,,,,,,,,,,,,,,,,,,,,,,,,,,,,,,,,,,,,,,,,,,,,,,,,67.37527253808142,68.62396956683234,105.29561603647227,105.29561603647227,89.75247721238287,62.4001968336763,1.0,1.2,-183,14,0,-12,180,7,175.06951141357422,175.06960129737854,175.07290148735046,175.08402943611145,175.23310112953186,175.23310112953186,175.23310112953186,175.23310112953186,175.23310112953186,175.23310112953186,175.23310112953186,176.18813157081604,2,1.09804368019104,None,,,,,,,,,,,,,,,,,,32,1,2025-02-19_11h19.32.835,comp,2024.2.4,55.90161815058223,2025-02-19 11h20.14.048737 -0500,
44,44,0,critical,dhw,35.0,2.1,lower,70.0,70.0,133.0,57.0,57.0,133.0,3,2.2974188327789307,None,,,,,0,0,0,0,0,44,44,24,176.2037856578827,,,,,,,,,,,,,,,,,,,,,,,,,,,,,,,,,,,,,,,,,,,,,,,,,,,,,,,,,,,,,,,,,,,,,,,,,,,,,,,,,70.0,70.0,133.0,57.0,57.0,133.0,2.1,2.11,-160,283,0,278,191,-283,176.19006729125977,176.1902050971985,176.193124294281,176.2037856578827,176.35040259361267,176.35040259361267,176.35040259361267,176.35040259361267,176.35040259361267,176.35040259361267,176.35040259361267,178.51966667175293,3,2.2974188327789307,None,,,,,,,,,,,,,,,,,,32,1,2025-02-19_11h19.32.835,comp,2024.2.4,55.90161815058223,2025-02-19 11h20.14.048737 -0500,
45,45,0,filler_square,None,None,None,None,None,None,None,None,None,None,3,1.7179408073425293,None,,,,,0,0,0,0,0,45,45,188,178.53584456443787,,,,,,,,,,,,,,,,,,,,,,,,,,,,,,,,,,,,,,,,,,,,,,,,,,,,,,,,,,,,,,,,,,,,,,,,,,,,,,,,,168.21016611061216,190.85320014031777,115.84190110319213,105.3226554276128,198.25210761214532,198.25210761214532,4.0,4.1,-244,-283,0,-13,248,-289,178.52178573608398,178.52190279960632,178.525488615036,178.53584456443787,178.68660736083984,178.68660736083984,178.68660736083984,178.68660736083984,178.68660736083984,178.68660736083984,178.68660736083984,180.26121354103088,3,1.7179408073425293,None,,,,,,,,,,,,,,,,,,32,1,2025-02-19_11h19.32.835,comp,2024.2.4,55.90161815058223,2025-02-19 11h20.14.048737 -0500,
46,46,0,critical,hdw,35.0,2.1,upper,200.0,125.0,127.0,127.0,125.0,200.0,3,1.767301082611084,None,,,,,0,0,0,0,0,46,46,45,180.2786786556244,,,,,,,,,,,,,,,,,,,,,,,,,,,,,,,,,,,,,,,,,,,,,,,,,,,,,,,,,,,,,,,,,,,,,,,,,,,,,,,,,200.0,125.0,127.0,127.0,125.0,200.0,2.1,2.11,-222,252,0,261,260,-283,180.26277112960815,180.26285433769226,180.26564264297485,180.2786786556244,180.41901326179504,180.41901326179504,180.41901326179504,180.41901326179504,180.41901326179504,180.41901326179504,180.41901326179504,182.0503695011139,3,1.767301082611084,None,,,,,,,,,,,,,,,,,,32,1,2025-02-19_11h19.32.835,comp,2024.2.4,55.90161815058223,2025-02-19 11h20.14.048737 -0500,
47,47,0,critical,hdw,20.0,3.0,upper,200.0,125.0,141.0,141.0,125.0,200.0,1,2.5629968643188477,None,,,,,0,0,0,0,0,47,47,117,182.06736993789673,,,,,,,,,,,,,,,,,,,,,,,,,,,,,,,,,,,,,,,,,,,,,,,,,,,,,,,,,,,,,,,,,,,,,,,,,,,,,,,,,200.0,125.0,141.0,141.0,125.0,200.0,3.0,3.2,-229,-263,0,-12,266,287,182.05202507972717,182.05210542678833,182.05537009239197,182.06736993789673,182.2030816078186,182.2030816078186,182.2030816078186,182.2030816078186,182.2030816078186,182.2030816078186,182.2030816078186,184.63498878479004,1,2.5629968643188477,None,,,,,,,,,,,,,,,,,,32,1,2025-02-19_11h19.32.835,comp,2024.2.4,55.90161815058223,2025-02-19 11h20.14.048737 -0500,
48,48,0,critical,wdh,20.0,4.0,upper,125.0,200.0,141.0,141.0,200.0,125.0,1,1.597327709197998,None,,,,,0,0,0,0,0,48,48,83,184.65008234977722,,,,,,,,,,,,,,,,,,,,,,,,,,,,,,,,,,,,,,,,,,,,,,,,,,,,,,,,,,,,,,,,,,,,,,,,,,,,,,,,,125.0,200.0,141.0,141.0,200.0,125.0,4.0,4.2,-266,-2,0,-259,229,15,184.63652849197388,184.63660836219788,184.6394658088684,184.65008234977722,184.80725264549255,184.80725264549255,184.80725264549255,184.80725264549255,184.80725264549255,184.80725264549255,184.80725264549255,186.2535536289215,1,1.597327709197998,None,,,,,,,,,,,,,,,,,,32,1,2025-02-19_11h19.32.835,comp,2024.2.4,55.90161815058223,2025-02-19 11h20.14.048737 -0500,
49,49,0,critical,dhw,35.0,3.0,lower,70.0,70.0,133.0,57.0,57.0,133.0,3,4.2517640590667725,None,,,,,0,0,0,0,0,49,49,50,186.2735002040863,,,,,,,,,,,,,,,,,,,,,,,,,,,,,,,,,,,,,,,,,,,,,,,,,,,,,,,,,,,,,,,,,,,,,,,,,,,,,,,,,70.0,70.0,133.0,57.0,57.0,133.0,3.0,3.1,-160,279,0,8,191,-268,186.25506210327148,186.255140542984,186.25829887390137,186.2735002040863,186.42037391662598,186.42037391662598,186.42037391662598,186.42037391662598,186.42037391662598,186.42037391662598,186.42037391662598,190.54501271247864,3,4.2517640590667725,None,,,,,,,,,,,,,,,,,,32,1,2025-02-19_11h19.32.835,comp,2024.2.4,55.90161815058223,2025-02-19 11h20.14.048737 -0500,
50,50,0,filler_random,None,None,None,None,None,None,None,None,None,None,3,1.600996494293213,None,,,,,0,0,0,0,0,50,50,147,190.5649437904358,,,,,,,,,,,,,,,,,,,,,,,,,,,,,,,,,,,,,,,,,,,,,,,,,,,,,,,,,,,,,,,,,,,,,,,,,,,,,,,,,198.75302407703546,64.37014725642506,95.9262012657489,170.45665446348275,180.27318996125607,138.02407760817556,1.0,1.3,267,-290,480,-267,730,-271,190.54669618606567,190.5467917919159,190.5496175289154,190.5649437904358,190.70823884010315,190.70823884010315,190.70823884010315,190.70823884010315,190.70823884010315,190.70823884010315,190.70823884010315,192.1748549938202,3,1.600996494293213,None,,,,,,,,,,,,,,,,,,32,1,2025-02-19_11h19.32.835,comp,2024.2.4,55.90161815058223,2025-02-19 11h20.14.048737 -0500,
51,51,0,catch,None,None,None,None,None,None,None,None,None,None,2,1.332287311553955,None,,,,,0,0,0,0,0,51,51,126,192.1932189464569,,,,,,,,,,,,,,,,,,,,,,,,,,,,,,,,,,,,,,,,,,,,,,,,,,,,,,,,,,,,,,,,,,,,,,,,,,,,,,,,,110,80,193,132,88,102,2.2,2.21,-202,-251,0,288,213,261,192.1770191192627,192.1770989894867,192.1802453994751,192.1932189464569,192.3396122455597,192.3396122455597,192.3396122455597,192.3396122455597,192.3396122455597,192.3396122455597,192.3396122455597,193.52903056144714,2,1.332287311553955,None,,,,,,,,,,,,,,,,,,32,1,2025-02-19_11h19.32.835,comp,2024.2.4,55.90161815058223,2025-02-19 11h20.14.048737 -0500,
52,52,0,critical,dhw,20.0,3.0,lower,78.0,78.0,133.0,57.0,57.0,133.0,3,4.3809168338775635,None,,,,,0,0,0,0,0,52,52,56,193.54421973228455,,,,,,,,,,,,,,,,,,,,,,,,,,,,,,,,,,,,,,,,,,,,,,,,,,,,,,,,,,,,,,,,,,,,,,,,,,,,,,,,,78.0,78.0,133.0,57.0,57.0,133.0,3.0,3.1,-164,258,0,-10,191,-286,193.53056144714355,193.53063988685608,193.53348207473755,193.54421973228455,193.6899914741516,193.6899914741516,193.6899914741516,193.6899914741516,193.6899914741516,193.6899914741516,193.6899914741516,197.94138622283936,3,4.3809168338775635,None,,,,,,,,,,,,,,,,,,32,1,2025-02-19_11h19.32.835,comp,2024.2.4,55.90161815058223,2025-02-19 11h20.14.048737 -0500,
53,53,0,critical,hdw,20.0,3.0,lower,133.0,57.0,78.0,78.0,57.0,133.0,1,2.895799398422241,None,,,,,0,0,0,0,0,53,53,116,197.95808935165405,,,,,,,,,,,,,,,,,,,,,,,,,,,,,,,,,,,,,,,,,,,,,,,,,,,,,,,,,,,,,,,,,,,,,,,,,,,,,,,,,133.0,57.0,78.0,78.0,57.0,133.0,3.0,3.2,-164,-286,0,10,202,265,197.9428768157959,197.94297194480896,197.9469132423401,197.95808935165405,198.10676884651184,198.10676884651184,198.10676884651184,198.10676884651184,198.10676884651184,198.10676884651184,198.10676884651184,200.85911059379578,1,2.895799398422241,None,,,,,,,,,,,,,,,,,,32,1,2025-02-19_11h19.32.835,comp,2024.2.4,55.90161815058223,2025-02-19 11h20.14.048737 -0500,
54,54,0,critical,hwd,35.0,2.1,upper,200.0,125.0,125.0,200.0,127.0,127.0,2,2.705615282058716,None,,,,,0,0,0,0,0,54,54,41,200.87559747695923,,,,,,,,,,,,,,,,,,,,,,,,,,,,,,,,,,,,,,,,,,,,,,,,,,,,,,,,,,,,,,,,,,,,,,,,,,,,,,,,,200.0,125.0,125.0,200.0,127.0,127.0,2.1,2.11,-258,263,0,264,260,-262,200.86078143119812,200.86091923713684,200.86433053016663,200.87559747695923,201.02865529060364,201.02865529060364,201.02865529060364,201.02865529060364,201.02865529060364,201.02865529060364,201.02865529060364,203.5945954322815,2,2.705615282058716,None,,,,,,,,,,,,,,,,,,32,1,2025-02-19_11h19.32.835,comp,2024.2.4,55.90161815058223,2025-02-19 11h20.14.048737 -0500,
55,55,0,filler_square,None,None,None,None,None,None,None,None,None,None,2,0.9692587852478027,None,,,,,0,0,0,0,0,55,55,183,203.61192345619202,,,,,,,,,,,,,,,,,,,,,,,,,,,,,,,,,,,,,,,,,,,,,,,,,,,,,,,,,,,,,,,,,,,,,,,,,,,,,,,,,110.25048686442258,108.460256294386,173.86521342598155,173.86521342598155,58.71883374483083,133.678153796292,1.0,1.2,-237,-14,0,0,250,-19,203.59652304649353,203.59660124778748,203.59967231750488,203.61192345619202,203.7595088481903,203.7595088481903,203.7595088481903,203.7595088481903,203.7595088481903,203.7595088481903,203.7595088481903,204.592529296875,2,0.9692587852478027,None,,,,,,,,,,,,,,,,,,32,1,2025-02-19_11h19.32.835,comp,2024.2.4,55.90161815058223,2025-02-19 11h20.14.048737 -0500,
56,56,0,filler_square,None,None,None,None,None,None,None,None,None,None,3,2.175771713256836,None,,,,,0,0,0,0,0,56,56,192,204.61344170570374,,,,,,,,,,,,,,,,,,,,,,,,,,,,,,,,,,,,,,,,,,,,,,,,,,,,,,,,,,,,,,,,,,,,,,,,,,,,,,,,,78.55742533382971,58.004482722208216,80.65683330873094,62.564852007250344,82.57454206972358,82.57454206972358,2.2,2.21,-156,-254,0,254,169,273,204.59435319900513,204.59447741508484,204.59776091575623,204.61344170570374,204.76069712638855,204.76069712638855,204.76069712638855,204.76069712638855,204.76069712638855,204.76069712638855,204.76069712638855,206.80003118515015,3,2.175771713256836,None,,,,,,,,,,,,,,,,,,32,1,2025-02-19_11h19.32.835,comp,2024.2.4,55.90161815058223,2025-02-19 11h20.14.048737 -0500,
57,57,0,filler_random,None,None,None,None,None,None,None,None,None,None,2,2.5810837745666504,None,,,,,0,0,0,0,0,57,57,152,206.8162875175476,,,,,,,,,,,,,,,,,,,,,,,,,,,,,,,,,,,,,,,,,,,,,,,,,,,,,,,,,,,,,,,,,,,,,,,,,,,,,,,,,132.59339898606208,186.16610107981953,135.5487930644992,184.18128291443804,105.6634481966745,123.24233135154888,3.0,3.2,-281,-269,0,13,250,270,206.80193090438843,206.80204510688782,206.80525851249695,206.8162875175476,206.9589593410492,206.9589593410492,206.9589593410492,206.9589593410492,206.9589593410492,206.9589593410492,206.9589593410492,209.41003108024597,2,2.5810837745666504,None,,,,,,,,,,,,,,,,,,32,1,2025-02-19_11h19.32.835,comp,2024.2.4,55.90161815058223,2025-02-19 11h20.14.048737 -0500,
58,58,0,critical,dwh,35.0,2.1,upper,127.0,127.0,125.0,200.0,200.0,125.0,3,2.131457567214966,None,,,,,0,0,0,0,0,58,58,29,209.42674708366394,,,,,,,,,,,,,,,,,,,,,,,,,,,,,,,,,,,,,,,,,,,,,,,,,,,,,,,,,,,,,,,,,,,,,,,,,,,,,,,,,127.0,127.0,125.0,200.0,200.0,125.0,2.1,2.11,-260,259,0,274,258,-267,209.41181135177612,209.41192865371704,209.41547322273254,209.42674708366394,209.57851552963257,209.57851552963257,209.57851552963257,209.57851552963257,209.57851552963257,209.57851552963257,209.57851552963257,211.56516528129578,3,2.131457567214966,None,,,,,,,,,,,,,,,,,,32,1,2025-02-19_11h19.32.835,comp,2024.2.4,55.90161815058223,2025-02-19 11h20.14.048737 -0500,
59,59,0,critical,dwh,35.0,3.0,upper,127.0,127.0,125.0,200.0,200.0,125.0,2,2.7279598712921143,None,,,,,0,0,0,0,0,59,59,63,211.5815348625183,,,,,,,,,,,,,,,,,,,,,,,,,,,,,,,,,,,,,,,,,,,,,,,,,,,,,,,,,,,,,,,,,,,,,,,,,,,,,,,,,127.0,127.0,125.0,200.0,200.0,125.0,3.0,3.1,-260,272,0,16,258,-289,211.56693530082703,211.56701064109802,211.5708990097046,211.5815348625183,211.72908902168274,211.72908902168274,211.72908902168274,211.72908902168274,211.72908902168274,211.72908902168274,211.72908902168274,214.3140070438385,2,2.7279598712921143,None,,,,,,,,,,,,,,,,,,32,1,2025-02-19_11h19.32.835,comp,2024.2.4,55.90161815058223,2025-02-19 11h20.14.048737 -0500,
60,60,0,filler_random,None,None,None,None,None,None,None,None,None,None,1,1.3220643997192383,None,,,,,0,0,0,0,0,60,60,161,214.33120274543762,,,,,,,,,,,,,,,,,,,,,,,,,,,,,,,,,,,,,,,,,,,,,,,,,,,,,,,,,,,,,,,,,,,,,,,,,,,,,,,,,113.86994047469503,196.46177522626343,93.9253995851706,166.44284466473158,61.246300503138336,111.09142386477825,1.0,1.2,-277,-8,0,19,235,4,214.31571054458618,214.31586122512817,214.319233417511,214.33120274543762,214.4813539981842,214.4813539981842,214.4813539981842,214.4813539981842,214.4813539981842,214.4813539981842,214.4813539981842,215.66920804977417,1,1.3220643997192383,None,,,,,,,,,,,,,,,,,,32,1,2025-02-19_11h19.32.835,comp,2024.2.4,55.90161815058223,2025-02-19 11h20.14.048737 -0500,
61,61,0,filler_square,None,None,None,None,None,None,None,None,None,None,1,0.9219913482666016,None,,,,,0,0,0,0,0,61,61,176,215.6849319934845,,,,,,,,,,,,,,,,,,,,,,,,,,,,,,,,,,,,,,,,,,,,,,,,,,,,,,,,,,,,,,,,,,,,,,,,,,,,,,,,,151.2275639713583,151.2275639713583,59.38675033841306,75.9585680847124,86.1032579734708,105.20037147752359,2.1,2.11,-210,288,0,279,187,-252,215.67107582092285,215.67115330696106,215.67402863502502,215.6849319934845,215.83068203926086,215.83068203926086,215.83068203926086,215.83068203926086,215.83068203926086,215.83068203926086,215.83068203926086,216.61432719230652,1,0.9219913482666016,None,,,,,,,,,,,,,,,,,,32,1,2025-02-19_11h19.32.835,comp,2024.2.4,55.90161815058223,2025-02-19 11h20.14.048737 -0500,
62,62,0,filler_random,None,None,None,None,None,None,None,None,None,None,2,7.537945747375488,None,,,,,0,0,0,0,0,62,62,166,216.636372089386,,,,,,,,,,,,,,,,,,,,,,,,,,,,,,,,,,,,,,,,,,,,,,,,,,,,,,,,,,,,,,,,,,,,,,,,,,,,,,,,,82.36966818007926,69.52217857627956,137.94677803176046,62.761079442464144,116.71460648171355,61.69945905815991,2.2,2.22,-162,271,0,-279,158,-271,216.61606168746948,216.6161425113678,216.61933827400208,216.636372089386,216.78144431114197,216.78144431114197,216.78144431114197,216.78144431114197,216.78144431114197,216.78144431114197,216.78144431114197,224.1819031238556,2,7.537945747375488,None,,,,,,,,,,,,,,,,,,32,1,2025-02-19_11h19.32.835,comp,2024.2.4,55.90161815058223,2025-02-19 11h20.14.048737 -0500,
63,63,0,catch,None,None,None,None,None,None,None,None,None,None,2,0.8631458282470703,None,,,,,0,0,0,0,0,63,63,120,224.19850206375122,,,,,,,,,,,,,,,,,,,,,,,,,,,,,,,,,,,,,,,,,,,,,,,,,,,,,,,,,,,,,,,,,,,,,,,,,,,,,,,,,128,62,143,182,58,132,2.1,2.11,-218,287,0,254,253,-276,224.18383932113647,224.18392157554626,224.18691062927246,224.19850206375122,224.34943437576294,224.34943437576294,224.34943437576294,224.34943437576294,224.34943437576294,224.34943437576294,224.34943437576294,225.06864738464355,2,0.8631458282470703,None,,,,,,,,,,,,,,,,,,32,1,2025-02-19_11h19.32.835,comp,2024.2.4,55.90161815058223,2025-02-19 11h20.14.048737 -0500,
64,64,0,filler_random,None,None,None,None,None,None,None,None,None,None,2,1.3813362121582031,None,,,,,0,0,0,0,0,64,64,141,225.08798217773438,,,,,,,,,,,,,,,,,,,,,,,,,,,,,,,,,,,,,,,,,,,,,,,,,,,,,,,,,,,,,,,,,,,,,,,,,,,,,,,,,59.47372208185512,159.61936546166726,88.94185232302672,170.63661348904571,129.70418131428397,75.3179057716004,2.2,2.22,-261,282,0,-271,219,-280,225.0708360671997,225.07091641426086,225.07470798492432,225.08798217773438,225.23380136489868,225.23380136489868,225.23380136489868,225.23380136489868,225.23380136489868,225.23380136489868,225.23380136489868,226.4871084690094,2,1.3813362121582031,None,,,,,,,,,,,,,,,,,,32,1,2025-02-19_11h19.32.835,comp,2024.2.4,55.90161815058223,2025-02-19 11h20.14.048737 -0500,
65,65,0,critical,whd,35.0,4.0,upper,125.0,200.0,200.0,125.0,127.0,127.0,1,1.1778717041015625,None,,,,,0,0,0,0,0,65,65,89,226.507417678833,,,,,,,,,,,,,,,,,,,,,,,,,,,,,,,,,,,,,,,,,,,,,,,,,,,,,,,,,,,,,,,,,,,,,,,,,,,,,,,,,125.0,200.0,200.0,125.0,127.0,127.0,4.0,4.1,-258,-264,0,17,222,-279,226.48870635032654,226.48883867263794,226.49207520484924,226.507417678833,226.6509792804718,226.6509792804718,226.6509792804718,226.6509792804718,226.6509792804718,226.6509792804718,226.6509792804718,227.70178627967834,1,1.1778717041015625,None,,,,,,,,,,,,,,,,,,32,1,2025-02-19_11h19.32.835,comp,2024.2.4,55.90161815058223,2025-02-19 11h20.14.048737 -0500,
66,66,0,critical,dwh,20.0,1.0,lower,78.0,78.0,57.0,133.0,133.0,57.0,2,2.3035144805908203,None,,,,,0,0,0,0,0,66,66,66,227.71795082092285,,,,,,,,,,,,,,,,,,,,,,,,,,,,,,,,,,,,,,,,,,,,,,,,,,,,,,,,,,,,,,,,,,,,,,,,,,,,,,,,,78.0,78.0,57.0,133.0,133.0,57.0,1.0,1.3,278,-256,480,-252,671,-264,227.70331811904907,227.70339441299438,227.70657062530518,227.71795082092285,227.86964011192322,227.86964011192322,227.86964011192322,227.86964011192322,227.86964011192322,227.86964011192322,227.86964011192322,230.03481483459473,2,2.3035144805908203,None,,,,,,,,,,,,,,,,,,32,1,2025-02-19_11h19.32.835,comp,2024.2.4,55.90161815058223,2025-02-19 11h20.14.048737 -0500,
67,67,0,filler_random,None,None,None,None,None,None,None,None,None,None,2,1.3792674541473389,None,,,,,0,0,0,0,0,67,67,157,230.05099606513977,,,,,,,,,,,,,,,,,,,,,,,,,,,,,,,,,,,,,,,,,,,,,,,,,,,,,,,,,,,,,,,,,,,,,,,,,,,,,,,,,136.72239766213426,85.25585921459181,103.2792016055524,171.91807642059604,80.03023884114799,163.25047574482457,3.0,3.2,-225,-280,0,13,264,282,230.03656125068665,230.0366404056549,230.0406849384308,230.05099606513977,230.19855618476868,230.19855618476868,230.19855618476868,230.19855618476868,230.19855618476868,230.19855618476868,230.19855618476868,231.43559432029724,2,1.3792674541473389,None,,,,,,,,,,,,,,,,,,32,1,2025-02-19_11h19.32.835,comp,2024.2.4,55.90161815058223,2025-02-19 11h20.14.048737 -0500,
68,68,0,filler_random,None,None,None,None,None,None,None,None,None,None,1,1.1768608093261719,None,,,,,0,0,0,0,0,68,68,167,231.45250463485718,,,,,,,,,,,,,,,,,,,,,,,,,,,,,,,,,,,,,,,,,,,,,,,,,,,,,,,,,,,,,,,,,,,,,,,,,,,,,,,,,170.041372410623,158.90811278382444,67.33896332545325,91.71054564261686,66.68614203797334,199.48779340193525,1.0,1.1,-701,281,-480,257,-238,273,231.43729758262634,231.4373791217804,231.4413914680481,231.45250463485718,231.60064697265625,231.60064697265625,231.60064697265625,231.60064697265625,231.60064697265625,231.60064697265625,231.60064697265625,232.64096522331238,1,1.1768608093261719,None,,,,,,,,,,,,,,,,,,32,1,2025-02-19_11h19.32.835,comp,2024.2.4,55.90161815058223,2025-02-19 11h20.14.048737 -0500,
69,69,0,critical,dwh,20.0,2.1,lower,78.0,78.0,57.0,133.0,133.0,57.0,2,2.001267433166504,None,,,,,0,0,0,0,0,69,69,6,232.6610288619995,,,,,,,,,,,,,,,,,,,,,,,,,,,,,,,,,,,,,,,,,,,,,,,,,,,,,,,,,,,,,,,,,,,,,,,,,,,,,,,,,78.0,78.0,57.0,133.0,133.0,57.0,2.1,2.12,-202,-276,0,-259,191,269,232.64246559143066,232.6425440311432,232.6454131603241,232.6610288619995,232.8016676902771,232.8016676902771,232.8016676902771,232.8016676902771,232.8016676902771,232.8016676902771,232.8016676902771,234.66832327842712,2,2.001267433166504,None,,,,,,,,,,,,,,,,,,32,1,2025-02-19_11h19.32.835,comp,2024.2.4,55.90161815058223,2025-02-19 11h20.14.048737 -0500,
70,70,0,critical,dwh,35.0,3.0,lower,70.0,70.0,57.0,133.0,133.0,57.0,2,1.3685939311981201,None,,,,,0,0,0,0,0,70,70,62,234.68470644950867,,,,,,,,,,,,,,,,,,,,,,,,,,,,,,,,,,,,,,,,,,,,,,,,,,,,,,,,,,,,,,,,,,,,,,,,,,,,,,,,,70.0,70.0,57.0,133.0,133.0,57.0,3.0,3.2,-198,-262,0,-12,191,279,234.66981530189514,234.66989254951477,234.67286920547485,234.68470644950867,234.82102012634277,234.82102012634277,234.82102012634277,234.82102012634277,234.82102012634277,234.82102012634277,234.82102012634277,236.06719970703125,2,1.3685939311981201,None,,,,,,,,,,,,,,,,,,32,1,2025-02-19_11h19.32.835,comp,2024.2.4,55.90161815058223,2025-02-19 11h20.14.048737 -0500,
71,71,0,critical,hdw,35.0,2.1,lower,133.0,57.0,70.0,70.0,57.0,133.0,3,2.4571590423583984,None,,,,,0,0,0,0,0,71,71,20,236.08404088020325,,,,,,,,,,,,,,,,,,,,,,,,,,,,,,,,,,,,,,,,,,,,,,,,,,,,,,,,,,,,,,,,,,,,,,,,,,,,,,,,,133.0,57.0,70.0,70.0,57.0,133.0,2.1,2.11,-160,285,0,264,198,-250,236.06873440742493,236.06881380081177,236.07160711288452,236.08404088020325,236.23807740211487,236.23807740211487,236.23807740211487,236.23807740211487,236.23807740211487,236.23807740211487,236.23807740211487,238.5533902645111,3,2.4571590423583984,None,,,,,,,,,,,,,,,,,,32,1,2025-02-19_11h19.32.835,comp,2024.2.4,55.90161815058223,2025-02-19 11h20.14.048737 -0500,
72,72,0,filler_square,None,None,None,None,None,None,None,None,None,None,1,1.463744878768921,None,,,,,0,0,0,0,0,72,72,171,238.57398748397827,,,,,,,,,,,,,,,,,,,,,,,,,,,,,,,,,,,,,,,,,,,,,,,,,,,,,,,,,,,,,,,,,,,,,,,,,,,,,,,,,161.50577394237916,161.50577394237916,138.25238833284965,97.8135804738638,136.46529091945717,128.58078705339477,4.0,4.2,-226,-7,0,-269,209,15,238.55537939071655,238.5554735660553,238.55880761146545,238.57398748397827,238.72296380996704,238.72296380996704,238.72296380996704,238.72296380996704,238.72296380996704,238.72296380996704,238.72296380996704,240.04440712928772,1,1.463744878768921,None,,,,,,,,,,,,,,,,,,32,1,2025-02-19_11h19.32.835,comp,2024.2.4,55.90161815058223,2025-02-19 11h20.14.048737 -0500,
73,73,0,critical,wdh,35.0,3.0,lower,57.0,133.0,70.0,70.0,133.0,57.0,1,2.6299917697906494,None,,,,,0,0,0,0,0,73,73,74,240.06336212158203,,,,,,,,,,,,,,,,,,,,,,,,,,,,,,,,,,,,,,,,,,,,,,,,,,,,,,,,,,,,,,,,,,,,,,,,,,,,,,,,,57.0,133.0,70.0,70.0,133.0,57.0,3.0,3.2,-198,-261,0,-3,160,283,240.04599165916443,240.0460696220398,240.04896998405457,240.06336212158203,240.20412182807922,240.20412182807922,240.20412182807922,240.20412182807922,240.20412182807922,240.20412182807922,240.20412182807922,242.7058687210083,1,2.6299917697906494,None,,,,,,,,,,,,,,,,,,32,1,2025-02-19_11h19.32.835,comp,2024.2.4,55.90161815058223,2025-02-19 11h20.14.048737 -0500,
74,74,0,filler_random,None,None,None,None,None,None,None,None,None,None,3,2.2748217582702637,None,,,,,0,0,0,0,0,74,74,134,242.73050904273987,,,,,,,,,,,,,,,,,,,,,,,,,,,,,,,,,,,,,,,,,,,,,,,,,,,,,,,,,,,,,,,,,,,,,,,,,,,,,,,,,73.03218518458833,185.317270968201,100.31378622639484,136.66605057192052,148.01615129746307,97.44060964394166,3.0,3.2,-257,-285,0,-9,213,272,242.70752215385437,242.7076027393341,242.7106432914734,242.73050904273987,242.87290167808533,242.87290167808533,242.87290167808533,242.87290167808533,242.87290167808533,242.87290167808533,242.87290167808533,245.00739789009094,3,2.2748217582702637,None,,,,,,,,,,,,,,,,,,32,1,2025-02-19_11h19.32.835,comp,2024.2.4,55.90161815058223,2025-02-19 11h20.14.048737 -0500,
75,75,0,catch,None,None,None,None,None,None,None,None,None,None,2,1.1900317668914795,None,,,,,0,0,0,0,0,75,75,124,245.02409029006958,,,,,,,,,,,,,,,,,,,,,,,,,,,,,,,,,,,,,,,,,,,,,,,,,,,,,,,,,,,,,,,,,,,,,,,,,,,,,,,,,62,128,128,197,104,86,1.0,1.3,222,-256,480,-270,718,-254,245.0095624923706,245.00964641571045,245.01322031021118,245.02409029006958,245.1760377883911,245.1760377883911,245.1760377883911,245.1760377883911,245.1760377883911,245.1760377883911,245.1760377883911,246.221049785614,2,1.1900317668914795,None,,,,,,,,,,,,,,,,,,32,1,2025-02-19_11h19.32.835,comp,2024.2.4,55.90161815058223,2025-02-19 11h20.14.048737 -0500,
76,76,0,catch,None,None,None,None,None,None,None,None,None,None,1,0.920318603515625,None,,,,,0,0,0,0,0,76,76,129,246.23719143867493,,,,,,,,,,,,,,,,,,,,,,,,,,,,,,,,,,,,,,,,,,,,,,,,,,,,,,,,,,,,,,,,,,,,,,,,,,,,,,,,,160,165,82,108,73,117,4.0,4.2,-232,-11,0,-276,208,11,246.22310185432434,246.22318148612976,246.2266309261322,246.23719143867493,246.39152264595032,246.39152264595032,246.39152264595032,246.39152264595032,246.39152264595032,246.39152264595032,246.39152264595032,247.17446160316467,1,0.920318603515625,None,,,,,,,,,,,,,,,,,,32,1,2025-02-19_11h19.32.835,comp,2024.2.4,55.90161815058223,2025-02-19 11h20.14.048737 -0500,
77,77,0,filler_square,None,None,None,None,None,None,None,None,None,None,2,0.9667823314666748,None,,,,,0,0,0,0,0,77,77,187,247.19057965278625,,,,,,,,,,,,,,,,,,,,,,,,,,,,,,,,,,,,,,,,,,,,,,,,,,,,,,,,,,,,,,,,,,,,,,,,,,,,,,,,,119.89129452178894,86.73809526212113,150.83805019602812,150.83805019602812,95.37230791566444,110.39338033267383,4.0,4.1,-215,-289,0,-18,227,-265,247.17640495300293,247.17651510238647,247.17977929115295,247.19057965278625,247.3270092010498,247.3270092010498,247.3270092010498,247.3270092010498,247.3270092010498,247.3270092010498,247.3270092010498,248.17309713363647,2,0.9667823314666748,None,,,,,,,,,,,,,,,,,,32,1,2025-02-19_11h19.32.835,comp,2024.2.4,55.90161815058223,2025-02-19 11h20.14.048737 -0500,
78,78,0,critical,dwh,35.0,1.0,lower,70.0,70.0,57.0,133.0,133.0,57.0,2,1.3457369804382324,None,,,,,0,0,0,0,0,78,78,60,248.18836402893066,,,,,,,,,,,,,,,,,,,,,,,,,,,,,,,,,,,,,,,,,,,,,,,,,,,,,,,,,,,,,,,,,,,,,,,,,,,,,,,,,70.0,70.0,57.0,133.0,133.0,57.0,1.0,1.2,-198,-15,0,-20,191,20,248.17455744743347,248.17463183403015,248.17747831344604,248.18836402893066,248.3396875858307,248.3396875858307,248.3396875858307,248.3396875858307,248.3396875858307,248.3396875858307,248.3396875858307,249.54171514511108,2,1.3457369804382324,None,,,,,,,,,,,,,,,,,,32,1,2025-02-19_11h19.32.835,comp,2024.2.4,55.90161815058223,2025-02-19 11h20.14.048737 -0500,
79,79,0,critical,dwh,20.0,4.0,upper,141.0,141.0,125.0,200.0,200.0,125.0,2,2.4402878284454346,None,,,,,0,0,0,0,0,79,79,71,249.55709600448608,,,,,,,,,,,,,,,,,,,,,,,,,,,,,,,,,,,,,,,,,,,,,,,,,,,,,,,,,,,,,,,,,,,,,,,,,,,,,,,,,141.0,141.0,125.0,200.0,200.0,125.0,4.0,4.2,-266,16,0,-284,258,19,249.5433099269867,249.54338884353638,249.5464470386505,249.55709600448608,249.70794296264648,249.70794296264648,249.70794296264648,249.70794296264648,249.70794296264648,249.70794296264648,249.70794296264648,252.01681232452393,2,2.4402878284454346,None,,,,,,,,,,,,,,,,,,32,1,2025-02-19_11h19.32.835,comp,2024.2.4,55.90161815058223,2025-02-19 11h20.14.048737 -0500,
80,80,0,catch,None,None,None,None,None,None,None,None,None,None,1,1.035459041595459,None,,,,,0,0,0,0,0,80,80,125,252.0349838733673,,,,,,,,,,,,,,,,,,,,,,,,,,,,,,,,,,,,,,,,,,,,,,,,,,,,,,,,,,,,,,,,,,,,,,,,,,,,,,,,,140,185,113,77,95,95,2.2,2.21,-227,-263,0,260,182,275,252.0188283920288,252.01895117759705,252.0221450328827,252.0349838733673,252.1768889427185,252.1768889427185,252.1768889427185,252.1768889427185,252.1768889427185,252.1768889427185,252.1768889427185,253.07721877098083,1,1.035459041595459,None,,,,,,,,,,,,,,,,,,32,1,2025-02-19_11h19.32.835,comp,2024.2.4,55.90161815058223,2025-02-19 11h20.14.048737 -0500,
81,81,0,filler_square,None,None,None,None,None,None,None,None,None,None,2,4.984597206115723,None,,,,,0,0,0,0,0,81,81,207,253.092875957489,,,,,,,,,,,,,,,,,,,,,,,,,,,,,,,,,,,,,,,,,,,,,,,,,,,,,,,,,,,,,,,,,,,,,,,,,,,,,,,,,71.5022432257999,66.22387289066438,73.37893269744823,73.37893269744823,60.93844809791435,67.92299021183564,3.0,3.2,-166,-254,0,5,167,278,253.07907509803772,253.07915830612183,253.08227944374084,253.092875957489,253.24222683906555,253.24222683906555,253.24222683906555,253.24222683906555,253.24222683906555,253.24222683906555,253.24222683906555,258.0936441421509,2,4.984597206115723,None,,,,,,,,,,,,,,,,,,32,1,2025-02-19_11h19.32.835,comp,2024.2.4,55.90161815058223,2025-02-19 11h20.14.048737 -0500,
82,82,0,critical,hdw,35.0,3.0,lower,133.0,57.0,70.0,70.0,57.0,133.0,3,2.6482810974121094,None,,,,,0,0,0,0,0,82,82,110,258.1097927093506,,,,,,,,,,,,,,,,,,,,,,,,,,,,,,,,,,,,,,,,,,,,,,,,,,,,,,,,,,,,,,,,,,,,,,,,,,,,,,,,,133.0,57.0,70.0,70.0,57.0,133.0,3.0,3.1,-160,283,0,18,198,-261,258.0952079296112,258.0952854156494,258.0992329120636,258.1097927093506,258.25933861732483,258.25933861732483,258.25933861732483,258.25933861732483,258.25933861732483,258.25933861732483,258.25933861732483,260.76114106178284,3,2.6482810974121094,None,,,,,,,,,,,,,,,,,,32,1,2025-02-19_11h19.32.835,comp,2024.2.4,55.90161815058223,2025-02-19 11h20.14.048737 -0500,
83,83,0,critical,hdw,35.0,2.1,upper,200.0,125.0,127.0,127.0,125.0,200.0,1,1.6127090454101562,None,,,,,0,0,0,0,0,83,83,21,260.77728176116943,,,,,,,,,,,,,,,,,,,,,,,,,,,,,,,,,,,,,,,,,,,,,,,,,,,,,,,,,,,,,,,,,,,,,,,,,,,,,,,,,200.0,125.0,127.0,127.0,125.0,200.0,2.1,2.12,-222,-278,0,-262,260,285,260.76270961761475,260.7628173828125,260.76619148254395,260.77728176116943,260.93134355545044,260.93134355545044,260.93134355545044,260.93134355545044,260.93134355545044,260.93134355545044,260.93134355545044,262.39492082595825,1,1.6127090454101562,None,,,,,,,,,,,,,,,,,,32,1,2025-02-19_11h19.32.835,comp,2024.2.4,55.90161815058223,2025-02-19 11h20.14.048737 -0500,
84,84,0,filler_square,None,None,None,None,None,None,None,None,None,None,3,1.0983853340148926,None,,,,,0,0,0,0,0,84,84,198,262.4109766483307,,,,,,,,,,,,,,,,,,,,,,,,,,,,,,,,,,,,,,,,,,,,,,,,,,,,,,,,,,,,,,,,,,,,,,,,,,,,,,,,,107.5070093961701,57.2342577635825,105.77307024576425,92.23696432848567,119.54315421884263,119.54315421884263,1.0,1.1,-651,284,-480,288,-278,254,262.39678168296814,262.39686369895935,262.4001841545105,262.4109766483307,262.5634922981262,262.5634922981262,262.5634922981262,262.5634922981262,262.5634922981262,262.5634922981262,262.5634922981262,263.52460289001465,3,1.0983853340148926,None,,,,,,,,,,,,,,,,,,32,1,2025-02-19_11h19.32.835,comp,2024.2.4,55.90161815058223,2025-02-19 11h20.14.048737 -0500,
85,85,0,critical,hwd,35.0,2.1,lower,133.0,57.0,57.0,133.0,70.0,70.0,2,2.1590359210968018,None,,,,,0,0,0,0,0,85,85,16,263.54291319847107,,,,,,,,,,,,,,,,,,,,,,,,,,,,,,,,,,,,,,,,,,,,,,,,,,,,,,,,,,,,,,,,,,,,,,,,,,,,,,,,,133.0,57.0,57.0,133.0,70.0,70.0,2.1,2.12,-191,-287,0,-270,198,284,263.5261287689209,263.5262053012848,263.5290768146515,263.54291319847107,263.6783866882324,263.6783866882324,263.6783866882324,263.6783866882324,263.6783866882324,263.6783866882324,263.6783866882324,265.71165132522583,2,2.1590359210968018,None,,,,,,,,,,,,,,,,,,32,1,2025-02-19_11h19.32.835,comp,2024.2.4,55.90161815058223,2025-02-19 11h20.14.048737 -0500,
86,86,0,critical,whd,35.0,2.1,upper,125.0,200.0,200.0,125.0,127.0,127.0,2,2.397434711456299,None,,,,,0,0,0,0,0,86,86,13,265.7360670566559,,,,,,,,,,,,,,,,,,,,,,,,,,,,,,,,,,,,,,,,,,,,,,,,,,,,,,,,,,,,,,,,,,,,,,,,,,,,,,,,,125.0,200.0,200.0,125.0,127.0,127.0,2.1,2.11,-258,283,0,279,222,-278,265.7131881713867,265.71326422691345,265.716091632843,265.7360670566559,265.8792145252228,265.8792145252228,265.8792145252228,265.8792145252228,265.8792145252228,265.8792145252228,265.8792145252228,268.13926100730896,2,2.397434711456299,None,,,,,,,,,,,,,,,,,,32,1,2025-02-19_11h19.32.835,comp,2024.2.4,55.90161815058223,2025-02-19 11h20.14.048737 -0500,
87,87,0,filler_square,None,None,None,None,None,None,None,None,None,None,3,2.400839328765869,None,,,,,0,0,0,0,0,87,87,173,268.15714859962463,,,,,,,,,,,,,,,,,,,,,,,,,,,,,,,,,,,,,,,,,,,,,,,,,,,,,,,,,,,,,,,,,,,,,,,,,,,,,,,,,70.50067851801997,68.08204185556266,72.00440839069175,57.5062750504368,76.99726422410608,76.99726422410608,4.0,4.2,-159,15,0,-277,163,3,268.1410422325134,268.14112305641174,268.143976688385,268.15714859962463,268.2974750995636,268.2974750995636,268.2974750995636,268.2974750995636,268.2974750995636,268.2974750995636,268.2974750995636,270.566890001297,3,2.400839328765869,None,,,,,,,,,,,,,,,,,,32,1,2025-02-19_11h19.32.835,comp,2024.2.4,55.90161815058223,2025-02-19 11h20.14.048737 -0500,
88,88,0,critical,dwh,35.0,2.1,lower,70.0,70.0,57.0,133.0,133.0,57.0,2,2.830458879470825,None,,,,,0,0,0,0,0,88,88,4,270.58346486091614,,,,,,,,,,,,,,,,,,,,,,,,,,,,,,,,,,,,,,,,,,,,,,,,,,,,,,,,,,,,,,,,,,,,,,,,,,,,,,,,,70.0,70.0,57.0,133.0,133.0,57.0,2.1,2.12,-198,-258,0,-262,191,265,270.5687401294708,270.5688388347626,270.5720989704132,270.58346486091614,270.733847618103,270.733847618103,270.733847618103,270.733847618103,270.733847618103,270.733847618103,270.733847618103,273.42312002182007,2,2.830458879470825,None,,,,,,,,,,,,,,,,,,32,1,2025-02-19_11h19.32.835,comp,2024.2.4,55.90161815058223,2025-02-19 11h20.14.048737 -0500,
89,89,0,filler_random,None,None,None,None,None,None,None,None,None,None,2,0.9701292514801025,None,,,,,0,0,0,0,0,89,89,156,273.4433629512787,,,,,,,,,,,,,,,,,,,,,,,,,,,,,,,,,,,,,,,,,,,,,,,,,,,,,,,,,,,,,,,,,,,,,,,,,,,,,,,,,112.61699222840045,104.9177158768657,170.64099911051417,156.4608401764919,113.59662352729565,97.99406161647084,3.0,3.1,-227,286,0,-4,223,-256,273.42483258247375,273.42491340637207,273.42774653434753,273.4433629512787,273.5823583602905,273.5823583602905,273.5823583602905,273.5823583602905,273.5823583602905,273.5823583602905,273.5823583602905,274.4340913295746,2,0.9701292514801025,None,,,,,,,,,,,,,,,,,,32,1,2025-02-19_11h19.32.835,comp,2024.2.4,55.90161815058223,2025-02-19 11h20.14.048737 -0500,
90,90,0,critical,hdw,35.0,1.0,lower,133.0,57.0,70.0,70.0,57.0,133.0,1,5.266535043716431,None,,,,,0,0,0,0,0,90,90,108,274.45112323760986,,,,,,,,,,,,,,,,,,,,,,,,,,,,,,,,,,,,,,,,,,,,,,,,,,,,,,,,,,,,,,,,,,,,,,,,,,,,,,,,,133.0,57.0,70.0,70.0,57.0,133.0,1.0,1.3,320,-258,480,-251,678,-290,274.43565559387207,274.4357657432556,274.43861269950867,274.45112323760986,274.59861183166504,274.59861183166504,274.59861183166504,274.59861183166504,274.59861183166504,274.59861183166504,274.59861183166504,279.72354197502136,1,5.266535043716431,None,,,,,,,,,,,,,,,,,,32,1,2025-02-19_11h19.32.835,comp,2024.2.4,55.90161815058223,2025-02-19 11h20.14.048737 -0500,
91,91,0,filler_square,None,None,None,None,None,None,None,None,None,None,3,1.1866066455841064,None,,,,,0,0,0,0,0,91,91,199,279.73884201049805,,,,,,,,,,,,,,,,,,,,,,,,,,,,,,,,,,,,,,,,,,,,,,,,,,,,,,,,,,,,,,,,,,,,,,,,,,,,,,,,,85.62426445819378,94.25874093245297,92.35173166721444,94.76797929358513,116.06625869797713,116.06625869797713,1.0,1.2,-191,-12,0,16,201,10,279.7252688407898,279.7253460884094,279.7281551361084,279.73884201049805,279.8838152885437,279.8838152885437,279.8838152885437,279.8838152885437,279.8838152885437,279.8838152885437,279.8838152885437,280.9344446659088,3,1.1866066455841064,None,,,,,,,,,,,,,,,,,,32,1,2025-02-19_11h19.32.835,comp,2024.2.4,55.90161815058223,2025-02-19 11h20.14.048737 -0500,
92,92,0,critical,dhw,35.0,4.0,upper,127.0,127.0,200.0,125.0,125.0,200.0,3,1.310166597366333,None,,,,,0,0,0,0,0,92,92,53,280.9516761302948,,,,,,,,,,,,,,,,,,,,,,,,,,,,,,,,,,,,,,,,,,,,,,,,,,,,,,,,,,,,,,,,,,,,,,,,,,,,,,,,,127.0,127.0,200.0,125.0,125.0,200.0,4.0,4.2,-222,16,0,-252,258,13,280.93604350090027,280.9361231327057,280.94017577171326,280.9516761302948,281.09706830978394,281.09706830978394,281.09706830978394,281.09706830978394,281.09706830978394,281.09706830978394,281.09706830978394,282.2665512561798,3,1.310166597366333,None,,,,,,,,,,,,,,,,,,32,1,2025-02-19_11h19.32.835,comp,2024.2.4,55.90161815058223,2025-02-19 11h20.14.048737 -0500,
93,93,0,critical,dwh,20.0,2.1,upper,141.0,141.0,125.0,200.0,200.0,125.0,2,2.9792282581329346,None,,,,,0,0,0,0,0,93,93,31,282.2828710079193,,,,,,,,,,,,,,,,,,,,,,,,,,,,,,,,,,,,,,,,,,,,,,,,,,,,,,,,,,,,,,,,,,,,,,,,,,,,,,,,,141.0,141.0,125.0,200.0,200.0,125.0,2.1,2.11,-266,275,0,253,258,-265,282.2681345939636,282.2682132720947,282.27124428749084,282.2828710079193,282.4226405620575,282.4226405620575,282.4226405620575,282.4226405620575,282.4226405620575,282.4226405620575,282.4226405620575,285.2684669494629,2,2.9792282581329346,None,,,,,,,,,,,,,,,,,,32,1,2025-02-19_11h19.32.835,comp,2024.2.4,55.90161815058223,2025-02-19 11h20.14.048737 -0500,
94,94,0,catch,None,None,None,None,None,None,None,None,None,None,3,0.8372902870178223,None,,,,,0,0,0,0,0,94,94,127,285.28846073150635,,,,,,,,,,,,,,,,,,,,,,,,,,,,,,,,,,,,,,,,,,,,,,,,,,,,,,,,,,,,,,,,,,,,,,,,,,,,,,,,,70,120,77,113,133,192,4.0,4.2,-212,-11,0,-277,248,-15,285.27049255371094,285.27057123184204,285.2739336490631,285.28846073150635,285.4292342662811,285.4292342662811,285.4292342662811,285.4292342662811,285.4292342662811,285.4292342662811,285.4292342662811,286.1348080635071,3,0.8372902870178223,None,,,,,,,,,,,,,,,,,,32,1,2025-02-19_11h19.32.835,comp,2024.2.4,55.90161815058223,2025-02-19 11h20.14.048737 -0500,
95,95,0,critical,wdh,35.0,2.1,upper,125.0,200.0,127.0,127.0,200.0,125.0,1,1.334848165512085,None,,,,,0,0,0,0,0,95,95,9,286.1506862640381,,,,,,,,,,,,,,,,,,,,,,,,,,,,,,,,,,,,,,,,,,,,,,,,,,,,,,,,,,,,,,,,,,,,,,,,,,,,,,,,,125.0,200.0,127.0,127.0,200.0,125.0,2.1,2.12,-260,-259,0,-278,222,262,286.13637042045593,286.1364481449127,286.1395764350891,286.1506862640381,286.3069579601288,286.3069579601288,286.3069579601288,286.3069579601288,286.3069579601288,286.3069579601288,286.3069579601288,287.48776292800903,1,1.334848165512085,None,,,,,,,,,,,,,,,,,,32,1,2025-02-19_11h19.32.835,comp,2024.2.4,55.90161815058223,2025-02-19 11h20.14.048737 -0500,
96,96,0,critical,dhw,35.0,1.0,lower,70.0,70.0,133.0,57.0,57.0,133.0,3,2.4134702682495117,None,,,,,0,0,0,0,0,96,96,48,287.5046396255493,,,,,,,,,,,,,,,,,,,,,,,,,,,,,,,,,,,,,,,,,,,,,,,,,,,,,,,,,,,,,,,,,,,,,,,,,,,,,,,,,70.0,70.0,133.0,57.0,57.0,133.0,1.0,1.3,320,-269,480,-259,671,-269,287.4893219470978,287.48944091796875,287.4930331707001,287.5046396255493,287.65277791023254,287.65277791023254,287.65277791023254,287.65277791023254,287.65277791023254,287.65277791023254,287.65277791023254,289.9226460456848,3,2.4134702682495117,None,,,,,,,,,,,,,,,,,,32,1,2025-02-19_11h19.32.835,comp,2024.2.4,55.90161815058223,2025-02-19 11h20.14.048737 -0500,
97,97,0,filler_random,None,None,None,None,None,None,None,None,None,None,1,1.546072006225586,None,,,,,0,0,0,0,0,97,97,153,289.93941140174866,,,,,,,,,,,,,,,,,,,,,,,,,,,,,,,,,,,,,,,,,,,,,,,,,,,,,,,,,,,,,,,,,,,,,,,,,,,,,,,,,100.07308291862866,131.7787026736043,81.76250308035416,101.84674935832334,157.59403419053677,76.59502610980965,4.0,4.1,-213,-289,0,19,185,-277,289.9245638847351,289.9246492385864,289.928484916687,289.93941140174866,290.0888032913208,290.0888032913208,290.0888032913208,290.0888032913208,290.0888032913208,290.0888032913208,290.0888032913208,291.4890537261963,1,1.546072006225586,None,,,,,,,,,,,,,,,,,,32,1,2025-02-19_11h19.32.835,comp,2024.2.4,55.90161815058223,2025-02-19 11h20.14.048737 -0500,
98,98,0,critical,dwh,20.0,2.1,upper,141.0,141.0,125.0,200.0,200.0,125.0,3,2.2102465629577637,None,,,,,0,0,0,0,0,98,98,7,291.50743222236633,,,,,,,,,,,,,,,,,,,,,,,,,,,,,,,,,,,,,,,,,,,,,,,,,,,,,,,,,,,,,,,,,,,,,,,,,,,,,,,,,141.0,141.0,125.0,200.0,200.0,125.0,2.1,2.11,-266,258,0,267,258,-262,291.4908323287964,291.4909636974335,291.4942846298218,291.50743222236633,291.6541209220886,291.6541209220886,291.6541209220886,291.6541209220886,291.6541209220886,291.6541209220886,291.6541209220886,293.7234528064728,3,2.2102465629577637,None,,,,,,,,,,,,,,,,,,32,1,2025-02-19_11h19.32.835,comp,2024.2.4,55.90161815058223,2025-02-19 11h20.14.048737 -0500,
99,99,0,filler_square,None,None,None,None,None,None,None,None,None,None,2,0.978036642074585,None,,,,,0,0,0,0,0,99,99,189,293.73938155174255,,,,,,,,,,,,,,,,,,,,,,,,,,,,,,,,,,,,,,,,,,,,,,,,,,,,,,,,,,,,,,,,,,,,,,,,,,,,,,,,,106.09437652290408,106.72225612580466,137.9513883110123,137.9513883110123,103.7330365469279,79.30859170799542,3.0,3.1,-218,273,0,-19,205,-286,293.7255449295044,293.7256269454956,293.72866773605347,293.73938155174255,293.8881685733795,293.8881685733795,293.8881685733795,293.8881685733795,293.8881685733795,293.8881685733795,293.8881685733795,294.7216408252716,2,0.978036642074585,None,,,,,,,,,,,,,,,,,,32,1,2025-02-19_11h19.32.835,comp,2024.2.4,55.90161815058223,2025-02-19 11h20.14.048737 -0500,
100,100,0,filler_random,None,None,None,None,None,None,None,None,None,None,3,0.9807908535003662,None,,,,,0,0,0,0,0,100,100,130,294.7374405860901,,,,,,,,,,,,,,,,,,,,,,,,,,,,,,,,,,,,,,,,,,,,,,,,,,,,,,,,,,,,,,,,,,,,,,,,,,,,,,,,,90.59744359261634,106.58991749704023,169.0748486764051,83.20006542897228,196.27287379096813,178.42042812269653,4.0,4.2,-191,4,0,-288,227,-16,294.72332739830017,294.7234058380127,294.7268624305725,294.7374405860901,294.8905379772186,294.8905379772186,294.8905379772186,294.8905379772186,294.8905379772186,294.8905379772186,294.8905379772186,295.72341895103455,3,0.9807908535003662,None,,,,,,,,,,,,,,,,,,32,1,2025-02-19_11h19.32.835,comp,2024.2.4,55.90161815058223,2025-02-19 11h20.14.048737 -0500,
101,101,0,filler_random,None,None,None,None,None,None,None,None,None,None,3,1.9787750244140625,None,,,,,0,0,0,0,0,101,101,155,295.7392084598541,,,,,,,,,,,,,,,,,,,,,,,,,,,,,,,,,,,,,,,,,,,,,,,,,,,,,,,,,,,,,,,,,,,,,,,,,,,,,,,,,99.93724783963967,120.82189672943329,68.24643464188763,167.93455831762117,102.19512538447634,198.8026832622317,2.1,2.12,-240,-260,0,-267,279,256,295.7252354621887,295.7253623008728,295.7286112308502,295.7392084598541,295.8900406360626,295.8900406360626,295.8900406360626,295.8900406360626,295.8900406360626,295.8900406360626,295.8900406360626,297.72658252716064,3,1.9787750244140625,None,,,,,,,,,,,,,,,,,,32,1,2025-02-19_11h19.32.835,comp,2024.2.4,55.90161815058223,2025-02-19 11h20.14.048737 -0500,
102,102,0,critical,hdw,20.0,2.1,upper,200.0,125.0,141.0,141.0,125.0,200.0,1,1.3248980045318604,None,,,,,0,0,0,0,0,102,102,23,297.74505853652954,,,,,,,,,,,,,,,,,,,,,,,,,,,,,,,,,,,,,,,,,,,,,,,,,,,,,,,,,,,,,,,,,,,,,,,,,,,,,,,,,200.0,125.0,141.0,141.0,125.0,200.0,2.1,2.12,-229,-282,0,-274,266,273,297.7281975746155,297.72827553749084,297.73113894462585,297.74505853652954,297.88994693756104,297.88994693756104,297.88994693756104,297.88994693756104,297.88994693756104,297.88994693756104,297.88994693756104,299.0721127986908,1,1.3248980045318604,None,,,,,,,,,,,,,,,,,,32,1,2025-02-19_11h19.32.835,comp,2024.2.4,55.90161815058223,2025-02-19 11h20.14.048737 -0500,
103,103,0,filler_random,None,None,None,None,None,None,None,None,None,None,2,1.8854985237121582,None,,,,,0,0,0,0,0,103,103,133,299.0878863334656,,,,,,,,,,,,,,,,,,,,,,,,,,,,,,,,,,,,,,,,,,,,,,,,,,,,,,,,,,,,,,,,,,,,,,,,,,,,,,,,,95.99742261559624,122.72724793112688,80.8322743979844,134.28721612979052,124.53978062130028,73.14350180797659,2.2,2.21,-225,-255,0,270,200,252,299.0737159252167,299.07383275032043,299.07700061798096,299.0878863334656,299.23854517936707,299.23854517936707,299.23854517936707,299.23854517936707,299.23854517936707,299.23854517936707,299.23854517936707,300.98705792427063,2,1.8854985237121582,None,,,,,,,,,,,,,,,,,,32,1,2025-02-19_11h19.32.835,comp,2024.2.4,55.90161815058223,2025-02-19 11h20.14.048737 -0500,
104,104,0,critical,dwh,35.0,4.0,lower,70.0,70.0,57.0,133.0,133.0,57.0,2,1.7173619270324707,None,,,,,0,0,0,0,0,104,104,64,301.00799536705017,,,,,,,,,,,,,,,,,,,,,,,,,,,,,,,,,,,,,,,,,,,,,,,,,,,,,,,,,,,,,,,,,,,,,,,,,,,,,,,,,70.0,70.0,57.0,133.0,133.0,57.0,4.0,4.1,-198,-254,0,4,191,-256,300.9887053966522,300.98881101608276,300.9920959472656,301.00799536705017,301.14163732528687,301.14163732528687,301.14163732528687,301.14163732528687,301.14163732528687,301.14163732528687,301.14163732528687,302.74023151397705,2,1.7173619270324707,None,,,,,,,,,,,,,,,,,,32,1,2025-02-19_11h19.32.835,comp,2024.2.4,55.90161815058223,2025-02-19 11h20.14.048737 -0500,
105,105,0,critical,hdw,20.0,4.0,upper,200.0,125.0,141.0,141.0,125.0,200.0,3,3.8074071407318115,None,,,,,0,0,0,0,0,105,105,119,302.75864243507385,,,,,,,,,,,,,,,,,,,,,,,,,,,,,,,,,,,,,,,,,,,,,,,,,,,,,,,,,,,,,,,,,,,,,,,,,,,,,,,,,200.0,125.0,141.0,141.0,125.0,200.0,4.0,4.2,-229,5,0,-277,266,9,302.7418692111969,302.7419514656067,302.7452464103699,302.75864243507385,302.8958029747009,302.8958029747009,302.8958029747009,302.8958029747009,302.8958029747009,302.8958029747009,302.8958029747009,306.576052904129,3,3.8074071407318115,None,,,,,,,,,,,,,,,,,,32,1,2025-02-19_11h19.32.835,comp,2024.2.4,55.90161815058223,2025-02-19 11h20.14.048737 -0500,
106,106,0,critical,hdw,20.0,2.1,upper,200.0,125.0,141.0,141.0,125.0,200.0,1,1.4453155994415283,None,,,,,0,0,0,0,0,106,106,47,306.59248423576355,,,,,,,,,,,,,,,,,,,,,,,,,,,,,,,,,,,,,,,,,,,,,,,,,,,,,,,,,,,,,,,,,,,,,,,,,,,,,,,,,200.0,125.0,141.0,141.0,125.0,200.0,2.1,2.12,-229,-273,0,-253,266,288,306.5777428150177,306.57787680625916,306.58158588409424,306.59248423576355,306.7490768432617,306.7490768432617,306.7490768432617,306.7490768432617,306.7490768432617,306.7490768432617,306.7490768432617,308.0417892932892,1,1.4453155994415283,None,,,,,,,,,,,,,,,,,,32,1,2025-02-19_11h19.32.835,comp,2024.2.4,55.90161815058223,2025-02-19 11h20.14.048737 -0500,
107,107,0,critical,wdh,35.0,4.0,lower,57.0,133.0,70.0,70.0,133.0,57.0,1,2.183785915374756,None,,,,,0,0,0,0,0,107,107,76,308.06182646751404,,,,,,,,,,,,,,,,,,,,,,,,,,,,,,,,,,,,,,,,,,,,,,,,,,,,,,,,,,,,,,,,,,,,,,,,,,,,,,,,,57.0,133.0,70.0,70.0,133.0,57.0,4.0,4.2,-198,9,0,-289,160,-11,308.04338026046753,308.0434594154358,308.0470359325409,308.06182646751404,308.20857548713684,308.20857548713684,308.20857548713684,308.20857548713684,308.20857548713684,308.20857548713684,308.20857548713684,310.24937748908997,1,2.183785915374756,None,,,,,,,,,,,,,,,,,,32,1,2025-02-19_11h19.32.835,comp,2024.2.4,55.90161815058223,2025-02-19 11h20.14.048737 -0500,
108,108,0,filler_square,None,None,None,None,None,None,None,None,None,None,3,1.689488172531128,None,,,,,0,0,0,0,0,108,108,174,310.268070936203,,,,,,,,,,,,,,,,,,,,,,,,,,,,,,,,,,,,,,,,,,,,,,,,,,,,,,,,,,,,,,,,,,,,,,,,,,,,,,,,,108.92312655426633,143.54841255721396,86.3409792191905,64.36916016387622,166.53762127115277,166.53762127115277,4.0,4.2,-200,1,0,-261,211,2,310.2512195110321,310.25134897232056,310.25450372695923,310.268070936203,310.41181540489197,310.41181540489197,310.41181540489197,310.41181540489197,310.41181540489197,310.41181540489197,310.41181540489197,311.9609956741333,3,1.689488172531128,None,,,,,,,,,,,,,,,,,,32,1,2025-02-19_11h19.32.835,comp,2024.2.4,55.90161815058223,2025-02-19 11h20.14.048737 -0500,
109,109,0,critical,wdh,20.0,3.0,lower,57.0,133.0,78.0,78.0,133.0,57.0,1,1.8287327289581299,None,,,,,0,0,0,0,0,109,109,80,311.9771041870117,,,,,,,,,,,,,,,,,,,,,,,,,,,,,,,,,,,,,,,,,,,,,,,,,,,,,,,,,,,,,,,,,,,,,,,,,,,,,,,,,57.0,133.0,78.0,78.0,133.0,57.0,3.0,3.1,-202,267,0,8,164,-271,311.9625334739685,311.9626135826111,311.9656660556793,311.9771041870117,312.12888073921204,312.12888073921204,312.12888073921204,312.12888073921204,312.12888073921204,312.12888073921204,312.12888073921204,313.80823493003845,1,1.8287327289581299,None,,,,,,,,,,,,,,,,,,32,1,2025-02-19_11h19.32.835,comp,2024.2.4,55.90161815058223,2025-02-19 11h20.14.048737 -0500,
110,110,0,filler_square,None,None,None,None,None,None,None,None,None,None,3,1.6205015182495117,None,,,,,0,0,0,0,0,110,110,193,313.8249406814575,,,,,,,,,,,,,,,,,,,,,,,,,,,,,,,,,,,,,,,,,,,,,,,,,,,,,,,,,,,,,,,,,,,,,,,,,,,,,,,,,102.55565492309631,97.6483783588597,91.83127604098672,96.46543950967944,103.9099939218737,103.9099939218737,4.0,4.2,-193,18,0,-258,196,-9,313.8102345466614,313.8103401660919,313.813508272171,313.8249406814575,313.97786474227905,313.97786474227905,313.97786474227905,313.97786474227905,313.97786474227905,313.97786474227905,313.97786474227905,315.4634258747101,3,1.6205015182495117,None,,,,,,,,,,,,,,,,,,32,1,2025-02-19_11h19.32.835,comp,2024.2.4,55.90161815058223,2025-02-19 11h20.14.048737 -0500,
111,111,0,critical,dwh,35.0,1.0,upper,127.0,127.0,125.0,200.0,200.0,125.0,2,2.033867359161377,None,,,,,0,0,0,0,0,111,111,61,315.48426151275635,,,,,,,,,,,,,,,,,,,,,,,,,,,,,,,,,,,,,,,,,,,,,,,,,,,,,,,,,,,,,,,,,,,,,,,,,,,,,,,,,127.0,127.0,125.0,200.0,200.0,125.0,1.0,1.1,-740,287,-480,271,-222,275,315.4651577472687,315.4652314186096,315.4689767360687,315.48426151275635,315.63110065460205,315.63110065460205,315.63110065460205,315.63110065460205,315.63110065460205,315.63110065460205,315.63110065460205,317.5360817909241,2,2.033867359161377,None,,,,,,,,,,,,,,,,,,32,1,2025-02-19_11h19.32.835,comp,2024.2.4,55.90161815058223,2025-02-19 11h20.14.048737 -0500,
112,112,0,filler_square,None,None,None,None,None,None,None,None,None,None,1,1.454948902130127,None,,,,,0,0,0,0,0,112,112,202,317.55194783210754,,,,,,,,,,,,,,,,,,,,,,,,,,,,,,,,,,,,,,,,,,,,,,,,,,,,,,,,,,,,,,,,,,,,,,,,,,,,,,,,,150.4660582171731,150.4660582171731,127.15706914978122,118.2331769369265,77.85182152909591,127.91335912317055,1.0,1.2,-230,-19,0,-5,219,-7,317.537894487381,317.53797340393066,317.540810585022,317.55194783210754,317.7001268863678,317.7001268863678,317.7001268863678,317.7001268863678,317.7001268863678,317.7001268863678,317.7001268863678,319.01268339157104,1,1.454948902130127,None,,,,,,,,,,,,,,,,,,32,1,2025-02-19_11h19.32.835,comp,2024.2.4,55.90161815058223,2025-02-19 11h20.14.048737 -0500,
113,113,0,critical,whd,20.0,3.0,upper,125.0,200.0,200.0,125.0,141.0,141.0,1,2.778709650039673,None,,,,,0,0,0,0,0,113,113,93,319.02894115448,,,,,,,,,,,,,,,,,,,,,,,,,,,,,,,,,,,,,,,,,,,,,,,,,,,,,,,,,,,,,,,,,,,,,,,,,,,,,,,,,125.0,200.0,200.0,125.0,141.0,141.0,3.0,3.2,-258,-273,0,6,229,275,319.01423025131226,319.014306306839,319.0172851085663,319.02894115448,319.17854499816895,319.17854499816895,319.17854499816895,319.17854499816895,319.17854499816895,319.17854499816895,319.17854499816895,321.814177274704,1,2.778709650039673,None,,,,,,,,,,,,,,,,,,32,1,2025-02-19_11h19.32.835,comp,2024.2.4,55.90161815058223,2025-02-19 11h20.14.048737 -0500,
114,114,0,critical,hwd,20.0,3.0,upper,200.0,125.0,125.0,200.0,141.0,141.0,2,1.21238112449646,None,,,,,0,0,0,0,0,114,114,105,321.8331480026245,,,,,,,,,,,,,,,,,,,,,,,,,,,,,,,,,,,,,,,,,,,,,,,,,,,,,,,,,,,,,,,,,,,,,,,,,,,,,,,,,200.0,125.0,125.0,200.0,141.0,141.0,3.0,3.1,-258,277,0,-12,266,-276,321.8157823085785,321.8158631324768,321.81922364234924,321.8331480026245,321.98087191581726,321.98087191581726,321.98087191581726,321.98087191581726,321.98087191581726,321.98087191581726,321.98087191581726,323.067346572876,2,1.21238112449646,None,,,,,,,,,,,,,,,,,,32,1,2025-02-19_11h19.32.835,comp,2024.2.4,55.90161815058223,2025-02-19 11h20.14.048737 -0500,
115,115,0,filler_square,None,None,None,None,None,None,None,None,None,None,2,0.9674711227416992,None,,,,,0,0,0,0,0,115,115,177,323.0865287780762,,,,,,,,,,,,,,,,,,,,,,,,,,,,,,,,,,,,,,,,,,,,,,,,,,,,,,,,,,,,,,,,,,,,,,,,,,,,,,,,,59.00321695416498,64.75901477227036,187.71819114918236,187.71819114918236,108.40258436207623,67.43070369426837,3.0,3.2,-222,-268,0,15,224,272,323.0692617893219,323.0693452358246,323.0729115009308,323.0865287780762,323.235591173172,323.235591173172,323.235591173172,323.235591173172,323.235591173172,323.235591173172,323.235591173172,324.0645942687988,2,0.9674711227416992,None,,,,,,,,,,,,,,,,,,32,1,2025-02-19_11h19.32.835,comp,2024.2.4,55.90161815058223,2025-02-19 11h20.14.048737 -0500,
116,116,0,critical,hdw,20.0,4.0,lower,133.0,57.0,78.0,78.0,57.0,133.0,3,2.797203540802002,None,,,,,0,0,0,0,0,116,116,118,324.08067059516907,,,,,,,,,,,,,,,,,,,,,,,,,,,,,,,,,,,,,,,,,,,,,,,,,,,,,,,,,,,,,,,,,,,,,,,,,,,,,,,,,133.0,57.0,78.0,78.0,57.0,133.0,4.0,4.2,-164,9,0,-270,202,11,324.0661919116974,324.0662693977356,324.069810628891,324.08067059516907,324.2358684539795,324.2358684539795,324.2358684539795,324.2358684539795,324.2358684539795,324.2358684539795,324.2358684539795,326.8818633556366,3,2.797203540802002,None,,,,,,,,,,,,,,,,,,32,1,2025-02-19_11h19.32.835,comp,2024.2.4,55.90161815058223,2025-02-19 11h20.14.048737 -0500,
117,117,0,critical,whd,35.0,4.0,lower,57.0,133.0,133.0,57.0,70.0,70.0,1,1.2353501319885254,None,,,,,0,0,0,0,0,117,117,88,326.8981041908264,,,,,,,,,,,,,,,,,,,,,,,,,,,,,,,,,,,,,,,,,,,,,,,,,,,,,,,,,,,,,,,,,,,,,,,,,,,,,,,,,57.0,133.0,133.0,57.0,70.0,70.0,4.0,4.1,-191,-288,0,-17,160,-258,326.8834855556488,326.88359451293945,326.8871479034424,326.8981041908264,327.0489766597748,327.0489766597748,327.0489766597748,327.0489766597748,327.0489766597748,327.0489766597748,327.0489766597748,328.1482081413269,1,1.2353501319885254,None,,,,,,,,,,,,,,,,,,32,1,2025-02-19_11h19.32.835,comp,2024.2.4,55.90161815058223,2025-02-19 11h20.14.048737 -0500,
118,118,0,filler_square,None,None,None,None,None,None,None,None,None,None,2,1.5202207565307617,None,,,,,0,0,0,0,0,118,118,179,328.16530776023865,,,,,,,,,,,,,,,,,,,,,,,,,,,,,,,,,,,,,,,,,,,,,,,,,,,,,,,,,,,,,,,,,,,,,,,,,,,,,,,,,70.27467700524576,69.5714845984562,82.6455172910189,82.6455172910189,80.82552893126967,65.12154396446873,2.1,2.11,-172,270,0,288,170,-250,328.15001487731934,328.1500918865204,328.1529426574707,328.16530776023865,328.31732988357544,328.31732988357544,328.31732988357544,328.31732988357544,328.31732988357544,328.31732988357544,328.31732988357544,329.7055912017822,2,1.5202207565307617,None,,,,,,,,,,,,,,,,,,32,1,2025-02-19_11h19.32.835,comp,2024.2.4,55.90161815058223,2025-02-19 11h20.14.048737 -0500,
119,119,0,critical,hdw,20.0,2.1,lower,133.0,57.0,78.0,78.0,57.0,133.0,3,2.4800353050231934,None,,,,,0,0,0,0,0,119,119,46,329.7253909111023,,,,,,,,,,,,,,,,,,,,,,,,,,,,,,,,,,,,,,,,,,,,,,,,,,,,,,,,,,,,,,,,,,,,,,,,,,,,,,,,,133.0,57.0,78.0,78.0,57.0,133.0,2.1,2.11,-164,252,0,268,202,-273,329.70713782310486,329.70721435546875,329.71015095710754,329.7253909111023,329.86785793304443,329.86785793304443,329.86785793304443,329.86785793304443,329.86785793304443,329.86785793304443,329.86785793304443,332.21955132484436,3,2.4800353050231934,None,,,,,,,,,,,,,,,,,,32,1,2025-02-19_11h19.32.835,comp,2024.2.4,55.90161815058223,2025-02-19 11h20.14.048737 -0500,
120,120,0,catch,None,None,None,None,None,None,None,None,None,None,2,0.8956120014190674,None,,,,,0,0,0,0,0,120,120,128,332.2385289669037,,,,,,,,,,,,,,,,,,,,,,,,,,,,,,,,,,,,,,,,,,,,,,,,,,,,,,,,,,,,,,,,,,,,,,,,,,,,,,,,,131,59,198,127,93,97,3.0,3.2,-189,-274,0,-3,208,282,332.22194051742554,332.22207713127136,332.2249324321747,332.2385289669037,332.3870494365692,332.3870494365692,332.3870494365692,332.3870494365692,332.3870494365692,332.3870494365692,332.3870494365692,333.14060401916504,2,0.8956120014190674,None,,,,,,,,,,,,,,,,,,32,1,2025-02-19_11h19.32.835,comp,2024.2.4,55.90161815058223,2025-02-19 11h20.14.048737 -0500,
121,121,0,filler_square,None,None,None,None,None,None,None,None,None,None,1,3.0413928031921387,None,,,,,0,0,0,0,0,121,121,184,333.1559889316559,,,,,,,,,,,,,,,,,,,,,,,,,,,,,,,,,,,,,,,,,,,,,,,,,,,,,,,,,,,,,,,,,,,,,,,,,,,,,,,,,151.94136481639364,151.94136481639364,120.5010527756943,106.00642993764518,151.65499383473693,108.06707016616795,1.0,1.3,255,-276,480,-288,683,-250,333.1423830986023,333.1424605846405,333.1453149318695,333.1559889316559,333.3014323711395,333.3014323711395,333.3014323711395,333.3014323711395,333.3014323711395,333.3014323711395,333.3014323711395,336.2013704776764,1,3.0413928031921387,None,,,,,,,,,,,,,,,,,,32,1,2025-02-19_11h19.32.835,comp,2024.2.4,55.90161815058223,2025-02-19 11h20.14.048737 -0500,
122,122,0,catch,None,None,None,None,None,None,None,None,None,None,3,0.9168071746826172,None,,,,,0,0,0,0,0,122,122,122,336.21689915657043,,,,,,,,,,,,,,,,,,,,,,,,,,,,,,,,,,,,,,,,,,,,,,,,,,,,,,,,,,,,,,,,,,,,,,,,,,,,,,,,,113,77,126,64,138,187,2.1,2.12,-166,-257,0,-258,222,257,336.20350790023804,336.2035892009735,336.2071919441223,336.21689915657043,336.36690950393677,336.36690950393677,336.36690950393677,336.36690950393677,336.36690950393677,336.36690950393677,336.36690950393677,337.15165066719055,3,0.9168071746826172,None,,,,,,,,,,,,,,,,,,32,1,2025-02-19_11h19.32.835,comp,2024.2.4,55.90161815058223,2025-02-19 11h20.14.048737 -0500,
123,123,0,filler_square,None,None,None,None,None,None,None,None,None,None,2,1.2142622470855713,None,,,,,0,0,0,0,0,123,123,208,337.1671998500824,,,,,,,,,,,,,,,,,,,,,,,,,,,,,,,,,,,,,,,,,,,,,,,,,,,,,,,,,,,,,,,,,,,,,,,,,,,,,,,,,80.58288639305259,67.99126503609615,93.90089242992865,93.90089242992865,81.07444654390545,66.13425958170026,3.0,3.1,-177,283,0,-5,176,-259,337.15343475341797,337.15351033210754,337.15694212913513,337.1671998500824,337.31923937797546,337.31923937797546,337.31923937797546,337.31923937797546,337.31923937797546,337.31923937797546,337.31923937797546,338.3853521347046,2,1.2142622470855713,None,,,,,,,,,,,,,,,,,,32,1,2025-02-19_11h19.32.835,comp,2024.2.4,55.90161815058223,2025-02-19 11h20.14.048737 -0500,
124,124,0,filler_square,None,None,None,None,None,None,None,None,None,None,2,1.3482167720794678,None,,,,,0,0,0,0,0,124,124,185,338.4019455909729,,,,,,,,,,,,,,,,,,,,,,,,,,,,,,,,,,,,,,,,,,,,,,,,,,,,,,,,,,,,,,,,,,,,,,,,,,,,,,,,,70.20194060997821,60.988988443334804,77.67514581885763,77.67514581885763,61.49024129855314,74.5908560587878,1.0,1.3,315,-283,480,-284,652,-283,338.38740944862366,338.3874897956848,338.3910331726074,338.4019455909729,338.5398995876312,338.5398995876312,338.5398995876312,338.5398995876312,338.5398995876312,338.5398995876312,338.5398995876312,339.75398874282837,2,1.3482167720794678,None,,,,,,,,,,,,,,,,,,32,1,2025-02-19_11h19.32.835,comp,2024.2.4,55.90161815058223,2025-02-19 11h20.14.048737 -0500,
125,125,0,critical,hdw,35.0,4.0,upper,200.0,125.0,127.0,127.0,125.0,200.0,3,1.5956840515136719,None,,,,,0,0,0,0,0,125,125,113,339.7697775363922,,,,,,,,,,,,,,,,,,,,,,,,,,,,,,,,,,,,,,,,,,,,,,,,,,,,,,,,,,,,,,,,,,,,,,,,,,,,,,,,,200.0,125.0,127.0,127.0,125.0,200.0,4.0,4.1,-222,-268,0,-18,260,-278,339.7556314468384,339.75570821762085,339.75899481773376,339.7697775363922,339.9174222946167,339.9174222946167,339.9174222946167,339.9174222946167,339.9174222946167,339.9174222946167,339.9174222946167,341.3823425769806,3,1.5956840515136719,None,,,,,,,,,,,,,,,,,,32,1,2025-02-19_11h19.32.835,comp,2024.2.4,55.90161815058223,2025-02-19 11h20.14.048737 -0500,
126,126,0,critical,hdw,20.0,1.0,lower,133.0,57.0,78.0,78.0,57.0,133.0,3,2.223630666732788,None,,,,,0,0,0,0,0,126,126,114,341.3978292942047,,,,,,,,,,,,,,,,,,,,,,,,,,,,,,,,,,,,,,,,,,,,,,,,,,,,,,,,,,,,,,,,,,,,,,,,,,,,,,,,,133.0,57.0,78.0,78.0,57.0,133.0,1.0,1.3,316,-279,480,-264,682,-283,341.3838701248169,341.38394951820374,341.38681864738464,341.3978292942047,341.54385900497437,341.54385900497437,341.54385900497437,341.54385900497437,341.54385900497437,341.54385900497437,341.54385900497437,343.6383819580078,3,2.223630666732788,None,,,,,,,,,,,,,,,,,,32,1,2025-02-19_11h19.32.835,comp,2024.2.4,55.90161815058223,2025-02-19 11h20.14.048737 -0500,
127,127,0,critical,wdh,35.0,1.0,upper,125.0,200.0,127.0,127.0,200.0,125.0,1,1.6396634578704834,None,,,,,0,0,0,0,0,127,127,73,343.65433645248413,,,,,,,,,,,,,,,,,,,,,,,,,,,,,,,,,,,,,,,,,,,,,,,,,,,,,,,,,,,,,,,,,,,,,,,,,,,,,,,,,125.0,200.0,127.0,127.0,200.0,125.0,1.0,1.2,-260,17,0,6,222,-7,343.63995003700256,343.6400783061981,343.64403891563416,343.65433645248413,343.80425453186035,343.80425453186035,343.80425453186035,343.80425453186035,343.80425453186035,343.80425453186035,343.80425453186035,345.30376172065735,1,1.6396634578704834,None,,,,,,,,,,,,,,,,,,32,1,2025-02-19_11h19.32.835,comp,2024.2.4,55.90161815058223,2025-02-19 11h20.14.048737 -0500,
128,128,0,filler_random,None,None,None,None,None,None,None,None,None,None,2,0.9502089023590088,None,,,,,0,0,0,0,0,128,128,162,345.31935572624207,,,,,,,,,,,,,,,,,,,,,,,,,,,,,,,,,,,,,,,,,,,,,,,,,,,,,,,,,,,,,,,,,,,,,,,,,,,,,,,,,75.418349359079,104.05598051939356,106.61394526291804,162.66099993941333,176.99961264814567,61.65230665393848,4.0,4.2,-229,11,0,-270,208,20,345.3044641017914,345.30449414253235,345.3056766986847,345.31935572624207,345.47110962867737,345.47110962867737,345.47110962867737,345.47110962867737,345.47110962867737,345.47110962867737,345.47110962867737,346.27116107940674,2,0.9502089023590088,None,,,,,,,,,,,,,,,,,,32,1,2025-02-19_11h19.32.835,comp,2024.2.4,55.90161815058223,2025-02-19 11h20.14.048737 -0500,
129,129,0,critical,whd,35.0,1.0,upper,125.0,200.0,200.0,125.0,127.0,127.0,1,2.1450185775756836,None,,,,,0,0,0,0,0,129,129,85,346.2868595123291,,,,,,,,,,,,,,,,,,,,,,,,,,,,,,,,,,,,,,,,,,,,,,,,,,,,,,,,,,,,,,,,,,,,,,,,,,,,,,,,,125.0,200.0,200.0,125.0,127.0,127.0,1.0,1.1,-738,279,-480,261,-258,254,346.2715861797333,346.2716054916382,346.272353887558,346.2868595123291,346.4368143081665,346.4368143081665,346.4368143081665,346.4368143081665,346.4368143081665,346.4368143081665,346.4368143081665,348.4377748966217,1,2.1450185775756836,None,,,,,,,,,,,,,,,,,,32,1,2025-02-19_11h19.32.835,comp,2024.2.4,55.90161815058223,2025-02-19 11h20.14.048737 -0500,
130,130,0,critical,dhw,20.0,3.0,upper,141.0,141.0,200.0,125.0,125.0,200.0,3,1.528132677078247,None,,,,,0,0,0,0,0,130,130,57,348.45357394218445,,,,,,,,,,,,,,,,,,,,,,,,,,,,,,,,,,,,,,,,,,,,,,,,,,,,,,,,,,,,,,,,,,,,,,,,,,,,,,,,,141.0,141.0,200.0,125.0,125.0,200.0,3.0,3.1,-229,277,0,14,258,-273,348.43935990333557,348.43944787979126,348.4427137374878,348.45357394218445,348.60636043548584,348.60636043548584,348.60636043548584,348.60636043548584,348.60636043548584,348.60636043548584,348.60636043548584,349.9972674846649,3,1.528132677078247,None,,,,,,,,,,,,,,,,,,32,1,2025-02-19_11h19.32.835,comp,2024.2.4,55.90161815058223,2025-02-19 11h20.14.048737 -0500,
131,131,0,critical,hwd,20.0,2.1,upper,200.0,125.0,125.0,200.0,141.0,141.0,2,2.3736300468444824,None,,,,,0,0,0,0,0,131,131,19,350.01653933525085,,,,,,,,,,,,,,,,,,,,,,,,,,,,,,,,,,,,,,,,,,,,,,,,,,,,,,,,,,,,,,,,,,,,,,,,,,,,,,,,,200.0,125.0,125.0,200.0,141.0,141.0,2.1,2.11,-258,261,0,280,266,-278,349.99882102012634,349.99889874458313,350.0017397403717,350.01653933525085,350.15261340141296,350.15261340141296,350.15261340141296,350.15261340141296,350.15261340141296,350.15261340141296,350.15261340141296,352.3961169719696,2,2.3736300468444824,None,,,,,,,,,,,,,,,,,,32,1,2025-02-19_11h19.32.835,comp,2024.2.4,55.90161815058223,2025-02-19 11h20.14.048737 -0500,
132,132,0,critical,hwd,20.0,1.0,lower,133.0,57.0,57.0,133.0,78.0,78.0,2,4.842535495758057,None,,,,,0,0,0,0,0,132,132,102,352.411860704422,,,,,,,,,,,,,,,,,,,,,,,,,,,,,,,,,,,,,,,,,,,,,,,,,,,,,,,,,,,,,,,,,,,,,,,,,,,,,,,,,133.0,57.0,57.0,133.0,78.0,78.0,1.0,1.1,-671,271,-480,257,-278,253,352.39760732650757,352.3976881504059,352.40056228637695,352.411860704422,352.55702328681946,352.55702328681946,352.55702328681946,352.55702328681946,352.55702328681946,352.55702328681946,352.55702328681946,357.2613959312439,2,4.842535495758057,None,,,,,,,,,,,,,,,,,,32,1,2025-02-19_11h19.32.835,comp,2024.2.4,55.90161815058223,2025-02-19 11h20.14.048737 -0500,
133,133,0,filler_square,None,None,None,None,None,None,None,None,None,None,2,1.198021650314331,None,,,,,0,0,0,0,0,133,133,201,357.27952766418457,,,,,,,,,,,,,,,,,,,,,,,,,,,,,,,,,,,,,,,,,,,,,,,,,,,,,,,,,,,,,,,,,,,,,,,,,,,,,,,,,115.69832260498777,142.5016834412857,178.47593171345545,178.47593171345545,136.33659431981,113.87255229197633,2.2,2.22,-256,260,0,-250,242,-266,357.2633674144745,357.2634506225586,357.2663462162018,357.27952766418457,357.42559599876404,357.42559599876404,357.42559599876404,357.42559599876404,357.42559599876404,357.42559599876404,357.42559599876404,358.4916055202484,2,1.198021650314331,None,,,,,,,,,,,,,,,,,,32,1,2025-02-19_11h19.32.835,comp,2024.2.4,55.90161815058223,2025-02-19 11h20.14.048737 -0500,
134,134,0,filler_random,None,None,None,None,None,None,None,None,None,None,2,5.058635711669922,None,,,,,0,0,0,0,0,134,134,150,358.5070044994354,,,,,,,,,,,,,,,,,,,,,,,,,,,,,,,,,,,,,,,,,,,,,,,,,,,,,,,,,,,,,,,,,,,,,,,,,,,,,,,,,65.09846385313375,64.47261209274924,127.74996021574738,65.17041733064596,60.464123997539694,77.30654533232521,2.1,2.12,-161,-287,0,-255,167,269,358.4932427406311,358.49331760406494,358.4966106414795,358.5070044994354,358.65597224235535,358.65597224235535,358.65597224235535,358.65597224235535,358.65597224235535,358.65597224235535,358.65597224235535,363.5758583545685,2,5.058635711669922,None,,,,,,,,,,,,,,,,,,32,1,2025-02-19_11h19.32.835,comp,2024.2.4,55.90161815058223,2025-02-19 11h20.14.048737 -0500,
135,135,0,filler_square,None,None,None,None,None,None,None,None,None,None,1,1.0370521545410156,None,,,,,0,0,0,0,0,135,135,186,363.5925052165985,,,,,,,,,,,,,,,,,,,,,,,,,,,,,,,,,,,,,,,,,,,,,,,,,,,,,,,,,,,,,,,,,,,,,,,,,,,,,,,,,184.12260009072753,173.73038686402333,185.24360986776136,185.24360986776136,101.75850525942522,72.89011979577519,1.0,1.2,-275,-10,0,-11,225,-17,363.5775706768036,363.57765007019043,363.580691576004,363.5925052165985,363.74967098236084,363.74967098236084,363.74967098236084,363.74967098236084,363.74967098236084,363.74967098236084,363.74967098236084,364.64370489120483,1,1.0370521545410156,None,,,,,,,,,,,,,,,,,,32,1,2025-02-19_11h19.32.835,comp,2024.2.4,55.90161815058223,2025-02-19 11h20.14.048737 -0500,
136,136,0,critical,hwd,20.0,2.1,lower,133.0,57.0,57.0,133.0,78.0,78.0,2,5.002546548843384,None,,,,,0,0,0,0,0,136,136,42,364.65904664993286,,,,,,,,,,,,,,,,,,,,,,,,,,,,,,,,,,,,,,,,,,,,,,,,,,,,,,,,,,,,,,,,,,,,,,,,,,,,,,,,,133.0,57.0,57.0,133.0,78.0,78.0,2.1,2.12,-191,-290,0,-258,202,281,364.64524149894714,364.6453185081482,364.6486873626709,364.65904664993286,364.8112223148346,364.8112223148346,364.8112223148346,364.8112223148346,364.8112223148346,364.8112223148346,364.8112223148346,369.677930355072,2,5.002546548843384,None,,,,,,,,,,,,,,,,,,32,1,2025-02-19_11h19.32.835,comp,2024.2.4,55.90161815058223,2025-02-19 11h20.14.048737 -0500,
137,137,0,critical,wdh,20.0,4.0,lower,57.0,133.0,78.0,78.0,133.0,57.0,2,3.1035656929016113,None,,,,,0,0,0,0,0,137,137,82,369.69403553009033,,,,,,,,,,,,,,,,,,,,,,,,,,,,,,,,,,,,,,,,,,,,,,,,,,,,,,,,,,,,,,,,,,,,,,,,,,,,,,,,,57.0,133.0,78.0,78.0,133.0,57.0,4.0,4.1,-202,-264,0,14,164,-275,369.6794741153717,369.67954993247986,369.68267130851746,369.69403553009033,369.84497332572937,369.84497332572937,369.84497332572937,369.84497332572937,369.84497332572937,369.84497332572937,369.84497332572937,372.8132538795471,2,3.1035656929016113,None,,,,,,,,,,,,,,,,,,32,1,2025-02-19_11h19.32.835,comp,2024.2.4,55.90161815058223,2025-02-19 11h20.14.048737 -0500,
138,138,0,filler_random,None,None,None,None,None,None,None,None,None,None,2,1.3612239360809326,None,,,,,0,0,0,0,0,138,138,159,372.8291766643524,,,,,,,,,,,,,,,,,,,,,,,,,,,,,,,,,,,,,,,,,,,,,,,,,,,,,,,,,,,,,,,,,,,,,,,,,,,,,,,,,140.4046995929777,85.07898562398961,73.30896523324155,116.65903549461856,146.65806584402344,72.20364537828857,4.0,4.1,-197,-272,0,-11,190,-274,372.8150451183319,372.81512236595154,372.8186113834381,372.8291766643524,372.97780537605286,372.97780537605286,372.97780537605286,372.97780537605286,372.97780537605286,372.97780537605286,372.97780537605286,374.1966919898987,2,1.3612239360809326,None,,,,,,,,,,,,,,,,,,32,1,2025-02-19_11h19.32.835,comp,2024.2.4,55.90161815058223,2025-02-19 11h20.14.048737 -0500,
139,139,0,critical,hdw,20.0,2.1,lower,133.0,57.0,78.0,78.0,57.0,133.0,3,1.6815299987792969,None,,,,,0,0,0,0,0,139,139,22,374.212628364563,,,,,,,,,,,,,,,,,,,,,,,,,,,,,,,,,,,,,,,,,,,,,,,,,,,,,,,,,,,,,,,,,,,,,,,,,,,,,,,,,133.0,57.0,78.0,78.0,57.0,133.0,2.1,2.12,-164,-281,0,-255,202,273,374.1983835697174,374.1985197067261,374.20193314552307,374.212628364563,374.36307883262634,374.36307883262634,374.36307883262634,374.36307883262634,374.36307883262634,374.36307883262634,374.36307883262634,375.9121015071869,3,1.6815299987792969,None,,,,,,,,,,,,,,,,,,32,1,2025-02-19_11h19.32.835,comp,2024.2.4,55.90161815058223,2025-02-19 11h20.14.048737 -0500,
140,140,0,critical,hdw,35.0,2.1,lower,133.0,57.0,70.0,70.0,57.0,133.0,3,1.8705613613128662,None,,,,,0,0,0,0,0,140,140,44,375.9269378185272,,,,,,,,,,,,,,,,,,,,,,,,,,,,,,,,,,,,,,,,,,,,,,,,,,,,,,,,,,,,,,,,,,,,,,,,,,,,,,,,,133.0,57.0,70.0,70.0,57.0,133.0,2.1,2.12,-160,-284,0,-273,198,284,375.9135067462921,375.9135808944702,375.91645669937134,375.9269378185272,376.08192896842957,376.08192896842957,376.08192896842957,376.08192896842957,376.08192896842957,376.08192896842957,376.08192896842957,377.8114848136902,3,1.8705613613128662,None,,,,,,,,,,,,,,,,,,32,1,2025-02-19_11h19.32.835,comp,2024.2.4,55.90161815058223,2025-02-19 11h20.14.048737 -0500,
