thisN,thisTrialN,thisRepN,effect,order,distance,config,diag,h_1,w_1,h_2,w_2,h_3,w_3,rect_choice.keys,rect_choice.rt,rect_choice.duration,instructions_loop.thisRepN,instructions_loop.thisTrialN,instructions_loop.thisN,instructions_loop.thisIndex,blocks.thisRepN,blocks.thisTrialN,blocks.thisN,blocks.thisIndex,trials.thisRepN,trials.thisTrialN,trials.thisN,trials.thisIndex,thisRow.t,notes,consent.started,agree_button.started,decline_button.started,consent_img.started,mouse.started,consent.stopped,agree_button.numClicks,agree_button.timesOn,agree_button.timesOff,decline_button.numClicks,decline_button.timesOn,decline_button.timesOff,mouse.x,mouse.y,mouse.leftButton,mouse.midButton,mouse.rightButton,mouse.time,mouse.clicked_name,exp_params.started,exp_params.stopped,welcome.started,welcome_text.started,welcome.stopped,instructions_1.started,instructions_1_text_1.started,instructions_1_text_2.started,key_resp.started,instructions_1.stopped,instructions_loop.key_resp.keys,instructions_loop.key_resp.rt,instructions_loop.key_resp.duration,instructions_2.started,instructions_2_text_1.started,instructions_2_text_2.started,key_resp_2.started,instructions_2.stopped,instructions_loop.key_resp_2.keys,instructions_loop.key_resp_2.rt,instructions_loop.key_resp_2.duration,instructions_3.started,instructions_3_text_1.started,r1_instr3.started,r2_instr3.started,r3_instr3.started,r1_instr3_label.started,r2_instr3_label.started,r3_instr3_label.started,instructions_3_text_3.started,instructions_3_text_4.started,key_resp_3.started,instructions_3.stopped,instructions_loop.key_resp_3.keys,instructions_loop.key_resp_3.rt,instructions_loop.key_resp_3.duration,instructions_4.started,instructions_4_text_1.started,instructions_4_text_3.started,instructions_4_text_2.started,key_resp_4.started,instructions_4.stopped,instructions_loop.key_resp_4.keys,instructions_loop.key_resp_4.rt,instructions_loop.key_resp_4.duration,instructions_5.started,instructions_5_text_1.started,instructions_5_text_2.started,key_resp_5.started,instructions_5.stopped,instructions_loop.key_resp_5.keys,instructions_loop.key_resp_5.rt,instructions_loop.key_resp_5.duration,start_exp.started,start_exp_text.started,key_resp_6.started,start_exp.stopped,key_resp_6.keys,key_resp_6.rt,key_resp_6.duration,h_1_tmp,w_1_tmp,h_2_tmp,w_2_tmp,h_3_tmp,w_3_tmp,config_tmp,config_tmp_1,r_1_x,r_1_y,r_2_x,r_2_y,r_3_x,r_3_y,pre_trial.started,pre_trial.stopped,choice_trial.started,rect_choice.started,r_1.started,r_2.started,r_3.started,r_1_label.started,r_2_label.started,r_3_label.started,prompt.started,choice_trial.stopped,trials.rect_choice.keys,trials.rect_choice.rt,trials.rect_choice.duration,end_block.started,end_block_text.started,end_block.stopped,end.started,end_text.started,key_resp_7.started,end.stopped,key_resp_7.keys,key_resp_7.rt,key_resp_7.duration,debriefing.started,debrief_form.started,end_debrief.started,debriefing.stopped,end_debrief.keys,end_debrief.rt,end_debrief.duration,participant,computer,date,expName,psychopyVersion,frameRate,expStart,
,,,,,,,,,,,,,,,,,,,,,,,,,,,,,,,0.014537811279296875,0.08157014846801758,0.08157014846801758,0.08157014846801758,0.014345169067382812,35.831342458724976,1,[35.747562408447266],[35.74758172035217],0,,,[-57.0],[-517.0],[1],[0],[0],[35.79747748374939],['agree_button'],,,,,,,,,,,,,,,,,,,,,,,,,,,,,,,,,,,,,,,,,,,,,,,,,,,,,,,,,,,,,,,,,,,,,,,,,,,,,,,,,,,,,,,,,,,,,,,,,,,,,,,,,,,33,2,2025-02-19_11h21.09.216,comp,2024.2.4,53.324179631232944,2025-02-19 11h21.29.659607 -0500,
,,,,,,,,,,,,,,,,,,,,,,,,,,,,,,,,,,,,,,,,,,,,,,,,,,35.83181405067444,35.8318727016449,,,,,,,,,,,,,,,,,,,,,,,,,,,,,,,,,,,,,,,,,,,,,,,,,,,,,,,,,,,,,,,,,,,,,,,,,,,,,,,,,,,,,,,,,,,,,,,,,,,,,,,,,33,2,2025-02-19_11h21.09.216,comp,2024.2.4,53.324179631232944,2025-02-19 11h21.29.659607 -0500,
,,,,,,,,,,,,,,,,,,,,,,,,,,,,,,,,,,,,,,,,,,,,,,,,,,,,35.83191108703613,35.847593545913696,37.83355116844177,,,,,,,,,,,,,,,,,,,,,,,,,,,,,,,,,,,,,,,,,,,,,,,,,,,,,,,,,,,,,,,,,,,,,,,,,,,,,,,,,,,,,,,,,,,,,,,,,,,,,,33,2,2025-02-19_11h21.09.216,comp,2024.2.4,53.324179631232944,2025-02-19 11h21.29.659607 -0500,
0,0,0,,,,,,,,,,,,,,,0,0,0,0,,,,,,,,,37.85420227050781,,,,,,,,,,,,,,,,,,,,,,,,,,37.83453822135925,37.85420227050781,37.85420227050781,39.333842277526855,42.60313081741333,space,3.252593517303467,None,42.603275775909424,42.616358041763306,42.616358041763306,44.10701584815979,48.504905462265015,space,4.391638517379761,None,48.5050573348999,48.545247077941895,48.545247077941895,48.545247077941895,48.545247077941895,48.545247077941895,48.545247077941895,48.545247077941895,48.545247077941895,48.545247077941895,50.00742697715759,53.95777678489685,space,3.9387760162353516,None,53.95793175697327,53.979758739471436,53.979758739471436,53.979758739471436,55.469945192337036,62.17547369003296,space,6.692315101623535,None,62.17565298080444,62.19126629829407,62.19126629829407,63.69010257720947,64.28439593315125,space,0.5759861469268799,None,64.28463006019592,64.29754710197449,64.29754710197449,65.35971808433533,space,1.0489051342010498,None,,,,,,,,,,,,,,,,,,,,,,,,,,,,,,,,,,,,,,,,,,,,,,,33,2,2025-02-19_11h21.09.216,comp,2024.2.4,53.324179631232944,2025-02-19 11h21.29.659607 -0500,
0,0,0,filler_square,None,None,None,None,None,None,None,None,None,None,3,3.6347060203552246,None,,,,,0,0,0,0,0,0,0,180,65.53586864471436,,,,,,,,,,,,,,,,,,,,,,,,,,,,,,,,,,,,,,,,,,,,,,,,,,,,,,,,,,,,,,,,,,,,,,,,,,,,,,,,,67.71415911069602,80.49174255658393,89.39917139536672,69.91045953519863,108.41565079144539,108.41565079144539,4.0,4.2,-171,13,0,-269,185,1,65.5176420211792,65.51772880554199,65.52040910720825,65.53586864471436,65.68508958816528,65.68508958816528,65.68508958816528,65.68508958816528,65.68508958816528,65.68508958816528,65.68508958816528,69.17665648460388,3,3.6347060203552246,None,,,,,,,,,,,,,,,,,,33,2,2025-02-19_11h21.09.216,comp,2024.2.4,53.324179631232944,2025-02-19 11h21.29.659607 -0500,
1,1,0,critical,hdw,35.0,2.1,upper,200.0,125.0,127.0,127.0,125.0,200.0,3,4.014447450637817,None,,,,,0,0,0,0,0,1,1,45,69.18949270248413,,,,,,,,,,,,,,,,,,,,,,,,,,,,,,,,,,,,,,,,,,,,,,,,,,,,,,,,,,,,,,,,,,,,,,,,,,,,,,,,,200.0,125.0,127.0,127.0,125.0,200.0,2.1,2.11,-222,282,0,289,260,-258,69.17708611488342,69.17710447311401,69.17797541618347,69.18949270248413,69.32814979553223,69.32814979553223,69.32814979553223,69.32814979553223,69.32814979553223,69.32814979553223,69.32814979553223,73.2113995552063,3,4.014447450637817,None,,,,,,,,,,,,,,,,,,33,2,2025-02-19_11h21.09.216,comp,2024.2.4,53.324179631232944,2025-02-19 11h21.29.659607 -0500,
2,2,0,critical,whd,35.0,3.0,lower,57.0,133.0,133.0,57.0,70.0,70.0,2,6.505716562271118,None,,,,,0,0,0,0,0,2,2,86,73.2324914932251,,,,,,,,,,,,,,,,,,,,,,,,,,,,,,,,,,,,,,,,,,,,,,,,,,,,,,,,,,,,,,,,,,,,,,,,,,,,,,,,,57.0,133.0,133.0,57.0,70.0,70.0,3.0,3.1,-191,264,0,-7,160,-261,73.21301245689392,73.2130856513977,73.21682476997375,73.2324914932251,73.37895035743713,73.37895035743713,73.37895035743713,73.37895035743713,73.37895035743713,73.37895035743713,73.37895035743713,79.74969172477722,2,6.505716562271118,None,,,,,,,,,,,,,,,,,,33,2,2025-02-19_11h21.09.216,comp,2024.2.4,53.324179631232944,2025-02-19 11h21.29.659607 -0500,
3,3,0,critical,wdh,35.0,4.0,lower,57.0,133.0,70.0,70.0,133.0,57.0,3,2.88392972946167,None,,,,,0,0,0,0,0,3,3,76,79.7663803100586,,,,,,,,,,,,,,,,,,,,,,,,,,,,,,,,,,,,,,,,,,,,,,,,,,,,,,,,,,,,,,,,,,,,,,,,,,,,,,,,,57.0,133.0,70.0,70.0,133.0,57.0,4.0,4.1,-198,-270,0,-3,160,-281,79.75123810768127,79.75131583213806,79.75473523139954,79.7663803100586,79.91459941864014,79.91459941864014,79.91459941864014,79.91459941864014,79.91459941864014,79.91459941864014,79.91459941864014,82.66568040847778,3,2.88392972946167,None,,,,,,,,,,,,,,,,,,33,2,2025-02-19_11h21.09.216,comp,2024.2.4,53.324179631232944,2025-02-19 11h21.29.659607 -0500,
4,4,0,critical,dwh,35.0,2.1,lower,70.0,70.0,57.0,133.0,133.0,57.0,3,2.8325037956237793,None,,,,,0,0,0,0,0,4,4,28,82.68230628967285,,,,,,,,,,,,,,,,,,,,,,,,,,,,,,,,,,,,,,,,,,,,,,,,,,,,,,,,,,,,,,,,,,,,,,,,,,,,,,,,,70.0,70.0,57.0,133.0,133.0,57.0,2.1,2.11,-198,251,0,287,191,-260,82.66712617874146,82.66720223426819,82.67153549194336,82.68230628967285,82.83275842666626,82.83275842666626,82.83275842666626,82.83275842666626,82.83275842666626,82.83275842666626,82.83275842666626,85.53280425071716,3,2.8325037956237793,None,,,,,,,,,,,,,,,,,,33,2,2025-02-19_11h21.09.216,comp,2024.2.4,53.324179631232944,2025-02-19 11h21.29.659607 -0500,
5,5,0,critical,wdh,35.0,2.1,lower,57.0,133.0,70.0,70.0,133.0,57.0,2,4.302030563354492,None,,,,,0,0,0,0,0,5,5,32,85.54861569404602,,,,,,,,,,,,,,,,,,,,,,,,,,,,,,,,,,,,,,,,,,,,,,,,,,,,,,,,,,,,,,,,,,,,,,,,,,,,,,,,,57.0,133.0,70.0,70.0,133.0,57.0,2.1,2.12,-198,-289,0,-254,160,288,85.53450345993042,85.53467082977295,85.53829860687256,85.54861569404602,85.70006012916565,85.70006012916565,85.70006012916565,85.70006012916565,85.70006012916565,85.70006012916565,85.70006012916565,89.85312700271606,2,4.302030563354492,None,,,,,,,,,,,,,,,,,,33,2,2025-02-19_11h21.09.216,comp,2024.2.4,53.324179631232944,2025-02-19 11h21.29.659607 -0500,
6,6,0,critical,whd,20.0,4.0,lower,57.0,133.0,133.0,57.0,78.0,78.0,3,1.8852694034576416,None,,,,,0,0,0,0,0,6,6,94,89.8690595626831,,,,,,,,,,,,,,,,,,,,,,,,,,,,,,,,,,,,,,,,,,,,,,,,,,,,,,,,,,,,,,,,,,,,,,,,,,,,,,,,,57.0,133.0,133.0,57.0,78.0,78.0,4.0,4.1,-191,-277,0,-17,164,-250,89.8548355102539,89.85491466522217,89.85837197303772,89.8690595626831,90.0176510810852,90.0176510810852,90.0176510810852,90.0176510810852,90.0176510810852,90.0176510810852,90.0176510810852,91.76540875434875,3,1.8852694034576416,None,,,,,,,,,,,,,,,,,,33,2,2025-02-19_11h21.09.216,comp,2024.2.4,53.324179631232944,2025-02-19 11h21.29.659607 -0500,
7,7,0,filler_random,None,None,None,None,None,None,None,None,None,None,1,2.9646971225738525,None,,,,,0,0,0,0,0,7,7,141,91.78230786323547,,,,,,,,,,,,,,,,,,,,,,,,,,,,,,,,,,,,,,,,,,,,,,,,,,,,,,,,,,,,,,,,,,,,,,,,,,,,,,,,,164.153448957919,143.70706198777765,90.42138305512765,125.53460348028095,182.703345516516,127.28790579471863,2.1,2.11,-231,255,0,275,222,-252,91.76727104187012,91.76740145683289,91.77093362808228,91.78230786323547,91.93960928916931,91.93960928916931,91.93960928916931,91.93960928916931,91.93960928916931,91.93960928916931,91.93960928916931,94.75538682937622,1,2.9646971225738525,None,,,,,,,,,,,,,,,,,,33,2,2025-02-19_11h21.09.216,comp,2024.2.4,53.324179631232944,2025-02-19 11h21.29.659607 -0500,
8,8,0,filler_square,None,None,None,None,None,None,None,None,None,None,3,2.5378541946411133,None,,,,,0,0,0,0,0,8,8,185,94.7771532535553,,,,,,,,,,,,,,,,,,,,,,,,,,,,,,,,,,,,,,,,,,,,,,,,,,,,,,,,,,,,,,,,,,,,,,,,,,,,,,,,,93.61695444556896,70.88080879290804,133.3849387692818,115.75388639961662,161.13867223014122,161.13867223014122,1.0,1.1,-669,252,-480,281,-246,282,94.75751113891602,94.75762820243835,94.76139163970947,94.7771532535553,94.92766737937927,94.92766737937927,94.92766737937927,94.92766737937927,94.92766737937927,94.92766737937927,94.92766737937927,97.31999492645264,3,2.5378541946411133,None,,,,,,,,,,,,,,,,,,33,2,2025-02-19_11h21.09.216,comp,2024.2.4,53.324179631232944,2025-02-19 11h21.29.659607 -0500,
9,9,0,catch,None,None,None,None,None,None,None,None,None,None,1,2.906496524810791,None,,,,,0,0,0,0,0,9,9,123,97.33724236488342,,,,,,,,,,,,,,,,,,,,,,,,,,,,,,,,,,,,,,,,,,,,,,,,,,,,,,,,,,,,,,,,,,,,,,,,,,,,,,,,,174,151,107,83,73,117,1.0,1.2,-213,16,0,-14,196,2,97.32223129272461,97.3223090171814,97.32653760910034,97.33724236488342,97.48774361610413,97.48774361610413,97.48774361610413,97.48774361610413,97.48774361610413,97.48774361610413,97.48774361610413,100.24580812454224,1,2.906496524810791,None,,,,,,,,,,,,,,,,,,33,2,2025-02-19_11h21.09.216,comp,2024.2.4,53.324179631232944,2025-02-19 11h21.29.659607 -0500,
10,10,0,filler_square,None,None,None,None,None,None,None,None,None,None,3,4.563126564025879,None,,,,,0,0,0,0,0,10,10,171,100.26316452026367,,,,,,,,,,,,,,,,,,,,,,,,,,,,,,,,,,,,,,,,,,,,,,,,,,,,,,,,,,,,,,,,,,,,,,,,,,,,,,,,,62.61611757840766,70.96319032224739,105.99031245016047,105.99031245016047,76.47699787070934,100.88638723408272,4.0,4.1,-184,-285,0,8,199,-262,100.24769711494446,100.24781274795532,100.25136947631836,100.26316452026367,100.40380525588989,100.40380525588989,100.40380525588989,100.40380525588989,100.40380525588989,100.40380525588989,100.40380525588989,104.83875823020935,3,4.563126564025879,None,,,,,,,,,,,,,,,,,,33,2,2025-02-19_11h21.09.216,comp,2024.2.4,53.324179631232944,2025-02-19 11h21.29.659607 -0500,
11,11,0,filler_square,None,None,None,None,None,None,None,None,None,None,2,1.6477952003479004,None,,,,,0,0,0,0,0,11,11,189,104.85900640487671,,,,,,,,,,,,,,,,,,,,,,,,,,,,,,,,,,,,,,,,,,,,,,,,,,,,,,,,,,,,,,,,,,,,,,,,,,,,,,,,,67.97617654537868,74.66480516305324,108.81272627006351,108.81272627006351,85.13292757754536,74.5836463185791,4.0,4.2,-188,-15,0,-262,188,-18,104.84040379524231,104.84048008918762,104.8439269065857,104.85900640487671,105.0066545009613,105.0066545009613,105.0066545009613,105.0066545009613,105.0066545009613,105.0066545009613,105.0066545009613,106.51566219329834,2,1.6477952003479004,None,,,,,,,,,,,,,,,,,,33,2,2025-02-19_11h21.09.216,comp,2024.2.4,53.324179631232944,2025-02-19 11h21.29.659607 -0500,
12,12,0,critical,dwh,35.0,2.1,lower,70.0,70.0,57.0,133.0,133.0,57.0,1,1.8663268089294434,None,,,,,0,0,0,0,0,12,12,4,106.53613758087158,,,,,,,,,,,,,,,,,,,,,,,,,,,,,,,,,,,,,,,,,,,,,,,,,,,,,,,,,,,,,,,,,,,,,,,,,,,,,,,,,70.0,70.0,57.0,133.0,133.0,57.0,2.1,2.12,-198,-277,0,-263,191,285,106.51723599433899,106.5173192024231,106.52059078216553,106.53613758087158,106.67394208908081,106.67394208908081,106.67394208908081,106.67394208908081,106.67394208908081,106.67394208908081,106.67394208908081,108.40675806999207,1,1.8663268089294434,None,,,,,,,,,,,,,,,,,,33,2,2025-02-19_11h21.09.216,comp,2024.2.4,53.324179631232944,2025-02-19 11h21.29.659607 -0500,
13,13,0,filler_square,None,None,None,None,None,None,None,None,None,None,3,2.689962863922119,None,,,,,0,0,0,0,0,13,13,170,108.4249017238617,,,,,,,,,,,,,,,,,,,,,,,,,,,,,,,,,,,,,,,,,,,,,,,,,,,,,,,,,,,,,,,,,,,,,,,,,,,,,,,,,137.77014049083607,67.6829948100833,80.92839404919297,100.60038434349289,161.30004389227707,161.30004389227707,4.0,4.2,-180,10,0,-269,227,-12,108.40849781036377,108.40860939025879,108.41209197044373,108.4249017238617,108.56990694999695,108.56990694999695,108.56990694999695,108.56990694999695,108.56990694999695,108.56990694999695,108.56990694999695,111.12648677825928,3,2.689962863922119,None,,,,,,,,,,,,,,,,,,33,2,2025-02-19_11h21.09.216,comp,2024.2.4,53.324179631232944,2025-02-19 11h21.29.659607 -0500,
14,14,0,critical,hdw,35.0,1.0,lower,133.0,57.0,70.0,70.0,57.0,133.0,2,1.7082781791687012,None,,,,,0,0,0,0,0,14,14,108,111.1426215171814,,,,,,,,,,,,,,,,,,,,,,,,,,,,,,,,,,,,,,,,,,,,,,,,,,,,,,,,,,,,,,,,,,,,,,,,,,,,,,,,,133.0,57.0,70.0,70.0,57.0,133.0,1.0,1.2,-160,-12,0,-9,198,-9,111.12820720672607,111.12834572792053,111.13229250907898,111.1426215171814,111.29478096961975,111.29478096961975,111.29478096961975,111.29478096961975,111.29478096961975,111.29478096961975,111.29478096961975,112.85725498199463,2,1.7082781791687012,None,,,,,,,,,,,,,,,,,,33,2,2025-02-19_11h21.09.216,comp,2024.2.4,53.324179631232944,2025-02-19 11h21.29.659607 -0500,
15,15,0,filler_random,None,None,None,None,None,None,None,None,None,None,3,5.0641632080078125,None,,,,,0,0,0,0,0,15,15,163,112.8744568824768,,,,,,,,,,,,,,,,,,,,,,,,,,,,,,,,,,,,,,,,,,,,,,,,,,,,,,,,,,,,,,,,,,,,,,,,,,,,,,,,,159.7383990565665,115.86421996408188,188.55822954301658,88.57614952867893,155.6109999329007,199.11695807018586,4.0,4.2,-198,-14,0,-266,240,11,112.85907936096191,112.85919761657715,112.86269164085388,112.8744568824768,113.0244038105011,113.0244038105011,113.0244038105011,113.0244038105011,113.0244038105011,113.0244038105011,113.0244038105011,117.94904637336731,3,5.0641632080078125,None,,,,,,,,,,,,,,,,,,33,2,2025-02-19_11h21.09.216,comp,2024.2.4,53.324179631232944,2025-02-19 11h21.29.659607 -0500,
16,16,0,critical,hwd,35.0,3.0,lower,133.0,57.0,57.0,133.0,70.0,70.0,3,2.189326286315918,None,,,,,0,0,0,0,0,16,16,98,117.96562623977661,,,,,,,,,,,,,,,,,,,,,,,,,,,,,,,,,,,,,,,,,,,,,,,,,,,,,,,,,,,,,,,,,,,,,,,,,,,,,,,,,133.0,57.0,57.0,133.0,70.0,70.0,3.0,3.1,-191,258,0,19,198,-274,117.95060110092163,117.95068097114563,117.95392990112305,117.96562623977661,118.1085205078125,118.1085205078125,118.1085205078125,118.1085205078125,118.1085205078125,118.1085205078125,118.1085205078125,120.16142272949219,3,2.189326286315918,None,,,,,,,,,,,,,,,,,,33,2,2025-02-19_11h21.09.216,comp,2024.2.4,53.324179631232944,2025-02-19 11h21.29.659607 -0500,
17,17,0,filler_random,None,None,None,None,None,None,None,None,None,None,1,2.626412868499756,None,,,,,0,0,0,0,0,17,17,134,120.17638206481934,,,,,,,,,,,,,,,,,,,,,,,,,,,,,,,,,,,,,,,,,,,,,,,,,,,,,,,,,,,,,,,,,,,,,,,,,,,,,,,,,154.28506038837563,165.93870196981965,132.68008000275205,84.27899296321411,66.93453596114281,119.05979217875337,2.2,2.22,-221,264,0,-263,198,-267,120.16320157051086,120.1632788181305,120.16683316230774,120.17638206481934,120.32822060585022,120.32822060585022,120.32822060585022,120.32822060585022,120.32822060585022,120.32822060585022,120.32822060585022,122.82041573524475,1,2.626412868499756,None,,,,,,,,,,,,,,,,,,33,2,2025-02-19_11h21.09.216,comp,2024.2.4,53.324179631232944,2025-02-19 11h21.29.659607 -0500,
18,18,0,critical,dhw,20.0,3.0,upper,141.0,141.0,200.0,125.0,125.0,200.0,3,5.966795921325684,None,,,,,0,0,0,0,0,18,18,57,122.83553647994995,,,,,,,,,,,,,,,,,,,,,,,,,,,,,,,,,,,,,,,,,,,,,,,,,,,,,,,,,,,,,,,,,,,,,,,,,,,,,,,,,141.0,141.0,200.0,125.0,125.0,200.0,3.0,3.2,-229,-262,0,-18,258,282,122.82193112373352,122.82200503349304,122.82517671585083,122.83553647994995,122.9836528301239,122.9836528301239,122.9836528301239,122.9836528301239,122.9836528301239,122.9836528301239,122.9836528301239,128.80533003807068,3,5.966795921325684,None,,,,,,,,,,,,,,,,,,33,2,2025-02-19_11h21.09.216,comp,2024.2.4,53.324179631232944,2025-02-19 11h21.29.659607 -0500,
19,19,0,critical,hdw,35.0,2.1,lower,133.0,57.0,70.0,70.0,57.0,133.0,2,1.5306596755981445,None,,,,,0,0,0,0,0,19,19,20,128.82360005378723,,,,,,,,,,,,,,,,,,,,,,,,,,,,,,,,,,,,,,,,,,,,,,,,,,,,,,,,,,,,,,,,,,,,,,,,,,,,,,,,,133.0,57.0,70.0,70.0,57.0,133.0,2.1,2.12,-160,-274,0,-271,198,251,128.8069450855255,128.80702209472656,128.8106050491333,128.82360005378723,128.96380233764648,128.96380233764648,128.96380233764648,128.96380233764648,128.96380233764648,128.96380233764648,128.96380233764648,130.36367511749268,2,1.5306596755981445,None,,,,,,,,,,,,,,,,,,33,2,2025-02-19_11h21.09.216,comp,2024.2.4,53.324179631232944,2025-02-19 11h21.29.659607 -0500,
20,20,0,filler_random,None,None,None,None,None,None,None,None,None,None,1,2.0951390266418457,None,,,,,0,0,0,0,0,20,20,130,130.3800163269043,,,,,,,,,,,,,,,,,,,,,,,,,,,,,,,,,,,,,,,,,,,,,,,,,,,,,,,,,,,,,,,,,,,,,,,,,,,,,,,,,148.40367390380425,188.17700043175105,104.2641463859674,187.35641545242925,88.52324891546026,124.22184945751107,2.2,2.21,-284,-276,0,283,252,257,130.36542510986328,130.36550545692444,130.36923551559448,130.3800163269043,130.53046679496765,130.53046679496765,130.53046679496765,130.53046679496765,130.53046679496765,130.53046679496765,130.53046679496765,132.48114466667175,1,2.0951390266418457,None,,,,,,,,,,,,,,,,,,33,2,2025-02-19_11h21.09.216,comp,2024.2.4,53.324179631232944,2025-02-19 11h21.29.659607 -0500,
21,21,0,critical,dwh,35.0,4.0,lower,70.0,70.0,57.0,133.0,133.0,57.0,1,2.344390869140625,None,,,,,0,0,0,0,0,21,21,64,132.49892711639404,,,,,,,,,,,,,,,,,,,,,,,,,,,,,,,,,,,,,,,,,,,,,,,,,,,,,,,,,,,,,,,,,,,,,,,,,,,,,,,,,70.0,70.0,57.0,133.0,133.0,57.0,4.0,4.2,-198,-8,0,-288,191,12,132.48278141021729,132.4828851222992,132.48734045028687,132.49892711639404,132.6486542224884,132.6486542224884,132.6486542224884,132.6486542224884,132.6486542224884,132.6486542224884,132.6486542224884,134.84847259521484,1,2.344390869140625,None,,,,,,,,,,,,,,,,,,33,2,2025-02-19_11h21.09.216,comp,2024.2.4,53.324179631232944,2025-02-19 11h21.29.659607 -0500,
22,22,0,filler_random,None,None,None,None,None,None,None,None,None,None,1,4.073063611984253,None,,,,,0,0,0,0,0,22,22,142,134.86522912979126,,,,,,,,,,,,,,,,,,,,,,,,,,,,,,,,,,,,,,,,,,,,,,,,,,,,,,,,,,,,,,,,,,,,,,,,,,,,,,,,,126.94615928841255,84.85071977416605,72.24389749494838,184.12673862511457,164.06743069302468,61.785771209653,3.0,3.2,-230,-282,0,18,219,282,134.85021471977234,134.8503451347351,134.85427522659302,134.86522912979126,135.01276564598083,135.01276564598083,135.01276564598083,135.01276564598083,135.01276564598083,135.01276564598083,135.01276564598083,138.94833779335022,1,4.073063611984253,None,,,,,,,,,,,,,,,,,,33,2,2025-02-19_11h21.09.216,comp,2024.2.4,53.324179631232944,2025-02-19 11h21.29.659607 -0500,
23,23,0,critical,hwd,35.0,1.0,lower,133.0,57.0,57.0,133.0,70.0,70.0,3,1.7734041213989258,None,,,,,0,0,0,0,0,23,23,96,138.96562957763672,,,,,,,,,,,,,,,,,,,,,,,,,,,,,,,,,,,,,,,,,,,,,,,,,,,,,,,,,,,,,,,,,,,,,,,,,,,,,,,,,133.0,57.0,57.0,133.0,70.0,70.0,1.0,1.1,-671,252,-480,277,-282,288,138.95003533363342,138.95011448860168,138.953773021698,138.96562957763672,139.12050938606262,139.12050938606262,139.12050938606262,139.12050938606262,139.12050938606262,139.12050938606262,139.12050938606262,140.74144411087036,3,1.7734041213989258,None,,,,,,,,,,,,,,,,,,33,2,2025-02-19_11h21.09.216,comp,2024.2.4,53.324179631232944,2025-02-19 11h21.29.659607 -0500,
24,24,0,critical,wdh,20.0,2.1,upper,125.0,200.0,141.0,141.0,200.0,125.0,1,1.8605210781097412,None,,,,,0,0,0,0,0,24,24,35,140.7579381465912,,,,,,,,,,,,,,,,,,,,,,,,,,,,,,,,,,,,,,,,,,,,,,,,,,,,,,,,,,,,,,,,,,,,,,,,,,,,,,,,,125.0,200.0,141.0,141.0,200.0,125.0,2.1,2.11,-266,277,0,275,229,-289,140.74302983283997,140.7431070804596,140.74631905555725,140.7579381465912,140.89713525772095,140.89713525772095,140.89713525772095,140.89713525772095,140.89713525772095,140.89713525772095,140.89713525772095,142.63183403015137,1,1.8605210781097412,None,,,,,,,,,,,,,,,,,,33,2,2025-02-19_11h21.09.216,comp,2024.2.4,53.324179631232944,2025-02-19 11h21.29.659607 -0500,
25,25,0,filler_random,None,None,None,None,None,None,None,None,None,None,2,2.8420779705047607,None,,,,,0,0,0,0,0,25,25,156,142.648268699646,,,,,,,,,,,,,,,,,,,,,,,,,,,,,,,,,,,,,,,,,,,,,,,,,,,,,,,,,,,,,,,,,,,,,,,,,,,,,,,,,89.49472787555703,198.21550159370196,159.97263039272565,162.01721071181922,83.43896316143126,199.56030395880438,3.0,3.2,-276,-265,0,2,277,290,142.63353085517883,142.63364386558533,142.63688850402832,142.648268699646,142.78532552719116,142.78532552719116,142.78532552719116,142.78532552719116,142.78532552719116,142.78532552719116,142.78532552719116,145.50055241584778,2,2.8420779705047607,None,,,,,,,,,,,,,,,,,,33,2,2025-02-19_11h21.09.216,comp,2024.2.4,53.324179631232944,2025-02-19 11h21.29.659607 -0500,
26,26,0,critical,dwh,20.0,4.0,upper,141.0,141.0,125.0,200.0,200.0,125.0,2,1.4850025177001953,None,,,,,0,0,0,0,0,26,26,71,145.51729464530945,,,,,,,,,,,,,,,,,,,,,,,,,,,,,,,,,,,,,,,,,,,,,,,,,,,,,,,,,,,,,,,,,,,,,,,,,,,,,,,,,141.0,141.0,125.0,200.0,200.0,125.0,4.0,4.2,-266,-3,0,-261,258,-14,145.5020432472229,145.50211787223816,145.50548338890076,145.51729464530945,145.67138147354126,145.67138147354126,145.67138147354126,145.67138147354126,145.67138147354126,145.67138147354126,145.67138147354126,147.0220320224762,2,1.4850025177001953,None,,,,,,,,,,,,,,,,,,33,2,2025-02-19_11h21.09.216,comp,2024.2.4,53.324179631232944,2025-02-19 11h21.29.659607 -0500,
27,27,0,filler_square,None,None,None,None,None,None,None,None,None,None,3,5.3083837032318115,None,,,,,0,0,0,0,0,27,27,204,147.0413520336151,,,,,,,,,,,,,,,,,,,,,,,,,,,,,,,,,,,,,,,,,,,,,,,,,,,,,,,,,,,,,,,,,,,,,,,,,,,,,,,,,58.221094802708805,58.221094802708805,57.564265946603406,57.027271758851214,57.170293571788044,57.005441093973076,1.0,1.1,-634,275,-480,283,-327,286,147.02437782287598,147.02450704574585,147.02778935432434,147.0413520336151,147.1861584186554,147.1861584186554,147.1861584186554,147.1861584186554,147.1861584186554,147.1861584186554,147.1861584186554,152.35526776313782,3,5.3083837032318115,None,,,,,,,,,,,,,,,,,,33,2,2025-02-19_11h21.09.216,comp,2024.2.4,53.324179631232944,2025-02-19 11h21.29.659607 -0500,
28,28,0,filler_square,None,None,None,None,None,None,None,None,None,None,2,0.052780866622924805,None,,,,,0,0,0,0,0,28,28,188,152.37438488006592,,,,,,,,,,,,,,,,,,,,,,,,,,,,,,,,,,,,,,,,,,,,,,,,,,,,,,,,,,,,,,,,,,,,,,,,,,,,,,,,,123.20835069695559,67.91780878891461,129.09343393839941,129.09343393839941,111.52090032894299,78.6596812839864,1.0,1.1,-675,288,-480,261,-280,266,152.35732650756836,152.357403755188,152.36107182502747,152.37438488006592,,,,,,,,152.44022488594055,2,0.052780866622924805,None,,,,,,,,,,,,,,,,,,33,2,2025-02-19_11h21.09.216,comp,2024.2.4,53.324179631232944,2025-02-19 11h21.29.659607 -0500,
29,29,0,filler_random,None,None,None,None,None,None,None,None,None,None,2,3.039950370788574,None,,,,,0,0,0,0,0,29,29,160,152.4584836959839,,,,,,,,,,,,,,,,,,,,,,,,,,,,,,,,,,,,,,,,,,,,,,,,,,,,,,,,,,,,,,,,,,,,,,,,,,,,,,,,,80.54719847171624,155.95949990957695,180.9107911275443,115.34736075463907,70.42461146244818,70.48513718562656,2.1,2.12,-232,-268,0,-265,189,277,152.44215846061707,152.44223880767822,152.44550704956055,152.4584836959839,152.6056718826294,152.6056718826294,152.6056718826294,152.6056718826294,152.6056718826294,152.6056718826294,152.6056718826294,155.50960993766785,2,3.039950370788574,None,,,,,,,,,,,,,,,,,,33,2,2025-02-19_11h21.09.216,comp,2024.2.4,53.324179631232944,2025-02-19 11h21.29.659607 -0500,
30,30,0,catch,None,None,None,None,None,None,None,None,None,None,3,4.7592103481292725,None,,,,,0,0,0,0,0,30,30,129,155.53116393089294,,,,,,,,,,,,,,,,,,,,,,,,,,,,,,,,,,,,,,,,,,,,,,,,,,,,,,,,,,,,,,,,,,,,,,,,,,,,,,,,,80,110,124,66,126,199,2.2,2.22,-184,270,0,-252,228,-275,155.51188254356384,155.51196193695068,155.5156810283661,155.53116393089294,155.67287731170654,155.67287731170654,155.67287731170654,155.67287731170654,155.67287731170654,155.67287731170654,155.67287731170654,160.3052065372467,3,4.7592103481292725,None,,,,,,,,,,,,,,,,,,33,2,2025-02-19_11h21.09.216,comp,2024.2.4,53.324179631232944,2025-02-19 11h21.29.659607 -0500,
31,31,0,critical,hdw,20.0,2.1,upper,200.0,125.0,141.0,141.0,125.0,200.0,3,1.7775166034698486,None,,,,,0,0,0,0,0,31,31,23,160.32143759727478,,,,,,,,,,,,,,,,,,,,,,,,,,,,,,,,,,,,,,,,,,,,,,,,,,,,,,,,,,,,,,,,,,,,,,,,,,,,,,,,,200.0,125.0,141.0,141.0,125.0,200.0,2.1,2.11,-229,280,0,266,266,-282,160.30667686462402,160.30675196647644,160.31010007858276,160.32143759727478,160.45980024337769,160.45980024337769,160.45980024337769,160.45980024337769,160.45980024337769,160.45980024337769,160.45980024337769,162.10431838035583,3,1.7775166034698486,None,,,,,,,,,,,,,,,,,,33,2,2025-02-19_11h21.09.216,comp,2024.2.4,53.324179631232944,2025-02-19 11h21.29.659607 -0500,
32,32,0,critical,dhw,35.0,2.1,lower,70.0,70.0,133.0,57.0,57.0,133.0,1,3.3614754676818848,None,,,,,0,0,0,0,0,32,32,24,162.12165999412537,,,,,,,,,,,,,,,,,,,,,,,,,,,,,,,,,,,,,,,,,,,,,,,,,,,,,,,,,,,,,,,,,,,,,,,,,,,,,,,,,70.0,70.0,133.0,57.0,57.0,133.0,2.1,2.12,-160,-276,0,-272,191,261,162.10578107833862,162.1058578491211,162.1090121269226,162.12165999412537,162.27070808410645,162.27070808410645,162.27070808410645,162.27070808410645,162.27070808410645,162.27070808410645,162.27070808410645,165.49133896827698,1,3.3614754676818848,None,,,,,,,,,,,,,,,,,,33,2,2025-02-19_11h21.09.216,comp,2024.2.4,53.324179631232944,2025-02-19 11h21.29.659607 -0500,
33,33,0,filler_random,None,None,None,None,None,None,None,None,None,None,3,1.9270484447479248,None,,,,,0,0,0,0,0,33,33,153,165.50776481628418,,,,,,,,,,,,,,,,,,,,,,,,,,,,,,,,,,,,,,,,,,,,,,,,,,,,,,,,,,,,,,,,,,,,,,,,,,,,,,,,,71.28384118793107,194.8231847876306,73.99087299856593,188.77868056661535,115.78244925676353,175.1011823056516,2.1,2.12,-288,-266,0,-282,278,258,165.49306416511536,165.4931411743164,165.49677753448486,165.50776481628418,165.65762853622437,165.65762853622437,165.65762853622437,165.65762853622437,165.65762853622437,165.65762853622437,165.65762853622437,167.44459986686707,3,1.9270484447479248,None,,,,,,,,,,,,,,,,,,33,2,2025-02-19_11h21.09.216,comp,2024.2.4,53.324179631232944,2025-02-19 11h21.29.659607 -0500,
34,34,0,critical,hwd,20.0,4.0,lower,133.0,57.0,57.0,133.0,78.0,78.0,3,1.4196746349334717,None,,,,,0,0,0,0,0,34,34,106,167.46321988105774,,,,,,,,,,,,,,,,,,,,,,,,,,,,,,,,,,,,,,,,,,,,,,,,,,,,,,,,,,,,,,,,,,,,,,,,,,,,,,,,,133.0,57.0,57.0,133.0,78.0,78.0,4.0,4.2,-191,12,0,-279,202,-11,167.44641613960266,167.44654369354248,167.45003867149353,167.46321988105774,167.60817527770996,167.60817527770996,167.60817527770996,167.60817527770996,167.60817527770996,167.60817527770996,167.60817527770996,168.90074038505554,3,1.4196746349334717,None,,,,,,,,,,,,,,,,,,33,2,2025-02-19_11h21.09.216,comp,2024.2.4,53.324179631232944,2025-02-19 11h21.29.659607 -0500,
35,35,0,critical,hwd,20.0,1.0,lower,133.0,57.0,57.0,133.0,78.0,78.0,3,2.9858195781707764,None,,,,,0,0,0,0,0,35,35,102,168.9205458164215,,,,,,,,,,,,,,,,,,,,,,,,,,,,,,,,,,,,,,,,,,,,,,,,,,,,,,,,,,,,,,,,,,,,,,,,,,,,,,,,,133.0,57.0,57.0,133.0,78.0,78.0,1.0,1.3,289,-286,480,-289,682,-274,168.90225100517273,168.90232682228088,168.90548825263977,168.9205458164215,169.06698417663574,169.06698417663574,169.06698417663574,169.06698417663574,169.06698417663574,169.06698417663574,169.06698417663574,171.91003894805908,3,2.9858195781707764,None,,,,,,,,,,,,,,,,,,33,2,2025-02-19_11h21.09.216,comp,2024.2.4,53.324179631232944,2025-02-19 11h21.29.659607 -0500,
36,36,0,filler_random,None,None,None,None,None,None,None,None,None,None,3,1.476118803024292,None,,,,,0,0,0,0,0,36,36,149,171.92624616622925,,,,,,,,,,,,,,,,,,,,,,,,,,,,,,,,,,,,,,,,,,,,,,,,,,,,,,,,,,,,,,,,,,,,,,,,,,,,,,,,,100.47966841509239,186.62607915408185,185.22993239954127,102.64065205609977,172.0669557669692,165.41018775408423,3.0,3.2,-241,-263,0,-5,230,271,171.91173124313354,171.9118082523346,171.91549515724182,171.92624616622925,172.07451343536377,172.07451343536377,172.07451343536377,172.07451343536377,172.07451343536377,172.07451343536377,172.07451343536377,173.41751909255981,3,1.476118803024292,None,,,,,,,,,,,,,,,,,,33,2,2025-02-19_11h21.09.216,comp,2024.2.4,53.324179631232944,2025-02-19 11h21.29.659607 -0500,
37,37,0,critical,whd,20.0,2.1,upper,125.0,200.0,200.0,125.0,141.0,141.0,1,1.9860377311706543,None,,,,,0,0,0,0,0,37,37,39,173.43334126472473,,,,,,,,,,,,,,,,,,,,,,,,,,,,,,,,,,,,,,,,,,,,,,,,,,,,,,,,,,,,,,,,,,,,,,,,,,,,,,,,,125.0,200.0,200.0,125.0,141.0,141.0,2.1,2.12,-258,-282,0,-255,229,280,173.4192202091217,173.4193515777588,173.42301273345947,173.43334126472473,173.57797384262085,173.57797384262085,173.57797384262085,173.57797384262085,173.57797384262085,173.57797384262085,173.57797384262085,175.42948746681213,1,1.9860377311706543,None,,,,,,,,,,,,,,,,,,33,2,2025-02-19_11h21.09.216,comp,2024.2.4,53.324179631232944,2025-02-19 11h21.29.659607 -0500,
38,38,0,filler_square,None,None,None,None,None,None,None,None,None,None,3,1.876098394393921,None,,,,,0,0,0,0,0,38,38,194,175.44628930091858,,,,,,,,,,,,,,,,,,,,,,,,,,,,,,,,,,,,,,,,,,,,,,,,,,,,,,,,,,,,,,,,,,,,,,,,,,,,,,,,,82.31782530864892,74.95159380706613,57.8783313664038,60.51737916619287,85.54592860703876,85.54592860703876,1.0,1.3,316,-289,480,-275,649,-252,175.43151545524597,175.43163442611694,175.4356894493103,175.44628930091858,175.59309029579163,175.59309029579163,175.59309029579163,175.59309029579163,175.59309029579163,175.59309029579163,175.59309029579163,177.33497667312622,3,1.876098394393921,None,,,,,,,,,,,,,,,,,,33,2,2025-02-19_11h21.09.216,comp,2024.2.4,53.324179631232944,2025-02-19 11h21.29.659607 -0500,
39,39,0,catch,None,None,None,None,None,None,None,None,None,None,2,1.142749309539795,None,,,,,0,0,0,0,0,39,39,126,177.35572028160095,,,,,,,,,,,,,,,,,,,,,,,,,,,,,,,,,,,,,,,,,,,,,,,,,,,,,,,,,,,,,,,,,,,,,,,,,,,,,,,,,73,117,150,175,110,80,1.0,1.1,-722,271,-480,273,-256,283,177.3368661403656,177.33694195747375,177.34013438224792,177.35572028160095,177.49533605575562,177.49533605575562,177.49533605575562,177.49533605575562,177.49533605575562,177.49533605575562,177.49533605575562,178.51570463180542,2,1.142749309539795,None,,,,,,,,,,,,,,,,,,33,2,2025-02-19_11h21.09.216,comp,2024.2.4,53.324179631232944,2025-02-19 11h21.29.659607 -0500,
40,40,0,critical,dhw,20.0,4.0,lower,78.0,78.0,133.0,57.0,57.0,133.0,1,1.9172008037567139,None,,,,,0,0,0,0,0,40,40,58,178.53320837020874,,,,,,,,,,,,,,,,,,,,,,,,,,,,,,,,,,,,,,,,,,,,,,,,,,,,,,,,,,,,,,,,,,,,,,,,,,,,,,,,,78.0,78.0,133.0,57.0,57.0,133.0,4.0,4.1,-164,-263,0,-15,191,-280,178.51723384857178,178.5173101425171,178.52063488960266,178.53320837020874,178.67967319488525,178.67967319488525,178.67967319488525,178.67967319488525,178.67967319488525,178.67967319488525,178.67967319488525,180.461030960083,1,1.9172008037567139,None,,,,,,,,,,,,,,,,,,33,2,2025-02-19_11h21.09.216,comp,2024.2.4,53.324179631232944,2025-02-19 11h21.29.659607 -0500,
41,41,0,critical,hwd,20.0,1.0,upper,200.0,125.0,125.0,200.0,141.0,141.0,1,0.9889757633209229,None,,,,,0,0,0,0,0,41,41,103,180.47741889953613,,,,,,,,,,,,,,,,,,,,,,,,,,,,,,,,,,,,,,,,,,,,,,,,,,,,,,,,,,,,,,,,,,,,,,,,,,,,,,,,,200.0,125.0,125.0,200.0,141.0,141.0,1.0,1.3,222,-277,480,-261,746,-252,180.462504863739,180.4625997543335,180.46584510803223,180.47741889953613,180.62940764427185,180.62940764427185,180.62940764427185,180.62940764427185,180.62940764427185,180.62940764427185,180.62940764427185,181.4790120124817,1,0.9889757633209229,None,,,,,,,,,,,,,,,,,,33,2,2025-02-19_11h21.09.216,comp,2024.2.4,53.324179631232944,2025-02-19 11h21.29.659607 -0500,
42,42,0,critical,wdh,20.0,2.1,lower,57.0,133.0,78.0,78.0,133.0,57.0,2,1.3463892936706543,None,,,,,0,0,0,0,0,42,42,10,181.4964783191681,,,,,,,,,,,,,,,,,,,,,,,,,,,,,,,,,,,,,,,,,,,,,,,,,,,,,,,,,,,,,,,,,,,,,,,,,,,,,,,,,57.0,133.0,78.0,78.0,133.0,57.0,2.1,2.12,-202,-266,0,-275,164,268,181.4807472229004,181.48084998130798,181.48523783683777,181.4964783191681,181.64778971672058,181.64778971672058,181.64778971672058,181.64778971672058,181.64778971672058,181.64778971672058,181.64778971672058,182.84590077400208,2,1.3463892936706543,None,,,,,,,,,,,,,,,,,,33,2,2025-02-19_11h21.09.216,comp,2024.2.4,53.324179631232944,2025-02-19 11h21.29.659607 -0500,
43,43,0,critical,dhw,20.0,2.1,upper,141.0,141.0,200.0,125.0,125.0,200.0,2,2.1393775939941406,None,,,,,0,0,0,0,0,43,43,3,182.86308455467224,,,,,,,,,,,,,,,,,,,,,,,,,,,,,,,,,,,,,,,,,,,,,,,,,,,,,,,,,,,,,,,,,,,,,,,,,,,,,,,,,141.0,141.0,200.0,125.0,125.0,200.0,2.1,2.11,-229,253,0,254,258,-266,182.84751391410828,182.84766554832458,182.85125398635864,182.86308455467224,183.01308298110962,183.01308298110962,183.01308298110962,183.01308298110962,183.01308298110962,183.01308298110962,183.01308298110962,185.01573061943054,2,2.1393775939941406,None,,,,,,,,,,,,,,,,,,33,2,2025-02-19_11h21.09.216,comp,2024.2.4,53.324179631232944,2025-02-19 11h21.29.659607 -0500,
44,44,0,critical,dhw,20.0,3.0,lower,78.0,78.0,133.0,57.0,57.0,133.0,1,2.09824800491333,None,,,,,0,0,0,0,0,44,44,56,185.03213024139404,,,,,,,,,,,,,,,,,,,,,,,,,,,,,,,,,,,,,,,,,,,,,,,,,,,,,,,,,,,,,,,,,,,,,,,,,,,,,,,,,78.0,78.0,133.0,57.0,57.0,133.0,3.0,3.2,-164,-281,0,-16,191,276,185.01742029190063,185.01755142211914,185.02171683311462,185.03213024139404,185.17943716049194,185.17943716049194,185.17943716049194,185.17943716049194,185.17943716049194,185.17943716049194,185.17943716049194,187.14695143699646,1,2.09824800491333,None,,,,,,,,,,,,,,,,,,33,2,2025-02-19_11h21.09.216,comp,2024.2.4,53.324179631232944,2025-02-19 11h21.29.659607 -0500,
45,45,0,filler_random,None,None,None,None,None,None,None,None,None,None,3,1.3917789459228516,None,,,,,0,0,0,0,0,45,45,139,187.16270422935486,,,,,,,,,,,,,,,,,,,,,,,,,,,,,,,,,,,,,,,,,,,,,,,,,,,,,,,,,,,,,,,,,,,,,,,,,,,,,,,,,113.09511292891551,151.6990882687004,148.76548836528755,160.90282635834842,144.00969367749053,176.30540431675914,4.0,4.2,-252,17,0,-261,265,-5,187.14861035346985,187.148686170578,187.15212035179138,187.16270422935486,187.3216998577118,187.3216998577118,187.3216998577118,187.3216998577118,187.3216998577118,187.3216998577118,187.3216998577118,188.57019710540771,3,1.3917789459228516,None,,,,,,,,,,,,,,,,,,33,2,2025-02-19_11h21.09.216,comp,2024.2.4,53.324179631232944,2025-02-19 11h21.29.659607 -0500,
46,46,0,critical,dhw,20.0,4.0,upper,141.0,141.0,200.0,125.0,125.0,200.0,3,1.1123285293579102,None,,,,,0,0,0,0,0,46,46,59,188.5861690044403,,,,,,,,,,,,,,,,,,,,,,,,,,,,,,,,,,,,,,,,,,,,,,,,,,,,,,,,,,,,,,,,,,,,,,,,,,,,,,,,,141.0,141.0,200.0,125.0,125.0,200.0,4.0,4.2,-229,7,0,-251,258,-6,188.57171988487244,188.5717945098877,188.57505178451538,188.5861690044403,188.73316144943237,188.73316144943237,188.73316144943237,188.73316144943237,188.73316144943237,188.73316144943237,188.73316144943237,189.71238470077515,3,1.1123285293579102,None,,,,,,,,,,,,,,,,,,33,2,2025-02-19_11h21.09.216,comp,2024.2.4,53.324179631232944,2025-02-19 11h21.29.659607 -0500,
47,47,0,filler_square,None,None,None,None,None,None,None,None,None,None,2,1.437101125717163,None,,,,,0,0,0,0,0,47,47,203,189.7332625389099,,,,,,,,,,,,,,,,,,,,,,,,,,,,,,,,,,,,,,,,,,,,,,,,,,,,,,,,,,,,,,,,,,,,,,,,,,,,,,,,,114.2152375653177,105.1128390222469,133.97249878060197,133.97249878060197,133.47248124892735,107.4319615312352,1.0,1.1,-696,290,-480,279,-263,287,189.7144410610199,189.71451711654663,189.71828889846802,189.7332625389099,189.86586093902588,189.86586093902588,189.86586093902588,189.86586093902588,189.86586093902588,189.86586093902588,189.86586093902588,191.18199920654297,2,1.437101125717163,None,,,,,,,,,,,,,,,,,,33,2,2025-02-19_11h21.09.216,comp,2024.2.4,53.324179631232944,2025-02-19 11h21.29.659607 -0500,
48,48,0,filler_square,None,None,None,None,None,None,None,None,None,None,2,3.185880422592163,None,,,,,0,0,0,0,0,48,48,195,191.2006754875183,,,,,,,,,,,,,,,,,,,,,,,,,,,,,,,,,,,,,,,,,,,,,,,,,,,,,,,,,,,,,,,,,,,,,,,,,,,,,,,,,60.722501104888096,64.18431438152149,70.41166305247732,70.41166305247732,61.723523749158815,64.53120842032662,3.0,3.1,-163,261,0,-5,163,-269,191.18409156799316,191.1841745376587,191.1879608631134,191.2006754875183,191.35014176368713,191.35014176368713,191.35014176368713,191.35014176368713,191.35014176368713,191.35014176368713,191.35014176368713,194.39997243881226,2,3.185880422592163,None,,,,,,,,,,,,,,,,,,33,2,2025-02-19_11h21.09.216,comp,2024.2.4,53.324179631232944,2025-02-19 11h21.29.659607 -0500,
49,49,0,filler_random,None,None,None,None,None,None,None,None,None,None,3,1.2477219104766846,None,,,,,0,0,0,0,0,49,49,164,194.41909646987915,,,,,,,,,,,,,,,,,,,,,,,,,,,,,,,,,,,,,,,,,,,,,,,,,,,,,,,,,,,,,,,,,,,,,,,,,,,,,,,,,75.25903157437412,180.12402874014862,130.40308163357184,101.37489442939844,114.97181989161919,179.3640789908136,4.0,4.1,-237,-264,0,20,236,-267,194.40174174308777,194.40181946754456,194.40509390830994,194.41909646987915,194.56736588478088,194.56736588478088,194.56736588478088,194.56736588478088,194.56736588478088,194.56736588478088,194.56736588478088,195.67019867897034,3,1.2477219104766846,None,,,,,,,,,,,,,,,,,,33,2,2025-02-19_11h21.09.216,comp,2024.2.4,53.324179631232944,2025-02-19 11h21.29.659607 -0500,
50,50,0,filler_square,None,None,None,None,None,None,None,None,None,None,2,2.660649061203003,None,,,,,0,0,0,0,0,50,50,206,195.68624067306519,,,,,,,,,,,,,,,,,,,,,,,,,,,,,,,,,,,,,,,,,,,,,,,,,,,,,,,,,,,,,,,,,,,,,,,,,,,,,,,,,113.76205215752131,132.07391736880402,147.4912677383464,147.4912677383464,65.95005744848928,79.94475825337209,3.0,3.2,-236,-264,0,14,210,266,195.67212176322937,195.67220258712769,195.6756362915039,195.68624067306519,195.83626914024353,195.83626914024353,195.83626914024353,195.83626914024353,195.83626914024353,195.83626914024353,195.83626914024353,198.35551714897156,2,2.660649061203003,None,,,,,,,,,,,,,,,,,,33,2,2025-02-19_11h21.09.216,comp,2024.2.4,53.324179631232944,2025-02-19 11h21.29.659607 -0500,
51,51,0,filler_square,None,None,None,None,None,None,None,None,None,None,3,2.58528470993042,None,,,,,0,0,0,0,0,51,51,192,198.37714099884033,,,,,,,,,,,,,,,,,,,,,,,,,,,,,,,,,,,,,,,,,,,,,,,,,,,,,,,,,,,,,,,,,,,,,,,,,,,,,,,,,109.83585159519836,79.68558648539948,89.90991059398546,113.72845022953722,115.29979777568535,115.29979777568535,2.1,2.12,-193,-261,0,-251,211,268,198.3574414253235,198.35752701759338,198.36119508743286,198.37714099884033,198.51913714408875,198.51913714408875,198.51913714408875,198.51913714408875,198.51913714408875,198.51913714408875,198.51913714408875,200.97259068489075,3,2.58528470993042,None,,,,,,,,,,,,,,,,,,33,2,2025-02-19_11h21.09.216,comp,2024.2.4,53.324179631232944,2025-02-19 11h21.29.659607 -0500,
52,52,0,filler_random,None,None,None,None,None,None,None,None,None,None,3,1.4124882221221924,None,,,,,0,0,0,0,0,52,52,157,200.98994374275208,,,,,,,,,,,,,,,,,,,,,,,,,,,,,,,,,,,,,,,,,,,,,,,,,,,,,,,,,,,,,,,,,,,,,,,,,,,,,,,,,64.72205165954237,151.9467769705277,62.399903431351035,156.70729169145005,194.23360094408915,181.19319398318765,2.1,2.11,-250,289,0,287,265,-274,200.97446131706238,200.97462582588196,200.9781494140625,200.98994374275208,201.13478446006775,201.13478446006775,201.13478446006775,201.13478446006775,201.13478446006775,201.13478446006775,201.13478446006775,202.40443634986877,3,1.4124882221221924,None,,,,,,,,,,,,,,,,,,33,2,2025-02-19_11h21.09.216,comp,2024.2.4,53.324179631232944,2025-02-19 11h21.29.659607 -0500,
53,53,0,filler_square,None,None,None,None,None,None,None,None,None,None,2,1.1980338096618652,None,,,,,0,0,0,0,0,53,53,183,202.42062997817993,,,,,,,,,,,,,,,,,,,,,,,,,,,,,,,,,,,,,,,,,,,,,,,,,,,,,,,,,,,,,,,,,,,,,,,,,,,,,,,,,76.89989695710429,162.09608462296455,198.28550382094213,198.28550382094213,180.38809822041713,188.93908080838722,2.2,2.22,-276,255,0,-268,290,-280,202.4063003063202,202.406396150589,202.41003108024597,202.42062997817993,202.56978821754456,202.56978821754456,202.56978821754456,202.56978821754456,202.56978821754456,202.56978821754456,202.56978821754456,203.63600993156433,2,1.1980338096618652,None,,,,,,,,,,,,,,,,,,33,2,2025-02-19_11h21.09.216,comp,2024.2.4,53.324179631232944,2025-02-19 11h21.29.659607 -0500,
54,54,0,critical,hdw,20.0,2.1,lower,133.0,57.0,78.0,78.0,57.0,133.0,2,4.021939516067505,None,,,,,0,0,0,0,0,54,54,22,203.65285515785217,,,,,,,,,,,,,,,,,,,,,,,,,,,,,,,,,,,,,,,,,,,,,,,,,,,,,,,,,,,,,,,,,,,,,,,,,,,,,,,,,133.0,57.0,78.0,78.0,57.0,133.0,2.1,2.12,-164,-257,0,-256,202,276,203.63764548301697,203.6377625465393,203.64152121543884,203.65285515785217,203.80582785606384,203.80582785606384,203.80582785606384,203.80582785606384,203.80582785606384,203.80582785606384,203.80582785606384,207.6880362033844,2,4.021939516067505,None,,,,,,,,,,,,,,,,,,33,2,2025-02-19_11h21.09.216,comp,2024.2.4,53.324179631232944,2025-02-19 11h21.29.659607 -0500,
55,55,0,critical,dwh,20.0,2.1,lower,78.0,78.0,57.0,133.0,133.0,57.0,1,2.54624342918396,None,,,,,0,0,0,0,0,55,55,6,207.70462608337402,,,,,,,,,,,,,,,,,,,,,,,,,,,,,,,,,,,,,,,,,,,,,,,,,,,,,,,,,,,,,,,,,,,,,,,,,,,,,,,,,78.0,78.0,57.0,133.0,133.0,57.0,2.1,2.11,-202,283,0,255,191,-275,207.6896357536316,207.68971610069275,207.6942744255066,207.70462608337402,207.8523280620575,207.8523280620575,207.8523280620575,207.8523280620575,207.8523280620575,207.8523280620575,207.8523280620575,210.256662607193,1,2.54624342918396,None,,,,,,,,,,,,,,,,,,33,2,2025-02-19_11h21.09.216,comp,2024.2.4,53.324179631232944,2025-02-19 11h21.29.659607 -0500,
56,56,0,critical,hdw,20.0,2.1,upper,200.0,125.0,141.0,141.0,125.0,200.0,1,1.5383110046386719,None,,,,,0,0,0,0,0,56,56,47,210.2725100517273,,,,,,,,,,,,,,,,,,,,,,,,,,,,,,,,,,,,,,,,,,,,,,,,,,,,,,,,,,,,,,,,,,,,,,,,,,,,,,,,,200.0,125.0,141.0,141.0,125.0,200.0,2.1,2.12,-229,-266,0,-251,266,253,210.25818848609924,210.25826454162598,210.26181769371033,210.2725100517273,210.42093801498413,210.42093801498413,210.42093801498413,210.42093801498413,210.42093801498413,210.42093801498413,210.42093801498413,211.8264181613922,1,1.5383110046386719,None,,,,,,,,,,,,,,,,,,33,2,2025-02-19_11h21.09.216,comp,2024.2.4,53.324179631232944,2025-02-19 11h21.29.659607 -0500,
57,57,0,critical,whd,35.0,1.0,upper,125.0,200.0,200.0,125.0,127.0,127.0,1,4.967782735824585,None,,,,,0,0,0,0,0,57,57,85,211.84306406974792,,,,,,,,,,,,,,,,,,,,,,,,,,,,,,,,,,,,,,,,,,,,,,,,,,,,,,,,,,,,,,,,,,,,,,,,,,,,,,,,,125.0,200.0,200.0,125.0,127.0,127.0,1.0,1.3,222,-252,480,-273,702,-266,211.8280782699585,211.82817935943604,211.8318464756012,211.84306406974792,211.9967758655548,211.9967758655548,211.9967758655548,211.9967758655548,211.9967758655548,211.9967758655548,211.9967758655548,216.82432293891907,1,4.967782735824585,None,,,,,,,,,,,,,,,,,,33,2,2025-02-19_11h21.09.216,comp,2024.2.4,53.324179631232944,2025-02-19 11h21.29.659607 -0500,
58,58,0,filler_square,None,None,None,None,None,None,None,None,None,None,2,0.8980085849761963,None,,,,,0,0,0,0,0,58,58,181,216.8407473564148,,,,,,,,,,,,,,,,,,,,,,,,,,,,,,,,,,,,,,,,,,,,,,,,,,,,,,,,,,,,,,,,,,,,,,,,,,,,,,,,,64.0581496848042,99.44849603935396,141.70060581729217,141.70060581729217,112.19915791118449,109.97604192322456,1.0,1.1,-697,278,-480,271,-258,272,216.82631397247314,216.82639479637146,216.8303577899933,216.8407473564148,216.99735832214355,216.99735832214355,216.99735832214355,216.99735832214355,216.99735832214355,216.99735832214355,216.99735832214355,217.74162197113037,2,0.8980085849761963,None,,,,,,,,,,,,,,,,,,33,2,2025-02-19_11h21.09.216,comp,2024.2.4,53.324179631232944,2025-02-19 11h21.29.659607 -0500,
59,59,0,filler_random,None,None,None,None,None,None,None,None,None,None,3,1.8283004760742188,None,,,,,0,0,0,0,0,59,59,140,217.75882577896118,,,,,,,,,,,,,,,,,,,,,,,,,,,,,,,,,,,,,,,,,,,,,,,,,,,,,,,,,,,,,,,,,,,,,,,,,,,,,,,,,158.2149603992325,69.98843415886921,191.7000510956746,98.26437500843696,121.88213458098855,135.8070989576127,1.0,1.1,-660,275,-480,259,-267,289,217.74338245391846,217.74351167678833,217.7470667362213,217.75882577896118,217.9080114364624,217.9080114364624,217.9080114364624,217.9080114364624,217.9080114364624,217.9080114364624,217.9080114364624,219.5928828716278,3,1.8283004760742188,None,,,,,,,,,,,,,,,,,,33,2,2025-02-19_11h21.09.216,comp,2024.2.4,53.324179631232944,2025-02-19 11h21.29.659607 -0500,
60,60,0,critical,whd,35.0,4.0,upper,125.0,200.0,200.0,125.0,127.0,127.0,2,None,None,,,,,0,0,0,0,0,60,60,89,219.6096453666687,,,,,,,,,,,,,,,,,,,,,,,,,,,,,,,,,,,,,,,,,,,,,,,,,,,,,,,,,,,,,,,,,,,,,,,,,,,,,,,,,125.0,200.0,200.0,125.0,127.0,127.0,4.0,4.2,-258,-14,0,-266,222,15,219.59458255767822,219.59469270706177,219.59845304489136,219.6096453666687,219.75933194160461,219.75933194160461,219.75933194160461,219.75933194160461,219.75933194160461,219.75933194160461,219.75933194160461,219.77603149414062,2,None,None,,,,,,,,,,,,,,,,,,33,2,2025-02-19_11h21.09.216,comp,2024.2.4,53.324179631232944,2025-02-19 11h21.29.659607 -0500,
61,61,0,critical,dwh,20.0,2.1,upper,141.0,141.0,125.0,200.0,200.0,125.0,2,7.34621787071228,None,,,,,0,0,0,0,0,61,61,31,219.79268169403076,,,,,,,,,,,,,,,,,,,,,,,,,,,,,,,,,,,,,,,,,,,,,,,,,,,,,,,,,,,,,,,,,,,,,,,,,,,,,,,,,141.0,141.0,125.0,200.0,200.0,125.0,2.1,2.12,-266,-277,0,-267,258,282,219.77764105796814,219.7777407169342,219.78150463104248,219.79268169403076,219.94209337234497,219.94209337234497,219.94209337234497,219.94209337234497,219.94209337234497,219.94209337234497,219.94209337234497,227.1449728012085,2,7.34621787071228,None,,,,,,,,,,,,,,,,,,33,2,2025-02-19_11h21.09.216,comp,2024.2.4,53.324179631232944,2025-02-19 11h21.29.659607 -0500,
62,62,0,critical,whd,20.0,1.0,lower,57.0,133.0,133.0,57.0,78.0,78.0,3,5.537997484207153,None,,,,,0,0,0,0,0,62,62,90,227.16104650497437,,,,,,,,,,,,,,,,,,,,,,,,,,,,,,,,,,,,,,,,,,,,,,,,,,,,,,,,,,,,,,,,,,,,,,,,,,,,,,,,,57.0,133.0,133.0,57.0,78.0,78.0,1.0,1.1,-671,276,-480,282,-316,289,227.14651703834534,227.14662313461304,227.15030193328857,227.16104650497437,227.31027841567993,227.31027841567993,227.31027841567993,227.31027841567993,227.31027841567993,227.31027841567993,227.31027841567993,232.7168755531311,3,5.537997484207153,None,,,,,,,,,,,,,,,,,,33,2,2025-02-19_11h21.09.216,comp,2024.2.4,53.324179631232944,2025-02-19 11h21.29.659607 -0500,
63,63,0,critical,whd,35.0,2.1,upper,125.0,200.0,200.0,125.0,127.0,127.0,2,2.058493137359619,None,,,,,0,0,0,0,0,63,63,37,232.736332654953,,,,,,,,,,,,,,,,,,,,,,,,,,,,,,,,,,,,,,,,,,,,,,,,,,,,,,,,,,,,,,,,,,,,,,,,,,,,,,,,,125.0,200.0,200.0,125.0,127.0,127.0,2.1,2.12,-258,-253,0,-280,222,286,232.718514919281,232.71861672401428,232.72182178497314,232.736332654953,232.87879347801208,232.87879347801208,232.87879347801208,232.87879347801208,232.87879347801208,232.87879347801208,232.87879347801208,234.79726719856262,2,2.058493137359619,None,,,,,,,,,,,,,,,,,,33,2,2025-02-19_11h21.09.216,comp,2024.2.4,53.324179631232944,2025-02-19 11h21.29.659607 -0500,
64,64,0,filler_random,None,None,None,None,None,None,None,None,None,None,3,1.23537278175354,None,,,,,0,0,0,0,0,64,64,135,234.8150668144226,,,,,,,,,,,,,,,,,,,,,,,,,,,,,,,,,,,,,,,,,,,,,,,,,,,,,,,,,,,,,,,,,,,,,,,,,,,,,,,,,94.78524239288438,137.91491608403516,70.33319776701248,118.52595537366409,188.14850875912038,128.21845189148564,2.2,2.22,-224,273,0,-258,219,-262,234.79922604560852,234.79930520057678,234.80314803123474,234.8150668144226,234.9666588306427,234.9666588306427,234.9666588306427,234.9666588306427,234.9666588306427,234.9666588306427,234.9666588306427,236.06817269325256,3,1.23537278175354,None,,,,,,,,,,,,,,,,,,33,2,2025-02-19_11h21.09.216,comp,2024.2.4,53.324179631232944,2025-02-19 11h21.29.659607 -0500,
65,65,0,critical,hdw,35.0,3.0,lower,133.0,57.0,70.0,70.0,57.0,133.0,3,3.972226858139038,None,,,,,0,0,0,0,0,65,65,110,236.08629155158997,,,,,,,,,,,,,,,,,,,,,,,,,,,,,,,,,,,,,,,,,,,,,,,,,,,,,,,,,,,,,,,,,,,,,,,,,,,,,,,,,133.0,57.0,70.0,70.0,57.0,133.0,3.0,3.2,-160,-285,0,14,198,261,236.06978631019592,236.06986165046692,236.07346272468567,236.08629155158997,236.23326635360718,236.23326635360718,236.23326635360718,236.23326635360718,236.23326635360718,236.23326635360718,236.23326635360718,240.0714774131775,3,3.972226858139038,None,,,,,,,,,,,,,,,,,,33,2,2025-02-19_11h21.09.216,comp,2024.2.4,53.324179631232944,2025-02-19 11h21.29.659607 -0500,
66,66,0,critical,wdh,35.0,2.1,upper,125.0,200.0,127.0,127.0,200.0,125.0,1,4.415295124053955,None,,,,,0,0,0,0,0,66,66,9,240.09138751029968,,,,,,,,,,,,,,,,,,,,,,,,,,,,,,,,,,,,,,,,,,,,,,,,,,,,,,,,,,,,,,,,,,,,,,,,,,,,,,,,,125.0,200.0,127.0,127.0,200.0,125.0,2.1,2.11,-260,279,0,257,222,-272,240.07309675216675,240.07317543029785,240.07676792144775,240.09138751029968,240.23244309425354,240.23244309425354,240.23244309425354,240.23244309425354,240.23244309425354,240.23244309425354,240.23244309425354,244.5202271938324,1,4.415295124053955,None,,,,,,,,,,,,,,,,,,33,2,2025-02-19_11h21.09.216,comp,2024.2.4,53.324179631232944,2025-02-19 11h21.29.659607 -0500,
67,67,0,filler_random,None,None,None,None,None,None,None,None,None,None,1,1.4405133724212646,None,,,,,0,0,0,0,0,67,67,168,244.53879618644714,,,,,,,,,,,,,,,,,,,,,,,,,,,,,,,,,,,,,,,,,,,,,,,,,,,,,,,,,,,,,,,,,,,,,,,,,,,,,,,,,145.0954833457452,100.20536654108864,91.25781811215441,179.28343195626212,158.49498629370402,79.57150912243722,2.2,2.21,-236,-255,0,286,225,252,244.52213072776794,244.5222623348236,244.525776386261,244.53879618644714,244.68408799171448,244.68408799171448,244.68408799171448,244.68408799171448,244.68408799171448,244.68408799171448,244.68408799171448,245.98570489883423,1,1.4405133724212646,None,,,,,,,,,,,,,,,,,,33,2,2025-02-19_11h21.09.216,comp,2024.2.4,53.324179631232944,2025-02-19 11h21.29.659607 -0500,
68,68,0,critical,hwd,20.0,2.1,lower,133.0,57.0,57.0,133.0,78.0,78.0,2,7.632897853851318,None,,,,,0,0,0,0,0,68,68,42,246.00193166732788,,,,,,,,,,,,,,,,,,,,,,,,,,,,,,,,,,,,,,,,,,,,,,,,,,,,,,,,,,,,,,,,,,,,,,,,,,,,,,,,,133.0,57.0,57.0,133.0,78.0,78.0,2.1,2.11,-191,271,0,288,202,-253,245.98740029335022,245.98747849464417,245.99126172065735,246.00193166732788,246.15063786506653,246.15063786506653,246.15063786506653,246.15063786506653,246.15063786506653,246.15063786506653,246.15063786506653,253.65250706672668,2,7.632897853851318,None,,,,,,,,,,,,,,,,,,33,2,2025-02-19_11h21.09.216,comp,2024.2.4,53.324179631232944,2025-02-19 11h21.29.659607 -0500,
69,69,0,critical,dwh,20.0,3.0,upper,141.0,141.0,125.0,200.0,200.0,125.0,2,3.789548873901367,None,,,,,0,0,0,0,0,69,69,69,253.66899490356445,,,,,,,,,,,,,,,,,,,,,,,,,,,,,,,,,,,,,,,,,,,,,,,,,,,,,,,,,,,,,,,,,,,,,,,,,,,,,,,,,141.0,141.0,125.0,200.0,200.0,125.0,3.0,3.1,-266,275,0,-17,258,-267,253.65399503707886,253.65406966209412,253.65852236747742,253.66899490356445,253.82035493850708,253.82035493850708,253.82035493850708,253.82035493850708,253.82035493850708,253.82035493850708,253.82035493850708,257.46865463256836,2,3.789548873901367,None,,,,,,,,,,,,,,,,,,33,2,2025-02-19_11h21.09.216,comp,2024.2.4,53.324179631232944,2025-02-19 11h21.29.659607 -0500,
70,70,0,filler_square,None,None,None,None,None,None,None,None,None,None,3,1.9733872413635254,None,,,,,0,0,0,0,0,70,70,178,257.4853160381317,,,,,,,,,,,,,,,,,,,,,,,,,,,,,,,,,,,,,,,,,,,,,,,,,,,,,,,,,,,,,,,,,,,,,,,,,,,,,,,,,88.64297468635391,71.59140363628268,59.27166235057409,73.35782033018337,105.62936866687747,105.62936866687747,2.1,2.12,-168,-278,0,-275,185,260,257.4706771373749,257.4707567691803,257.47442650794983,257.4853160381317,257.6217579841614,257.6217579841614,257.6217579841614,257.6217579841614,257.6217579841614,257.6217579841614,257.6217579841614,259.4718098640442,3,1.9733872413635254,None,,,,,,,,,,,,,,,,,,33,2,2025-02-19_11h21.09.216,comp,2024.2.4,53.324179631232944,2025-02-19 11h21.29.659607 -0500,
71,71,0,critical,dhw,35.0,4.0,upper,127.0,127.0,200.0,125.0,125.0,200.0,3,1.7641417980194092,None,,,,,0,0,0,0,0,71,71,53,259.48642683029175,,,,,,,,,,,,,,,,,,,,,,,,,,,,,,,,,,,,,,,,,,,,,,,,,,,,,,,,,,,,,,,,,,,,,,,,,,,,,,,,,127.0,127.0,200.0,125.0,125.0,200.0,4.0,4.2,-222,3,0,-279,258,-13,259.47333097457886,259.4734079837799,259.4770562648773,259.48642683029175,259.63785314559937,259.63785314559937,259.63785314559937,259.63785314559937,259.63785314559937,259.63785314559937,259.63785314559937,261.2679691314697,3,1.7641417980194092,None,,,,,,,,,,,,,,,,,,33,2,2025-02-19_11h21.09.216,comp,2024.2.4,53.324179631232944,2025-02-19 11h21.29.659607 -0500,
72,72,0,critical,dwh,35.0,1.0,lower,70.0,70.0,57.0,133.0,133.0,57.0,3,1.6622779369354248,None,,,,,0,0,0,0,0,72,72,60,261.28726410865784,,,,,,,,,,,,,,,,,,,,,,,,,,,,,,,,,,,,,,,,,,,,,,,,,,,,,,,,,,,,,,,,,,,,,,,,,,,,,,,,,70.0,70.0,57.0,133.0,133.0,57.0,1.0,1.2,-198,-14,0,-5,191,-3,261.2695097923279,261.2696223258972,261.2728953361511,261.28726410865784,261.434939622879,261.434939622879,261.434939622879,261.434939622879,261.434939622879,261.434939622879,261.434939622879,262.95218205451965,3,1.6622779369354248,None,,,,,,,,,,,,,,,,,,33,2,2025-02-19_11h21.09.216,comp,2024.2.4,53.324179631232944,2025-02-19 11h21.29.659607 -0500,
73,73,0,critical,whd,20.0,2.1,upper,125.0,200.0,200.0,125.0,141.0,141.0,2,1.6727378368377686,None,,,,,0,0,0,0,0,73,73,15,262.96991300582886,,,,,,,,,,,,,,,,,,,,,,,,,,,,,,,,,,,,,,,,,,,,,,,,,,,,,,,,,,,,,,,,,,,,,,,,,,,,,,,,,125.0,200.0,200.0,125.0,141.0,141.0,2.1,2.11,-258,254,0,275,229,-253,262.95366191864014,262.9537386894226,262.95693469047546,262.96991300582886,263.10565280914307,263.10565280914307,263.10565280914307,263.10565280914307,263.10565280914307,263.10565280914307,263.10565280914307,264.6549472808838,2,1.6727378368377686,None,,,,,,,,,,,,,,,,,,33,2,2025-02-19_11h21.09.216,comp,2024.2.4,53.324179631232944,2025-02-19 11h21.29.659607 -0500,
74,74,0,filler_square,None,None,None,None,None,None,None,None,None,None,1,1.147402286529541,None,,,,,0,0,0,0,0,74,74,196,264.6714971065521,,,,,,,,,,,,,,,,,,,,,,,,,,,,,,,,,,,,,,,,,,,,,,,,,,,,,,,,,,,,,,,,,,,,,,,,,,,,,,,,,58.370558385094675,61.97216989656309,60.32968569465517,57.4130310120784,64.86021135303226,64.86021135303226,3.0,3.1,-156,261,0,17,157,-270,264.6567633152008,264.65683674812317,264.66021490097046,264.6714971065521,264.81897926330566,264.81897926330566,264.81897926330566,264.81897926330566,264.81897926330566,264.81897926330566,264.81897926330566,265.82280230522156,1,1.147402286529541,None,,,,,,,,,,,,,,,,,,33,2,2025-02-19_11h21.09.216,comp,2024.2.4,53.324179631232944,2025-02-19 11h21.29.659607 -0500,
75,75,0,filler_random,None,None,None,None,None,None,None,None,None,None,2,0.7336318492889404,None,,,,,0,0,0,0,0,75,75,159,265.8375017642975,,,,,,,,,,,,,,,,,,,,,,,,,,,,,,,,,,,,,,,,,,,,,,,,,,,,,,,,,,,,,,,,,,,,,,,,,,,,,,,,,131.51657691831798,77.27896376541833,197.06068181349127,120.52854187734845,66.31145408799188,100.8189298618147,1.0,1.2,-195,-12,0,17,207,-3,265.8244843482971,265.824590921402,265.8280794620514,265.8375017642975,265.98903608322144,265.98903608322144,265.98903608322144,265.98903608322144,265.98903608322144,265.98903608322144,265.98903608322144,266.57359170913696,2,0.7336318492889404,None,,,,,,,,,,,,,,,,,,33,2,2025-02-19_11h21.09.216,comp,2024.2.4,53.324179631232944,2025-02-19 11h21.29.659607 -0500,
76,76,0,critical,dhw,20.0,1.0,upper,141.0,141.0,200.0,125.0,125.0,200.0,3,1.8526544570922852,None,,,,,0,0,0,0,0,76,76,55,266.5900139808655,,,,,,,,,,,,,,,,,,,,,,,,,,,,,,,,,,,,,,,,,,,,,,,,,,,,,,,,,,,,,,,,,,,,,,,,,,,,,,,,,141.0,141.0,200.0,125.0,125.0,200.0,1.0,1.2,-229,6,0,-2,258,11,266.5750906467438,266.575168132782,266.57858967781067,266.5900139808655,266.7399115562439,266.7399115562439,266.7399115562439,266.7399115562439,266.7399115562439,266.7399115562439,266.7399115562439,268.4565055370331,3,1.8526544570922852,None,,,,,,,,,,,,,,,,,,33,2,2025-02-19_11h21.09.216,comp,2024.2.4,53.324179631232944,2025-02-19 11h21.29.659607 -0500,
77,77,0,filler_square,None,None,None,None,None,None,None,None,None,None,3,1.2570486068725586,None,,,,,0,0,0,0,0,77,77,173,268.4737651348114,,,,,,,,,,,,,,,,,,,,,,,,,,,,,,,,,,,,,,,,,,,,,,,,,,,,,,,,,,,,,,,,,,,,,,,,,,,,,,,,,87.99653565070528,72.82003705460134,88.74020174001136,92.11959506455648,113.21014158532049,113.21014158532049,1.0,1.1,-658,260,-480,273,-281,256,268.4583601951599,268.4584403038025,268.46190428733826,268.4737651348114,268.6116282939911,268.6116282939911,268.6116282939911,268.6116282939911,268.6116282939911,268.6116282939911,268.6116282939911,269.7348840236664,3,1.2570486068725586,None,,,,,,,,,,,,,,,,,,33,2,2025-02-19_11h21.09.216,comp,2024.2.4,53.324179631232944,2025-02-19 11h21.29.659607 -0500,
78,78,0,critical,hdw,20.0,2.1,lower,133.0,57.0,78.0,78.0,57.0,133.0,3,1.8626642227172852,None,,,,,0,0,0,0,0,78,78,46,269.75598883628845,,,,,,,,,,,,,,,,,,,,,,,,,,,,,,,,,,,,,,,,,,,,,,,,,,,,,,,,,,,,,,,,,,,,,,,,,,,,,,,,,133.0,57.0,78.0,78.0,57.0,133.0,2.1,2.11,-164,275,0,286,202,-254,269.7364752292633,269.7365527153015,269.740207195282,269.75598883628845,269.8916039466858,269.8916039466858,269.8916039466858,269.8916039466858,269.8916039466858,269.8916039466858,269.8916039466858,271.6330828666687,3,1.8626642227172852,None,,,,,,,,,,,,,,,,,,33,2,2025-02-19_11h21.09.216,comp,2024.2.4,53.324179631232944,2025-02-19 11h21.29.659607 -0500,
79,79,0,critical,hwd,20.0,3.0,lower,133.0,57.0,57.0,133.0,78.0,78.0,3,1.5544657707214355,None,,,,,0,0,0,0,0,79,79,104,271.6482331752777,,,,,,,,,,,,,,,,,,,,,,,,,,,,,,,,,,,,,,,,,,,,,,,,,,,,,,,,,,,,,,,,,,,,,,,,,,,,,,,,,133.0,57.0,57.0,133.0,78.0,78.0,3.0,3.1,-191,265,0,-16,202,-274,271.63458800315857,271.6346709728241,271.6379084587097,271.6482331752777,271.7889335155487,271.7889335155487,271.7889335155487,271.7889335155487,271.7889335155487,271.7889335155487,271.7889335155487,273.2127015590668,3,1.5544657707214355,None,,,,,,,,,,,,,,,,,,33,2,2025-02-19_11h21.09.216,comp,2024.2.4,53.324179631232944,2025-02-19 11h21.29.659607 -0500,
80,80,0,critical,whd,20.0,1.0,upper,125.0,200.0,200.0,125.0,141.0,141.0,2,0.7884831428527832,None,,,,,0,0,0,0,0,80,80,91,273.2309362888336,,,,,,,,,,,,,,,,,,,,,,,,,,,,,,,,,,,,,,,,,,,,,,,,,,,,,,,,,,,,,,,,,,,,,,,,,,,,,,,,,125.0,200.0,200.0,125.0,141.0,141.0,1.0,1.2,-258,-17,0,8,229,10,273.21464490890503,273.2147240638733,273.2179522514343,273.2309362888336,273.37179493904114,273.37179493904114,273.37179493904114,273.37179493904114,273.37179493904114,273.37179493904114,273.37179493904114,274.0256521701813,2,0.7884831428527832,None,,,,,,,,,,,,,,,,,,33,2,2025-02-19_11h21.09.216,comp,2024.2.4,53.324179631232944,2025-02-19 11h21.29.659607 -0500,
81,81,0,critical,hdw,35.0,3.0,upper,200.0,125.0,127.0,127.0,125.0,200.0,3,0.9525551795959473,None,,,,,0,0,0,0,0,81,81,111,274.04236674308777,,,,,,,,,,,,,,,,,,,,,,,,,,,,,,,,,,,,,,,,,,,,,,,,,,,,,,,,,,,,,,,,,,,,,,,,,,,,,,,,,200.0,125.0,127.0,127.0,125.0,200.0,3.0,3.1,-222,261,0,16,260,-284,274.0272355079651,274.0273132324219,274.0316548347473,274.04236674308777,274.19244742393494,274.19244742393494,274.19244742393494,274.19244742393494,274.19244742393494,274.19244742393494,274.19244742393494,275.00931215286255,3,0.9525551795959473,None,,,,,,,,,,,,,,,,,,33,2,2025-02-19_11h21.09.216,comp,2024.2.4,53.324179631232944,2025-02-19 11h21.29.659607 -0500,
82,82,0,critical,whd,35.0,2.1,upper,125.0,200.0,200.0,125.0,127.0,127.0,2,0.8494284152984619,None,,,,,0,0,0,0,0,82,82,13,275.0257842540741,,,,,,,,,,,,,,,,,,,,,,,,,,,,,,,,,,,,,,,,,,,,,,,,,,,,,,,,,,,,,,,,,,,,,,,,,,,,,,,,,125.0,200.0,200.0,125.0,127.0,127.0,2.1,2.11,-258,270,0,268,222,-270,275.01085019111633,275.01092410087585,275.0153341293335,275.0257842540741,275.17447233200073,275.17447233200073,275.17447233200073,275.17447233200073,275.17447233200073,275.17447233200073,275.17447233200073,275.8775339126587,2,0.8494284152984619,None,,,,,,,,,,,,,,,,,,33,2,2025-02-19_11h21.09.216,comp,2024.2.4,53.324179631232944,2025-02-19 11h21.29.659607 -0500,
83,83,0,critical,wdh,35.0,4.0,upper,125.0,200.0,127.0,127.0,200.0,125.0,1,1.580718755722046,None,,,,,0,0,0,0,0,83,83,77,275.89432764053345,,,,,,,,,,,,,,,,,,,,,,,,,,,,,,,,,,,,,,,,,,,,,,,,,,,,,,,,,,,,,,,,,,,,,,,,,,,,,,,,,125.0,200.0,127.0,127.0,200.0,125.0,4.0,4.2,-260,-9,0,-267,222,-16,275.87918615341187,275.87930846214294,275.88316464424133,275.89432764053345,276.04190373420715,276.04190373420715,276.04190373420715,276.04190373420715,276.04190373420715,276.04190373420715,276.04190373420715,277.4785463809967,1,1.580718755722046,None,,,,,,,,,,,,,,,,,,33,2,2025-02-19_11h21.09.216,comp,2024.2.4,53.324179631232944,2025-02-19 11h21.29.659607 -0500,
84,84,0,critical,dhw,35.0,1.0,upper,127.0,127.0,200.0,125.0,125.0,200.0,3,1.3641889095306396,None,,,,,0,0,0,0,0,84,84,49,277.4950726032257,,,,,,,,,,,,,,,,,,,,,,,,,,,,,,,,,,,,,,,,,,,,,,,,,,,,,,,,,,,,,,,,,,,,,,,,,,,,,,,,,127.0,127.0,200.0,125.0,125.0,200.0,1.0,1.2,-222,-10,0,-5,258,-1,277.4802212715149,277.48036003112793,277.4843189716339,277.4950726032257,277.6445941925049,277.6445941925049,277.6445941925049,277.6445941925049,277.6445941925049,277.6445941925049,277.6445941925049,278.86174726486206,3,1.3641889095306396,None,,,,,,,,,,,,,,,,,,33,2,2025-02-19_11h21.09.216,comp,2024.2.4,53.324179631232944,2025-02-19 11h21.29.659607 -0500,
85,85,0,critical,hwd,35.0,2.1,upper,200.0,125.0,125.0,200.0,127.0,127.0,2,0.8360304832458496,None,,,,,0,0,0,0,0,85,85,41,278.8786494731903,,,,,,,,,,,,,,,,,,,,,,,,,,,,,,,,,,,,,,,,,,,,,,,,,,,,,,,,,,,,,,,,,,,,,,,,,,,,,,,,,200.0,125.0,125.0,200.0,127.0,127.0,2.1,2.11,-258,257,0,285,260,-270,278.86338663101196,278.86347222328186,278.8675014972687,278.8786494731903,279.03170371055603,279.03170371055603,279.03170371055603,279.03170371055603,279.03170371055603,279.03170371055603,279.03170371055603,279.7279806137085,2,0.8360304832458496,None,,,,,,,,,,,,,,,,,,33,2,2025-02-19_11h21.09.216,comp,2024.2.4,53.324179631232944,2025-02-19 11h21.29.659607 -0500,
86,86,0,critical,dwh,20.0,4.0,lower,78.0,78.0,57.0,133.0,133.0,57.0,1,1.3703758716583252,None,,,,,0,0,0,0,0,86,86,70,279.74445962905884,,,,,,,,,,,,,,,,,,,,,,,,,,,,,,,,,,,,,,,,,,,,,,,,,,,,,,,,,,,,,,,,,,,,,,,,,,,,,,,,,78.0,78.0,57.0,133.0,133.0,57.0,4.0,4.2,-202,9,0,-272,191,-1,279.7294759750366,279.72957587242126,279.73296189308167,279.74445962905884,279.89564538002014,279.89564538002014,279.89564538002014,279.89564538002014,279.89564538002014,279.89564538002014,279.89564538002014,281.12920808792114,1,1.3703758716583252,None,,,,,,,,,,,,,,,,,,33,2,2025-02-19_11h21.09.216,comp,2024.2.4,53.324179631232944,2025-02-19 11h21.29.659607 -0500,
87,87,0,filler_random,None,None,None,None,None,None,None,None,None,None,1,1.3293535709381104,None,,,,,0,0,0,0,0,87,87,169,281.14526772499084,,,,,,,,,,,,,,,,,,,,,,,,,,,,,,,,,,,,,,,,,,,,,,,,,,,,,,,,,,,,,,,,,,,,,,,,,,,,,,,,,197.19522671485421,75.61474318313333,73.91124149431747,193.84864823497648,144.78574941613752,129.86821407068635,4.0,4.2,-231,-9,0,-278,258,12,281.1309747695923,281.1310760974884,281.1348910331726,281.14526772499084,281.2952489852905,281.2952489852905,281.2952489852905,281.2952489852905,281.2952489852905,281.2952489852905,281.2952489852905,282.47864031791687,1,1.3293535709381104,None,,,,,,,,,,,,,,,,,,33,2,2025-02-19_11h21.09.216,comp,2024.2.4,53.324179631232944,2025-02-19 11h21.29.659607 -0500,
88,88,0,critical,whd,20.0,2.1,lower,57.0,133.0,133.0,57.0,78.0,78.0,3,1.220036506652832,None,,,,,0,0,0,0,0,88,88,14,282.4946565628052,,,,,,,,,,,,,,,,,,,,,,,,,,,,,,,,,,,,,,,,,,,,,,,,,,,,,,,,,,,,,,,,,,,,,,,,,,,,,,,,,57.0,133.0,133.0,57.0,78.0,78.0,2.1,2.11,-191,278,0,286,164,-270,282.48014068603516,282.48021697998047,282.4839537143707,282.4946565628052,282.6443672180176,282.6443672180176,282.6443672180176,282.6443672180176,282.6443672180176,282.6443672180176,282.6443672180176,283.7267906665802,3,1.220036506652832,None,,,,,,,,,,,,,,,,,,33,2,2025-02-19_11h21.09.216,comp,2024.2.4,53.324179631232944,2025-02-19 11h21.29.659607 -0500,
89,89,0,filler_square,None,None,None,None,None,None,None,None,None,None,3,1.1396682262420654,None,,,,,0,0,0,0,0,89,89,199,283.7429838180542,,,,,,,,,,,,,,,,,,,,,,,,,,,,,,,,,,,,,,,,,,,,,,,,,,,,,,,,,,,,,,,,,,,,,,,,,,,,,,,,,95.99248567252044,143.3085288420744,170.18890374917987,163.040064073407,175.3502264805646,175.3502264805646,3.0,3.2,-249,-271,0,15,265,271,283.7285318374634,283.7286283969879,283.7318193912506,283.7429838180542,283.88083696365356,283.88083696365356,283.88083696365356,283.88083696365356,283.88083696365356,283.88083696365356,283.88083696365356,284.8982229232788,3,1.1396682262420654,None,,,,,,,,,,,,,,,,,,33,2,2025-02-19_11h21.09.216,comp,2024.2.4,53.324179631232944,2025-02-19 11h21.29.659607 -0500,
90,90,0,filler_square,None,None,None,None,None,None,None,None,None,None,1,1.1833579540252686,None,,,,,0,0,0,0,0,90,90,209,284.91524362564087,,,,,,,,,,,,,,,,,,,,,,,,,,,,,,,,,,,,,,,,,,,,,,,,,,,,,,,,,,,,,,,,,,,,,,,,,,,,,,,,,142.42888656050758,142.42888656050758,135.87396576462834,74.27163045410276,116.92337387753048,119.7566665268013,2.1,2.12,-204,-284,0,-274,193,254,284.90068340301514,284.9007661342621,284.90406942367554,284.91524362564087,285.0656442642212,285.0656442642212,285.0656442642212,285.0656442642212,285.0656442642212,285.0656442642212,285.0656442642212,286.1116120815277,1,1.1833579540252686,None,,,,,,,,,,,,,,,,,,33,2,2025-02-19_11h21.09.216,comp,2024.2.4,53.324179631232944,2025-02-19 11h21.29.659607 -0500,
91,91,0,filler_random,None,None,None,None,None,None,None,None,None,None,2,1.018444538116455,None,,,,,0,0,0,0,0,91,91,132,286.1282374858856,,,,,,,,,,,,,,,,,,,,,,,,,,,,,,,,,,,,,,,,,,,,,,,,,,,,,,,,,,,,,,,,,,,,,,,,,,,,,,,,,62.03107333787328,78.51808349253736,176.1316087167164,129.11102830724957,62.36674135213618,199.74657899326002,2.1,2.12,-200,-256,0,-285,260,287,286.11330676078796,286.11338353157043,286.1169083118439,286.1282374858856,286.26870608329773,286.26870608329773,286.26870608329773,286.26870608329773,286.26870608329773,286.26870608329773,286.26870608329773,287.1627666950226,2,1.018444538116455,None,,,,,,,,,,,,,,,,,,33,2,2025-02-19_11h21.09.216,comp,2024.2.4,53.324179631232944,2025-02-19 11h21.29.659607 -0500,
92,92,0,critical,hwd,35.0,2.1,lower,133.0,57.0,57.0,133.0,70.0,70.0,3,1.6805412769317627,None,,,,,0,0,0,0,0,92,92,16,287.1785159111023,,,,,,,,,,,,,,,,,,,,,,,,,,,,,,,,,,,,,,,,,,,,,,,,,,,,,,,,,,,,,,,,,,,,,,,,,,,,,,,,,133.0,57.0,57.0,133.0,70.0,70.0,2.1,2.12,-191,-271,0,-279,198,277,287.1643099784851,287.16438460350037,287.1681785583496,287.1785159111023,287.33646297454834,287.33646297454834,287.33646297454834,287.33646297454834,287.33646297454834,287.33646297454834,287.33646297454834,288.8637070655823,3,1.6805412769317627,None,,,,,,,,,,,,,,,,,,33,2,2025-02-19_11h21.09.216,comp,2024.2.4,53.324179631232944,2025-02-19 11h21.29.659607 -0500,
93,93,0,critical,dhw,35.0,2.1,upper,127.0,127.0,200.0,125.0,125.0,200.0,2,0.8662679195404053,None,,,,,0,0,0,0,0,93,93,25,288.88045859336853,,,,,,,,,,,,,,,,,,,,,,,,,,,,,,,,,,,,,,,,,,,,,,,,,,,,,,,,,,,,,,,,,,,,,,,,,,,,,,,,,127.0,127.0,200.0,125.0,125.0,200.0,2.1,2.11,-222,283,0,257,258,-267,288.8652687072754,288.8653476238251,288.8697111606598,288.88045859336853,289.0271155834198,289.0271155834198,289.0271155834198,289.0271155834198,289.0271155834198,289.0271155834198,289.0271155834198,289.7489356994629,2,0.8662679195404053,None,,,,,,,,,,,,,,,,,,33,2,2025-02-19_11h21.09.216,comp,2024.2.4,53.324179631232944,2025-02-19 11h21.29.659607 -0500,
94,94,0,critical,dhw,35.0,2.1,upper,127.0,127.0,200.0,125.0,125.0,200.0,3,0.7970871925354004,None,,,,,0,0,0,0,0,94,94,1,289.7656056880951,,,,,,,,,,,,,,,,,,,,,,,,,,,,,,,,,,,,,,,,,,,,,,,,,,,,,,,,,,,,,,,,,,,,,,,,,,,,,,,,,127.0,127.0,200.0,125.0,125.0,200.0,2.1,2.12,-222,-265,0,-269,258,278,289.7506697177887,289.75075006484985,289.7548336982727,289.7656056880951,289.92108130455017,289.92108130455017,289.92108130455017,289.92108130455017,289.92108130455017,289.92108130455017,289.92108130455017,290.5837116241455,3,0.7970871925354004,None,,,,,,,,,,,,,,,,,,33,2,2025-02-19_11h21.09.216,comp,2024.2.4,53.324179631232944,2025-02-19 11h21.29.659607 -0500,
95,95,0,critical,whd,20.0,2.1,lower,57.0,133.0,133.0,57.0,78.0,78.0,3,1.5939521789550781,None,,,,,0,0,0,0,0,95,95,38,290.60116314888,,,,,,,,,,,,,,,,,,,,,,,,,,,,,,,,,,,,,,,,,,,,,,,,,,,,,,,,,,,,,,,,,,,,,,,,,,,,,,,,,57.0,133.0,133.0,57.0,78.0,78.0,2.1,2.12,-191,-256,0,-281,164,273,290.5852224826813,290.5852994918823,290.5887186527252,290.60116314888,290.7472138404846,290.7472138404846,290.7472138404846,290.7472138404846,290.7472138404846,290.7472138404846,290.7472138404846,292.1987028121948,3,1.5939521789550781,None,,,,,,,,,,,,,,,,,,33,2,2025-02-19_11h21.09.216,comp,2024.2.4,53.324179631232944,2025-02-19 11h21.29.659607 -0500,
96,96,0,filler_random,None,None,None,None,None,None,None,None,None,None,2,0.8756134510040283,None,,,,,0,0,0,0,0,96,96,152,292.21527671813965,,,,,,,,,,,,,,,,,,,,,,,,,,,,,,,,,,,,,,,,,,,,,,,,,,,,,,,,,,,,,,,,,,,,,,,,,,,,,,,,,158.874344402263,135.34087285079488,147.66241114721709,187.37429288378766,173.5838820497591,173.51450217739546,1.0,1.2,-257,-15,0,19,276,6,292.2003448009491,292.2004256248474,292.20392203330994,292.21527671813965,292.368864774704,292.368864774704,292.368864774704,292.368864774704,292.368864774704,292.368864774704,292.368864774704,293.0997292995453,2,0.8756134510040283,None,,,,,,,,,,,,,,,,,,33,2,2025-02-19_11h21.09.216,comp,2024.2.4,53.324179631232944,2025-02-19 11h21.29.659607 -0500,
97,97,0,filler_square,None,None,None,None,None,None,None,None,None,None,2,0.7171154022216797,None,,,,,0,0,0,0,0,97,97,198,293.11764574050903,,,,,,,,,,,,,,,,,,,,,,,,,,,,,,,,,,,,,,,,,,,,,,,,,,,,,,,,,,,,,,,,,,,,,,,,,,,,,,,,,100.65514376279536,96.95938515530496,160.30769194022588,160.30769194022588,94.93590485707132,110.48566093632738,3.0,3.1,-225,269,0,14,231,-252,293.10180592536926,293.1018896102905,293.10600304603577,293.11764574050903,293.2635314464569,293.2635314464569,293.2635314464569,293.2635314464569,293.2635314464569,293.2635314464569,293.2635314464569,293.84982419013977,2,0.7171154022216797,None,,,,,,,,,,,,,,,,,,33,2,2025-02-19_11h21.09.216,comp,2024.2.4,53.324179631232944,2025-02-19 11h21.29.659607 -0500,
98,98,0,critical,wdh,35.0,3.0,lower,57.0,133.0,70.0,70.0,133.0,57.0,2,1.48203706741333,None,,,,,0,0,0,0,0,98,98,74,293.86532187461853,,,,,,,,,,,,,,,,,,,,,,,,,,,,,,,,,,,,,,,,,,,,,,,,,,,,,,,,,,,,,,,,,,,,,,,,,,,,,,,,,57.0,133.0,70.0,70.0,133.0,57.0,3.0,3.2,-198,-265,0,14,160,278,293.8514153957367,293.8514950275421,293.8550841808319,293.86532187461853,294.01883935928345,294.01883935928345,294.01883935928345,294.01883935928345,294.01883935928345,294.01883935928345,294.01883935928345,295.3538615703583,2,1.48203706741333,None,,,,,,,,,,,,,,,,,,33,2,2025-02-19_11h21.09.216,comp,2024.2.4,53.324179631232944,2025-02-19 11h21.29.659607 -0500,
99,99,0,filler_random,None,None,None,None,None,None,None,None,None,None,2,1.2426204681396484,None,,,,,0,0,0,0,0,99,99,154,295.36837553977966,,,,,,,,,,,,,,,,,,,,,,,,,,,,,,,,,,,,,,,,,,,,,,,,,,,,,,,,,,,,,,,,,,,,,,,,,,,,,,,,,172.68393226749856,91.30013597994795,174.79502341314702,176.07215628487043,184.73489802513186,66.50638805261022,4.0,4.2,-230,-5,0,-274,217,3,295.35554456710815,295.3556444644928,295.3589081764221,295.36837553977966,295.5184109210968,295.5184109210968,295.5184109210968,295.5184109210968,295.5184109210968,295.5184109210968,295.5184109210968,296.6151385307312,2,1.2426204681396484,None,,,,,,,,,,,,,,,,,,33,2,2025-02-19_11h21.09.216,comp,2024.2.4,53.324179631232944,2025-02-19 11h21.29.659607 -0500,
100,100,0,critical,whd,35.0,3.0,upper,125.0,200.0,200.0,125.0,127.0,127.0,1,1.5636804103851318,None,,,,,0,0,0,0,0,100,100,87,296.6315987110138,,,,,,,,,,,,,,,,,,,,,,,,,,,,,,,,,,,,,,,,,,,,,,,,,,,,,,,,,,,,,,,,,,,,,,,,,,,,,,,,,125.0,200.0,200.0,125.0,127.0,127.0,3.0,3.2,-258,-257,0,-7,222,280,296.6166388988495,296.6167142391205,296.6200201511383,296.6315987110138,296.7822380065918,296.7822380065918,296.7822380065918,296.7822380065918,296.7822380065918,296.7822380065918,296.7822380065918,298.2033576965332,1,1.5636804103851318,None,,,,,,,,,,,,,,,,,,33,2,2025-02-19_11h21.09.216,comp,2024.2.4,53.324179631232944,2025-02-19 11h21.29.659607 -0500,
101,101,0,filler_random,None,None,None,None,None,None,None,None,None,None,1,1.547118902206421,None,,,,,0,0,0,0,0,101,101,161,298.2234845161438,,,,,,,,,,,,,,,,,,,,,,,,,,,,,,,,,,,,,,,,,,,,,,,,,,,,,,,,,,,,,,,,,,,,,,,,,,,,,,,,,139.8683839289056,153.23168983197752,157.35658028463644,96.70868156719723,164.80532533789597,161.72690672489642,2.2,2.22,-221,281,0,-278,225,-272,298.20512557029724,298.2052011489868,298.20844197273254,298.2234845161438,298.366956949234,298.366956949234,298.366956949234,298.366956949234,298.366956949234,298.366956949234,298.366956949234,299.78883028030396,1,1.547118902206421,None,,,,,,,,,,,,,,,,,,33,2,2025-02-19_11h21.09.216,comp,2024.2.4,53.324179631232944,2025-02-19 11h21.29.659607 -0500,
102,102,0,critical,wdh,20.0,2.1,lower,57.0,133.0,78.0,78.0,133.0,57.0,2,1.514923334121704,None,,,,,0,0,0,0,0,102,102,34,299.8088927268982,,,,,,,,,,,,,,,,,,,,,,,,,,,,,,,,,,,,,,,,,,,,,,,,,,,,,,,,,,,,,,,,,,,,,,,,,,,,,,,,,57.0,133.0,78.0,78.0,133.0,57.0,2.1,2.11,-202,266,0,259,164,-258,299.7903172969818,299.79039216041565,299.79361844062805,299.8088927268982,299.949814081192,299.949814081192,299.949814081192,299.949814081192,299.949814081192,299.949814081192,299.949814081192,301.33259081840515,2,1.514923334121704,None,,,,,,,,,,,,,,,,,,33,2,2025-02-19_11h21.09.216,comp,2024.2.4,53.324179631232944,2025-02-19 11h21.29.659607 -0500,
103,103,0,filler_random,None,None,None,None,None,None,None,None,None,None,2,0.7695655822753906,None,,,,,0,0,0,0,0,103,103,133,301.35309076309204,,,,,,,,,,,,,,,,,,,,,,,,,,,,,,,,,,,,,,,,,,,,,,,,,,,,,,,,,,,,,,,,,,,,,,,,,,,,,,,,,191.28573124288786,74.80344459223716,190.56684345125151,161.67668845289205,108.10044118854263,109.99351264510759,2.1,2.11,-214,253,0,283,232,-259,301.3342344760895,301.33431029319763,301.3375108242035,301.35309076309204,301.50321340560913,301.50321340560913,301.50321340560913,301.50321340560913,301.50321340560913,301.50321340560913,301.50321340560913,302.13270235061646,2,0.7695655822753906,None,,,,,,,,,,,,,,,,,,33,2,2025-02-19_11h21.09.216,comp,2024.2.4,53.324179631232944,2025-02-19 11h21.29.659607 -0500,
104,104,0,critical,hwd,20.0,4.0,upper,200.0,125.0,125.0,200.0,141.0,141.0,2,0.9499683380126953,None,,,,,0,0,0,0,0,104,104,107,302.14918398857117,,,,,,,,,,,,,,,,,,,,,,,,,,,,,,,,,,,,,,,,,,,,,,,,,,,,,,,,,,,,,,,,,,,,,,,,,,,,,,,,,200.0,125.0,125.0,200.0,141.0,141.0,4.0,4.2,-258,13,0,-258,266,-8,302.1341576576233,302.1342349052429,302.137508392334,302.14918398857117,302.3111126422882,302.3111126422882,302.3111126422882,302.3111126422882,302.3111126422882,302.3111126422882,302.3111126422882,303.117463350296,2,0.9499683380126953,None,,,,,,,,,,,,,,,,,,33,2,2025-02-19_11h21.09.216,comp,2024.2.4,53.324179631232944,2025-02-19 11h21.29.659607 -0500,
105,105,0,critical,hwd,35.0,2.1,lower,133.0,57.0,57.0,133.0,70.0,70.0,3,1.226301908493042,None,,,,,0,0,0,0,0,105,105,40,303.1372547149658,,,,,,,,,,,,,,,,,,,,,,,,,,,,,,,,,,,,,,,,,,,,,,,,,,,,,,,,,,,,,,,,,,,,,,,,,,,,,,,,,133.0,57.0,57.0,133.0,70.0,70.0,2.1,2.11,-191,264,0,282,198,-262,303.1189866065979,303.1190586090088,303.12270736694336,303.1372547149658,303.28491258621216,303.28491258621216,303.28491258621216,303.28491258621216,303.28491258621216,303.28491258621216,303.28491258621216,304.36877369880676,3,1.226301908493042,None,,,,,,,,,,,,,,,,,,33,2,2025-02-19_11h21.09.216,comp,2024.2.4,53.324179631232944,2025-02-19 11h21.29.659607 -0500,
106,106,0,critical,hdw,35.0,2.1,upper,200.0,125.0,127.0,127.0,125.0,200.0,3,1.3125593662261963,None,,,,,0,0,0,0,0,106,106,21,304.3860785961151,,,,,,,,,,,,,,,,,,,,,,,,,,,,,,,,,,,,,,,,,,,,,,,,,,,,,,,,,,,,,,,,,,,,,,,,,,,,,,,,,200.0,125.0,127.0,127.0,125.0,200.0,2.1,2.11,-222,279,0,289,260,-256,304.37037897109985,304.3704559803009,304.3748924732208,304.3860785961151,304.5403392314911,304.5403392314911,304.5403392314911,304.5403392314911,304.5403392314911,304.5403392314911,304.5403392314911,305.70944833755493,3,1.3125593662261963,None,,,,,,,,,,,,,,,,,,33,2,2025-02-19_11h21.09.216,comp,2024.2.4,53.324179631232944,2025-02-19 11h21.29.659607 -0500,
107,107,0,critical,wdh,35.0,3.0,upper,125.0,200.0,127.0,127.0,200.0,125.0,3,1.253857135772705,None,,,,,0,0,0,0,0,107,107,75,305.7257089614868,,,,,,,,,,,,,,,,,,,,,,,,,,,,,,,,,,,,,,,,,,,,,,,,,,,,,,,,,,,,,,,,,,,,,,,,,,,,,,,,,125.0,200.0,127.0,127.0,200.0,125.0,3.0,3.1,-260,256,0,-20,222,-286,305.71110129356384,305.71118235588074,305.71482157707214,305.7257089614868,305.87078070640564,305.87078070640564,305.87078070640564,305.87078070640564,305.87078070640564,305.87078070640564,305.87078070640564,306.9829227924347,3,1.253857135772705,None,,,,,,,,,,,,,,,,,,33,2,2025-02-19_11h21.09.216,comp,2024.2.4,53.324179631232944,2025-02-19 11h21.29.659607 -0500,
108,108,0,filler_square,None,None,None,None,None,None,None,None,None,None,3,2.650153875350952,None,,,,,0,0,0,0,0,108,108,193,307.00053572654724,,,,,,,,,,,,,,,,,,,,,,,,,,,,,,,,,,,,,,,,,,,,,,,,,,,,,,,,,,,,,,,,,,,,,,,,,,,,,,,,,73.21166858753807,75.84284859268936,61.700961544382956,68.395675022459,75.99945986786234,75.99945986786234,4.0,4.2,-168,20,0,-272,168,11,306.98479771614075,306.98492527008057,306.988440990448,307.00053572654724,307.1417546272278,307.1417546272278,307.1417546272278,307.1417546272278,307.1417546272278,307.1417546272278,307.1417546272278,309.6540548801422,3,2.650153875350952,None,,,,,,,,,,,,,,,,,,33,2,2025-02-19_11h21.09.216,comp,2024.2.4,53.324179631232944,2025-02-19 11h21.29.659607 -0500,
109,109,0,catch,None,None,None,None,None,None,None,None,None,None,2,1.8466744422912598,None,,,,,0,0,0,0,0,109,109,127,309.67599296569824,,,,,,,,,,,,,,,,,,,,,,,,,,,,,,,,,,,,,,,,,,,,,,,,,,,,,,,,,,,,,,,,,,,,,,,,,,,,,,,,,106,84,161,164,65,125,2.2,2.22,-220,274,0,-275,240,-255,309.65619468688965,309.6562738418579,309.66018438339233,309.67599296569824,309.82429099082947,309.82429099082947,309.82429099082947,309.82429099082947,309.82429099082947,309.82429099082947,309.82429099082947,311.5366179943085,2,1.8466744422912598,None,,,,,,,,,,,,,,,,,,33,2,2025-02-19_11h21.09.216,comp,2024.2.4,53.324179631232944,2025-02-19 11h21.29.659607 -0500,
110,110,0,filler_square,None,None,None,None,None,None,None,None,None,None,2,1.6877758502960205,None,,,,,0,0,0,0,0,110,110,202,311.5632526874542,,,,,,,,,,,,,,,,,,,,,,,,,,,,,,,,,,,,,,,,,,,,,,,,,,,,,,,,,,,,,,,,,,,,,,,,,,,,,,,,,90.95791081991408,129.43627754706122,133.85488798113158,133.85488798113158,132.88324540264117,99.2300785419393,3.0,3.1,-228,259,0,16,213,-288,311.53841972351074,311.5384929180145,311.54202818870544,311.5632526874542,311.7048192024231,311.7048192024231,311.7048192024231,311.7048192024231,311.7048192024231,311.7048192024231,311.7048192024231,313.25353622436523,2,1.6877758502960205,None,,,,,,,,,,,,,,,,,,33,2,2025-02-19_11h21.09.216,comp,2024.2.4,53.324179631232944,2025-02-19 11h21.29.659607 -0500,
111,111,0,filler_random,None,None,None,None,None,None,None,None,None,None,2,1.3331201076507568,None,,,,,0,0,0,0,0,111,111,137,313.2696204185486,,,,,,,,,,,,,,,,,,,,,,,,,,,,,,,,,,,,,,,,,,,,,,,,,,,,,,,,,,,,,,,,,,,,,,,,,,,,,,,,,74.67200213436493,99.04342866921503,179.89801619081538,94.49044783848595,132.76539664636323,91.25441585654522,1.0,1.2,-193,-6,0,-13,189,3,313.255300283432,313.25537943840027,313.2589738368988,313.2696204185486,313.41799998283386,313.41799998283386,313.41799998283386,313.41799998283386,313.41799998283386,313.41799998283386,313.41799998283386,314.61394143104553,2,1.3331201076507568,None,,,,,,,,,,,,,,,,,,33,2,2025-02-19_11h21.09.216,comp,2024.2.4,53.324179631232944,2025-02-19 11h21.29.659607 -0500,
112,112,0,critical,hdw,20.0,3.0,upper,200.0,125.0,141.0,141.0,125.0,200.0,2,1.5810036659240723,None,,,,,0,0,0,0,0,112,112,117,314.6298518180847,,,,,,,,,,,,,,,,,,,,,,,,,,,,,,,,,,,,,,,,,,,,,,,,,,,,,,,,,,,,,,,,,,,,,,,,,,,,,,,,,200.0,125.0,141.0,141.0,125.0,200.0,3.0,3.2,-229,-286,0,6,266,255,314.61543679237366,314.615517616272,314.6187689304352,314.6298518180847,314.77942848205566,314.77942848205566,314.77942848205566,314.77942848205566,314.77942848205566,314.77942848205566,314.77942848205566,316.2211055755615,2,1.5810036659240723,None,,,,,,,,,,,,,,,,,,33,2,2025-02-19_11h21.09.216,comp,2024.2.4,53.324179631232944,2025-02-19 11h21.29.659607 -0500,
113,113,0,filler_square,None,None,None,None,None,None,None,None,None,None,3,1.972970962524414,None,,,,,0,0,0,0,0,113,113,179,316.2382080554962,,,,,,,,,,,,,,,,,,,,,,,,,,,,,,,,,,,,,,,,,,,,,,,,,,,,,,,,,,,,,,,,,,,,,,,,,,,,,,,,,100.68202658317853,100.68202658317853,84.9392710394822,62.73854414022124,94.4492878271493,75.35443241568052,2.2,2.21,-178,-285,0,266,165,275,316.2229495048523,316.22303009033203,316.22661900520325,316.2382080554962,316.38850140571594,316.38850140571594,316.38850140571594,316.38850140571594,316.38850140571594,316.38850140571594,316.38850140571594,318.22744965553284,3,1.972970962524414,None,,,,,,,,,,,,,,,,,,33,2,2025-02-19_11h21.09.216,comp,2024.2.4,53.324179631232944,2025-02-19 11h21.29.659607 -0500,
114,114,0,filler_random,None,None,None,None,None,None,None,None,None,None,2,0.8556919097900391,None,,,,,0,0,0,0,0,114,114,158,318.24490213394165,,,,,,,,,,,,,,,,,,,,,,,,,,,,,,,,,,,,,,,,,,,,,,,,,,,,,,,,,,,,,,,,,,,,,,,,,,,,,,,,,173.1570128569225,102.23953414148549,181.94862613753673,138.96090433819467,60.69982681016664,193.03583991739225,2.2,2.21,-217,-260,0,277,262,262,318.2291293144226,318.2292070388794,318.23240876197815,318.24490213394165,318.39042568206787,318.39042568206787,318.39042568206787,318.39042568206787,318.39042568206787,318.39042568206787,318.39042568206787,319.1031403541565,2,0.8556919097900391,None,,,,,,,,,,,,,,,,,,33,2,2025-02-19_11h21.09.216,comp,2024.2.4,53.324179631232944,2025-02-19 11h21.29.659607 -0500,
115,115,0,filler_random,None,None,None,None,None,None,None,None,None,None,2,0.8509707450866699,None,,,,,0,0,0,0,0,115,115,143,319.12031650543213,,,,,,,,,,,,,,,,,,,,,,,,,,,,,,,,,,,,,,,,,,,,,,,,,,,,,,,,,,,,,,,,,,,,,,,,,,,,,,,,,143.53243101351626,127.29767529589775,99.04842924050355,112.60388362861691,195.27355766470316,69.2741857727124,1.0,1.2,-216,-19,0,5,187,11,319.10490012168884,319.1049771308899,319.10819029808044,319.12031650543213,319.2725155353546,319.2725155353546,319.2725155353546,319.2725155353546,319.2725155353546,319.2725155353546,319.2725155353546,319.9747316837311,2,0.8509707450866699,None,,,,,,,,,,,,,,,,,,33,2,2025-02-19_11h21.09.216,comp,2024.2.4,53.324179631232944,2025-02-19 11h21.29.659607 -0500,
116,116,0,catch,None,None,None,None,None,None,None,None,None,None,2,1.4823267459869385,None,,,,,0,0,0,0,0,116,116,122,319.9924097061157,,,,,,,,,,,,,,,,,,,,,,,,,,,,,,,,,,,,,,,,,,,,,,,,,,,,,,,,,,,,,,,,,,,,,,,,,,,,,,,,,128,62,156,169,74,116,2.1,2.11,-212,281,0,280,238,-277,319.9769356250763,319.9770188331604,319.981214761734,319.9924097061157,320.1409342288971,320.1409342288971,320.1409342288971,320.1409342288971,320.1409342288971,320.1409342288971,320.1409342288971,321.4897449016571,2,1.4823267459869385,None,,,,,,,,,,,,,,,,,,33,2,2025-02-19_11h21.09.216,comp,2024.2.4,53.324179631232944,2025-02-19 11h21.29.659607 -0500,
117,117,0,critical,whd,35.0,1.0,lower,57.0,133.0,133.0,57.0,70.0,70.0,2,1.0138840675354004,None,,,,,0,0,0,0,0,117,117,84,321.50952911376953,,,,,,,,,,,,,,,,,,,,,,,,,,,,,,,,,,,,,,,,,,,,,,,,,,,,,,,,,,,,,,,,,,,,,,,,,,,,,,,,,57.0,133.0,133.0,57.0,70.0,70.0,1.0,1.2,-191,13,0,17,160,-17,321.4911878108978,321.49126172065735,321.49467492103577,321.50952911376953,321.6569058895111,321.6569058895111,321.6569058895111,321.6569058895111,321.6569058895111,321.6569058895111,321.6569058895111,322.5307545661926,2,1.0138840675354004,None,,,,,,,,,,,,,,,,,,33,2,2025-02-19_11h21.09.216,comp,2024.2.4,53.324179631232944,2025-02-19 11h21.29.659607 -0500,
118,118,0,critical,dwh,35.0,3.0,upper,127.0,127.0,125.0,200.0,200.0,125.0,2,0.9268221855163574,None,,,,,0,0,0,0,0,118,118,63,322.5486285686493,,,,,,,,,,,,,,,,,,,,,,,,,,,,,,,,,,,,,,,,,,,,,,,,,,,,,,,,,,,,,,,,,,,,,,,,,,,,,,,,,127.0,127.0,125.0,200.0,200.0,125.0,3.0,3.1,-260,276,0,0,258,-257,322.532244682312,322.53232192993164,322.5354790687561,322.5486285686493,322.6913900375366,322.6913900375366,322.6913900375366,322.6913900375366,322.6913900375366,322.6913900375366,322.6913900375366,323.47889614105225,2,0.9268221855163574,None,,,,,,,,,,,,,,,,,,33,2,2025-02-19_11h21.09.216,comp,2024.2.4,53.324179631232944,2025-02-19 11h21.29.659607 -0500,
119,119,0,critical,hwd,35.0,4.0,lower,133.0,57.0,57.0,133.0,70.0,70.0,2,1.4119389057159424,None,,,,,0,0,0,0,0,119,119,100,323.49531865119934,,,,,,,,,,,,,,,,,,,,,,,,,,,,,,,,,,,,,,,,,,,,,,,,,,,,,,,,,,,,,,,,,,,,,,,,,,,,,,,,,133.0,57.0,57.0,133.0,70.0,70.0,4.0,4.1,-191,-263,0,-17,198,-280,323.4804322719574,323.4805061817169,323.48412013053894,323.49531865119934,323.6401207447052,323.6401207447052,323.6401207447052,323.6401207447052,323.6401207447052,323.6401207447052,323.6401207447052,324.91215991973877,2,1.4119389057159424,None,,,,,,,,,,,,,,,,,,33,2,2025-02-19_11h21.09.216,comp,2024.2.4,53.324179631232944,2025-02-19 11h21.29.659607 -0500,
120,120,0,critical,wdh,20.0,3.0,lower,57.0,133.0,78.0,78.0,133.0,57.0,2,1.2346885204315186,None,,,,,0,0,0,0,0,120,120,80,324.928671836853,,,,,,,,,,,,,,,,,,,,,,,,,,,,,,,,,,,,,,,,,,,,,,,,,,,,,,,,,,,,,,,,,,,,,,,,,,,,,,,,,57.0,133.0,78.0,78.0,133.0,57.0,3.0,3.2,-202,-287,0,-4,164,286,324.9137752056122,324.91385555267334,324.91708302497864,324.928671836853,325.0754110813141,325.0754110813141,325.0754110813141,325.0754110813141,325.0754110813141,325.0754110813141,325.0754110813141,326.17989134788513,2,1.2346885204315186,None,,,,,,,,,,,,,,,,,,33,2,2025-02-19_11h21.09.216,comp,2024.2.4,53.324179631232944,2025-02-19 11h21.29.659607 -0500,
121,121,0,critical,hdw,20.0,4.0,upper,200.0,125.0,141.0,141.0,125.0,200.0,2,1.5234622955322266,None,,,,,0,0,0,0,0,121,121,119,326.2000107765198,,,,,,,,,,,,,,,,,,,,,,,,,,,,,,,,,,,,,,,,,,,,,,,,,,,,,,,,,,,,,,,,,,,,,,,,,,,,,,,,,200.0,125.0,141.0,141.0,125.0,200.0,4.0,4.1,-229,-289,0,13,266,-265,326.1814434528351,326.18152117729187,326.1847825050354,326.2000107765198,326.3435399532318,326.3435399532318,326.3435399532318,326.3435399532318,326.3435399532318,326.3435399532318,326.3435399532318,327.73132491111755,2,1.5234622955322266,None,,,,,,,,,,,,,,,,,,33,2,2025-02-19_11h21.09.216,comp,2024.2.4,53.324179631232944,2025-02-19 11h21.29.659607 -0500,
122,122,0,critical,dhw,20.0,2.1,lower,78.0,78.0,133.0,57.0,57.0,133.0,2,1.0957462787628174,None,,,,,0,0,0,0,0,122,122,26,327.7476227283478,,,,,,,,,,,,,,,,,,,,,,,,,,,,,,,,,,,,,,,,,,,,,,,,,,,,,,,,,,,,,,,,,,,,,,,,,,,,,,,,,78.0,78.0,133.0,57.0,57.0,133.0,2.1,2.12,-164,-257,0,-273,191,254,327.73289227485657,327.7329683303833,327.7361922264099,327.7476227283478,327.8939964771271,327.8939964771271,327.8939964771271,327.8939964771271,327.8939964771271,327.8939964771271,327.8939964771271,328.8500940799713,2,1.0957462787628174,None,,,,,,,,,,,,,,,,,,33,2,2025-02-19_11h21.09.216,comp,2024.2.4,53.324179631232944,2025-02-19 11h21.29.659607 -0500,
123,123,0,critical,dwh,35.0,1.0,upper,127.0,127.0,125.0,200.0,200.0,125.0,2,1.0963692665100098,None,,,,,0,0,0,0,0,123,123,61,328.8664195537567,,,,,,,,,,,,,,,,,,,,,,,,,,,,,,,,,,,,,,,,,,,,,,,,,,,,,,,,,,,,,,,,,,,,,,,,,,,,,,,,,127.0,127.0,125.0,200.0,200.0,125.0,1.0,1.2,-260,-4,0,1,258,11,328.85174322128296,328.8518717288971,328.85541439056396,328.8664195537567,329.01107358932495,329.01107358932495,329.01107358932495,329.01107358932495,329.01107358932495,329.01107358932495,329.01107358932495,329.97775316238403,2,1.0963692665100098,None,,,,,,,,,,,,,,,,,,33,2,2025-02-19_11h21.09.216,comp,2024.2.4,53.324179631232944,2025-02-19 11h21.29.659607 -0500,
124,124,0,critical,hwd,35.0,2.1,upper,200.0,125.0,125.0,200.0,127.0,127.0,2,1.0888981819152832,None,,,,,0,0,0,0,0,124,124,17,329.99384570121765,,,,,,,,,,,,,,,,,,,,,,,,,,,,,,,,,,,,,,,,,,,,,,,,,,,,,,,,,,,,,,,,,,,,,,,,,,,,,,,,,200.0,125.0,125.0,200.0,127.0,127.0,2.1,2.12,-258,-288,0,-275,260,265,329.9793450832367,329.97945761680603,329.9835801124573,329.99384570121765,330.1414804458618,330.1414804458618,330.1414804458618,330.1414804458618,330.1414804458618,330.1414804458618,330.1414804458618,331.092613697052,2,1.0888981819152832,None,,,,,,,,,,,,,,,,,,33,2,2025-02-19_11h21.09.216,comp,2024.2.4,53.324179631232944,2025-02-19 11h21.29.659607 -0500,
125,125,0,catch,None,None,None,None,None,None,None,None,None,None,1,2.1565492153167725,None,,,,,0,0,0,0,0,125,125,124,331.1101644039154,,,,,,,,,,,,,,,,,,,,,,,,,,,,,,,,,,,,,,,,,,,,,,,,,,,,,,,,,,,,,,,,,,,,,,,,,,,,,,,,,184,141,111,79,131,59,3.0,3.1,-206,275,0,-9,165,-272,331.09475016593933,331.0948305130005,331.098673582077,331.1101644039154,331.2589931488037,331.2589931488037,331.2589931488037,331.2589931488037,331.2589931488037,331.2589931488037,331.2589931488037,333.27878189086914,1,2.1565492153167725,None,,,,,,,,,,,,,,,,,,33,2,2025-02-19_11h21.09.216,comp,2024.2.4,53.324179631232944,2025-02-19 11h21.29.659607 -0500,
126,126,0,critical,dhw,35.0,4.0,lower,70.0,70.0,133.0,57.0,57.0,133.0,3,2.4914937019348145,None,,,,,0,0,0,0,0,126,126,52,333.29587268829346,,,,,,,,,,,,,,,,,,,,,,,,,,,,,,,,,,,,,,,,,,,,,,,,,,,,,,,,,,,,,,,,,,,,,,,,,,,,,,,,,70.0,70.0,133.0,57.0,57.0,133.0,4.0,4.2,-160,-8,0,-251,191,-20,333.28035593032837,333.2804584503174,333.28410363197327,333.29587268829346,333.44471073150635,333.44471073150635,333.44471073150635,333.44471073150635,333.44471073150635,333.44471073150635,333.44471073150635,335.79588770866394,3,2.4914937019348145,None,,,,,,,,,,,,,,,,,,33,2,2025-02-19_11h21.09.216,comp,2024.2.4,53.324179631232944,2025-02-19 11h21.29.659607 -0500,
127,127,0,filler_random,None,None,None,None,None,None,None,None,None,None,2,1.4770281314849854,None,,,,,0,0,0,0,0,127,127,144,335.81441473960876,,,,,,,,,,,,,,,,,,,,,,,,,,,,,,,,,,,,,,,,,,,,,,,,,,,,,,,,,,,,,,,,,,,,,,,,,,,,,,,,,146.80293037416675,74.22654264925194,150.39474555091488,139.37700152564713,126.06761636405672,88.16650586059438,2.1,2.12,-203,-271,0,-260,210,269,335.79765009880066,335.79772782325745,335.80133605003357,335.81441473960876,335.9600656032562,335.9600656032562,335.9600656032562,335.9600656032562,335.9600656032562,335.9600656032562,335.9600656032562,337.2991564273834,2,1.4770281314849854,None,,,,,,,,,,,,,,,,,,33,2,2025-02-19_11h21.09.216,comp,2024.2.4,53.324179631232944,2025-02-19 11h21.29.659607 -0500,
128,128,0,filler_square,None,None,None,None,None,None,None,None,None,None,1,1.1938700675964355,None,,,,,0,0,0,0,0,128,128,190,337.3208894729614,,,,,,,,,,,,,,,,,,,,,,,,,,,,,,,,,,,,,,,,,,,,,,,,,,,,,,,,,,,,,,,,,,,,,,,,,,,,,,,,,195.67925566503231,195.67925566503231,80.97312768409006,62.73435633560543,101.04215579419733,179.30958699226264,4.0,4.1,-225,-278,0,14,217,-280,337.30115842819214,337.3012912273407,337.3051643371582,337.3208894729614,337.46191358566284,337.46191358566284,337.46191358566284,337.46191358566284,337.46191358566284,337.46191358566284,337.46191358566284,338.52839708328247,1,1.1938700675964355,None,,,,,,,,,,,,,,,,,,33,2,2025-02-19_11h21.09.216,comp,2024.2.4,53.324179631232944,2025-02-19 11h21.29.659607 -0500,
129,129,0,filler_square,None,None,None,None,None,None,None,None,None,None,2,1.4656145572662354,None,,,,,0,0,0,0,0,129,129,186,338.54531025886536,,,,,,,,,,,,,,,,,,,,,,,,,,,,,,,,,,,,,,,,,,,,,,,,,,,,,,,,,,,,,,,,,,,,,,,,,,,,,,,,,57.60053227684545,78.32281395163812,82.92871948797566,82.92871948797566,72.31455300026875,76.17292160741111,2.1,2.12,-177,-270,0,-259,176,261,338.5303692817688,338.5304481983185,338.5341453552246,338.54531025886536,338.6961407661438,338.6961407661438,338.6961407661438,338.6961407661438,338.6961407661438,338.6961407661438,338.6961407661438,340.0155987739563,2,1.4656145572662354,None,,,,,,,,,,,,,,,,,,33,2,2025-02-19_11h21.09.216,comp,2024.2.4,53.324179631232944,2025-02-19 11h21.29.659607 -0500,
130,130,0,critical,dwh,20.0,2.1,upper,141.0,141.0,125.0,200.0,200.0,125.0,2,1.5441625118255615,None,,,,,0,0,0,0,0,130,130,7,340.0346384048462,,,,,,,,,,,,,,,,,,,,,,,,,,,,,,,,,,,,,,,,,,,,,,,,,,,,,,,,,,,,,,,,,,,,,,,,,,,,,,,,,141.0,141.0,125.0,200.0,200.0,125.0,2.1,2.11,-266,252,0,276,258,-260,340.0174722671509,340.0176405906677,340.0210270881653,340.0346384048462,340.18165826797485,340.18165826797485,340.18165826797485,340.18165826797485,340.18165826797485,340.18165826797485,340.18165826797485,341.58299946784973,2,1.5441625118255615,None,,,,,,,,,,,,,,,,,,33,2,2025-02-19_11h21.09.216,comp,2024.2.4,53.324179631232944,2025-02-19 11h21.29.659607 -0500,
131,131,0,critical,hwd,35.0,3.0,upper,200.0,125.0,125.0,200.0,127.0,127.0,2,1.2491259574890137,None,,,,,0,0,0,0,0,131,131,99,341.6018190383911,,,,,,,,,,,,,,,,,,,,,,,,,,,,,,,,,,,,,,,,,,,,,,,,,,,,,,,,,,,,,,,,,,,,,,,,,,,,,,,,,200.0,125.0,125.0,200.0,127.0,127.0,3.0,3.2,-258,-250,0,-1,260,288,341.58460569381714,341.5846936702728,341.5886561870575,341.6018190383911,341.756121635437,341.756121635437,341.756121635437,341.756121635437,341.756121635437,341.756121635437,341.756121635437,342.85312366485596,2,1.2491259574890137,None,,,,,,,,,,,,,,,,,,33,2,2025-02-19_11h21.09.216,comp,2024.2.4,53.324179631232944,2025-02-19 11h21.29.659607 -0500,
132,132,0,filler_square,None,None,None,None,None,None,None,None,None,None,3,3.9447765350341797,None,,,,,0,0,0,0,0,132,132,187,342.8740403652191,,,,,,,,,,,,,,,,,,,,,,,,,,,,,,,,,,,,,,,,,,,,,,,,,,,,,,,,,,,,,,,,,,,,,,,,,,,,,,,,,93.13195630073501,93.13195630073501,91.37244592849109,78.65321710439002,77.23828324504444,72.29137922516082,2.2,2.22,-182,252,0,-282,171,-283,342.85494685173035,342.8550329208374,342.8582589626312,342.8740403652191,343.009863615036,343.009863615036,343.009863615036,343.009863615036,343.009863615036,343.009863615036,343.009863615036,346.83116936683655,3,3.9447765350341797,None,,,,,,,,,,,,,,,,,,33,2,2025-02-19_11h21.09.216,comp,2024.2.4,53.324179631232944,2025-02-19 11h21.29.659607 -0500,
133,133,0,critical,hwd,20.0,3.0,upper,200.0,125.0,125.0,200.0,141.0,141.0,3,7.42007040977478,None,,,,,0,0,0,0,0,133,133,105,346.8469514846802,,,,,,,,,,,,,,,,,,,,,,,,,,,,,,,,,,,,,,,,,,,,,,,,,,,,,,,,,,,,,,,,,,,,,,,,,,,,,,,,,200.0,125.0,125.0,200.0,141.0,141.0,3.0,3.2,-258,-270,0,-11,266,259,346.8326280117035,346.83270359039307,346.8360424041748,346.8469514846802,346.9986960887909,346.9986960887909,346.9986960887909,346.9986960887909,346.9986960887909,346.9986960887909,346.9986960887909,354.2689690589905,3,7.42007040977478,None,,,,,,,,,,,,,,,,,,33,2,2025-02-19_11h21.09.216,comp,2024.2.4,53.324179631232944,2025-02-19 11h21.29.659607 -0500,
134,134,0,filler_square,None,None,None,None,None,None,None,None,None,None,3,1.7401809692382812,None,,,,,0,0,0,0,0,134,134,184,354.28783679008484,,,,,,,,,,,,,,,,,,,,,,,,,,,,,,,,,,,,,,,,,,,,,,,,,,,,,,,,,,,,,,,,,,,,,,,,,,,,,,,,,120.59838274245502,109.54410154825052,139.08209416747218,139.08209416747218,129.22268565376538,131.54848500975092,2.1,2.12,-220,-281,0,-267,231,262,354.2708866596222,354.27101373672485,354.2746031284332,354.28783679008484,354.434353351593,354.434353351593,354.434353351593,354.434353351593,354.434353351593,354.434353351593,354.434353351593,356.03605341911316,3,1.7401809692382812,None,,,,,,,,,,,,,,,,,,33,2,2025-02-19_11h21.09.216,comp,2024.2.4,53.324179631232944,2025-02-19 11h21.29.659607 -0500,
135,135,0,critical,hdw,20.0,4.0,lower,133.0,57.0,78.0,78.0,57.0,133.0,2,1.9330477714538574,None,,,,,0,0,0,0,0,135,135,118,356.05378770828247,,,,,,,,,,,,,,,,,,,,,,,,,,,,,,,,,,,,,,,,,,,,,,,,,,,,,,,,,,,,,,,,,,,,,,,,,,,,,,,,,133.0,57.0,78.0,78.0,57.0,133.0,4.0,4.2,-164,8,0,-279,202,-17,356.0375154018402,356.0376601219177,356.04091715812683,356.05378770828247,356.20146465301514,356.20146465301514,356.20146465301514,356.20146465301514,356.20146465301514,356.20146465301514,356.20146465301514,358.00174379348755,2,1.9330477714538574,None,,,,,,,,,,,,,,,,,,33,2,2025-02-19_11h21.09.216,comp,2024.2.4,53.324179631232944,2025-02-19 11h21.29.659607 -0500,
136,136,0,critical,hdw,20.0,1.0,lower,133.0,57.0,78.0,78.0,57.0,133.0,2,0.9531183242797852,None,,,,,0,0,0,0,0,136,136,114,358.01765179634094,,,,,,,,,,,,,,,,,,,,,,,,,,,,,,,,,,,,,,,,,,,,,,,,,,,,,,,,,,,,,,,,,,,,,,,,,,,,,,,,,133.0,57.0,78.0,78.0,57.0,133.0,1.0,1.1,-644,253,-480,282,-278,263,358.0033655166626,358.00345826148987,358.00719141960144,358.01765179634094,358.1681156158447,358.1681156158447,358.1681156158447,358.1681156158447,358.1681156158447,358.1681156158447,358.1681156158447,358.9854278564453,2,0.9531183242797852,None,,,,,,,,,,,,,,,,,,33,2,2025-02-19_11h21.09.216,comp,2024.2.4,53.324179631232944,2025-02-19 11h21.29.659607 -0500,
137,137,0,critical,wdh,20.0,1.0,upper,125.0,200.0,141.0,141.0,200.0,125.0,3,1.648810625076294,None,,,,,0,0,0,0,0,137,137,79,359.00198125839233,,,,,,,,,,,,,,,,,,,,,,,,,,,,,,,,,,,,,,,,,,,,,,,,,,,,,,,,,,,,,,,,,,,,,,,,,,,,,,,,,125.0,200.0,141.0,141.0,200.0,125.0,1.0,1.1,-746,259,-480,263,-251,256,358.98704981803894,358.98712372779846,358.9907567501068,359.00198125839233,359.15564346313477,359.15564346313477,359.15564346313477,359.15564346313477,359.15564346313477,359.15564346313477,359.15564346313477,360.6535339355469,3,1.648810625076294,None,,,,,,,,,,,,,,,,,,33,2,2025-02-19_11h21.09.216,comp,2024.2.4,53.324179631232944,2025-02-19 11h21.29.659607 -0500,
138,138,0,critical,wdh,20.0,2.1,upper,125.0,200.0,141.0,141.0,200.0,125.0,3,1.6452410221099854,None,,,,,0,0,0,0,0,138,138,11,360.6700415611267,,,,,,,,,,,,,,,,,,,,,,,,,,,,,,,,,,,,,,,,,,,,,,,,,,,,,,,,,,,,,,,,,,,,,,,,,,,,,,,,,125.0,200.0,141.0,141.0,200.0,125.0,2.1,2.12,-266,-281,0,-271,229,259,360.65504240989685,360.6551208496094,360.65935802459717,360.6700415611267,360.81864166259766,360.81864166259766,360.81864166259766,360.81864166259766,360.81864166259766,360.81864166259766,360.81864166259766,362.3189730644226,3,1.6452410221099854,None,,,,,,,,,,,,,,,,,,33,2,2025-02-19_11h21.09.216,comp,2024.2.4,53.324179631232944,2025-02-19 11h21.29.659607 -0500,
139,139,0,filler_random,None,None,None,None,None,None,None,None,None,None,2,1.4955506324768066,None,,,,,0,0,0,0,0,139,139,165,362.33929443359375,,,,,,,,,,,,,,,,,,,,,,,,,,,,,,,,,,,,,,,,,,,,,,,,,,,,,,,,,,,,,,,,,,,,,,,,,,,,,,,,,110.48089282676519,108.61899795973041,192.82595202977726,171.38248152628847,150.86420114221244,101.09039819731166,3.0,3.1,-236,273,0,-10,232,-272,362.32067465782166,362.3207495212555,362.3242013454437,362.33929443359375,362.48741245269775,362.48741245269775,362.48741245269775,362.48741245269775,362.48741245269775,362.48741245269775,362.48741245269775,363.8378381729126,2,1.4955506324768066,None,,,,,,,,,,,,,,,,,,33,2,2025-02-19_11h21.09.216,comp,2024.2.4,53.324179631232944,2025-02-19 11h21.29.659607 -0500,
