thisN,thisTrialN,thisRepN,effect,order,distance,config,diag,h_1,w_1,h_2,w_2,h_3,w_3,rect_choice.keys,rect_choice.rt,rect_choice.duration,instructions_loop.thisRepN,instructions_loop.thisTrialN,instructions_loop.thisN,instructions_loop.thisIndex,blocks.thisRepN,blocks.thisTrialN,blocks.thisN,blocks.thisIndex,trials.thisRepN,trials.thisTrialN,trials.thisN,trials.thisIndex,thisRow.t,notes,consent.started,agree_button.started,decline_button.started,consent_img.started,mouse.started,consent.stopped,agree_button.numClicks,agree_button.timesOn,agree_button.timesOff,decline_button.numClicks,decline_button.timesOn,decline_button.timesOff,mouse.x,mouse.y,mouse.leftButton,mouse.midButton,mouse.rightButton,mouse.time,mouse.clicked_name,exp_params.started,exp_params.stopped,welcome.started,welcome_text.started,welcome.stopped,instructions_1.started,instructions_1_text_1.started,instructions_1_text_2.started,key_resp.started,instructions_1.stopped,instructions_loop.key_resp.keys,instructions_loop.key_resp.rt,instructions_loop.key_resp.duration,instructions_2.started,instructions_2_text_1.started,instructions_2_text_2.started,key_resp_2.started,instructions_2.stopped,instructions_loop.key_resp_2.keys,instructions_loop.key_resp_2.rt,instructions_loop.key_resp_2.duration,instructions_3.started,instructions_3_text_1.started,r1_instr3.started,r2_instr3.started,r3_instr3.started,r1_instr3_label.started,r2_instr3_label.started,r3_instr3_label.started,instructions_3_text_3.started,instructions_3_text_4.started,key_resp_3.started,instructions_3.stopped,instructions_loop.key_resp_3.keys,instructions_loop.key_resp_3.rt,instructions_loop.key_resp_3.duration,instructions_4.started,instructions_4_text_1.started,instructions_4_text_3.started,instructions_4_text_2.started,key_resp_4.started,instructions_4.stopped,instructions_loop.key_resp_4.keys,instructions_loop.key_resp_4.rt,instructions_loop.key_resp_4.duration,instructions_5.started,instructions_5_text_1.started,instructions_5_text_2.started,key_resp_5.started,instructions_5.stopped,instructions_loop.key_resp_5.keys,instructions_loop.key_resp_5.rt,instructions_loop.key_resp_5.duration,start_exp.started,start_exp_text.started,key_resp_6.started,start_exp.stopped,key_resp_6.keys,key_resp_6.rt,key_resp_6.duration,h_1_tmp,w_1_tmp,h_2_tmp,w_2_tmp,h_3_tmp,w_3_tmp,config_tmp,config_tmp_1,r_1_x,r_1_y,r_2_x,r_2_y,r_3_x,r_3_y,pre_trial.started,pre_trial.stopped,choice_trial.started,rect_choice.started,r_1.started,r_2.started,r_3.started,r_1_label.started,r_2_label.started,r_3_label.started,prompt.started,choice_trial.stopped,trials.rect_choice.keys,trials.rect_choice.rt,trials.rect_choice.duration,end_block.started,end_block_text.started,end_block.stopped,end.started,end_text.started,key_resp_7.started,end.stopped,key_resp_7.keys,key_resp_7.rt,key_resp_7.duration,debriefing.started,debrief_form.started,end_debrief.started,debriefing.stopped,end_debrief.keys,end_debrief.rt,end_debrief.duration,participant,computer,date,expName,psychopyVersion,frameRate,expStart,
,,,,,,,,,,,,,,,,,,,,,,,,,,,,,,,0.015133142471313477,0.08214735984802246,0.08214735984802246,0.08214735984802246,0.014907360076904297,23.746932983398438,1,[23.662514448165894],[23.662534475326538],0,,,[-78.0],[-512.0],[1],[0],[0],[23.71707534790039],['agree_button'],,,,,,,,,,,,,,,,,,,,,,,,,,,,,,,,,,,,,,,,,,,,,,,,,,,,,,,,,,,,,,,,,,,,,,,,,,,,,,,,,,,,,,,,,,,,,,,,,,,,,,,,,,,34,4,2025-02-19_11h26.00.745,comp,2024.2.4,None,2025-02-19 11h26.20.929489 -0500,
,,,,,,,,,,,,,,,,,,,,,,,,,,,,,,,,,,,,,,,,,,,,,,,,,,23.747405529022217,23.747467517852783,,,,,,,,,,,,,,,,,,,,,,,,,,,,,,,,,,,,,,,,,,,,,,,,,,,,,,,,,,,,,,,,,,,,,,,,,,,,,,,,,,,,,,,,,,,,,,,,,,,,,,,,,34,4,2025-02-19_11h26.00.745,comp,2024.2.4,None,2025-02-19 11h26.20.929489 -0500,
,,,,,,,,,,,,,,,,,,,,,,,,,,,,,,,,,,,,,,,,,,,,,,,,,,,,23.74750804901123,23.763198137283325,25.760945081710815,,,,,,,,,,,,,,,,,,,,,,,,,,,,,,,,,,,,,,,,,,,,,,,,,,,,,,,,,,,,,,,,,,,,,,,,,,,,,,,,,,,,,,,,,,,,,,,,,,,,,,34,4,2025-02-19_11h26.00.745,comp,2024.2.4,None,2025-02-19 11h26.20.929489 -0500,
0,0,0,,,,,,,,,,,,,,,0,0,0,0,,,,,,,,,25.77780818939209,,,,,,,,,,,,,,,,,,,,,,,,,,25.761785745620728,25.77780818939209,25.77780818939209,27.24708914756775,29.04969072341919,space,1.7920613288879395,None,29.049883127212524,29.065938472747803,29.065938472747803,30.564543962478638,32.384217977523804,space,1.8116936683654785,None,32.384373903274536,32.433349609375,32.433349609375,32.433349609375,32.433349609375,32.433349609375,32.433349609375,32.433349609375,32.433349609375,32.433349609375,33.8972601890564,37.28389382362366,space,3.3649344444274902,None,37.28407025337219,37.30499720573425,37.30499720573425,37.30499720573425,38.784449100494385,41.81800675392151,space,3.0300443172454834,None,41.81816840171814,41.83630561828613,41.83630561828613,43.3185555934906,43.3361439704895,space,0.015416145324707031,None,43.33634686470032,43.35161089897156,43.35161089897156,44.085079193115234,space,0.7284431457519531,None,,,,,,,,,,,,,,,,,,,,,,,,,,,,,,,,,,,,,,,,,,,,,,,34,4,2025-02-19_11h26.00.745,comp,2024.2.4,None,2025-02-19 11h26.20.929489 -0500,
0,0,0,critical,hdw,35.0,2.1,upper,200.0,125.0,127.0,127.0,125.0,200.0,3,3.341846466064453,None,,,,,0,0,0,0,0,0,0,21,44.28019118309021,,,,,,,,,,,,,,,,,,,,,,,,,,,,,,,,,,,,,,,,,,,,,,,,,,,,,,,,,,,,,,,,,,,,,,,,,,,,,,,,,200.0,125.0,127.0,127.0,125.0,200.0,2.1,2.11,-222,257,0,259,260,-273,44.26321601867676,44.2632520198822,44.264423847198486,44.28019118309021,44.425795793533325,44.425795793533325,44.425795793533325,44.425795793533325,44.425795793533325,44.425795793533325,44.425795793533325,47.63649129867554,3,3.341846466064453,None,,,,,,,,,,,,,,,,,,34,4,2025-02-19_11h26.00.745,comp,2024.2.4,None,2025-02-19 11h26.20.929489 -0500,
1,1,0,filler_square,None,None,None,None,None,None,None,None,None,None,1,1.648540735244751,None,,,,,0,0,0,0,0,1,1,170,47.65385627746582,,,,,,,,,,,,,,,,,,,,,,,,,,,,,,,,,,,,,,,,,,,,,,,,,,,,,,,,,,,,,,,,,,,,,,,,,,,,,,,,,148.75829948756183,148.75829948756183,119.3879031519972,131.44651937070324,71.47081215182644,85.71863638947198,2.2,2.22,-236,253,0,-273,205,-285,47.638203620910645,47.63827562332153,47.64112615585327,47.65385627746582,47.807923316955566,47.807923316955566,47.807923316955566,47.807923316955566,47.807923316955566,47.807923316955566,47.807923316955566,49.32496380805969,1,1.648540735244751,None,,,,,,,,,,,,,,,,,,34,4,2025-02-19_11h26.00.745,comp,2024.2.4,None,2025-02-19 11h26.20.929489 -0500,
2,2,0,critical,wdh,35.0,1.0,lower,57.0,133.0,70.0,70.0,133.0,57.0,1,4.2790257930755615,None,,,,,0,0,0,0,0,2,2,72,49.342944622039795,,,,,,,,,,,,,,,,,,,,,,,,,,,,,,,,,,,,,,,,,,,,,,,,,,,,,,,,,,,,,,,,,,,,,,,,,,,,,,,,,57.0,133.0,70.0,70.0,133.0,57.0,1.0,1.3,282,-266,480,-265,640,-286,49.3267285823822,49.32689309120178,49.330058097839355,49.342944622039795,49.495638608932495,49.495638608932495,49.495638608932495,49.495638608932495,49.495638608932495,49.495638608932495,49.495638608932495,53.62394571304321,1,4.2790257930755615,None,,,,,,,,,,,,,,,,,,34,4,2025-02-19_11h26.00.745,comp,2024.2.4,None,2025-02-19 11h26.20.929489 -0500,
3,3,0,critical,whd,35.0,2.1,upper,125.0,200.0,200.0,125.0,127.0,127.0,1,2.7588083744049072,None,,,,,0,0,0,0,0,3,3,13,53.64004373550415,,,,,,,,,,,,,,,,,,,,,,,,,,,,,,,,,,,,,,,,,,,,,,,,,,,,,,,,,,,,,,,,,,,,,,,,,,,,,,,,,125.0,200.0,200.0,125.0,127.0,127.0,2.1,2.12,-258,-275,0,-254,222,282,53.62558937072754,53.62567639350891,53.62925410270691,53.64004373550415,53.79244065284729,53.79244065284729,53.79244065284729,53.79244065284729,53.79244065284729,53.79244065284729,53.79244065284729,56.407429456710815,1,2.7588083744049072,None,,,,,,,,,,,,,,,,,,34,4,2025-02-19_11h26.00.745,comp,2024.2.4,None,2025-02-19 11h26.20.929489 -0500,
4,4,0,filler_square,None,None,None,None,None,None,None,None,None,None,2,3.078749179840088,None,,,,,0,0,0,0,0,4,4,194,56.423866510391235,,,,,,,,,,,,,,,,,,,,,,,,,,,,,,,,,,,,,,,,,,,,,,,,,,,,,,,,,,,,,,,,,,,,,,,,,,,,,,,,,107.82893506013886,107.82893506013886,105.11885414536121,103.43318000254683,92.5061258082112,78.12010130443412,3.0,3.1,-202,265,0,8,187,-256,56.40936279296875,56.4094820022583,56.4129159450531,56.423866510391235,56.573994874954224,56.573994874954224,56.573994874954224,56.573994874954224,56.573994874954224,56.573994874954224,56.573994874954224,59.50816226005554,2,3.078749179840088,None,,,,,,,,,,,,,,,,,,34,4,2025-02-19_11h26.00.745,comp,2024.2.4,None,2025-02-19 11h26.20.929489 -0500,
5,5,0,critical,wdh,35.0,2.1,lower,57.0,133.0,70.0,70.0,133.0,57.0,3,1.4896769523620605,None,,,,,0,0,0,0,0,5,5,8,59.52437615394592,,,,,,,,,,,,,,,,,,,,,,,,,,,,,,,,,,,,,,,,,,,,,,,,,,,,,,,,,,,,,,,,,,,,,,,,,,,,,,,,,57.0,133.0,70.0,70.0,133.0,57.0,2.1,2.11,-198,285,0,251,160,-265,59.50981259346008,59.50997734069824,59.51345920562744,59.52437615394592,59.67243027687073,59.67243027687073,59.67243027687073,59.67243027687073,59.67243027687073,59.67243027687073,59.67243027687073,61.02849984169006,3,1.4896769523620605,None,,,,,,,,,,,,,,,,,,34,4,2025-02-19_11h26.00.745,comp,2024.2.4,None,2025-02-19 11h26.20.929489 -0500,
6,6,0,filler_random,None,None,None,None,None,None,None,None,None,None,1,1.554279088973999,None,,,,,0,0,0,0,0,6,6,159,61.04531455039978,,,,,,,,,,,,,,,,,,,,,,,,,,,,,,,,,,,,,,,,,,,,,,,,,,,,,,,,,,,,,,,,,,,,,,,,,,,,,,,,,121.8576445177612,157.24010400737865,113.60213723470373,124.70235595170264,130.04009612950614,119.20385529553195,2.2,2.22,-237,278,0,-275,218,-276,61.03049850463867,61.03062653541565,61.034101247787476,61.04531455039978,61.18036365509033,61.18036365509033,61.18036365509033,61.18036365509033,61.18036365509033,61.18036365509033,61.18036365509033,62.61099410057068,1,1.554279088973999,None,,,,,,,,,,,,,,,,,,34,4,2025-02-19_11h26.00.745,comp,2024.2.4,None,2025-02-19 11h26.20.929489 -0500,
7,7,0,critical,hdw,20.0,3.0,upper,200.0,125.0,141.0,141.0,125.0,200.0,3,1.202510118484497,None,,,,,0,0,0,0,0,7,7,117,62.627387046813965,,,,,,,,,,,,,,,,,,,,,,,,,,,,,,,,,,,,,,,,,,,,,,,,,,,,,,,,,,,,,,,,,,,,,,,,,,,,,,,,,200.0,125.0,141.0,141.0,125.0,200.0,3.0,3.2,-229,-282,0,2,266,261,62.6127290725708,62.61289429664612,62.616713523864746,62.627387046813965,62.7781708240509,62.7781708240509,62.7781708240509,62.7781708240509,62.7781708240509,62.7781708240509,62.7781708240509,63.84257173538208,3,1.202510118484497,None,,,,,,,,,,,,,,,,,,34,4,2025-02-19_11h26.00.745,comp,2024.2.4,None,2025-02-19 11h26.20.929489 -0500,
8,8,0,critical,hdw,35.0,2.1,upper,200.0,125.0,127.0,127.0,125.0,200.0,1,1.1640961170196533,None,,,,,0,0,0,0,0,8,8,45,63.85817885398865,,,,,,,,,,,,,,,,,,,,,,,,,,,,,,,,,,,,,,,,,,,,,,,,,,,,,,,,,,,,,,,,,,,,,,,,,,,,,,,,,200.0,125.0,127.0,127.0,125.0,200.0,2.1,2.11,-222,269,0,285,260,-255,63.844244718551636,63.84434771537781,63.84777355194092,63.85817885398865,64.01550698280334,64.01550698280334,64.01550698280334,64.01550698280334,64.01550698280334,64.01550698280334,64.01550698280334,65.02759194374084,1,1.1640961170196533,None,,,,,,,,,,,,,,,,,,34,4,2025-02-19_11h26.00.745,comp,2024.2.4,None,2025-02-19 11h26.20.929489 -0500,
9,9,0,critical,hdw,35.0,4.0,lower,133.0,57.0,70.0,70.0,57.0,133.0,3,3.0424370765686035,None,,,,,0,0,0,0,0,9,9,112,65.04358386993408,,,,,,,,,,,,,,,,,,,,,,,,,,,,,,,,,,,,,,,,,,,,,,,,,,,,,,,,,,,,,,,,,,,,,,,,,,,,,,,,,133.0,57.0,70.0,70.0,57.0,133.0,4.0,4.2,-160,14,0,-287,198,-2,65.0292980670929,65.02937960624695,65.032879114151,65.04358386993408,65.19176363945007,65.19176363945007,65.19176363945007,65.19176363945007,65.19176363945007,65.19176363945007,65.19176363945007,68.09667205810547,3,3.0424370765686035,None,,,,,,,,,,,,,,,,,,34,4,2025-02-19_11h26.00.745,comp,2024.2.4,None,2025-02-19 11h26.20.929489 -0500,
10,10,0,critical,hwd,20.0,3.0,upper,200.0,125.0,125.0,200.0,141.0,141.0,2,1.1524791717529297,None,,,,,0,0,0,0,0,10,10,105,68.11770939826965,,,,,,,,,,,,,,,,,,,,,,,,,,,,,,,,,,,,,,,,,,,,,,,,,,,,,,,,,,,,,,,,,,,,,,,,,,,,,,,,,200.0,125.0,125.0,200.0,141.0,141.0,3.0,3.1,-258,279,0,17,266,-267,68.09886884689331,68.09895420074463,68.10198664665222,68.11770939826965,68.2609646320343,68.2609646320343,68.2609646320343,68.2609646320343,68.2609646320343,68.2609646320343,68.2609646320343,69.28484749794006,2,1.1524791717529297,None,,,,,,,,,,,,,,,,,,34,4,2025-02-19_11h26.00.745,comp,2024.2.4,None,2025-02-19 11h26.20.929489 -0500,
11,11,0,filler_square,None,None,None,None,None,None,None,None,None,None,3,1.3454415798187256,None,,,,,0,0,0,0,0,11,11,180,69.30054306983948,,,,,,,,,,,,,,,,,,,,,,,,,,,,,,,,,,,,,,,,,,,,,,,,,,,,,,,,,,,,,,,,,,,,,,,,,,,,,,,,,85.73538361784281,64.69265074772454,113.12204716145101,113.12204716145101,91.46822006672058,110.5360273390934,3.0,3.1,-185,266,0,9,208,-286,69.28675842285156,69.286860704422,69.29014253616333,69.30054306983948,69.4449634552002,69.4449634552002,69.4449634552002,69.4449634552002,69.4449634552002,69.4449634552002,69.4449634552002,70.6721887588501,3,1.3454415798187256,None,,,,,,,,,,,,,,,,,,34,4,2025-02-19_11h26.00.745,comp,2024.2.4,None,2025-02-19 11h26.20.929489 -0500,
12,12,0,critical,whd,20.0,3.0,lower,57.0,133.0,133.0,57.0,78.0,78.0,2,1.4454195499420166,None,,,,,0,0,0,0,0,12,12,92,70.68993401527405,,,,,,,,,,,,,,,,,,,,,,,,,,,,,,,,,,,,,,,,,,,,,,,,,,,,,,,,,,,,,,,,,,,,,,,,,,,,,,,,,57.0,133.0,133.0,57.0,78.0,78.0,3.0,3.1,-191,288,0,17,164,-275,70.67377519607544,70.67389845848083,70.67721462249756,70.68993401527405,70.82795882225037,70.82795882225037,70.82795882225037,70.82795882225037,70.82795882225037,70.82795882225037,70.82795882225037,72.1456458568573,2,1.4454195499420166,None,,,,,,,,,,,,,,,,,,34,4,2025-02-19_11h26.00.745,comp,2024.2.4,None,2025-02-19 11h26.20.929489 -0500,
13,13,0,critical,whd,20.0,2.1,upper,125.0,200.0,200.0,125.0,141.0,141.0,2,1.3173823356628418,None,,,,,0,0,0,0,0,13,13,39,72.1616358757019,,,,,,,,,,,,,,,,,,,,,,,,,,,,,,,,,,,,,,,,,,,,,,,,,,,,,,,,,,,,,,,,,,,,,,,,,,,,,,,,,125.0,200.0,200.0,125.0,141.0,141.0,2.1,2.11,-258,257,0,281,229,-283,72.14731574058533,72.14742302894592,72.15084266662598,72.1616358757019,72.30921339988708,72.30921339988708,72.30921339988708,72.30921339988708,72.30921339988708,72.30921339988708,72.30921339988708,73.48473048210144,2,1.3173823356628418,None,,,,,,,,,,,,,,,,,,34,4,2025-02-19_11h26.00.745,comp,2024.2.4,None,2025-02-19 11h26.20.929489 -0500,
14,14,0,filler_square,None,None,None,None,None,None,None,None,None,None,2,1.2335407733917236,None,,,,,0,0,0,0,0,14,14,190,73.50043606758118,,,,,,,,,,,,,,,,,,,,,,,,,,,,,,,,,,,,,,,,,,,,,,,,,,,,,,,,,,,,,,,,,,,,,,,,,,,,,,,,,70.11156489668942,83.88679706473857,178.42498106942196,178.42498106942196,172.05902994941033,70.6789239298148,1.0,1.2,-227,19,0,-13,221,-3,73.48646187782288,73.4865403175354,73.48939538002014,73.50043606758118,73.65243887901306,73.65243887901306,73.65243887901306,73.65243887901306,73.65243887901306,73.65243887901306,73.65243887901306,74.74536204338074,2,1.2335407733917236,None,,,,,,,,,,,,,,,,,,34,4,2025-02-19_11h26.00.745,comp,2024.2.4,None,2025-02-19 11h26.20.929489 -0500,
15,15,0,critical,hdw,20.0,2.1,upper,200.0,125.0,141.0,141.0,125.0,200.0,3,1.2523584365844727,None,,,,,0,0,0,0,0,15,15,47,74.76184034347534,,,,,,,,,,,,,,,,,,,,,,,,,,,,,,,,,,,,,,,,,,,,,,,,,,,,,,,,,,,,,,,,,,,,,,,,,,,,,,,,,200.0,125.0,141.0,141.0,125.0,200.0,2.1,2.11,-229,285,0,288,266,-253,74.74691987037659,74.746999502182,74.750239610672,74.76184034347534,74.91188502311707,74.91188502311707,74.91188502311707,74.91188502311707,74.91188502311707,74.91188502311707,74.91188502311707,76.01758432388306,3,1.2523584365844727,None,,,,,,,,,,,,,,,,,,34,4,2025-02-19_11h26.00.745,comp,2024.2.4,None,2025-02-19 11h26.20.929489 -0500,
16,16,0,catch,None,None,None,None,None,None,None,None,None,None,2,1.0335619449615479,None,,,,,0,0,0,0,0,16,16,121,76.03716611862183,,,,,,,,,,,,,,,,,,,,,,,,,,,,,,,,,,,,,,,,,,,,,,,,,,,,,,,,,,,,,,,,,,,,,,,,,,,,,,,,,99,91,128,197,71,119,2.2,2.21,-240,-265,0,287,254,269,76.01967358589172,76.01975321769714,76.02296710014343,76.03716611862183,76.18011379241943,76.18011379241943,76.18011379241943,76.18011379241943,76.18011379241943,76.18011379241943,76.18011379241943,77.08241033554077,2,1.0335619449615479,None,,,,,,,,,,,,,,,,,,34,4,2025-02-19_11h26.00.745,comp,2024.2.4,None,2025-02-19 11h26.20.929489 -0500,
17,17,0,critical,wdh,20.0,4.0,upper,125.0,200.0,141.0,141.0,200.0,125.0,1,1.7312896251678467,None,,,,,0,0,0,0,0,17,17,83,77.09903883934021,,,,,,,,,,,,,,,,,,,,,,,,,,,,,,,,,,,,,,,,,,,,,,,,,,,,,,,,,,,,,,,,,,,,,,,,,,,,,,,,,125.0,200.0,141.0,141.0,200.0,125.0,4.0,4.2,-266,-10,0,-272,229,19,77.08418035507202,77.08429431915283,77.08775854110718,77.09903883934021,77.24786400794983,77.24786400794983,77.24786400794983,77.24786400794983,77.24786400794983,77.24786400794983,77.24786400794983,78.85100960731506,1,1.7312896251678467,None,,,,,,,,,,,,,,,,,,34,4,2025-02-19_11h26.00.745,comp,2024.2.4,None,2025-02-19 11h26.20.929489 -0500,
18,18,0,critical,hwd,35.0,4.0,lower,133.0,57.0,57.0,133.0,70.0,70.0,2,1.0554826259613037,None,,,,,0,0,0,0,0,18,18,100,78.87084150314331,,,,,,,,,,,,,,,,,,,,,,,,,,,,,,,,,,,,,,,,,,,,,,,,,,,,,,,,,,,,,,,,,,,,,,,,,,,,,,,,,133.0,57.0,57.0,133.0,70.0,70.0,4.0,4.2,-191,16,0,-287,198,-6,78.85301661491394,78.8531584739685,78.85628199577332,78.87084150314331,79.01498866081238,79.01498866081238,79.01498866081238,79.01498866081238,79.01498866081238,79.01498866081238,79.01498866081238,79.94429636001587,2,1.0554826259613037,None,,,,,,,,,,,,,,,,,,34,4,2025-02-19_11h26.00.745,comp,2024.2.4,None,2025-02-19 11h26.20.929489 -0500,
19,19,0,critical,dwh,20.0,4.0,lower,78.0,78.0,57.0,133.0,133.0,57.0,3,0.982508659362793,None,,,,,0,0,0,0,0,19,19,70,79.96047234535217,,,,,,,,,,,,,,,,,,,,,,,,,,,,,,,,,,,,,,,,,,,,,,,,,,,,,,,,,,,,,,,,,,,,,,,,,,,,,,,,,78.0,78.0,57.0,133.0,133.0,57.0,4.0,4.2,-202,-8,0,-259,191,-12,79.94590997695923,79.94598841667175,79.94934058189392,79.96047234535217,80.11410856246948,80.11410856246948,80.11410856246948,80.11410856246948,80.11410856246948,80.11410856246948,80.11410856246948,80.94974327087402,3,0.982508659362793,None,,,,,,,,,,,,,,,,,,34,4,2025-02-19_11h26.00.745,comp,2024.2.4,None,2025-02-19 11h26.20.929489 -0500,
20,20,0,critical,dwh,35.0,4.0,lower,70.0,70.0,57.0,133.0,133.0,57.0,2,0.9598894119262695,None,,,,,0,0,0,0,0,20,20,64,80.96613597869873,,,,,,,,,,,,,,,,,,,,,,,,,,,,,,,,,,,,,,,,,,,,,,,,,,,,,,,,,,,,,,,,,,,,,,,,,,,,,,,,,70.0,70.0,57.0,133.0,133.0,57.0,4.0,4.2,-198,8,0,-263,191,9,80.95148277282715,80.95156836509705,80.95553064346313,80.96613597869873,81.11736679077148,81.11736679077148,81.11736679077148,81.11736679077148,81.11736679077148,81.11736679077148,81.11736679077148,81.94235301017761,2,0.9598894119262695,None,,,,,,,,,,,,,,,,,,34,4,2025-02-19_11h26.00.745,comp,2024.2.4,None,2025-02-19 11h26.20.929489 -0500,
21,21,0,critical,hdw,20.0,4.0,lower,133.0,57.0,78.0,78.0,57.0,133.0,1,0.9242918491363525,None,,,,,0,0,0,0,0,21,21,118,81.96245884895325,,,,,,,,,,,,,,,,,,,,,,,,,,,,,,,,,,,,,,,,,,,,,,,,,,,,,,,,,,,,,,,,,,,,,,,,,,,,,,,,,133.0,57.0,78.0,78.0,57.0,133.0,4.0,4.1,-164,-260,0,-2,202,-279,81.9439468383789,81.94405841827393,81.94725227355957,81.96245884895325,82.09810495376587,82.09810495376587,82.09810495376587,82.09810495376587,82.09810495376587,82.09810495376587,82.09810495376587,82.90527415275574,1,0.9242918491363525,None,,,,,,,,,,,,,,,,,,34,4,2025-02-19_11h26.00.745,comp,2024.2.4,None,2025-02-19 11h26.20.929489 -0500,
22,22,0,critical,dwh,20.0,2.1,lower,78.0,78.0,57.0,133.0,133.0,57.0,2,0.8661003112792969,None,,,,,0,0,0,0,0,22,22,30,82.92502021789551,,,,,,,,,,,,,,,,,,,,,,,,,,,,,,,,,,,,,,,,,,,,,,,,,,,,,,,,,,,,,,,,,,,,,,,,,,,,,,,,,78.0,78.0,57.0,133.0,133.0,57.0,2.1,2.11,-202,288,0,287,191,-289,82.90676975250244,82.90688014030457,82.90978908538818,82.92502021789551,83.06124567985535,83.06124567985535,83.06124567985535,83.06124567985535,83.06124567985535,83.06124567985535,83.06124567985535,83.79816699028015,2,0.8661003112792969,None,,,,,,,,,,,,,,,,,,34,4,2025-02-19_11h26.00.745,comp,2024.2.4,None,2025-02-19 11h26.20.929489 -0500,
23,23,0,critical,wdh,35.0,3.0,lower,57.0,133.0,70.0,70.0,133.0,57.0,3,0.951505184173584,None,,,,,0,0,0,0,0,23,23,74,83.8146231174469,,,,,,,,,,,,,,,,,,,,,,,,,,,,,,,,,,,,,,,,,,,,,,,,,,,,,,,,,,,,,,,,,,,,,,,,,,,,,,,,,57.0,133.0,70.0,70.0,133.0,57.0,3.0,3.2,-198,-262,0,-7,160,276,83.79968094825745,83.79976177215576,83.80299615859985,83.8146231174469,83.96533155441284,83.96533155441284,83.96533155441284,83.96533155441284,83.96533155441284,83.96533155441284,83.96533155441284,84.78246283531189,3,0.951505184173584,None,,,,,,,,,,,,,,,,,,34,4,2025-02-19_11h26.00.745,comp,2024.2.4,None,2025-02-19 11h26.20.929489 -0500,
24,24,0,critical,wdh,20.0,1.0,lower,57.0,133.0,78.0,78.0,133.0,57.0,3,1.4809765815734863,None,,,,,0,0,0,0,0,24,24,78,84.79787373542786,,,,,,,,,,,,,,,,,,,,,,,,,,,,,,,,,,,,,,,,,,,,,,,,,,,,,,,,,,,,,,,,,,,,,,,,,,,,,,,,,57.0,133.0,78.0,78.0,133.0,57.0,1.0,1.1,-682,281,-480,269,-316,266,84.78399109840393,84.78409028053284,84.78755640983582,84.79787373542786,84.93891072273254,84.93891072273254,84.93891072273254,84.93891072273254,84.93891072273254,84.93891072273254,84.93891072273254,86.28466320037842,3,1.4809765815734863,None,,,,,,,,,,,,,,,,,,34,4,2025-02-19_11h26.00.745,comp,2024.2.4,None,2025-02-19 11h26.20.929489 -0500,
25,25,0,critical,wdh,35.0,2.1,lower,57.0,133.0,70.0,70.0,133.0,57.0,1,0.9131667613983154,None,,,,,0,0,0,0,0,25,25,32,86.30112528800964,,,,,,,,,,,,,,,,,,,,,,,,,,,,,,,,,,,,,,,,,,,,,,,,,,,,,,,,,,,,,,,,,,,,,,,,,,,,,,,,,57.0,133.0,70.0,70.0,133.0,57.0,2.1,2.11,-198,287,0,258,160,-278,86.28643798828125,86.28655672073364,86.28945136070251,86.30112528800964,86.45232629776001,86.45232629776001,86.45232629776001,86.45232629776001,86.45232629776001,86.45232629776001,86.45232629776001,87.22495412826538,1,0.9131667613983154,None,,,,,,,,,,,,,,,,,,34,4,2025-02-19_11h26.00.745,comp,2024.2.4,None,2025-02-19 11h26.20.929489 -0500,
26,26,0,filler_square,None,None,None,None,None,None,None,None,None,None,1,1.8617839813232422,None,,,,,0,0,0,0,0,26,26,172,87.24032974243164,,,,,,,,,,,,,,,,,,,,,,,,,,,,,,,,,,,,,,,,,,,,,,,,,,,,,,,,,,,,,,,,,,,,,,,,,,,,,,,,,164.58836946750313,164.58836946750313,124.09256811611161,96.27242828598439,88.08030929761381,160.5106479299941,4.0,4.2,-226,0,0,-284,224,10,87.22667026519775,87.22674608230591,87.22961473464966,87.24032974243164,87.38211345672607,87.38211345672607,87.38211345672607,87.38211345672607,87.38211345672607,87.38211345672607,87.38211345672607,89.11720490455627,1,1.8617839813232422,None,,,,,,,,,,,,,,,,,,34,4,2025-02-19_11h26.00.745,comp,2024.2.4,None,2025-02-19 11h26.20.929489 -0500,
27,27,0,critical,whd,20.0,4.0,lower,57.0,133.0,133.0,57.0,78.0,78.0,2,1.8171908855438232,None,,,,,0,0,0,0,0,27,27,94,89.13285279273987,,,,,,,,,,,,,,,,,,,,,,,,,,,,,,,,,,,,,,,,,,,,,,,,,,,,,,,,,,,,,,,,,,,,,,,,,,,,,,,,,57.0,133.0,133.0,57.0,78.0,78.0,4.0,4.1,-191,-255,0,-2,164,-290,89.11890292167664,89.11903977394104,89.12247228622437,89.13285279273987,89.28540182113647,89.28540182113647,89.28540182113647,89.28540182113647,89.28540182113647,89.28540182113647,89.28540182113647,90.96785092353821,2,1.8171908855438232,None,,,,,,,,,,,,,,,,,,34,4,2025-02-19_11h26.00.745,comp,2024.2.4,None,2025-02-19 11h26.20.929489 -0500,
28,28,0,critical,dhw,35.0,2.1,upper,127.0,127.0,200.0,125.0,125.0,200.0,2,1.5908324718475342,None,,,,,0,0,0,0,0,28,28,1,90.98322176933289,,,,,,,,,,,,,,,,,,,,,,,,,,,,,,,,,,,,,,,,,,,,,,,,,,,,,,,,,,,,,,,,,,,,,,,,,,,,,,,,,127.0,127.0,200.0,125.0,125.0,200.0,2.1,2.11,-222,269,0,283,258,-281,90.96945309638977,90.96953129768372,90.97298216819763,90.98322176933289,91.14114212989807,91.14114212989807,91.14114212989807,91.14114212989807,91.14114212989807,91.14114212989807,91.14114212989807,92.58425307273865,2,1.5908324718475342,None,,,,,,,,,,,,,,,,,,34,4,2025-02-19_11h26.00.745,comp,2024.2.4,None,2025-02-19 11h26.20.929489 -0500,
29,29,0,critical,hdw,35.0,3.0,upper,200.0,125.0,127.0,127.0,125.0,200.0,3,1.1023273468017578,None,,,,,0,0,0,0,0,29,29,111,92.59975957870483,,,,,,,,,,,,,,,,,,,,,,,,,,,,,,,,,,,,,,,,,,,,,,,,,,,,,,,,,,,,,,,,,,,,,,,,,,,,,,,,,200.0,125.0,127.0,127.0,125.0,200.0,3.0,3.1,-222,265,0,-15,260,-271,92.58578515052795,92.58588767051697,92.58897399902344,92.59975957870483,92.73981308937073,92.73981308937073,92.73981308937073,92.73981308937073,92.73981308937073,92.73981308937073,92.73981308937073,93.70419383049011,3,1.1023273468017578,None,,,,,,,,,,,,,,,,,,34,4,2025-02-19_11h26.00.745,comp,2024.2.4,None,2025-02-19 11h26.20.929489 -0500,
30,30,0,critical,whd,35.0,2.1,lower,57.0,133.0,133.0,57.0,70.0,70.0,1,1.5132663249969482,None,,,,,0,0,0,0,0,30,30,12,93.72483849525452,,,,,,,,,,,,,,,,,,,,,,,,,,,,,,,,,,,,,,,,,,,,,,,,,,,,,,,,,,,,,,,,,,,,,,,,,,,,,,,,,57.0,133.0,133.0,57.0,70.0,70.0,2.1,2.12,-191,-282,0,-259,160,252,93.70576500892639,93.70594692230225,93.7092022895813,93.72483849525452,93.86851739883423,93.86851739883423,93.86851739883423,93.86851739883423,93.86851739883423,93.86851739883423,93.86851739883423,95.2545895576477,1,1.5132663249969482,None,,,,,,,,,,,,,,,,,,34,4,2025-02-19_11h26.00.745,comp,2024.2.4,None,2025-02-19 11h26.20.929489 -0500,
31,31,0,critical,whd,35.0,4.0,upper,125.0,200.0,200.0,125.0,127.0,127.0,1,1.543703556060791,None,,,,,0,0,0,0,0,31,31,89,95.27048325538635,,,,,,,,,,,,,,,,,,,,,,,,,,,,,,,,,,,,,,,,,,,,,,,,,,,,,,,,,,,,,,,,,,,,,,,,,,,,,,,,,125.0,200.0,200.0,125.0,127.0,127.0,4.0,4.1,-258,-289,0,-17,222,-266,95.25631666183472,95.25644898414612,95.26002430915833,95.27048325538635,95.42192006111145,95.42192006111145,95.42192006111145,95.42192006111145,95.42192006111145,95.42192006111145,95.42192006111145,96.82526779174805,1,1.543703556060791,None,,,,,,,,,,,,,,,,,,34,4,2025-02-19_11h26.00.745,comp,2024.2.4,None,2025-02-19 11h26.20.929489 -0500,
32,32,0,critical,whd,35.0,3.0,upper,125.0,200.0,200.0,125.0,127.0,127.0,2,1.5968906879425049,None,,,,,0,0,0,0,0,32,32,87,96.84115552902222,,,,,,,,,,,,,,,,,,,,,,,,,,,,,,,,,,,,,,,,,,,,,,,,,,,,,,,,,,,,,,,,,,,,,,,,,,,,,,,,,125.0,200.0,200.0,125.0,127.0,127.0,3.0,3.1,-258,264,0,-15,222,-281,96.82685565948486,96.82695293426514,96.83028721809387,96.84115552902222,96.98651194572449,96.98651194572449,96.98651194572449,96.98651194572449,96.98651194572449,96.98651194572449,96.98651194572449,98.45498609542847,2,1.5968906879425049,None,,,,,,,,,,,,,,,,,,34,4,2025-02-19_11h26.00.745,comp,2024.2.4,None,2025-02-19 11h26.20.929489 -0500,
33,33,0,critical,dhw,35.0,1.0,lower,70.0,70.0,133.0,57.0,57.0,133.0,3,2.0078132152557373,None,,,,,0,0,0,0,0,33,33,48,98.47038984298706,,,,,,,,,,,,,,,,,,,,,,,,,,,,,,,,,,,,,,,,,,,,,,,,,,,,,,,,,,,,,,,,,,,,,,,,,,,,,,,,,70.0,70.0,133.0,57.0,57.0,133.0,1.0,1.1,-640,252,-480,280,-289,277,98.45650911331177,98.45661973953247,98.46009516716003,98.47038984298706,98.62117528915405,98.62117528915405,98.62117528915405,98.62117528915405,98.62117528915405,98.62117528915405,98.62117528915405,100.49144983291626,3,2.0078132152557373,None,,,,,,,,,,,,,,,,,,34,4,2025-02-19_11h26.00.745,comp,2024.2.4,None,2025-02-19 11h26.20.929489 -0500,
34,34,0,filler_random,None,None,None,None,None,None,None,None,None,None,3,1.994049072265625,None,,,,,0,0,0,0,0,34,34,156,100.5086259841919,,,,,,,,,,,,,,,,,,,,,,,,,,,,,,,,,,,,,,,,,,,,,,,,,,,,,,,,,,,,,,,,,,,,,,,,,,,,,,,,,79.51919408073266,174.09303723272023,68.04730422142715,196.15445704608678,197.2467963945866,182.15121492057474,2.2,2.21,-281,-280,0,280,285,268,100.49333763122559,100.49341583251953,100.49635219573975,100.5086259841919,100.65494275093079,100.65494275093079,100.65494275093079,100.65494275093079,100.65494275093079,100.65494275093079,100.65494275093079,102.51110911369324,3,1.994049072265625,None,,,,,,,,,,,,,,,,,,34,4,2025-02-19_11h26.00.745,comp,2024.2.4,None,2025-02-19 11h26.20.929489 -0500,
35,35,0,critical,whd,20.0,1.0,lower,57.0,133.0,133.0,57.0,78.0,78.0,2,0.981738805770874,None,,,,,0,0,0,0,0,35,35,90,102.52890419960022,,,,,,,,,,,,,,,,,,,,,,,,,,,,,,,,,,,,,,,,,,,,,,,,,,,,,,,,,,,,,,,,,,,,,,,,,,,,,,,,,57.0,133.0,133.0,57.0,78.0,78.0,1.0,1.3,289,-278,480,-254,644,-281,102.51262402534485,102.51270532608032,102.51560568809509,102.52890419960022,102.66945099830627,102.66945099830627,102.66945099830627,102.66945099830627,102.66945099830627,102.66945099830627,102.66945099830627,103.51376271247864,2,0.981738805770874,None,,,,,,,,,,,,,,,,,,34,4,2025-02-19_11h26.00.745,comp,2024.2.4,None,2025-02-19 11h26.20.929489 -0500,
36,36,0,filler_square,None,None,None,None,None,None,None,None,None,None,1,1.3693196773529053,None,,,,,0,0,0,0,0,36,36,186,103.53271269798279,,,,,,,,,,,,,,,,,,,,,,,,,,,,,,,,,,,,,,,,,,,,,,,,,,,,,,,,,,,,,,,,,,,,,,,,,,,,,,,,,69.15051532983395,69.15051532983395,58.567778801124675,60.114497805065334,62.5804110116528,62.93859806054352,3.0,3.1,-161,275,0,-3,158,-281,103.51561546325684,103.515695810318,103.51858472824097,103.53271269798279,103.67224550247192,103.67224550247192,103.67224550247192,103.67224550247192,103.67224550247192,103.67224550247192,103.67224550247192,104.90546298027039,1,1.3693196773529053,None,,,,,,,,,,,,,,,,,,34,4,2025-02-19_11h26.00.745,comp,2024.2.4,None,2025-02-19 11h26.20.929489 -0500,
37,37,0,critical,dhw,20.0,1.0,lower,78.0,78.0,133.0,57.0,57.0,133.0,3,1.6690151691436768,None,,,,,0,0,0,0,0,37,37,54,104.92122006416321,,,,,,,,,,,,,,,,,,,,,,,,,,,,,,,,,,,,,,,,,,,,,,,,,,,,,,,,,,,,,,,,,,,,,,,,,,,,,,,,,78.0,78.0,133.0,57.0,57.0,133.0,1.0,1.3,316,-258,480,-279,671,-276,104.90699028968811,104.90709137916565,104.91048908233643,104.92122006416321,105.07128977775574,105.07128977775574,105.07128977775574,105.07128977775574,105.07128977775574,105.07128977775574,105.07128977775574,106.60524010658264,3,1.6690151691436768,None,,,,,,,,,,,,,,,,,,34,4,2025-02-19_11h26.00.745,comp,2024.2.4,None,2025-02-19 11h26.20.929489 -0500,
38,38,0,critical,hwd,35.0,2.1,upper,200.0,125.0,125.0,200.0,127.0,127.0,2,1.6775767803192139,None,,,,,0,0,0,0,0,38,38,17,106.62501549720764,,,,,,,,,,,,,,,,,,,,,,,,,,,,,,,,,,,,,,,,,,,,,,,,,,,,,,,,,,,,,,,,,,,,,,,,,,,,,,,,,200.0,125.0,125.0,200.0,127.0,127.0,2.1,2.11,-258,257,0,280,260,-288,106.60672378540039,106.60679602622986,106.60991358757019,106.62501549720764,106.78167676925659,106.78167676925659,106.78167676925659,106.78167676925659,106.78167676925659,106.78167676925659,106.78167676925659,108.30492901802063,2,1.6775767803192139,None,,,,,,,,,,,,,,,,,,34,4,2025-02-19_11h26.00.745,comp,2024.2.4,None,2025-02-19 11h26.20.929489 -0500,
39,39,0,filler_random,None,None,None,None,None,None,None,None,None,None,2,1.3725218772888184,None,,,,,0,0,0,0,0,39,39,134,108.32149195671082,,,,,,,,,,,,,,,,,,,,,,,,,,,,,,,,,,,,,,,,,,,,,,,,,,,,,,,,,,,,,,,,,,,,,,,,,,,,,,,,,126.3247437312246,151.81153253642717,96.04251340224656,191.00843732531104,70.54807245642513,163.92921751703895,4.0,4.1,-267,-285,0,-5,273,-266,108.30659222602844,108.3066737651825,108.30961608886719,108.32149195671082,108.47501134872437,108.47501134872437,108.47501134872437,108.47501134872437,108.47501134872437,108.47501134872437,108.47501134872437,109.70681047439575,2,1.3725218772888184,None,,,,,,,,,,,,,,,,,,34,4,2025-02-19_11h26.00.745,comp,2024.2.4,None,2025-02-19 11h26.20.929489 -0500,
40,40,0,critical,dhw,20.0,1.0,upper,141.0,141.0,200.0,125.0,125.0,200.0,3,1.0681476593017578,None,,,,,0,0,0,0,0,40,40,55,109.72215342521667,,,,,,,,,,,,,,,,,,,,,,,,,,,,,,,,,,,,,,,,,,,,,,,,,,,,,,,,,,,,,,,,,,,,,,,,,,,,,,,,,141.0,141.0,200.0,125.0,125.0,200.0,1.0,1.2,-229,14,0,-10,258,18,109.70828604698181,109.70836114883423,109.7115638256073,109.72215342521667,109.8725233078003,109.8725233078003,109.8725233078003,109.8725233078003,109.8725233078003,109.8725233078003,109.8725233078003,110.80684804916382,3,1.0681476593017578,None,,,,,,,,,,,,,,,,,,34,4,2025-02-19_11h26.00.745,comp,2024.2.4,None,2025-02-19 11h26.20.929489 -0500,
41,41,0,filler_random,None,None,None,None,None,None,None,None,None,None,2,0.8754949569702148,None,,,,,0,0,0,0,0,41,41,164,110.82718062400818,,,,,,,,,,,,,,,,,,,,,,,,,,,,,,,,,,,,,,,,,,,,,,,,,,,,,,,,,,,,,,,,,,,,,,,,,,,,,,,,,198.97407050885826,89.27163210580349,195.76911163420783,124.45677703305243,167.338171061792,106.97862291665182,2.2,2.21,-203,-264,0,287,212,252,110.80887985229492,110.80896282196045,110.81218409538269,110.82718062400818,110.97285628318787,110.97285628318787,110.97285628318787,110.97285628318787,110.97285628318787,110.97285628318787,110.97285628318787,111.70961046218872,2,0.8754949569702148,None,,,,,,,,,,,,,,,,,,34,4,2025-02-19_11h26.00.745,comp,2024.2.4,None,2025-02-19 11h26.20.929489 -0500,
42,42,0,critical,dwh,20.0,3.0,upper,141.0,141.0,125.0,200.0,200.0,125.0,2,1.5438051223754883,None,,,,,0,0,0,0,0,42,42,69,111.7265727519989,,,,,,,,,,,,,,,,,,,,,,,,,,,,,,,,,,,,,,,,,,,,,,,,,,,,,,,,,,,,,,,,,,,,,,,,,,,,,,,,,141.0,141.0,125.0,200.0,200.0,125.0,3.0,3.2,-266,-274,0,16,258,269,111.7112774848938,111.71136045455933,111.71486282348633,111.7265727519989,111.87396240234375,111.87396240234375,111.87396240234375,111.87396240234375,111.87396240234375,111.87396240234375,111.87396240234375,113.27515769004822,2,1.5438051223754883,None,,,,,,,,,,,,,,,,,,34,4,2025-02-19_11h26.00.745,comp,2024.2.4,None,2025-02-19 11h26.20.929489 -0500,
43,43,0,filler_random,None,None,None,None,None,None,None,None,None,None,1,1.4586775302886963,None,,,,,0,0,0,0,0,43,43,158,113.291424036026,,,,,,,,,,,,,,,,,,,,,,,,,,,,,,,,,,,,,,,,,,,,,,,,,,,,,,,,,,,,,,,,,,,,,,,,,,,,,,,,,185.05094702533154,135.36170337627075,99.98919695205177,141.0098038246317,96.16325423357426,60.60038268916561,4.0,4.2,-234,17,0,-268,197,20,113.27684831619263,113.27698516845703,113.2804663181305,113.291424036026,113.44000220298767,113.44000220298767,113.44000220298767,113.44000220298767,113.44000220298767,113.44000220298767,113.44000220298767,114.76059603691101,1,1.4586775302886963,None,,,,,,,,,,,,,,,,,,34,4,2025-02-19_11h26.00.745,comp,2024.2.4,None,2025-02-19 11h26.20.929489 -0500,
44,44,0,critical,dhw,20.0,4.0,lower,78.0,78.0,133.0,57.0,57.0,133.0,2,1.421520709991455,None,,,,,0,0,0,0,0,44,44,58,114.7764961719513,,,,,,,,,,,,,,,,,,,,,,,,,,,,,,,,,,,,,,,,,,,,,,,,,,,,,,,,,,,,,,,,,,,,,,,,,,,,,,,,,78.0,78.0,133.0,57.0,57.0,133.0,4.0,4.1,-164,-275,0,17,191,-266,114.76223349571228,114.76231694221497,114.76578640937805,114.7764961719513,114.92460680007935,114.92460680007935,114.92460680007935,114.92460680007935,114.92460680007935,114.92460680007935,114.92460680007935,116.21057868003845,2,1.421520709991455,None,,,,,,,,,,,,,,,,,,34,4,2025-02-19_11h26.00.745,comp,2024.2.4,None,2025-02-19 11h26.20.929489 -0500,
45,45,0,critical,hdw,35.0,4.0,upper,200.0,125.0,127.0,127.0,125.0,200.0,1,2.7967538833618164,None,,,,,0,0,0,0,0,45,45,113,116.22633194923401,,,,,,,,,,,,,,,,,,,,,,,,,,,,,,,,,,,,,,,,,,,,,,,,,,,,,,,,,,,,,,,,,,,,,,,,,,,,,,,,,200.0,125.0,127.0,127.0,125.0,200.0,4.0,4.2,-222,16,0,-253,260,-5,116.21217131614685,116.2122573852539,116.21558713912964,116.22633194923401,116.37571382522583,116.37571382522583,116.37571382522583,116.37571382522583,116.37571382522583,116.37571382522583,116.37571382522583,119.02684879302979,1,2.7967538833618164,None,,,,,,,,,,,,,,,,,,34,4,2025-02-19_11h26.00.745,comp,2024.2.4,None,2025-02-19 11h26.20.929489 -0500,
46,46,0,critical,hwd,35.0,1.0,lower,133.0,57.0,57.0,133.0,70.0,70.0,2,1.002645492553711,None,,,,,0,0,0,0,0,46,46,96,119.0434422492981,,,,,,,,,,,,,,,,,,,,,,,,,,,,,,,,,,,,,,,,,,,,,,,,,,,,,,,,,,,,,,,,,,,,,,,,,,,,,,,,,133.0,57.0,57.0,133.0,70.0,70.0,1.0,1.3,289,-261,480,-280,678,-286,119.02853727340698,119.02867531776428,119.03215265274048,119.0434422492981,119.18194699287415,119.18194699287415,119.18194699287415,119.18194699287415,119.18194699287415,119.18194699287415,119.18194699287415,120.0627372264862,2,1.002645492553711,None,,,,,,,,,,,,,,,,,,34,4,2025-02-19_11h26.00.745,comp,2024.2.4,None,2025-02-19 11h26.20.929489 -0500,
47,47,0,critical,dwh,35.0,3.0,upper,127.0,127.0,125.0,200.0,200.0,125.0,2,2.615597724914551,None,,,,,0,0,0,0,0,47,47,63,120.0787501335144,,,,,,,,,,,,,,,,,,,,,,,,,,,,,,,,,,,,,,,,,,,,,,,,,,,,,,,,,,,,,,,,,,,,,,,,,,,,,,,,,127.0,127.0,125.0,200.0,200.0,125.0,3.0,3.1,-260,281,0,19,258,-258,120.06450581550598,120.06458735466003,120.06848454475403,120.0787501335144,120.21499371528625,120.21499371528625,120.21499371528625,120.21499371528625,120.21499371528625,120.21499371528625,120.21499371528625,122.69706511497498,2,2.615597724914551,None,,,,,,,,,,,,,,,,,,34,4,2025-02-19_11h26.00.745,comp,2024.2.4,None,2025-02-19 11h26.20.929489 -0500,
48,48,0,critical,hdw,35.0,1.0,upper,200.0,125.0,127.0,127.0,125.0,200.0,1,0.8783509731292725,None,,,,,0,0,0,0,0,48,48,109,122.71260452270508,,,,,,,,,,,,,,,,,,,,,,,,,,,,,,,,,,,,,,,,,,,,,,,,,,,,,,,,,,,,,,,,,,,,,,,,,,,,,,,,,200.0,125.0,127.0,127.0,125.0,200.0,1.0,1.3,258,-259,480,-279,740,-281,122.69867706298828,122.69875431060791,122.70193266868591,122.71260452270508,122.84891653060913,122.84891653060913,122.84891653060913,122.84891653060913,122.84891653060913,122.84891653060913,122.84891653060913,123.59874558448792,1,0.8783509731292725,None,,,,,,,,,,,,,,,,,,34,4,2025-02-19_11h26.00.745,comp,2024.2.4,None,2025-02-19 11h26.20.929489 -0500,
49,49,0,critical,hwd,20.0,1.0,lower,133.0,57.0,57.0,133.0,78.0,78.0,1,1.958981990814209,None,,,,,0,0,0,0,0,49,49,102,123.61647248268127,,,,,,,,,,,,,,,,,,,,,,,,,,,,,,,,,,,,,,,,,,,,,,,,,,,,,,,,,,,,,,,,,,,,,,,,,,,,,,,,,133.0,57.0,57.0,133.0,78.0,78.0,1.0,1.3,289,-286,480,-282,682,-278,123.60041737556458,123.60049510002136,123.60334825515747,123.61647248268127,123.76137375831604,123.76137375831604,123.76137375831604,123.76137375831604,123.76137375831604,123.76137375831604,123.76137375831604,125.59063005447388,1,1.958981990814209,None,,,,,,,,,,,,,,,,,,34,4,2025-02-19_11h26.00.745,comp,2024.2.4,None,2025-02-19 11h26.20.929489 -0500,
50,50,0,filler_square,None,None,None,None,None,None,None,None,None,None,3,0.9271800518035889,None,,,,,0,0,0,0,0,50,50,177,125.60687708854675,,,,,,,,,,,,,,,,,,,,,,,,,,,,,,,,,,,,,,,,,,,,,,,,,,,,,,,,,,,,,,,,,,,,,,,,,,,,,,,,,86.60450497922356,107.40130024346749,120.9709585208295,121.9639537312562,159.3960063649201,159.3960063649201,1.0,1.1,-691,279,-480,257,-243,265,125.59272003173828,125.59280014038086,125.59619688987732,125.60687708854675,125.74441385269165,125.74441385269165,125.74441385269165,125.74441385269165,125.74441385269165,125.74441385269165,125.74441385269165,126.54896020889282,3,0.9271800518035889,None,,,,,,,,,,,,,,,,,,34,4,2025-02-19_11h26.00.745,comp,2024.2.4,None,2025-02-19 11h26.20.929489 -0500,
51,51,0,filler_square,None,None,None,None,None,None,None,None,None,None,2,0.922579288482666,None,,,,,0,0,0,0,0,51,51,195,126.56533598899841,,,,,,,,,,,,,,,,,,,,,,,,,,,,,,,,,,,,,,,,,,,,,,,,,,,,,,,,,,,,,,,,,,,,,,,,,,,,,,,,,113.54800029025823,72.84914898715115,135.8245334412443,135.8245334412443,64.4687032967217,99.48636666718679,3.0,3.2,-200,-288,0,-2,214,253,126.55087041854858,126.55095529556274,126.55393552780151,126.56533598899841,126.71258401870728,126.71258401870728,126.71258401870728,126.71258401870728,126.71258401870728,126.71258401870728,126.71258401870728,127.49739909172058,2,0.922579288482666,None,,,,,,,,,,,,,,,,,,34,4,2025-02-19_11h26.00.745,comp,2024.2.4,None,2025-02-19 11h26.20.929489 -0500,
52,52,0,filler_square,None,None,None,None,None,None,None,None,None,None,3,1.810070514678955,None,,,,,0,0,0,0,0,52,52,179,127.51645946502686,,,,,,,,,,,,,,,,,,,,,,,,,,,,,,,,,,,,,,,,,,,,,,,,,,,,,,,,,,,,,,,,,,,,,,,,,,,,,,,,,61.03841339391521,59.4323925080517,57.50447103319494,58.26347703769279,61.17751075637011,61.17751075637011,1.0,1.2,-155,15,0,-16,156,-17,127.49920558929443,127.49932265281677,127.50323939323425,127.51645946502686,127.66279196739197,127.66279196739197,127.66279196739197,127.66279196739197,127.66279196739197,127.66279196739197,127.66279196739197,129.33119177818298,3,1.810070514678955,None,,,,,,,,,,,,,,,,,,34,4,2025-02-19_11h26.00.745,comp,2024.2.4,None,2025-02-19 11h26.20.929489 -0500,
53,53,0,critical,hdw,35.0,2.1,lower,133.0,57.0,70.0,70.0,57.0,133.0,3,1.2347075939178467,None,,,,,0,0,0,0,0,53,53,44,129.34766340255737,,,,,,,,,,,,,,,,,,,,,,,,,,,,,,,,,,,,,,,,,,,,,,,,,,,,,,,,,,,,,,,,,,,,,,,,,,,,,,,,,133.0,57.0,70.0,70.0,57.0,133.0,2.1,2.12,-160,-269,0,-262,198,280,129.33267307281494,129.33274865150452,129.33686518669128,129.34766340255737,129.49707555770874,129.49707555770874,129.49707555770874,129.49707555770874,129.49707555770874,129.49707555770874,129.49707555770874,130.60158586502075,3,1.2347075939178467,None,,,,,,,,,,,,,,,,,,34,4,2025-02-19_11h26.00.745,comp,2024.2.4,None,2025-02-19 11h26.20.929489 -0500,
54,54,0,filler_square,None,None,None,None,None,None,None,None,None,None,2,3.059190511703491,None,,,,,0,0,0,0,0,54,54,204,130.61992573738098,,,,,,,,,,,,,,,,,,,,,,,,,,,,,,,,,,,,,,,,,,,,,,,,,,,,,,,,,,,,,,,,,,,,,,,,,,,,,,,,,59.26770555176345,63.43461235905351,65.66329452769939,65.66329452769939,60.88109530878855,65.41872346625019,4.0,4.2,-161,20,0,-276,162,-19,130.60368609428406,130.60376691818237,130.60707020759583,130.61992573738098,130.76654720306396,130.76654720306396,130.76654720306396,130.76654720306396,130.76654720306396,130.76654720306396,130.76654720306396,133.68185257911682,2,3.059190511703491,None,,,,,,,,,,,,,,,,,,34,4,2025-02-19_11h26.00.745,comp,2024.2.4,None,2025-02-19 11h26.20.929489 -0500,
55,55,0,critical,hdw,20.0,2.1,lower,133.0,57.0,78.0,78.0,57.0,133.0,3,1.6196198463439941,None,,,,,0,0,0,0,0,55,55,22,133.69849634170532,,,,,,,,,,,,,,,,,,,,,,,,,,,,,,,,,,,,,,,,,,,,,,,,,,,,,,,,,,,,,,,,,,,,,,,,,,,,,,,,,133.0,57.0,78.0,78.0,57.0,133.0,2.1,2.11,-164,275,0,264,202,-285,133.68350100517273,133.68364262580872,133.6877417564392,133.69849634170532,133.84891057014465,133.84891057014465,133.84891057014465,133.84891057014465,133.84891057014465,133.84891057014465,133.84891057014465,135.33103704452515,3,1.6196198463439941,None,,,,,,,,,,,,,,,,,,34,4,2025-02-19_11h26.00.745,comp,2024.2.4,None,2025-02-19 11h26.20.929489 -0500,
56,56,0,filler_square,None,None,None,None,None,None,None,None,None,None,2,2.259176015853882,None,,,,,0,0,0,0,0,56,56,189,135.34722805023193,,,,,,,,,,,,,,,,,,,,,,,,,,,,,,,,,,,,,,,,,,,,,,,,,,,,,,,,,,,,,,,,,,,,,,,,,,,,,,,,,73.144482776785,74.73385539744808,79.95374860958833,79.95374860958833,65.87045974827411,65.29654612278266,4.0,4.1,-173,-273,0,-15,169,-266,135.3328034877777,135.33291125297546,135.33604168891907,135.34722805023193,135.50538635253906,135.50538635253906,135.50538635253906,135.50538635253906,135.50538635253906,135.50538635253906,135.50538635253906,137.61841988563538,2,2.259176015853882,None,,,,,,,,,,,,,,,,,,34,4,2025-02-19_11h26.00.745,comp,2024.2.4,None,2025-02-19 11h26.20.929489 -0500,
57,57,0,critical,wdh,35.0,2.1,upper,125.0,200.0,127.0,127.0,200.0,125.0,3,1.460008144378662,None,,,,,0,0,0,0,0,57,57,9,137.63408946990967,,,,,,,,,,,,,,,,,,,,,,,,,,,,,,,,,,,,,,,,,,,,,,,,,,,,,,,,,,,,,,,,,,,,,,,,,,,,,,,,,125.0,200.0,127.0,127.0,200.0,125.0,2.1,2.12,-260,-286,0,-274,222,256,137.62021327018738,137.62034368515015,137.62371468544006,137.63408946990967,137.78234457969666,137.78234457969666,137.78234457969666,137.78234457969666,137.78234457969666,137.78234457969666,137.78234457969666,139.11106777191162,3,1.460008144378662,None,,,,,,,,,,,,,,,,,,34,4,2025-02-19_11h26.00.745,comp,2024.2.4,None,2025-02-19 11h26.20.929489 -0500,
58,58,0,filler_random,None,None,None,None,None,None,None,None,None,None,2,1.3188927173614502,None,,,,,0,0,0,0,0,58,58,131,139.12892508506775,,,,,,,,,,,,,,,,,,,,,,,,,,,,,,,,,,,,,,,,,,,,,,,,,,,,,,,,,,,,,,,,,,,,,,,,,,,,,,,,,73.73449963144262,193.31162754106523,176.41294862041883,148.2094768963466,140.61375227775216,88.56261683788176,4.0,4.2,-267,-1,0,-272,214,6,139.11289262771606,139.11300539970398,139.11624693870544,139.12892508506775,139.26764178276062,139.26764178276062,139.26764178276062,139.26764178276062,139.26764178276062,139.26764178276062,139.26764178276062,140.45361876487732,2,1.3188927173614502,None,,,,,,,,,,,,,,,,,,34,4,2025-02-19_11h26.00.745,comp,2024.2.4,None,2025-02-19 11h26.20.929489 -0500,
59,59,0,critical,dwh,20.0,2.1,lower,78.0,78.0,57.0,133.0,133.0,57.0,3,7.187740087509155,None,,,,,0,0,0,0,0,59,59,6,140.4750463962555,,,,,,,,,,,,,,,,,,,,,,,,,,,,,,,,,,,,,,,,,,,,,,,,,,,,,,,,,,,,,,,,,,,,,,,,,,,,,,,,,78.0,78.0,57.0,133.0,133.0,57.0,2.1,2.12,-202,-267,0,-252,191,266,140.45542216300964,140.45552372932434,140.4590973854065,140.4750463962555,140.61858344078064,140.61858344078064,140.61858344078064,140.61858344078064,140.61858344078064,140.61858344078064,140.61858344078064,147.66823482513428,3,7.187740087509155,None,,,,,,,,,,,,,,,,,,34,4,2025-02-19_11h26.00.745,comp,2024.2.4,None,2025-02-19 11h26.20.929489 -0500,
60,60,0,critical,hwd,35.0,2.1,lower,133.0,57.0,57.0,133.0,70.0,70.0,1,3.041961669921875,None,,,,,0,0,0,0,0,60,60,40,147.68461275100708,,,,,,,,,,,,,,,,,,,,,,,,,,,,,,,,,,,,,,,,,,,,,,,,,,,,,,,,,,,,,,,,,,,,,,,,,,,,,,,,,133.0,57.0,57.0,133.0,70.0,70.0,2.1,2.11,-191,260,0,258,198,-281,147.6697289943695,147.66980814933777,147.67301678657532,147.68461275100708,147.8349347114563,147.8349347114563,147.8349347114563,147.8349347114563,147.8349347114563,147.8349347114563,147.8349347114563,150.73861932754517,1,3.041961669921875,None,,,,,,,,,,,,,,,,,,34,4,2025-02-19_11h26.00.745,comp,2024.2.4,None,2025-02-19 11h26.20.929489 -0500,
61,61,0,filler_random,None,None,None,None,None,None,None,None,None,None,1,1.3315517902374268,None,,,,,0,0,0,0,0,61,61,133,150.75487565994263,,,,,,,,,,,,,,,,,,,,,,,,,,,,,,,,,,,,,,,,,,,,,,,,,,,,,,,,,,,,,,,,,,,,,,,,,,,,,,,,,171.2966544291355,180.97209953483357,186.592740111238,68.40603616987187,180.5807791260327,122.87958448209032,2.2,2.21,-221,-250,0,270,192,256,150.74051547050476,150.74059915542603,150.7445297241211,150.75487565994263,150.89418864250183,150.89418864250183,150.89418864250183,150.89418864250183,150.89418864250183,150.89418864250183,150.89418864250183,152.09167861938477,1,1.3315517902374268,None,,,,,,,,,,,,,,,,,,34,4,2025-02-19_11h26.00.745,comp,2024.2.4,None,2025-02-19 11h26.20.929489 -0500,
62,62,0,filler_random,None,None,None,None,None,None,None,None,None,None,1,0.8943881988525391,None,,,,,0,0,0,0,0,62,62,155,152.11184072494507,,,,,,,,,,,,,,,,,,,,,,,,,,,,,,,,,,,,,,,,,,,,,,,,,,,,,,,,,,,,,,,,,,,,,,,,,,,,,,,,,187.69170993811798,183.7615539879062,79.6122011896103,59.855583978690085,126.51020587893034,168.71947696237777,2.1,2.11,-218,270,0,282,210,-278,152.09334516525269,152.0934226512909,152.09630250930786,152.11184072494507,152.25410175323486,152.25410175323486,152.25410175323486,152.25410175323486,152.25410175323486,152.25410175323486,152.25410175323486,153.01797342300415,1,0.8943881988525391,None,,,,,,,,,,,,,,,,,,34,4,2025-02-19_11h26.00.745,comp,2024.2.4,None,2025-02-19 11h26.20.929489 -0500,
63,63,0,critical,wdh,35.0,3.0,upper,125.0,200.0,127.0,127.0,200.0,125.0,3,1.2991619110107422,None,,,,,0,0,0,0,0,63,63,75,153.03492975234985,,,,,,,,,,,,,,,,,,,,,,,,,,,,,,,,,,,,,,,,,,,,,,,,,,,,,,,,,,,,,,,,,,,,,,,,,,,,,,,,,125.0,200.0,127.0,127.0,200.0,125.0,3.0,3.1,-260,287,0,6,222,-254,153.0194866657257,153.01956295967102,153.0225350856781,153.03492975234985,153.1885130405426,153.1885130405426,153.1885130405426,153.1885130405426,153.1885130405426,153.1885130405426,153.1885130405426,154.337904214859,3,1.2991619110107422,None,,,,,,,,,,,,,,,,,,34,4,2025-02-19_11h26.00.745,comp,2024.2.4,None,2025-02-19 11h26.20.929489 -0500,
64,64,0,critical,wdh,20.0,2.1,upper,125.0,200.0,141.0,141.0,200.0,125.0,3,1.2523810863494873,None,,,,,0,0,0,0,0,64,64,11,154.35391688346863,,,,,,,,,,,,,,,,,,,,,,,,,,,,,,,,,,,,,,,,,,,,,,,,,,,,,,,,,,,,,,,,,,,,,,,,,,,,,,,,,125.0,200.0,141.0,141.0,200.0,125.0,2.1,2.12,-266,-282,0,-259,229,286,154.33941268920898,154.33949446678162,154.34331846237183,154.35391688346863,154.50379967689514,154.50379967689514,154.50379967689514,154.50379967689514,154.50379967689514,154.50379967689514,154.50379967689514,155.6263496875763,3,1.2523810863494873,None,,,,,,,,,,,,,,,,,,34,4,2025-02-19_11h26.00.745,comp,2024.2.4,None,2025-02-19 11h26.20.929489 -0500,
65,65,0,filler_random,None,None,None,None,None,None,None,None,None,None,1,1.4792146682739258,None,,,,,0,0,0,0,0,65,65,150,155.64688873291016,,,,,,,,,,,,,,,,,,,,,,,,,,,,,,,,,,,,,,,,,,,,,,,,,,,,,,,,,,,,,,,,,,,,,,,,,,,,,,,,,141.77561448227837,124.46907935982293,84.96982151893599,99.76643913593057,106.06366854468155,146.35112003077674,3.0,3.1,-208,283,0,-9,219,-268,155.62813258171082,155.6282675266266,155.63150930404663,155.64688873291016,155.78888821601868,155.78888821601868,155.78888821601868,155.78888821601868,155.78888821601868,155.78888821601868,155.78888821601868,157.14002013206482,1,1.4792146682739258,None,,,,,,,,,,,,,,,,,,34,4,2025-02-19_11h26.00.745,comp,2024.2.4,None,2025-02-19 11h26.20.929489 -0500,
66,66,0,critical,wdh,20.0,2.1,upper,125.0,200.0,141.0,141.0,200.0,125.0,1,1.15769624710083,None,,,,,0,0,0,0,0,66,66,35,157.16048622131348,,,,,,,,,,,,,,,,,,,,,,,,,,,,,,,,,,,,,,,,,,,,,,,,,,,,,,,,,,,,,,,,,,,,,,,,,,,,,,,,,125.0,200.0,141.0,141.0,200.0,125.0,2.1,2.12,-266,-252,0,-275,229,266,157.14165925979614,157.14179134368896,157.14486479759216,157.16048622131348,157.30555868148804,157.30555868148804,157.30555868148804,157.30555868148804,157.30555868148804,157.30555868148804,157.30555868148804,158.3228886127472,1,1.15769624710083,None,,,,,,,,,,,,,,,,,,34,4,2025-02-19_11h26.00.745,comp,2024.2.4,None,2025-02-19 11h26.20.929489 -0500,
67,67,0,critical,wdh,35.0,4.0,upper,125.0,200.0,127.0,127.0,200.0,125.0,3,1.0615830421447754,None,,,,,0,0,0,0,0,67,67,77,158.33733105659485,,,,,,,,,,,,,,,,,,,,,,,,,,,,,,,,,,,,,,,,,,,,,,,,,,,,,,,,,,,,,,,,,,,,,,,,,,,,,,,,,125.0,200.0,127.0,127.0,200.0,125.0,4.0,4.2,-260,13,0,-287,222,12,158.3244595527649,158.3245403766632,158.32796359062195,158.33733105659485,158.49024844169617,158.49024844169617,158.49024844169617,158.49024844169617,158.49024844169617,158.49024844169617,158.49024844169617,159.4062783718109,3,1.0615830421447754,None,,,,,,,,,,,,,,,,,,34,4,2025-02-19_11h26.00.745,comp,2024.2.4,None,2025-02-19 11h26.20.929489 -0500,
68,68,0,critical,whd,35.0,2.1,upper,125.0,200.0,200.0,125.0,127.0,127.0,1,1.8562414646148682,None,,,,,0,0,0,0,0,68,68,37,159.42294430732727,,,,,,,,,,,,,,,,,,,,,,,,,,,,,,,,,,,,,,,,,,,,,,,,,,,,,,,,,,,,,,,,,,,,,,,,,,,,,,,,,125.0,200.0,200.0,125.0,127.0,127.0,2.1,2.11,-258,287,0,265,222,-287,159.4077410697937,159.40784358978271,159.41132855415344,159.42294430732727,159.57163453102112,159.57163453102112,159.57163453102112,159.57163453102112,159.57163453102112,159.57163453102112,159.57163453102112,161.29572296142578,1,1.8562414646148682,None,,,,,,,,,,,,,,,,,,34,4,2025-02-19_11h26.00.745,comp,2024.2.4,None,2025-02-19 11h26.20.929489 -0500,
69,69,0,critical,wdh,35.0,4.0,lower,57.0,133.0,70.0,70.0,133.0,57.0,1,1.2853693962097168,None,,,,,0,0,0,0,0,69,69,76,161.31354546546936,,,,,,,,,,,,,,,,,,,,,,,,,,,,,,,,,,,,,,,,,,,,,,,,,,,,,,,,,,,,,,,,,,,,,,,,,,,,,,,,,57.0,133.0,70.0,70.0,133.0,57.0,4.0,4.1,-198,-273,0,-14,160,-283,161.297283411026,161.29736328125,161.30030226707458,161.31354546546936,161.4567060470581,161.4567060470581,161.4567060470581,161.4567060470581,161.4567060470581,161.4567060470581,161.4567060470581,162.60742211341858,1,1.2853693962097168,None,,,,,,,,,,,,,,,,,,34,4,2025-02-19_11h26.00.745,comp,2024.2.4,None,2025-02-19 11h26.20.929489 -0500,
70,70,0,filler_random,None,None,None,None,None,None,None,None,None,None,2,0.9179601669311523,None,,,,,0,0,0,0,0,70,70,141,162.62414932250977,,,,,,,,,,,,,,,,,,,,,,,,,,,,,,,,,,,,,,,,,,,,,,,,,,,,,,,,,,,,,,,,,,,,,,,,,,,,,,,,,92.89560181317103,150.64863017541995,145.5009547026569,184.5549602402246,97.38890355573886,72.72559403940149,2.2,2.22,-264,272,0,-268,225,-282,162.60919904708862,162.6092767715454,162.6134660243988,162.62414932250977,162.78007435798645,162.78007435798645,162.78007435798645,162.78007435798645,162.78007435798645,162.78007435798645,162.78007435798645,163.55602431297302,2,0.9179601669311523,None,,,,,,,,,,,,,,,,,,34,4,2025-02-19_11h26.00.745,comp,2024.2.4,None,2025-02-19 11h26.20.929489 -0500,
71,71,0,critical,hwd,20.0,1.0,upper,200.0,125.0,125.0,200.0,141.0,141.0,2,0.6830990314483643,None,,,,,0,0,0,0,0,71,71,103,163.57176327705383,,,,,,,,,,,,,,,,,,,,,,,,,,,,,,,,,,,,,,,,,,,,,,,,,,,,,,,,,,,,,,,,,,,,,,,,,,,,,,,,,200.0,125.0,125.0,200.0,141.0,141.0,1.0,1.2,-258,2,0,14,266,-6,163.55747961997986,163.55755472183228,163.5605068206787,163.57176327705383,163.70812845230103,163.70812845230103,163.70812845230103,163.70812845230103,163.70812845230103,163.70812845230103,163.70812845230103,164.25806736946106,2,0.6830990314483643,None,,,,,,,,,,,,,,,,,,34,4,2025-02-19_11h26.00.745,comp,2024.2.4,None,2025-02-19 11h26.20.929489 -0500,
72,72,0,catch,None,None,None,None,None,None,None,None,None,None,2,1.2193758487701416,None,,,,,0,0,0,0,0,72,72,129,164.27477359771729,,,,,,,,,,,,,,,,,,,,,,,,,,,,,,,,,,,,,,,,,,,,,,,,,,,,,,,,,,,,,,,,,,,,,,,,,,,,,,,,,146,179,59,131,119,71,4.0,4.1,-251,-257,0,-3,197,-263,164.25998711585999,164.26006603240967,164.2641007900238,164.27477359771729,164.433091878891,164.433091878891,164.433091878891,164.433091878891,164.433091878891,164.433091878891,164.433091878891,165.51002407073975,2,1.2193758487701416,None,,,,,,,,,,,,,,,,,,34,4,2025-02-19_11h26.00.745,comp,2024.2.4,None,2025-02-19 11h26.20.929489 -0500,
73,73,0,critical,hwd,35.0,2.1,lower,133.0,57.0,57.0,133.0,70.0,70.0,2,2.4568228721618652,None,,,,,0,0,0,0,0,73,73,16,165.5263226032257,,,,,,,,,,,,,,,,,,,,,,,,,,,,,,,,,,,,,,,,,,,,,,,,,,,,,,,,,,,,,,,,,,,,,,,,,,,,,,,,,133.0,57.0,57.0,133.0,70.0,70.0,2.1,2.12,-191,-267,0,-280,198,282,165.51174092292786,165.51189923286438,165.5160596370697,165.5263226032257,165.6710147857666,165.6710147857666,165.6710147857666,165.6710147857666,165.6710147857666,165.6710147857666,165.6710147857666,167.99291348457336,2,2.4568228721618652,None,,,,,,,,,,,,,,,,,,34,4,2025-02-19_11h26.00.745,comp,2024.2.4,None,2025-02-19 11h26.20.929489 -0500,
74,74,0,critical,hwd,20.0,2.1,upper,200.0,125.0,125.0,200.0,141.0,141.0,3,1.243807315826416,None,,,,,0,0,0,0,0,74,74,19,168.01054000854492,,,,,,,,,,,,,,,,,,,,,,,,,,,,,,,,,,,,,,,,,,,,,,,,,,,,,,,,,,,,,,,,,,,,,,,,,,,,,,,,,200.0,125.0,125.0,200.0,141.0,141.0,2.1,2.12,-258,-288,0,-278,266,279,167.99445104599,167.99452900886536,167.9977068901062,168.01054000854492,168.1616997718811,168.1616997718811,168.1616997718811,168.1616997718811,168.1616997718811,168.1616997718811,168.1616997718811,169.26563692092896,3,1.243807315826416,None,,,,,,,,,,,,,,,,,,34,4,2025-02-19_11h26.00.745,comp,2024.2.4,None,2025-02-19 11h26.20.929489 -0500,
75,75,0,critical,dwh,20.0,3.0,lower,78.0,78.0,57.0,133.0,133.0,57.0,1,1.5722696781158447,None,,,,,0,0,0,0,0,75,75,68,169.28229880332947,,,,,,,,,,,,,,,,,,,,,,,,,,,,,,,,,,,,,,,,,,,,,,,,,,,,,,,,,,,,,,,,,,,,,,,,,,,,,,,,,78.0,78.0,57.0,133.0,133.0,57.0,3.0,3.2,-202,-280,0,1,191,250,169.26734280586243,169.26742100715637,169.27040791511536,169.28229880332947,169.4273705482483,169.4273705482483,169.4273705482483,169.4273705482483,169.4273705482483,169.4273705482483,169.4273705482483,170.85877752304077,1,1.5722696781158447,None,,,,,,,,,,,,,,,,,,34,4,2025-02-19_11h26.00.745,comp,2024.2.4,None,2025-02-19 11h26.20.929489 -0500,
76,76,0,critical,hdw,20.0,1.0,upper,200.0,125.0,141.0,141.0,125.0,200.0,3,2.651320219039917,None,,,,,0,0,0,0,0,76,76,115,170.87485027313232,,,,,,,,,,,,,,,,,,,,,,,,,,,,,,,,,,,,,,,,,,,,,,,,,,,,,,,,,,,,,,,,,,,,,,,,,,,,,,,,,200.0,125.0,141.0,141.0,125.0,200.0,1.0,1.1,-709,284,-480,260,-214,275,170.86025953292847,170.86033487319946,170.86332321166992,170.87485027313232,171.01670718193054,171.01670718193054,171.01670718193054,171.01670718193054,171.01670718193054,171.01670718193054,171.01670718193054,173.54334425926208,3,2.651320219039917,None,,,,,,,,,,,,,,,,,,34,4,2025-02-19_11h26.00.745,comp,2024.2.4,None,2025-02-19 11h26.20.929489 -0500,
77,77,0,critical,hwd,35.0,3.0,lower,133.0,57.0,57.0,133.0,70.0,70.0,1,1.3721680641174316,None,,,,,0,0,0,0,0,77,77,98,173.56252360343933,,,,,,,,,,,,,,,,,,,,,,,,,,,,,,,,,,,,,,,,,,,,,,,,,,,,,,,,,,,,,,,,,,,,,,,,,,,,,,,,,133.0,57.0,57.0,133.0,70.0,70.0,3.0,3.1,-191,253,0,12,198,-286,173.5448625087738,173.54494333267212,173.54798030853271,173.56252360343933,173.71080803871155,173.71080803871155,173.71080803871155,173.71080803871155,173.71080803871155,173.71080803871155,173.71080803871155,174.94328331947327,1,1.3721680641174316,None,,,,,,,,,,,,,,,,,,34,4,2025-02-19_11h26.00.745,comp,2024.2.4,None,2025-02-19 11h26.20.929489 -0500,
78,78,0,critical,hwd,20.0,2.1,lower,133.0,57.0,57.0,133.0,78.0,78.0,2,1.0050830841064453,None,,,,,0,0,0,0,0,78,78,18,174.96152877807617,,,,,,,,,,,,,,,,,,,,,,,,,,,,,,,,,,,,,,,,,,,,,,,,,,,,,,,,,,,,,,,,,,,,,,,,,,,,,,,,,133.0,57.0,57.0,133.0,78.0,78.0,2.1,2.11,-191,257,0,253,202,-278,174.94489765167236,174.94499564170837,174.94839310646057,174.96152877807617,175.11129784584045,175.11129784584045,175.11129784584045,175.11129784584045,175.11129784584045,175.11129784584045,175.11129784584045,175.9777708053589,2,1.0050830841064453,None,,,,,,,,,,,,,,,,,,34,4,2025-02-19_11h26.00.745,comp,2024.2.4,None,2025-02-19 11h26.20.929489 -0500,
79,79,0,filler_square,None,None,None,None,None,None,None,None,None,None,1,1.2990803718566895,None,,,,,0,0,0,0,0,79,79,187,175.99510097503662,,,,,,,,,,,,,,,,,,,,,,,,,,,,,,,,,,,,,,,,,,,,,,,,,,,,,,,,,,,,,,,,,,,,,,,,,,,,,,,,,87.22972771979036,87.22972771979036,64.77012352442262,78.84064551332897,84.48269433304463,63.97404338148538,2.1,2.11,-179,257,0,287,167,-264,175.97980999946594,175.97991919517517,175.98334074020386,175.99510097503662,176.14694690704346,176.14694690704346,176.14694690704346,176.14694690704346,176.14694690704346,176.14694690704346,176.14694690704346,177.30894303321838,1,1.2990803718566895,None,,,,,,,,,,,,,,,,,,34,4,2025-02-19_11h26.00.745,comp,2024.2.4,None,2025-02-19 11h26.20.929489 -0500,
80,80,0,critical,dhw,20.0,3.0,lower,78.0,78.0,133.0,57.0,57.0,133.0,2,0.9377822875976562,None,,,,,0,0,0,0,0,80,80,56,177.3248815536499,,,,,,,,,,,,,,,,,,,,,,,,,,,,,,,,,,,,,,,,,,,,,,,,,,,,,,,,,,,,,,,,,,,,,,,,,,,,,,,,,78.0,78.0,133.0,57.0,57.0,133.0,3.0,3.1,-164,264,0,-5,191,-272,177.31049156188965,177.31057000160217,177.31348037719727,177.3248815536499,177.46438145637512,177.46438145637512,177.46438145637512,177.46438145637512,177.46438145637512,177.46438145637512,177.46438145637512,178.2796814441681,2,0.9377822875976562,None,,,,,,,,,,,,,,,,,,34,4,2025-02-19_11h26.00.745,comp,2024.2.4,None,2025-02-19 11h26.20.929489 -0500,
81,81,0,catch,None,None,None,None,None,None,None,None,None,None,1,1.1666321754455566,None,,,,,0,0,0,0,0,81,81,125,178.29588866233826,,,,,,,,,,,,,,,,,,,,,,,,,,,,,,,,,,,,,,,,,,,,,,,,,,,,,,,,,,,,,,,,,,,,,,,,,,,,,,,,,146,179,82,108,105,85,3.0,3.2,-240,-278,0,-1,192,287,178.281809091568,178.2819664478302,178.28554725646973,178.29588866233826,178.44519996643066,178.44519996643066,178.44519996643066,178.44519996643066,178.44519996643066,178.44519996643066,178.44519996643066,179.4653172492981,1,1.1666321754455566,None,,,,,,,,,,,,,,,,,,34,4,2025-02-19_11h26.00.745,comp,2024.2.4,None,2025-02-19 11h26.20.929489 -0500,
82,82,0,filler_square,None,None,None,None,None,None,None,None,None,None,3,1.7314691543579102,None,,,,,0,0,0,0,0,82,82,181,179.48272705078125,,,,,,,,,,,,,,,,,,,,,,,,,,,,,,,,,,,,,,,,,,,,,,,,,,,,,,,,,,,,,,,,,,,,,,,,,,,,,,,,,83.03517920314106,85.0055217546537,85.19411911842943,58.19824644311507,85.77277266252285,85.77277266252285,2.2,2.21,-168,-280,0,282,168,253,179.46764016151428,179.46772241592407,179.4711902141571,179.48272705078125,179.62855339050293,179.62855339050293,179.62855339050293,179.62855339050293,179.62855339050293,179.62855339050293,179.62855339050293,181.23019742965698,3,1.7314691543579102,None,,,,,,,,,,,,,,,,,,34,4,2025-02-19_11h26.00.745,comp,2024.2.4,None,2025-02-19 11h26.20.929489 -0500,
83,83,0,filler_square,None,None,None,None,None,None,None,None,None,None,2,0.8740406036376953,None,,,,,0,0,0,0,0,83,83,192,181.24531173706055,,,,,,,,,,,,,,,,,,,,,,,,,,,,,,,,,,,,,,,,,,,,,,,,,,,,,,,,,,,,,,,,,,,,,,,,,,,,,,,,,128.78940592700866,142.50803153064365,168.16906452801373,168.16906452801373,138.43363725655414,116.65712904309032,1.0,1.2,-251,6,0,-11,238,10,181.23192262649536,181.23199939727783,181.23506951332092,181.24531173706055,181.3990273475647,181.3990273475647,181.3990273475647,181.3990273475647,181.3990273475647,181.3990273475647,181.3990273475647,182.13108944892883,2,0.8740406036376953,None,,,,,,,,,,,,,,,,,,34,4,2025-02-19_11h26.00.745,comp,2024.2.4,None,2025-02-19 11h26.20.929489 -0500,
84,84,0,filler_random,None,None,None,None,None,None,None,None,None,None,3,0.9153437614440918,None,,,,,0,0,0,0,0,84,84,166,182.14678049087524,,,,,,,,,,,,,,,,,,,,,,,,,,,,,,,,,,,,,,,,,,,,,,,,,,,,,,,,,,,,,,,,,,,,,,,,,,,,,,,,,88.00669508462778,179.83582845743877,60.35904667445464,122.66442674135007,139.89464879235447,159.16570244440402,1.0,1.1,-727,263,-480,266,-243,261,182.1327784061432,182.13290786743164,182.13610315322876,182.14678049087524,182.29803705215454,182.29803705215454,182.29803705215454,182.29803705215454,182.29803705215454,182.29803705215454,182.29803705215454,183.08000469207764,3,0.9153437614440918,None,,,,,,,,,,,,,,,,,,34,4,2025-02-19_11h26.00.745,comp,2024.2.4,None,2025-02-19 11h26.20.929489 -0500,
85,85,0,filler_square,None,None,None,None,None,None,None,None,None,None,1,0.9181807041168213,None,,,,,0,0,0,0,0,85,85,182,183.09597396850586,,,,,,,,,,,,,,,,,,,,,,,,,,,,,,,,,,,,,,,,,,,,,,,,,,,,,,,,,,,,,,,,,,,,,,,,,,,,,,,,,126.3717834317046,126.3717834317046,87.70409884773176,75.62373740598589,77.17521365020187,116.26074594123651,2.1,2.12,-197,-259,0,-288,192,274,183.08196020126343,183.0820391178131,183.08559703826904,183.09597396850586,183.24664545059204,183.24664545059204,183.24664545059204,183.24664545059204,183.24664545059204,183.24664545059204,183.24664545059204,184.0337097644806,1,0.9181807041168213,None,,,,,,,,,,,,,,,,,,34,4,2025-02-19_11h26.00.745,comp,2024.2.4,None,2025-02-19 11h26.20.929489 -0500,
86,86,0,filler_random,None,None,None,None,None,None,None,None,None,None,3,0.9776926040649414,None,,,,,0,0,0,0,0,86,86,136,184.05268692970276,,,,,,,,,,,,,,,,,,,,,,,,,,,,,,,,,,,,,,,,,,,,,,,,,,,,,,,,,,,,,,,,,,,,,,,,,,,,,,,,,68.83560553848379,143.51171410780452,87.8863175795434,65.35003665227697,153.6050502995026,141.92292636160732,2.2,2.21,-200,-285,0,277,200,252,184.0356297492981,184.03576707839966,184.0390179157257,184.05268692970276,184.19963598251343,184.19963598251343,184.19963598251343,184.19963598251343,184.19963598251343,184.19963598251343,184.19963598251343,185.03449296951294,3,0.9776926040649414,None,,,,,,,,,,,,,,,,,,34,4,2025-02-19_11h26.00.745,comp,2024.2.4,None,2025-02-19 11h26.20.929489 -0500,
87,87,0,critical,hwd,20.0,4.0,upper,200.0,125.0,125.0,200.0,141.0,141.0,2,0.9118053913116455,None,,,,,0,0,0,0,0,87,87,107,185.05442547798157,,,,,,,,,,,,,,,,,,,,,,,,,,,,,,,,,,,,,,,,,,,,,,,,,,,,,,,,,,,,,,,,,,,,,,,,,,,,,,,,,200.0,125.0,125.0,200.0,141.0,141.0,4.0,4.2,-258,-14,0,-255,266,10,185.03607892990112,185.03615593910217,185.0390329360962,185.05442547798157,185.19850540161133,185.19850540161133,185.19850540161133,185.19850540161133,185.19850540161133,185.19850540161133,185.19850540161133,185.98176503181458,2,0.9118053913116455,None,,,,,,,,,,,,,,,,,,34,4,2025-02-19_11h26.00.745,comp,2024.2.4,None,2025-02-19 11h26.20.929489 -0500,
88,88,0,critical,whd,20.0,4.0,upper,125.0,200.0,200.0,125.0,141.0,141.0,1,1.39219331741333,None,,,,,0,0,0,0,0,88,88,95,185.99792551994324,,,,,,,,,,,,,,,,,,,,,,,,,,,,,,,,,,,,,,,,,,,,,,,,,,,,,,,,,,,,,,,,,,,,,,,,,,,,,,,,,125.0,200.0,200.0,125.0,141.0,141.0,4.0,4.2,-258,-5,0,-263,229,-2,185.98335099220276,185.9834339618683,185.98764753341675,185.99792551994324,186.14766836166382,186.14766836166382,186.14766836166382,186.14766836166382,186.14766836166382,186.14766836166382,186.14766836166382,187.40737581253052,1,1.39219331741333,None,,,,,,,,,,,,,,,,,,34,4,2025-02-19_11h26.00.745,comp,2024.2.4,None,2025-02-19 11h26.20.929489 -0500,
89,89,0,critical,dwh,20.0,2.1,upper,141.0,141.0,125.0,200.0,200.0,125.0,2,0.9993057250976562,None,,,,,0,0,0,0,0,89,89,7,187.4232473373413,,,,,,,,,,,,,,,,,,,,,,,,,,,,,,,,,,,,,,,,,,,,,,,,,,,,,,,,,,,,,,,,,,,,,,,,,,,,,,,,,141.0,141.0,125.0,200.0,200.0,125.0,2.1,2.11,-266,286,0,257,258,-275,187.40905714035034,187.4091935157776,187.41251802444458,187.4232473373413,187.5735948085785,187.5735948085785,187.5735948085785,187.5735948085785,187.5735948085785,187.5735948085785,187.5735948085785,188.4325430393219,2,0.9993057250976562,None,,,,,,,,,,,,,,,,,,34,4,2025-02-19_11h26.00.745,comp,2024.2.4,None,2025-02-19 11h26.20.929489 -0500,
90,90,0,filler_square,None,None,None,None,None,None,None,None,None,None,3,1.2506592273712158,None,,,,,0,0,0,0,0,90,90,183,188.45194745063782,,,,,,,,,,,,,,,,,,,,,,,,,,,,,,,,,,,,,,,,,,,,,,,,,,,,,,,,,,,,,,,,,,,,,,,,,,,,,,,,,65.45283982052538,91.57425107612849,76.53058703699301,95.38120748766846,97.75799116003755,97.75799116003755,4.0,4.1,-189,-282,0,-6,193,-262,188.43444180488586,188.43453526496887,188.43773341178894,188.45194745063782,188.59720587730408,188.59720587730408,188.59720587730408,188.59720587730408,188.59720587730408,188.59720587730408,188.59720587730408,189.7122254371643,3,1.2506592273712158,None,,,,,,,,,,,,,,,,,,34,4,2025-02-19_11h26.00.745,comp,2024.2.4,None,2025-02-19 11h26.20.929489 -0500,
91,91,0,critical,whd,20.0,3.0,upper,125.0,200.0,200.0,125.0,141.0,141.0,1,0.9580938816070557,None,,,,,0,0,0,0,0,91,91,93,189.72806024551392,,,,,,,,,,,,,,,,,,,,,,,,,,,,,,,,,,,,,,,,,,,,,,,,,,,,,,,,,,,,,,,,,,,,,,,,,,,,,,,,,125.0,200.0,200.0,125.0,141.0,141.0,3.0,3.2,-258,-289,0,3,229,289,189.7137246131897,189.71380615234375,189.71722769737244,189.72806024551392,189.88130354881287,189.88130354881287,189.88130354881287,189.88130354881287,189.88130354881287,189.88130354881287,189.88130354881287,190.69988894462585,1,0.9580938816070557,None,,,,,,,,,,,,,,,,,,34,4,2025-02-19_11h26.00.745,comp,2024.2.4,None,2025-02-19 11h26.20.929489 -0500,
92,92,0,filler_random,None,None,None,None,None,None,None,None,None,None,3,1.3299996852874756,None,,,,,0,0,0,0,0,92,92,143,190.71615505218506,,,,,,,,,,,,,,,,,,,,,,,,,,,,,,,,,,,,,,,,,,,,,,,,,,,,,,,,,,,,,,,,,,,,,,,,,,,,,,,,,150.0554202154832,199.45998637775867,172.41485505227377,149.8548240420759,192.86763348661287,198.58025579459957,2.2,2.22,-271,258,0,-259,270,-255,190.70184636116028,190.70193123817444,190.70577263832092,190.71615505218506,190.87002062797546,190.87002062797546,190.87002062797546,190.87002062797546,190.87002062797546,190.87002062797546,190.87002062797546,192.0658996105194,3,1.3299996852874756,None,,,,,,,,,,,,,,,,,,34,4,2025-02-19_11h26.00.745,comp,2024.2.4,None,2025-02-19 11h26.20.929489 -0500,
93,93,0,catch,None,None,None,None,None,None,None,None,None,None,3,0.7809083461761475,None,,,,,0,0,0,0,0,93,93,126,192.08194947242737,,,,,,,,,,,,,,,,,,,,,,,,,,,,,,,,,,,,,,,,,,,,,,,,,,,,,,,,,,,,,,,,,,,,,,,,,,,,,,,,,106,84,61,129,168,157,1.0,1.2,-202,-10,0,10,239,10,192.06784510612488,192.06792736053467,192.07102727890015,192.08194947242737,192.23258638381958,192.23258638381958,192.23258638381958,192.23258638381958,192.23258638381958,192.23258638381958,192.23258638381958,192.86688137054443,3,0.7809083461761475,None,,,,,,,,,,,,,,,,,,34,4,2025-02-19_11h26.00.745,comp,2024.2.4,None,2025-02-19 11h26.20.929489 -0500,
94,94,0,filler_random,None,None,None,None,None,None,None,None,None,None,1,1.4902608394622803,None,,,,,0,0,0,0,0,94,94,142,192.88386392593384,,,,,,,,,,,,,,,,,,,,,,,,,,,,,,,,,,,,,,,,,,,,,,,,,,,,,,,,,,,,,,,,,,,,,,,,,,,,,,,,,149.03227334393267,82.39270708879491,80.9424869051945,129.4696034689515,134.2854518998289,68.36746272753635,2.2,2.22,-202,276,0,-273,195,-268,192.86862444877625,192.86870765686035,192.87277603149414,192.88386392593384,193.03069877624512,193.03069877624512,193.03069877624512,193.03069877624512,193.03069877624512,193.03069877624512,193.03069877624512,194.38352298736572,1,1.4902608394622803,None,,,,,,,,,,,,,,,,,,34,4,2025-02-19_11h26.00.745,comp,2024.2.4,None,2025-02-19 11h26.20.929489 -0500,
95,95,0,filler_random,None,None,None,None,None,None,None,None,None,None,1,0.9832487106323242,None,,,,,0,0,0,0,0,95,95,161,194.39940071105957,,,,,,,,,,,,,,,,,,,,,,,,,,,,,,,,,,,,,,,,,,,,,,,,,,,,,,,,,,,,,,,,,,,,,,,,,,,,,,,,,199.36419240327018,180.69662860078574,77.15729498752762,159.48140775079193,134.13240274554633,61.50917736930444,2.2,2.22,-266,286,0,-259,206,-272,194.3852138519287,194.38529253005981,194.38866686820984,194.39940071105957,194.54951930046082,194.54951930046082,194.54951930046082,194.54951930046082,194.54951930046082,194.54951930046082,194.54951930046082,195.38664627075195,1,0.9832487106323242,None,,,,,,,,,,,,,,,,,,34,4,2025-02-19_11h26.00.745,comp,2024.2.4,None,2025-02-19 11h26.20.929489 -0500,
96,96,0,filler_random,None,None,None,None,None,None,None,None,None,None,3,1.2354202270507812,None,,,,,0,0,0,0,0,96,96,132,195.40274667739868,,,,,,,,,,,,,,,,,,,,,,,,,,,,,,,,,,,,,,,,,,,,,,,,,,,,,,,,,,,,,,,,,,,,,,,,,,,,,,,,,89.09319340352008,127.61704988164716,112.56209272956428,173.1828261558195,140.10424404871088,142.4127036464014,2.1,2.12,-246,-273,0,-252,254,280,195.38865041732788,195.38873100280762,195.39196920394897,195.40274667739868,195.55055236816406,195.55055236816406,195.55055236816406,195.55055236816406,195.55055236816406,195.55055236816406,195.55055236816406,196.65262961387634,3,1.2354202270507812,None,,,,,,,,,,,,,,,,,,34,4,2025-02-19_11h26.00.745,comp,2024.2.4,None,2025-02-19 11h26.20.929489 -0500,
97,97,0,critical,whd,35.0,1.0,lower,57.0,133.0,133.0,57.0,70.0,70.0,2,1.1939702033996582,None,,,,,0,0,0,0,0,97,97,84,196.6686146259308,,,,,,,,,,,,,,,,,,,,,,,,,,,,,,,,,,,,,,,,,,,,,,,,,,,,,,,,,,,,,,,,,,,,,,,,,,,,,,,,,57.0,133.0,133.0,57.0,70.0,70.0,1.0,1.3,289,-264,480,-281,640,-278,196.65427255630493,196.65440273284912,196.65834736824036,196.6686146259308,196.82314801216125,196.82314801216125,196.82314801216125,196.82314801216125,196.82314801216125,196.82314801216125,196.82314801216125,197.86699771881104,2,1.1939702033996582,None,,,,,,,,,,,,,,,,,,34,4,2025-02-19_11h26.00.745,comp,2024.2.4,None,2025-02-19 11h26.20.929489 -0500,
98,98,0,filler_random,None,None,None,None,None,None,None,None,None,None,3,1.1387579441070557,None,,,,,0,0,0,0,0,98,98,145,197.88339376449585,,,,,,,,,,,,,,,,,,,,,,,,,,,,,,,,,,,,,,,,,,,,,,,,,,,,,,,,,,,,,,,,,,,,,,,,,,,,,,,,,88.00358858305208,149.87555908270463,81.7348619432834,92.52093527195515,88.52245017857885,79.14111902440354,2.1,2.12,-217,-278,0,-286,182,265,197.86863136291504,197.86870670318604,197.87186098098755,197.88339376449585,198.0345950126648,198.0345950126648,198.0345950126648,198.0345950126648,198.0345950126648,198.0345950126648,198.0345950126648,199.03488445281982,3,1.1387579441070557,None,,,,,,,,,,,,,,,,,,34,4,2025-02-19_11h26.00.745,comp,2024.2.4,None,2025-02-19 11h26.20.929489 -0500,
99,99,0,critical,dhw,20.0,2.1,upper,141.0,141.0,200.0,125.0,125.0,200.0,1,1.5531954765319824,None,,,,,0,0,0,0,0,99,99,3,199.05334377288818,,,,,,,,,,,,,,,,,,,,,,,,,,,,,,,,,,,,,,,,,,,,,,,,,,,,,,,,,,,,,,,,,,,,,,,,,,,,,,,,,141.0,141.0,200.0,125.0,125.0,200.0,2.1,2.11,-229,267,0,274,258,-290,199.03648567199707,199.03656029701233,199.03988218307495,199.05334377288818,199.20278906822205,199.20278906822205,199.20278906822205,199.20278906822205,199.20278906822205,199.20278906822205,199.20278906822205,200.62129259109497,1,1.5531954765319824,None,,,,,,,,,,,,,,,,,,34,4,2025-02-19_11h26.00.745,comp,2024.2.4,None,2025-02-19 11h26.20.929489 -0500,
100,100,0,critical,hwd,35.0,2.1,upper,200.0,125.0,125.0,200.0,127.0,127.0,2,1.210397720336914,None,,,,,0,0,0,0,0,100,100,41,200.63626170158386,,,,,,,,,,,,,,,,,,,,,,,,,,,,,,,,,,,,,,,,,,,,,,,,,,,,,,,,,,,,,,,,,,,,,,,,,,,,,,,,,200.0,125.0,125.0,200.0,127.0,127.0,2.1,2.12,-258,-284,0,-281,260,261,200.6229691505432,200.6230490207672,200.62598633766174,200.63626170158386,200.78958559036255,200.78958559036255,200.78958559036255,200.78958559036255,200.78958559036255,200.78958559036255,200.78958559036255,201.8517861366272,2,1.210397720336914,None,,,,,,,,,,,,,,,,,,34,4,2025-02-19_11h26.00.745,comp,2024.2.4,None,2025-02-19 11h26.20.929489 -0500,
101,101,0,filler_random,None,None,None,None,None,None,None,None,None,None,2,1.0656425952911377,None,,,,,0,0,0,0,0,101,101,144,201.8686215877533,,,,,,,,,,,,,,,,,,,,,,,,,,,,,,,,,,,,,,,,,,,,,,,,,,,,,,,,,,,,,,,,,,,,,,,,,,,,,,,,,169.86976918951729,95.99281052915052,189.25413497173335,167.52655237760385,59.512790394676976,128.0934873855511,2.2,2.21,-228,-266,0,287,244,288,201.85358381271362,201.85371780395508,201.8570911884308,201.8686215877533,202.01954245567322,202.01954245567322,202.01954245567322,202.01954245567322,202.01954245567322,202.01954245567322,202.01954245567322,202.94110441207886,2,1.0656425952911377,None,,,,,,,,,,,,,,,,,,34,4,2025-02-19_11h26.00.745,comp,2024.2.4,None,2025-02-19 11h26.20.929489 -0500,
102,102,0,filler_random,None,None,None,None,None,None,None,None,None,None,2,1.1114397048950195,None,,,,,0,0,0,0,0,102,102,163,202.95880770683289,,,,,,,,,,,,,,,,,,,,,,,,,,,,,,,,,,,,,,,,,,,,,,,,,,,,,,,,,,,,,,,,,,,,,,,,,,,,,,,,,111.87861522997854,81.01008087344783,102.1140471156584,143.3825655797527,80.30655111025999,139.45482045434483,3.0,3.1,-208,280,0,8,237,-256,202.9427614212036,202.94286012649536,202.94569444656372,202.95880770683289,203.1037802696228,203.1037802696228,203.1037802696228,203.1037802696228,203.1037802696228,203.1037802696228,203.1037802696228,204.08603882789612,2,1.1114397048950195,None,,,,,,,,,,,,,,,,,,34,4,2025-02-19_11h26.00.745,comp,2024.2.4,None,2025-02-19 11h26.20.929489 -0500,
103,103,0,critical,hdw,35.0,1.0,lower,133.0,57.0,70.0,70.0,57.0,133.0,3,1.019787311553955,None,,,,,0,0,0,0,0,103,103,108,204.10645985603333,,,,,,,,,,,,,,,,,,,,,,,,,,,,,,,,,,,,,,,,,,,,,,,,,,,,,,,,,,,,,,,,,,,,,,,,,,,,,,,,,133.0,57.0,70.0,70.0,57.0,133.0,1.0,1.2,-160,8,0,14,198,-15,204.0876235961914,204.0877206325531,204.09114146232605,204.10645985603333,204.25315046310425,204.25315046310425,204.25315046310425,204.25315046310425,204.25315046310425,204.25315046310425,204.25315046310425,205.13926672935486,3,1.019787311553955,None,,,,,,,,,,,,,,,,,,34,4,2025-02-19_11h26.00.745,comp,2024.2.4,None,2025-02-19 11h26.20.929489 -0500,
104,104,0,critical,dwh,20.0,4.0,upper,141.0,141.0,125.0,200.0,200.0,125.0,3,1.0668776035308838,None,,,,,0,0,0,0,0,104,104,71,205.15556716918945,,,,,,,,,,,,,,,,,,,,,,,,,,,,,,,,,,,,,,,,,,,,,,,,,,,,,,,,,,,,,,,,,,,,,,,,,,,,,,,,,141.0,141.0,125.0,200.0,200.0,125.0,4.0,4.2,-266,-20,0,-278,258,19,205.14080548286438,205.14090633392334,205.14473676681519,205.15556716918945,205.30610537528992,205.30610537528992,205.30610537528992,205.30610537528992,205.30610537528992,205.30610537528992,205.30610537528992,206.2264380455017,3,1.0668776035308838,None,,,,,,,,,,,,,,,,,,34,4,2025-02-19_11h26.00.745,comp,2024.2.4,None,2025-02-19 11h26.20.929489 -0500,
105,105,0,critical,wdh,35.0,2.1,upper,125.0,200.0,127.0,127.0,200.0,125.0,1,1.076632022857666,None,,,,,0,0,0,0,0,105,105,33,206.24162793159485,,,,,,,,,,,,,,,,,,,,,,,,,,,,,,,,,,,,,,,,,,,,,,,,,,,,,,,,,,,,,,,,,,,,,,,,,,,,,,,,,125.0,200.0,127.0,127.0,200.0,125.0,2.1,2.12,-260,-263,0,-251,222,262,206.22794818878174,206.2280240058899,206.230881690979,206.24162793159485,206.3871726989746,206.3871726989746,206.3871726989746,206.3871726989746,206.3871726989746,206.3871726989746,206.3871726989746,207.33621954917908,1,1.076632022857666,None,,,,,,,,,,,,,,,,,,34,4,2025-02-19_11h26.00.745,comp,2024.2.4,None,2025-02-19 11h26.20.929489 -0500,
106,106,0,critical,hdw,20.0,1.0,lower,133.0,57.0,78.0,78.0,57.0,133.0,1,1.9464483261108398,None,,,,,0,0,0,0,0,106,106,114,207.3564178943634,,,,,,,,,,,,,,,,,,,,,,,,,,,,,,,,,,,,,,,,,,,,,,,,,,,,,,,,,,,,,,,,,,,,,,,,,,,,,,,,,133.0,57.0,78.0,78.0,57.0,133.0,1.0,1.3,316,-267,480,-279,682,-276,207.33772206306458,207.3377959728241,207.3411374092102,207.3564178943634,207.48851609230042,207.48851609230042,207.48851609230042,207.48851609230042,207.48851609230042,207.48851609230042,207.48851609230042,209.30509448051453,1,1.9464483261108398,None,,,,,,,,,,,,,,,,,,34,4,2025-02-19_11h26.00.745,comp,2024.2.4,None,2025-02-19 11h26.20.929489 -0500,
107,107,0,critical,hwd,35.0,4.0,upper,200.0,125.0,125.0,200.0,127.0,127.0,2,2.580763101577759,None,,,,,0,0,0,0,0,107,107,101,209.32136368751526,,,,,,,,,,,,,,,,,,,,,,,,,,,,,,,,,,,,,,,,,,,,,,,,,,,,,,,,,,,,,,,,,,,,,,,,,,,,,,,,,200.0,125.0,125.0,200.0,127.0,127.0,4.0,4.2,-258,13,0,-271,260,0,209.30671334266663,209.30684542655945,209.31050038337708,209.32136368751526,209.4715690612793,209.4715690612793,209.4715690612793,209.4715690612793,209.4715690612793,209.4715690612793,209.4715690612793,211.90587854385376,2,2.580763101577759,None,,,,,,,,,,,,,,,,,,34,4,2025-02-19_11h26.00.745,comp,2024.2.4,None,2025-02-19 11h26.20.929489 -0500,
108,108,0,filler_square,None,None,None,None,None,None,None,None,None,None,3,0.8119680881500244,None,,,,,0,0,0,0,0,108,108,188,211.92257618904114,,,,,,,,,,,,,,,,,,,,,,,,,,,,,,,,,,,,,,,,,,,,,,,,,,,,,,,,,,,,,,,,,,,,,,,,,,,,,,,,,114.30017047562194,78.4790548948002,86.43054137888987,71.2050388517838,123.25417560328407,123.25417560328407,4.0,4.2,-171,-16,0,-258,193,14,211.90802526474,211.90810585021973,211.91170811653137,211.92257618904114,212.07185220718384,212.07185220718384,212.07185220718384,212.07185220718384,212.07185220718384,212.07185220718384,212.07185220718384,212.74150705337524,3,0.8119680881500244,None,,,,,,,,,,,,,,,,,,34,4,2025-02-19_11h26.00.745,comp,2024.2.4,None,2025-02-19 11h26.20.929489 -0500,
109,109,0,critical,wdh,20.0,4.0,lower,57.0,133.0,78.0,78.0,133.0,57.0,3,1.2411258220672607,None,,,,,0,0,0,0,0,109,109,82,212.75909757614136,,,,,,,,,,,,,,,,,,,,,,,,,,,,,,,,,,,,,,,,,,,,,,,,,,,,,,,,,,,,,,,,,,,,,,,,,,,,,,,,,57.0,133.0,78.0,78.0,133.0,57.0,4.0,4.1,-202,-282,0,0,164,-278,212.743088722229,212.74317169189453,212.7463138103485,212.75909757614136,212.90565133094788,212.90565133094788,212.90565133094788,212.90565133094788,212.90565133094788,212.90565133094788,212.90565133094788,214.0079047679901,3,1.2411258220672607,None,,,,,,,,,,,,,,,,,,34,4,2025-02-19_11h26.00.745,comp,2024.2.4,None,2025-02-19 11h26.20.929489 -0500,
110,110,0,critical,whd,35.0,2.1,lower,57.0,133.0,133.0,57.0,70.0,70.0,1,1.4302489757537842,None,,,,,0,0,0,0,0,110,110,36,214.02428913116455,,,,,,,,,,,,,,,,,,,,,,,,,,,,,,,,,,,,,,,,,,,,,,,,,,,,,,,,,,,,,,,,,,,,,,,,,,,,,,,,,57.0,133.0,133.0,57.0,70.0,70.0,2.1,2.12,-191,-270,0,-278,160,284,214.00951719284058,214.00959825515747,214.01264452934265,214.02428913116455,214.17263674736023,214.17263674736023,214.17263674736023,214.17263674736023,214.17263674736023,214.17263674736023,214.17263674736023,215.47291898727417,1,1.4302489757537842,None,,,,,,,,,,,,,,,,,,34,4,2025-02-19_11h26.00.745,comp,2024.2.4,None,2025-02-19 11h26.20.929489 -0500,
111,111,0,filler_square,None,None,None,None,None,None,None,None,None,None,1,4.557685852050781,None,,,,,0,0,0,0,0,111,111,191,215.48898935317993,,,,,,,,,,,,,,,,,,,,,,,,,,,,,,,,,,,,,,,,,,,,,,,,,,,,,,,,,,,,,,,,,,,,,,,,,,,,,,,,,71.4890585773979,71.4890585773979,69.10507936352246,59.35441205359528,58.790936024413135,70.73990952970955,3.0,3.1,-161,263,0,7,161,-274,215.4746880531311,215.47476625442505,215.47788286209106,215.48898935317993,215.64078974723816,215.64078974723816,215.64078974723816,215.64078974723816,215.64078974723816,215.64078974723816,215.64078974723816,220.05546355247498,1,4.557685852050781,None,,,,,,,,,,,,,,,,,,34,4,2025-02-19_11h26.00.745,comp,2024.2.4,None,2025-02-19 11h26.20.929489 -0500,
112,112,0,filler_random,None,None,None,None,None,None,None,None,None,None,3,1.4061481952667236,None,,,,,0,0,0,0,0,112,112,138,220.0722165107727,,,,,,,,,,,,,,,,,,,,,,,,,,,,,,,,,,,,,,,,,,,,,,,,,,,,,,,,,,,,,,,,,,,,,,,,,,,,,,,,,67.758090285597,84.78857678757777,125.86458394746913,137.3627042556584,138.09460490023503,138.2275416618321,3.0,3.1,-207,276,0,10,234,-268,220.05713939666748,220.05721950531006,220.06012082099915,220.0722165107727,220.20789909362793,220.20789909362793,220.20789909362793,220.20789909362793,220.20789909362793,220.20789909362793,220.20789909362793,221.49331712722778,3,1.4061481952667236,None,,,,,,,,,,,,,,,,,,34,4,2025-02-19_11h26.00.745,comp,2024.2.4,None,2025-02-19 11h26.20.929489 -0500,
113,113,0,filler_square,None,None,None,None,None,None,None,None,None,None,1,1.361778974533081,None,,,,,0,0,0,0,0,113,113,193,221.5089406967163,,,,,,,,,,,,,,,,,,,,,,,,,,,,,,,,,,,,,,,,,,,,,,,,,,,,,,,,,,,,,,,,,,,,,,,,,,,,,,,,,194.81862393386032,194.81862393386032,163.49205623813143,76.77278094045835,187.06661319196752,186.34609565310237,4.0,4.1,-232,-264,0,-17,228,-258,221.49532389640808,221.49540615081787,221.49871850013733,221.5089406967163,221.6615481376648,221.6615481376648,221.6615481376648,221.6615481376648,221.6615481376648,221.6615481376648,221.6615481376648,222.8802514076233,1,1.361778974533081,None,,,,,,,,,,,,,,,,,,34,4,2025-02-19_11h26.00.745,comp,2024.2.4,None,2025-02-19 11h26.20.929489 -0500,
114,114,0,critical,dhw,35.0,3.0,upper,127.0,127.0,200.0,125.0,125.0,200.0,2,2.998746633529663,None,,,,,0,0,0,0,0,114,114,51,222.89540004730225,,,,,,,,,,,,,,,,,,,,,,,,,,,,,,,,,,,,,,,,,,,,,,,,,,,,,,,,,,,,,,,,,,,,,,,,,,,,,,,,,127.0,127.0,200.0,125.0,125.0,200.0,3.0,3.2,-222,-263,0,-12,258,265,222.88186502456665,222.88194632530212,222.884840965271,222.89540004730225,223.04251861572266,223.04251861572266,223.04251861572266,223.04251861572266,223.04251861572266,223.04251861572266,223.04251861572266,225.90976786613464,2,2.998746633529663,None,,,,,,,,,,,,,,,,,,34,4,2025-02-19_11h26.00.745,comp,2024.2.4,None,2025-02-19 11h26.20.929489 -0500,
115,115,0,critical,whd,35.0,4.0,lower,57.0,133.0,133.0,57.0,70.0,70.0,1,2.520242214202881,None,,,,,0,0,0,0,0,115,115,88,225.9260175228119,,,,,,,,,,,,,,,,,,,,,,,,,,,,,,,,,,,,,,,,,,,,,,,,,,,,,,,,,,,,,,,,,,,,,,,,,,,,,,,,,57.0,133.0,133.0,57.0,70.0,70.0,4.0,4.1,-191,-259,0,-11,160,-262,225.9113438129425,225.91141819953918,225.91477942466736,225.9260175228119,226.07904291152954,226.07904291152954,226.07904291152954,226.07904291152954,226.07904291152954,226.07904291152954,226.07904291152954,228.46088075637817,1,2.520242214202881,None,,,,,,,,,,,,,,,,,,34,4,2025-02-19_11h26.00.745,comp,2024.2.4,None,2025-02-19 11h26.20.929489 -0500,
116,116,0,filler_square,None,None,None,None,None,None,None,None,None,None,1,1.1771278381347656,None,,,,,0,0,0,0,0,116,116,203,228.47734308242798,,,,,,,,,,,,,,,,,,,,,,,,,,,,,,,,,,,,,,,,,,,,,,,,,,,,,,,,,,,,,,,,,,,,,,,,,,,,,,,,,177.28921512205255,177.28921512205255,72.3733799007218,155.71354497462374,99.21137777813553,61.720218265037964,2.2,2.22,-263,285,0,-282,205,-282,228.46265983581543,228.4627401828766,228.46624851226807,228.47734308242798,228.61312866210938,228.61312866210938,228.61312866210938,228.61312866210938,228.61312866210938,228.61312866210938,228.61312866210938,229.66210794448853,1,1.1771278381347656,None,,,,,,,,,,,,,,,,,,34,4,2025-02-19_11h26.00.745,comp,2024.2.4,None,2025-02-19 11h26.20.929489 -0500,
117,117,0,filler_random,None,None,None,None,None,None,None,None,None,None,2,0.9073288440704346,None,,,,,0,0,0,0,0,117,117,140,229.68354058265686,,,,,,,,,,,,,,,,,,,,,,,,,,,,,,,,,,,,,,,,,,,,,,,,,,,,,,,,,,,,,,,,,,,,,,,,,,,,,,,,,142.85301455027593,120.86683780478728,172.7170764482692,158.216483222958,108.30028245396137,125.53364327818053,1.0,1.1,-716,278,-480,269,-242,252,229.66367197036743,229.66374897956848,229.66699934005737,229.68354058265686,229.82733130455017,229.82733130455017,229.82733130455017,229.82733130455017,229.82733130455017,229.82733130455017,229.82733130455017,230.59768557548523,2,0.9073288440704346,None,,,,,,,,,,,,,,,,,,34,4,2025-02-19_11h26.00.745,comp,2024.2.4,None,2025-02-19 11h26.20.929489 -0500,
118,118,0,filler_random,None,None,None,None,None,None,None,None,None,None,2,1.9444196224212646,None,,,,,0,0,0,0,0,118,118,137,230.61404585838318,,,,,,,,,,,,,,,,,,,,,,,,,,,,,,,,,,,,,,,,,,,,,,,,,,,,,,,,,,,,,,,,,,,,,,,,,,,,,,,,,127.88315023683025,77.92840321682223,122.08839777509122,74.00460429549328,71.4742376480974,81.97955272946157,2.1,2.11,-172,256,0,276,174,-256,230.5997986793518,230.59995102882385,230.60344052314758,230.61404585838318,230.76160311698914,230.76160311698914,230.76160311698914,230.76160311698914,230.76160311698914,230.76160311698914,230.76160311698914,232.56489324569702,2,1.9444196224212646,None,,,,,,,,,,,,,,,,,,34,4,2025-02-19_11h26.00.745,comp,2024.2.4,None,2025-02-19 11h26.20.929489 -0500,
119,119,0,critical,hwd,35.0,1.0,upper,200.0,125.0,125.0,200.0,127.0,127.0,2,1.7275798320770264,None,,,,,0,0,0,0,0,119,119,97,232.58343720436096,,,,,,,,,,,,,,,,,,,,,,,,,,,,,,,,,,,,,,,,,,,,,,,,,,,,,,,,,,,,,,,,,,,,,,,,,,,,,,,,,200.0,125.0,125.0,200.0,127.0,127.0,1.0,1.2,-258,-6,0,-15,260,14,232.5664825439453,232.5665638446808,232.56964325904846,232.58343720436096,232.73197603225708,232.73197603225708,232.73197603225708,232.73197603225708,232.73197603225708,232.73197603225708,232.73197603225708,234.3295624256134,2,1.7275798320770264,None,,,,,,,,,,,,,,,,,,34,4,2025-02-19_11h26.00.745,comp,2024.2.4,None,2025-02-19 11h26.20.929489 -0500,
120,120,0,critical,dhw,20.0,2.1,lower,78.0,78.0,133.0,57.0,57.0,133.0,3,1.2213129997253418,None,,,,,0,0,0,0,0,120,120,2,234.34508657455444,,,,,,,,,,,,,,,,,,,,,,,,,,,,,,,,,,,,,,,,,,,,,,,,,,,,,,,,,,,,,,,,,,,,,,,,,,,,,,,,,78.0,78.0,133.0,57.0,57.0,133.0,2.1,2.11,-164,266,0,288,191,-272,234.33109736442566,234.33117389678955,234.33470225334167,234.34508657455444,234.494526386261,234.494526386261,234.494526386261,234.494526386261,234.494526386261,234.494526386261,234.494526386261,235.58745884895325,3,1.2213129997253418,None,,,,,,,,,,,,,,,,,,34,4,2025-02-19_11h26.00.745,comp,2024.2.4,None,2025-02-19 11h26.20.929489 -0500,
121,121,0,critical,dwh,35.0,2.1,upper,127.0,127.0,125.0,200.0,200.0,125.0,2,1.6244349479675293,None,,,,,0,0,0,0,0,121,121,29,235.60613656044006,,,,,,,,,,,,,,,,,,,,,,,,,,,,,,,,,,,,,,,,,,,,,,,,,,,,,,,,,,,,,,,,,,,,,,,,,,,,,,,,,127.0,127.0,125.0,200.0,200.0,125.0,2.1,2.12,-260,-268,0,-251,258,279,235.58903002738953,235.58910942077637,235.59202432632446,235.60613656044006,235.74640202522278,235.74640202522278,235.74640202522278,235.74640202522278,235.74640202522278,235.74640202522278,235.74640202522278,237.23287796974182,2,1.6244349479675293,None,,,,,,,,,,,,,,,,,,34,4,2025-02-19_11h26.00.745,comp,2024.2.4,None,2025-02-19 11h26.20.929489 -0500,
122,122,0,critical,dhw,20.0,4.0,upper,141.0,141.0,200.0,125.0,125.0,200.0,2,1.143043041229248,None,,,,,0,0,0,0,0,122,122,59,237.24821043014526,,,,,,,,,,,,,,,,,,,,,,,,,,,,,,,,,,,,,,,,,,,,,,,,,,,,,,,,,,,,,,,,,,,,,,,,,,,,,,,,,141.0,141.0,200.0,125.0,125.0,200.0,4.0,4.1,-229,-290,0,17,258,-267,237.23456287384033,237.23464250564575,237.23754286766052,237.24821043014526,237.39747262001038,237.39747262001038,237.39747262001038,237.39747262001038,237.39747262001038,237.39747262001038,237.39747262001038,238.39610314369202,2,1.143043041229248,None,,,,,,,,,,,,,,,,,,34,4,2025-02-19_11h26.00.745,comp,2024.2.4,None,2025-02-19 11h26.20.929489 -0500,
123,123,0,filler_random,None,None,None,None,None,None,None,None,None,None,3,0.8655834197998047,None,,,,,0,0,0,0,0,123,123,153,238.41285824775696,,,,,,,,,,,,,,,,,,,,,,,,,,,,,,,,,,,,,,,,,,,,,,,,,,,,,,,,,,,,,,,,,,,,,,,,,,,,,,,,,90.97209842175363,62.028301432984044,139.15530459669841,84.49350063493327,199.9864743187179,105.75186185983685,2.2,2.22,-169,283,0,-275,191,-271,238.39774465560913,238.3978409767151,238.4010033607483,238.41285824775696,238.55254077911377,238.55254077911377,238.55254077911377,238.55254077911377,238.55254077911377,238.55254077911377,238.55254077911377,239.2819492816925,3,0.8655834197998047,None,,,,,,,,,,,,,,,,,,34,4,2025-02-19_11h26.00.745,comp,2024.2.4,None,2025-02-19 11h26.20.929489 -0500,
124,124,0,filler_random,None,None,None,None,None,None,None,None,None,None,1,0.8124923706054688,None,,,,,0,0,0,0,0,124,124,154,239.2981104850769,,,,,,,,,,,,,,,,,,,,,,,,,,,,,,,,,,,,,,,,,,,,,,,,,,,,,,,,,,,,,,,,,,,,,,,,,,,,,,,,,135.3391030670823,197.6341239104586,104.19968989591493,73.77228578237856,104.44906110326308,62.06919091912946,1.0,1.3,248,-289,480,-256,644,-284,239.28362655639648,239.283709526062,239.28693747520447,239.2981104850769,239.44687962532043,239.44687962532043,239.44687962532043,239.44687962532043,239.44687962532043,239.44687962532043,239.44687962532043,240.11260104179382,1,0.8124923706054688,None,,,,,,,,,,,,,,,,,,34,4,2025-02-19_11h26.00.745,comp,2024.2.4,None,2025-02-19 11h26.20.929489 -0500,
125,125,0,filler_square,None,None,None,None,None,None,None,None,None,None,1,1.8049936294555664,None,,,,,0,0,0,0,0,125,125,176,240.12918210029602,,,,,,,,,,,,,,,,,,,,,,,,,,,,,,,,,,,,,,,,,,,,,,,,,,,,,,,,,,,,,,,,,,,,,,,,,,,,,,,,,137.4206900839982,137.4206900839982,122.65668393610154,111.3845732058025,124.80156036068941,103.77100813166936,2.2,2.21,-220,-276,0,270,204,285,240.11444330215454,240.11455965042114,240.11798334121704,240.12918210029602,240.28008484840393,240.28008484840393,240.28008484840393,240.28008484840393,240.28008484840393,240.28008484840393,240.28008484840393,241.94855260849,1,1.8049936294555664,None,,,,,,,,,,,,,,,,,,34,4,2025-02-19_11h26.00.745,comp,2024.2.4,None,2025-02-19 11h26.20.929489 -0500,
126,126,0,filler_random,None,None,None,None,None,None,None,None,None,None,1,0.9294943809509277,None,,,,,0,0,0,0,0,126,126,169,241.9647843837738,,,,,,,,,,,,,,,,,,,,,,,,,,,,,,,,,,,,,,,,,,,,,,,,,,,,,,,,,,,,,,,,,,,,,,,,,,,,,,,,,194.40817613421504,188.75260316958855,116.62499757564592,175.46591886199923,121.08798680864754,145.24229820650902,2.2,2.21,-278,-254,0,254,256,260,241.95023679733276,241.9503138065338,241.95379161834717,241.9647843837738,242.10376691818237,242.10376691818237,242.10376691818237,242.10376691818237,242.10376691818237,242.10376691818237,242.10376691818237,242.90495014190674,1,0.9294943809509277,None,,,,,,,,,,,,,,,,,,34,4,2025-02-19_11h26.00.745,comp,2024.2.4,None,2025-02-19 11h26.20.929489 -0500,
127,127,0,filler_square,None,None,None,None,None,None,None,None,None,None,3,0.8924031257629395,None,,,,,0,0,0,0,0,127,127,185,242.92247486114502,,,,,,,,,,,,,,,,,,,,,,,,,,,,,,,,,,,,,,,,,,,,,,,,,,,,,,,,,,,,,,,,,,,,,,,,,,,,,,,,,84.99035783761778,82.59910449347883,155.45673343175855,142.14843904865694,167.25711058819144,167.25711058819144,3.0,3.2,-208,-290,0,7,251,273,242.90677094459534,242.90702557563782,242.91036868095398,242.92247486114502,243.06311655044556,243.06311655044556,243.06311655044556,243.06311655044556,243.06311655044556,243.06311655044556,243.06311655044556,243.81744480133057,3,0.8924031257629395,None,,,,,,,,,,,,,,,,,,34,4,2025-02-19_11h26.00.745,comp,2024.2.4,None,2025-02-19 11h26.20.929489 -0500,
128,128,0,filler_square,None,None,None,None,None,None,None,None,None,None,3,1.0298175811767578,None,,,,,0,0,0,0,0,128,128,196,243.8332495689392,,,,,,,,,,,,,,,,,,,,,,,,,,,,,,,,,,,,,,,,,,,,,,,,,,,,,,,,,,,,,,,,,,,,,,,,,,,,,,,,,70.93806054901411,65.60236109757835,89.27430300821655,78.34219153326714,113.59860445125304,113.59860445125304,1.0,1.3,312,-289,480,-287,672,-280,243.81938576698303,243.81946754455566,243.8226523399353,243.8332495689392,243.98141932487488,243.98141932487488,243.98141932487488,243.98141932487488,243.98141932487488,243.98141932487488,243.98141932487488,244.87096333503723,3,1.0298175811767578,None,,,,,,,,,,,,,,,,,,34,4,2025-02-19_11h26.00.745,comp,2024.2.4,None,2025-02-19 11h26.20.929489 -0500,
129,129,0,filler_random,None,None,None,None,None,None,None,None,None,None,2,0.9832921028137207,None,,,,,0,0,0,0,0,129,129,149,244.88690853118896,,,,,,,,,,,,,,,,,,,,,,,,,,,,,,,,,,,,,,,,,,,,,,,,,,,,,,,,,,,,,,,,,,,,,,,,,,,,,,,,,130.76635322278923,141.24258767565618,161.61415217512996,188.741692843397,70.55255211492732,85.8699814120848,2.2,2.22,-261,281,0,-254,233,-284,244.87261486053467,244.87269282341003,244.87558007240295,244.88690853118896,245.03398275375366,245.03398275375366,245.03398275375366,245.03398275375366,245.03398275375366,245.03398275375366,245.03398275375366,245.88536381721497,2,0.9832921028137207,None,,,,,,,,,,,,,,,,,,34,4,2025-02-19_11h26.00.745,comp,2024.2.4,None,2025-02-19 11h26.20.929489 -0500,
130,130,0,critical,hwd,20.0,3.0,lower,133.0,57.0,57.0,133.0,78.0,78.0,2,1.6956286430358887,None,,,,,0,0,0,0,0,130,130,104,245.90262818336487,,,,,,,,,,,,,,,,,,,,,,,,,,,,,,,,,,,,,,,,,,,,,,,,,,,,,,,,,,,,,,,,,,,,,,,,,,,,,,,,,133.0,57.0,57.0,133.0,78.0,78.0,3.0,3.1,-191,255,0,-12,202,-288,245.88701963424683,245.88709688186646,245.89019298553467,245.90262818336487,246.04975605010986,246.04975605010986,246.04975605010986,246.04975605010986,246.04975605010986,246.04975605010986,246.04975605010986,247.60049152374268,2,1.6956286430358887,None,,,,,,,,,,,,,,,,,,34,4,2025-02-19_11h26.00.745,comp,2024.2.4,None,2025-02-19 11h26.20.929489 -0500,
131,131,0,critical,dwh,35.0,4.0,upper,127.0,127.0,125.0,200.0,200.0,125.0,3,1.2053520679473877,None,,,,,0,0,0,0,0,131,131,65,247.6170210838318,,,,,,,,,,,,,,,,,,,,,,,,,,,,,,,,,,,,,,,,,,,,,,,,,,,,,,,,,,,,,,,,,,,,,,,,,,,,,,,,,127.0,127.0,125.0,200.0,200.0,125.0,4.0,4.2,-260,16,0,-269,258,-11,247.6021020412445,247.6021785736084,247.6056981086731,247.6170210838318,247.7660093307495,247.7660093307495,247.7660093307495,247.7660093307495,247.7660093307495,247.7660093307495,247.7660093307495,248.8420765399933,3,1.2053520679473877,None,,,,,,,,,,,,,,,,,,34,4,2025-02-19_11h26.00.745,comp,2024.2.4,None,2025-02-19 11h26.20.929489 -0500,
132,132,0,filler_square,None,None,None,None,None,None,None,None,None,None,1,1.55464768409729,None,,,,,0,0,0,0,0,132,132,199,248.85958647727966,,,,,,,,,,,,,,,,,,,,,,,,,,,,,,,,,,,,,,,,,,,,,,,,,,,,,,,,,,,,,,,,,,,,,,,,,,,,,,,,,57.900268734031826,68.09432585762652,61.75134700421694,63.666937303838694,73.78322340198822,73.78322340198822,4.0,4.1,-162,-282,0,7,165,-281,248.8438868522644,248.84397172927856,248.84687662124634,248.85958647727966,249.00160193443298,249.00160193443298,249.00160193443298,249.00160193443298,249.00160193443298,249.00160193443298,249.00160193443298,250.41773557662964,1,1.55464768409729,None,,,,,,,,,,,,,,,,,,34,4,2025-02-19_11h26.00.745,comp,2024.2.4,None,2025-02-19 11h26.20.929489 -0500,
133,133,0,critical,wdh,20.0,3.0,lower,57.0,133.0,78.0,78.0,133.0,57.0,2,1.1573936939239502,None,,,,,0,0,0,0,0,133,133,80,250.43355441093445,,,,,,,,,,,,,,,,,,,,,,,,,,,,,,,,,,,,,,,,,,,,,,,,,,,,,,,,,,,,,,,,,,,,,,,,,,,,,,,,,57.0,133.0,78.0,78.0,133.0,57.0,3.0,3.2,-202,-279,0,-4,164,277,250.41936898231506,250.4194483757019,250.42291378974915,250.43355441093445,250.58292293548584,250.58292293548584,250.58292293548584,250.58292293548584,250.58292293548584,250.58292293548584,250.58292293548584,251.6029109954834,2,1.1573936939239502,None,,,,,,,,,,,,,,,,,,34,4,2025-02-19_11h26.00.745,comp,2024.2.4,None,2025-02-19 11h26.20.929489 -0500,
134,134,0,critical,whd,20.0,2.1,lower,57.0,133.0,133.0,57.0,78.0,78.0,3,1.7393999099731445,None,,,,,0,0,0,0,0,134,134,14,251.61871075630188,,,,,,,,,,,,,,,,,,,,,,,,,,,,,,,,,,,,,,,,,,,,,,,,,,,,,,,,,,,,,,,,,,,,,,,,,,,,,,,,,57.0,133.0,133.0,57.0,78.0,78.0,2.1,2.12,-191,-287,0,-286,164,289,251.60445833206177,251.60456562042236,251.60799384117126,251.61871075630188,251.76792073249817,251.76792073249817,251.76792073249817,251.76792073249817,251.76792073249817,251.76792073249817,251.76792073249817,253.3727903366089,3,1.7393999099731445,None,,,,,,,,,,,,,,,,,,34,4,2025-02-19_11h26.00.745,comp,2024.2.4,None,2025-02-19 11h26.20.929489 -0500,
135,135,0,critical,hwd,35.0,3.0,upper,200.0,125.0,125.0,200.0,127.0,127.0,2,1.1703121662139893,None,,,,,0,0,0,0,0,135,135,99,253.38855814933777,,,,,,,,,,,,,,,,,,,,,,,,,,,,,,,,,,,,,,,,,,,,,,,,,,,,,,,,,,,,,,,,,,,,,,,,,,,,,,,,,200.0,125.0,125.0,200.0,127.0,127.0,3.0,3.2,-258,-269,0,20,260,252,253.37446284294128,253.3745412826538,253.37746500968933,253.38855814933777,253.53551602363586,253.53551602363586,253.53551602363586,253.53551602363586,253.53551602363586,253.53551602363586,253.53551602363586,254.57075715065002,2,1.1703121662139893,None,,,,,,,,,,,,,,,,,,34,4,2025-02-19_11h26.00.745,comp,2024.2.4,None,2025-02-19 11h26.20.929489 -0500,
136,136,0,critical,hwd,20.0,2.1,lower,133.0,57.0,57.0,133.0,78.0,78.0,2,1.835024118423462,None,,,,,0,0,0,0,0,136,136,42,254.5872106552124,,,,,,,,,,,,,,,,,,,,,,,,,,,,,,,,,,,,,,,,,,,,,,,,,,,,,,,,,,,,,,,,,,,,,,,,,,,,,,,,,133.0,57.0,57.0,133.0,78.0,78.0,2.1,2.11,-191,272,0,250,202,-272,254.5723946094513,254.57251644134521,254.5761363506317,254.5872106552124,254.7403120994568,254.7403120994568,254.7403120994568,254.7403120994568,254.7403120994568,254.7403120994568,254.7403120994568,256.43871903419495,2,1.835024118423462,None,,,,,,,,,,,,,,,,,,34,4,2025-02-19_11h26.00.745,comp,2024.2.4,None,2025-02-19 11h26.20.929489 -0500,
137,137,0,filler_square,None,None,None,None,None,None,None,None,None,None,2,2.1188015937805176,None,,,,,0,0,0,0,0,137,137,184,256.4553725719452,,,,,,,,,,,,,,,,,,,,,,,,,,,,,,,,,,,,,,,,,,,,,,,,,,,,,,,,,,,,,,,,,,,,,,,,,,,,,,,,,57.2936573964199,58.03917127409508,57.24304620877481,57.7707173240567,58.10875512046577,58.10875512046577,2.1,2.12,-154,-258,0,-284,154,286,256.4412317276001,256.4413216114044,256.4442298412323,256.4553725719452,256.60304832458496,256.60304832458496,256.60304832458496,256.60304832458496,256.60304832458496,256.60304832458496,256.60304832458496,258.58678698539734,2,2.1188015937805176,None,,,,,,,,,,,,,,,,,,34,4,2025-02-19_11h26.00.745,comp,2024.2.4,None,2025-02-19 11h26.20.929489 -0500,
138,138,0,critical,dhw,35.0,2.1,upper,127.0,127.0,200.0,125.0,125.0,200.0,2,2.0192458629608154,None,,,,,0,0,0,0,0,138,138,25,258.60300040245056,,,,,,,,,,,,,,,,,,,,,,,,,,,,,,,,,,,,,,,,,,,,,,,,,,,,,,,,,,,,,,,,,,,,,,,,,,,,,,,,,127.0,127.0,200.0,125.0,125.0,200.0,2.1,2.11,-222,276,0,275,258,-265,258.58842039108276,258.5884974002838,258.5918724536896,258.60300040245056,258.75946140289307,258.75946140289307,258.75946140289307,258.75946140289307,258.75946140289307,258.75946140289307,258.75946140289307,260.6372449398041,2,2.0192458629608154,None,,,,,,,,,,,,,,,,,,34,4,2025-02-19_11h26.00.745,comp,2024.2.4,None,2025-02-19 11h26.20.929489 -0500,
139,139,0,filler_square,None,None,None,None,None,None,None,None,None,None,1,0.9596993923187256,None,,,,,0,0,0,0,0,139,139,200,260.65461683273315,,,,,,,,,,,,,,,,,,,,,,,,,,,,,,,,,,,,,,,,,,,,,,,,,,,,,,,,,,,,,,,,,,,,,,,,,,,,,,,,,179.8954393069742,179.8954393069742,146.16589174121506,171.8062972043438,155.05184111962916,96.55787566639401,2.2,2.21,-272,-286,0,269,230,272,260.6390676498413,260.6391456127167,260.6423053741455,260.65461683273315,260.80502581596375,260.80502581596375,260.80502581596375,260.80502581596375,260.80502581596375,260.80502581596375,260.80502581596375,261.62580156326294,1,0.9596993923187256,None,,,,,,,,,,,,,,,,,,34,4,2025-02-19_11h26.00.745,comp,2024.2.4,None,2025-02-19 11h26.20.929489 -0500,
140,140,0,critical,dhw,35.0,2.1,lower,70.0,70.0,133.0,57.0,57.0,133.0,3,1.6480867862701416,None,,,,,0,0,0,0,0,140,140,24,261.64646077156067,,,,,,,,,,,,,,,,,,,,,,,,,,,,,,,,,,,,,,,,,,,,,,,,,,,,,,,,,,,,,,,,,,,,,,,,,,,,,,,,,70.0,70.0,133.0,57.0,57.0,133.0,2.1,2.12,-160,-283,0,-287,191,282,261.62733340263367,261.6274127960205,261.63069796562195,261.64646077156067,261.7949221134186,261.7949221134186,261.7949221134186,261.7949221134186,261.7949221134186,261.7949221134186,261.7949221134186,263.29647946357727,3,1.6480867862701416,None,,,,,,,,,,,,,,,,,,34,4,2025-02-19_11h26.00.745,comp,2024.2.4,None,2025-02-19 11h26.20.929489 -0500,
141,141,0,filler_random,None,None,None,None,None,None,None,None,None,None,2,1.2784464359283447,None,,,,,0,0,0,0,0,141,141,165,263.3122229576111,,,,,,,,,,,,,,,,,,,,,,,,,,,,,,,,,,,,,,,,,,,,,,,,,,,,,,,,,,,,,,,,,,,,,,,,,,,,,,,,,107.43368829591765,72.83123092340416,91.89851681880717,123.6768148531863,183.51583251672008,160.52333295228948,2.2,2.22,-194,268,0,-264,238,-273,263.2982532978058,263.29833149909973,263.3015036582947,263.3122229576111,263.4539771080017,263.4539771080017,263.4539771080017,263.4539771080017,263.4539771080017,263.4539771080017,263.4539771080017,264.59875416755676,2,1.2784464359283447,None,,,,,,,,,,,,,,,,,,34,4,2025-02-19_11h26.00.745,comp,2024.2.4,None,2025-02-19 11h26.20.929489 -0500,
142,142,0,catch,None,None,None,None,None,None,None,None,None,None,3,1.0831389427185059,None,,,,,0,0,0,0,0,142,142,122,264.61916971206665,,,,,,,,,,,,,,,,,,,,,,,,,,,,,,,,,,,,,,,,,,,,,,,,,,,,,,,,,,,,,,,,,,,,,,,,,,,,,,,,,79,111,63,127,180,145,2.1,2.12,-215,-264,0,-288,232,255,264.6006484031677,264.60072565078735,264.60357999801636,264.61916971206665,264.75684356689453,264.75684356689453,264.75684356689453,264.75684356689453,264.75684356689453,264.75684356689453,264.75684356689453,265.7175385951996,3,1.0831389427185059,None,,,,,,,,,,,,,,,,,,34,4,2025-02-19_11h26.00.745,comp,2024.2.4,None,2025-02-19 11h26.20.929489 -0500,
