thisN,thisTrialN,thisRepN,effect,order,distance,config,diag,h_1,w_1,h_2,w_2,h_3,w_3,rect_choice.keys,rect_choice.rt,rect_choice.duration,instructions_loop.thisRepN,instructions_loop.thisTrialN,instructions_loop.thisN,instructions_loop.thisIndex,blocks.thisRepN,blocks.thisTrialN,blocks.thisN,blocks.thisIndex,trials.thisRepN,trials.thisTrialN,trials.thisN,trials.thisIndex,thisRow.t,notes,consent.started,agree_button.started,decline_button.started,consent_img.started,mouse.started,consent.stopped,agree_button.numClicks,agree_button.timesOn,agree_button.timesOff,decline_button.numClicks,decline_button.timesOn,decline_button.timesOff,mouse.x,mouse.y,mouse.leftButton,mouse.midButton,mouse.rightButton,mouse.time,mouse.clicked_name,exp_params.started,exp_params.stopped,welcome.started,welcome_text.started,welcome.stopped,instructions_1.started,instructions_1_text_1.started,instructions_1_text_2.started,key_resp.started,instructions_1.stopped,instructions_loop.key_resp.keys,instructions_loop.key_resp.rt,instructions_loop.key_resp.duration,instructions_2.started,instructions_2_text_1.started,instructions_2_text_2.started,key_resp_2.started,instructions_2.stopped,instructions_loop.key_resp_2.keys,instructions_loop.key_resp_2.rt,instructions_loop.key_resp_2.duration,instructions_3.started,instructions_3_text_1.started,r1_instr3.started,r2_instr3.started,r3_instr3.started,r1_instr3_label.started,r2_instr3_label.started,r3_instr3_label.started,instructions_3_text_3.started,instructions_3_text_4.started,key_resp_3.started,instructions_3.stopped,instructions_loop.key_resp_3.keys,instructions_loop.key_resp_3.rt,instructions_loop.key_resp_3.duration,instructions_4.started,instructions_4_text_1.started,instructions_4_text_3.started,instructions_4_text_2.started,key_resp_4.started,instructions_4.stopped,instructions_loop.key_resp_4.keys,instructions_loop.key_resp_4.rt,instructions_loop.key_resp_4.duration,instructions_5.started,instructions_5_text_1.started,instructions_5_text_2.started,key_resp_5.started,instructions_5.stopped,instructions_loop.key_resp_5.keys,instructions_loop.key_resp_5.rt,instructions_loop.key_resp_5.duration,start_exp.started,start_exp_text.started,key_resp_6.started,start_exp.stopped,key_resp_6.keys,key_resp_6.rt,key_resp_6.duration,h_1_tmp,w_1_tmp,h_2_tmp,w_2_tmp,h_3_tmp,w_3_tmp,config_tmp,config_tmp_1,r_1_x,r_1_y,r_2_x,r_2_y,r_3_x,r_3_y,pre_trial.started,pre_trial.stopped,choice_trial.started,rect_choice.started,r_1.started,r_2.started,r_3.started,r_1_label.started,r_2_label.started,r_3_label.started,prompt.started,choice_trial.stopped,trials.rect_choice.keys,trials.rect_choice.rt,trials.rect_choice.duration,end_block.started,end_block_text.started,end_block.stopped,end.started,end_text.started,key_resp_7.started,end.stopped,key_resp_7.keys,key_resp_7.rt,key_resp_7.duration,debriefing.started,debrief_form.started,end_debrief.started,debriefing.stopped,end_debrief.keys,end_debrief.rt,end_debrief.duration,participant,computer,date,expName,psychopyVersion,frameRate,expStart,
,,,,,,,,,,,,,,,,,,,,,,,,,,,,,,,0.015267133712768555,0.10001611709594727,0.10001611709594727,0.10001611709594727,0.014848709106445312,9.697861194610596,1,[9.596591234207153],[9.596601963043213],0,,,[-71.0],[-495.0],[1],[0],[0],[9.664191246032715],['agree_button'],,,,,,,,,,,,,,,,,,,,,,,,,,,,,,,,,,,,,,,,,,,,,,,,,,,,,,,,,,,,,,,,,,,,,,,,,,,,,,,,,,,,,,,,,,,,,,,,,,,,,,,,,,,35,3,2025-02-19_11h25.58.410,comp,2024.2.4,63.79800284438766,2025-02-19 11h26.16.467368 -0500,
,,,,,,,,,,,,,,,,,,,,,,,,,,,,,,,,,,,,,,,,,,,,,,,,,,9.69812822341919,9.698160648345947,,,,,,,,,,,,,,,,,,,,,,,,,,,,,,,,,,,,,,,,,,,,,,,,,,,,,,,,,,,,,,,,,,,,,,,,,,,,,,,,,,,,,,,,,,,,,,,,,,,,,,,,,35,3,2025-02-19_11h25.58.410,comp,2024.2.4,63.79800284438766,2025-02-19 11h26.16.467368 -0500,
,,,,,,,,,,,,,,,,,,,,,,,,,,,,,,,,,,,,,,,,,,,,,,,,,,,,9.698182582855225,9.711851358413696,11.706933498382568,,,,,,,,,,,,,,,,,,,,,,,,,,,,,,,,,,,,,,,,,,,,,,,,,,,,,,,,,,,,,,,,,,,,,,,,,,,,,,,,,,,,,,,,,,,,,,,,,,,,,,35,3,2025-02-19_11h25.58.410,comp,2024.2.4,63.79800284438766,2025-02-19 11h26.16.467368 -0500,
0,0,0,,,,,,,,,,,,,,,0,0,0,0,,,,,,,,,11.723714828491211,,,,,,,,,,,,,,,,,,,,,,,,,,11.707496166229248,11.723714828491211,11.723714828491211,13.206823587417603,16.008488178253174,space,2.7948830127716064,None,16.00856614112854,16.02453374862671,16.02453374862671,17.523516178131104,20.041256427764893,space,2.5006821155548096,None,20.041341543197632,20.084583282470703,20.084583282470703,20.084583282470703,20.084583282470703,20.084583282470703,20.084583282470703,20.084583282470703,20.084583282470703,20.084583282470703,21.54111647605896,24.32503581047058,space,2.770519733428955,None,24.325140476226807,24.340425491333008,24.340425491333008,24.340425491333008,25.8402419090271,28.674718379974365,space,2.824824094772339,None,28.674800872802734,28.69046902656555,28.69046902656555,30.19008708000183,30.891608715057373,space,0.6893870830535889,None,30.891720056533813,30.906766653060913,30.906766653060913,31.82450532913208,space,0.909879207611084,None,,,,,,,,,,,,,,,,,,,,,,,,,,,,,,,,,,,,,,,,,,,,,,,35,3,2025-02-19_11h25.58.410,comp,2024.2.4,63.79800284438766,2025-02-19 11h26.16.467368 -0500,
0,0,0,critical,dwh,35.0,2.1,upper,127.0,127.0,125.0,200.0,200.0,125.0,2,14.05178451538086,None,,,,,0,0,0,0,0,0,0,5,32.0381019115448,,,,,,,,,,,,,,,,,,,,,,,,,,,,,,,,,,,,,,,,,,,,,,,,,,,,,,,,,,,,,,,,,,,,,,,,,,,,,,,,,127.0,127.0,125.0,200.0,200.0,125.0,2.1,2.11,-260,257,0,269,258,-260,32.02302265167236,32.023107290267944,32.025879859924316,32.0381019115448,32.18074679374695,32.18074679374695,32.18074679374695,32.18074679374695,32.18074679374695,32.18074679374695,32.18074679374695,46.091553688049316,2,14.05178451538086,None,,,,,,,,,,,,,,,,,,35,3,2025-02-19_11h25.58.410,comp,2024.2.4,63.79800284438766,2025-02-19 11h26.16.467368 -0500,
1,1,0,critical,dhw,35.0,2.1,lower,70.0,70.0,133.0,57.0,57.0,133.0,1,3.0367531776428223,None,,,,,0,0,0,0,0,1,1,24,46.10679817199707,,,,,,,,,,,,,,,,,,,,,,,,,,,,,,,,,,,,,,,,,,,,,,,,,,,,,,,,,,,,,,,,,,,,,,,,,,,,,,,,,70.0,70.0,133.0,57.0,57.0,133.0,2.1,2.12,-160,-258,0,-282,191,257,46.09234166145325,46.09238290786743,46.09480142593384,46.10679817199707,46.25676202774048,46.25676202774048,46.25676202774048,46.25676202774048,46.25676202774048,46.25676202774048,46.25676202774048,49.15786004066467,1,3.0367531776428223,None,,,,,,,,,,,,,,,,,,35,3,2025-02-19_11h25.58.410,comp,2024.2.4,63.79800284438766,2025-02-19 11h26.16.467368 -0500,
2,2,0,critical,dhw,20.0,1.0,upper,141.0,141.0,200.0,125.0,125.0,200.0,2,2.2510619163513184,None,,,,,0,0,0,0,0,2,2,55,49.173314332962036,,,,,,,,,,,,,,,,,,,,,,,,,,,,,,,,,,,,,,,,,,,,,,,,,,,,,,,,,,,,,,,,,,,,,,,,,,,,,,,,,141.0,141.0,200.0,125.0,125.0,200.0,1.0,1.1,-709,276,-480,274,-222,251,49.15865969657898,49.15869975090027,49.161317110061646,49.173314332962036,49.323549032211304,49.323549032211304,49.323549032211304,49.323549032211304,49.323549032211304,49.323549032211304,49.323549032211304,51.4413537979126,2,2.2510619163513184,None,,,,,,,,,,,,,,,,,,35,3,2025-02-19_11h25.58.410,comp,2024.2.4,63.79800284438766,2025-02-19 11h26.16.467368 -0500,
3,3,0,catch,None,None,None,None,None,None,None,None,None,None,3,1.127744436264038,None,,,,,0,0,0,0,0,3,3,128,51.45656704902649,,,,,,,,,,,,,,,,,,,,,,,,,,,,,,,,,,,,,,,,,,,,,,,,,,,,,,,,,,,,,,,,,,,,,,,,,,,,,,,,,108,82,99,91,151,174,4.0,4.2,-182,-1,0,-275,228,9,51.44236898422241,51.442407846450806,51.44502854347229,51.45656704902649,51.60677790641785,51.60677790641785,51.60677790641785,51.60677790641785,51.60677790641785,51.60677790641785,51.60677790641785,52.59129762649536,3,1.127744436264038,None,,,,,,,,,,,,,,,,,,35,3,2025-02-19_11h25.58.410,comp,2024.2.4,63.79800284438766,2025-02-19 11h26.16.467368 -0500,
4,4,0,filler_random,None,None,None,None,None,None,None,None,None,None,2,0.9693310260772705,None,,,,,0,0,0,0,0,4,4,155,52.60678815841675,,,,,,,,,,,,,,,,,,,,,,,,,,,,,,,,,,,,,,,,,,,,,,,,,,,,,,,,,,,,,,,,,,,,,,,,,,,,,,,,,131.62461726105744,79.95318020063833,143.4267840004591,186.35651151725347,151.7489510803288,98.47870774678361,1.0,1.2,-229,9,0,12,238,-7,52.59216785430908,52.59220790863037,52.59431076049805,52.60678815841675,52.75684189796448,52.75684189796448,52.75684189796448,52.75684189796448,52.75684189796448,52.75684189796448,52.75684189796448,53.59119510650635,2,0.9693310260772705,None,,,,,,,,,,,,,,,,,,35,3,2025-02-19_11h25.58.410,comp,2024.2.4,63.79800284438766,2025-02-19 11h26.16.467368 -0500,
5,5,0,critical,dwh,20.0,3.0,upper,141.0,141.0,125.0,200.0,200.0,125.0,2,2.472656488418579,None,,,,,0,0,0,0,0,5,5,69,53.60652732849121,,,,,,,,,,,,,,,,,,,,,,,,,,,,,,,,,,,,,,,,,,,,,,,,,,,,,,,,,,,,,,,,,,,,,,,,,,,,,,,,,141.0,141.0,125.0,200.0,200.0,125.0,3.0,3.2,-266,-258,0,19,258,285,53.59195899963379,53.5919988155365,53.59405064582825,53.60652732849121,53.756908893585205,53.756908893585205,53.756908893585205,53.756908893585205,53.756908893585205,53.756908893585205,53.756908893585205,56.09154796600342,2,2.472656488418579,None,,,,,,,,,,,,,,,,,,35,3,2025-02-19_11h25.58.410,comp,2024.2.4,63.79800284438766,2025-02-19 11h26.16.467368 -0500,
6,6,0,critical,hdw,35.0,4.0,lower,133.0,57.0,70.0,70.0,57.0,133.0,1,3.966869592666626,None,,,,,0,0,0,0,0,6,6,112,56.10653519630432,,,,,,,,,,,,,,,,,,,,,,,,,,,,,,,,,,,,,,,,,,,,,,,,,,,,,,,,,,,,,,,,,,,,,,,,,,,,,,,,,133.0,57.0,70.0,70.0,57.0,133.0,4.0,4.1,-160,-263,0,-11,198,-280,56.09233999252319,56.09238052368164,56.09478187561035,56.10653519630432,56.25661587715149,56.25661587715149,56.25661587715149,56.25661587715149,56.25661587715149,56.25661587715149,56.25661587715149,60.09101891517639,1,3.966869592666626,None,,,,,,,,,,,,,,,,,,35,3,2025-02-19_11h25.58.410,comp,2024.2.4,63.79800284438766,2025-02-19 11h26.16.467368 -0500,
7,7,0,critical,hwd,35.0,2.1,upper,200.0,125.0,125.0,200.0,127.0,127.0,1,1.4152319431304932,None,,,,,0,0,0,0,0,7,7,41,60.10647535324097,,,,,,,,,,,,,,,,,,,,,,,,,,,,,,,,,,,,,,,,,,,,,,,,,,,,,,,,,,,,,,,,,,,,,,,,,,,,,,,,,200.0,125.0,125.0,200.0,127.0,127.0,2.1,2.12,-258,-270,0,-284,260,261,60.091835737228394,60.09187579154968,60.09418344497681,60.10647535324097,60.25683355331421,60.25683355331421,60.25683355331421,60.25683355331421,60.25683355331421,60.25683355331421,60.25683355331421,61.52483010292053,1,1.4152319431304932,None,,,,,,,,,,,,,,,,,,35,3,2025-02-19_11h25.58.410,comp,2024.2.4,63.79800284438766,2025-02-19 11h26.16.467368 -0500,
8,8,0,filler_random,None,None,None,None,None,None,None,None,None,None,1,1.7963311672210693,None,,,,,0,0,0,0,0,8,8,161,61.5401394367218,,,,,,,,,,,,,,,,,,,,,,,,,,,,,,,,,,,,,,,,,,,,,,,,,,,,,,,,,,,,,,,,,,,,,,,,,,,,,,,,,143.79739947695737,168.98536046517964,175.78734843354408,77.30400485902392,182.61571362357438,132.64718904610123,1.0,1.3,261,-281,480,-277,681,-252,61.5257351398468,61.52577590942383,61.52795648574829,61.5401394367218,61.69012713432312,61.69012713432312,61.69012713432312,61.69012713432312,61.69012713432312,61.69012713432312,61.69012713432312,63.341262340545654,1,1.7963311672210693,None,,,,,,,,,,,,,,,,,,35,3,2025-02-19_11h25.58.410,comp,2024.2.4,63.79800284438766,2025-02-19 11h26.16.467368 -0500,
9,9,0,critical,hdw,20.0,2.1,upper,200.0,125.0,141.0,141.0,125.0,200.0,3,1.6272532939910889,None,,,,,0,0,0,0,0,9,9,23,63.3569552898407,,,,,,,,,,,,,,,,,,,,,,,,,,,,,,,,,,,,,,,,,,,,,,,,,,,,,,,,,,,,,,,,,,,,,,,,,,,,,,,,,200.0,125.0,141.0,141.0,125.0,200.0,2.1,2.12,-229,-250,0,-279,266,257,63.34215545654297,63.3421950340271,63.34434127807617,63.3569552898407,63.50692844390869,63.50692844390869,63.50692844390869,63.50692844390869,63.50692844390869,63.50692844390869,63.50692844390869,64.99128413200378,3,1.6272532939910889,None,,,,,,,,,,,,,,,,,,35,3,2025-02-19_11h25.58.410,comp,2024.2.4,63.79800284438766,2025-02-19 11h26.16.467368 -0500,
10,10,0,critical,hwd,20.0,2.1,lower,133.0,57.0,57.0,133.0,78.0,78.0,2,2.099057912826538,None,,,,,0,0,0,0,0,10,10,42,65.00688314437866,,,,,,,,,,,,,,,,,,,,,,,,,,,,,,,,,,,,,,,,,,,,,,,,,,,,,,,,,,,,,,,,,,,,,,,,,,,,,,,,,133.0,57.0,57.0,133.0,78.0,78.0,2.1,2.11,-191,268,0,255,202,-290,64.99209332466125,64.99213290214539,64.99425315856934,65.00688314437866,65.15659022331238,65.15659022331238,65.15659022331238,65.15659022331238,65.15659022331238,65.15659022331238,65.15659022331238,67.12442755699158,2,2.099057912826538,None,,,,,,,,,,,,,,,,,,35,3,2025-02-19_11h25.58.410,comp,2024.2.4,63.79800284438766,2025-02-19 11h26.16.467368 -0500,
11,11,0,catch,None,None,None,None,None,None,None,None,None,None,2,1.1336002349853516,None,,,,,0,0,0,0,0,11,11,124,67.1398594379425,,,,,,,,,,,,,,,,,,,,,,,,,,,,,,,,,,,,,,,,,,,,,,,,,,,,,,,,,,,,,,,,,,,,,,,,,,,,,,,,,122,68,159,166,87,103,2.1,2.12,-213,-279,0,-252,230,281,67.12550401687622,67.12554597854614,67.1280267238617,67.1398594379425,67.29011106491089,67.29011106491089,67.29011106491089,67.29011106491089,67.29011106491089,67.29011106491089,67.29011106491089,68.27473998069763,2,1.1336002349853516,None,,,,,,,,,,,,,,,,,,35,3,2025-02-19_11h25.58.410,comp,2024.2.4,63.79800284438766,2025-02-19 11h26.16.467368 -0500,
12,12,0,filler_random,None,None,None,None,None,None,None,None,None,None,2,1.1675117015838623,None,,,,,0,0,0,0,0,12,12,160,68.2899649143219,,,,,,,,,,,,,,,,,,,,,,,,,,,,,,,,,,,,,,,,,,,,,,,,,,,,,,,,,,,,,,,,,,,,,,,,,,,,,,,,,82.78241230478679,61.38877043801686,151.25676965793207,115.83848139094084,62.10146214010221,81.75773183658049,4.0,4.1,-185,-252,0,0,195,-258,68.27567315101624,68.27571415901184,68.27785277366638,68.2899649143219,68.43990230560303,68.43990230560303,68.43990230560303,68.43990230560303,68.43990230560303,68.43990230560303,68.43990230560303,69.47515439987183,2,1.1675117015838623,None,,,,,,,,,,,,,,,,,,35,3,2025-02-19_11h25.58.410,comp,2024.2.4,63.79800284438766,2025-02-19 11h26.16.467368 -0500,
13,13,0,filler_square,None,None,None,None,None,None,None,None,None,None,3,2.093740463256836,None,,,,,0,0,0,0,0,13,13,184,69.49034333229065,,,,,,,,,,,,,,,,,,,,,,,,,,,,,,,,,,,,,,,,,,,,,,,,,,,,,,,,,,,,,,,,,,,,,,,,,,,,,,,,,62.860314607294406,59.04547369779502,61.88514624001747,62.85802410884027,67.06395076121677,67.06395076121677,2.1,2.12,-157,-256,0,-282,161,275,69.47621607780457,69.47627091407776,69.47857069969177,69.49034333229065,69.63978600502014,69.63978600502014,69.63978600502014,69.63978600502014,69.63978600502014,69.63978600502014,69.63978600502014,71.59100246429443,3,2.093740463256836,None,,,,,,,,,,,,,,,,,,35,3,2025-02-19_11h25.58.410,comp,2024.2.4,63.79800284438766,2025-02-19 11h26.16.467368 -0500,
14,14,0,critical,dwh,35.0,2.1,lower,70.0,70.0,57.0,133.0,133.0,57.0,3,2.315394163131714,None,,,,,0,0,0,0,0,14,14,28,71.60669422149658,,,,,,,,,,,,,,,,,,,,,,,,,,,,,,,,,,,,,,,,,,,,,,,,,,,,,,,,,,,,,,,,,,,,,,,,,,,,,,,,,70.0,70.0,57.0,133.0,133.0,57.0,2.1,2.12,-198,-264,0,-289,191,251,71.59191608428955,71.59195566177368,71.59466171264648,71.60669422149658,71.75687909126282,71.75687909126282,71.75687909126282,71.75687909126282,71.75687909126282,71.75687909126282,71.75687909126282,73.92433047294617,3,2.315394163131714,None,,,,,,,,,,,,,,,,,,35,3,2025-02-19_11h25.58.410,comp,2024.2.4,63.79800284438766,2025-02-19 11h26.16.467368 -0500,
15,15,0,critical,hdw,35.0,2.1,lower,133.0,57.0,70.0,70.0,57.0,133.0,1,1.076158046722412,None,,,,,0,0,0,0,0,15,15,44,73.93992400169373,,,,,,,,,,,,,,,,,,,,,,,,,,,,,,,,,,,,,,,,,,,,,,,,,,,,,,,,,,,,,,,,,,,,,,,,,,,,,,,,,133.0,57.0,70.0,70.0,57.0,133.0,2.1,2.12,-160,-268,0,-274,198,272,73.92513275146484,73.92517423629761,73.92776942253113,73.93992400169373,74.08978486061096,74.08978486061096,74.08978486061096,74.08978486061096,74.08978486061096,74.08978486061096,74.08978486061096,75.02422547340393,1,1.076158046722412,None,,,,,,,,,,,,,,,,,,35,3,2025-02-19_11h25.58.410,comp,2024.2.4,63.79800284438766,2025-02-19 11h26.16.467368 -0500,
16,16,0,critical,wdh,35.0,1.0,upper,125.0,200.0,127.0,127.0,200.0,125.0,1,1.7192261219024658,None,,,,,0,0,0,0,0,16,16,73,75.03994512557983,,,,,,,,,,,,,,,,,,,,,,,,,,,,,,,,,,,,,,,,,,,,,,,,,,,,,,,,,,,,,,,,,,,,,,,,,,,,,,,,,125.0,200.0,127.0,127.0,200.0,125.0,1.0,1.2,-260,11,0,5,222,18,75.02510380744934,75.02514433860779,75.0276403427124,75.03994512557983,75.19014000892639,75.19014000892639,75.19014000892639,75.19014000892639,75.19014000892639,75.19014000892639,75.19014000892639,76.77453374862671,1,1.7192261219024658,None,,,,,,,,,,,,,,,,,,35,3,2025-02-19_11h25.58.410,comp,2024.2.4,63.79800284438766,2025-02-19 11h26.16.467368 -0500,
17,17,0,critical,whd,35.0,2.1,lower,57.0,133.0,133.0,57.0,70.0,70.0,2,1.8834455013275146,None,,,,,0,0,0,0,0,17,17,12,76.78979468345642,,,,,,,,,,,,,,,,,,,,,,,,,,,,,,,,,,,,,,,,,,,,,,,,,,,,,,,,,,,,,,,,,,,,,,,,,,,,,,,,,57.0,133.0,133.0,57.0,70.0,70.0,2.1,2.11,-191,257,0,261,160,-275,76.77533960342407,76.77538061141968,76.77788138389587,76.78979468345642,76.93973183631897,76.93973183631897,76.93973183631897,76.93973183631897,76.93973183631897,76.93973183631897,76.93973183631897,78.69095587730408,2,1.8834455013275146,None,,,,,,,,,,,,,,,,,,35,3,2025-02-19_11h25.58.410,comp,2024.2.4,63.79800284438766,2025-02-19 11h26.16.467368 -0500,
18,18,0,critical,whd,35.0,4.0,lower,57.0,133.0,133.0,57.0,70.0,70.0,2,1.141814947128296,None,,,,,0,0,0,0,0,18,18,88,78.70634174346924,,,,,,,,,,,,,,,,,,,,,,,,,,,,,,,,,,,,,,,,,,,,,,,,,,,,,,,,,,,,,,,,,,,,,,,,,,,,,,,,,57.0,133.0,133.0,57.0,70.0,70.0,4.0,4.1,-191,-250,0,-7,160,-279,78.69173431396484,78.69177174568176,78.69439196586609,78.70634174346924,78.85653305053711,78.85653305053711,78.85653305053711,78.85653305053711,78.85653305053711,78.85653305053711,78.85653305053711,79.85752320289612,2,1.141814947128296,None,,,,,,,,,,,,,,,,,,35,3,2025-02-19_11h25.58.410,comp,2024.2.4,63.79800284438766,2025-02-19 11h26.16.467368 -0500,
19,19,0,filler_random,None,None,None,None,None,None,None,None,None,None,1,1.2179625034332275,None,,,,,0,0,0,0,0,19,19,137,79.87321472167969,,,,,,,,,,,,,,,,,,,,,,,,,,,,,,,,,,,,,,,,,,,,,,,,,,,,,,,,,,,,,,,,,,,,,,,,,,,,,,,,,141.85350234450863,182.51823457388807,74.88380261670171,59.54128597588771,156.65499786661832,86.43105283830202,3.0,3.1,-217,253,0,-16,169,-251,79.85837626457214,79.85841369628906,79.86089658737183,79.87321472167969,80.02649235725403,80.02649235725403,80.02649235725403,80.02649235725403,80.02649235725403,80.02649235725403,80.02649235725403,81.10827493667603,1,1.2179625034332275,None,,,,,,,,,,,,,,,,,,35,3,2025-02-19_11h25.58.410,comp,2024.2.4,63.79800284438766,2025-02-19 11h26.16.467368 -0500,
20,20,0,critical,dwh,35.0,1.0,upper,127.0,127.0,125.0,200.0,200.0,125.0,3,0.9822831153869629,None,,,,,0,0,0,0,0,20,20,61,81.12333607673645,,,,,,,,,,,,,,,,,,,,,,,,,,,,,,,,,,,,,,,,,,,,,,,,,,,,,,,,,,,,,,,,,,,,,,,,,,,,,,,,,127.0,127.0,125.0,200.0,200.0,125.0,1.0,1.1,-740,265,-480,281,-222,269,81.10909342765808,81.10913443565369,81.11111760139465,81.12333607673645,81.27373337745667,81.27373337745667,81.27373337745667,81.27373337745667,81.27373337745667,81.27373337745667,81.27373337745667,82.10789799690247,3,0.9822831153869629,None,,,,,,,,,,,,,,,,,,35,3,2025-02-19_11h25.58.410,comp,2024.2.4,63.79800284438766,2025-02-19 11h26.16.467368 -0500,
21,21,0,filler_square,None,None,None,None,None,None,None,None,None,None,2,1.0606024265289307,None,,,,,0,0,0,0,0,21,21,188,82.1233217716217,,,,,,,,,,,,,,,,,,,,,,,,,,,,,,,,,,,,,,,,,,,,,,,,,,,,,,,,,,,,,,,,,,,,,,,,,,,,,,,,,113.21815803259801,123.09695647925136,123.93797120904645,123.93797120904645,94.3705360694398,62.09139176578318,3.0,3.1,-220,271,0,-16,189,-267,82.10887551307678,82.10891699790955,82.11107110977173,82.1233217716217,82.27313685417175,82.27313685417175,82.27313685417175,82.27313685417175,82.27313685417175,82.27313685417175,82.27313685417175,83.1909384727478,2,1.0606024265289307,None,,,,,,,,,,,,,,,,,,35,3,2025-02-19_11h25.58.410,comp,2024.2.4,63.79800284438766,2025-02-19 11h26.16.467368 -0500,
22,22,0,critical,wdh,35.0,2.1,lower,57.0,133.0,70.0,70.0,133.0,57.0,1,1.5935072898864746,None,,,,,0,0,0,0,0,22,22,8,83.20657515525818,,,,,,,,,,,,,,,,,,,,,,,,,,,,,,,,,,,,,,,,,,,,,,,,,,,,,,,,,,,,,,,,,,,,,,,,,,,,,,,,,57.0,133.0,70.0,70.0,133.0,57.0,2.1,2.12,-198,-256,0,-273,160,275,83.19187593460083,83.1919174194336,83.1944489479065,83.20657515525818,83.3564178943634,83.3564178943634,83.3564178943634,83.3564178943634,83.3564178943634,83.3564178943634,83.3564178943634,84.80766534805298,1,1.5935072898864746,None,,,,,,,,,,,,,,,,,,35,3,2025-02-19_11h25.58.410,comp,2024.2.4,63.79800284438766,2025-02-19 11h26.16.467368 -0500,
23,23,0,critical,hwd,35.0,2.1,upper,200.0,125.0,125.0,200.0,127.0,127.0,2,1.185112476348877,None,,,,,0,0,0,0,0,23,23,17,84.82328033447266,,,,,,,,,,,,,,,,,,,,,,,,,,,,,,,,,,,,,,,,,,,,,,,,,,,,,,,,,,,,,,,,,,,,,,,,,,,,,,,,,200.0,125.0,125.0,200.0,127.0,127.0,2.1,2.11,-258,288,0,261,260,-288,84.80847454071045,84.8085150718689,84.81105899810791,84.82328033447266,84.97330403327942,84.97330403327942,84.97330403327942,84.97330403327942,84.97330403327942,84.97330403327942,84.97330403327942,86.02429008483887,2,1.185112476348877,None,,,,,,,,,,,,,,,,,,35,3,2025-02-19_11h25.58.410,comp,2024.2.4,63.79800284438766,2025-02-19 11h26.16.467368 -0500,
24,24,0,filler_random,None,None,None,None,None,None,None,None,None,None,3,1.0337450504302979,None,,,,,0,0,0,0,0,24,24,152,86.03973197937012,,,,,,,,,,,,,,,,,,,,,,,,,,,,,,,,,,,,,,,,,,,,,,,,,,,,,,,,,,,,,,,,,,,,,,,,,,,,,,,,,88.27844700862741,170.00832770106103,162.61790785045486,129.67455454748898,183.90859440952585,191.73315716761815,2.1,2.11,-246,263,0,281,257,-282,86.02526307106018,86.02530241012573,86.02778053283691,86.03973197937012,86.19019055366516,86.19019055366516,86.19019055366516,86.19019055366516,86.19019055366516,86.19019055366516,86.19019055366516,87.0911169052124,3,1.0337450504302979,None,,,,,,,,,,,,,,,,,,35,3,2025-02-19_11h25.58.410,comp,2024.2.4,63.79800284438766,2025-02-19 11h26.16.467368 -0500,
25,25,0,filler_random,None,None,None,None,None,None,None,None,None,None,2,1.4153790473937988,None,,,,,0,0,0,0,0,25,25,166,87.10631203651428,,,,,,,,,,,,,,,,,,,,,,,,,,,,,,,,,,,,,,,,,,,,,,,,,,,,,,,,,,,,,,,,,,,,,,,,,,,,,,,,,91.97891993845289,194.62879586676965,186.50623075546804,167.13937003533988,194.58989849888735,153.45108998942933,3.0,3.2,-277,-256,0,7,256,252,87.0920102596283,87.09205055236816,87.0944344997406,87.10631203651428,87.25662517547607,87.25662517547607,87.25662517547607,87.25662517547607,87.25662517547607,87.25662517547607,87.25662517547607,88.52455854415894,2,1.4153790473937988,None,,,,,,,,,,,,,,,,,,35,3,2025-02-19_11h25.58.410,comp,2024.2.4,63.79800284438766,2025-02-19 11h26.16.467368 -0500,
26,26,0,critical,dhw,20.0,4.0,lower,78.0,78.0,133.0,57.0,57.0,133.0,3,1.7167291641235352,None,,,,,0,0,0,0,0,26,26,58,88.5399124622345,,,,,,,,,,,,,,,,,,,,,,,,,,,,,,,,,,,,,,,,,,,,,,,,,,,,,,,,,,,,,,,,,,,,,,,,,,,,,,,,,78.0,78.0,133.0,57.0,57.0,133.0,4.0,4.1,-164,-275,0,20,191,-284,88.52536702156067,88.5254077911377,88.52754282951355,88.5399124622345,88.68967032432556,88.68967032432556,88.68967032432556,88.68967032432556,88.68967032432556,88.68967032432556,88.68967032432556,90.2743546962738,3,1.7167291641235352,None,,,,,,,,,,,,,,,,,,35,3,2025-02-19_11h25.58.410,comp,2024.2.4,63.79800284438766,2025-02-19 11h26.16.467368 -0500,
27,27,0,critical,hdw,20.0,4.0,lower,133.0,57.0,78.0,78.0,57.0,133.0,3,1.6782448291778564,None,,,,,0,0,0,0,0,27,27,118,90.28964281082153,,,,,,,,,,,,,,,,,,,,,,,,,,,,,,,,,,,,,,,,,,,,,,,,,,,,,,,,,,,,,,,,,,,,,,,,,,,,,,,,,133.0,57.0,78.0,78.0,57.0,133.0,4.0,4.1,-164,-282,0,-4,202,-268,90.27514982223511,90.2751886844635,90.27756905555725,90.28964281082153,90.43976068496704,90.43976068496704,90.43976068496704,90.43976068496704,90.43976068496704,90.43976068496704,90.43976068496704,91.97412943840027,3,1.6782448291778564,None,,,,,,,,,,,,,,,,,,35,3,2025-02-19_11h25.58.410,comp,2024.2.4,63.79800284438766,2025-02-19 11h26.16.467368 -0500,
28,28,0,critical,hdw,35.0,1.0,lower,133.0,57.0,70.0,70.0,57.0,133.0,3,1.4745547771453857,None,,,,,0,0,0,0,0,28,28,108,91.98975491523743,,,,,,,,,,,,,,,,,,,,,,,,,,,,,,,,,,,,,,,,,,,,,,,,,,,,,,,,,,,,,,,,,,,,,,,,,,,,,,,,,133.0,57.0,70.0,70.0,57.0,133.0,1.0,1.3,320,-269,480,-259,678,-277,91.97491240501404,91.97495317459106,91.97731375694275,91.98975491523743,92.13978219032288,92.13978219032288,92.13978219032288,92.13978219032288,92.13978219032288,92.13978219032288,92.13978219032288,93.47415900230408,3,1.4745547771453857,None,,,,,,,,,,,,,,,,,,35,3,2025-02-19_11h25.58.410,comp,2024.2.4,63.79800284438766,2025-02-19 11h26.16.467368 -0500,
29,29,0,critical,dwh,20.0,2.1,lower,78.0,78.0,57.0,133.0,133.0,57.0,3,1.231673240661621,None,,,,,0,0,0,0,0,29,29,30,93.48982834815979,,,,,,,,,,,,,,,,,,,,,,,,,,,,,,,,,,,,,,,,,,,,,,,,,,,,,,,,,,,,,,,,,,,,,,,,,,,,,,,,,78.0,78.0,57.0,133.0,133.0,57.0,2.1,2.11,-202,265,0,266,191,-254,93.47493743896484,93.47497582435608,93.47733354568481,93.48982834815979,93.63987493515015,93.63987493515015,93.63987493515015,93.63987493515015,93.63987493515015,93.63987493515015,93.63987493515015,94.72441673278809,3,1.231673240661621,None,,,,,,,,,,,,,,,,,,35,3,2025-02-19_11h25.58.410,comp,2024.2.4,63.79800284438766,2025-02-19 11h26.16.467368 -0500,
30,30,0,critical,whd,35.0,3.0,upper,125.0,200.0,200.0,125.0,127.0,127.0,2,2.3391923904418945,None,,,,,0,0,0,0,0,30,30,87,94.7398190498352,,,,,,,,,,,,,,,,,,,,,,,,,,,,,,,,,,,,,,,,,,,,,,,,,,,,,,,,,,,,,,,,,,,,,,,,,,,,,,,,,125.0,200.0,200.0,125.0,127.0,127.0,3.0,3.1,-258,265,0,-17,222,-261,94.72524189949036,94.72528100013733,94.72771906852722,94.7398190498352,94.89002561569214,94.89002561569214,94.89002561569214,94.89002561569214,94.89002561569214,94.89002561569214,94.89002561569214,97.09122896194458,2,2.3391923904418945,None,,,,,,,,,,,,,,,,,,35,3,2025-02-19_11h25.58.410,comp,2024.2.4,63.79800284438766,2025-02-19 11h26.16.467368 -0500,
31,31,0,critical,dhw,35.0,1.0,upper,127.0,127.0,200.0,125.0,125.0,200.0,2,1.3350880146026611,None,,,,,0,0,0,0,0,31,31,49,97.10632276535034,,,,,,,,,,,,,,,,,,,,,,,,,,,,,,,,,,,,,,,,,,,,,,,,,,,,,,,,,,,,,,,,,,,,,,,,,,,,,,,,,127.0,127.0,200.0,125.0,125.0,200.0,1.0,1.2,-222,1,0,3,258,11,97.09200406074524,97.09204483032227,97.09417462348938,97.10632276535034,97.25647830963135,97.25647830963135,97.25647830963135,97.25647830963135,97.25647830963135,97.25647830963135,97.25647830963135,98.46217346191406,2,1.3350880146026611,None,,,,,,,,,,,,,,,,,,35,3,2025-02-19_11h25.58.410,comp,2024.2.4,63.79800284438766,2025-02-19 11h26.16.467368 -0500,
32,32,0,critical,wdh,20.0,2.1,upper,125.0,200.0,141.0,141.0,200.0,125.0,3,1.2898523807525635,None,,,,,0,0,0,0,0,32,32,35,98.47800326347351,,,,,,,,,,,,,,,,,,,,,,,,,,,,,,,,,,,,,,,,,,,,,,,,,,,,,,,,,,,,,,,,,,,,,,,,,,,,,,,,,125.0,200.0,141.0,141.0,200.0,125.0,2.1,2.11,-266,280,0,258,229,-252,98.46351480484009,98.46355199813843,98.46556878089905,98.47800326347351,98.62372589111328,98.62372589111328,98.62372589111328,98.62372589111328,98.62372589111328,98.62372589111328,98.62372589111328,99.77436542510986,3,1.2898523807525635,None,,,,,,,,,,,,,,,,,,35,3,2025-02-19_11h25.58.410,comp,2024.2.4,63.79800284438766,2025-02-19 11h26.16.467368 -0500,
33,33,0,critical,hwd,35.0,3.0,upper,200.0,125.0,125.0,200.0,127.0,127.0,1,1.9212656021118164,None,,,,,0,0,0,0,0,33,33,99,99.78980684280396,,,,,,,,,,,,,,,,,,,,,,,,,,,,,,,,,,,,,,,,,,,,,,,,,,,,,,,,,,,,,,,,,,,,,,,,,,,,,,,,,200.0,125.0,125.0,200.0,127.0,127.0,3.0,3.2,-258,-285,0,11,260,276,99.77518939971924,99.77522945404053,99.77765464782715,99.78980684280396,99.93992948532104,99.93992948532104,99.93992948532104,99.93992948532104,99.93992948532104,99.93992948532104,99.93992948532104,101.7243402004242,1,1.9212656021118164,None,,,,,,,,,,,,,,,,,,35,3,2025-02-19_11h25.58.410,comp,2024.2.4,63.79800284438766,2025-02-19 11h26.16.467368 -0500,
34,34,0,critical,dwh,35.0,3.0,upper,127.0,127.0,125.0,200.0,200.0,125.0,3,0.8924896717071533,None,,,,,0,0,0,0,0,34,34,63,101.73956799507141,,,,,,,,,,,,,,,,,,,,,,,,,,,,,,,,,,,,,,,,,,,,,,,,,,,,,,,,,,,,,,,,,,,,,,,,,,,,,,,,,127.0,127.0,125.0,200.0,200.0,125.0,3.0,3.1,-260,269,0,19,258,-275,101.7251489162445,101.72518754005432,101.72756624221802,101.73956799507141,101.88985300064087,101.88985300064087,101.88985300064087,101.88985300064087,101.88985300064087,101.88985300064087,101.88985300064087,102.641033411026,3,0.8924896717071533,None,,,,,,,,,,,,,,,,,,35,3,2025-02-19_11h25.58.410,comp,2024.2.4,63.79800284438766,2025-02-19 11h26.16.467368 -0500,
35,35,0,filler_square,None,None,None,None,None,None,None,None,None,None,3,0.9508771896362305,None,,,,,0,0,0,0,0,35,35,174,102.65644788742065,,,,,,,,,,,,,,,,,,,,,,,,,,,,,,,,,,,,,,,,,,,,,,,,,,,,,,,,,,,,,,,,,,,,,,,,,,,,,,,,,144.34075916685907,95.40551231422825,119.14637377268522,73.89184648537268,179.7354741943517,179.7354741943517,2.2,2.22,-181,289,0,-260,223,-251,102.64201140403748,102.64205241203308,102.64433526992798,102.65644788742065,102.80644202232361,102.80644202232361,102.80644202232361,102.80644202232361,102.80644202232361,102.80644202232361,102.80644202232361,103.62427806854248,3,0.9508771896362305,None,,,,,,,,,,,,,,,,,,35,3,2025-02-19_11h25.58.410,comp,2024.2.4,63.79800284438766,2025-02-19 11h26.16.467368 -0500,
36,36,0,critical,whd,20.0,3.0,lower,57.0,133.0,133.0,57.0,78.0,78.0,3,1.744227409362793,None,,,,,0,0,0,0,0,36,36,92,103.63958311080933,,,,,,,,,,,,,,,,,,,,,,,,,,,,,,,,,,,,,,,,,,,,,,,,,,,,,,,,,,,,,,,,,,,,,,,,,,,,,,,,,57.0,133.0,133.0,57.0,78.0,78.0,3.0,3.2,-191,-268,0,-8,164,278,103.62505435943604,103.62510800361633,103.6284544467926,103.63958311080933,103.78966999053955,103.78966999053955,103.78966999053955,103.78966999053955,103.78966999053955,103.78966999053955,103.78966999053955,105.39070081710815,3,1.744227409362793,None,,,,,,,,,,,,,,,,,,35,3,2025-02-19_11h25.58.410,comp,2024.2.4,63.79800284438766,2025-02-19 11h26.16.467368 -0500,
37,37,0,critical,wdh,35.0,1.0,lower,57.0,133.0,70.0,70.0,133.0,57.0,3,1.6500380039215088,None,,,,,0,0,0,0,0,37,37,72,105.40646243095398,,,,,,,,,,,,,,,,,,,,,,,,,,,,,,,,,,,,,,,,,,,,,,,,,,,,,,,,,,,,,,,,,,,,,,,,,,,,,,,,,57.0,133.0,70.0,70.0,133.0,57.0,1.0,1.2,-198,17,0,1,160,-10,105.39148950576782,105.39153122901917,105.39396262168884,105.40646243095398,105.55642938613892,105.55642938613892,105.55642938613892,105.55642938613892,105.55642938613892,105.55642938613892,105.55642938613892,107.07417368888855,3,1.6500380039215088,None,,,,,,,,,,,,,,,,,,35,3,2025-02-19_11h25.58.410,comp,2024.2.4,63.79800284438766,2025-02-19 11h26.16.467368 -0500,
38,38,0,critical,hdw,35.0,2.1,upper,200.0,125.0,127.0,127.0,125.0,200.0,1,1.3013436794281006,None,,,,,0,0,0,0,0,38,38,21,107.08959317207336,,,,,,,,,,,,,,,,,,,,,,,,,,,,,,,,,,,,,,,,,,,,,,,,,,,,,,,,,,,,,,,,,,,,,,,,,,,,,,,,,200.0,125.0,127.0,127.0,125.0,200.0,2.1,2.12,-222,-278,0,-273,260,280,107.07495927810669,107.07499837875366,107.07743525505066,107.08959317207336,107.23994064331055,107.23994064331055,107.23994064331055,107.23994064331055,107.23994064331055,107.23994064331055,107.23994064331055,108.40754175186157,1,1.3013436794281006,None,,,,,,,,,,,,,,,,,,35,3,2025-02-19_11h25.58.410,comp,2024.2.4,63.79800284438766,2025-02-19 11h26.16.467368 -0500,
39,39,0,filler_random,None,None,None,None,None,None,None,None,None,None,1,0.8507583141326904,None,,,,,0,0,0,0,0,39,39,132,108.42281770706177,,,,,,,,,,,,,,,,,,,,,,,,,,,,,,,,,,,,,,,,,,,,,,,,,,,,,,,,,,,,,,,,,,,,,,,,,,,,,,,,,179.4148869707773,178.38258672921637,153.38357628119292,157.1458269316102,150.97107450709478,148.51684660220252,4.0,4.1,-264,-288,0,-9,249,-263,108.40847635269165,108.40851616859436,108.41096353530884,108.42281770706177,108.5732638835907,108.5732638835907,108.5732638835907,108.5732638835907,108.5732638835907,108.5732638835907,108.5732638835907,109.29100251197815,1,0.8507583141326904,None,,,,,,,,,,,,,,,,,,35,3,2025-02-19_11h25.58.410,comp,2024.2.4,63.79800284438766,2025-02-19 11h26.16.467368 -0500,
40,40,0,filler_random,None,None,None,None,None,None,None,None,None,None,1,0.8150966167449951,None,,,,,0,0,0,0,0,40,40,138,109.30621528625488,,,,,,,,,,,,,,,,,,,,,,,,,,,,,,,,,,,,,,,,,,,,,,,,,,,,,,,,,,,,,,,,,,,,,,,,,,,,,,,,,144.18090613687994,182.44908137745597,130.73953357722945,80.60368679994879,164.6305056925935,75.54382113331205,2.2,2.21,-228,-254,0,278,174,279,109.29192066192627,109.29196047782898,109.2945556640625,109.30621528625488,109.45639491081238,109.45639491081238,109.45639491081238,109.45639491081238,109.45639491081238,109.45639491081238,109.45639491081238,110.12436032295227,1,0.8150966167449951,None,,,,,,,,,,,,,,,,,,35,3,2025-02-19_11h25.58.410,comp,2024.2.4,63.79800284438766,2025-02-19 11h26.16.467368 -0500,
41,41,0,critical,wdh,35.0,2.1,lower,57.0,133.0,70.0,70.0,133.0,57.0,2,1.0120718479156494,None,,,,,0,0,0,0,0,41,41,32,110.13973236083984,,,,,,,,,,,,,,,,,,,,,,,,,,,,,,,,,,,,,,,,,,,,,,,,,,,,,,,,,,,,,,,,,,,,,,,,,,,,,,,,,57.0,133.0,70.0,70.0,133.0,57.0,2.1,2.11,-198,270,0,276,160,-272,110.12517070770264,110.12521147727966,110.12732601165771,110.13973236083984,110.28963494300842,110.28963494300842,110.28963494300842,110.28963494300842,110.28963494300842,110.28963494300842,110.28963494300842,111.15764284133911,2,1.0120718479156494,None,,,,,,,,,,,,,,,,,,35,3,2025-02-19_11h25.58.410,comp,2024.2.4,63.79800284438766,2025-02-19 11h26.16.467368 -0500,
42,42,0,filler_square,None,None,None,None,None,None,None,None,None,None,3,1.0339601039886475,None,,,,,0,0,0,0,0,42,42,189,111.17313981056213,,,,,,,,,,,,,,,,,,,,,,,,,,,,,,,,,,,,,,,,,,,,,,,,,,,,,,,,,,,,,,,,,,,,,,,,,,,,,,,,,82.05403571147603,81.49035314924747,66.72229280062186,76.68216582533978,86.9330494763673,86.9330494763673,3.0,3.2,-175,-253,0,-9,178,274,111.15859794616699,111.15863704681396,111.16123962402344,111.17313981056213,111.32311058044434,111.32311058044434,111.32311058044434,111.32311058044434,111.32311058044434,111.32311058044434,111.32311058044434,112.224289894104,3,1.0339601039886475,None,,,,,,,,,,,,,,,,,,35,3,2025-02-19_11h25.58.410,comp,2024.2.4,63.79800284438766,2025-02-19 11h26.16.467368 -0500,
43,43,0,critical,hdw,35.0,2.1,lower,133.0,57.0,70.0,70.0,57.0,133.0,1,1.0714235305786133,None,,,,,0,0,0,0,0,43,43,20,112.2395453453064,,,,,,,,,,,,,,,,,,,,,,,,,,,,,,,,,,,,,,,,,,,,,,,,,,,,,,,,,,,,,,,,,,,,,,,,,,,,,,,,,133.0,57.0,70.0,70.0,57.0,133.0,2.1,2.12,-160,-281,0,-256,198,274,112.22508883476257,112.22512936592102,112.22715640068054,112.2395453453064,112.3896267414093,112.3896267414093,112.3896267414093,112.3896267414093,112.3896267414093,112.3896267414093,112.3896267414093,113.32417130470276,1,1.0714235305786133,None,,,,,,,,,,,,,,,,,,35,3,2025-02-19_11h25.58.410,comp,2024.2.4,63.79800284438766,2025-02-19 11h26.16.467368 -0500,
44,44,0,filler_random,None,None,None,None,None,None,None,None,None,None,1,2.019526481628418,None,,,,,0,0,0,0,0,44,44,157,113.33948373794556,,,,,,,,,,,,,,,,,,,,,,,,,,,,,,,,,,,,,,,,,,,,,,,,,,,,,,,,,,,,,,,,,,,,,,,,,,,,,,,,,163.6680290079462,135.74069380167214,199.690170948352,100.34721389677318,107.29425415581723,142.28175795121456,4.0,4.1,-214,-264,0,8,217,-278,113.32505345344543,113.32510638237,113.32751655578613,113.33948373794556,113.48988223075867,113.48988223075867,113.48988223075867,113.48988223075867,113.48988223075867,113.48988223075867,113.48988223075867,115.37422275543213,1,2.019526481628418,None,,,,,,,,,,,,,,,,,,35,3,2025-02-19_11h25.58.410,comp,2024.2.4,63.79800284438766,2025-02-19 11h26.16.467368 -0500,
45,45,0,critical,dhw,20.0,2.1,lower,78.0,78.0,133.0,57.0,57.0,133.0,2,1.5782256126403809,None,,,,,0,0,0,0,0,45,45,2,115.38952970504761,,,,,,,,,,,,,,,,,,,,,,,,,,,,,,,,,,,,,,,,,,,,,,,,,,,,,,,,,,,,,,,,,,,,,,,,,,,,,,,,,78.0,78.0,133.0,57.0,57.0,133.0,2.1,2.11,-164,251,0,281,191,-282,115.37501430511475,115.3750512599945,115.37706255912781,115.38952970504761,115.53964424133301,115.53964424133301,115.53964424133301,115.53964424133301,115.53964424133301,115.53964424133301,115.53964424133301,116.97399115562439,2,1.5782256126403809,None,,,,,,,,,,,,,,,,,,35,3,2025-02-19_11h25.58.410,comp,2024.2.4,63.79800284438766,2025-02-19 11h26.16.467368 -0500,
46,46,0,filler_square,None,None,None,None,None,None,None,None,None,None,3,0.8116476535797119,None,,,,,0,0,0,0,0,46,46,173,116.98956108093262,,,,,,,,,,,,,,,,,,,,,,,,,,,,,,,,,,,,,,,,,,,,,,,,,,,,,,,,,,,,,,,,,,,,,,,,,,,,,,,,,87.95659501995556,93.9780803315229,115.88819778739172,96.8639277317865,161.83635368922813,161.83635368922813,4.0,4.1,-191,-255,0,-18,225,-287,116.97492051124573,116.97496104240417,116.9773371219635,116.98956108093262,117.13969159126282,117.13969159126282,117.13969159126282,117.13969159126282,117.13969159126282,117.13969159126282,117.13969159126282,117.81381893157959,3,0.8116476535797119,None,,,,,,,,,,,,,,,,,,35,3,2025-02-19_11h25.58.410,comp,2024.2.4,63.79800284438766,2025-02-19 11h26.16.467368 -0500,
47,47,0,critical,dhw,20.0,3.0,upper,141.0,141.0,200.0,125.0,125.0,200.0,2,1.5836763381958008,None,,,,,0,0,0,0,0,47,47,57,117.8399829864502,,,,,,,,,,,,,,,,,,,,,,,,,,,,,,,,,,,,,,,,,,,,,,,,,,,,,,,,,,,,,,,,,,,,,,,,,,,,,,,,,141.0,141.0,200.0,125.0,125.0,200.0,3.0,3.1,-229,285,0,-12,258,-288,117.81457018852234,117.81460547447205,117.81638026237488,117.8399829864502,117.97414231300354,117.97414231300354,117.97414231300354,117.97414231300354,117.97414231300354,117.97414231300354,117.97414231300354,119.44089818000793,2,1.5836763381958008,None,,,,,,,,,,,,,,,,,,35,3,2025-02-19_11h25.58.410,comp,2024.2.4,63.79800284438766,2025-02-19 11h26.16.467368 -0500,
48,48,0,critical,hwd,35.0,2.1,lower,133.0,57.0,57.0,133.0,70.0,70.0,1,1.038252353668213,None,,,,,0,0,0,0,0,48,48,40,119.45654273033142,,,,,,,,,,,,,,,,,,,,,,,,,,,,,,,,,,,,,,,,,,,,,,,,,,,,,,,,,,,,,,,,,,,,,,,,,,,,,,,,,133.0,57.0,57.0,133.0,70.0,70.0,2.1,2.12,-191,-285,0,-279,198,256,119.44191384315491,119.44195461273193,119.44551706314087,119.45654273033142,119.60617685317993,119.60617685317993,119.60617685317993,119.60617685317993,119.60617685317993,119.60617685317993,119.60617685317993,120.50735354423523,1,1.038252353668213,None,,,,,,,,,,,,,,,,,,35,3,2025-02-19_11h25.58.410,comp,2024.2.4,63.79800284438766,2025-02-19 11h26.16.467368 -0500,
49,49,0,critical,hdw,20.0,1.0,lower,133.0,57.0,78.0,78.0,57.0,133.0,1,1.6608870029449463,None,,,,,0,0,0,0,0,49,49,114,120.52274346351624,,,,,,,,,,,,,,,,,,,,,,,,,,,,,,,,,,,,,,,,,,,,,,,,,,,,,,,,,,,,,,,,,,,,,,,,,,,,,,,,,133.0,57.0,78.0,78.0,57.0,133.0,1.0,1.2,-164,-13,0,17,202,5,120.50816512107849,120.50820422172546,120.51077795028687,120.52274346351624,120.67331981658936,120.67331981658936,120.67331981658936,120.67331981658936,120.67331981658936,120.67331981658936,120.67331981658936,122.19067335128784,1,1.6608870029449463,None,,,,,,,,,,,,,,,,,,35,3,2025-02-19_11h25.58.410,comp,2024.2.4,63.79800284438766,2025-02-19 11h26.16.467368 -0500,
50,50,0,filler_random,None,None,None,None,None,None,None,None,None,None,2,0.9773249626159668,None,,,,,0,0,0,0,0,50,50,145,122.20640063285828,,,,,,,,,,,,,,,,,,,,,,,,,,,,,,,,,,,,,,,,,,,,,,,,,,,,,,,,,,,,,,,,,,,,,,,,,,,,,,,,,118.57094352817955,88.51002277994685,158.98880481280045,189.9568251503687,103.30024504471743,70.19308017049042,2.1,2.12,-235,-267,0,-269,226,273,122.19169735908508,122.19173884391785,122.1939058303833,122.20640063285828,122.3564133644104,122.3564133644104,122.3564133644104,122.3564133644104,122.3564133644104,122.3564133644104,122.3564133644104,123.19075536727905,2,0.9773249626159668,None,,,,,,,,,,,,,,,,,,35,3,2025-02-19_11h25.58.410,comp,2024.2.4,63.79800284438766,2025-02-19 11h26.16.467368 -0500,
51,51,0,filler_square,None,None,None,None,None,None,None,None,None,None,2,0.8667564392089844,None,,,,,0,0,0,0,0,51,51,196,123.20625758171082,,,,,,,,,,,,,,,,,,,,,,,,,,,,,,,,,,,,,,,,,,,,,,,,,,,,,,,,,,,,,,,,,,,,,,,,,,,,,,,,,81.68954401391642,74.14257760765177,94.62000669595088,94.62000669595088,71.5137465091638,81.28773958688677,2.2,2.22,-180,267,0,-275,184,-278,123.19173455238342,123.19177484512329,123.194260597229,123.20625758171082,123.35634708404541,123.35634708404541,123.35634708404541,123.35634708404541,123.35634708404541,123.35634708404541,123.35634708404541,124.09061670303345,2,0.8667564392089844,None,,,,,,,,,,,,,,,,,,35,3,2025-02-19_11h25.58.410,comp,2024.2.4,63.79800284438766,2025-02-19 11h26.16.467368 -0500,
52,52,0,filler_square,None,None,None,None,None,None,None,None,None,None,2,1.2688472270965576,None,,,,,0,0,0,0,0,52,52,171,124.1061384677887,,,,,,,,,,,,,,,,,,,,,,,,,,,,,,,,,,,,,,,,,,,,,,,,,,,,,,,,,,,,,,,,,,,,,,,,,,,,,,,,,89.90615743385919,78.08595228232403,123.87948470062065,123.87948470062065,105.68627921150511,73.85214025027147,3.0,3.1,-197,260,0,8,195,-264,124.09158253669739,124.09162402153015,124.09375333786011,124.1061384677887,124.25623393058777,124.25623393058777,124.25623393058777,124.25623393058777,124.25623393058777,124.25623393058777,124.25623393058777,125.39055299758911,2,1.2688472270965576,None,,,,,,,,,,,,,,,,,,35,3,2025-02-19_11h25.58.410,comp,2024.2.4,63.79800284438766,2025-02-19 11h26.16.467368 -0500,
53,53,0,critical,dhw,35.0,2.1,upper,127.0,127.0,200.0,125.0,125.0,200.0,2,1.4506032466888428,None,,,,,0,0,0,0,0,53,53,1,125.40603041648865,,,,,,,,,,,,,,,,,,,,,,,,,,,,,,,,,,,,,,,,,,,,,,,,,,,,,,,,,,,,,,,,,,,,,,,,,,,,,,,,,127.0,127.0,200.0,125.0,125.0,200.0,2.1,2.12,-222,-288,0,-282,258,274,125.39139723777771,125.39143800735474,125.39393043518066,125.40603041648865,125.55637693405151,125.55637693405151,125.55637693405151,125.55637693405151,125.55637693405151,125.55637693405151,125.55637693405151,126.87418913841248,2,1.4506032466888428,None,,,,,,,,,,,,,,,,,,35,3,2025-02-19_11h25.58.410,comp,2024.2.4,63.79800284438766,2025-02-19 11h26.16.467368 -0500,
54,54,0,filler_random,None,None,None,None,None,None,None,None,None,None,1,1.9340295791625977,None,,,,,0,0,0,0,0,54,54,140,126.88941669464111,,,,,,,,,,,,,,,,,,,,,,,,,,,,,,,,,,,,,,,,,,,,,,,,,,,,,,,,,,,,,,,,,,,,,,,,,,,,,,,,,154.7914075810499,183.89068077989018,170.31047190982312,115.01445881865098,139.2931883242723,144.6493865033389,2.2,2.21,-245,-261,0,252,226,258,126.87509322166443,126.87513589859009,126.8772668838501,126.88941669464111,127.03965330123901,127.03965330123901,127.03965330123901,127.03965330123901,127.03965330123901,127.03965330123901,127.03965330123901,128.84073853492737,1,1.9340295791625977,None,,,,,,,,,,,,,,,,,,35,3,2025-02-19_11h25.58.410,comp,2024.2.4,63.79800284438766,2025-02-19 11h26.16.467368 -0500,
55,55,0,filler_square,None,None,None,None,None,None,None,None,None,None,2,1.591609001159668,None,,,,,0,0,0,0,0,55,55,206,128.8560914993286,,,,,,,,,,,,,,,,,,,,,,,,,,,,,,,,,,,,,,,,,,,,,,,,,,,,,,,,,,,,,,,,,,,,,,,,,,,,,,,,,138.0376747694264,138.0376747694264,97.1794737825054,137.74016650868373,84.03299141257182,91.30952777025536,2.2,2.21,-234,-285,0,256,211,278,128.84168553352356,128.841726064682,128.8442394733429,128.8560914993286,129.00620365142822,129.00620365142822,129.00620365142822,129.00620365142822,129.00620365142822,129.00620365142822,129.00620365142822,130.45742225646973,2,1.591609001159668,None,,,,,,,,,,,,,,,,,,35,3,2025-02-19_11h25.58.410,comp,2024.2.4,63.79800284438766,2025-02-19 11h26.16.467368 -0500,
56,56,0,critical,wdh,20.0,2.1,lower,57.0,133.0,78.0,78.0,133.0,57.0,2,1.1667759418487549,None,,,,,0,0,0,0,0,56,56,34,130.4729564189911,,,,,,,,,,,,,,,,,,,,,,,,,,,,,,,,,,,,,,,,,,,,,,,,,,,,,,,,,,,,,,,,,,,,,,,,,,,,,,,,,57.0,133.0,78.0,78.0,133.0,57.0,2.1,2.12,-202,-277,0,-273,164,271,130.45822286605835,130.45826315879822,130.46075057983398,130.4729564189911,130.62279295921326,130.62279295921326,130.62279295921326,130.62279295921326,130.62279295921326,130.62279295921326,130.62279295921326,131.6408565044403,2,1.1667759418487549,None,,,,,,,,,,,,,,,,,,35,3,2025-02-19_11h25.58.410,comp,2024.2.4,63.79800284438766,2025-02-19 11h26.16.467368 -0500,
57,57,0,critical,whd,20.0,4.0,upper,125.0,200.0,200.0,125.0,141.0,141.0,2,2.000403642654419,None,,,,,0,0,0,0,0,57,57,95,131.6561517715454,,,,,,,,,,,,,,,,,,,,,,,,,,,,,,,,,,,,,,,,,,,,,,,,,,,,,,,,,,,,,,,,,,,,,,,,,,,,,,,,,125.0,200.0,200.0,125.0,141.0,141.0,4.0,4.2,-258,11,0,-265,229,5,131.64164233207703,131.64168000221252,131.6437394618988,131.6561517715454,131.80620908737183,131.80620908737183,131.80620908737183,131.80620908737183,131.80620908737183,131.80620908737183,131.80620908737183,133.67419624328613,2,2.000403642654419,None,,,,,,,,,,,,,,,,,,35,3,2025-02-19_11h25.58.410,comp,2024.2.4,63.79800284438766,2025-02-19 11h26.16.467368 -0500,
58,58,0,filler_random,None,None,None,None,None,None,None,None,None,None,2,0.8854448795318604,None,,,,,0,0,0,0,0,58,58,164,133.68958353996277,,,,,,,,,,,,,,,,,,,,,,,,,,,,,,,,,,,,,,,,,,,,,,,,,,,,,,,,,,,,,,,,,,,,,,,,,,,,,,,,,117.245558548654,147.15406248243033,178.34109728497378,124.18066603829706,69.30847152672104,110.22461815647483,3.0,3.2,-232,-256,0,0,213,253,133.67508959770203,133.67513060569763,133.67725372314453,133.68958353996277,133.8396303653717,133.8396303653717,133.8396303653717,133.8396303653717,133.8396303653717,133.8396303653717,133.8396303653717,134.59078645706177,2,0.8854448795318604,None,,,,,,,,,,,,,,,,,,35,3,2025-02-19_11h25.58.410,comp,2024.2.4,63.79800284438766,2025-02-19 11h26.16.467368 -0500,
59,59,0,critical,hwd,20.0,1.0,upper,200.0,125.0,125.0,200.0,141.0,141.0,1,0.929851770401001,None,,,,,0,0,0,0,0,59,59,103,134.60610389709473,,,,,,,,,,,,,,,,,,,,,,,,,,,,,,,,,,,,,,,,,,,,,,,,,,,,,,,,,,,,,,,,,,,,,,,,,,,,,,,,,200.0,125.0,125.0,200.0,141.0,141.0,1.0,1.3,222,-280,480,-283,746,-286,134.59158658981323,134.59162831306458,134.59415459632874,134.60610389709473,134.7562849521637,134.7562849521637,134.7562849521637,134.7562849521637,134.7562849521637,134.7562849521637,134.7562849521637,135.54090070724487,1,0.929851770401001,None,,,,,,,,,,,,,,,,,,35,3,2025-02-19_11h25.58.410,comp,2024.2.4,63.79800284438766,2025-02-19 11h26.16.467368 -0500,
60,60,0,critical,hdw,20.0,3.0,lower,133.0,57.0,78.0,78.0,57.0,133.0,1,1.7954609394073486,None,,,,,0,0,0,0,0,60,60,116,135.55620288848877,,,,,,,,,,,,,,,,,,,,,,,,,,,,,,,,,,,,,,,,,,,,,,,,,,,,,,,,,,,,,,,,,,,,,,,,,,,,,,,,,133.0,57.0,78.0,78.0,57.0,133.0,3.0,3.1,-164,256,0,-16,202,-257,135.54171347618103,135.5417549610138,135.5438871383667,135.55620288848877,135.70604801177979,135.70604801177979,135.70604801177979,135.70604801177979,135.70604801177979,135.70604801177979,135.70604801177979,137.3573899269104,1,1.7954609394073486,None,,,,,,,,,,,,,,,,,,35,3,2025-02-19_11h25.58.410,comp,2024.2.4,63.79800284438766,2025-02-19 11h26.16.467368 -0500,
61,61,0,filler_square,None,None,None,None,None,None,None,None,None,None,2,0.9215664863586426,None,,,,,0,0,0,0,0,61,61,187,137.37316870689392,,,,,,,,,,,,,,,,,,,,,,,,,,,,,,,,,,,,,,,,,,,,,,,,,,,,,,,,,,,,,,,,,,,,,,,,,,,,,,,,,137.4309297917605,137.4309297917605,118.57382231763864,101.11509873172639,105.71605271713798,62.69975570699156,3.0,3.2,-215,-271,0,20,178,261,137.35843777656555,137.35847663879395,137.36066603660583,137.37316870689392,137.52276229858398,137.52276229858398,137.52276229858398,137.52276229858398,137.52276229858398,137.52276229858398,137.52276229858398,138.30720734596252,2,0.9215664863586426,None,,,,,,,,,,,,,,,,,,35,3,2025-02-19_11h25.58.410,comp,2024.2.4,63.79800284438766,2025-02-19 11h26.16.467368 -0500,
62,62,0,critical,dwh,20.0,2.1,upper,141.0,141.0,125.0,200.0,200.0,125.0,3,2.72623348236084,None,,,,,0,0,0,0,0,62,62,7,138.32257962226868,,,,,,,,,,,,,,,,,,,,,,,,,,,,,,,,,,,,,,,,,,,,,,,,,,,,,,,,,,,,,,,,,,,,,,,,,,,,,,,,,141.0,141.0,125.0,200.0,200.0,125.0,2.1,2.11,-266,270,0,257,258,-289,138.3079764842987,138.3080174922943,138.31037425994873,138.32257962226868,138.4732367992401,138.4732367992401,138.4732367992401,138.4732367992401,138.4732367992401,138.4732367992401,138.4732367992401,141.0582685470581,3,2.72623348236084,None,,,,,,,,,,,,,,,,,,35,3,2025-02-19_11h25.58.410,comp,2024.2.4,63.79800284438766,2025-02-19 11h26.16.467368 -0500,
63,63,0,critical,dhw,20.0,4.0,upper,141.0,141.0,200.0,125.0,125.0,200.0,3,1.216357707977295,None,,,,,0,0,0,0,0,63,63,59,141.073472738266,,,,,,,,,,,,,,,,,,,,,,,,,,,,,,,,,,,,,,,,,,,,,,,,,,,,,,,,,,,,,,,,,,,,,,,,,,,,,,,,,141.0,141.0,200.0,125.0,125.0,200.0,4.0,4.1,-229,-254,0,4,258,-268,141.0590500831604,141.05910897254944,141.0613570213318,141.073472738266,141.22399139404297,141.22399139404297,141.22399139404297,141.22399139404297,141.22399139404297,141.22399139404297,141.22399139404297,142.29120659828186,3,1.216357707977295,None,,,,,,,,,,,,,,,,,,35,3,2025-02-19_11h25.58.410,comp,2024.2.4,63.79800284438766,2025-02-19 11h26.16.467368 -0500,
64,64,0,filler_random,None,None,None,None,None,None,None,None,None,None,3,1.9884374141693115,None,,,,,0,0,0,0,0,64,64,146,142.30616927146912,,,,,,,,,,,,,,,,,,,,,,,,,,,,,,,,,,,,,,,,,,,,,,,,,,,,,,,,,,,,,,,,,,,,,,,,,,,,,,,,,77.13710476583206,142.3788370057351,198.1597206881224,62.608746154716904,103.11546371849047,148.57198602464064,3.0,3.2,-198,-258,0,9,202,270,142.29212546348572,142.2921645641327,142.2943570613861,142.30616927146912,142.45622658729553,142.45622658729553,142.45622658729553,142.45622658729553,142.45622658729553,142.45622658729553,142.45622658729553,144.3073751926422,3,1.9884374141693115,None,,,,,,,,,,,,,,,,,,35,3,2025-02-19_11h25.58.410,comp,2024.2.4,63.79800284438766,2025-02-19 11h26.16.467368 -0500,
65,65,0,critical,hwd,20.0,2.1,upper,200.0,125.0,125.0,200.0,141.0,141.0,1,1.0201687812805176,None,,,,,0,0,0,0,0,65,65,43,144.32269501686096,,,,,,,,,,,,,,,,,,,,,,,,,,,,,,,,,,,,,,,,,,,,,,,,,,,,,,,,,,,,,,,,,,,,,,,,,,,,,,,,,200.0,125.0,125.0,200.0,141.0,141.0,2.1,2.11,-258,250,0,257,266,-285,144.3082721233368,144.30831241607666,144.31098866462708,144.32269501686096,144.47301244735718,144.47301244735718,144.47301244735718,144.47301244735718,144.47301244735718,144.47301244735718,144.47301244735718,145.35743808746338,1,1.0201687812805176,None,,,,,,,,,,,,,,,,,,35,3,2025-02-19_11h25.58.410,comp,2024.2.4,63.79800284438766,2025-02-19 11h26.16.467368 -0500,
66,66,0,filler_random,None,None,None,None,None,None,None,None,None,None,2,0.9005882740020752,None,,,,,0,0,0,0,0,66,66,168,145.37265396118164,,,,,,,,,,,,,,,,,,,,,,,,,,,,,,,,,,,,,,,,,,,,,,,,,,,,,,,,,,,,,,,,,,,,,,,,,,,,,,,,,65.93002696997107,121.68686086795636,90.62253082520019,145.48341816826212,104.74736809285677,65.76523705663466,4.0,4.2,-230,1,0,-270,202,9,145.35833191871643,145.35837197303772,145.36079597473145,145.37265396118164,145.52280712127686,145.52280712127686,145.52280712127686,145.52280712127686,145.52280712127686,145.52280712127686,145.52280712127686,146.29045295715332,2,0.9005882740020752,None,,,,,,,,,,,,,,,,,,35,3,2025-02-19_11h25.58.410,comp,2024.2.4,63.79800284438766,2025-02-19 11h26.16.467368 -0500,
67,67,0,filler_random,None,None,None,None,None,None,None,None,None,None,3,0.9006690979003906,None,,,,,0,0,0,0,0,67,67,151,146.30603790283203,,,,,,,,,,,,,,,,,,,,,,,,,,,,,,,,,,,,,,,,,,,,,,,,,,,,,,,,,,,,,,,,,,,,,,,,,,,,,,,,,165.5268692056113,61.741469838411476,81.88243629748233,191.08399342036654,141.22085609900282,140.91671630154772,4.0,4.2,-222,-13,0,-290,262,-15,146.29134345054626,146.29138493537903,146.29385709762573,146.30603790283203,146.45621585845947,146.45621585845947,146.45621585845947,146.45621585845947,146.45621585845947,146.45621585845947,146.45621585845947,147.22394394874573,3,0.9006690979003906,None,,,,,,,,,,,,,,,,,,35,3,2025-02-19_11h25.58.410,comp,2024.2.4,63.79800284438766,2025-02-19 11h26.16.467368 -0500,
68,68,0,filler_square,None,None,None,None,None,None,None,None,None,None,3,1.551473617553711,None,,,,,0,0,0,0,0,68,68,179,147.2392978668213,,,,,,,,,,,,,,,,,,,,,,,,,,,,,,,,,,,,,,,,,,,,,,,,,,,,,,,,,,,,,,,,,,,,,,,,,,,,,,,,,112.89557386643475,83.87126710763785,78.6207739719417,111.36043297934913,117.79487953083773,117.79487953083773,4.0,4.2,-194,16,0,-257,211,-18,147.22489261627197,147.22493243217468,147.22750186920166,147.2392978668213,147.38949823379517,147.38949823379517,147.38949823379517,147.38949823379517,147.38949823379517,147.38949823379517,147.38949823379517,148.80717730522156,3,1.551473617553711,None,,,,,,,,,,,,,,,,,,35,3,2025-02-19_11h25.58.410,comp,2024.2.4,63.79800284438766,2025-02-19 11h26.16.467368 -0500,
69,69,0,critical,dhw,20.0,2.1,lower,78.0,78.0,133.0,57.0,57.0,133.0,3,1.6340086460113525,None,,,,,0,0,0,0,0,69,69,26,148.82250785827637,,,,,,,,,,,,,,,,,,,,,,,,,,,,,,,,,,,,,,,,,,,,,,,,,,,,,,,,,,,,,,,,,,,,,,,,,,,,,,,,,78.0,78.0,133.0,57.0,57.0,133.0,2.1,2.12,-164,-262,0,-256,191,265,148.80796217918396,148.80800080299377,148.81034064292908,148.82250785827637,148.97328424453735,148.97328424453735,148.97328424453735,148.97328424453735,148.97328424453735,148.97328424453735,148.97328424453735,150.47384929656982,3,1.6340086460113525,None,,,,,,,,,,,,,,,,,,35,3,2025-02-19_11h25.58.410,comp,2024.2.4,63.79800284438766,2025-02-19 11h26.16.467368 -0500,
70,70,0,critical,wdh,35.0,4.0,lower,57.0,133.0,70.0,70.0,133.0,57.0,2,1.750248670578003,None,,,,,0,0,0,0,0,70,70,76,150.4893114566803,,,,,,,,,,,,,,,,,,,,,,,,,,,,,,,,,,,,,,,,,,,,,,,,,,,,,,,,,,,,,,,,,,,,,,,,,,,,,,,,,57.0,133.0,70.0,70.0,133.0,57.0,4.0,4.2,-198,4,0,-251,160,-4,150.47464275360107,150.4746811389923,150.47723412513733,150.4893114566803,150.63937520980835,150.63937520980835,150.63937520980835,150.63937520980835,150.63937520980835,150.63937520980835,150.63937520980835,152.2406837940216,2,1.750248670578003,None,,,,,,,,,,,,,,,,,,35,3,2025-02-19_11h25.58.410,comp,2024.2.4,63.79800284438766,2025-02-19 11h26.16.467368 -0500,
71,71,0,critical,hdw,35.0,2.1,upper,200.0,125.0,127.0,127.0,125.0,200.0,1,1.28733491897583,None,,,,,0,0,0,0,0,71,71,45,152.25614380836487,,,,,,,,,,,,,,,,,,,,,,,,,,,,,,,,,,,,,,,,,,,,,,,,,,,,,,,,,,,,,,,,,,,,,,,,,,,,,,,,,200.0,125.0,127.0,127.0,125.0,200.0,2.1,2.12,-222,-282,0,-290,260,266,152.2414562702179,152.2414960861206,152.24424695968628,152.25614380836487,152.4062204360962,152.4062204360962,152.4062204360962,152.4062204360962,152.4062204360962,152.4062204360962,152.4062204360962,153.55744624137878,1,1.28733491897583,None,,,,,,,,,,,,,,,,,,35,3,2025-02-19_11h25.58.410,comp,2024.2.4,63.79800284438766,2025-02-19 11h26.16.467368 -0500,
72,72,0,critical,dwh,35.0,2.1,upper,127.0,127.0,125.0,200.0,200.0,125.0,2,1.2108972072601318,None,,,,,0,0,0,0,0,72,72,29,153.57264375686646,,,,,,,,,,,,,,,,,,,,,,,,,,,,,,,,,,,,,,,,,,,,,,,,,,,,,,,,,,,,,,,,,,,,,,,,,,,,,,,,,127.0,127.0,125.0,200.0,200.0,125.0,2.1,2.11,-260,283,0,269,258,-263,153.55820989608765,153.55824851989746,153.5605902671814,153.57264375686646,153.72294902801514,153.72294902801514,153.72294902801514,153.72294902801514,153.72294902801514,153.72294902801514,153.72294902801514,154.79070019721985,2,1.2108972072601318,None,,,,,,,,,,,,,,,,,,35,3,2025-02-19_11h25.58.410,comp,2024.2.4,63.79800284438766,2025-02-19 11h26.16.467368 -0500,
73,73,0,critical,hwd,20.0,3.0,lower,133.0,57.0,57.0,133.0,78.0,78.0,3,1.6577353477478027,None,,,,,0,0,0,0,0,73,73,104,154.80613803863525,,,,,,,,,,,,,,,,,,,,,,,,,,,,,,,,,,,,,,,,,,,,,,,,,,,,,,,,,,,,,,,,,,,,,,,,,,,,,,,,,133.0,57.0,57.0,133.0,78.0,78.0,3.0,3.2,-191,-286,0,4,202,253,154.79153037071228,154.791570186615,154.79404854774475,154.80613803863525,154.95609641075134,154.95609641075134,154.95609641075134,154.95609641075134,154.95609641075134,154.95609641075134,154.95609641075134,156.47370100021362,3,1.6577353477478027,None,,,,,,,,,,,,,,,,,,35,3,2025-02-19_11h25.58.410,comp,2024.2.4,63.79800284438766,2025-02-19 11h26.16.467368 -0500,
74,74,0,filler_square,None,None,None,None,None,None,None,None,None,None,2,1.6006474494934082,None,,,,,0,0,0,0,0,74,74,190,156.4894962310791,,,,,,,,,,,,,,,,,,,,,,,,,,,,,,,,,,,,,,,,,,,,,,,,,,,,,,,,,,,,,,,,,,,,,,,,,,,,,,,,,103.66043827316767,103.66043827316767,100.4885810984741,91.64959457983144,83.2340659246171,99.7696973101265,3.0,3.1,-194,262,0,-10,192,-287,156.47466683387756,156.47470998764038,156.47723484039307,156.4894962310791,156.63929271697998,156.63929271697998,156.63929271697998,156.63929271697998,156.63929271697998,156.63929271697998,156.63929271697998,158.10727834701538,2,1.6006474494934082,None,,,,,,,,,,,,,,,,,,35,3,2025-02-19_11h25.58.410,comp,2024.2.4,63.79800284438766,2025-02-19 11h26.16.467368 -0500,
75,75,0,critical,hdw,35.0,3.0,lower,133.0,57.0,70.0,70.0,57.0,133.0,3,1.708751916885376,None,,,,,0,0,0,0,0,75,75,110,158.12266182899475,,,,,,,,,,,,,,,,,,,,,,,,,,,,,,,,,,,,,,,,,,,,,,,,,,,,,,,,,,,,,,,,,,,,,,,,,,,,,,,,,133.0,57.0,70.0,70.0,57.0,133.0,3.0,3.2,-160,-279,0,-12,198,261,158.10805106163025,158.10810732841492,158.11026334762573,158.12266182899475,158.2727084159851,158.2727084159851,158.2727084159851,158.2727084159851,158.2727084159851,158.2727084159851,158.2727084159851,159.8403923511505,3,1.708751916885376,None,,,,,,,,,,,,,,,,,,35,3,2025-02-19_11h25.58.410,comp,2024.2.4,63.79800284438766,2025-02-19 11h26.16.467368 -0500,
76,76,0,filler_random,None,None,None,None,None,None,None,None,None,None,2,0.7753386497497559,None,,,,,0,0,0,0,0,76,76,163,159.85611152648926,,,,,,,,,,,,,,,,,,,,,,,,,,,,,,,,,,,,,,,,,,,,,,,,,,,,,,,,,,,,,,,,,,,,,,,,,,,,,,,,,129.1720645285297,118.55750216248826,182.0596319397897,199.92528998566823,190.02728803316435,86.4385321212708,3.0,3.1,-255,286,0,-14,239,-258,159.8412847518921,159.84132528305054,159.8434419631958,159.85611152648926,160.00618743896484,160.00618743896484,160.00618743896484,160.00618743896484,160.00618743896484,160.00618743896484,160.00618743896484,160.64058256149292,2,0.7753386497497559,None,,,,,,,,,,,,,,,,,,35,3,2025-02-19_11h25.58.410,comp,2024.2.4,63.79800284438766,2025-02-19 11h26.16.467368 -0500,
77,77,0,filler_random,None,None,None,None,None,None,None,None,None,None,1,1.502840518951416,None,,,,,0,0,0,0,0,77,77,144,160.65600061416626,,,,,,,,,,,,,,,,,,,,,,,,,,,,,,,,,,,,,,,,,,,,,,,,,,,,,,,,,,,,,,,,,,,,,,,,,,,,,,,,,121.77130895666575,102.6055194125663,70.58537649951549,165.80551681294446,83.29485613186141,187.9768846590339,3.0,3.2,-230,-260,0,8,273,273,160.64150738716125,160.64154815673828,160.64412307739258,160.65600061416626,160.80610132217407,160.80610132217407,160.80610132217407,160.80610132217407,160.80610132217407,160.80610132217407,160.80610132217407,162.17380547523499,1,1.502840518951416,None,,,,,,,,,,,,,,,,,,35,3,2025-02-19_11h25.58.410,comp,2024.2.4,63.79800284438766,2025-02-19 11h26.16.467368 -0500,
78,78,0,critical,dwh,20.0,4.0,lower,78.0,78.0,57.0,133.0,133.0,57.0,1,1.4670562744140625,None,,,,,0,0,0,0,0,78,78,70,162.1892545223236,,,,,,,,,,,,,,,,,,,,,,,,,,,,,,,,,,,,,,,,,,,,,,,,,,,,,,,,,,,,,,,,,,,,,,,,,,,,,,,,,78.0,78.0,57.0,133.0,133.0,57.0,4.0,4.2,-202,3,0,-285,191,-14,162.1745743751526,162.17461371421814,162.17717051506042,162.1892545223236,162.33930277824402,162.33930277824402,162.33930277824402,162.33930277824402,162.33930277824402,162.33930277824402,162.33930277824402,163.67371916770935,1,1.4670562744140625,None,,,,,,,,,,,,,,,,,,35,3,2025-02-19_11h25.58.410,comp,2024.2.4,63.79800284438766,2025-02-19 11h26.16.467368 -0500,
79,79,0,critical,wdh,35.0,4.0,upper,125.0,200.0,127.0,127.0,200.0,125.0,3,1.3839890956878662,None,,,,,0,0,0,0,0,79,79,77,163.68913459777832,,,,,,,,,,,,,,,,,,,,,,,,,,,,,,,,,,,,,,,,,,,,,,,,,,,,,,,,,,,,,,,,,,,,,,,,,,,,,,,,,125.0,200.0,127.0,127.0,200.0,125.0,4.0,4.2,-260,-16,0,-271,222,11,163.67450952529907,163.67454886436462,163.67710280418396,163.68913459777832,163.83942890167236,163.83942890167236,163.83942890167236,163.83942890167236,163.83942890167236,163.83942890167236,163.83942890167236,165.07437658309937,3,1.3839890956878662,None,,,,,,,,,,,,,,,,,,35,3,2025-02-19_11h25.58.410,comp,2024.2.4,63.79800284438766,2025-02-19 11h26.16.467368 -0500,
80,80,0,critical,whd,35.0,1.0,lower,57.0,133.0,133.0,57.0,70.0,70.0,1,1.8214762210845947,None,,,,,0,0,0,0,0,80,80,84,165.0894808769226,,,,,,,,,,,,,,,,,,,,,,,,,,,,,,,,,,,,,,,,,,,,,,,,,,,,,,,,,,,,,,,,,,,,,,,,,,,,,,,,,57.0,133.0,133.0,57.0,70.0,70.0,1.0,1.1,-671,287,-480,280,-320,259,165.0751404762268,165.07517957687378,165.07758784294128,165.0894808769226,165.23937892913818,165.23937892913818,165.23937892913818,165.23937892913818,165.23937892913818,165.23937892913818,165.23937892913818,166.92381238937378,1,1.8214762210845947,None,,,,,,,,,,,,,,,,,,35,3,2025-02-19_11h25.58.410,comp,2024.2.4,63.79800284438766,2025-02-19 11h26.16.467368 -0500,
81,81,0,critical,dwh,20.0,1.0,upper,141.0,141.0,125.0,200.0,200.0,125.0,3,1.8602898120880127,None,,,,,0,0,0,0,0,81,81,67,166.93913769721985,,,,,,,,,,,,,,,,,,,,,,,,,,,,,,,,,,,,,,,,,,,,,,,,,,,,,,,,,,,,,,,,,,,,,,,,,,,,,,,,,141.0,141.0,125.0,200.0,200.0,125.0,1.0,1.3,214,-271,480,-268,738,-263,166.924738407135,166.9247784614563,166.92743682861328,166.93913769721985,167.08978271484375,167.08978271484375,167.08978271484375,167.08978271484375,167.08978271484375,167.08978271484375,167.08978271484375,168.80724143981934,3,1.8602898120880127,None,,,,,,,,,,,,,,,,,,35,3,2025-02-19_11h25.58.410,comp,2024.2.4,63.79800284438766,2025-02-19 11h26.16.467368 -0500,
82,82,0,critical,wdh,35.0,2.1,upper,125.0,200.0,127.0,127.0,200.0,125.0,3,1.4676153659820557,None,,,,,0,0,0,0,0,82,82,9,168.82301378250122,,,,,,,,,,,,,,,,,,,,,,,,,,,,,,,,,,,,,,,,,,,,,,,,,,,,,,,,,,,,,,,,,,,,,,,,,,,,,,,,,125.0,200.0,127.0,127.0,200.0,125.0,2.1,2.11,-260,280,0,259,222,-261,168.80805826187134,168.80811285972595,168.81022787094116,168.82301378250122,168.97289967536926,168.97289967536926,168.97289967536926,168.97289967536926,168.97289967536926,168.97289967536926,168.97289967536926,170.30843234062195,3,1.4676153659820557,None,,,,,,,,,,,,,,,,,,35,3,2025-02-19_11h25.58.410,comp,2024.2.4,63.79800284438766,2025-02-19 11h26.16.467368 -0500,
83,83,0,filler_random,None,None,None,None,None,None,None,None,None,None,3,0.8357439041137695,None,,,,,0,0,0,0,0,83,83,142,170.32286143302917,,,,,,,,,,,,,,,,,,,,,,,,,,,,,,,,,,,,,,,,,,,,,,,,,,,,,,,,,,,,,,,,,,,,,,,,,,,,,,,,,105.6477505320785,74.22506120666178,104.81082938843142,125.9515602185627,160.07978054051745,159.58540413835556,2.2,2.22,-196,251,0,-253,239,-266,170.3093602657318,170.30939888954163,170.31158876419067,170.32286143302917,170.47288060188293,170.47288060188293,170.47288060188293,170.47288060188293,170.47288060188293,170.47288060188293,170.47288060188293,171.1737358570099,3,0.8357439041137695,None,,,,,,,,,,,,,,,,,,35,3,2025-02-19_11h25.58.410,comp,2024.2.4,63.79800284438766,2025-02-19 11h26.16.467368 -0500,
84,84,0,critical,hwd,20.0,1.0,lower,133.0,57.0,57.0,133.0,78.0,78.0,3,1.6018576622009277,None,,,,,0,0,0,0,0,84,84,102,171.1890037059784,,,,,,,,,,,,,,,,,,,,,,,,,,,,,,,,,,,,,,,,,,,,,,,,,,,,,,,,,,,,,,,,,,,,,,,,,,,,,,,,,133.0,57.0,57.0,133.0,78.0,78.0,1.0,1.3,289,-263,480,-272,682,-250,171.17454075813293,171.17458057403564,171.17711353302002,171.1890037059784,171.33918833732605,171.33918833732605,171.33918833732605,171.33918833732605,171.33918833732605,171.33918833732605,171.33918833732605,172.80827975273132,3,1.6018576622009277,None,,,,,,,,,,,,,,,,,,35,3,2025-02-19_11h25.58.410,comp,2024.2.4,63.79800284438766,2025-02-19 11h26.16.467368 -0500,
85,85,0,critical,hwd,20.0,3.0,upper,200.0,125.0,125.0,200.0,141.0,141.0,1,1.32753586769104,None,,,,,0,0,0,0,0,85,85,105,172.8238067626953,,,,,,,,,,,,,,,,,,,,,,,,,,,,,,,,,,,,,,,,,,,,,,,,,,,,,,,,,,,,,,,,,,,,,,,,,,,,,,,,,200.0,125.0,125.0,200.0,141.0,141.0,3.0,3.2,-258,-269,0,16,266,282,172.80929112434387,172.80934309959412,172.81202721595764,172.8238067626953,172.97326254844666,172.97326254844666,172.97326254844666,172.97326254844666,172.97326254844666,172.97326254844666,172.97326254844666,174.15757036209106,1,1.32753586769104,None,,,,,,,,,,,,,,,,,,35,3,2025-02-19_11h25.58.410,comp,2024.2.4,63.79800284438766,2025-02-19 11h26.16.467368 -0500,
86,86,0,filler_random,None,None,None,None,None,None,None,None,None,None,3,3.7056937217712402,None,,,,,0,0,0,0,0,86,86,147,174.17274856567383,,,,,,,,,,,,,,,,,,,,,,,,,,,,,,,,,,,,,,,,,,,,,,,,,,,,,,,,,,,,,,,,,,,,,,,,,,,,,,,,,191.55794874723782,168.36997922578638,175.22652764645292,191.83179585954218,199.06571049472703,186.75067675062894,2.1,2.12,-276,-256,0,-268,285,257,174.15845656394958,174.15849685668945,174.16061353683472,174.17274856567383,174.32289814949036,174.32289814949036,174.32289814949036,174.32289814949036,174.32289814949036,174.32289814949036,174.32289814949036,177.89148926734924,3,3.7056937217712402,None,,,,,,,,,,,,,,,,,,35,3,2025-02-19_11h25.58.410,comp,2024.2.4,63.79800284438766,2025-02-19 11h26.16.467368 -0500,
87,87,0,filler_square,None,None,None,None,None,None,None,None,None,None,1,0.9417734146118164,None,,,,,0,0,0,0,0,87,87,195,177.90576648712158,,,,,,,,,,,,,,,,,,,,,,,,,,,,,,,,,,,,,,,,,,,,,,,,,,,,,,,,,,,,,,,,,,,,,,,,,,,,,,,,,139.92678254748546,139.92678254748546,104.22360040462205,69.32890440060193,69.27625342877124,95.25768237872744,1.0,1.1,-681,268,-480,272,-302,287,177.89245986938477,177.89250111579895,177.89453983306885,177.90576648712158,178.05588936805725,178.05588936805725,178.05588936805725,178.05588936805725,178.05588936805725,178.05588936805725,178.05588936805725,178.85697317123413,1,0.9417734146118164,None,,,,,,,,,,,,,,,,,,35,3,2025-02-19_11h25.58.410,comp,2024.2.4,63.79800284438766,2025-02-19 11h26.16.467368 -0500,
88,88,0,critical,whd,35.0,2.1,upper,125.0,200.0,200.0,125.0,127.0,127.0,2,1.6787822246551514,None,,,,,0,0,0,0,0,88,88,13,178.8725552558899,,,,,,,,,,,,,,,,,,,,,,,,,,,,,,,,,,,,,,,,,,,,,,,,,,,,,,,,,,,,,,,,,,,,,,,,,,,,,,,,,125.0,200.0,200.0,125.0,127.0,127.0,2.1,2.12,-258,-286,0,-279,222,263,178.85772705078125,178.85776376724243,178.8599350452423,178.8725552558899,179.0227816104889,179.0227816104889,179.0227816104889,179.0227816104889,179.0227816104889,179.0227816104889,179.0227816104889,180.55720615386963,2,1.6787822246551514,None,,,,,,,,,,,,,,,,,,35,3,2025-02-19_11h25.58.410,comp,2024.2.4,63.79800284438766,2025-02-19 11h26.16.467368 -0500,
89,89,0,filler_random,None,None,None,None,None,None,None,None,None,None,1,1.0017096996307373,None,,,,,0,0,0,0,0,89,89,131,180.57276725769043,,,,,,,,,,,,,,,,,,,,,,,,,,,,,,,,,,,,,,,,,,,,,,,,,,,,,,,,,,,,,,,,,,,,,,,,,,,,,,,,,186.5402484182444,187.1464956563057,114.9172651182999,99.967689204961,156.91886850359856,147.16044461631446,4.0,4.2,-240,-1,0,-279,220,2,180.55808568000793,180.55812621116638,180.5602560043335,180.57276725769043,180.72276902198792,180.72276902198792,180.72276902198792,180.72276902198792,180.72276902198792,180.72276902198792,180.72276902198792,181.59046030044556,1,1.0017096996307373,None,,,,,,,,,,,,,,,,,,35,3,2025-02-19_11h25.58.410,comp,2024.2.4,63.79800284438766,2025-02-19 11h26.16.467368 -0500,
90,90,0,critical,whd,35.0,2.1,lower,57.0,133.0,133.0,57.0,70.0,70.0,2,3.9215030670166016,None,,,,,0,0,0,0,0,90,90,36,181.6056981086731,,,,,,,,,,,,,,,,,,,,,,,,,,,,,,,,,,,,,,,,,,,,,,,,,,,,,,,,,,,,,,,,,,,,,,,,,,,,,,,,,57.0,133.0,133.0,57.0,70.0,70.0,2.1,2.11,-191,260,0,283,160,-259,181.59127759933472,181.5913166999817,181.59372973442078,181.6056981086731,181.75578474998474,181.75578474998474,181.75578474998474,181.75578474998474,181.75578474998474,181.75578474998474,181.75578474998474,185.54020285606384,2,3.9215030670166016,None,,,,,,,,,,,,,,,,,,35,3,2025-02-19_11h25.58.410,comp,2024.2.4,63.79800284438766,2025-02-19 11h26.16.467368 -0500,
91,91,0,filler_random,None,None,None,None,None,None,None,None,None,None,3,1.7228126525878906,None,,,,,0,0,0,0,0,91,91,156,185.55562925338745,,,,,,,,,,,,,,,,,,,,,,,,,,,,,,,,,,,,,,,,,,,,,,,,,,,,,,,,,,,,,,,,,,,,,,,,,,,,,,,,,130.43120891039587,80.4275052374984,156.71629433256246,162.5918299590395,154.2414454620893,172.6669766348951,2.1,2.11,-218,268,0,276,264,-266,185.54109477996826,185.54113507270813,185.54354763031006,185.55562925338745,185.70657300949097,185.70657300949097,185.70657300949097,185.70657300949097,185.70657300949097,185.70657300949097,185.70657300949097,187.29109382629395,3,1.7228126525878906,None,,,,,,,,,,,,,,,,,,35,3,2025-02-19_11h25.58.410,comp,2024.2.4,63.79800284438766,2025-02-19 11h26.16.467368 -0500,
92,92,0,catch,None,None,None,None,None,None,None,None,None,None,1,0.8047614097595215,None,,,,,0,0,0,0,0,92,92,127,187.30583310127258,,,,,,,,,,,,,,,,,,,,,,,,,,,,,,,,,,,,,,,,,,,,,,,,,,,,,,,,,,,,,,,,,,,,,,,,,,,,,,,,,191,134,98,92,114,76,3.0,3.2,-209,-262,0,7,180,269,187.29213166236877,187.29217100143433,187.2943148612976,187.30583310127258,187.45637011528015,187.45637011528015,187.45637011528015,187.45637011528015,187.45637011528015,187.45637011528015,187.45637011528015,188.12483429908752,1,0.8047614097595215,None,,,,,,,,,,,,,,,,,,35,3,2025-02-19_11h25.58.410,comp,2024.2.4,63.79800284438766,2025-02-19 11h26.16.467368 -0500,
93,93,0,critical,wdh,20.0,3.0,lower,57.0,133.0,78.0,78.0,133.0,57.0,2,2.65083909034729,None,,,,,0,0,0,0,0,93,93,80,188.1397955417633,,,,,,,,,,,,,,,,,,,,,,,,,,,,,,,,,,,,,,,,,,,,,,,,,,,,,,,,,,,,,,,,,,,,,,,,,,,,,,,,,57.0,133.0,78.0,78.0,133.0,57.0,3.0,3.2,-202,-288,0,-9,164,259,188.1255989074707,188.125638961792,188.12792038917542,188.1397955417633,188.28909134864807,188.28909134864807,188.28909134864807,188.28909134864807,188.28909134864807,188.28909134864807,188.28909134864807,190.80686593055725,2,2.65083909034729,None,,,,,,,,,,,,,,,,,,35,3,2025-02-19_11h25.58.410,comp,2024.2.4,63.79800284438766,2025-02-19 11h26.16.467368 -0500,
94,94,0,filler_square,None,None,None,None,None,None,None,None,None,None,1,0.7146730422973633,None,,,,,0,0,0,0,0,94,94,209,190.82233357429504,,,,,,,,,,,,,,,,,,,,,,,,,,,,,,,,,,,,,,,,,,,,,,,,,,,,,,,,,,,,,,,,,,,,,,,,,,,,,,,,,139.37399254037848,139.37399254037848,87.56651645869009,65.13238085451403,60.07856517985699,94.33381312157456,2.2,2.22,-198,256,0,-272,176,-257,190.80783247947693,190.80787134170532,190.81045389175415,190.82233357429504,190.97247648239136,190.97247648239136,190.97247648239136,190.97247648239136,190.97247648239136,190.97247648239136,190.97247648239136,191.5404191017151,1,0.7146730422973633,None,,,,,,,,,,,,,,,,,,35,3,2025-02-19_11h25.58.410,comp,2024.2.4,63.79800284438766,2025-02-19 11h26.16.467368 -0500,
95,95,0,filler_random,None,None,None,None,None,None,None,None,None,None,1,1.0756714344024658,None,,,,,0,0,0,0,0,95,95,143,191.55580735206604,,,,,,,,,,,,,,,,,,,,,,,,,,,,,,,,,,,,,,,,,,,,,,,,,,,,,,,,,,,,,,,,,,,,,,,,,,,,,,,,,196.12578029091387,117.80989301877327,73.70068396156282,137.06150348248718,104.71154730927563,122.93148017121696,3.0,3.2,-223,-287,0,-10,226,267,191.54131889343262,191.54135823249817,191.5437777042389,191.55580735206604,191.70584559440613,191.70584559440613,191.70584559440613,191.70584559440613,191.70584559440613,191.70584559440613,191.70584559440613,192.6404082775116,1,1.0756714344024658,None,,,,,,,,,,,,,,,,,,35,3,2025-02-19_11h25.58.410,comp,2024.2.4,63.79800284438766,2025-02-19 11h26.16.467368 -0500,
96,96,0,critical,hwd,20.0,4.0,lower,133.0,57.0,57.0,133.0,78.0,78.0,2,1.4802086353302002,None,,,,,0,0,0,0,0,96,96,106,192.6559555530548,,,,,,,,,,,,,,,,,,,,,,,,,,,,,,,,,,,,,,,,,,,,,,,,,,,,,,,,,,,,,,,,,,,,,,,,,,,,,,,,,133.0,57.0,57.0,133.0,78.0,78.0,4.0,4.1,-191,-264,0,-14,202,-283,192.64118814468384,192.6412284374237,192.64361000061035,192.6559555530548,192.80569553375244,192.80569553375244,192.80569553375244,192.80569553375244,192.80569553375244,192.80569553375244,192.80569553375244,194.14038825035095,2,1.4802086353302002,None,,,,,,,,,,,,,,,,,,35,3,2025-02-19_11h25.58.410,comp,2024.2.4,63.79800284438766,2025-02-19 11h26.16.467368 -0500,
97,97,0,critical,dhw,35.0,2.1,upper,127.0,127.0,200.0,125.0,125.0,200.0,2,1.7225425243377686,None,,,,,0,0,0,0,0,97,97,25,194.15578079223633,,,,,,,,,,,,,,,,,,,,,,,,,,,,,,,,,,,,,,,,,,,,,,,,,,,,,,,,,,,,,,,,,,,,,,,,,,,,,,,,,127.0,127.0,200.0,125.0,125.0,200.0,2.1,2.11,-222,279,0,280,258,-284,194.14114999771118,194.14118909835815,194.14360642433167,194.15578079223633,194.305912733078,194.305912733078,194.305912733078,194.305912733078,194.305912733078,194.305912733078,194.305912733078,195.8912637233734,2,1.7225425243377686,None,,,,,,,,,,,,,,,,,,35,3,2025-02-19_11h25.58.410,comp,2024.2.4,63.79800284438766,2025-02-19 11h26.16.467368 -0500,
98,98,0,critical,whd,20.0,1.0,lower,57.0,133.0,133.0,57.0,78.0,78.0,1,1.5256052017211914,None,,,,,0,0,0,0,0,98,98,90,195.90564966201782,,,,,,,,,,,,,,,,,,,,,,,,,,,,,,,,,,,,,,,,,,,,,,,,,,,,,,,,,,,,,,,,,,,,,,,,,,,,,,,,,57.0,133.0,133.0,57.0,78.0,78.0,1.0,1.1,-671,252,-480,286,-316,276,195.89202165603638,195.89206194877625,195.8941969871521,195.90564966201782,196.0556981563568,196.0556981563568,196.0556981563568,196.0556981563568,196.0556981563568,196.0556981563568,196.0556981563568,197.44025945663452,1,1.5256052017211914,None,,,,,,,,,,,,,,,,,,35,3,2025-02-19_11h25.58.410,comp,2024.2.4,63.79800284438766,2025-02-19 11h26.16.467368 -0500,
99,99,0,critical,hwd,35.0,1.0,upper,200.0,125.0,125.0,200.0,127.0,127.0,2,1.375213861465454,None,,,,,0,0,0,0,0,99,99,97,197.45614790916443,,,,,,,,,,,,,,,,,,,,,,,,,,,,,,,,,,,,,,,,,,,,,,,,,,,,,,,,,,,,,,,,,,,,,,,,,,,,,,,,,200.0,125.0,125.0,200.0,127.0,127.0,1.0,1.1,-738,273,-480,262,-220,252,197.44103980064392,197.4410901069641,197.44320797920227,197.45614790916443,197.60589504241943,197.60589504241943,197.60589504241943,197.60589504241943,197.60589504241943,197.60589504241943,197.60589504241943,198.84040760993958,2,1.375213861465454,None,,,,,,,,,,,,,,,,,,35,3,2025-02-19_11h25.58.410,comp,2024.2.4,63.79800284438766,2025-02-19 11h26.16.467368 -0500,
100,100,0,critical,whd,20.0,2.1,upper,125.0,200.0,200.0,125.0,141.0,141.0,1,1.833564281463623,None,,,,,0,0,0,0,0,100,100,15,198.8558382987976,,,,,,,,,,,,,,,,,,,,,,,,,,,,,,,,,,,,,,,,,,,,,,,,,,,,,,,,,,,,,,,,,,,,,,,,,,,,,,,,,125.0,200.0,200.0,125.0,141.0,141.0,2.1,2.11,-258,265,0,265,229,-251,198.84120297431946,198.8412446975708,198.8437156677246,198.8558382987976,199.00592064857483,199.00592064857483,199.00592064857483,199.00592064857483,199.00592064857483,199.00592064857483,199.00592064857483,200.70684385299683,1,1.833564281463623,None,,,,,,,,,,,,,,,,,,35,3,2025-02-19_11h25.58.410,comp,2024.2.4,63.79800284438766,2025-02-19 11h26.16.467368 -0500,
101,101,0,filler_square,None,None,None,None,None,None,None,None,None,None,1,0.8135991096496582,None,,,,,0,0,0,0,0,101,101,186,200.72251176834106,,,,,,,,,,,,,,,,,,,,,,,,,,,,,,,,,,,,,,,,,,,,,,,,,,,,,,,,,,,,,,,,,,,,,,,,,,,,,,,,,157.55633555080664,157.55633555080664,109.19719400266548,100.04994621432178,113.9171159500246,101.76471976409815,4.0,4.1,-225,-281,0,-6,197,-268,200.70779085159302,200.70782899856567,200.70991492271423,200.72251176834106,200.8724319934845,200.8724319934845,200.8724319934845,200.8724319934845,200.8724319934845,200.8724319934845,200.8724319934845,201.54046201705933,1,0.8135991096496582,None,,,,,,,,,,,,,,,,,,35,3,2025-02-19_11h25.58.410,comp,2024.2.4,63.79800284438766,2025-02-19 11h26.16.467368 -0500,
102,102,0,critical,wdh,20.0,1.0,upper,125.0,200.0,141.0,141.0,200.0,125.0,1,1.0434761047363281,None,,,,,0,0,0,0,0,102,102,79,201.55582475662231,,,,,,,,,,,,,,,,,,,,,,,,,,,,,,,,,,,,,,,,,,,,,,,,,,,,,,,,,,,,,,,,,,,,,,,,,,,,,,,,,125.0,200.0,141.0,141.0,200.0,125.0,1.0,1.3,214,-277,480,-258,709,-282,201.5412678718567,201.54130840301514,201.54343962669373,201.55582475662231,201.70579385757446,201.70579385757446,201.70579385757446,201.70579385757446,201.70579385757446,201.70579385757446,201.70579385757446,202.6070945262909,1,1.0434761047363281,None,,,,,,,,,,,,,,,,,,35,3,2025-02-19_11h25.58.410,comp,2024.2.4,63.79800284438766,2025-02-19 11h26.16.467368 -0500,
103,103,0,critical,wdh,20.0,4.0,lower,57.0,133.0,78.0,78.0,133.0,57.0,2,2.471820592880249,None,,,,,0,0,0,0,0,103,103,82,202.6224503517151,,,,,,,,,,,,,,,,,,,,,,,,,,,,,,,,,,,,,,,,,,,,,,,,,,,,,,,,,,,,,,,,,,,,,,,,,,,,,,,,,57.0,133.0,78.0,78.0,133.0,57.0,4.0,4.1,-202,-281,0,19,164,-272,202.60785675048828,202.60789728164673,202.61013674736023,202.6224503517151,202.77236223220825,202.77236223220825,202.77236223220825,202.77236223220825,202.77236223220825,202.77236223220825,202.77236223220825,205.1068630218506,2,2.471820592880249,None,,,,,,,,,,,,,,,,,,35,3,2025-02-19_11h25.58.410,comp,2024.2.4,63.79800284438766,2025-02-19 11h26.16.467368 -0500,
104,104,0,critical,dwh,35.0,3.0,lower,70.0,70.0,57.0,133.0,133.0,57.0,3,2.1502933502197266,None,,,,,0,0,0,0,0,104,104,62,205.12220072746277,,,,,,,,,,,,,,,,,,,,,,,,,,,,,,,,,,,,,,,,,,,,,,,,,,,,,,,,,,,,,,,,,,,,,,,,,,,,,,,,,70.0,70.0,57.0,133.0,133.0,57.0,3.0,3.1,-198,259,0,-7,191,-290,205.10766911506653,205.1077082157135,205.11026740074158,205.12220072746277,205.2722568511963,205.2722568511963,205.2722568511963,205.2722568511963,205.2722568511963,205.2722568511963,205.2722568511963,207.29001879692078,3,2.1502933502197266,None,,,,,,,,,,,,,,,,,,35,3,2025-02-19_11h25.58.410,comp,2024.2.4,63.79800284438766,2025-02-19 11h26.16.467368 -0500,
105,105,0,filler_square,None,None,None,None,None,None,None,None,None,None,2,0.9256763458251953,None,,,,,0,0,0,0,0,105,105,192,207.30551719665527,,,,,,,,,,,,,,,,,,,,,,,,,,,,,,,,,,,,,,,,,,,,,,,,,,,,,,,,,,,,,,,,,,,,,,,,,,,,,,,,,186.73067315929853,186.73067315929853,158.9157868066447,157.32851899555143,93.53384500388906,129.12350124391241,2.2,2.21,-268,-275,0,253,239,265,207.29096364974976,207.2910032272339,207.29335403442383,207.30551719665527,207.4559724330902,207.4559724330902,207.4559724330902,207.4559724330902,207.4559724330902,207.4559724330902,207.4559724330902,208.2403953075409,2,0.9256763458251953,None,,,,,,,,,,,,,,,,,,35,3,2025-02-19_11h25.58.410,comp,2024.2.4,63.79800284438766,2025-02-19 11h26.16.467368 -0500,
106,106,0,critical,whd,20.0,2.1,lower,57.0,133.0,133.0,57.0,78.0,78.0,2,1.0492987632751465,None,,,,,0,0,0,0,0,106,106,38,208.25577306747437,,,,,,,,,,,,,,,,,,,,,,,,,,,,,,,,,,,,,,,,,,,,,,,,,,,,,,,,,,,,,,,,,,,,,,,,,,,,,,,,,57.0,133.0,133.0,57.0,78.0,78.0,2.1,2.12,-191,-267,0,-254,164,256,208.24118161201477,208.2412223815918,208.24368453025818,208.25577306747437,208.4056887626648,208.4056887626648,208.4056887626648,208.4056887626648,208.4056887626648,208.4056887626648,208.4056887626648,209.30682587623596,2,1.0492987632751465,None,,,,,,,,,,,,,,,,,,35,3,2025-02-19_11h25.58.410,comp,2024.2.4,63.79800284438766,2025-02-19 11h26.16.467368 -0500,
107,107,0,filler_random,None,None,None,None,None,None,None,None,None,None,2,2.1717255115509033,None,,,,,0,0,0,0,0,107,107,149,209.32248830795288,,,,,,,,,,,,,,,,,,,,,,,,,,,,,,,,,,,,,,,,,,,,,,,,,,,,,,,,,,,,,,,,,,,,,,,,,,,,,,,,,86.27676348946645,181.4799820443186,98.30615624927205,84.07524643483363,60.06547776159222,189.25569631770963,2.1,2.11,-229,264,0,256,233,-281,209.30777502059937,209.30781316757202,209.30999088287354,209.32248830795288,209.47230792045593,209.47230792045593,209.47230792045593,209.47230792045593,209.47230792045593,209.47230792045593,209.47230792045593,211.50699186325073,2,2.1717255115509033,None,,,,,,,,,,,,,,,,,,35,3,2025-02-19_11h25.58.410,comp,2024.2.4,63.79800284438766,2025-02-19 11h26.16.467368 -0500,
108,108,0,critical,whd,20.0,2.1,upper,125.0,200.0,200.0,125.0,141.0,141.0,2,0.9720263481140137,None,,,,,0,0,0,0,0,108,108,39,211.52217817306519,,,,,,,,,,,,,,,,,,,,,,,,,,,,,,,,,,,,,,,,,,,,,,,,,,,,,,,,,,,,,,,,,,,,,,,,,,,,,,,,,125.0,200.0,200.0,125.0,141.0,141.0,2.1,2.11,-258,276,0,276,229,-264,211.50779962539673,211.50784063339233,211.51014113426208,211.52217817306519,211.6724193096161,211.6724193096161,211.6724193096161,211.6724193096161,211.6724193096161,211.6724193096161,211.6724193096161,212.50695061683655,2,0.9720263481140137,None,,,,,,,,,,,,,,,,,,35,3,2025-02-19_11h25.58.410,comp,2024.2.4,63.79800284438766,2025-02-19 11h26.16.467368 -0500,
109,109,0,filler_random,None,None,None,None,None,None,None,None,None,None,1,1.1172208786010742,None,,,,,0,0,0,0,0,109,109,141,212.52217864990234,,,,,,,,,,,,,,,,,,,,,,,,,,,,,,,,,,,,,,,,,,,,,,,,,,,,,,,,,,,,,,,,,,,,,,,,,,,,,,,,,194.08116438510223,122.45042228710264,70.75314731404798,168.6240231385349,140.63901036788042,123.32909647739883,3.0,3.1,-242,268,0,-9,242,-283,212.507826089859,212.50786423683167,212.5101523399353,212.52217864990234,212.68911576271057,212.68911576271057,212.68911576271057,212.68911576271057,212.68911576271057,212.68911576271057,212.68911576271057,213.65689539909363,1,1.1172208786010742,None,,,,,,,,,,,,,,,,,,35,3,2025-02-19_11h25.58.410,comp,2024.2.4,63.79800284438766,2025-02-19 11h26.16.467368 -0500,
110,110,0,critical,wdh,35.0,2.1,upper,125.0,200.0,127.0,127.0,200.0,125.0,3,0.9430489540100098,None,,,,,0,0,0,0,0,110,110,33,213.67217683792114,,,,,,,,,,,,,,,,,,,,,,,,,,,,,,,,,,,,,,,,,,,,,,,,,,,,,,,,,,,,,,,,,,,,,,,,,,,,,,,,,125.0,200.0,127.0,127.0,200.0,125.0,2.1,2.12,-260,-283,0,-284,222,260,213.65769267082214,213.65773177146912,213.66030287742615,213.67217683792114,213.82282781600952,213.82282781600952,213.82282781600952,213.82282781600952,213.82282781600952,213.82282781600952,213.82282781600952,214.62369990348816,3,0.9430489540100098,None,,,,,,,,,,,,,,,,,,35,3,2025-02-19_11h25.58.410,comp,2024.2.4,63.79800284438766,2025-02-19 11h26.16.467368 -0500,
111,111,0,critical,hwd,35.0,2.1,lower,133.0,57.0,57.0,133.0,70.0,70.0,1,1.1999821662902832,None,,,,,0,0,0,0,0,111,111,16,214.63917517662048,,,,,,,,,,,,,,,,,,,,,,,,,,,,,,,,,,,,,,,,,,,,,,,,,,,,,,,,,,,,,,,,,,,,,,,,,,,,,,,,,133.0,57.0,57.0,133.0,70.0,70.0,2.1,2.11,-191,256,0,262,198,-269,214.62453365325928,214.6245744228363,214.62666869163513,214.63917517662048,214.78896594047546,214.78896594047546,214.78896594047546,214.78896594047546,214.78896594047546,214.78896594047546,214.78896594047546,215.85669803619385,1,1.1999821662902832,None,,,,,,,,,,,,,,,,,,35,3,2025-02-19_11h25.58.410,comp,2024.2.4,63.79800284438766,2025-02-19 11h26.16.467368 -0500,
112,112,0,filler_random,None,None,None,None,None,None,None,None,None,None,3,0.7592830657958984,None,,,,,0,0,0,0,0,112,112,154,215.87203431129456,,,,,,,,,,,,,,,,,,,,,,,,,,,,,,,,,,,,,,,,,,,,,,,,,,,,,,,,,,,,,,,,,,,,,,,,,,,,,,,,,58.00397220065784,189.54787193069896,100.38286255600747,163.22913604963475,146.6991882820303,187.98010672279918,2.1,2.12,-272,-285,0,-276,272,279,215.8576056957245,215.85764575004578,215.860200881958,215.87203431129456,216.02241897583008,216.02241897583008,216.02241897583008,216.02241897583008,216.02241897583008,216.02241897583008,216.02241897583008,216.6400604248047,3,0.7592830657958984,None,,,,,,,,,,,,,,,,,,35,3,2025-02-19_11h25.58.410,comp,2024.2.4,63.79800284438766,2025-02-19 11h26.16.467368 -0500,
113,113,0,filler_random,None,None,None,None,None,None,None,None,None,None,2,1.66505765914917,None,,,,,0,0,0,0,0,113,113,162,216.655699968338,,,,,,,,,,,,,,,,,,,,,,,,,,,,,,,,,,,,,,,,,,,,,,,,,,,,,,,,,,,,,,,,,,,,,,,,,,,,,,,,,167.78619857484978,145.72365372483364,121.55095867927717,121.20203316458502,192.44860567445758,137.23684117193932,2.2,2.22,-229,276,0,-256,225,-288,216.64098930358887,216.6410312652588,216.64339184761047,216.655699968338,216.80574584007263,216.80574584007263,216.80574584007263,216.80574584007263,216.80574584007263,216.80574584007263,216.80574584007263,218.3236267566681,2,1.66505765914917,None,,,,,,,,,,,,,,,,,,35,3,2025-02-19_11h25.58.410,comp,2024.2.4,63.79800284438766,2025-02-19 11h26.16.467368 -0500,
114,114,0,critical,whd,20.0,3.0,upper,125.0,200.0,200.0,125.0,141.0,141.0,2,1.2441039085388184,None,,,,,0,0,0,0,0,114,114,93,218.33906817436218,,,,,,,,,,,,,,,,,,,,,,,,,,,,,,,,,,,,,,,,,,,,,,,,,,,,,,,,,,,,,,,,,,,,,,,,,,,,,,,,,125.0,200.0,200.0,125.0,141.0,141.0,3.0,3.2,-258,-283,0,-17,229,257,218.32440042495728,218.32444024085999,218.3268802165985,218.33906817436218,218.4890501499176,218.4890501499176,218.4890501499176,218.4890501499176,218.4890501499176,218.4890501499176,218.4890501499176,219.59036445617676,2,1.2441039085388184,None,,,,,,,,,,,,,,,,,,35,3,2025-02-19_11h25.58.410,comp,2024.2.4,63.79800284438766,2025-02-19 11h26.16.467368 -0500,
115,115,0,filler_random,None,None,None,None,None,None,None,None,None,None,3,0.8253827095031738,None,,,,,0,0,0,0,0,115,115,165,219.60572981834412,,,,,,,,,,,,,,,,,,,,,,,,,,,,,,,,,,,,,,,,,,,,,,,,,,,,,,,,,,,,,,,,,,,,,,,,,,,,,,,,,96.74426882021325,95.34785066652802,169.12739259954847,150.59145480443206,199.45257832104522,193.85665581460788,4.0,4.2,-219,-19,0,-265,268,17,219.59127116203308,219.5913121700287,219.5935161113739,219.60572981834412,219.7562153339386,219.7562153339386,219.7562153339386,219.7562153339386,219.7562153339386,219.7562153339386,219.7562153339386,220.44027948379517,3,0.8253827095031738,None,,,,,,,,,,,,,,,,,,35,3,2025-02-19_11h25.58.410,comp,2024.2.4,63.79800284438766,2025-02-19 11h26.16.467368 -0500,
116,116,0,filler_square,None,None,None,None,None,None,None,None,None,None,3,1.0545902252197266,None,,,,,0,0,0,0,0,116,116,177,220.45571970939636,,,,,,,,,,,,,,,,,,,,,,,,,,,,,,,,,,,,,,,,,,,,,,,,,,,,,,,,,,,,,,,,,,,,,,,,,,,,,,,,,71.35015657594278,64.07492492188044,81.9549691649554,88.30848766683557,107.38731740594821,107.38731740594821,2.1,2.12,-172,-255,0,-283,194,253,220.44123101234436,220.44127249717712,220.44340348243713,220.45571970939636,220.60569739341736,220.60569739341736,220.60569739341736,220.60569739341736,220.60569739341736,220.60569739341736,220.60569739341736,221.52329564094543,3,1.0545902252197266,None,,,,,,,,,,,,,,,,,,35,3,2025-02-19_11h25.58.410,comp,2024.2.4,63.79800284438766,2025-02-19 11h26.16.467368 -0500,
117,117,0,critical,wdh,20.0,3.0,upper,125.0,200.0,141.0,141.0,200.0,125.0,3,1.484109878540039,None,,,,,0,0,0,0,0,117,117,81,221.53871417045593,,,,,,,,,,,,,,,,,,,,,,,,,,,,,,,,,,,,,,,,,,,,,,,,,,,,,,,,,,,,,,,,,,,,,,,,,,,,,,,,,125.0,200.0,141.0,141.0,200.0,125.0,3.0,3.2,-266,-280,0,-4,229,257,221.52405452728271,221.5241096019745,221.5265064239502,221.53871417045593,221.6891312599182,221.6891312599182,221.6891312599182,221.6891312599182,221.6891312599182,221.6891312599182,221.6891312599182,223.0401692390442,3,1.484109878540039,None,,,,,,,,,,,,,,,,,,35,3,2025-02-19_11h25.58.410,comp,2024.2.4,63.79800284438766,2025-02-19 11h26.16.467368 -0500,
118,118,0,critical,hwd,20.0,2.1,upper,200.0,125.0,125.0,200.0,141.0,141.0,1,1.3190093040466309,None,,,,,0,0,0,0,0,118,118,19,223.0554187297821,,,,,,,,,,,,,,,,,,,,,,,,,,,,,,,,,,,,,,,,,,,,,,,,,,,,,,,,,,,,,,,,,,,,,,,,,,,,,,,,,200.0,125.0,125.0,200.0,141.0,141.0,2.1,2.12,-258,-266,0,-254,266,258,223.04094076156616,223.04097890853882,223.043044090271,223.0554187297821,223.2056987285614,223.2056987285614,223.2056987285614,223.2056987285614,223.2056987285614,223.2056987285614,223.2056987285614,224.3901767730713,1,1.3190093040466309,None,,,,,,,,,,,,,,,,,,35,3,2025-02-19_11h25.58.410,comp,2024.2.4,63.79800284438766,2025-02-19 11h26.16.467368 -0500,
119,119,0,critical,whd,20.0,4.0,lower,57.0,133.0,133.0,57.0,78.0,78.0,1,2.0009655952453613,None,,,,,0,0,0,0,0,119,119,94,224.40536093711853,,,,,,,,,,,,,,,,,,,,,,,,,,,,,,,,,,,,,,,,,,,,,,,,,,,,,,,,,,,,,,,,,,,,,,,,,,,,,,,,,57.0,133.0,133.0,57.0,78.0,78.0,4.0,4.1,-191,-259,0,7,164,-285,224.39090991020203,224.3909468650818,224.39296078681946,224.40536093711853,224.55561804771423,224.55561804771423,224.55561804771423,224.55561804771423,224.55561804771423,224.55561804771423,224.55561804771423,226.4232861995697,1,2.0009655952453613,None,,,,,,,,,,,,,,,,,,35,3,2025-02-19_11h25.58.410,comp,2024.2.4,63.79800284438766,2025-02-19 11h26.16.467368 -0500,
120,120,0,critical,hwd,20.0,2.1,lower,133.0,57.0,57.0,133.0,78.0,78.0,1,1.4173948764801025,None,,,,,0,0,0,0,0,120,120,18,226.4386851787567,,,,,,,,,,,,,,,,,,,,,,,,,,,,,,,,,,,,,,,,,,,,,,,,,,,,,,,,,,,,,,,,,,,,,,,,,,,,,,,,,133.0,57.0,57.0,133.0,78.0,78.0,2.1,2.12,-191,-262,0,-275,202,262,226.42410016059875,226.42414116859436,226.42653799057007,226.4386851787567,226.58898067474365,226.58898067474365,226.58898067474365,226.58898067474365,226.58898067474365,226.58898067474365,226.58898067474365,227.8733274936676,1,1.4173948764801025,None,,,,,,,,,,,,,,,,,,35,3,2025-02-19_11h25.58.410,comp,2024.2.4,63.79800284438766,2025-02-19 11h26.16.467368 -0500,
121,121,0,filler_random,None,None,None,None,None,None,None,None,None,None,2,0.9582638740539551,None,,,,,0,0,0,0,0,121,121,167,227.88873958587646,,,,,,,,,,,,,,,,,,,,,,,,,,,,,,,,,,,,,,,,,,,,,,,,,,,,,,,,,,,,,,,,,,,,,,,,,,,,,,,,,140.46858766622813,63.66031656144715,191.85189376446658,149.04601077142325,92.67143641776971,65.77114253973028,2.2,2.22,-202,263,0,-264,203,-278,227.8742060661316,227.87424659729004,227.87663102149963,227.88873958587646,228.03903818130493,228.03903818130493,228.03903818130493,228.03903818130493,228.03903818130493,228.03903818130493,228.03903818130493,228.85664057731628,2,0.9582638740539551,None,,,,,,,,,,,,,,,,,,35,3,2025-02-19_11h25.58.410,comp,2024.2.4,63.79800284438766,2025-02-19 11h26.16.467368 -0500,
122,122,0,filler_random,None,None,None,None,None,None,None,None,None,None,1,1.117894172668457,None,,,,,0,0,0,0,0,122,122,136,228.8722653388977,,,,,,,,,,,,,,,,,,,,,,,,,,,,,,,,,,,,,,,,,,,,,,,,,,,,,,,,,,,,,,,,,,,,,,,,,,,,,,,,,185.28704851217424,138.78397430279844,180.45110256675912,124.38036488606853,113.64253170103393,122.52198377226634,2.1,2.11,-228,283,0,265,219,-252,228.85757756233215,228.85761785507202,228.86042165756226,228.8722653388977,229.02229833602905,229.02229833602905,229.02229833602905,229.02229833602905,229.02229833602905,229.02229833602905,229.02229833602905,230.0067150592804,1,1.117894172668457,None,,,,,,,,,,,,,,,,,,35,3,2025-02-19_11h25.58.410,comp,2024.2.4,63.79800284438766,2025-02-19 11h26.16.467368 -0500,
123,123,0,critical,dwh,20.0,3.0,lower,78.0,78.0,57.0,133.0,133.0,57.0,3,1.5290024280548096,None,,,,,0,0,0,0,0,123,123,68,230.02196621894836,,,,,,,,,,,,,,,,,,,,,,,,,,,,,,,,,,,,,,,,,,,,,,,,,,,,,,,,,,,,,,,,,,,,,,,,,,,,,,,,,78.0,78.0,57.0,133.0,133.0,57.0,3.0,3.2,-202,-264,0,19,191,288,230.00751090049744,230.00755071640015,230.0100908279419,230.02196621894836,230.17228770256042,230.17228770256042,230.17228770256042,230.17228770256042,230.17228770256042,230.17228770256042,230.17228770256042,231.55657577514648,3,1.5290024280548096,None,,,,,,,,,,,,,,,,,,35,3,2025-02-19_11h25.58.410,comp,2024.2.4,63.79800284438766,2025-02-19 11h26.16.467368 -0500,
124,124,0,critical,hdw,35.0,3.0,upper,200.0,125.0,127.0,127.0,125.0,200.0,3,1.1789360046386719,None,,,,,0,0,0,0,0,124,124,111,231.57219195365906,,,,,,,,,,,,,,,,,,,,,,,,,,,,,,,,,,,,,,,,,,,,,,,,,,,,,,,,,,,,,,,,,,,,,,,,,,,,,,,,,200.0,125.0,127.0,127.0,125.0,200.0,3.0,3.1,-222,288,0,-20,260,-265,231.55740475654602,231.55744409561157,231.56027269363403,231.57219195365906,231.72238945960999,231.72238945960999,231.72238945960999,231.72238945960999,231.72238945960999,231.72238945960999,231.72238945960999,232.75695204734802,3,1.1789360046386719,None,,,,,,,,,,,,,,,,,,35,3,2025-02-19_11h25.58.410,comp,2024.2.4,63.79800284438766,2025-02-19 11h26.16.467368 -0500,
125,125,0,filler_square,None,None,None,None,None,None,None,None,None,None,3,1.05027174949646,None,,,,,0,0,0,0,0,125,125,178,232.7723684310913,,,,,,,,,,,,,,,,,,,,,,,,,,,,,,,,,,,,,,,,,,,,,,,,,,,,,,,,,,,,,,,,,,,,,,,,,,,,,,,,,87.378508785223,77.62615565052761,74.54379274650843,60.248727373765256,93.45391388531675,93.45391388531675,4.0,4.1,-165,-261,0,11,173,-267,232.75790452957153,232.75794649124146,232.7605266571045,232.7723684310913,232.92213320732117,232.92213320732117,232.92213320732117,232.92213320732117,232.92213320732117,232.92213320732117,232.92213320732117,233.83980131149292,3,1.05027174949646,None,,,,,,,,,,,,,,,,,,35,3,2025-02-19_11h25.58.410,comp,2024.2.4,63.79800284438766,2025-02-19 11h26.16.467368 -0500,
126,126,0,filler_square,None,None,None,None,None,None,None,None,None,None,2,1.0226972103118896,None,,,,,0,0,0,0,0,126,126,200,233.85530638694763,,,,,,,,,,,,,,,,,,,,,,,,,,,,,,,,,,,,,,,,,,,,,,,,,,,,,,,,,,,,,,,,,,,,,,,,,,,,,,,,,109.75318521030582,137.50831731131504,137.99139515196404,137.99139515196404,81.42063099787678,86.3393749315432,2.2,2.22,-234,262,0,-255,208,-289,233.84076309204102,233.84080171585083,233.84349989891052,233.85530638694763,234.00555109977722,234.00555109977722,234.00555109977722,234.00555109977722,234.00555109977722,234.00555109977722,234.00555109977722,234.89054107666016,2,1.0226972103118896,None,,,,,,,,,,,,,,,,,,35,3,2025-02-19_11h25.58.410,comp,2024.2.4,63.79800284438766,2025-02-19 11h26.16.467368 -0500,
127,127,0,filler_random,None,None,None,None,None,None,None,None,None,None,2,0.9505517482757568,None,,,,,0,0,0,0,0,127,127,158,234.90533781051636,,,,,,,,,,,,,,,,,,,,,,,,,,,,,,,,,,,,,,,,,,,,,,,,,,,,,,,,,,,,,,,,,,,,,,,,,,,,,,,,,66.77402637053605,132.33414942941096,196.57965553239697,141.0157989607946,109.38824483354998,141.94923510459125,4.0,4.2,-233,1,0,-261,237,-5,234.89143681526184,234.8914773464203,234.89387893676758,234.90533781051636,235.05564212799072,235.05564212799072,235.05564212799072,235.05564212799072,235.05564212799072,235.05564212799072,235.05564212799072,235.87340879440308,2,0.9505517482757568,None,,,,,,,,,,,,,,,,,,35,3,2025-02-19_11h25.58.410,comp,2024.2.4,63.79800284438766,2025-02-19 11h26.16.467368 -0500,
128,128,0,critical,hwd,35.0,3.0,lower,133.0,57.0,57.0,133.0,70.0,70.0,2,1.238131046295166,None,,,,,0,0,0,0,0,128,128,98,235.88863945007324,,,,,,,,,,,,,,,,,,,,,,,,,,,,,,,,,,,,,,,,,,,,,,,,,,,,,,,,,,,,,,,,,,,,,,,,,,,,,,,,,133.0,57.0,57.0,133.0,70.0,70.0,3.0,3.1,-191,288,0,14,198,-290,235.87421345710754,235.87425470352173,235.87665581703186,235.88863945007324,236.03886699676514,236.03886699676514,236.03886699676514,236.03886699676514,236.03886699676514,236.03886699676514,236.03886699676514,237.13983297348022,2,1.238131046295166,None,,,,,,,,,,,,,,,,,,35,3,2025-02-19_11h25.58.410,comp,2024.2.4,63.79800284438766,2025-02-19 11h26.16.467368 -0500,
129,129,0,critical,hwd,35.0,1.0,lower,133.0,57.0,57.0,133.0,70.0,70.0,1,1.2758722305297852,None,,,,,0,0,0,0,0,129,129,96,237.155264377594,,,,,,,,,,,,,,,,,,,,,,,,,,,,,,,,,,,,,,,,,,,,,,,,,,,,,,,,,,,,,,,,,,,,,,,,,,,,,,,,,133.0,57.0,57.0,133.0,70.0,70.0,1.0,1.3,289,-276,480,-274,678,-269,237.14063119888306,237.1406695842743,237.143248796463,237.155264377594,237.30551075935364,237.30551075935364,237.30551075935364,237.30551075935364,237.30551075935364,237.30551075935364,237.30551075935364,238.4398066997528,1,1.2758722305297852,None,,,,,,,,,,,,,,,,,,35,3,2025-02-19_11h25.58.410,comp,2024.2.4,63.79800284438766,2025-02-19 11h26.16.467368 -0500,
130,130,0,critical,whd,20.0,2.1,lower,57.0,133.0,133.0,57.0,78.0,78.0,2,1.0867540836334229,None,,,,,0,0,0,0,0,130,130,14,238.45545363426208,,,,,,,,,,,,,,,,,,,,,,,,,,,,,,,,,,,,,,,,,,,,,,,,,,,,,,,,,,,,,,,,,,,,,,,,,,,,,,,,,57.0,133.0,133.0,57.0,78.0,78.0,2.1,2.12,-191,-273,0,-251,164,275,238.44066786766052,238.4407093524933,238.44350814819336,238.45545363426208,238.60576605796814,238.60576605796814,238.60576605796814,238.60576605796814,238.60576605796814,238.60576605796814,238.60576605796814,239.55644845962524,2,1.0867540836334229,None,,,,,,,,,,,,,,,,,,35,3,2025-02-19_11h25.58.410,comp,2024.2.4,63.79800284438766,2025-02-19 11h26.16.467368 -0500,
131,131,0,catch,None,None,None,None,None,None,None,None,None,None,2,0.8749167919158936,None,,,,,0,0,0,0,0,131,131,121,239.57200646400452,,,,,,,,,,,,,,,,,,,,,,,,,,,,,,,,,,,,,,,,,,,,,,,,,,,,,,,,,,,,,,,,,,,,,,,,,,,,,,,,,129,61,132,193,111,79,4.0,4.2,-223,-10,0,-267,232,10,239.55747818946838,239.55751729011536,239.5599980354309,239.57200646400452,239.72224259376526,239.72224259376526,239.72224259376526,239.72224259376526,239.72224259376526,239.72224259376526,239.72224259376526,240.45655250549316,2,0.8749167919158936,None,,,,,,,,,,,,,,,,,,35,3,2025-02-19_11h25.58.410,comp,2024.2.4,63.79800284438766,2025-02-19 11h26.16.467368 -0500,
132,132,0,filler_square,None,None,None,None,None,None,None,None,None,None,3,0.7426867485046387,None,,,,,0,0,0,0,0,132,132,201,240.47219586372375,,,,,,,,,,,,,,,,,,,,,,,,,,,,,,,,,,,,,,,,,,,,,,,,,,,,,,,,,,,,,,,,,,,,,,,,,,,,,,,,,71.49845041459182,88.73789609945644,81.88256858744087,65.36524900634826,159.16745137152088,159.16745137152088,1.0,1.1,-653,281,-480,267,-272,274,240.45754098892212,240.45758295059204,240.4602496623993,240.47219586372375,240.6225814819336,240.6225814819336,240.6225814819336,240.6225814819336,240.6225814819336,240.6225814819336,240.6225814819336,241.2232780456543,3,0.7426867485046387,None,,,,,,,,,,,,,,,,,,35,3,2025-02-19_11h25.58.410,comp,2024.2.4,63.79800284438766,2025-02-19 11h26.16.467368 -0500,
133,133,0,filler_square,None,None,None,None,None,None,None,None,None,None,1,1.2659168243408203,None,,,,,0,0,0,0,0,133,133,202,241.23884558677673,,,,,,,,,,,,,,,,,,,,,,,,,,,,,,,,,,,,,,,,,,,,,,,,,,,,,,,,,,,,,,,,,,,,,,,,,,,,,,,,,148.707436324796,148.707436324796,69.34401726117167,115.68697343921995,114.87700448783461,102.54455611114525,2.2,2.21,-228,-284,0,266,205,262,241.22423458099365,241.22427654266357,241.22670316696167,241.23884558677673,241.3888964653015,241.3888964653015,241.3888964653015,241.3888964653015,241.3888964653015,241.3888964653015,241.3888964653015,242.5232126712799,1,1.2659168243408203,None,,,,,,,,,,,,,,,,,,35,3,2025-02-19_11h25.58.410,comp,2024.2.4,63.79800284438766,2025-02-19 11h26.16.467368 -0500,
134,134,0,filler_square,None,None,None,None,None,None,None,None,None,None,3,1.3971383571624756,None,,,,,0,0,0,0,0,134,134,170,242.53864121437073,,,,,,,,,,,,,,,,,,,,,,,,,,,,,,,,,,,,,,,,,,,,,,,,,,,,,,,,,,,,,,,,,,,,,,,,,,,,,,,,,66.78080201613744,66.30706146845962,69.17705517762212,62.7197067532819,91.31555896624201,91.31555896624201,2.2,2.22,-161,287,0,-266,173,-264,242.5241620540619,242.52420210838318,242.52658867835999,242.53864121437073,242.68869066238403,242.68869066238403,242.68869066238403,242.68869066238403,242.68869066238403,242.68869066238403,242.68869066238403,243.9399893283844,3,1.3971383571624756,None,,,,,,,,,,,,,,,,,,35,3,2025-02-19_11h25.58.410,comp,2024.2.4,63.79800284438766,2025-02-19 11h26.16.467368 -0500,
135,135,0,filler_random,None,None,None,None,None,None,None,None,None,None,3,1.0674645900726318,None,,,,,0,0,0,0,0,135,135,159,243.95544481277466,,,,,,,,,,,,,,,,,,,,,,,,,,,,,,,,,,,,,,,,,,,,,,,,,,,,,,,,,,,,,,,,,,,,,,,,,,,,,,,,,116.22058430570274,157.09458894317967,147.54478938791783,149.86299775585636,189.29784744061308,136.63922400668616,2.2,2.22,-249,276,0,-269,239,-275,243.94087767601013,243.9409167766571,243.9433786869049,243.95544481277466,244.1056923866272,244.1056923866272,244.1056923866272,244.1056923866272,244.1056923866272,244.1056923866272,244.1056923866272,245.0400583744049,3,1.0674645900726318,None,,,,,,,,,,,,,,,,,,35,3,2025-02-19_11h25.58.410,comp,2024.2.4,63.79800284438766,2025-02-19 11h26.16.467368 -0500,
136,136,0,filler_square,None,None,None,None,None,None,None,None,None,None,1,1.0805633068084717,None,,,,,0,0,0,0,0,136,136,191,245.0554347038269,,,,,,,,,,,,,,,,,,,,,,,,,,,,,,,,,,,,,,,,,,,,,,,,,,,,,,,,,,,,,,,,,,,,,,,,,,,,,,,,,188.93590022074477,188.93590022074477,142.38810995907113,156.54641461996394,64.1993421098712,90.33672133393478,2.2,2.22,-269,281,0,-275,219,-260,245.04102444648743,245.04106497764587,245.04438853263855,245.0554347038269,245.20558309555054,245.20558309555054,245.20558309555054,245.20558309555054,245.20558309555054,245.20558309555054,245.20558309555054,246.14023160934448,1,1.0805633068084717,None,,,,,,,,,,,,,,,,,,35,3,2025-02-19_11h25.58.410,comp,2024.2.4,63.79800284438766,2025-02-19 11h26.16.467368 -0500,
137,137,0,catch,None,None,None,None,None,None,None,None,None,None,1,1.1223924160003662,None,,,,,0,0,0,0,0,137,137,123,246.15556120872498,,,,,,,,,,,,,,,,,,,,,,,,,,,,,,,,,,,,,,,,,,,,,,,,,,,,,,,,,,,,,,,,,,,,,,,,,,,,,,,,,177,148,103,87,73,117,3.0,3.1,-214,272,0,-15,198,-251,246.14129972457886,246.14134001731873,246.14345622062683,246.15556120872498,246.30538034439087,246.30538034439087,246.30538034439087,246.30538034439087,246.30538034439087,246.30538034439087,246.30538034439087,247.29018354415894,1,1.1223924160003662,None,,,,,,,,,,,,,,,,,,35,3,2025-02-19_11h25.58.410,comp,2024.2.4,63.79800284438766,2025-02-19 11h26.16.467368 -0500,
138,138,0,filler_square,None,None,None,None,None,None,None,None,None,None,2,1.3173816204071045,None,,,,,0,0,0,0,0,138,138,172,247.3052248954773,,,,,,,,,,,,,,,,,,,,,,,,,,,,,,,,,,,,,,,,,,,,,,,,,,,,,,,,,,,,,,,,,,,,,,,,,,,,,,,,,123.98272845482339,123.98272845482339,86.04663760445177,112.91493332579617,90.31511183630869,96.68045386319943,3.0,3.1,-214,262,0,19,201,-252,247.29111742973328,247.2911560535431,247.2932629585266,247.3052248954773,247.45548105239868,247.45548105239868,247.45548105239868,247.45548105239868,247.45548105239868,247.45548105239868,247.45548105239868,248.63987731933594,2,1.3173816204071045,None,,,,,,,,,,,,,,,,,,35,3,2025-02-19_11h25.58.410,comp,2024.2.4,63.79800284438766,2025-02-19 11h26.16.467368 -0500,
139,139,0,catch,None,None,None,None,None,None,None,None,None,None,1,0.9594001770019531,None,,,,,0,0,0,0,0,139,139,120,248.65537357330322,,,,,,,,,,,,,,,,,,,,,,,,,,,,,,,,,,,,,,,,,,,,,,,,,,,,,,,,,,,,,,,,,,,,,,,,,,,,,,,,,152,173,95,95,65,125,1.0,1.3,250,-285,480,-258,686,-280,248.64091515541077,248.64095497131348,248.64308643341064,248.65537357330322,248.8054542541504,248.8054542541504,248.8054542541504,248.8054542541504,248.8054542541504,248.8054542541504,248.8054542541504,249.62323904037476,1,0.9594001770019531,None,,,,,,,,,,,,,,,,,,35,3,2025-02-19_11h25.58.410,comp,2024.2.4,63.79800284438766,2025-02-19 11h26.16.467368 -0500,
