thisN,thisTrialN,thisRepN,effect,order,distance,config,diag,h_1,w_1,h_2,w_2,h_3,w_3,rect_choice.keys,rect_choice.rt,rect_choice.duration,instructions_loop.thisRepN,instructions_loop.thisTrialN,instructions_loop.thisN,instructions_loop.thisIndex,blocks.thisRepN,blocks.thisTrialN,blocks.thisN,blocks.thisIndex,trials.thisRepN,trials.thisTrialN,trials.thisN,trials.thisIndex,thisRow.t,notes,consent.started,agree_button.started,decline_button.started,consent_img.started,mouse.started,consent.stopped,agree_button.numClicks,agree_button.timesOn,agree_button.timesOff,decline_button.numClicks,decline_button.timesOn,decline_button.timesOff,mouse.x,mouse.y,mouse.leftButton,mouse.midButton,mouse.rightButton,mouse.time,mouse.clicked_name,exp_params.started,exp_params.stopped,welcome.started,welcome_text.started,welcome.stopped,instructions_1.started,instructions_1_text_1.started,instructions_1_text_2.started,key_resp.started,instructions_1.stopped,instructions_loop.key_resp.keys,instructions_loop.key_resp.rt,instructions_loop.key_resp.duration,instructions_2.started,instructions_2_text_1.started,instructions_2_text_2.started,key_resp_2.started,instructions_2.stopped,instructions_loop.key_resp_2.keys,instructions_loop.key_resp_2.rt,instructions_loop.key_resp_2.duration,instructions_3.started,instructions_3_text_1.started,r1_instr3.started,r2_instr3.started,r3_instr3.started,r1_instr3_label.started,r2_instr3_label.started,r3_instr3_label.started,instructions_3_text_3.started,instructions_3_text_4.started,key_resp_3.started,instructions_3.stopped,instructions_loop.key_resp_3.keys,instructions_loop.key_resp_3.rt,instructions_loop.key_resp_3.duration,instructions_4.started,instructions_4_text_1.started,instructions_4_text_3.started,instructions_4_text_2.started,key_resp_4.started,instructions_4.stopped,instructions_loop.key_resp_4.keys,instructions_loop.key_resp_4.rt,instructions_loop.key_resp_4.duration,instructions_5.started,instructions_5_text_1.started,instructions_5_text_2.started,key_resp_5.started,instructions_5.stopped,instructions_loop.key_resp_5.keys,instructions_loop.key_resp_5.rt,instructions_loop.key_resp_5.duration,start_exp.started,start_exp_text.started,key_resp_6.started,start_exp.stopped,key_resp_6.keys,key_resp_6.rt,key_resp_6.duration,h_1_tmp,w_1_tmp,h_2_tmp,w_2_tmp,h_3_tmp,w_3_tmp,config_tmp,config_tmp_1,r_1_x,r_1_y,r_2_x,r_2_y,r_3_x,r_3_y,pre_trial.started,pre_trial.stopped,choice_trial.started,rect_choice.started,r_1.started,r_2.started,r_3.started,r_1_label.started,r_2_label.started,r_3_label.started,prompt.started,choice_trial.stopped,trials.rect_choice.keys,trials.rect_choice.rt,trials.rect_choice.duration,end_block.started,end_block_text.started,end_block.stopped,end.started,end_text.started,key_resp_7.started,end.stopped,key_resp_7.keys,key_resp_7.rt,key_resp_7.duration,debriefing.started,debrief_form.started,end_debrief.started,debriefing.stopped,end_debrief.keys,end_debrief.rt,end_debrief.duration,participant,computer,date,expName,psychopyVersion,frameRate,expStart,
,,,,,,,,,,,,,,,,,,,,,,,,,,,,,,,0.015272855758666992,0.08742332458496094,0.08742332458496094,0.08742332458496094,0.015076398849487305,4.3704235553741455,1,[4.281092882156372],[4.281112432479858],0,,,[-60.0],[-497.0],[1],[0],[0],[4.340063810348511],['agree_button'],,,,,,,,,,,,,,,,,,,,,,,,,,,,,,,,,,,,,,,,,,,,,,,,,,,,,,,,,,,,,,,,,,,,,,,,,,,,,,,,,,,,,,,,,,,,,,,,,,,,,,,,,,,36,6,2025-02-19_11h25.54.398,comp,2024.2.4,None,2025-02-19 11h26.44.822211 -0500,
,,,,,,,,,,,,,,,,,,,,,,,,,,,,,,,,,,,,,,,,,,,,,,,,,,4.37085485458374,4.370909929275513,,,,,,,,,,,,,,,,,,,,,,,,,,,,,,,,,,,,,,,,,,,,,,,,,,,,,,,,,,,,,,,,,,,,,,,,,,,,,,,,,,,,,,,,,,,,,,,,,,,,,,,,,36,6,2025-02-19_11h25.54.398,comp,2024.2.4,None,2025-02-19 11h26.44.822211 -0500,
,,,,,,,,,,,,,,,,,,,,,,,,,,,,,,,,,,,,,,,,,,,,,,,,,,,,4.370945453643799,4.384435415267944,6.374864339828491,,,,,,,,,,,,,,,,,,,,,,,,,,,,,,,,,,,,,,,,,,,,,,,,,,,,,,,,,,,,,,,,,,,,,,,,,,,,,,,,,,,,,,,,,,,,,,,,,,,,,,36,6,2025-02-19_11h25.54.398,comp,2024.2.4,None,2025-02-19 11h26.44.822211 -0500,
0,0,0,,,,,,,,,,,,,,,0,0,0,0,,,,,,,,,6.3923869132995605,,,,,,,,,,,,,,,,,,,,,,,,,,6.375722885131836,6.3923869132995605,6.3923869132995605,7.872985124588013,10.447292566299438,space,2.555046796798706,None,10.447436332702637,10.465296030044556,10.465296030044556,11.9596529006958,15.929724931716919,space,3.956498622894287,None,15.929876327514648,15.969511985778809,15.969511985778809,15.969511985778809,15.969511985778809,15.969511985778809,15.969511985778809,15.969511985778809,15.969511985778809,15.969511985778809,17.433568477630615,25.211987733840942,space,7.771015405654907,None,25.212148427963257,25.2341628074646,25.2341628074646,25.2341628074646,26.714679956436157,30.883705139160156,space,4.161876440048218,None,30.883858919143677,30.900240182876587,30.900240182876587,32.38285732269287,34.68591570854187,space,2.2851877212524414,None,34.68611264228821,34.69777059555054,34.69777059555054,36.91892886161804,space,2.2184860706329346,None,,,,,,,,,,,,,,,,,,,,,,,,,,,,,,,,,,,,,,,,,,,,,,,36,6,2025-02-19_11h25.54.398,comp,2024.2.4,None,2025-02-19 11h26.44.822211 -0500,
0,0,0,critical,hwd,20.0,1.0,upper,200.0,125.0,125.0,200.0,141.0,141.0,2,5.19667387008667,None,,,,,0,0,0,0,0,0,0,103,37.12750434875488,,,,,,,,,,,,,,,,,,,,,,,,,,,,,,,,,,,,,,,,,,,,,,,,,,,,,,,,,,,,,,,,,,,,,,,,,,,,,,,,,200.0,125.0,125.0,200.0,141.0,141.0,1.0,1.2,-258,-1,0,8,266,9,37.10867667198181,37.10876178741455,37.11166453361511,37.12750434875488,37.276379346847534,37.276379346847534,37.276379346847534,37.276379346847534,37.276379346847534,37.276379346847534,37.276379346847534,42.33845567703247,2,5.19667387008667,None,,,,,,,,,,,,,,,,,,36,6,2025-02-19_11h25.54.398,comp,2024.2.4,None,2025-02-19 11h26.44.822211 -0500,
1,1,0,catch,None,None,None,None,None,None,None,None,None,None,2,1.5459070205688477,None,,,,,0,0,0,0,0,1,1,125,42.35418224334717,,,,,,,,,,,,,,,,,,,,,,,,,,,,,,,,,,,,,,,,,,,,,,,,,,,,,,,,,,,,,,,,,,,,,,,,,,,,,,,,,123,67,197,128,86,104,2.1,2.11,-194,286,0,281,212,-275,42.34044003486633,42.3405499458313,42.34397602081299,42.35418224334717,42.504491329193115,42.504491329193115,42.504491329193115,42.504491329193115,42.504491329193115,42.504491329193115,42.504491329193115,43.90801191329956,2,1.5459070205688477,None,,,,,,,,,,,,,,,,,,36,6,2025-02-19_11h25.54.398,comp,2024.2.4,None,2025-02-19 11h26.44.822211 -0500,
2,2,0,filler_square,None,None,None,None,None,None,None,None,None,None,2,2.1068496704101562,None,,,,,0,0,0,0,0,2,2,182,43.929282903671265,,,,,,,,,,,,,,,,,,,,,,,,,,,,,,,,,,,,,,,,,,,,,,,,,,,,,,,,,,,,,,,,,,,,,,,,,,,,,,,,,79.08537034889022,90.29070808091446,98.22728711219247,98.22728711219247,70.21506697551266,79.12063660304983,2.1,2.11,-190,280,0,259,185,-270,43.91005325317383,43.910130977630615,43.913453102111816,43.929282903671265,44.076157331466675,44.076157331466675,44.076157331466675,44.076157331466675,44.076157331466675,44.076157331466675,44.076157331466675,46.05601358413696,2,2.1068496704101562,None,,,,,,,,,,,,,,,,,,36,6,2025-02-19_11h25.54.398,comp,2024.2.4,None,2025-02-19 11h26.44.822211 -0500,
3,3,0,filler_random,None,None,None,None,None,None,None,None,None,None,2,1.0583336353302002,None,,,,,0,0,0,0,0,3,3,130,46.073779582977295,,,,,,,,,,,,,,,,,,,,,,,,,,,,,,,,,,,,,,,,,,,,,,,,,,,,,,,,,,,,,,,,,,,,,,,,,,,,,,,,,131.82846641580056,77.4481457869227,197.93930885747048,180.877470738218,197.16197856858926,113.05969470244261,4.0,4.2,-225,-13,0,-265,243,-18,46.05767750740051,46.05775690078735,46.06111192703247,46.073779582977295,46.22148942947388,46.22148942947388,46.22148942947388,46.22148942947388,46.22148942947388,46.22148942947388,46.22148942947388,47.147557735443115,2,1.0583336353302002,None,,,,,,,,,,,,,,,,,,36,6,2025-02-19_11h25.54.398,comp,2024.2.4,None,2025-02-19 11h26.44.822211 -0500,
4,4,0,critical,hwd,35.0,2.1,lower,133.0,57.0,57.0,133.0,70.0,70.0,1,1.7929246425628662,None,,,,,0,0,0,0,0,4,4,16,47.163254499435425,,,,,,,,,,,,,,,,,,,,,,,,,,,,,,,,,,,,,,,,,,,,,,,,,,,,,,,,,,,,,,,,,,,,,,,,,,,,,,,,,133.0,57.0,57.0,133.0,70.0,70.0,2.1,2.12,-191,-289,0,-252,198,254,47.14912247657776,47.149198055267334,47.15214538574219,47.163254499435425,47.30581450462341,47.30581450462341,47.30581450462341,47.30581450462341,47.30581450462341,47.30581450462341,47.30581450462341,48.970951795578,1,1.7929246425628662,None,,,,,,,,,,,,,,,,,,36,6,2025-02-19_11h25.54.398,comp,2024.2.4,None,2025-02-19 11h26.44.822211 -0500,
5,5,0,catch,None,None,None,None,None,None,None,None,None,None,3,1.370091438293457,None,,,,,0,0,0,0,0,5,5,121,48.98628377914429,,,,,,,,,,,,,,,,,,,,,,,,,,,,,,,,,,,,,,,,,,,,,,,,,,,,,,,,,,,,,,,,,,,,,,,,,,,,,,,,,66,124,113,77,199,126,1.0,1.2,-196,15,0,5,198,-10,48.972874879837036,48.97294878959656,48.97606086730957,48.98628377914429,49.123255252838135,49.123255252838135,49.123255252838135,49.123255252838135,49.123255252838135,49.123255252838135,49.123255252838135,50.372968435287476,3,1.370091438293457,None,,,,,,,,,,,,,,,,,,36,6,2025-02-19_11h25.54.398,comp,2024.2.4,None,2025-02-19 11h26.44.822211 -0500,
6,6,0,critical,dwh,35.0,1.0,upper,127.0,127.0,125.0,200.0,200.0,125.0,2,1.9831821918487549,None,,,,,0,0,0,0,0,6,6,61,50.388845682144165,,,,,,,,,,,,,,,,,,,,,,,,,,,,,,,,,,,,,,,,,,,,,,,,,,,,,,,,,,,,,,,,,,,,,,,,,,,,,,,,,127.0,127.0,125.0,200.0,200.0,125.0,1.0,1.1,-740,283,-480,290,-222,263,50.374730348587036,50.37486386299133,50.37832570075989,50.388845682144165,50.53825235366821,50.53825235366821,50.53825235366821,50.53825235366821,50.53825235366821,50.53825235366821,50.53825235366821,52.373947858810425,2,1.9831821918487549,None,,,,,,,,,,,,,,,,,,36,6,2025-02-19_11h25.54.398,comp,2024.2.4,None,2025-02-19 11h26.44.822211 -0500,
7,7,0,filler_random,None,None,None,None,None,None,None,None,None,None,2,1.0462727546691895,None,,,,,0,0,0,0,0,7,7,166,52.38996911048889,,,,,,,,,,,,,,,,,,,,,,,,,,,,,,,,,,,,,,,,,,,,,,,,,,,,,,,,,,,,,,,,,,,,,,,,,,,,,,,,,61.00516365847583,98.70111935011029,187.38050416356194,194.88489003440864,181.410008631135,107.07185658916487,1.0,1.3,237,-287,480,-256,727,-279,52.37576150894165,52.375840187072754,52.37929821014404,52.38996911048889,52.532007694244385,52.532007694244385,52.532007694244385,52.532007694244385,52.532007694244385,52.532007694244385,52.532007694244385,53.441243410110474,2,1.0462727546691895,None,,,,,,,,,,,,,,,,,,36,6,2025-02-19_11h25.54.398,comp,2024.2.4,None,2025-02-19 11h26.44.822211 -0500,
8,8,0,filler_random,None,None,None,None,None,None,None,None,None,None,3,1.202911376953125,None,,,,,0,0,0,0,0,8,8,143,53.4573073387146,,,,,,,,,,,,,,,,,,,,,,,,,,,,,,,,,,,,,,,,,,,,,,,,,,,,,,,,,,,,,,,,,,,,,,,,,,,,,,,,,64.83833682107088,159.9004781611163,113.78277825131667,143.99809504310696,190.7508484129561,180.44747191605512,2.2,2.22,-248,266,0,-267,258,-262,53.44305062294006,53.44318771362305,53.446616411209106,53.4573073387146,53.612711668014526,53.612711668014526,53.612711668014526,53.612711668014526,53.612711668014526,53.612711668014526,53.612711668014526,54.67434072494507,3,1.202911376953125,None,,,,,,,,,,,,,,,,,,36,6,2025-02-19_11h25.54.398,comp,2024.2.4,None,2025-02-19 11h26.44.822211 -0500,
9,9,0,critical,wdh,35.0,3.0,lower,57.0,133.0,70.0,70.0,133.0,57.0,1,2.0282506942749023,None,,,,,0,0,0,0,0,9,9,74,54.689828395843506,,,,,,,,,,,,,,,,,,,,,,,,,,,,,,,,,,,,,,,,,,,,,,,,,,,,,,,,,,,,,,,,,,,,,,,,,,,,,,,,,57.0,133.0,70.0,70.0,133.0,57.0,3.0,3.2,-198,-261,0,4,160,278,54.67603540420532,54.67614388465881,54.67950201034546,54.689828395843506,54.83879041671753,54.83879041671753,54.83879041671753,54.83879041671753,54.83879041671753,54.83879041671753,54.83879041671753,56.72420406341553,1,2.0282506942749023,None,,,,,,,,,,,,,,,,,,36,6,2025-02-19_11h25.54.398,comp,2024.2.4,None,2025-02-19 11h26.44.822211 -0500,
10,10,0,critical,wdh,20.0,1.0,upper,125.0,200.0,141.0,141.0,200.0,125.0,3,4.279541492462158,None,,,,,0,0,0,0,0,10,10,79,56.74085593223572,,,,,,,,,,,,,,,,,,,,,,,,,,,,,,,,,,,,,,,,,,,,,,,,,,,,,,,,,,,,,,,,,,,,,,,,,,,,,,,,,125.0,200.0,141.0,141.0,200.0,125.0,1.0,1.3,214,-262,480,-253,709,-256,56.72585654258728,56.725932121276855,56.72925615310669,56.74085593223572,56.89142942428589,56.89142942428589,56.89142942428589,56.89142942428589,56.89142942428589,56.89142942428589,56.89142942428589,61.02742528915405,3,4.279541492462158,None,,,,,,,,,,,,,,,,,,36,6,2025-02-19_11h25.54.398,comp,2024.2.4,None,2025-02-19 11h26.44.822211 -0500,
11,11,0,critical,whd,20.0,1.0,upper,125.0,200.0,200.0,125.0,141.0,141.0,2,1.4009363651275635,None,,,,,0,0,0,0,0,11,11,91,61.04311800003052,,,,,,,,,,,,,,,,,,,,,,,,,,,,,,,,,,,,,,,,,,,,,,,,,,,,,,,,,,,,,,,,,,,,,,,,,,,,,,,,,125.0,200.0,200.0,125.0,141.0,141.0,1.0,1.1,-738,262,-480,255,-251,251,61.029019355773926,61.02909731864929,61.03240609169006,61.04311800003052,61.19190788269043,61.19190788269043,61.19190788269043,61.19190788269043,61.19190788269043,61.19190788269043,61.19190788269043,62.457812786102295,2,1.4009363651275635,None,,,,,,,,,,,,,,,,,,36,6,2025-02-19_11h25.54.398,comp,2024.2.4,None,2025-02-19 11h26.44.822211 -0500,
12,12,0,catch,None,None,None,None,None,None,None,None,None,None,3,1.5303187370300293,None,,,,,0,0,0,0,0,12,12,129,62.474122524261475,,,,,,,,,,,,,,,,,,,,,,,,,,,,,,,,,,,,,,,,,,,,,,,,,,,,,,,,,,,,,,,,,,,,,,,,,,,,,,,,,104,86,91,99,156,169,1.0,1.2,-188,9,0,16,230,14,62.459651708602905,62.459731101989746,62.46266007423401,62.474122524261475,62.60985469818115,62.60985469818115,62.60985469818115,62.60985469818115,62.60985469818115,62.60985469818115,62.60985469818115,64.01290369033813,3,1.5303187370300293,None,,,,,,,,,,,,,,,,,,36,6,2025-02-19_11h25.54.398,comp,2024.2.4,None,2025-02-19 11h26.44.822211 -0500,
13,13,0,critical,hdw,35.0,2.1,upper,200.0,125.0,127.0,127.0,125.0,200.0,3,1.2747180461883545,None,,,,,0,0,0,0,0,13,13,45,64.03390121459961,,,,,,,,,,,,,,,,,,,,,,,,,,,,,,,,,,,,,,,,,,,,,,,,,,,,,,,,,,,,,,,,,,,,,,,,,,,,,,,,,200.0,125.0,127.0,127.0,125.0,200.0,2.1,2.11,-222,254,0,279,260,-259,64.01465511322021,64.01479244232178,64.01826047897339,64.03390121459961,64.17576050758362,64.17576050758362,64.17576050758362,64.17576050758362,64.17576050758362,64.17576050758362,64.17576050758362,65.31233310699463,3,1.2747180461883545,None,,,,,,,,,,,,,,,,,,36,6,2025-02-19_11h25.54.398,comp,2024.2.4,None,2025-02-19 11h26.44.822211 -0500,
14,14,0,filler_random,None,None,None,None,None,None,None,None,None,None,3,1.1073298454284668,None,,,,,0,0,0,0,0,14,14,169,65.32916259765625,,,,,,,,,,,,,,,,,,,,,,,,,,,,,,,,,,,,,,,,,,,,,,,,,,,,,,,,,,,,,,,,,,,,,,,,,,,,,,,,,95.45600177660641,139.79881138978294,172.41928103280677,74.96979206576759,121.47988416527434,169.72169396477096,4.0,4.1,-203,-258,0,4,218,-250,65.3141770362854,65.31429553031921,65.31779885292053,65.32916259765625,65.478679895401,65.478679895401,65.478679895401,65.478679895401,65.478679895401,65.478679895401,65.478679895401,66.44317579269409,3,1.1073298454284668,None,,,,,,,,,,,,,,,,,,36,6,2025-02-19_11h25.54.398,comp,2024.2.4,None,2025-02-19 11h26.44.822211 -0500,
15,15,0,filler_square,None,None,None,None,None,None,None,None,None,None,2,0.8483848571777344,None,,,,,0,0,0,0,0,15,15,208,66.46025228500366,,,,,,,,,,,,,,,,,,,,,,,,,,,,,,,,,,,,,,,,,,,,,,,,,,,,,,,,,,,,,,,,,,,,,,,,,,,,,,,,,117.0354343573523,192.187805340718,193.23030709650536,193.23030709650536,171.70203301120887,134.0059222497876,2.1,2.11,-289,265,0,255,260,-285,66.44513940811157,66.44524025917053,66.44854164123535,66.46025228500366,66.5987617969513,66.5987617969513,66.5987617969513,66.5987617969513,66.5987617969513,66.5987617969513,66.5987617969513,67.31525778770447,2,0.8483848571777344,None,,,,,,,,,,,,,,,,,,36,6,2025-02-19_11h25.54.398,comp,2024.2.4,None,2025-02-19 11h26.44.822211 -0500,
16,16,0,filler_square,None,None,None,None,None,None,None,None,None,None,1,2.056504487991333,None,,,,,0,0,0,0,0,16,16,187,67.33315467834473,,,,,,,,,,,,,,,,,,,,,,,,,,,,,,,,,,,,,,,,,,,,,,,,,,,,,,,,,,,,,,,,,,,,,,,,,,,,,,,,,85.61045283499189,85.61045283499189,82.21897831994129,66.08221572583903,72.51553248590407,72.65786478830547,2.2,2.21,-172,-279,0,284,165,251,67.31713533401489,67.31721472740173,67.32022833824158,67.33315467834473,67.47945308685303,67.47945308685303,67.47945308685303,67.47945308685303,67.47945308685303,67.47945308685303,67.47945308685303,69.39479684829712,1,2.056504487991333,None,,,,,,,,,,,,,,,,,,36,6,2025-02-19_11h25.54.398,comp,2024.2.4,None,2025-02-19 11h26.44.822211 -0500,
17,17,0,critical,dhw,20.0,4.0,lower,78.0,78.0,133.0,57.0,57.0,133.0,3,1.6408307552337646,None,,,,,0,0,0,0,0,17,17,58,69.41119933128357,,,,,,,,,,,,,,,,,,,,,,,,,,,,,,,,,,,,,,,,,,,,,,,,,,,,,,,,,,,,,,,,,,,,,,,,,,,,,,,,,78.0,78.0,133.0,57.0,57.0,133.0,4.0,4.1,-164,-274,0,-2,191,-260,69.39627766609192,69.39635586738586,69.39958095550537,69.41119933128357,69.56890511512756,69.56890511512756,69.56890511512756,69.56890511512756,69.56890511512756,69.56890511512756,69.56890511512756,71.06188297271729,3,1.6408307552337646,None,,,,,,,,,,,,,,,,,,36,6,2025-02-19_11h25.54.398,comp,2024.2.4,None,2025-02-19 11h26.44.822211 -0500,
18,18,0,filler_random,None,None,None,None,None,None,None,None,None,None,2,0.8465328216552734,None,,,,,0,0,0,0,0,18,18,138,71.07823657989502,,,,,,,,,,,,,,,,,,,,,,,,,,,,,,,,,,,,,,,,,,,,,,,,,,,,,,,,,,,,,,,,,,,,,,,,,,,,,,,,,95.7248120307951,95.34044637955043,183.1547260726752,141.0620446301989,64.5974518984543,194.21489808006672,4.0,4.2,-214,-18,0,-287,264,14,71.0634868144989,71.06356239318848,71.06679701805115,71.07823657989502,71.22834277153015,71.22834277153015,71.22834277153015,71.22834277153015,71.22834277153015,71.22834277153015,71.22834277153015,71.92882299423218,2,0.8465328216552734,None,,,,,,,,,,,,,,,,,,36,6,2025-02-19_11h25.54.398,comp,2024.2.4,None,2025-02-19 11h26.44.822211 -0500,
19,19,0,filler_random,None,None,None,None,None,None,None,None,None,None,1,1.0023512840270996,None,,,,,0,0,0,0,0,19,19,151,71.94574332237244,,,,,,,,,,,,,,,,,,,,,,,,,,,,,,,,,,,,,,,,,,,,,,,,,,,,,,,,,,,,,,,,,,,,,,,,,,,,,,,,,113.10705114398112,117.20128482433049,152.60521523506,82.32932003162821,64.99060536350134,130.0459113564093,3.0,3.2,-196,-264,0,4,202,272,71.9306092262268,71.93078255653381,71.93423819541931,71.94574332237244,72.09565925598145,72.09565925598145,72.09565925598145,72.09565925598145,72.09565925598145,72.09565925598145,72.09565925598145,72.96270847320557,1,1.0023512840270996,None,,,,,,,,,,,,,,,,,,36,6,2025-02-19_11h25.54.398,comp,2024.2.4,None,2025-02-19 11h26.44.822211 -0500,
20,20,0,critical,whd,35.0,4.0,lower,57.0,133.0,133.0,57.0,70.0,70.0,1,1.473700761795044,None,,,,,0,0,0,0,0,20,20,88,72.97895073890686,,,,,,,,,,,,,,,,,,,,,,,,,,,,,,,,,,,,,,,,,,,,,,,,,,,,,,,,,,,,,,,,,,,,,,,,,,,,,,,,,57.0,133.0,133.0,57.0,70.0,70.0,4.0,4.1,-191,-270,0,1,160,-282,72.96424126625061,72.96431517601013,72.96779012680054,72.97895073890686,73.1413049697876,73.1413049697876,73.1413049697876,73.1413049697876,73.1413049697876,73.1413049697876,73.1413049697876,74.4640600681305,1,1.473700761795044,None,,,,,,,,,,,,,,,,,,36,6,2025-02-19_11h25.54.398,comp,2024.2.4,None,2025-02-19 11h26.44.822211 -0500,
21,21,0,critical,hdw,20.0,2.1,lower,133.0,57.0,78.0,78.0,57.0,133.0,1,3.443315029144287,None,,,,,0,0,0,0,0,21,21,46,74.48072052001953,,,,,,,,,,,,,,,,,,,,,,,,,,,,,,,,,,,,,,,,,,,,,,,,,,,,,,,,,,,,,,,,,,,,,,,,,,,,,,,,,133.0,57.0,78.0,78.0,57.0,133.0,2.1,2.11,-164,263,0,271,202,-256,74.46556782722473,74.46567845344543,74.4697003364563,74.48072052001953,74.63032746315002,74.63032746315002,74.63032746315002,74.63032746315002,74.63032746315002,74.63032746315002,74.63032746315002,77.94090867042542,1,3.443315029144287,None,,,,,,,,,,,,,,,,,,36,6,2025-02-19_11h25.54.398,comp,2024.2.4,None,2025-02-19 11h26.44.822211 -0500,
22,22,0,filler_square,None,None,None,None,None,None,None,None,None,None,2,1.0162715911865234,None,,,,,0,0,0,0,0,22,22,192,77.95660185813904,,,,,,,,,,,,,,,,,,,,,,,,,,,,,,,,,,,,,,,,,,,,,,,,,,,,,,,,,,,,,,,,,,,,,,,,,,,,,,,,,57.80666976747791,63.84579072630852,67.54235935244962,67.54235935244962,60.6954935785927,62.74610019661997,1.0,1.2,-162,-12,0,3,161,-7,77.94280481338501,77.94288277626038,77.94615888595581,77.95660185813904,78.09975028038025,78.09975028038025,78.09975028038025,78.09975028038025,78.09975028038025,78.09975028038025,78.09975028038025,78.98095345497131,2,1.0162715911865234,None,,,,,,,,,,,,,,,,,,36,6,2025-02-19_11h25.54.398,comp,2024.2.4,None,2025-02-19 11h26.44.822211 -0500,
23,23,0,critical,wdh,35.0,3.0,upper,125.0,200.0,127.0,127.0,200.0,125.0,3,1.2314207553863525,None,,,,,0,0,0,0,0,23,23,75,78.99746799468994,,,,,,,,,,,,,,,,,,,,,,,,,,,,,,,,,,,,,,,,,,,,,,,,,,,,,,,,,,,,,,,,,,,,,,,,,,,,,,,,,125.0,200.0,127.0,127.0,200.0,125.0,3.0,3.1,-260,260,0,2,222,-287,78.98248934745789,78.98256635665894,78.985764503479,78.99746799468994,79.15137910842896,79.15137910842896,79.15137910842896,79.15137910842896,79.15137910842896,79.15137910842896,79.15137910842896,80.23442506790161,3,1.2314207553863525,None,,,,,,,,,,,,,,,,,,36,6,2025-02-19_11h25.54.398,comp,2024.2.4,None,2025-02-19 11h26.44.822211 -0500,
24,24,0,catch,None,None,None,None,None,None,None,None,None,None,2,0.9211359024047852,None,,,,,0,0,0,0,0,24,24,126,80.25108289718628,,,,,,,,,,,,,,,,,,,,,,,,,,,,,,,,,,,,,,,,,,,,,,,,,,,,,,,,,,,,,,,,,,,,,,,,,,,,,,,,,128,62,198,127,111,79,4.0,4.1,-190,-283,0,-13,199,-289,80.23644924163818,80.23652791976929,80.24039435386658,80.25108289718628,80.39893984794617,80.39893984794617,80.39893984794617,80.39893984794617,80.39893984794617,80.39893984794617,80.39893984794617,81.18537044525146,2,0.9211359024047852,None,,,,,,,,,,,,,,,,,,36,6,2025-02-19_11h25.54.398,comp,2024.2.4,None,2025-02-19 11h26.44.822211 -0500,
25,25,0,critical,dhw,35.0,4.0,upper,127.0,127.0,200.0,125.0,125.0,200.0,3,1.0109732151031494,None,,,,,0,0,0,0,0,25,25,53,81.20107245445251,,,,,,,,,,,,,,,,,,,,,,,,,,,,,,,,,,,,,,,,,,,,,,,,,,,,,,,,,,,,,,,,,,,,,,,,,,,,,,,,,127.0,127.0,200.0,125.0,125.0,200.0,4.0,4.1,-222,-256,0,6,258,-275,81.187096118927,81.18722605705261,81.19078016281128,81.20107245445251,81.33766055107117,81.33766055107117,81.33766055107117,81.33766055107117,81.33766055107117,81.33766055107117,81.33766055107117,82.22478866577148,3,1.0109732151031494,None,,,,,,,,,,,,,,,,,,36,6,2025-02-19_11h25.54.398,comp,2024.2.4,None,2025-02-19 11h26.44.822211 -0500,
26,26,0,critical,whd,35.0,2.1,lower,57.0,133.0,133.0,57.0,70.0,70.0,2,1.3772342205047607,None,,,,,0,0,0,0,0,26,26,12,82.24287462234497,,,,,,,,,,,,,,,,,,,,,,,,,,,,,,,,,,,,,,,,,,,,,,,,,,,,,,,,,,,,,,,,,,,,,,,,,,,,,,,,,57.0,133.0,133.0,57.0,70.0,70.0,2.1,2.12,-191,-266,0,-263,160,259,82.22639012336731,82.22646832466125,82.22984147071838,82.24287462234497,82.39049744606018,82.39049744606018,82.39049744606018,82.39049744606018,82.39049744606018,82.39049744606018,82.39049744606018,83.63302540779114,2,1.3772342205047607,None,,,,,,,,,,,,,,,,,,36,6,2025-02-19_11h25.54.398,comp,2024.2.4,None,2025-02-19 11h26.44.822211 -0500,
27,27,0,critical,wdh,20.0,3.0,upper,125.0,200.0,141.0,141.0,200.0,125.0,3,0.9551339149475098,None,,,,,0,0,0,0,0,27,27,81,83.64889287948608,,,,,,,,,,,,,,,,,,,,,,,,,,,,,,,,,,,,,,,,,,,,,,,,,,,,,,,,,,,,,,,,,,,,,,,,,,,,,,,,,125.0,200.0,141.0,141.0,200.0,125.0,3.0,3.1,-266,272,0,-17,229,-266,83.63447952270508,83.63455271720886,83.63766813278198,83.64889287948608,83.79647493362427,83.79647493362427,83.79647493362427,83.79647493362427,83.79647493362427,83.79647493362427,83.79647493362427,84.61667823791504,3,0.9551339149475098,None,,,,,,,,,,,,,,,,,,36,6,2025-02-19_11h25.54.398,comp,2024.2.4,None,2025-02-19 11h26.44.822211 -0500,
28,28,0,critical,wdh,20.0,2.1,lower,57.0,133.0,78.0,78.0,133.0,57.0,3,1.0246765613555908,None,,,,,0,0,0,0,0,28,28,34,84.63599419593811,,,,,,,,,,,,,,,,,,,,,,,,,,,,,,,,,,,,,,,,,,,,,,,,,,,,,,,,,,,,,,,,,,,,,,,,,,,,,,,,,57.0,133.0,78.0,78.0,133.0,57.0,2.1,2.12,-202,-288,0,-260,164,251,84.61815357208252,84.6182267665863,84.62139248847961,84.63599419593811,84.78366732597351,84.78366732597351,84.78366732597351,84.78366732597351,84.78366732597351,84.78366732597351,84.78366732597351,85.66641855239868,3,1.0246765613555908,None,,,,,,,,,,,,,,,,,,36,6,2025-02-19_11h25.54.398,comp,2024.2.4,None,2025-02-19 11h26.44.822211 -0500,
29,29,0,filler_square,None,None,None,None,None,None,None,None,None,None,2,0.9369616508483887,None,,,,,0,0,0,0,0,29,29,185,85.68316149711609,,,,,,,,,,,,,,,,,,,,,,,,,,,,,,,,,,,,,,,,,,,,,,,,,,,,,,,,,,,,,,,,,,,,,,,,,,,,,,,,,73.63415879541232,109.1315553896668,102.74285918404746,107.29910254124688,136.7124252006451,136.7124252006451,4.0,4.1,-204,-284,0,10,218,-279,85.6682300567627,85.66830825805664,85.67150115966797,85.68316149711609,85.83467721939087,85.83467721939087,85.83467721939087,85.83467721939087,85.83467721939087,85.83467721939087,85.83467721939087,86.63868236541748,2,0.9369616508483887,None,,,,,,,,,,,,,,,,,,36,6,2025-02-19_11h25.54.398,comp,2024.2.4,None,2025-02-19 11h26.44.822211 -0500,
30,30,0,critical,dhw,20.0,1.0,lower,78.0,78.0,133.0,57.0,57.0,133.0,3,1.3856382369995117,None,,,,,0,0,0,0,0,30,30,54,86.6584575176239,,,,,,,,,,,,,,,,,,,,,,,,,,,,,,,,,,,,,,,,,,,,,,,,,,,,,,,,,,,,,,,,,,,,,,,,,,,,,,,,,78.0,78.0,133.0,57.0,57.0,133.0,1.0,1.1,-644,256,-480,275,-289,265,86.64071154594421,86.64078855514526,86.64380931854248,86.6584575176239,86.80489373207092,86.80489373207092,86.80489373207092,86.80489373207092,86.80489373207092,86.80489373207092,86.80489373207092,88.05471634864807,3,1.3856382369995117,None,,,,,,,,,,,,,,,,,,36,6,2025-02-19_11h25.54.398,comp,2024.2.4,None,2025-02-19 11h26.44.822211 -0500,
31,31,0,filler_random,None,None,None,None,None,None,None,None,None,None,3,1.2690603733062744,None,,,,,0,0,0,0,0,31,31,137,88.0711784362793,,,,,,,,,,,,,,,,,,,,,,,,,,,,,,,,,,,,,,,,,,,,,,,,,,,,,,,,,,,,,,,,,,,,,,,,,,,,,,,,,133.48573824687267,164.14370799500819,189.8749716457979,69.47265836623019,160.79775276972703,154.14837531391817,4.0,4.1,-213,-278,0,-6,208,-289,88.05656576156616,88.05667853355408,88.05968356132507,88.0711784362793,88.22302603721619,88.22302603721619,88.22302603721619,88.22302603721619,88.22302603721619,88.22302603721619,88.22302603721619,89.35309767723083,3,1.2690603733062744,None,,,,,,,,,,,,,,,,,,36,6,2025-02-19_11h25.54.398,comp,2024.2.4,None,2025-02-19 11h26.44.822211 -0500,
32,32,0,critical,hwd,35.0,2.1,lower,133.0,57.0,57.0,133.0,70.0,70.0,1,1.6255440711975098,None,,,,,0,0,0,0,0,32,32,40,89.37053656578064,,,,,,,,,,,,,,,,,,,,,,,,,,,,,,,,,,,,,,,,,,,,,,,,,,,,,,,,,,,,,,,,,,,,,,,,,,,,,,,,,133.0,57.0,57.0,133.0,70.0,70.0,2.1,2.12,-191,-275,0,-265,198,261,89.35459351539612,89.35470247268677,89.35782623291016,89.37053656578064,89.51458358764648,89.51458358764648,89.51458358764648,89.51458358764648,89.51458358764648,89.51458358764648,89.51458358764648,91.00781083106995,1,1.6255440711975098,None,,,,,,,,,,,,,,,,,,36,6,2025-02-19_11h25.54.398,comp,2024.2.4,None,2025-02-19 11h26.44.822211 -0500,
33,33,0,filler_random,None,None,None,None,None,None,None,None,None,None,1,1.020970344543457,None,,,,,0,0,0,0,0,33,33,167,91.02377843856812,,,,,,,,,,,,,,,,,,,,,,,,,,,,,,,,,,,,,,,,,,,,,,,,,,,,,,,,,,,,,,,,,,,,,,,,,,,,,,,,,162.85653241949268,168.1177560205797,72.25632844683528,88.9942556688935,95.9496444979957,58.382571047894885,2.1,2.11,-225,258,0,262,170,-283,91.00947308540344,91.00955367088318,91.01249027252197,91.02377843856812,91.16940474510193,91.16940474510193,91.16940474510193,91.16940474510193,91.16940474510193,91.16940474510193,91.16940474510193,92.05381727218628,1,1.020970344543457,None,,,,,,,,,,,,,,,,,,36,6,2025-02-19_11h25.54.398,comp,2024.2.4,None,2025-02-19 11h26.44.822211 -0500,
34,34,0,critical,hwd,35.0,2.1,upper,200.0,125.0,125.0,200.0,127.0,127.0,1,1.7345759868621826,None,,,,,0,0,0,0,0,34,34,41,92.06953120231628,,,,,,,,,,,,,,,,,,,,,,,,,,,,,,,,,,,,,,,,,,,,,,,,,,,,,,,,,,,,,,,,,,,,,,,,,,,,,,,,,200.0,125.0,125.0,200.0,127.0,127.0,2.1,2.11,-258,259,0,255,260,-254,92.05535459518433,92.05543184280396,92.05887746810913,92.06953120231628,92.2197015285492,92.2197015285492,92.2197015285492,92.2197015285492,92.2197015285492,92.2197015285492,92.2197015285492,93.82075500488281,1,1.7345759868621826,None,,,,,,,,,,,,,,,,,,36,6,2025-02-19_11h25.54.398,comp,2024.2.4,None,2025-02-19 11h26.44.822211 -0500,
35,35,0,critical,hwd,35.0,1.0,lower,133.0,57.0,57.0,133.0,70.0,70.0,1,1.2166974544525146,None,,,,,0,0,0,0,0,35,35,96,93.8361005783081,,,,,,,,,,,,,,,,,,,,,,,,,,,,,,,,,,,,,,,,,,,,,,,,,,,,,,,,,,,,,,,,,,,,,,,,,,,,,,,,,133.0,57.0,57.0,133.0,70.0,70.0,1.0,1.3,289,-283,480,-254,678,-269,93.82229590415955,93.82237195968628,93.82587599754333,93.8361005783081,93.98620223999023,93.98620223999023,93.98620223999023,93.98620223999023,93.98620223999023,93.98620223999023,93.98620223999023,95.07061815261841,1,1.2166974544525146,None,,,,,,,,,,,,,,,,,,36,6,2025-02-19_11h25.54.398,comp,2024.2.4,None,2025-02-19 11h26.44.822211 -0500,
36,36,0,filler_random,None,None,None,None,None,None,None,None,None,None,2,0.9185667037963867,None,,,,,0,0,0,0,0,36,36,131,95.086101770401,,,,,,,,,,,,,,,,,,,,,,,,,,,,,,,,,,,,,,,,,,,,,,,,,,,,,,,,,,,,,,,,,,,,,,,,,,,,,,,,,95.42505154614388,88.95050987421631,169.60817599443288,180.74380299515224,100.18505066168765,79.2452505973948,4.0,4.2,-231,0,0,-287,226,7,95.07236361503601,95.07243990898132,95.0759060382843,95.086101770401,95.23507952690125,95.23507952690125,95.23507952690125,95.23507952690125,95.23507952690125,95.23507952690125,95.23507952690125,96.02125811576843,2,0.9185667037963867,None,,,,,,,,,,,,,,,,,,36,6,2025-02-19_11h25.54.398,comp,2024.2.4,None,2025-02-19 11h26.44.822211 -0500,
37,37,0,catch,None,None,None,None,None,None,None,None,None,None,1,0.8382925987243652,None,,,,,0,0,0,0,0,37,37,120,96.03792333602905,,,,,,,,,,,,,,,,,,,,,,,,,,,,,,,,,,,,,,,,,,,,,,,,,,,,,,,,,,,,,,,,,,,,,,,,,,,,,,,,,160,165,81,109,66,124,2.2,2.22,-233,260,0,-274,212,-255,96.02320551872253,96.02328133583069,96.0267744064331,96.03792333602905,96.19000792503357,96.19000792503357,96.19000792503357,96.19000792503357,96.19000792503357,96.19000792503357,96.19000792503357,96.8781349658966,1,0.8382925987243652,None,,,,,,,,,,,,,,,,,,36,6,2025-02-19_11h25.54.398,comp,2024.2.4,None,2025-02-19 11h26.44.822211 -0500,
38,38,0,critical,dhw,35.0,1.0,lower,70.0,70.0,133.0,57.0,57.0,133.0,2,0.97153639793396,None,,,,,0,0,0,0,0,38,38,48,96.8965277671814,,,,,,,,,,,,,,,,,,,,,,,,,,,,,,,,,,,,,,,,,,,,,,,,,,,,,,,,,,,,,,,,,,,,,,,,,,,,,,,,,70.0,70.0,133.0,57.0,57.0,133.0,1.0,1.2,-160,-5,0,-2,191,-19,96.87973499298096,96.87980914115906,96.88318467140198,96.8965277671814,97.03522157669067,97.03522157669067,97.03522157669067,97.03522157669067,97.03522157669067,97.03522157669067,97.03522157669067,97.88658666610718,2,0.97153639793396,None,,,,,,,,,,,,,,,,,,36,6,2025-02-19_11h25.54.398,comp,2024.2.4,None,2025-02-19 11h26.44.822211 -0500,
39,39,0,critical,dwh,20.0,2.1,lower,78.0,78.0,57.0,133.0,133.0,57.0,1,0.9260084629058838,None,,,,,0,0,0,0,0,39,39,30,97.90294313430786,,,,,,,,,,,,,,,,,,,,,,,,,,,,,,,,,,,,,,,,,,,,,,,,,,,,,,,,,,,,,,,,,,,,,,,,,,,,,,,,,78.0,78.0,57.0,133.0,133.0,57.0,2.1,2.11,-202,286,0,280,191,-275,97.88820052146912,97.88827729225159,97.89166283607483,97.90294313430786,98.05384945869446,98.05384945869446,98.05384945869446,98.05384945869446,98.05384945869446,98.05384945869446,98.05384945869446,98.83194279670715,1,0.9260084629058838,None,,,,,,,,,,,,,,,,,,36,6,2025-02-19_11h25.54.398,comp,2024.2.4,None,2025-02-19 11h26.44.822211 -0500,
40,40,0,critical,hwd,20.0,2.1,lower,133.0,57.0,57.0,133.0,78.0,78.0,2,1.1543443202972412,None,,,,,0,0,0,0,0,40,40,18,98.85011076927185,,,,,,,,,,,,,,,,,,,,,,,,,,,,,,,,,,,,,,,,,,,,,,,,,,,,,,,,,,,,,,,,,,,,,,,,,,,,,,,,,133.0,57.0,57.0,133.0,78.0,78.0,2.1,2.11,-191,289,0,289,202,-276,98.83356714248657,98.8336775302887,98.83704566955566,98.85011076927185,98.98526740074158,98.98526740074158,98.98526740074158,98.98526740074158,98.98526740074158,98.98526740074158,98.98526740074158,100.00878477096558,2,1.1543443202972412,None,,,,,,,,,,,,,,,,,,36,6,2025-02-19_11h25.54.398,comp,2024.2.4,None,2025-02-19 11h26.44.822211 -0500,
41,41,0,critical,hdw,20.0,3.0,upper,200.0,125.0,141.0,141.0,125.0,200.0,1,1.3134868144989014,None,,,,,0,0,0,0,0,41,41,117,100.02713513374329,,,,,,,,,,,,,,,,,,,,,,,,,,,,,,,,,,,,,,,,,,,,,,,,,,,,,,,,,,,,,,,,,,,,,,,,,,,,,,,,,200.0,125.0,141.0,141.0,125.0,200.0,3.0,3.2,-229,-276,0,-17,266,265,100.01050043106079,100.01064682006836,100.01405334472656,100.02713513374329,100.16375708580017,100.16375708580017,100.16375708580017,100.16375708580017,100.16375708580017,100.16375708580017,100.16375708580017,101.34301829338074,1,1.3134868144989014,None,,,,,,,,,,,,,,,,,,36,6,2025-02-19_11h25.54.398,comp,2024.2.4,None,2025-02-19 11h26.44.822211 -0500,
42,42,0,filler_random,None,None,None,None,None,None,None,None,None,None,1,0.8460071086883545,None,,,,,0,0,0,0,0,42,42,136,101.35860514640808,,,,,,,,,,,,,,,,,,,,,,,,,,,,,,,,,,,,,,,,,,,,,,,,,,,,,,,,,,,,,,,,,,,,,,,,,,,,,,,,,93.71982319159488,190.73476900537784,196.82932893703364,59.44141551036617,81.34353386967499,99.89533275256656,4.0,4.2,-221,12,0,-285,176,1,101.34494662284851,101.34502935409546,101.34802627563477,101.35860514640808,101.50966691970825,101.50966691970825,101.50966691970825,101.50966691970825,101.50966691970825,101.50966691970825,101.50966691970825,102.21228432655334,1,0.8460071086883545,None,,,,,,,,,,,,,,,,,,36,6,2025-02-19_11h25.54.398,comp,2024.2.4,None,2025-02-19 11h26.44.822211 -0500,
43,43,0,filler_square,None,None,None,None,None,None,None,None,None,None,2,1.8772563934326172,None,,,,,0,0,0,0,0,43,43,173,102.23116421699524,,,,,,,,,,,,,,,,,,,,,,,,,,,,,,,,,,,,,,,,,,,,,,,,,,,,,,,,,,,,,,,,,,,,,,,,,,,,,,,,,69.94934611251031,89.66732057089958,106.47467384743081,106.47467384743081,97.34810857753683,94.69841980549147,3.0,3.1,-194,277,0,-14,197,-264,102.21410918235779,102.21418595314026,102.21712374687195,102.23116421699524,102.37228846549988,102.37228846549988,102.37228846549988,102.37228846549988,102.37228846549988,102.37228846549988,102.37228846549988,104.11458206176758,2,1.8772563934326172,None,,,,,,,,,,,,,,,,,,36,6,2025-02-19_11h25.54.398,comp,2024.2.4,None,2025-02-19 11h26.44.822211 -0500,
44,44,0,critical,whd,20.0,2.1,lower,57.0,133.0,133.0,57.0,78.0,78.0,3,2.1262545585632324,None,,,,,0,0,0,0,0,44,44,38,104.13396835327148,,,,,,,,,,,,,,,,,,,,,,,,,,,,,,,,,,,,,,,,,,,,,,,,,,,,,,,,,,,,,,,,,,,,,,,,,,,,,,,,,57.0,133.0,133.0,57.0,78.0,78.0,2.1,2.11,-191,254,0,265,164,-253,104.1160683631897,104.1161437034607,104.11908459663391,104.13396835327148,104.27332305908203,104.27332305908203,104.27332305908203,104.27332305908203,104.27332305908203,104.27332305908203,104.27332305908203,106.27265191078186,3,2.1262545585632324,None,,,,,,,,,,,,,,,,,,36,6,2025-02-19_11h25.54.398,comp,2024.2.4,None,2025-02-19 11h26.44.822211 -0500,
45,45,0,filler_random,None,None,None,None,None,None,None,None,None,None,3,1.019411325454712,None,,,,,0,0,0,0,0,45,45,152,106.2886209487915,,,,,,,,,,,,,,,,,,,,,,,,,,,,,,,,,,,,,,,,,,,,,,,,,,,,,,,,,,,,,,,,,,,,,,,,,,,,,,,,,168.61845421124883,74.68314215327229,142.26193511535115,96.57855381020045,111.40560147505602,191.6283264904301,1.0,1.2,-182,-7,0,6,240,-7,106.27426171302795,106.27433633804321,106.27752542495728,106.2886209487915,106.42611742019653,106.42611742019653,106.42611742019653,106.42611742019653,106.42611742019653,106.42611742019653,106.42611742019653,107.32362031936646,3,1.019411325454712,None,,,,,,,,,,,,,,,,,,36,6,2025-02-19_11h25.54.398,comp,2024.2.4,None,2025-02-19 11h26.44.822211 -0500,
46,46,0,critical,hdw,35.0,1.0,lower,133.0,57.0,70.0,70.0,57.0,133.0,1,1.9848527908325195,None,,,,,0,0,0,0,0,46,46,108,107.3392550945282,,,,,,,,,,,,,,,,,,,,,,,,,,,,,,,,,,,,,,,,,,,,,,,,,,,,,,,,,,,,,,,,,,,,,,,,,,,,,,,,,133.0,57.0,70.0,70.0,57.0,133.0,1.0,1.1,-640,264,-480,251,-282,257,107.32516169548035,107.32523488998413,107.32839107513428,107.3392550945282,107.48952913284302,107.48952913284302,107.48952913284302,107.48952913284302,107.48952913284302,107.48952913284302,107.48952913284302,109.34104108810425,1,1.9848527908325195,None,,,,,,,,,,,,,,,,,,36,6,2025-02-19_11h25.54.398,comp,2024.2.4,None,2025-02-19 11h26.44.822211 -0500,
47,47,0,critical,dwh,35.0,3.0,lower,70.0,70.0,57.0,133.0,133.0,57.0,2,1.14461350440979,None,,,,,0,0,0,0,0,47,47,62,109.35783791542053,,,,,,,,,,,,,,,,,,,,,,,,,,,,,,,,,,,,,,,,,,,,,,,,,,,,,,,,,,,,,,,,,,,,,,,,,,,,,,,,,70.0,70.0,57.0,133.0,133.0,57.0,3.0,3.2,-198,-275,0,-5,191,263,109.34264898300171,109.3427255153656,109.3460795879364,109.35783791542053,109.5088119506836,109.5088119506836,109.5088119506836,109.5088119506836,109.5088119506836,109.5088119506836,109.5088119506836,110.50770735740662,2,1.14461350440979,None,,,,,,,,,,,,,,,,,,36,6,2025-02-19_11h25.54.398,comp,2024.2.4,None,2025-02-19 11h26.44.822211 -0500,
48,48,0,critical,whd,35.0,4.0,upper,125.0,200.0,200.0,125.0,127.0,127.0,1,1.024428367614746,None,,,,,0,0,0,0,0,48,48,89,110.52418756484985,,,,,,,,,,,,,,,,,,,,,,,,,,,,,,,,,,,,,,,,,,,,,,,,,,,,,,,,,,,,,,,,,,,,,,,,,,,,,,,,,125.0,200.0,200.0,125.0,127.0,127.0,4.0,4.1,-258,-270,0,-7,222,-288,110.50915575027466,110.5092294216156,110.5123860836029,110.52418756484985,110.68129110336304,110.68129110336304,110.68129110336304,110.68129110336304,110.68129110336304,110.68129110336304,110.68129110336304,111.55789613723755,1,1.024428367614746,None,,,,,,,,,,,,,,,,,,36,6,2025-02-19_11h25.54.398,comp,2024.2.4,None,2025-02-19 11h26.44.822211 -0500,
49,49,0,critical,wdh,35.0,1.0,lower,57.0,133.0,70.0,70.0,133.0,57.0,1,1.0004544258117676,None,,,,,0,0,0,0,0,49,49,72,111.57967352867126,,,,,,,,,,,,,,,,,,,,,,,,,,,,,,,,,,,,,,,,,,,,,,,,,,,,,,,,,,,,,,,,,,,,,,,,,,,,,,,,,57.0,133.0,70.0,70.0,133.0,57.0,1.0,1.1,-678,250,-480,275,-320,265,111.55939102172852,111.55946612358093,111.56257629394531,111.57967352867126,111.73160433769226,111.73160433769226,111.73160433769226,111.73160433769226,111.73160433769226,111.73160433769226,111.73160433769226,112.59165382385254,1,1.0004544258117676,None,,,,,,,,,,,,,,,,,,36,6,2025-02-19_11h25.54.398,comp,2024.2.4,None,2025-02-19 11h26.44.822211 -0500,
50,50,0,critical,dwh,20.0,3.0,lower,78.0,78.0,57.0,133.0,133.0,57.0,2,1.084346055984497,None,,,,,0,0,0,0,0,50,50,68,112.60782599449158,,,,,,,,,,,,,,,,,,,,,,,,,,,,,,,,,,,,,,,,,,,,,,,,,,,,,,,,,,,,,,,,,,,,,,,,,,,,,,,,,78.0,78.0,57.0,133.0,133.0,57.0,3.0,3.1,-202,272,0,12,191,-252,112.59318852424622,112.59326362609863,112.5963842868805,112.60782599449158,112.75785207748413,112.75785207748413,112.75785207748413,112.75785207748413,112.75785207748413,112.75785207748413,112.75785207748413,113.71249198913574,2,1.084346055984497,None,,,,,,,,,,,,,,,,,,36,6,2025-02-19_11h25.54.398,comp,2024.2.4,None,2025-02-19 11h26.44.822211 -0500,
51,51,0,catch,None,None,None,None,None,None,None,None,None,None,3,0.8253304958343506,None,,,,,0,0,0,0,0,51,51,124,113.73115587234497,,,,,,,,,,,,,,,,,,,,,,,,,,,,,,,,,,,,,,,,,,,,,,,,,,,,,,,,,,,,,,,,,,,,,,,,,,,,,,,,,92,98,87,103,194,131,3.0,3.2,-196,-263,0,1,213,262,113.71444916725159,113.71452617645264,113.71766209602356,113.73115587234497,113.87696981430054,113.87696981430054,113.87696981430054,113.87696981430054,113.87696981430054,113.87696981430054,113.87696981430054,114.55875587463379,3,0.8253304958343506,None,,,,,,,,,,,,,,,,,,36,6,2025-02-19_11h25.54.398,comp,2024.2.4,None,2025-02-19 11h26.44.822211 -0500,
52,52,0,filler_square,None,None,None,None,None,None,None,None,None,None,3,0.8314476013183594,None,,,,,0,0,0,0,0,52,52,170,114.58068132400513,,,,,,,,,,,,,,,,,,,,,,,,,,,,,,,,,,,,,,,,,,,,,,,,,,,,,,,,,,,,,,,,,,,,,,,,,,,,,,,,,131.70316129001293,141.71331715085535,141.93558415677023,112.99467505403862,193.21454691828248,193.21454691828248,2.1,2.12,-223,-255,0,-250,249,262,114.56059169769287,114.56077075004578,114.56442284584045,114.58068132400513,114.72744059562683,114.72744059562683,114.72744059562683,114.72744059562683,114.72744059562683,114.72744059562683,114.72744059562683,115.42698454856873,3,0.8314476013183594,None,,,,,,,,,,,,,,,,,,36,6,2025-02-19_11h25.54.398,comp,2024.2.4,None,2025-02-19 11h26.44.822211 -0500,
53,53,0,filler_square,None,None,None,None,None,None,None,None,None,None,2,1.3465602397918701,None,,,,,0,0,0,0,0,53,53,171,115.44975686073303,,,,,,,,,,,,,,,,,,,,,,,,,,,,,,,,,,,,,,,,,,,,,,,,,,,,,,,,,,,,,,,,,,,,,,,,,,,,,,,,,71.71323802167142,76.23554160115552,82.73855845232994,82.73855845232994,61.52007847547883,59.75306626231091,4.0,4.2,-175,-5,0,-274,167,6,115.42899060249329,115.42906498908997,115.43241763114929,115.44975686073303,115.59372186660767,115.59372186660767,115.59372186660767,115.59372186660767,115.59372186660767,115.59372186660767,115.59372186660767,116.81080102920532,2,1.3465602397918701,None,,,,,,,,,,,,,,,,,,36,6,2025-02-19_11h25.54.398,comp,2024.2.4,None,2025-02-19 11h26.44.822211 -0500,
54,54,0,critical,whd,35.0,1.0,upper,125.0,200.0,200.0,125.0,127.0,127.0,1,2.553907632827759,None,,,,,0,0,0,0,0,54,54,85,116.82628464698792,,,,,,,,,,,,,,,,,,,,,,,,,,,,,,,,,,,,,,,,,,,,,,,,,,,,,,,,,,,,,,,,,,,,,,,,,,,,,,,,,125.0,200.0,200.0,125.0,127.0,127.0,1.0,1.2,-258,-12,0,16,222,3,116.81231594085693,116.81239295005798,116.8159568309784,116.82628464698792,116.97687482833862,116.97687482833862,116.97687482833862,116.97687482833862,116.97687482833862,116.97687482833862,116.97687482833862,119.39489889144897,1,2.553907632827759,None,,,,,,,,,,,,,,,,,,36,6,2025-02-19_11h25.54.398,comp,2024.2.4,None,2025-02-19 11h26.44.822211 -0500,
55,55,0,critical,hwd,35.0,4.0,upper,200.0,125.0,125.0,200.0,127.0,127.0,2,0.9456973075866699,None,,,,,0,0,0,0,0,55,55,101,119.4110004901886,,,,,,,,,,,,,,,,,,,,,,,,,,,,,,,,,,,,,,,,,,,,,,,,,,,,,,,,,,,,,,,,,,,,,,,,,,,,,,,,,200.0,125.0,125.0,200.0,127.0,127.0,4.0,4.1,-258,-278,0,-7,260,-270,119.39649844169617,119.39657282829285,119.40066742897034,119.4110004901886,119.55972385406494,119.55972385406494,119.55972385406494,119.55972385406494,119.55972385406494,119.55972385406494,119.55972385406494,120.3608283996582,2,0.9456973075866699,None,,,,,,,,,,,,,,,,,,36,6,2025-02-19_11h25.54.398,comp,2024.2.4,None,2025-02-19 11h26.44.822211 -0500,
56,56,0,filler_square,None,None,None,None,None,None,None,None,None,None,3,1.6894514560699463,None,,,,,0,0,0,0,0,56,56,176,120.3787293434143,,,,,,,,,,,,,,,,,,,,,,,,,,,,,,,,,,,,,,,,,,,,,,,,,,,,,,,,,,,,,,,,,,,,,,,,,,,,,,,,,59.50682575504079,58.63372744531715,59.63070076666486,59.59248231625897,60.52329899626479,60.52329899626479,4.0,4.2,-155,16,0,-287,156,19,120.36259889602661,120.36269903182983,120.36577892303467,120.3787293434143,120.5153419971466,120.5153419971466,120.5153419971466,120.5153419971466,120.5153419971466,120.5153419971466,120.5153419971466,122.08158373832703,3,1.6894514560699463,None,,,,,,,,,,,,,,,,,,36,6,2025-02-19_11h25.54.398,comp,2024.2.4,None,2025-02-19 11h26.44.822211 -0500,
57,57,0,filler_square,None,None,None,None,None,None,None,None,None,None,3,1.092073678970337,None,,,,,0,0,0,0,0,57,57,209,122.09778642654419,,,,,,,,,,,,,,,,,,,,,,,,,,,,,,,,,,,,,,,,,,,,,,,,,,,,,,,,,,,,,,,,,,,,,,,,,,,,,,,,,63.10702028626195,88.2139435332745,90.43508864568454,90.43508864568454,89.056039081032,78.93129725364359,4.0,4.2,-185,-6,0,-264,181,-5,122.08357644081116,122.0836968421936,122.08752012252808,122.09778642654419,122.24621391296387,122.24621391296387,122.24621391296387,122.24621391296387,122.24621391296387,122.24621391296387,122.24621391296387,123.19500184059143,3,1.092073678970337,None,,,,,,,,,,,,,,,,,,36,6,2025-02-19_11h25.54.398,comp,2024.2.4,None,2025-02-19 11h26.44.822211 -0500,
58,58,0,critical,hwd,20.0,4.0,lower,133.0,57.0,57.0,133.0,78.0,78.0,2,1.021838665008545,None,,,,,0,0,0,0,0,58,58,106,123.21533989906311,,,,,,,,,,,,,,,,,,,,,,,,,,,,,,,,,,,,,,,,,,,,,,,,,,,,,,,,,,,,,,,,,,,,,,,,,,,,,,,,,133.0,57.0,57.0,133.0,78.0,78.0,4.0,4.1,-191,-268,0,-2,202,-283,123.19645476341248,123.19653177261353,123.19969654083252,123.21533989906311,123.36272072792053,123.36272072792053,123.36272072792053,123.36272072792053,123.36272072792053,123.36272072792053,123.36272072792053,124.2430591583252,2,1.021838665008545,None,,,,,,,,,,,,,,,,,,36,6,2025-02-19_11h25.54.398,comp,2024.2.4,None,2025-02-19 11h26.44.822211 -0500,
59,59,0,critical,hdw,20.0,2.1,upper,200.0,125.0,141.0,141.0,125.0,200.0,3,1.8323581218719482,None,,,,,0,0,0,0,0,59,59,23,124.26007890701294,,,,,,,,,,,,,,,,,,,,,,,,,,,,,,,,,,,,,,,,,,,,,,,,,,,,,,,,,,,,,,,,,,,,,,,,,,,,,,,,,200.0,125.0,141.0,141.0,125.0,200.0,2.1,2.12,-229,-284,0,-252,266,270,124.24452543258667,124.24460005760193,124.24752473831177,124.26007890701294,124.39631271362305,124.39631271362305,124.39631271362305,124.39631271362305,124.39631271362305,124.39631271362305,124.39631271362305,126.0953848361969,3,1.8323581218719482,None,,,,,,,,,,,,,,,,,,36,6,2025-02-19_11h25.54.398,comp,2024.2.4,None,2025-02-19 11h26.44.822211 -0500,
60,60,0,filler_random,None,None,None,None,None,None,None,None,None,None,2,0.7716124057769775,None,,,,,0,0,0,0,0,60,60,159,126.11251282691956,,,,,,,,,,,,,,,,,,,,,,,,,,,,,,,,,,,,,,,,,,,,,,,,,,,,,,,,,,,,,,,,,,,,,,,,,,,,,,,,,81.99026922963041,62.302236353105656,198.06606507184927,131.20603347145095,121.906806520321,112.9480500907251,2.2,2.21,-193,-256,0,267,218,258,126.09730052947998,126.09738516807556,126.10065579414368,126.11251282691956,126.25178790092468,126.25178790092468,126.25178790092468,126.25178790092468,126.25178790092468,126.25178790092468,126.25178790092468,126.89809513092041,2,0.7716124057769775,None,,,,,,,,,,,,,,,,,,36,6,2025-02-19_11h25.54.398,comp,2024.2.4,None,2025-02-19 11h26.44.822211 -0500,
61,61,0,filler_square,None,None,None,None,None,None,None,None,None,None,2,1.010462760925293,None,,,,,0,0,0,0,0,61,61,186,126.91422700881958,,,,,,,,,,,,,,,,,,,,,,,,,,,,,,,,,,,,,,,,,,,,,,,,,,,,,,,,,,,,,,,,,,,,,,,,,,,,,,,,,72.7192695976606,88.45470054325207,108.69261940412115,108.69261940412115,68.37514045597632,61.69425652418632,3.0,3.2,-195,-281,0,18,181,264,126.90003490447998,126.900146484375,126.90390872955322,126.91422700881958,127.06220006942749,127.06220006942749,127.06220006942749,127.06220006942749,127.06220006942749,127.06220006942749,127.06220006942749,127.93269920349121,2,1.010462760925293,None,,,,,,,,,,,,,,,,,,36,6,2025-02-19_11h25.54.398,comp,2024.2.4,None,2025-02-19 11h26.44.822211 -0500,
62,62,0,critical,hwd,35.0,4.0,lower,133.0,57.0,57.0,133.0,70.0,70.0,2,0.7244646549224854,None,,,,,0,0,0,0,0,62,62,100,127.95220041275024,,,,,,,,,,,,,,,,,,,,,,,,,,,,,,,,,,,,,,,,,,,,,,,,,,,,,,,,,,,,,,,,,,,,,,,,,,,,,,,,,133.0,57.0,57.0,133.0,70.0,70.0,4.0,4.1,-191,-263,0,17,198,-261,127.9341869354248,127.93428540229797,127.93735647201538,127.95220041275024,128.09664273262024,128.09664273262024,128.09664273262024,128.09664273262024,128.09664273262024,128.09664273262024,128.09664273262024,128.68380498886108,2,0.7244646549224854,None,,,,,,,,,,,,,,,,,,36,6,2025-02-19_11h25.54.398,comp,2024.2.4,None,2025-02-19 11h26.44.822211 -0500,
63,63,0,filler_random,None,None,None,None,None,None,None,None,None,None,3,0.8843131065368652,None,,,,,0,0,0,0,0,63,63,139,128.70385360717773,,,,,,,,,,,,,,,,,,,,,,,,,,,,,,,,,,,,,,,,,,,,,,,,,,,,,,,,,,,,,,,,,,,,,,,,,,,,,,,,,123.354971968212,123.46805278614657,162.51076851154352,182.58296949000282,187.3359089521484,105.33928009310915,2.1,2.11,-249,253,0,269,240,-251,128.68571257591248,128.6858024597168,128.68898844718933,128.70385360717773,128.84812784194946,128.84812784194946,128.84812784194946,128.84812784194946,128.84812784194946,128.84812784194946,128.84812784194946,129.60003089904785,3,0.8843131065368652,None,,,,,,,,,,,,,,,,,,36,6,2025-02-19_11h25.54.398,comp,2024.2.4,None,2025-02-19 11h26.44.822211 -0500,
64,64,0,critical,hdw,35.0,3.0,lower,133.0,57.0,70.0,70.0,57.0,133.0,2,0.751408576965332,None,,,,,0,0,0,0,0,64,64,110,129.62109994888306,,,,,,,,,,,,,,,,,,,,,,,,,,,,,,,,,,,,,,,,,,,,,,,,,,,,,,,,,,,,,,,,,,,,,,,,,,,,,,,,,133.0,57.0,70.0,70.0,57.0,133.0,3.0,3.1,-160,256,0,10,198,-259,129.6017541885376,129.6018853187561,129.60536289215088,129.62109994888306,129.76315927505493,129.76315927505493,129.76315927505493,129.76315927505493,129.76315927505493,129.76315927505493,129.76315927505493,130.38299465179443,2,0.751408576965332,None,,,,,,,,,,,,,,,,,,36,6,2025-02-19_11h25.54.398,comp,2024.2.4,None,2025-02-19 11h26.44.822211 -0500,
65,65,0,filler_random,None,None,None,None,None,None,None,None,None,None,2,0.736990213394165,None,,,,,0,0,0,0,0,65,65,161,130.4032130241394,,,,,,,,,,,,,,,,,,,,,,,,,,,,,,,,,,,,,,,,,,,,,,,,,,,,,,,,,,,,,,,,,,,,,,,,,,,,,,,,,91.97710162199769,113.44552811951056,130.9260057430028,189.69551130979164,91.79786053366783,94.56371865980535,2.2,2.21,-248,-284,0,283,238,253,130.3849160671234,130.3850553035736,130.38848042488098,130.4032130241394,130.54838848114014,130.54838848114014,130.54838848114014,130.54838848114014,130.54838848114014,130.54838848114014,130.54838848114014,131.15579843521118,2,0.736990213394165,None,,,,,,,,,,,,,,,,,,36,6,2025-02-19_11h25.54.398,comp,2024.2.4,None,2025-02-19 11h26.44.822211 -0500,
66,66,0,critical,wdh,35.0,2.1,upper,125.0,200.0,127.0,127.0,200.0,125.0,3,0.8465666770935059,None,,,,,0,0,0,0,0,66,66,33,131.17529559135437,,,,,,,,,,,,,,,,,,,,,,,,,,,,,,,,,,,,,,,,,,,,,,,,,,,,,,,,,,,,,,,,,,,,,,,,,,,,,,,,,125.0,200.0,127.0,127.0,200.0,125.0,2.1,2.12,-260,-263,0,-283,222,279,131.1572654247284,131.15734148025513,131.16029024124146,131.17529559135437,131.31572675704956,131.31572675704956,131.31572675704956,131.31572675704956,131.31572675704956,131.31572675704956,131.31572675704956,132.0324420928955,3,0.8465666770935059,None,,,,,,,,,,,,,,,,,,36,6,2025-02-19_11h25.54.398,comp,2024.2.4,None,2025-02-19 11h26.44.822211 -0500,
67,67,0,filler_random,None,None,None,None,None,None,None,None,None,None,3,2.651252031326294,None,,,,,0,0,0,0,0,67,67,160,132.0488796234131,,,,,,,,,,,,,,,,,,,,,,,,,,,,,,,,,,,,,,,,,,,,,,,,,,,,,,,,,,,,,,,,,,,,,,,,,,,,,,,,,176.41293580314408,134.2050987412302,165.40059406499597,179.65077740857794,169.59795571062529,168.953230960827,1.0,1.3,227,-289,480,-287,750,-283,132.03417944908142,132.03425550460815,132.03833150863647,132.0488796234131,132.1993715763092,132.1993715763092,132.1993715763092,132.1993715763092,132.1993715763092,132.1993715763092,132.1993715763092,134.71728682518005,3,2.651252031326294,None,,,,,,,,,,,,,,,,,,36,6,2025-02-19_11h25.54.398,comp,2024.2.4,None,2025-02-19 11h26.44.822211 -0500,
68,68,0,critical,wdh,35.0,4.0,upper,125.0,200.0,127.0,127.0,200.0,125.0,3,1.308323621749878,None,,,,,0,0,0,0,0,68,68,77,134.73628520965576,,,,,,,,,,,,,,,,,,,,,,,,,,,,,,,,,,,,,,,,,,,,,,,,,,,,,,,,,,,,,,,,,,,,,,,,,,,,,,,,,125.0,200.0,127.0,127.0,200.0,125.0,4.0,4.1,-260,-279,0,14,222,-255,134.7189121246338,134.71899032592773,134.7223563194275,134.73628520965576,134.8837444782257,134.8837444782257,134.8837444782257,134.8837444782257,134.8837444782257,134.8837444782257,134.8837444782257,136.0487596988678,3,1.308323621749878,None,,,,,,,,,,,,,,,,,,36,6,2025-02-19_11h25.54.398,comp,2024.2.4,None,2025-02-19 11h26.44.822211 -0500,
69,69,0,filler_square,None,None,None,None,None,None,None,None,None,None,1,1.6183793544769287,None,,,,,0,0,0,0,0,69,69,190,136.0657377243042,,,,,,,,,,,,,,,,,,,,,,,,,,,,,,,,,,,,,,,,,,,,,,,,,,,,,,,,,,,,,,,,,,,,,,,,,,,,,,,,,199.8597281338568,199.8597281338568,169.70843501235595,138.9148149789667,63.63352635695491,183.1206557557539,3.0,3.1,-265,273,0,-19,257,-276,136.05070519447327,136.05078291893005,136.05403590202332,136.0657377243042,136.21734237670898,136.21734237670898,136.21734237670898,136.21734237670898,136.21734237670898,136.21734237670898,136.21734237670898,137.7003583908081,1,1.6183793544769287,None,,,,,,,,,,,,,,,,,,36,6,2025-02-19_11h25.54.398,comp,2024.2.4,None,2025-02-19 11h26.44.822211 -0500,
70,70,0,filler_random,None,None,None,None,None,None,None,None,None,None,3,1.5213689804077148,None,,,,,0,0,0,0,0,70,70,149,137.71486616134644,,,,,,,,,,,,,,,,,,,,,,,,,,,,,,,,,,,,,,,,,,,,,,,,,,,,,,,,,,,,,,,,,,,,,,,,,,,,,,,,,69.55859248091744,171.15634693872408,68.98797460496952,140.44441337908262,123.1051182879932,91.92202510898804,1.0,1.1,-732,257,-480,283,-268,254,137.70226383209229,137.70234417915344,137.70579528808594,137.71486616134644,137.8657510280609,137.8657510280609,137.8657510280609,137.8657510280609,137.8657510280609,137.8657510280609,137.8657510280609,139.24100542068481,3,1.5213689804077148,None,,,,,,,,,,,,,,,,,,36,6,2025-02-19_11h25.54.398,comp,2024.2.4,None,2025-02-19 11h26.44.822211 -0500,
71,71,0,filler_square,None,None,None,None,None,None,None,None,None,None,2,0.94547438621521,None,,,,,0,0,0,0,0,71,71,196,139.25869846343994,,,,,,,,,,,,,,,,,,,,,,,,,,,,,,,,,,,,,,,,,,,,,,,,,,,,,,,,,,,,,,,,,,,,,,,,,,,,,,,,,137.5609919118687,137.5609919118687,78.73323538986052,121.52126418638768,58.18328055951321,115.84440240378828,3.0,3.2,-226,-285,0,19,215,254,139.2427830696106,139.24286127090454,139.2458257675171,139.25869846343994,139.4009096622467,139.4009096622467,139.4009096622467,139.4009096622467,139.4009096622467,139.4009096622467,139.4009096622467,140.21755838394165,2,0.94547438621521,None,,,,,,,,,,,,,,,,,,36,6,2025-02-19_11h25.54.398,comp,2024.2.4,None,2025-02-19 11h26.44.822211 -0500,
72,72,0,filler_square,None,None,None,None,None,None,None,None,None,None,3,1.2145559787750244,None,,,,,0,0,0,0,0,72,72,194,140.23767185211182,,,,,,,,,,,,,,,,,,,,,,,,,,,,,,,,,,,,,,,,,,,,,,,,,,,,,,,,,,,,,,,,,,,,,,,,,,,,,,,,,74.41693085759664,72.65086083975088,90.75825192606601,136.2967246509109,166.3127328135952,166.3127328135952,2.2,2.21,-200,-250,0,284,247,272,140.2192997932434,140.2193741798401,140.22261452674866,140.23767185211182,140.3847141265869,140.3847141265869,140.3847141265869,140.3847141265869,140.3847141265869,140.3847141265869,140.3847141265869,141.4677128791809,3,1.2145559787750244,None,,,,,,,,,,,,,,,,,,36,6,2025-02-19_11h25.54.398,comp,2024.2.4,None,2025-02-19 11h26.44.822211 -0500,
73,73,0,filler_square,None,None,None,None,None,None,None,None,None,None,1,1.4375836849212646,None,,,,,0,0,0,0,0,73,73,183,141.4875991344452,,,,,,,,,,,,,,,,,,,,,,,,,,,,,,,,,,,,,,,,,,,,,,,,,,,,,,,,,,,,,,,,,,,,,,,,,,,,,,,,,108.29834692339065,79.54490045886058,84.22457664131213,122.90867526238247,126.97207598900808,126.97207598900808,4.0,4.1,-197,-283,0,-7,221,-258,141.46968698501587,141.46976280212402,141.47307682037354,141.4875991344452,141.63509345054626,141.63509345054626,141.63509345054626,141.63509345054626,141.63509345054626,141.63509345054626,141.63509345054626,142.93575644493103,1,1.4375836849212646,None,,,,,,,,,,,,,,,,,,36,6,2025-02-19_11h25.54.398,comp,2024.2.4,None,2025-02-19 11h26.44.822211 -0500,
74,74,0,catch,None,None,None,None,None,None,None,None,None,None,2,0.4284992218017578,None,,,,,0,0,0,0,0,74,74,123,142.95180487632751,,,,,,,,,,,,,,,,,,,,,,,,,,,,,,,,,,,,,,,,,,,,,,,,,,,,,,,,,,,,,,,,,,,,,,,,,,,,,,,,,133,192,112,78,79,111,4.0,4.2,-231,-3,0,-253,190,1,142.93766903877258,142.93774700164795,142.94119119644165,142.95180487632751,143.1008710861206,143.1008710861206,143.1008710861206,143.1008710861206,143.1008710861206,143.1008710861206,143.1008710861206,143.39534068107605,2,0.4284992218017578,None,,,,,,,,,,,,,,,,,,36,6,2025-02-19_11h25.54.398,comp,2024.2.4,None,2025-02-19 11h26.44.822211 -0500,
75,75,0,critical,wdh,20.0,4.0,lower,57.0,133.0,78.0,78.0,133.0,57.0,3,0.41985344886779785,None,,,,,0,0,0,0,0,75,75,82,143.41631507873535,,,,,,,,,,,,,,,,,,,,,,,,,,,,,,,,,,,,,,,,,,,,,,,,,,,,,,,,,,,,,,,,,,,,,,,,,,,,,,,,,57.0,133.0,78.0,78.0,133.0,57.0,4.0,4.2,-202,10,0,-275,164,15,143.39699530601501,143.39710068702698,143.4005470275879,143.41631507873535,143.55287194252014,143.55287194252014,143.55287194252014,143.55287194252014,143.55287194252014,143.55287194252014,143.55287194252014,143.8510549068451,3,0.41985344886779785,None,,,,,,,,,,,,,,,,,,36,6,2025-02-19_11h25.54.398,comp,2024.2.4,None,2025-02-19 11h26.44.822211 -0500,
76,76,0,filler_square,None,None,None,None,None,None,None,None,None,None,3,0.4974682331085205,None,,,,,0,0,0,0,0,76,76,193,143.86749029159546,,,,,,,,,,,,,,,,,,,,,,,,,,,,,,,,,,,,,,,,,,,,,,,,,,,,,,,,,,,,,,,,,,,,,,,,,,,,,,,,,192.16834186477814,192.16834186477814,168.05941912718092,57.42261048102012,184.3815918647159,83.73871489758939,2.1,2.12,-221,-282,0,-271,167,270,143.8529086112976,143.8529829978943,143.85625290870667,143.86749029159546,144.01872777938843,144.01872777938843,144.01872777938843,144.01872777938843,144.01872777938843,144.01872777938843,144.01872777938843,144.37351369857788,3,0.4974682331085205,None,,,,,,,,,,,,,,,,,,36,6,2025-02-19_11h25.54.398,comp,2024.2.4,None,2025-02-19 11h26.44.822211 -0500,
77,77,0,filler_random,None,None,None,None,None,None,None,None,None,None,2,0.3487262725830078,None,,,,,0,0,0,0,0,77,77,147,144.39152431488037,,,,,,,,,,,,,,,,,,,,,,,,,,,,,,,,,,,,,,,,,,,,,,,,,,,,,,,,,,,,,,,,,,,,,,,,,,,,,,,,,96.93988220200487,79.22001779770709,141.23119911873238,59.6932269451582,120.55202641088165,195.75072632929403,2.2,2.21,-165,-262,0,255,224,278,144.37581300735474,144.37589287757874,144.3788731098175,144.39152431488037,144.53688502311707,144.53688502311707,144.53688502311707,144.53688502311707,144.53688502311707,144.53688502311707,144.53688502311707,144.74928903579712,2,0.3487262725830078,None,,,,,,,,,,,,,,,,,,36,6,2025-02-19_11h25.54.398,comp,2024.2.4,None,2025-02-19 11h26.44.822211 -0500,
78,78,0,filler_square,None,None,None,None,None,None,None,None,None,None,1,0.33297085762023926,None,,,,,0,0,0,0,0,78,78,174,144.76718735694885,,,,,,,,,,,,,,,,,,,,,,,,,,,,,,,,,,,,,,,,,,,,,,,,,,,,,,,,,,,,,,,,,,,,,,,,,,,,,,,,,94.25413887815205,63.91791574369731,160.69192817981963,160.69192817981963,79.5733199227434,115.88574344212617,2.1,2.11,-208,272,0,269,234,-282,144.75107979774475,144.7511556148529,144.754075050354,144.76718735694885,144.90222477912903,144.90222477912903,144.90222477912903,144.90222477912903,144.90222477912903,144.90222477912903,144.90222477912903,145.10278606414795,1,0.33297085762023926,None,,,,,,,,,,,,,,,,,,36,6,2025-02-19_11h25.54.398,comp,2024.2.4,None,2025-02-19 11h26.44.822211 -0500,
79,79,0,filler_square,None,None,None,None,None,None,None,None,None,None,2,0.3974010944366455,None,,,,,0,0,0,0,0,79,79,202,145.1188726425171,,,,,,,,,,,,,,,,,,,,,,,,,,,,,,,,,,,,,,,,,,,,,,,,,,,,,,,,,,,,,,,,,,,,,,,,,,,,,,,,,99.36003998605327,73.74977728405648,130.88392203322172,99.07342473491889,137.10122627624503,137.10122627624503,2.1,2.11,-182,272,0,261,214,-280,145.10464358329773,145.10472440719604,145.10819172859192,145.1188726425171,145.27012372016907,145.27012372016907,145.27012372016907,145.27012372016907,145.27012372016907,145.27012372016907,145.27012372016907,145.52072262763977,2,0.3974010944366455,None,,,,,,,,,,,,,,,,,,36,6,2025-02-19_11h25.54.398,comp,2024.2.4,None,2025-02-19 11h26.44.822211 -0500,
80,80,0,filler_random,None,None,None,None,None,None,None,None,None,None,1,0.31569790840148926,None,,,,,0,0,0,0,0,80,80,144,145.53723406791687,,,,,,,,,,,,,,,,,,,,,,,,,,,,,,,,,,,,,,,,,,,,,,,,,,,,,,,,,,,,,,,,,,,,,,,,,,,,,,,,,67.60048017298341,116.4886766726909,165.1426246303307,172.27470152741847,137.65594001686145,183.94567355068548,4.0,4.1,-240,-258,0,-19,274,-269,145.52245330810547,145.52254676818848,145.52665185928345,145.53723406791687,145.68370747566223,145.68370747566223,145.68370747566223,145.68370747566223,145.68370747566223,145.68370747566223,145.68370747566223,145.85848379135132,1,0.31569790840148926,None,,,,,,,,,,,,,,,,,,36,6,2025-02-19_11h25.54.398,comp,2024.2.4,None,2025-02-19 11h26.44.822211 -0500,
81,81,0,critical,hwd,20.0,2.1,upper,200.0,125.0,125.0,200.0,141.0,141.0,3,0.32256054878234863,None,,,,,0,0,0,0,0,81,81,43,145.87379455566406,,,,,,,,,,,,,,,,,,,,,,,,,,,,,,,,,,,,,,,,,,,,,,,,,,,,,,,,,,,,,,,,,,,,,,,,,,,,,,,,,200.0,125.0,125.0,200.0,141.0,141.0,2.1,2.12,-258,-256,0,-288,266,264,145.86008262634277,145.8601589202881,145.86317014694214,145.87379455566406,146.01977562904358,146.01977562904358,146.01977562904358,146.01977562904358,146.01977562904358,146.01977562904358,146.01977562904358,146.20758199691772,3,0.32256054878234863,None,,,,,,,,,,,,,,,,,,36,6,2025-02-19_11h25.54.398,comp,2024.2.4,None,2025-02-19 11h26.44.822211 -0500,
82,82,0,critical,whd,20.0,4.0,upper,125.0,200.0,200.0,125.0,141.0,141.0,2,0.3910410404205322,None,,,,,0,0,0,0,0,82,82,95,146.22272777557373,,,,,,,,,,,,,,,,,,,,,,,,,,,,,,,,,,,,,,,,,,,,,,,,,,,,,,,,,,,,,,,,,,,,,,,,,,,,,,,,,125.0,200.0,200.0,125.0,141.0,141.0,4.0,4.2,-258,17,0,-266,229,-18,146.20919489860535,146.2092719078064,146.21225261688232,146.22272777557373,146.36974000930786,146.36974000930786,146.36974000930786,146.36974000930786,146.36974000930786,146.36974000930786,146.36974000930786,146.62059020996094,2,0.3910410404205322,None,,,,,,,,,,,,,,,,,,36,6,2025-02-19_11h25.54.398,comp,2024.2.4,None,2025-02-19 11h26.44.822211 -0500,
83,83,0,critical,wdh,20.0,1.0,lower,57.0,133.0,78.0,78.0,133.0,57.0,1,0.36669421195983887,None,,,,,0,0,0,0,0,83,83,78,146.63815355300903,,,,,,,,,,,,,,,,,,,,,,,,,,,,,,,,,,,,,,,,,,,,,,,,,,,,,,,,,,,,,,,,,,,,,,,,,,,,,,,,,57.0,133.0,78.0,78.0,133.0,57.0,1.0,1.3,278,-264,480,-273,644,-288,146.62212562561035,146.62220406532288,146.6252703666687,146.63815355300903,146.78746104240417,146.78746104240417,146.78746104240417,146.78746104240417,146.78746104240417,146.78746104240417,146.78746104240417,147.00750398635864,1,0.36669421195983887,None,,,,,,,,,,,,,,,,,,36,6,2025-02-19_11h25.54.398,comp,2024.2.4,None,2025-02-19 11h26.44.822211 -0500,
84,84,0,critical,hdw,20.0,4.0,upper,200.0,125.0,141.0,141.0,125.0,200.0,2,0.4367387294769287,None,,,,,0,0,0,0,0,84,84,119,147.02411437034607,,,,,,,,,,,,,,,,,,,,,,,,,,,,,,,,,,,,,,,,,,,,,,,,,,,,,,,,,,,,,,,,,,,,,,,,,,,,,,,,,200.0,125.0,141.0,141.0,125.0,200.0,4.0,4.1,-229,-272,0,-9,266,-280,147.0091528892517,147.00923109054565,147.01255559921265,147.02411437034607,147.1709804534912,147.1709804534912,147.1709804534912,147.1709804534912,147.1709804534912,147.1709804534912,147.1709804534912,147.47029399871826,2,0.4367387294769287,None,,,,,,,,,,,,,,,,,,36,6,2025-02-19_11h25.54.398,comp,2024.2.4,None,2025-02-19 11h26.44.822211 -0500,
85,85,0,critical,wdh,35.0,1.0,upper,125.0,200.0,127.0,127.0,200.0,125.0,3,0.36611104011535645,None,,,,,0,0,0,0,0,85,85,73,147.486181974411,,,,,,,,,,,,,,,,,,,,,,,,,,,,,,,,,,,,,,,,,,,,,,,,,,,,,,,,,,,,,,,,,,,,,,,,,,,,,,,,,125.0,200.0,127.0,127.0,200.0,125.0,1.0,1.2,-260,-19,0,-14,222,7,147.47171831130981,147.4718141555786,147.47528648376465,147.486181974411,147.63285422325134,147.63285422325134,147.63285422325134,147.63285422325134,147.63285422325134,147.63285422325134,147.63285422325134,147.85450887680054,3,0.36611104011535645,None,,,,,,,,,,,,,,,,,,36,6,2025-02-19_11h25.54.398,comp,2024.2.4,None,2025-02-19 11h26.44.822211 -0500,
86,86,0,critical,dwh,35.0,3.0,upper,127.0,127.0,125.0,200.0,200.0,125.0,2,0.4589102268218994,None,,,,,0,0,0,0,0,86,86,63,147.87345814704895,,,,,,,,,,,,,,,,,,,,,,,,,,,,,,,,,,,,,,,,,,,,,,,,,,,,,,,,,,,,,,,,,,,,,,,,,,,,,,,,,127.0,127.0,125.0,200.0,200.0,125.0,3.0,3.2,-260,-270,0,-1,258,266,147.85601925849915,147.8560926914215,147.859060049057,147.87345814704895,148.025461435318,148.025461435318,148.025461435318,148.025461435318,148.025461435318,148.025461435318,148.025461435318,148.3378496170044,2,0.4589102268218994,None,,,,,,,,,,,,,,,,,,36,6,2025-02-19_11h25.54.398,comp,2024.2.4,None,2025-02-19 11h26.44.822211 -0500,
87,87,0,critical,dwh,20.0,4.0,upper,141.0,141.0,125.0,200.0,200.0,125.0,1,0.33069586753845215,None,,,,,0,0,0,0,0,87,87,71,148.35349822044373,,,,,,,,,,,,,,,,,,,,,,,,,,,,,,,,,,,,,,,,,,,,,,,,,,,,,,,,,,,,,,,,,,,,,,,,,,,,,,,,,141.0,141.0,125.0,200.0,200.0,125.0,4.0,4.2,-266,-11,0,-283,258,7,148.3393223285675,148.33939838409424,148.342529296875,148.35349822044373,148.49382185935974,148.49382185935974,148.49382185935974,148.49382185935974,148.49382185935974,148.49382185935974,148.49382185935974,148.6872386932373,1,0.33069586753845215,None,,,,,,,,,,,,,,,,,,36,6,2025-02-19_11h25.54.398,comp,2024.2.4,None,2025-02-19 11h26.44.822211 -0500,
88,88,0,filler_square,None,None,None,None,None,None,None,None,None,None,2,0.25254344940185547,None,,,,,0,0,0,0,0,88,88,181,148.70355987548828,,,,,,,,,,,,,,,,,,,,,,,,,,,,,,,,,,,,,,,,,,,,,,,,,,,,,,,,,,,,,,,,,,,,,,,,,,,,,,,,,154.9957448440588,154.9957448440588,135.80463642856034,150.69129136155277,106.12800025831217,113.71152351351694,1.0,1.3,231,-267,480,-276,708,-262,148.6892533302307,148.6893322467804,148.69283962249756,148.70355987548828,148.84081435203552,148.84081435203552,148.84081435203552,148.84081435203552,148.84081435203552,148.84081435203552,148.84081435203552,148.9728057384491,2,0.25254344940185547,None,,,,,,,,,,,,,,,,,,36,6,2025-02-19_11h25.54.398,comp,2024.2.4,None,2025-02-19 11h26.44.822211 -0500,
89,89,0,critical,hdw,35.0,4.0,upper,200.0,125.0,127.0,127.0,125.0,200.0,3,0.3367891311645508,None,,,,,0,0,0,0,0,89,89,113,148.98836469650269,,,,,,,,,,,,,,,,,,,,,,,,,,,,,,,,,,,,,,,,,,,,,,,,,,,,,,,,,,,,,,,,,,,,,,,,,,,,,,,,,200.0,125.0,127.0,127.0,125.0,200.0,4.0,4.1,-222,-267,0,-3,260,-278,148.97442054748535,148.9744963645935,148.97805190086365,148.98836469650269,149.14009523391724,149.14009523391724,149.14009523391724,149.14009523391724,149.14009523391724,149.14009523391724,149.14009523391724,149.33180141448975,3,0.3367891311645508,None,,,,,,,,,,,,,,,,,,36,6,2025-02-19_11h25.54.398,comp,2024.2.4,None,2025-02-19 11h26.44.822211 -0500,
90,90,0,filler_square,None,None,None,None,None,None,None,None,None,None,2,0.36826395988464355,None,,,,,0,0,0,0,0,90,90,195,149.34873127937317,,,,,,,,,,,,,,,,,,,,,,,,,,,,,,,,,,,,,,,,,,,,,,,,,,,,,,,,,,,,,,,,,,,,,,,,,,,,,,,,,69.18372321633876,126.03797282045251,100.24768453866022,74.90976947364749,145.20683852555229,145.20683852555229,4.0,4.1,-196,-259,0,-13,206,-251,149.33358907699585,149.33368945121765,149.33660197257996,149.34873127937317,149.48759627342224,149.48759627342224,149.48759627342224,149.48759627342224,149.48759627342224,149.48759627342224,149.48759627342224,149.72242951393127,2,0.36826395988464355,None,,,,,,,,,,,,,,,,,,36,6,2025-02-19_11h25.54.398,comp,2024.2.4,None,2025-02-19 11h26.44.822211 -0500,
91,91,0,critical,dhw,35.0,3.0,lower,70.0,70.0,133.0,57.0,57.0,133.0,1,0.2752418518066406,None,,,,,0,0,0,0,0,91,91,50,149.73946475982666,,,,,,,,,,,,,,,,,,,,,,,,,,,,,,,,,,,,,,,,,,,,,,,,,,,,,,,,,,,,,,,,,,,,,,,,,,,,,,,,,70.0,70.0,133.0,57.0,57.0,133.0,3.0,3.2,-160,-258,0,7,191,280,149.72402095794678,149.7241461277008,149.72802925109863,149.73946475982666,149.88757014274597,149.88757014274597,149.88757014274597,149.88757014274597,149.88757014274597,149.88757014274597,149.88757014274597,150.02042055130005,1,0.2752418518066406,None,,,,,,,,,,,,,,,,,,36,6,2025-02-19_11h25.54.398,comp,2024.2.4,None,2025-02-19 11h26.44.822211 -0500,
92,92,0,filler_square,None,None,None,None,None,None,None,None,None,None,2,0.347304105758667,None,,,,,0,0,0,0,0,92,92,178,150.041086435318,,,,,,,,,,,,,,,,,,,,,,,,,,,,,,,,,,,,,,,,,,,,,,,,,,,,,,,,,,,,,,,,,,,,,,,,,,,,,,,,,69.23190692517716,57.71490040353481,81.49310471760823,81.49310471760823,73.20195551174848,70.58215241731511,1.0,1.2,-166,2,0,-13,172,4,150.02213549613953,150.02221274375916,150.02542281150818,150.041086435318,150.18792128562927,150.18792128562927,150.18792128562927,150.18792128562927,150.18792128562927,150.18792128562927,150.18792128562927,150.39047169685364,2,0.347304105758667,None,,,,,,,,,,,,,,,,,,36,6,2025-02-19_11h25.54.398,comp,2024.2.4,None,2025-02-19 11h26.44.822211 -0500,
93,93,0,filler_random,None,None,None,None,None,None,None,None,None,None,2,0.34223389625549316,None,,,,,0,0,0,0,0,93,93,156,150.40652894973755,,,,,,,,,,,,,,,,,,,,,,,,,,,,,,,,,,,,,,,,,,,,,,,,,,,,,,,,,,,,,,,,,,,,,,,,,,,,,,,,,192.30040053760385,196.15263878574106,75.82512482329813,185.196709011489,81.23105253273364,86.65444982935995,2.1,2.11,-287,260,0,267,232,-260,150.39241242408752,150.39248943328857,150.39581561088562,150.40652894973755,150.55715107917786,150.55715107917786,150.55715107917786,150.55715107917786,150.55715107917786,150.55715107917786,150.55715107917786,150.75296092033386,2,0.34223389625549316,None,,,,,,,,,,,,,,,,,,36,6,2025-02-19_11h25.54.398,comp,2024.2.4,None,2025-02-19 11h26.44.822211 -0500,
94,94,0,filler_random,None,None,None,None,None,None,None,None,None,None,3,0.2824256420135498,None,,,,,0,0,0,0,0,94,94,141,150.7697594165802,,,,,,,,,,,,,,,,,,,,,,,,,,,,,,,,,,,,,,,,,,,,,,,,,,,,,,,,,,,,,,,,,,,,,,,,,,,,,,,,,183.95728919073213,187.96141054088758,165.04750566998695,73.75863228407795,90.51296806056925,171.17307583272708,1.0,1.3,253,-278,480,-288,698,-284,150.75487279891968,150.75495171546936,150.75822281837463,150.7697594165802,150.92146754264832,150.92146754264832,150.92146754264832,150.92146754264832,150.92146754264832,150.92146754264832,150.92146754264832,151.05534386634827,3,0.2824256420135498,None,,,,,,,,,,,,,,,,,,36,6,2025-02-19_11h25.54.398,comp,2024.2.4,None,2025-02-19 11h26.44.822211 -0500,
95,95,0,filler_random,None,None,None,None,None,None,None,None,None,None,2,0.32578492164611816,None,,,,,0,0,0,0,0,95,95,165,151.07104778289795,,,,,,,,,,,,,,,,,,,,,,,,,,,,,,,,,,,,,,,,,,,,,,,,,,,,,,,,,,,,,,,,,,,,,,,,,,,,,,,,,65.88143572538915,121.64167036253885,192.67295240772984,96.88570817433347,143.16439532106273,58.821828181276544,2.2,2.21,-205,-254,0,258,174,261,151.0570628643036,151.0571391582489,151.0604636669159,151.07104778289795,151.22350358963013,151.22350358963013,151.22350358963013,151.22350358963013,151.22350358963013,151.22350358963013,151.22350358963013,151.4054605960846,2,0.32578492164611816,None,,,,,,,,,,,,,,,,,,36,6,2025-02-19_11h25.54.398,comp,2024.2.4,None,2025-02-19 11h26.44.822211 -0500,
96,96,0,critical,dwh,35.0,1.0,lower,70.0,70.0,57.0,133.0,133.0,57.0,1,0.2871432304382324,None,,,,,0,0,0,0,0,96,96,60,151.42115902900696,,,,,,,,,,,,,,,,,,,,,,,,,,,,,,,,,,,,,,,,,,,,,,,,,,,,,,,,,,,,,,,,,,,,,,,,,,,,,,,,,70.0,70.0,57.0,133.0,133.0,57.0,1.0,1.1,-678,266,-480,250,-289,258,151.40704250335693,151.40711665153503,151.4105987548828,151.42115902900696,151.57410550117493,151.57410550117493,151.57410550117493,151.57410550117493,151.57410550117493,151.57410550117493,151.57410550117493,151.72148442268372,1,0.2871432304382324,None,,,,,,,,,,,,,,,,,,36,6,2025-02-19_11h25.54.398,comp,2024.2.4,None,2025-02-19 11h26.44.822211 -0500,
97,97,0,filler_square,None,None,None,None,None,None,None,None,None,None,2,0.2987635135650635,None,,,,,0,0,0,0,0,97,97,199,151.73738884925842,,,,,,,,,,,,,,,,,,,,,,,,,,,,,,,,,,,,,,,,,,,,,,,,,,,,,,,,,,,,,,,,,,,,,,,,,,,,,,,,,131.84142616235593,110.29382130109605,57.52729628472425,58.781951652527006,137.8737271928847,137.8737271928847,4.0,4.1,-181,-284,0,-14,194,-263,151.7235565185547,151.72366642951965,151.72715973854065,151.73738884925842,151.88987469673157,151.88987469673157,151.88987469673157,151.88987469673157,151.88987469673157,151.88987469673157,151.88987469673157,152.05409240722656,2,0.2987635135650635,None,,,,,,,,,,,,,,,,,,36,6,2025-02-19_11h25.54.398,comp,2024.2.4,None,2025-02-19 11h26.44.822211 -0500,
98,98,0,catch,None,None,None,None,None,None,None,None,None,None,3,0.3427419662475586,None,,,,,0,0,0,0,0,98,98,122,152.06994652748108,,,,,,,,,,,,,,,,,,,,,,,,,,,,,,,,,,,,,,,,,,,,,,,,,,,,,,,,,,,,,,,,,,,,,,,,,,,,,,,,,77,113,155,170,78,112,3.0,3.1,-238,271,0,-19,237,-259,152.05619502067566,152.05626916885376,152.05967235565186,152.06994652748108,152.21068215370178,152.21068215370178,152.21068215370178,152.21068215370178,152.21068215370178,152.21068215370178,152.21068215370178,152.43079376220703,3,0.3427419662475586,None,,,,,,,,,,,,,,,,,,36,6,2025-02-19_11h25.54.398,comp,2024.2.4,None,2025-02-19 11h26.44.822211 -0500,
99,99,0,critical,wdh,20.0,2.1,upper,125.0,200.0,141.0,141.0,200.0,125.0,2,0.3149893283843994,None,,,,,0,0,0,0,0,99,99,11,152.44983625411987,,,,,,,,,,,,,,,,,,,,,,,,,,,,,,,,,,,,,,,,,,,,,,,,,,,,,,,,,,,,,,,,,,,,,,,,,,,,,,,,,125.0,200.0,141.0,141.0,200.0,125.0,2.1,2.11,-266,275,0,270,229,-285,152.4323387145996,152.43242049217224,152.43534994125366,152.44983625411987,152.5854971408844,152.5854971408844,152.5854971408844,152.5854971408844,152.5854971408844,152.5854971408844,152.5854971408844,152.77094984054565,2,0.3149893283843994,None,,,,,,,,,,,,,,,,,,36,6,2025-02-19_11h25.54.398,comp,2024.2.4,None,2025-02-19 11h26.44.822211 -0500,
100,100,0,critical,whd,35.0,2.1,lower,57.0,133.0,133.0,57.0,70.0,70.0,1,0.3027379512786865,None,,,,,0,0,0,0,0,100,100,36,152.78959798812866,,,,,,,,,,,,,,,,,,,,,,,,,,,,,,,,,,,,,,,,,,,,,,,,,,,,,,,,,,,,,,,,,,,,,,,,,,,,,,,,,57.0,133.0,133.0,57.0,70.0,70.0,2.1,2.11,-191,272,0,270,160,-256,152.77249836921692,152.7725749015808,152.77582550048828,152.78959798812866,152.93871593475342,152.93871593475342,152.93871593475342,152.93871593475342,152.93871593475342,152.93871593475342,152.93871593475342,153.1043348312378,1,0.3027379512786865,None,,,,,,,,,,,,,,,,,,36,6,2025-02-19_11h25.54.398,comp,2024.2.4,None,2025-02-19 11h26.44.822211 -0500,
101,101,0,critical,hwd,20.0,1.0,lower,133.0,57.0,57.0,133.0,78.0,78.0,2,0.27579355239868164,None,,,,,0,0,0,0,0,101,101,102,153.12044715881348,,,,,,,,,,,,,,,,,,,,,,,,,,,,,,,,,,,,,,,,,,,,,,,,,,,,,,,,,,,,,,,,,,,,,,,,,,,,,,,,,133.0,57.0,57.0,133.0,78.0,78.0,1.0,1.2,-191,0,0,-15,202,-11,153.10584902763367,153.10592222213745,153.1092050075531,153.12044715881348,153.2747507095337,153.2747507095337,153.2747507095337,153.2747507095337,153.2747507095337,153.2747507095337,153.2747507095337,153.41043424606323,2,0.27579355239868164,None,,,,,,,,,,,,,,,,,,36,6,2025-02-19_11h25.54.398,comp,2024.2.4,None,2025-02-19 11h26.44.822211 -0500,
102,102,0,critical,wdh,35.0,4.0,lower,57.0,133.0,70.0,70.0,133.0,57.0,3,0.400606632232666,None,,,,,0,0,0,0,0,102,102,76,153.4276087284088,,,,,,,,,,,,,,,,,,,,,,,,,,,,,,,,,,,,,,,,,,,,,,,,,,,,,,,,,,,,,,,,,,,,,,,,,,,,,,,,,57.0,133.0,70.0,70.0,133.0,57.0,4.0,4.1,-198,-252,0,11,160,-285,153.41195273399353,153.41202855110168,153.41499948501587,153.4276087284088,153.56969785690308,153.56969785690308,153.56969785690308,153.56969785690308,153.56969785690308,153.56969785690308,153.56969785690308,153.84402012825012,3,0.400606632232666,None,,,,,,,,,,,,,,,,,,36,6,2025-02-19_11h25.54.398,comp,2024.2.4,None,2025-02-19 11h26.44.822211 -0500,
103,103,0,filler_random,None,None,None,None,None,None,None,None,None,None,2,0.3244473934173584,None,,,,,0,0,0,0,0,103,103,150,153.86399722099304,,,,,,,,,,,,,,,,,,,,,,,,,,,,,,,,,,,,,,,,,,,,,,,,,,,,,,,,,,,,,,,,,,,,,,,,,,,,,,,,,191.61391384050336,115.6783004927481,144.33649102448075,80.20253174416642,141.3324028500266,128.79098009330883,2.2,2.22,-194,283,0,-278,200,-269,153.84569597244263,153.84577059745789,153.8487389087677,153.86399722099304,154.0057725906372,154.0057725906372,154.0057725906372,154.0057725906372,154.0057725906372,154.0057725906372,154.0057725906372,154.1920919418335,2,0.3244473934173584,None,,,,,,,,,,,,,,,,,,36,6,2025-02-19_11h25.54.398,comp,2024.2.4,None,2025-02-19 11h26.44.822211 -0500,
104,104,0,filler_random,None,None,None,None,None,None,None,None,None,None,1,0.31881189346313477,None,,,,,0,0,0,0,0,104,104,155,154.21343731880188,,,,,,,,,,,,,,,,,,,,,,,,,,,,,,,,,,,,,,,,,,,,,,,,,,,,,,,,,,,,,,,,,,,,,,,,,,,,,,,,,128.11851044855382,73.75183357837872,97.91115080337826,107.5604423465457,86.08576987184719,78.18835341654108,2.1,2.11,-187,266,0,286,189,-273,154.19399428367615,154.19407200813293,154.19795417785645,154.21343731880188,154.36213660240173,154.36213660240173,154.36213660240173,154.36213660240173,154.36213660240173,154.36213660240173,154.36213660240173,154.54467749595642,1,0.31881189346313477,None,,,,,,,,,,,,,,,,,,36,6,2025-02-19_11h25.54.398,comp,2024.2.4,None,2025-02-19 11h26.44.822211 -0500,
105,105,0,critical,dwh,35.0,2.1,lower,70.0,70.0,57.0,133.0,133.0,57.0,2,0.2672154903411865,None,,,,,0,0,0,0,0,105,105,28,154.5610327720642,,,,,,,,,,,,,,,,,,,,,,,,,,,,,,,,,,,,,,,,,,,,,,,,,,,,,,,,,,,,,,,,,,,,,,,,,,,,,,,,,70.0,70.0,57.0,133.0,133.0,57.0,2.1,2.12,-198,-274,0,-258,191,261,154.54633355140686,154.5464403629303,154.54980421066284,154.5610327720642,154.70888948440552,154.70888948440552,154.70888948440552,154.70888948440552,154.70888948440552,154.70888948440552,154.70888948440552,154.84153532981873,2,0.2672154903411865,None,,,,,,,,,,,,,,,,,,36,6,2025-02-19_11h25.54.398,comp,2024.2.4,None,2025-02-19 11h26.44.822211 -0500,
106,106,0,critical,hdw,35.0,2.1,lower,133.0,57.0,70.0,70.0,57.0,133.0,3,0.4916365146636963,None,,,,,0,0,0,0,0,106,106,44,154.85723567008972,,,,,,,,,,,,,,,,,,,,,,,,,,,,,,,,,,,,,,,,,,,,,,,,,,,,,,,,,,,,,,,,,,,,,,,,,,,,,,,,,133.0,57.0,70.0,70.0,57.0,133.0,2.1,2.12,-160,-260,0,-261,198,255,154.84321641921997,154.84329056739807,154.84690976142883,154.85723567008972,155.00667142868042,155.00667142868042,155.00667142868042,155.00667142868042,155.00667142868042,155.00667142868042,155.00667142868042,155.35645747184753,3,0.4916365146636963,None,,,,,,,,,,,,,,,,,,36,6,2025-02-19_11h25.54.398,comp,2024.2.4,None,2025-02-19 11h26.44.822211 -0500,
107,107,0,critical,whd,20.0,3.0,lower,57.0,133.0,133.0,57.0,78.0,78.0,3,1.7793970108032227,None,,,,,0,0,0,0,0,107,107,92,155.37685775756836,,,,,,,,,,,,,,,,,,,,,,,,,,,,,,,,,,,,,,,,,,,,,,,,,,,,,,,,,,,,,,,,,,,,,,,,,,,,,,,,,57.0,133.0,133.0,57.0,78.0,78.0,3.0,3.1,-191,284,0,17,164,-260,155.35800504684448,155.35807919502258,155.36120510101318,155.37685775756836,155.52951574325562,155.52951574325562,155.52951574325562,155.52951574325562,155.52951574325562,155.52951574325562,155.52951574325562,157.17279028892517,3,1.7793970108032227,None,,,,,,,,,,,,,,,,,,36,6,2025-02-19_11h25.54.398,comp,2024.2.4,None,2025-02-19 11h26.44.822211 -0500,
108,108,0,filler_square,None,None,None,None,None,None,None,None,None,None,3,1.0869202613830566,None,,,,,0,0,0,0,0,108,108,197,157.18936228752136,,,,,,,,,,,,,,,,,,,,,,,,,,,,,,,,,,,,,,,,,,,,,,,,,,,,,,,,,,,,,,,,,,,,,,,,,,,,,,,,,59.214747575452144,97.00155068178458,104.74445267920896,57.735814486239654,159.75741581326366,159.75741581326366,1.0,1.3,307,-266,480,-287,685,-263,157.17479944229126,157.17487335205078,157.17820382118225,157.18936228752136,157.34424233436584,157.34424233436584,157.34424233436584,157.34424233436584,157.34424233436584,157.34424233436584,157.34424233436584,158.27848720550537,3,1.0869202613830566,None,,,,,,,,,,,,,,,,,,36,6,2025-02-19_11h25.54.398,comp,2024.2.4,None,2025-02-19 11h26.44.822211 -0500,
109,109,0,critical,hwd,20.0,2.1,lower,133.0,57.0,57.0,133.0,78.0,78.0,3,1.2276160717010498,None,,,,,0,0,0,0,0,109,109,42,158.29661417007446,,,,,,,,,,,,,,,,,,,,,,,,,,,,,,,,,,,,,,,,,,,,,,,,,,,,,,,,,,,,,,,,,,,,,,,,,,,,,,,,,133.0,57.0,57.0,133.0,78.0,78.0,2.1,2.11,-191,263,0,258,202,-254,158.28015089035034,158.28022694587708,158.28354477882385,158.29661417007446,158.44064927101135,158.44064927101135,158.44064927101135,158.44064927101135,158.44064927101135,158.44064927101135,158.44064927101135,159.5401256084442,3,1.2276160717010498,None,,,,,,,,,,,,,,,,,,36,6,2025-02-19_11h25.54.398,comp,2024.2.4,None,2025-02-19 11h26.44.822211 -0500,
110,110,0,critical,hdw,35.0,4.0,lower,133.0,57.0,70.0,70.0,57.0,133.0,2,0.9206624031066895,None,,,,,0,0,0,0,0,110,110,112,159.55566143989563,,,,,,,,,,,,,,,,,,,,,,,,,,,,,,,,,,,,,,,,,,,,,,,,,,,,,,,,,,,,,,,,,,,,,,,,,,,,,,,,,133.0,57.0,70.0,70.0,57.0,133.0,4.0,4.1,-160,-261,0,-14,198,-272,159.54174494743347,159.5418186187744,159.54520773887634,159.55566143989563,159.70598769187927,159.70598769187927,159.70598769187927,159.70598769187927,159.70598769187927,159.70598769187927,159.70598769187927,160.4902491569519,2,0.9206624031066895,None,,,,,,,,,,,,,,,,,,36,6,2025-02-19_11h25.54.398,comp,2024.2.4,None,2025-02-19 11h26.44.822211 -0500,
111,111,0,critical,wdh,20.0,4.0,upper,125.0,200.0,141.0,141.0,200.0,125.0,1,1.0849390029907227,None,,,,,0,0,0,0,0,111,111,83,160.5118284225464,,,,,,,,,,,,,,,,,,,,,,,,,,,,,,,,,,,,,,,,,,,,,,,,,,,,,,,,,,,,,,,,,,,,,,,,,,,,,,,,,125.0,200.0,141.0,141.0,200.0,125.0,4.0,4.2,-266,17,0,-266,229,-17,160.49172806739807,160.49180245399475,160.49493765830994,160.5118284225464,160.6577696800232,160.6577696800232,160.6577696800232,160.6577696800232,160.6577696800232,160.6577696800232,160.6577696800232,161.6123559474945,1,1.0849390029907227,None,,,,,,,,,,,,,,,,,,36,6,2025-02-19_11h25.54.398,comp,2024.2.4,None,2025-02-19 11h26.44.822211 -0500,
112,112,0,critical,dwh,20.0,3.0,upper,141.0,141.0,125.0,200.0,200.0,125.0,3,1.4163603782653809,None,,,,,0,0,0,0,0,112,112,69,161.62809705734253,,,,,,,,,,,,,,,,,,,,,,,,,,,,,,,,,,,,,,,,,,,,,,,,,,,,,,,,,,,,,,,,,,,,,,,,,,,,,,,,,141.0,141.0,125.0,200.0,200.0,125.0,3.0,3.1,-266,266,0,13,258,-278,161.61398434638977,161.61406135559082,161.61705255508423,161.62809705734253,161.77475380897522,161.77475380897522,161.77475380897522,161.77475380897522,161.77475380897522,161.77475380897522,161.77475380897522,163.06367254257202,3,1.4163603782653809,None,,,,,,,,,,,,,,,,,,36,6,2025-02-19_11h25.54.398,comp,2024.2.4,None,2025-02-19 11h26.44.822211 -0500,
113,113,0,critical,dhw,20.0,4.0,upper,141.0,141.0,200.0,125.0,125.0,200.0,2,1.0328729152679443,None,,,,,0,0,0,0,0,113,113,59,163.08342742919922,,,,,,,,,,,,,,,,,,,,,,,,,,,,,,,,,,,,,,,,,,,,,,,,,,,,,,,,,,,,,,,,,,,,,,,,,,,,,,,,,141.0,141.0,200.0,125.0,125.0,200.0,4.0,4.2,-229,-11,0,-273,258,-11,163.06519484519958,163.0652687549591,163.06825304031372,163.08342742919922,163.2252140045166,163.2252140045166,163.2252140045166,163.2252140045166,163.2252140045166,163.2252140045166,163.2252140045166,164.1317811012268,2,1.0328729152679443,None,,,,,,,,,,,,,,,,,,36,6,2025-02-19_11h25.54.398,comp,2024.2.4,None,2025-02-19 11h26.44.822211 -0500,
114,114,0,filler_random,None,None,None,None,None,None,None,None,None,None,3,0.8654811382293701,None,,,,,0,0,0,0,0,114,114,132,164.14672136306763,,,,,,,,,,,,,,,,,,,,,,,,,,,,,,,,,,,,,,,,,,,,,,,,,,,,,,,,,,,,,,,,,,,,,,,,,,,,,,,,,134.00572192338473,179.3888463620741,159.44360384159938,112.70296675885471,190.90565690995933,175.41696230503914,3.0,3.2,-242,-289,0,-7,240,277,164.13343453407288,164.1335072517395,164.13646841049194,164.14672136306763,164.29113721847534,164.29113721847534,164.29113721847534,164.29113721847534,164.29113721847534,164.29113721847534,164.29113721847534,165.02861189842224,3,0.8654811382293701,None,,,,,,,,,,,,,,,,,,36,6,2025-02-19_11h25.54.398,comp,2024.2.4,None,2025-02-19 11h26.44.822211 -0500,
115,115,0,catch,None,None,None,None,None,None,None,None,None,None,2,0.7674996852874756,None,,,,,0,0,0,0,0,115,115,128,165.04469347000122,,,,,,,,,,,,,,,,,,,,,,,,,,,,,,,,,,,,,,,,,,,,,,,,,,,,,,,,,,,,,,,,,,,,,,,,,,,,,,,,,95,95,137,188,98,92,3.0,3.2,-238,-264,0,-20,236,278,165.03075218200684,165.0308289527893,165.03439712524414,165.04469347000122,165.1958305835724,165.1958305835724,165.1958305835724,165.1958305835724,165.1958305835724,165.1958305835724,165.1958305835724,165.82480788230896,2,0.7674996852874756,None,,,,,,,,,,,,,,,,,,36,6,2025-02-19_11h25.54.398,comp,2024.2.4,None,2025-02-19 11h26.44.822211 -0500,
116,116,0,critical,hdw,20.0,1.0,lower,133.0,57.0,78.0,78.0,57.0,133.0,1,0.955125093460083,None,,,,,0,0,0,0,0,116,116,114,165.84114599227905,,,,,,,,,,,,,,,,,,,,,,,,,,,,,,,,,,,,,,,,,,,,,,,,,,,,,,,,,,,,,,,,,,,,,,,,,,,,,,,,,133.0,57.0,78.0,78.0,57.0,133.0,1.0,1.3,316,-263,480,-253,682,-269,165.82640981674194,165.82648301124573,165.82989811897278,165.84114599227905,165.97992300987244,165.97992300987244,165.97992300987244,165.97992300987244,165.97992300987244,165.97992300987244,165.97992300987244,166.8113796710968,1,0.955125093460083,None,,,,,,,,,,,,,,,,,,36,6,2025-02-19_11h25.54.398,comp,2024.2.4,None,2025-02-19 11h26.44.822211 -0500,
117,117,0,filler_square,None,None,None,None,None,None,None,None,None,None,2,0.7526693344116211,None,,,,,0,0,0,0,0,117,117,172,166.82767176628113,,,,,,,,,,,,,,,,,,,,,,,,,,,,,,,,,,,,,,,,,,,,,,,,,,,,,,,,,,,,,,,,,,,,,,,,,,,,,,,,,68.34691952191905,60.87355614667824,72.55130017837634,72.55130017837634,67.8848350085752,60.45033626954032,4.0,4.1,-163,-274,0,-8,163,-253,166.81330609321594,166.81338214874268,166.81639909744263,166.82767176628113,166.97703576087952,166.97703576087952,166.97703576087952,166.97703576087952,166.97703576087952,166.97703576087952,166.97703576087952,167.59487867355347,2,0.7526693344116211,None,,,,,,,,,,,,,,,,,,36,6,2025-02-19_11h25.54.398,comp,2024.2.4,None,2025-02-19 11h26.44.822211 -0500,
118,118,0,critical,dhw,20.0,2.1,lower,78.0,78.0,133.0,57.0,57.0,133.0,3,2.794424295425415,None,,,,,0,0,0,0,0,118,118,26,167.610369682312,,,,,,,,,,,,,,,,,,,,,,,,,,,,,,,,,,,,,,,,,,,,,,,,,,,,,,,,,,,,,,,,,,,,,,,,,,,,,,,,,78.0,78.0,133.0,57.0,57.0,133.0,2.1,2.11,-164,286,0,267,191,-276,167.59643125534058,167.5965075492859,167.60008549690247,167.610369682312,167.75893139839172,167.75893139839172,167.75893139839172,167.75893139839172,167.75893139839172,167.75893139839172,167.75893139839172,170.41440796852112,3,2.794424295425415,None,,,,,,,,,,,,,,,,,,36,6,2025-02-19_11h25.54.398,comp,2024.2.4,None,2025-02-19 11h26.44.822211 -0500,
119,119,0,filler_square,None,None,None,None,None,None,None,None,None,None,2,0.93155837059021,None,,,,,0,0,0,0,0,119,119,198,170.43281078338623,,,,,,,,,,,,,,,,,,,,,,,,,,,,,,,,,,,,,,,,,,,,,,,,,,,,,,,,,,,,,,,,,,,,,,,,,,,,,,,,,57.76562979116375,59.32485044640825,59.02067122943644,58.88633550683789,62.78106212731335,62.78106212731335,4.0,4.1,-155,-270,0,-8,157,-289,170.41661596298218,170.41672492027283,170.41972970962524,170.43281078338623,170.57774543762207,170.57774543762207,170.57774543762207,170.57774543762207,170.57774543762207,170.57774543762207,170.57774543762207,171.37771463394165,2,0.93155837059021,None,,,,,,,,,,,,,,,,,,36,6,2025-02-19_11h25.54.398,comp,2024.2.4,None,2025-02-19 11h26.44.822211 -0500,
120,120,0,filler_square,None,None,None,None,None,None,None,None,None,None,2,0.9144988059997559,None,,,,,0,0,0,0,0,120,120,207,171.39371919631958,,,,,,,,,,,,,,,,,,,,,,,,,,,,,,,,,,,,,,,,,,,,,,,,,,,,,,,,,,,,,,,,,,,,,,,,,,,,,,,,,62.18030015034345,75.95502564262878,185.73416676252214,185.73416676252214,83.35141181016554,128.2363788986329,3.0,3.1,-227,270,0,-10,253,-261,171.37986040115356,171.37994074821472,171.38342213630676,171.39371919631958,171.54452657699585,171.54452657699585,171.54452657699585,171.54452657699585,171.54452657699585,171.54452657699585,171.54452657699585,172.3276047706604,2,0.9144988059997559,None,,,,,,,,,,,,,,,,,,36,6,2025-02-19_11h25.54.398,comp,2024.2.4,None,2025-02-19 11h26.44.822211 -0500,
121,121,0,critical,hdw,20.0,2.1,upper,200.0,125.0,141.0,141.0,125.0,200.0,3,1.9655206203460693,None,,,,,0,0,0,0,0,121,121,47,172.34270906448364,,,,,,,,,,,,,,,,,,,,,,,,,,,,,,,,,,,,,,,,,,,,,,,,,,,,,,,,,,,,,,,,,,,,,,,,,,,,,,,,,200.0,125.0,141.0,141.0,125.0,200.0,2.1,2.12,-229,-269,0,-254,266,280,172.32802772521973,172.32804703712463,172.32882618904114,172.34270906448364,172.50173568725586,172.50173568725586,172.50173568725586,172.50173568725586,172.50173568725586,172.50173568725586,172.50173568725586,174.3119297027588,3,1.9655206203460693,None,,,,,,,,,,,,,,,,,,36,6,2025-02-19_11h25.54.398,comp,2024.2.4,None,2025-02-19 11h26.44.822211 -0500,
122,122,0,filler_square,None,None,None,None,None,None,None,None,None,None,2,0.7647967338562012,None,,,,,0,0,0,0,0,122,122,175,174.32794499397278,,,,,,,,,,,,,,,,,,,,,,,,,,,,,,,,,,,,,,,,,,,,,,,,,,,,,,,,,,,,,,,,,,,,,,,,,,,,,,,,,75.37003452573748,86.88457788299972,111.58000848035073,111.58000848035073,90.5229035364815,70.42032976975544,2.2,2.22,-195,263,0,-277,187,-268,174.31378984451294,174.31386756896973,174.31727719306946,174.32794499397278,174.4778594970703,174.4778594970703,174.4778594970703,174.4778594970703,174.4778594970703,174.4778594970703,174.4778594970703,175.09580874443054,2,0.7647967338562012,None,,,,,,,,,,,,,,,,,,36,6,2025-02-19_11h25.54.398,comp,2024.2.4,None,2025-02-19 11h26.44.822211 -0500,
123,123,0,filler_random,None,None,None,None,None,None,None,None,None,None,3,0.8300516605377197,None,,,,,0,0,0,0,0,123,123,135,175.1104302406311,,,,,,,,,,,,,,,,,,,,,,,,,,,,,,,,,,,,,,,,,,,,,,,,,,,,,,,,,,,,,,,,,,,,,,,,,,,,,,,,,85.43388487928843,178.14021170375602,64.95212933703156,85.10224444112687,186.62791774818803,169.3541989594441,2.1,2.11,-228,253,0,260,223,-278,175.09752988815308,175.09760689735413,175.10099744796753,175.1104302406311,175.26424527168274,175.26424527168274,175.26424527168274,175.26424527168274,175.26424527168274,175.26424527168274,175.26424527168274,175.9445996284485,3,0.8300516605377197,None,,,,,,,,,,,,,,,,,,36,6,2025-02-19_11h25.54.398,comp,2024.2.4,None,2025-02-19 11h26.44.822211 -0500,
124,124,0,filler_random,None,None,None,None,None,None,None,None,None,None,3,1.8591227531433105,None,,,,,0,0,0,0,0,124,124,134,175.96107721328735,,,,,,,,,,,,,,,,,,,,,,,,,,,,,,,,,,,,,,,,,,,,,,,,,,,,,,,,,,,,,,,,,,,,,,,,,,,,,,,,,128.19222788564417,164.7611492001417,116.41455524744741,130.49248139855388,155.96664121382594,180.49381540701827,3.0,3.1,-244,264,0,19,251,-277,175.9463243484497,175.94640040397644,175.94959545135498,175.96107721328735,176.11517477035522,176.11517477035522,176.11517477035522,176.11517477035522,176.11517477035522,176.11517477035522,176.11517477035522,177.83328318595886,3,1.8591227531433105,None,,,,,,,,,,,,,,,,,,36,6,2025-02-19_11h25.54.398,comp,2024.2.4,None,2025-02-19 11h26.44.822211 -0500,
125,125,0,critical,whd,20.0,2.1,lower,57.0,133.0,133.0,57.0,78.0,78.0,2,1.5716230869293213,None,,,,,0,0,0,0,0,125,125,14,177.8485779762268,,,,,,,,,,,,,,,,,,,,,,,,,,,,,,,,,,,,,,,,,,,,,,,,,,,,,,,,,,,,,,,,,,,,,,,,,,,,,,,,,57.0,133.0,133.0,57.0,78.0,78.0,2.1,2.11,-191,290,0,272,164,-266,177.83486437797546,177.83494305610657,177.8379557132721,177.8485779762268,177.98813223838806,177.98813223838806,177.98813223838806,177.98813223838806,177.98813223838806,177.98813223838806,177.98813223838806,179.4301257133484,2,1.5716230869293213,None,,,,,,,,,,,,,,,,,,36,6,2025-02-19_11h25.54.398,comp,2024.2.4,None,2025-02-19 11h26.44.822211 -0500,
126,126,0,filler_square,None,None,None,None,None,None,None,None,None,None,3,0.8296153545379639,None,,,,,0,0,0,0,0,126,126,191,179.44721293449402,,,,,,,,,,,,,,,,,,,,,,,,,,,,,,,,,,,,,,,,,,,,,,,,,,,,,,,,,,,,,,,,,,,,,,,,,,,,,,,,,86.45233869131307,90.36714863629581,72.80487773172138,109.926501175829,170.99107043792685,170.99107043792685,1.0,1.3,284,-278,480,-287,716,-280,179.4320604801178,179.43218994140625,179.4356508255005,179.44721293449402,179.5964813232422,179.5964813232422,179.5964813232422,179.5964813232422,179.5964813232422,179.5964813232422,179.5964813232422,180.2848825454712,3,0.8296153545379639,None,,,,,,,,,,,,,,,,,,36,6,2025-02-19_11h25.54.398,comp,2024.2.4,None,2025-02-19 11h26.44.822211 -0500,
127,127,0,critical,hwd,20.0,3.0,upper,200.0,125.0,125.0,200.0,141.0,141.0,1,1.1703193187713623,None,,,,,0,0,0,0,0,127,127,105,180.30606770515442,,,,,,,,,,,,,,,,,,,,,,,,,,,,,,,,,,,,,,,,,,,,,,,,,,,,,,,,,,,,,,,,,,,,,,,,,,,,,,,,,200.0,125.0,125.0,200.0,141.0,141.0,3.0,3.2,-258,-266,0,-3,266,269,180.2866566181183,180.28679633140564,180.29011058807373,180.30606770515442,180.45065426826477,180.45065426826477,180.45065426826477,180.45065426826477,180.45065426826477,180.45065426826477,180.45065426826477,181.48083329200745,1,1.1703193187713623,None,,,,,,,,,,,,,,,,,,36,6,2025-02-19_11h25.54.398,comp,2024.2.4,None,2025-02-19 11h26.44.822211 -0500,
128,128,0,critical,whd,20.0,2.1,upper,125.0,200.0,200.0,125.0,141.0,141.0,3,0.9154412746429443,None,,,,,0,0,0,0,0,128,128,15,181.49676895141602,,,,,,,,,,,,,,,,,,,,,,,,,,,,,,,,,,,,,,,,,,,,,,,,,,,,,,,,,,,,,,,,,,,,,,,,,,,,,,,,,125.0,200.0,200.0,125.0,141.0,141.0,2.1,2.11,-258,258,0,258,229,-280,181.4823796749115,181.48245668411255,181.48591470718384,181.49676895141602,181.6503460407257,181.6503460407257,181.6503460407257,181.6503460407257,181.6503460407257,181.6503460407257,181.6503460407257,182.4305248260498,3,0.9154412746429443,None,,,,,,,,,,,,,,,,,,36,6,2025-02-19_11h25.54.398,comp,2024.2.4,None,2025-02-19 11h26.44.822211 -0500,
129,129,0,critical,dhw,35.0,3.0,upper,127.0,127.0,200.0,125.0,125.0,200.0,1,3.642293691635132,None,,,,,0,0,0,0,0,129,129,51,182.45047116279602,,,,,,,,,,,,,,,,,,,,,,,,,,,,,,,,,,,,,,,,,,,,,,,,,,,,,,,,,,,,,,,,,,,,,,,,,,,,,,,,,127.0,127.0,200.0,125.0,125.0,200.0,3.0,3.1,-222,259,0,17,258,-268,182.4321050643921,182.43217968940735,182.43528723716736,182.45047116279602,182.5986773967743,182.5986773967743,182.5986773967743,182.5986773967743,182.5986773967743,182.5986773967743,182.5986773967743,186.09809160232544,1,3.642293691635132,None,,,,,,,,,,,,,,,,,,36,6,2025-02-19_11h25.54.398,comp,2024.2.4,None,2025-02-19 11h26.44.822211 -0500,
130,130,0,critical,dwh,35.0,2.1,lower,70.0,70.0,57.0,133.0,133.0,57.0,2,0.28235435485839844,None,,,,,0,0,0,0,0,130,130,4,186.11440205574036,,,,,,,,,,,,,,,,,,,,,,,,,,,,,,,,,,,,,,,,,,,,,,,,,,,,,,,,,,,,,,,,,,,,,,,,,,,,,,,,,70.0,70.0,57.0,133.0,133.0,57.0,2.1,2.12,-198,-261,0,-290,191,257,186.09961605072021,186.09972548484802,186.10285449028015,186.11440205574036,186.2660436630249,186.2660436630249,186.2660436630249,186.2660436630249,186.2660436630249,186.2660436630249,186.2660436630249,186.39924931526184,2,0.28235435485839844,None,,,,,,,,,,,,,,,,,,36,6,2025-02-19_11h25.54.398,comp,2024.2.4,None,2025-02-19 11h26.44.822211 -0500,
131,131,0,critical,dhw,20.0,2.1,upper,141.0,141.0,200.0,125.0,125.0,200.0,3,0.2604389190673828,None,,,,,0,0,0,0,0,131,131,3,186.41611552238464,,,,,,,,,,,,,,,,,,,,,,,,,,,,,,,,,,,,,,,,,,,,,,,,,,,,,,,,,,,,,,,,,,,,,,,,,,,,,,,,,141.0,141.0,200.0,125.0,125.0,200.0,2.1,2.11,-229,264,0,263,258,-266,186.4007568359375,186.40085172653198,186.40490221977234,186.41611552238464,186.56508111953735,186.56508111953735,186.56508111953735,186.56508111953735,186.56508111953735,186.56508111953735,186.56508111953735,186.6863248348236,3,0.2604389190673828,None,,,,,,,,,,,,,,,,,,36,6,2025-02-19_11h25.54.398,comp,2024.2.4,None,2025-02-19 11h26.44.822211 -0500,
132,132,0,critical,hdw,35.0,3.0,upper,200.0,125.0,127.0,127.0,125.0,200.0,2,0.27502918243408203,None,,,,,0,0,0,0,0,132,132,111,186.7054796218872,,,,,,,,,,,,,,,,,,,,,,,,,,,,,,,,,,,,,,,,,,,,,,,,,,,,,,,,,,,,,,,,,,,,,,,,,,,,,,,,,200.0,125.0,127.0,127.0,125.0,200.0,3.0,3.2,-222,-269,0,6,260,269,186.68787717819214,186.68795466423035,186.69099712371826,186.7054796218872,186.84932804107666,186.84932804107666,186.84932804107666,186.84932804107666,186.84932804107666,186.84932804107666,186.84932804107666,186.98245692253113,2,0.27502918243408203,None,,,,,,,,,,,,,,,,,,36,6,2025-02-19_11h25.54.398,comp,2024.2.4,None,2025-02-19 11h26.44.822211 -0500,
133,133,0,filler_square,None,None,None,None,None,None,None,None,None,None,1,0.24550080299377441,None,,,,,0,0,0,0,0,133,133,205,186.9993188381195,,,,,,,,,,,,,,,,,,,,,,,,,,,,,,,,,,,,,,,,,,,,,,,,,,,,,,,,,,,,,,,,,,,,,,,,,,,,,,,,,94.42855672990251,104.17613771896791,77.57489108952333,80.84421250548608,120.75232116319987,120.75232116319987,2.2,2.21,-189,-264,0,289,197,254,186.98429584503174,186.98443174362183,186.98781657218933,186.9993188381195,187.15437960624695,187.15437960624695,187.15437960624695,187.15437960624695,187.15437960624695,187.15437960624695,187.15437960624695,187.24965262413025,1,0.24550080299377441,None,,,,,,,,,,,,,,,,,,36,6,2025-02-19_11h25.54.398,comp,2024.2.4,None,2025-02-19 11h26.44.822211 -0500,
134,134,0,critical,dwh,35.0,4.0,upper,127.0,127.0,125.0,200.0,200.0,125.0,2,0.26694798469543457,None,,,,,0,0,0,0,0,134,134,65,187.2653112411499,,,,,,,,,,,,,,,,,,,,,,,,,,,,,,,,,,,,,,,,,,,,,,,,,,,,,,,,,,,,,,,,,,,,,,,,,,,,,,,,,127.0,127.0,125.0,200.0,200.0,125.0,4.0,4.1,-260,-267,0,-8,258,-288,187.251122713089,187.25119757652283,187.25473713874817,187.2653112411499,187.41459035873413,187.41459035873413,187.41459035873413,187.41459035873413,187.41459035873413,187.41459035873413,187.41459035873413,187.53421831130981,2,0.26694798469543457,None,,,,,,,,,,,,,,,,,,36,6,2025-02-19_11h25.54.398,comp,2024.2.4,None,2025-02-19 11h26.44.822211 -0500,
135,135,0,critical,whd,20.0,3.0,upper,125.0,200.0,200.0,125.0,141.0,141.0,3,0.2443675994873047,None,,,,,0,0,0,0,0,135,135,93,187.55238318443298,,,,,,,,,,,,,,,,,,,,,,,,,,,,,,,,,,,,,,,,,,,,,,,,,,,,,,,,,,,,,,,,,,,,,,,,,,,,,,,,,125.0,200.0,200.0,125.0,141.0,141.0,3.0,3.1,-258,256,0,11,229,-264,187.5358054637909,187.53588104248047,187.53923988342285,187.55238318443298,187.7062864303589,187.7062864303589,187.7062864303589,187.7062864303589,187.7062864303589,187.7062864303589,187.7062864303589,187.80051374435425,3,0.2443675994873047,None,,,,,,,,,,,,,,,,,,36,6,2025-02-19_11h25.54.398,comp,2024.2.4,None,2025-02-19 11h26.44.822211 -0500,
136,136,0,critical,whd,35.0,2.1,upper,125.0,200.0,200.0,125.0,127.0,127.0,2,0.36434149742126465,None,,,,,0,0,0,0,0,136,136,13,187.81603360176086,,,,,,,,,,,,,,,,,,,,,,,,,,,,,,,,,,,,,,,,,,,,,,,,,,,,,,,,,,,,,,,,,,,,,,,,,,,,,,,,,125.0,200.0,200.0,125.0,127.0,127.0,2.1,2.12,-258,-254,0,-260,222,271,187.80214738845825,187.80222392082214,187.80547833442688,187.81603360176086,187.96395325660706,187.96395325660706,187.96395325660706,187.96395325660706,187.96395325660706,187.96395325660706,187.96395325660706,188.19902324676514,2,0.36434149742126465,None,,,,,,,,,,,,,,,,,,36,6,2025-02-19_11h25.54.398,comp,2024.2.4,None,2025-02-19 11h26.44.822211 -0500,
137,137,0,critical,dhw,20.0,3.0,upper,141.0,141.0,200.0,125.0,125.0,200.0,1,0.2589750289916992,None,,,,,0,0,0,0,0,137,137,57,188.21779108047485,,,,,,,,,,,,,,,,,,,,,,,,,,,,,,,,,,,,,,,,,,,,,,,,,,,,,,,,,,,,,,,,,,,,,,,,,,,,,,,,,141.0,141.0,200.0,125.0,125.0,200.0,3.0,3.1,-229,268,0,-16,258,-262,188.20049357414246,188.2005672454834,188.2037878036499,188.21779108047485,188.37404417991638,188.37404417991638,188.37404417991638,188.37404417991638,188.37404417991638,188.37404417991638,188.37404417991638,188.48514223098755,1,0.2589750289916992,None,,,,,,,,,,,,,,,,,,36,6,2025-02-19_11h25.54.398,comp,2024.2.4,None,2025-02-19 11h26.44.822211 -0500,
138,138,0,critical,whd,20.0,2.1,upper,125.0,200.0,200.0,125.0,141.0,141.0,3,0.3348391056060791,None,,,,,0,0,0,0,0,138,138,39,188.50142860412598,,,,,,,,,,,,,,,,,,,,,,,,,,,,,,,,,,,,,,,,,,,,,,,,,,,,,,,,,,,,,,,,,,,,,,,,,,,,,,,,,125.0,200.0,200.0,125.0,141.0,141.0,2.1,2.11,-258,269,0,289,229,-262,188.48684453964233,188.48697638511658,188.49036240577698,188.50142860412598,188.65149307250977,188.65149307250977,188.65149307250977,188.65149307250977,188.65149307250977,188.65149307250977,188.65149307250977,188.85110807418823,3,0.3348391056060791,None,,,,,,,,,,,,,,,,,,36,6,2025-02-19_11h25.54.398,comp,2024.2.4,None,2025-02-19 11h26.44.822211 -0500,
139,139,0,critical,hwd,20.0,2.1,upper,200.0,125.0,125.0,200.0,141.0,141.0,2,0.3094766139984131,None,,,,,0,0,0,0,0,139,139,19,188.87145042419434,,,,,,,,,,,,,,,,,,,,,,,,,,,,,,,,,,,,,,,,,,,,,,,,,,,,,,,,,,,,,,,,,,,,,,,,,,,,,,,,,200.0,125.0,125.0,200.0,141.0,141.0,2.1,2.11,-258,260,0,266,266,-264,188.8527193069458,188.85280847549438,188.8562469482422,188.87145042419434,189.01887965202332,189.01887965202332,189.01887965202332,189.01887965202332,189.01887965202332,189.01887965202332,189.01887965202332,189.18487811088562,2,0.3094766139984131,None,,,,,,,,,,,,,,,,,,36,6,2025-02-19_11h25.54.398,comp,2024.2.4,None,2025-02-19 11h26.44.822211 -0500,
140,140,0,critical,dwh,35.0,2.1,upper,127.0,127.0,125.0,200.0,200.0,125.0,1,0.2437734603881836,None,,,,,0,0,0,0,0,140,140,5,189.2007200717926,,,,,,,,,,,,,,,,,,,,,,,,,,,,,,,,,,,,,,,,,,,,,,,,,,,,,,,,,,,,,,,,,,,,,,,,,,,,,,,,,127.0,127.0,125.0,200.0,200.0,125.0,2.1,2.12,-260,-260,0,-287,258,274,189.18639850616455,189.1864731311798,189.1900520324707,189.2007200717926,189.34991669654846,189.34991669654846,189.34991669654846,189.34991669654846,189.34991669654846,189.34991669654846,189.34991669654846,189.44910717010498,1,0.2437734603881836,None,,,,,,,,,,,,,,,,,,36,6,2025-02-19_11h25.54.398,comp,2024.2.4,None,2025-02-19 11h26.44.822211 -0500,
141,141,0,critical,hdw,35.0,1.0,upper,200.0,125.0,127.0,127.0,125.0,200.0,2,0.36403536796569824,None,,,,,0,0,0,0,0,141,141,109,189.46487975120544,,,,,,,,,,,,,,,,,,,,,,,,,,,,,,,,,,,,,,,,,,,,,,,,,,,,,,,,,,,,,,,,,,,,,,,,,,,,,,,,,200.0,125.0,127.0,127.0,125.0,200.0,1.0,1.2,-222,-6,0,-1,260,20,189.45054745674133,189.45064163208008,189.4537706375122,189.46487975120544,189.6156826019287,189.6156826019287,189.6156826019287,189.6156826019287,189.6156826019287,189.6156826019287,189.6156826019287,189.8335726261139,2,0.36403536796569824,None,,,,,,,,,,,,,,,,,,36,6,2025-02-19_11h25.54.398,comp,2024.2.4,None,2025-02-19 11h26.44.822211 -0500,
142,142,0,critical,hwd,35.0,2.1,upper,200.0,125.0,125.0,200.0,127.0,127.0,3,0.2908611297607422,None,,,,,0,0,0,0,0,142,142,17,189.85003471374512,,,,,,,,,,,,,,,,,,,,,,,,,,,,,,,,,,,,,,,,,,,,,,,,,,,,,,,,,,,,,,,,,,,,,,,,,,,,,,,,,200.0,125.0,125.0,200.0,127.0,127.0,2.1,2.12,-258,-269,0,-280,260,279,189.83521604537964,189.8352928161621,189.83890390396118,189.85003471374512,190.0042815208435,190.0042815208435,190.0042815208435,190.0042815208435,190.0042815208435,190.0042815208435,190.0042815208435,190.15020060539246,3,0.2908611297607422,None,,,,,,,,,,,,,,,,,,36,6,2025-02-19_11h25.54.398,comp,2024.2.4,None,2025-02-19 11h26.44.822211 -0500,
