thisN,thisTrialN,thisRepN,effect,order,distance,config,diag,h_1,w_1,h_2,w_2,h_3,w_3,rect_choice.keys,rect_choice.rt,rect_choice.duration,instructions_loop.thisRepN,instructions_loop.thisTrialN,instructions_loop.thisN,instructions_loop.thisIndex,blocks.thisRepN,blocks.thisTrialN,blocks.thisN,blocks.thisIndex,trials.thisRepN,trials.thisTrialN,trials.thisN,trials.thisIndex,thisRow.t,notes,consent.started,agree_button.started,decline_button.started,consent_img.started,mouse.started,consent.stopped,agree_button.numClicks,agree_button.timesOn,agree_button.timesOff,decline_button.numClicks,decline_button.timesOn,decline_button.timesOff,mouse.x,mouse.y,mouse.leftButton,mouse.midButton,mouse.rightButton,mouse.time,mouse.clicked_name,exp_params.started,exp_params.stopped,welcome.started,welcome_text.started,welcome.stopped,instructions_1.started,instructions_1_text_1.started,instructions_1_text_2.started,key_resp.started,instructions_1.stopped,instructions_loop.key_resp.keys,instructions_loop.key_resp.rt,instructions_loop.key_resp.duration,instructions_2.started,instructions_2_text_1.started,instructions_2_text_2.started,key_resp_2.started,instructions_2.stopped,instructions_loop.key_resp_2.keys,instructions_loop.key_resp_2.rt,instructions_loop.key_resp_2.duration,instructions_3.started,instructions_3_text_1.started,r1_instr3.started,r2_instr3.started,r3_instr3.started,r1_instr3_label.started,r2_instr3_label.started,r3_instr3_label.started,instructions_3_text_3.started,instructions_3_text_4.started,key_resp_3.started,instructions_3.stopped,instructions_loop.key_resp_3.keys,instructions_loop.key_resp_3.rt,instructions_loop.key_resp_3.duration,instructions_4.started,instructions_4_text_1.started,instructions_4_text_3.started,instructions_4_text_2.started,key_resp_4.started,instructions_4.stopped,instructions_loop.key_resp_4.keys,instructions_loop.key_resp_4.rt,instructions_loop.key_resp_4.duration,instructions_5.started,instructions_5_text_1.started,instructions_5_text_2.started,key_resp_5.started,instructions_5.stopped,instructions_loop.key_resp_5.keys,instructions_loop.key_resp_5.rt,instructions_loop.key_resp_5.duration,start_exp.started,start_exp_text.started,key_resp_6.started,start_exp.stopped,key_resp_6.keys,key_resp_6.rt,key_resp_6.duration,h_1_tmp,w_1_tmp,h_2_tmp,w_2_tmp,h_3_tmp,w_3_tmp,config_tmp,config_tmp_1,r_1_x,r_1_y,r_2_x,r_2_y,r_3_x,r_3_y,pre_trial.started,pre_trial.stopped,choice_trial.started,rect_choice.started,r_1.started,r_2.started,r_3.started,r_1_label.started,r_2_label.started,r_3_label.started,prompt.started,choice_trial.stopped,trials.rect_choice.keys,trials.rect_choice.rt,trials.rect_choice.duration,end_block.started,end_block_text.started,end_block.stopped,end.started,end_text.started,key_resp_7.started,end.stopped,key_resp_7.keys,key_resp_7.rt,key_resp_7.duration,debriefing.started,debrief_form.started,end_debrief.started,debriefing.stopped,end_debrief.keys,end_debrief.rt,end_debrief.duration,participant,computer,date,expName,psychopyVersion,frameRate,expStart,
,,,,,,,,,,,,,,,,,,,,,,,,,,,,,,,0.015138864517211914,0.03724384307861328,0.03724384307861328,0.03724384307861328,0.01491403579711914,21.898749589920044,1,[21.859033823013306],[21.85905623435974],0,,,[-109.0],[-502.0],[1],[0],[0],[21.883024215698242],['agree_button'],,,,,,,,,,,,,,,,,,,,,,,,,,,,,,,,,,,,,,,,,,,,,,,,,,,,,,,,,,,,,,,,,,,,,,,,,,,,,,,,,,,,,,,,,,,,,,,,,,,,,,,,,,,37,1,2025-02-19_11h54.59.294,comp,2024.2.4,57.25621459286056,2025-02-19 11h55.10.795879 -0500,
,,,,,,,,,,,,,,,,,,,,,,,,,,,,,,,,,,,,,,,,,,,,,,,,,,21.899282932281494,21.899349212646484,,,,,,,,,,,,,,,,,,,,,,,,,,,,,,,,,,,,,,,,,,,,,,,,,,,,,,,,,,,,,,,,,,,,,,,,,,,,,,,,,,,,,,,,,,,,,,,,,,,,,,,,,37,1,2025-02-19_11h54.59.294,comp,2024.2.4,57.25621459286056,2025-02-19 11h55.10.795879 -0500,
,,,,,,,,,,,,,,,,,,,,,,,,,,,,,,,,,,,,,,,,,,,,,,,,,,,,21.8993923664093,21.91731882095337,23.910112619400024,,,,,,,,,,,,,,,,,,,,,,,,,,,,,,,,,,,,,,,,,,,,,,,,,,,,,,,,,,,,,,,,,,,,,,,,,,,,,,,,,,,,,,,,,,,,,,,,,,,,,,37,1,2025-02-19_11h54.59.294,comp,2024.2.4,57.25621459286056,2025-02-19 11h55.10.795879 -0500,
0,0,0,,,,,,,,,,,,,,,0,0,0,0,,,,,,,,,23.926368951797485,,,,,,,,,,,,,,,,,,,,,,,,,,23.91101384162903,23.926368951797485,23.926368951797485,25.410028219223022,29.748144149780273,space,4.317800998687744,None,29.748374700546265,29.76337718963623,29.76337718963623,31.261096239089966,37.464454889297485,space,6.195376396179199,None,37.46461009979248,37.495548486709595,37.495548486709595,37.495548486709595,37.495548486709595,37.495548486709595,37.495548486709595,37.495548486709595,37.495548486709595,37.495548486709595,38.96455979347229,47.302932024002075,space,8.331971883773804,None,47.303083419799805,47.319904088974,47.319904088974,47.319904088974,48.81689476966858,57.06836533546448,space,8.238999128341675,None,57.06855058670044,57.082937717437744,57.082937717437744,58.56931447982788,59.11816477775574,space,0.5345180034637451,None,59.11835718154907,59.13370704650879,59.13370704650879,60.98852205276489,space,1.8503212928771973,None,,,,,,,,,,,,,,,,,,,,,,,,,,,,,,,,,,,,,,,,,,,,,,,37,1,2025-02-19_11h54.59.294,comp,2024.2.4,57.25621459286056,2025-02-19 11h55.10.795879 -0500,
0,0,0,critical,whd,20.0,2.1,lower,57.0,133.0,133.0,57.0,78.0,78.0,2,85.56744289398193,None,,,,,0,0,0,0,0,0,0,38,61.065305948257446,,,,,,,,,,,,,,,,,,,,,,,,,,,,,,,,,,,,,,,,,,,,,,,,,,,,,,,,,,,,,,,,,,,,,,,,,,,,,,,,,57.0,133.0,133.0,57.0,78.0,78.0,2.1,2.11,-191,260,0,256,164,-281,61.04903173446655,61.049076795578,61.05075144767761,61.065305948257446,61.21078610420227,61.21078610420227,61.21078610420227,61.21078610420227,61.21078610420227,61.21078610420227,61.21078610420227,146.63698434829712,2,85.56744289398193,None,,,,,,,,,,,,,,,,,,37,1,2025-02-19_11h54.59.294,comp,2024.2.4,57.25621459286056,2025-02-19 11h55.10.795879 -0500,
1,1,0,critical,hwd,35.0,4.0,lower,133.0,57.0,57.0,133.0,70.0,70.0,2,6.943743944168091,None,,,,,0,0,0,0,0,1,1,100,146.6562077999115,,,,,,,,,,,,,,,,,,,,,,,,,,,,,,,,,,,,,,,,,,,,,,,,,,,,,,,,,,,,,,,,,,,,,,,,,,,,,,,,,133.0,57.0,57.0,133.0,70.0,70.0,4.0,4.1,-191,-260,0,-9,198,-280,146.63856840133667,146.63863253593445,146.64150524139404,146.6562077999115,146.80246090888977,146.80246090888977,146.80246090888977,146.80246090888977,146.80246090888977,146.80246090888977,146.80246090888977,153.6160066127777,2,6.943743944168091,None,,,,,,,,,,,,,,,,,,37,1,2025-02-19_11h54.59.294,comp,2024.2.4,57.25621459286056,2025-02-19 11h55.10.795879 -0500,
2,2,0,catch,None,None,None,None,None,None,None,None,None,None,3,2.793503761291504,None,,,,,0,0,0,0,0,2,2,120,153.630530834198,,,,,,,,,,,,,,,,,,,,,,,,,,,,,,,,,,,,,,,,,,,,,,,,,,,,,,,,,,,,,,,,,,,,,,,,,,,,,,,,,103,87,76,114,175,150,2.2,2.22,-196,267,0,-281,228,-278,153.61783576011658,153.61788964271545,153.61995387077332,153.630530834198,153.77035188674927,153.77035188674927,153.77035188674927,153.77035188674927,153.77035188674927,153.77035188674927,153.77035188674927,156.43699479103088,3,2.793503761291504,None,,,,,,,,,,,,,,,,,,37,1,2025-02-19_11h54.59.294,comp,2024.2.4,57.25621459286056,2025-02-19 11h55.10.795879 -0500,
3,3,0,catch,None,None,None,None,None,None,None,None,None,None,2,1.4816250801086426,None,,,,,0,0,0,0,0,3,3,122,156.45449113845825,,,,,,,,,,,,,,,,,,,,,,,,,,,,,,,,,,,,,,,,,,,,,,,,,,,,,,,,,,,,,,,,,,,,,,,,,,,,,,,,,116,74,129,196,94,96,4.0,4.2,-231,-2,0,-268,242,2,156.43916034698486,156.4392375946045,156.44280123710632,156.45449113845825,156.60132956504822,156.60132956504822,156.60132956504822,156.60132956504822,156.60132956504822,156.60132956504822,156.60132956504822,157.9520435333252,2,1.4816250801086426,None,,,,,,,,,,,,,,,,,,37,1,2025-02-19_11h54.59.294,comp,2024.2.4,57.25621459286056,2025-02-19 11h55.10.795879 -0500,
4,4,0,filler_random,None,None,None,None,None,None,None,None,None,None,2,2.735891103744507,None,,,,,0,0,0,0,0,4,4,142,157.96838426589966,,,,,,,,,,,,,,,,,,,,,,,,,,,,,,,,,,,,,,,,,,,,,,,,,,,,,,,,,,,,,,,,,,,,,,,,,,,,,,,,,88.58864519663344,117.54864547914573,123.35713884003012,150.70445236360143,140.73348631879645,109.57240965673863,2.2,2.21,-230,-279,0,275,226,269,157.95383882522583,157.9539155960083,157.95811581611633,157.96838426589966,158.1188097000122,158.1188097000122,158.1188097000122,158.1188097000122,158.1188097000122,158.1188097000122,158.1188097000122,160.71969437599182,2,2.735891103744507,None,,,,,,,,,,,,,,,,,,37,1,2025-02-19_11h54.59.294,comp,2024.2.4,57.25621459286056,2025-02-19 11h55.10.795879 -0500,
5,5,0,critical,wdh,20.0,2.1,upper,125.0,200.0,141.0,141.0,200.0,125.0,1,2.4883103370666504,None,,,,,0,0,0,0,0,5,5,35,160.73577642440796,,,,,,,,,,,,,,,,,,,,,,,,,,,,,,,,,,,,,,,,,,,,,,,,,,,,,,,,,,,,,,,,,,,,,,,,,,,,,,,,,125.0,200.0,141.0,141.0,200.0,125.0,2.1,2.11,-266,277,0,280,229,-270,160.72118139266968,160.721257686615,160.72456169128418,160.73577642440796,160.89018535614014,160.89018535614014,160.89018535614014,160.89018535614014,160.89018535614014,160.89018535614014,160.89018535614014,163.2370707988739,1,2.4883103370666504,None,,,,,,,,,,,,,,,,,,37,1,2025-02-19_11h54.59.294,comp,2024.2.4,57.25621459286056,2025-02-19 11h55.10.795879 -0500,
6,6,0,critical,whd,35.0,4.0,lower,57.0,133.0,133.0,57.0,70.0,70.0,1,4.233187913894653,None,,,,,0,0,0,0,0,6,6,88,163.25241088867188,,,,,,,,,,,,,,,,,,,,,,,,,,,,,,,,,,,,,,,,,,,,,,,,,,,,,,,,,,,,,,,,,,,,,,,,,,,,,,,,,57.0,133.0,133.0,57.0,70.0,70.0,4.0,4.1,-191,-282,0,-12,160,-270,163.23854446411133,163.238618850708,163.24198865890503,163.25241088867188,163.40413308143616,163.40413308143616,163.40413308143616,163.40413308143616,163.40413308143616,163.40413308143616,163.40413308143616,167.50327610969543,1,4.233187913894653,None,,,,,,,,,,,,,,,,,,37,1,2025-02-19_11h54.59.294,comp,2024.2.4,57.25621459286056,2025-02-19 11h55.10.795879 -0500,
7,7,0,filler_square,None,None,None,None,None,None,None,None,None,None,3,1.5387749671936035,None,,,,,0,0,0,0,0,7,7,175,167.5174536705017,,,,,,,,,,,,,,,,,,,,,,,,,,,,,,,,,,,,,,,,,,,,,,,,,,,,,,,,,,,,,,,,,,,,,,,,,,,,,,,,,132.76671512575453,71.90887908373357,113.83033456635269,144.2290352219151,155.310703238682,155.310703238682,1.0,1.1,-684,250,-480,270,-234,265,167.50493144989014,167.50496912002563,167.50699186325073,167.5174536705017,167.66904973983765,167.66904973983765,167.66904973983765,167.66904973983765,167.66904973983765,167.66904973983765,167.66904973983765,169.07283878326416,3,1.5387749671936035,None,,,,,,,,,,,,,,,,,,37,1,2025-02-19_11h54.59.294,comp,2024.2.4,57.25621459286056,2025-02-19 11h55.10.795879 -0500,
8,8,0,critical,whd,20.0,4.0,upper,125.0,200.0,200.0,125.0,141.0,141.0,1,2.1676554679870605,None,,,,,0,0,0,0,0,8,8,95,169.0888705253601,,,,,,,,,,,,,,,,,,,,,,,,,,,,,,,,,,,,,,,,,,,,,,,,,,,,,,,,,,,,,,,,,,,,,,,,,,,,,,,,,125.0,200.0,200.0,125.0,141.0,141.0,4.0,4.1,-258,-285,0,1,229,-281,169.0743613243103,169.07446670532227,169.0786166191101,169.0888705253601,169.23870706558228,169.23870706558228,169.23870706558228,169.23870706558228,169.23870706558228,169.23870706558228,169.23870706558228,171.26508903503418,1,2.1676554679870605,None,,,,,,,,,,,,,,,,,,37,1,2025-02-19_11h54.59.294,comp,2024.2.4,57.25621459286056,2025-02-19 11h55.10.795879 -0500,
9,9,0,critical,dhw,35.0,1.0,upper,127.0,127.0,200.0,125.0,125.0,200.0,3,3.9440083503723145,None,,,,,0,0,0,0,0,9,9,49,171.28057861328125,,,,,,,,,,,,,,,,,,,,,,,,,,,,,,,,,,,,,,,,,,,,,,,,,,,,,,,,,,,,,,,,,,,,,,,,,,,,,,,,,127.0,127.0,200.0,125.0,125.0,200.0,1.0,1.2,-222,-12,0,4,258,16,171.26661610603333,171.26669263839722,171.2697765827179,171.28057861328125,171.41995573043823,171.41995573043823,171.41995573043823,171.41995573043823,171.41995573043823,171.41995573043823,171.41995573043823,175.22689294815063,3,3.9440083503723145,None,,,,,,,,,,,,,,,,,,37,1,2025-02-19_11h54.59.294,comp,2024.2.4,57.25621459286056,2025-02-19 11h55.10.795879 -0500,
10,10,0,critical,dhw,35.0,4.0,upper,127.0,127.0,200.0,125.0,125.0,200.0,3,1.8301491737365723,None,,,,,0,0,0,0,0,10,10,53,175.24241161346436,,,,,,,,,,,,,,,,,,,,,,,,,,,,,,,,,,,,,,,,,,,,,,,,,,,,,,,,,,,,,,,,,,,,,,,,,,,,,,,,,127.0,127.0,200.0,125.0,125.0,200.0,4.0,4.1,-222,-261,0,15,258,-261,175.22847270965576,175.22855257987976,175.23173761367798,175.24241161346436,175.39053750038147,175.39053750038147,175.39053750038147,175.39053750038147,175.39053750038147,175.39053750038147,175.39053750038147,177.07463955879211,3,1.8301491737365723,None,,,,,,,,,,,,,,,,,,37,1,2025-02-19_11h54.59.294,comp,2024.2.4,57.25621459286056,2025-02-19 11h55.10.795879 -0500,
11,11,0,filler_square,None,None,None,None,None,None,None,None,None,None,1,6.124624252319336,None,,,,,0,0,0,0,0,11,11,195,177.0913963317871,,,,,,,,,,,,,,,,,,,,,,,,,,,,,,,,,,,,,,,,,,,,,,,,,,,,,,,,,,,,,,,,,,,,,,,,,,,,,,,,,58.11477601328594,57.759881612320356,57.655736450284486,58.151152994264436,58.356279503750486,58.356279503750486,2.2,2.21,-154,-252,0,263,154,288,177.07672262191772,177.07680130004883,177.08060240745544,177.0913963317871,177.24211359024048,177.24211359024048,177.24211359024048,177.24211359024048,177.24211359024048,177.24211359024048,177.24211359024048,183.23103833198547,1,6.124624252319336,None,,,,,,,,,,,,,,,,,,37,1,2025-02-19_11h54.59.294,comp,2024.2.4,57.25621459286056,2025-02-19 11h55.10.795879 -0500,
12,12,0,filler_square,None,None,None,None,None,None,None,None,None,None,3,1.2077245712280273,None,,,,,0,0,0,0,0,12,12,172,183.24866318702698,,,,,,,,,,,,,,,,,,,,,,,,,,,,,,,,,,,,,,,,,,,,,,,,,,,,,,,,,,,,,,,,,,,,,,,,,,,,,,,,,58.34979766281953,66.93580420259906,118.60653913790352,97.82140345267968,147.5265601246507,147.5265601246507,2.2,2.21,-178,-253,0,283,219,256,183.23286175727844,183.2329375743866,183.23596215248108,183.24866318702698,183.39378547668457,183.39378547668457,183.39378547668457,183.39378547668457,183.39378547668457,183.39378547668457,183.39378547668457,184.4591612815857,3,1.2077245712280273,None,,,,,,,,,,,,,,,,,,37,1,2025-02-19_11h54.59.294,comp,2024.2.4,57.25621459286056,2025-02-19 11h55.10.795879 -0500,
13,13,0,critical,dhw,35.0,1.0,lower,70.0,70.0,133.0,57.0,57.0,133.0,2,1.797102689743042,None,,,,,0,0,0,0,0,13,13,48,184.4755072593689,,,,,,,,,,,,,,,,,,,,,,,,,,,,,,,,,,,,,,,,,,,,,,,,,,,,,,,,,,,,,,,,,,,,,,,,,,,,,,,,,70.0,70.0,133.0,57.0,57.0,133.0,1.0,1.1,-640,251,-480,279,-289,280,184.46070885658264,184.4607846736908,184.46391892433167,184.4755072593689,184.62646222114563,184.62646222114563,184.62646222114563,184.62646222114563,184.62646222114563,184.62646222114563,184.62646222114563,186.27800297737122,2,1.797102689743042,None,,,,,,,,,,,,,,,,,,37,1,2025-02-19_11h54.59.294,comp,2024.2.4,57.25621459286056,2025-02-19 11h55.10.795879 -0500,
14,14,0,critical,wdh,35.0,2.1,upper,125.0,200.0,127.0,127.0,200.0,125.0,1,1.9302639961242676,None,,,,,0,0,0,0,0,14,14,33,186.29425382614136,,,,,,,,,,,,,,,,,,,,,,,,,,,,,,,,,,,,,,,,,,,,,,,,,,,,,,,,,,,,,,,,,,,,,,,,,,,,,,,,,125.0,200.0,127.0,127.0,200.0,125.0,2.1,2.12,-260,-274,0,-270,222,278,186.27961206436157,186.27970051765442,186.28339076042175,186.29425382614136,186.44393920898438,186.44393920898438,186.44393920898438,186.44393920898438,186.44393920898438,186.44393920898438,186.44393920898438,188.23269844055176,1,1.9302639961242676,None,,,,,,,,,,,,,,,,,,37,1,2025-02-19_11h54.59.294,comp,2024.2.4,57.25621459286056,2025-02-19 11h55.10.795879 -0500,
15,15,0,critical,whd,35.0,1.0,upper,125.0,200.0,200.0,125.0,127.0,127.0,1,2.442354440689087,None,,,,,0,0,0,0,0,15,15,85,188.25372099876404,,,,,,,,,,,,,,,,,,,,,,,,,,,,,,,,,,,,,,,,,,,,,,,,,,,,,,,,,,,,,,,,,,,,,,,,,,,,,,,,,125.0,200.0,200.0,125.0,127.0,127.0,1.0,1.1,-738,276,-480,274,-258,258,188.23429107666016,188.2343668937683,188.23780846595764,188.25372099876404,188.39582061767578,188.39582061767578,188.39582061767578,188.39582061767578,188.39582061767578,188.39582061767578,188.39582061767578,190.71167874336243,1,2.442354440689087,None,,,,,,,,,,,,,,,,,,37,1,2025-02-19_11h54.59.294,comp,2024.2.4,57.25621459286056,2025-02-19 11h55.10.795879 -0500,
16,16,0,critical,dwh,35.0,1.0,lower,70.0,70.0,57.0,133.0,133.0,57.0,2,3.4205145835876465,None,,,,,0,0,0,0,0,16,16,60,190.73155760765076,,,,,,,,,,,,,,,,,,,,,,,,,,,,,,,,,,,,,,,,,,,,,,,,,,,,,,,,,,,,,,,,,,,,,,,,,,,,,,,,,70.0,70.0,57.0,133.0,133.0,57.0,1.0,1.1,-678,261,-480,269,-289,263,190.71311235427856,190.7131862640381,190.71626901626587,190.73155760765076,190.87905478477478,190.87905478477478,190.87905478477478,190.87905478477478,190.87905478477478,190.87905478477478,190.87905478477478,194.165540933609,2,3.4205145835876465,None,,,,,,,,,,,,,,,,,,37,1,2025-02-19_11h54.59.294,comp,2024.2.4,57.25621459286056,2025-02-19 11h55.10.795879 -0500,
17,17,0,filler_square,None,None,None,None,None,None,None,None,None,None,1,1.3950040340423584,None,,,,,0,0,0,0,0,17,17,187,194.18119096755981,,,,,,,,,,,,,,,,,,,,,,,,,,,,,,,,,,,,,,,,,,,,,,,,,,,,,,,,,,,,,,,,,,,,,,,,,,,,,,,,,67.74254555102395,61.30363186003649,96.61888457330623,96.61888457330623,80.41199860760162,86.82087820777933,3.0,3.1,-175,254,0,9,188,-251,194.1673698425293,194.1674838066101,194.17084002494812,194.18119096755981,194.33096504211426,194.33096504211426,194.33096504211426,194.33096504211426,194.33096504211426,194.33096504211426,194.33096504211426,195.59569358825684,1,1.3950040340423584,None,,,,,,,,,,,,,,,,,,37,1,2025-02-19_11h54.59.294,comp,2024.2.4,57.25621459286056,2025-02-19 11h55.10.795879 -0500,
18,18,0,critical,dwh,35.0,4.0,lower,70.0,70.0,57.0,133.0,133.0,57.0,2,3.1013240814208984,None,,,,,0,0,0,0,0,18,18,64,195.61113691329956,,,,,,,,,,,,,,,,,,,,,,,,,,,,,,,,,,,,,,,,,,,,,,,,,,,,,,,,,,,,,,,,,,,,,,,,,,,,,,,,,70.0,70.0,57.0,133.0,133.0,57.0,4.0,4.2,-198,16,0,-281,191,-13,195.5971896648407,195.59726524353027,195.60057663917542,195.61113691329956,195.75338411331177,195.75338411331177,195.75338411331177,195.75338411331177,195.75338411331177,195.75338411331177,195.75338411331177,198.71855902671814,2,3.1013240814208984,None,,,,,,,,,,,,,,,,,,37,1,2025-02-19_11h54.59.294,comp,2024.2.4,57.25621459286056,2025-02-19 11h55.10.795879 -0500,
19,19,0,critical,dhw,35.0,2.1,upper,127.0,127.0,200.0,125.0,125.0,200.0,3,1.113447666168213,None,,,,,0,0,0,0,0,19,19,1,198.73481941223145,,,,,,,,,,,,,,,,,,,,,,,,,,,,,,,,,,,,,,,,,,,,,,,,,,,,,,,,,,,,,,,,,,,,,,,,,,,,,,,,,127.0,127.0,200.0,125.0,125.0,200.0,2.1,2.12,-222,-261,0,-274,258,277,198.72018313407898,198.72026085853577,198.72399234771729,198.73481941223145,198.88252472877502,198.88252472877502,198.88252472877502,198.88252472877502,198.88252472877502,198.88252472877502,198.88252472877502,199.85248041152954,3,1.113447666168213,None,,,,,,,,,,,,,,,,,,37,1,2025-02-19_11h54.59.294,comp,2024.2.4,57.25621459286056,2025-02-19 11h55.10.795879 -0500,
20,20,0,critical,dhw,20.0,4.0,lower,78.0,78.0,133.0,57.0,57.0,133.0,3,1.9484508037567139,None,,,,,0,0,0,0,0,20,20,58,199.8680398464203,,,,,,,,,,,,,,,,,,,,,,,,,,,,,,,,,,,,,,,,,,,,,,,,,,,,,,,,,,,,,,,,,,,,,,,,,,,,,,,,,78.0,78.0,133.0,57.0,57.0,133.0,4.0,4.2,-164,-8,0,-267,191,-16,199.85409998893738,199.85419058799744,199.8572714328766,199.8680398464203,200.0152187347412,200.0152187347412,200.0152187347412,200.0152187347412,200.0152187347412,200.0152187347412,200.0152187347412,201.83682346343994,3,1.9484508037567139,None,,,,,,,,,,,,,,,,,,37,1,2025-02-19_11h54.59.294,comp,2024.2.4,57.25621459286056,2025-02-19 11h55.10.795879 -0500,
21,21,0,critical,hdw,35.0,2.1,lower,133.0,57.0,70.0,70.0,57.0,133.0,1,1.7000911235809326,None,,,,,0,0,0,0,0,21,21,20,201.85195875167847,,,,,,,,,,,,,,,,,,,,,,,,,,,,,,,,,,,,,,,,,,,,,,,,,,,,,,,,,,,,,,,,,,,,,,,,,,,,,,,,,133.0,57.0,70.0,70.0,57.0,133.0,2.1,2.11,-160,265,0,280,198,-284,201.83848881721497,201.83858156204224,201.84169793128967,201.85195875167847,202.00250148773193,202.00250148773193,202.00250148773193,202.00250148773193,202.00250148773193,202.00250148773193,202.00250148773193,203.5670940876007,1,1.7000911235809326,None,,,,,,,,,,,,,,,,,,37,1,2025-02-19_11h54.59.294,comp,2024.2.4,57.25621459286056,2025-02-19 11h55.10.795879 -0500,
22,22,0,critical,hwd,20.0,2.1,upper,200.0,125.0,125.0,200.0,141.0,141.0,2,3.079345703125,None,,,,,0,0,0,0,0,22,22,43,203.58533835411072,,,,,,,,,,,,,,,,,,,,,,,,,,,,,,,,,,,,,,,,,,,,,,,,,,,,,,,,,,,,,,,,,,,,,,,,,,,,,,,,,200.0,125.0,125.0,200.0,141.0,141.0,2.1,2.11,-258,266,0,266,266,-283,203.56866574287415,203.56874179840088,203.57272720336914,203.58533835411072,203.73331356048584,203.73331356048584,203.73331356048584,203.73331356048584,203.73331356048584,203.73331356048584,203.73331356048584,206.66907596588135,2,3.079345703125,None,,,,,,,,,,,,,,,,,,37,1,2025-02-19_11h54.59.294,comp,2024.2.4,57.25621459286056,2025-02-19 11h55.10.795879 -0500,
23,23,0,filler_random,None,None,None,None,None,None,None,None,None,None,1,0.993441104888916,None,,,,,0,0,0,0,0,23,23,139,206.68662309646606,,,,,,,,,,,,,,,,,,,,,,,,,,,,,,,,,,,,,,,,,,,,,,,,,,,,,,,,,,,,,,,,,,,,,,,,,,,,,,,,,181.23389558975128,177.82781723216362,142.0719368591822,84.63338486496319,113.30108776403998,111.98203138826739,2.1,2.11,-227,254,0,258,194,-255,206.67092084884644,206.671000957489,206.6749701499939,206.68662309646606,206.83417010307312,206.83417010307312,206.83417010307312,206.83417010307312,206.83417010307312,206.83417010307312,206.83417010307312,207.68440127372742,1,0.993441104888916,None,,,,,,,,,,,,,,,,,,37,1,2025-02-19_11h54.59.294,comp,2024.2.4,57.25621459286056,2025-02-19 11h55.10.795879 -0500,
24,24,0,filler_square,None,None,None,None,None,None,None,None,None,None,2,4.5710766315460205,None,,,,,0,0,0,0,0,24,24,176,207.70108222961426,,,,,,,,,,,,,,,,,,,,,,,,,,,,,,,,,,,,,,,,,,,,,,,,,,,,,,,,,,,,,,,,,,,,,,,,,,,,,,,,,68.07193570560239,68.07193570560239,65.52501940043722,66.45051015838757,58.879493241815545,58.17612329253835,3.0,3.1,-163,255,0,-12,158,-284,207.68620944023132,207.68628668785095,207.6904797554016,207.70108222961426,207.8387806415558,207.8387806415558,207.8387806415558,207.8387806415558,207.8387806415558,207.8387806415558,207.8387806415558,212.28677082061768,2,4.5710766315460205,None,,,,,,,,,,,,,,,,,,37,1,2025-02-19_11h54.59.294,comp,2024.2.4,57.25621459286056,2025-02-19 11h55.10.795879 -0500,
25,25,0,critical,dhw,35.0,3.0,lower,70.0,70.0,133.0,57.0,57.0,133.0,2,1.2864108085632324,None,,,,,0,0,0,0,0,25,25,50,212.30633187294006,,,,,,,,,,,,,,,,,,,,,,,,,,,,,,,,,,,,,,,,,,,,,,,,,,,,,,,,,,,,,,,,,,,,,,,,,,,,,,,,,70.0,70.0,133.0,57.0,57.0,133.0,3.0,3.2,-160,-286,0,-7,191,280,212.28828263282776,212.28837895393372,212.29158067703247,212.30633187294006,212.45218539237976,212.45218539237976,212.45218539237976,212.45218539237976,212.45218539237976,212.45218539237976,212.45218539237976,213.59975266456604,2,1.2864108085632324,None,,,,,,,,,,,,,,,,,,37,1,2025-02-19_11h54.59.294,comp,2024.2.4,57.25621459286056,2025-02-19 11h55.10.795879 -0500,
26,26,0,critical,hdw,20.0,2.1,lower,133.0,57.0,78.0,78.0,57.0,133.0,3,2.631309747695923,None,,,,,0,0,0,0,0,26,26,46,213.61677646636963,,,,,,,,,,,,,,,,,,,,,,,,,,,,,,,,,,,,,,,,,,,,,,,,,,,,,,,,,,,,,,,,,,,,,,,,,,,,,,,,,133.0,57.0,78.0,78.0,57.0,133.0,2.1,2.11,-164,273,0,254,202,-280,213.60125946998596,213.6013355255127,213.6043860912323,213.61677646636963,213.76852321624756,213.76852321624756,213.76852321624756,213.76852321624756,213.76852321624756,213.76852321624756,213.76852321624756,216.26306653022766,3,2.631309747695923,None,,,,,,,,,,,,,,,,,,37,1,2025-02-19_11h54.59.294,comp,2024.2.4,57.25621459286056,2025-02-19 11h55.10.795879 -0500,
27,27,0,filler_random,None,None,None,None,None,None,None,None,None,None,3,1.2977023124694824,None,,,,,0,0,0,0,0,27,27,153,216.27840447425842,,,,,,,,,,,,,,,,,,,,,,,,,,,,,,,,,,,,,,,,,,,,,,,,,,,,,,,,,,,,,,,,,,,,,,,,,,,,,,,,,194.20582212733973,116.39537139717378,108.92111894136502,107.19146030263303,183.5146513367702,173.28456748811874,4.0,4.2,-208,-13,0,-276,236,17,216.26478505134583,216.26486039161682,216.26797151565552,216.27840447425842,216.42069292068481,216.42069292068481,216.42069292068481,216.42069292068481,216.42069292068481,216.42069292068481,216.42069292068481,217.59174251556396,3,1.2977023124694824,None,,,,,,,,,,,,,,,,,,37,1,2025-02-19_11h54.59.294,comp,2024.2.4,57.25621459286056,2025-02-19 11h55.10.795879 -0500,
28,28,0,critical,hdw,20.0,1.0,upper,200.0,125.0,141.0,141.0,125.0,200.0,2,4.8935933113098145,None,,,,,0,0,0,0,0,28,28,115,217.61116981506348,,,,,,,,,,,,,,,,,,,,,,,,,,,,,,,,,,,,,,,,,,,,,,,,,,,,,,,,,,,,,,,,,,,,,,,,,,,,,,,,,200.0,125.0,141.0,141.0,125.0,200.0,1.0,1.3,251,-261,480,-254,746,-286,217.59332633018494,217.5934019088745,217.59652996063232,217.61116981506348,217.7544059753418,217.7544059753418,217.7544059753418,217.7544059753418,217.7544059753418,217.7544059753418,217.7544059753418,222.51321625709534,2,4.8935933113098145,None,,,,,,,,,,,,,,,,,,37,1,2025-02-19_11h54.59.294,comp,2024.2.4,57.25621459286056,2025-02-19 11h55.10.795879 -0500,
29,29,0,critical,dhw,20.0,4.0,upper,141.0,141.0,200.0,125.0,125.0,200.0,3,1.8451182842254639,None,,,,,0,0,0,0,0,29,29,59,222.5310287475586,,,,,,,,,,,,,,,,,,,,,,,,,,,,,,,,,,,,,,,,,,,,,,,,,,,,,,,,,,,,,,,,,,,,,,,,,,,,,,,,,141.0,141.0,200.0,125.0,125.0,200.0,4.0,4.2,-229,-3,0,-256,258,9,222.51478266716003,222.5148606300354,222.51791286468506,222.5310287475586,222.67301559448242,222.67301559448242,222.67301559448242,222.67301559448242,222.67301559448242,222.67301559448242,222.67301559448242,224.37868881225586,3,1.8451182842254639,None,,,,,,,,,,,,,,,,,,37,1,2025-02-19_11h54.59.294,comp,2024.2.4,57.25621459286056,2025-02-19 11h55.10.795879 -0500,
30,30,0,filler_random,None,None,None,None,None,None,None,None,None,None,1,0.9208979606628418,None,,,,,0,0,0,0,0,30,30,157,224.39994716644287,,,,,,,,,,,,,,,,,,,,,,,,,,,,,,,,,,,,,,,,,,,,,,,,,,,,,,,,,,,,,,,,,,,,,,,,,,,,,,,,,194.15554424913415,168.23111453866005,67.50784670693938,95.56879716195687,96.0105052060198,177.8552432516863,3.0,3.1,-228,263,0,11,233,-278,224.3804953098297,224.3806221485138,224.38407611846924,224.39994716644287,224.5386884212494,224.5386884212494,224.5386884212494,224.5386884212494,224.5386884212494,224.5386884212494,224.5386884212494,225.32305645942688,1,0.9208979606628418,None,,,,,,,,,,,,,,,,,,37,1,2025-02-19_11h54.59.294,comp,2024.2.4,57.25621459286056,2025-02-19 11h55.10.795879 -0500,
31,31,0,critical,whd,20.0,1.0,upper,125.0,200.0,200.0,125.0,141.0,141.0,2,2.228867292404175,None,,,,,0,0,0,0,0,31,31,91,225.33964109420776,,,,,,,,,,,,,,,,,,,,,,,,,,,,,,,,,,,,,,,,,,,,,,,,,,,,,,,,,,,,,,,,,,,,,,,,,,,,,,,,,125.0,200.0,200.0,125.0,141.0,141.0,1.0,1.2,-258,15,0,18,229,-17,225.32457304000854,225.3246772289276,225.32806730270386,225.33964109420776,225.48864817619324,225.48864817619324,225.48864817619324,225.48864817619324,225.48864817619324,225.48864817619324,225.48864817619324,227.57450938224792,2,2.228867292404175,None,,,,,,,,,,,,,,,,,,37,1,2025-02-19_11h54.59.294,comp,2024.2.4,57.25621459286056,2025-02-19 11h55.10.795879 -0500,
32,32,0,critical,dwh,35.0,1.0,upper,127.0,127.0,125.0,200.0,200.0,125.0,2,1.833099603652954,None,,,,,0,0,0,0,0,32,32,61,227.59103918075562,,,,,,,,,,,,,,,,,,,,,,,,,,,,,,,,,,,,,,,,,,,,,,,,,,,,,,,,,,,,,,,,,,,,,,,,,,,,,,,,,127.0,127.0,125.0,200.0,200.0,125.0,1.0,1.3,220,-270,480,-266,738,-270,227.57606434822083,227.5761423110962,227.57968163490295,227.59103918075562,227.73999881744385,227.73999881744385,227.73999881744385,227.73999881744385,227.73999881744385,227.73999881744385,227.73999881744385,229.44094896316528,2,1.833099603652954,None,,,,,,,,,,,,,,,,,,37,1,2025-02-19_11h54.59.294,comp,2024.2.4,57.25621459286056,2025-02-19 11h55.10.795879 -0500,
33,33,0,filler_random,None,None,None,None,None,None,None,None,None,None,2,2.750866174697876,None,,,,,0,0,0,0,0,33,33,137,229.45730090141296,,,,,,,,,,,,,,,,,,,,,,,,,,,,,,,,,,,,,,,,,,,,,,,,,,,,,,,,,,,,,,,,,,,,,,,,,,,,,,,,,164.8732335716492,146.23534125472952,120.23689103237788,188.71087281748848,178.35190483861905,76.77772656132807,2.2,2.22,-263,254,0,-274,229,-259,229.44260621070862,229.44268369674683,229.44614386558533,229.45730090141296,229.60708284378052,229.60708284378052,229.60708284378052,229.60708284378052,229.60708284378052,229.60708284378052,229.60708284378052,232.2288269996643,2,2.750866174697876,None,,,,,,,,,,,,,,,,,,37,1,2025-02-19_11h54.59.294,comp,2024.2.4,57.25621459286056,2025-02-19 11h55.10.795879 -0500,
34,34,0,critical,dwh,35.0,4.0,upper,127.0,127.0,125.0,200.0,200.0,125.0,2,1.0384783744812012,None,,,,,0,0,0,0,0,34,34,65,232.24953269958496,,,,,,,,,,,,,,,,,,,,,,,,,,,,,,,,,,,,,,,,,,,,,,,,,,,,,,,,,,,,,,,,,,,,,,,,,,,,,,,,,127.0,127.0,125.0,200.0,200.0,125.0,4.0,4.1,-260,-264,0,1,258,-251,232.23053669929504,232.23065280914307,232.23419427871704,232.24953269958496,232.39281511306763,232.39281511306763,232.39281511306763,232.39281511306763,232.39281511306763,232.39281511306763,232.39281511306763,233.30284333229065,2,1.0384783744812012,None,,,,,,,,,,,,,,,,,,37,1,2025-02-19_11h54.59.294,comp,2024.2.4,57.25621459286056,2025-02-19 11h55.10.795879 -0500,
35,35,0,filler_random,None,None,None,None,None,None,None,None,None,None,2,1.0452370643615723,None,,,,,0,0,0,0,0,35,35,133,233.32322764396667,,,,,,,,,,,,,,,,,,,,,,,,,,,,,,,,,,,,,,,,,,,,,,,,,,,,,,,,,,,,,,,,,,,,,,,,,,,,,,,,,132.78008304850817,118.69173397408599,193.37763901933891,93.82468836281652,165.19741197657683,58.4823501565228,1.0,1.1,-682,281,-480,275,-308,285,233.30451893806458,233.30459642410278,233.307635307312,233.32322764396667,233.45834517478943,233.45834517478943,233.45834517478943,233.45834517478943,233.45834517478943,233.45834517478943,233.45834517478943,234.3767488002777,2,1.0452370643615723,None,,,,,,,,,,,,,,,,,,37,1,2025-02-19_11h54.59.294,comp,2024.2.4,57.25621459286056,2025-02-19 11h55.10.795879 -0500,
36,36,0,filler_square,None,None,None,None,None,None,None,None,None,None,3,1.5826280117034912,None,,,,,0,0,0,0,0,36,36,205,234.39350271224976,,,,,,,,,,,,,,,,,,,,,,,,,,,,,,,,,,,,,,,,,,,,,,,,,,,,,,,,,,,,,,,,,,,,,,,,,,,,,,,,,79.63742578139032,70.0015076290584,73.74321913998489,71.61398087513646,94.83822807139293,94.83822807139293,1.0,1.3,313,-271,480,-255,659,-284,234.3786735534668,234.37875819206238,234.3827247619629,234.39350271224976,234.54321670532227,234.54321670532227,234.54321670532227,234.54321670532227,234.54321670532227,234.54321670532227,234.54321670532227,235.97814416885376,3,1.5826280117034912,None,,,,,,,,,,,,,,,,,,37,1,2025-02-19_11h54.59.294,comp,2024.2.4,57.25621459286056,2025-02-19 11h55.10.795879 -0500,
37,37,0,filler_square,None,None,None,None,None,None,None,None,None,None,3,0.9957890510559082,None,,,,,0,0,0,0,0,37,37,201,235.99686121940613,,,,,,,,,,,,,,,,,,,,,,,,,,,,,,,,,,,,,,,,,,,,,,,,,,,,,,,,,,,,,,,,,,,,,,,,,,,,,,,,,83.42651670317073,123.5017075419908,83.50242630819848,69.69059344698621,199.33931445800394,199.33931445800394,2.1,2.11,-193,264,0,262,231,-274,235.98028707504272,235.9803659915924,235.98378252983093,235.99686121940613,236.14296793937683,236.14296793937683,236.14296793937683,236.14296793937683,236.14296793937683,236.14296793937683,236.14296793937683,236.99498057365417,3,0.9957890510559082,None,,,,,,,,,,,,,,,,,,37,1,2025-02-19_11h54.59.294,comp,2024.2.4,57.25621459286056,2025-02-19 11h55.10.795879 -0500,
38,38,0,filler_square,None,None,None,None,None,None,None,None,None,None,3,0.9726033210754395,None,,,,,0,0,0,0,0,38,38,183,237.01194286346436,,,,,,,,,,,,,,,,,,,,,,,,,,,,,,,,,,,,,,,,,,,,,,,,,,,,,,,,,,,,,,,,,,,,,,,,,,,,,,,,,116.28044184276139,101.50957136127838,118.73088298231858,69.96266693724,152.97586283802246,152.97586283802246,1.0,1.1,-662,288,-480,284,-273,262,236.9972746372223,236.99735283851624,237.00134539604187,237.01194286346436,237.15914463996887,237.15914463996887,237.15914463996887,237.15914463996887,237.15914463996887,237.15914463996887,237.15914463996887,237.99717712402344,3,0.9726033210754395,None,,,,,,,,,,,,,,,,,,37,1,2025-02-19_11h54.59.294,comp,2024.2.4,57.25621459286056,2025-02-19 11h55.10.795879 -0500,
39,39,0,filler_random,None,None,None,None,None,None,None,None,None,None,1,1.5948505401611328,None,,,,,0,0,0,0,0,39,39,159,238.0131859779358,,,,,,,,,,,,,,,,,,,,,,,,,,,,,,,,,,,,,,,,,,,,,,,,,,,,,,,,,,,,,,,,,,,,,,,,,,,,,,,,,149.79206817785243,130.46821577248562,135.0096904777139,99.61988036837758,61.85648271024938,58.474413751172676,2.2,2.21,-211,-253,0,264,175,270,237.9989037513733,237.99898147583008,238.00293278694153,238.0131859779358,238.16147780418396,238.16147780418396,238.16147780418396,238.16147780418396,238.16147780418396,238.16147780418396,238.16147780418396,239.61087131500244,1,1.5948505401611328,None,,,,,,,,,,,,,,,,,,37,1,2025-02-19_11h54.59.294,comp,2024.2.4,57.25621459286056,2025-02-19 11h55.10.795879 -0500,
40,40,0,critical,hwd,35.0,1.0,lower,133.0,57.0,57.0,133.0,70.0,70.0,2,1.6050372123718262,None,,,,,0,0,0,0,0,40,40,96,239.62695026397705,,,,,,,,,,,,,,,,,,,,,,,,,,,,,,,,,,,,,,,,,,,,,,,,,,,,,,,,,,,,,,,,,,,,,,,,,,,,,,,,,133.0,57.0,57.0,133.0,70.0,70.0,1.0,1.1,-671,289,-480,287,-282,275,239.61248517036438,239.61256551742554,239.61620450019836,239.62695026397705,239.77898931503296,239.77898931503296,239.77898931503296,239.77898931503296,239.77898931503296,239.77898931503296,239.77898931503296,241.24346542358398,2,1.6050372123718262,None,,,,,,,,,,,,,,,,,,37,1,2025-02-19_11h54.59.294,comp,2024.2.4,57.25621459286056,2025-02-19 11h55.10.795879 -0500,
41,41,0,critical,dhw,20.0,1.0,upper,141.0,141.0,200.0,125.0,125.0,200.0,3,2.459847927093506,None,,,,,0,0,0,0,0,41,41,55,241.2602138519287,,,,,,,,,,,,,,,,,,,,,,,,,,,,,,,,,,,,,,,,,,,,,,,,,,,,,,,,,,,,,,,,,,,,,,,,,,,,,,,,,141.0,141.0,200.0,125.0,125.0,200.0,1.0,1.3,251,-273,480,-280,738,-282,241.2450361251831,241.2451136112213,241.24878239631653,241.2602138519287,241.41229557991028,241.41229557991028,241.41229557991028,241.41229557991028,241.41229557991028,241.41229557991028,241.41229557991028,243.73192858695984,3,2.459847927093506,None,,,,,,,,,,,,,,,,,,37,1,2025-02-19_11h54.59.294,comp,2024.2.4,57.25621459286056,2025-02-19 11h55.10.795879 -0500,
42,42,0,critical,hdw,35.0,4.0,lower,133.0,57.0,70.0,70.0,57.0,133.0,1,3.01885724067688,None,,,,,0,0,0,0,0,42,42,112,243.7492434978485,,,,,,,,,,,,,,,,,,,,,,,,,,,,,,,,,,,,,,,,,,,,,,,,,,,,,,,,,,,,,,,,,,,,,,,,,,,,,,,,,133.0,57.0,70.0,70.0,57.0,133.0,4.0,4.1,-160,-259,0,-4,198,-283,243.73374843597412,243.73386645317078,243.73755407333374,243.7492434978485,243.89956164360046,243.89956164360046,243.89956164360046,243.89956164360046,243.89956164360046,243.89956164360046,243.89956164360046,246.78208255767822,1,3.01885724067688,None,,,,,,,,,,,,,,,,,,37,1,2025-02-19_11h54.59.294,comp,2024.2.4,57.25621459286056,2025-02-19 11h55.10.795879 -0500,
43,43,0,critical,wdh,35.0,4.0,upper,125.0,200.0,127.0,127.0,200.0,125.0,1,1.918165683746338,None,,,,,0,0,0,0,0,43,43,77,246.80264592170715,,,,,,,,,,,,,,,,,,,,,,,,,,,,,,,,,,,,,,,,,,,,,,,,,,,,,,,,,,,,,,,,,,,,,,,,,,,,,,,,,125.0,200.0,127.0,127.0,200.0,125.0,4.0,4.1,-260,-276,0,-2,222,-261,246.78392934799194,246.78405618667603,246.7873237133026,246.80264592170715,246.947651386261,246.947651386261,246.947651386261,246.947651386261,246.947651386261,246.947651386261,246.947651386261,248.73062753677368,1,1.918165683746338,None,,,,,,,,,,,,,,,,,,37,1,2025-02-19_11h54.59.294,comp,2024.2.4,57.25621459286056,2025-02-19 11h55.10.795879 -0500,
44,44,0,critical,dwh,35.0,3.0,lower,70.0,70.0,57.0,133.0,133.0,57.0,2,1.8048739433288574,None,,,,,0,0,0,0,0,44,44,62,248.74717569351196,,,,,,,,,,,,,,,,,,,,,,,,,,,,,,,,,,,,,,,,,,,,,,,,,,,,,,,,,,,,,,,,,,,,,,,,,,,,,,,,,70.0,70.0,57.0,133.0,133.0,57.0,3.0,3.2,-198,-258,0,-11,191,281,248.73207426071167,248.7321503162384,248.73646903038025,248.74717569351196,248.89533066749573,248.89533066749573,248.89533066749573,248.89533066749573,248.89533066749573,248.89533066749573,248.89533066749573,250.56357550621033,2,1.8048739433288574,None,,,,,,,,,,,,,,,,,,37,1,2025-02-19_11h54.59.294,comp,2024.2.4,57.25621459286056,2025-02-19 11h55.10.795879 -0500,
45,45,0,critical,whd,20.0,1.0,lower,57.0,133.0,133.0,57.0,78.0,78.0,1,2.196756362915039,None,,,,,0,0,0,0,0,45,45,90,250.5802879333496,,,,,,,,,,,,,,,,,,,,,,,,,,,,,,,,,,,,,,,,,,,,,,,,,,,,,,,,,,,,,,,,,,,,,,,,,,,,,,,,,57.0,133.0,133.0,57.0,78.0,78.0,1.0,1.1,-671,274,-480,287,-316,254,250.56508946418762,250.5651662349701,250.5686526298523,250.5802879333496,250.733971118927,250.733971118927,250.733971118927,250.733971118927,250.733971118927,250.733971118927,250.733971118927,252.78199434280396,1,2.196756362915039,None,,,,,,,,,,,,,,,,,,37,1,2025-02-19_11h54.59.294,comp,2024.2.4,57.25621459286056,2025-02-19 11h55.10.795879 -0500,
46,46,0,catch,None,None,None,None,None,None,None,None,None,None,1,1.4332525730133057,None,,,,,0,0,0,0,0,46,46,124,252.79904508590698,,,,,,,,,,,,,,,,,,,,,,,,,,,,,,,,,,,,,,,,,,,,,,,,,,,,,,,,,,,,,,,,,,,,,,,,,,,,,,,,,194,131,85,105,89,101,2.1,2.12,-214,-282,0,-253,199,252,252.78388261795044,252.7839605808258,252.78815174102783,252.79904508590698,252.95052552223206,252.95052552223206,252.95052552223206,252.95052552223206,252.95052552223206,252.95052552223206,252.95052552223206,254.23410892486572,1,1.4332525730133057,None,,,,,,,,,,,,,,,,,,37,1,2025-02-19_11h54.59.294,comp,2024.2.4,57.25621459286056,2025-02-19 11h55.10.795879 -0500,
47,47,0,filler_random,None,None,None,None,None,None,None,None,None,None,2,1.1969118118286133,None,,,,,0,0,0,0,0,47,47,162,254.25160002708435,,,,,,,,,,,,,,,,,,,,,,,,,,,,,,,,,,,,,,,,,,,,,,,,,,,,,,,,,,,,,,,,,,,,,,,,,,,,,,,,,75.66287748115383,83.5692296254291,188.11658726833775,129.14350494953774,101.82646770045866,80.84037189010245,4.0,4.1,-202,-290,0,12,201,-251,254.23605585098267,254.23613357543945,254.24018502235413,254.25160002708435,254.40124344825745,254.40124344825745,254.40124344825745,254.40124344825745,254.40124344825745,254.40124344825745,254.40124344825745,255.45652866363525,2,1.1969118118286133,None,,,,,,,,,,,,,,,,,,37,1,2025-02-19_11h54.59.294,comp,2024.2.4,57.25621459286056,2025-02-19 11h55.10.795879 -0500,
48,48,0,critical,hdw,20.0,4.0,upper,200.0,125.0,141.0,141.0,125.0,200.0,3,1.8590753078460693,None,,,,,0,0,0,0,0,48,48,119,255.4773325920105,,,,,,,,,,,,,,,,,,,,,,,,,,,,,,,,,,,,,,,,,,,,,,,,,,,,,,,,,,,,,,,,,,,,,,,,,,,,,,,,,200.0,125.0,141.0,141.0,125.0,200.0,4.0,4.2,-229,16,0,-283,266,2,255.45810389518738,255.4581799507141,255.46162915229797,255.4773325920105,255.61697435379028,255.61697435379028,255.61697435379028,255.61697435379028,255.61697435379028,255.61697435379028,255.61697435379028,257.3492329120636,3,1.8590753078460693,None,,,,,,,,,,,,,,,,,,37,1,2025-02-19_11h54.59.294,comp,2024.2.4,57.25621459286056,2025-02-19 11h55.10.795879 -0500,
49,49,0,critical,dwh,20.0,3.0,lower,78.0,78.0,57.0,133.0,133.0,57.0,2,1.1682250499725342,None,,,,,0,0,0,0,0,49,49,68,257.367883682251,,,,,,,,,,,,,,,,,,,,,,,,,,,,,,,,,,,,,,,,,,,,,,,,,,,,,,,,,,,,,,,,,,,,,,,,,,,,,,,,,78.0,78.0,57.0,133.0,133.0,57.0,3.0,3.2,-202,-272,0,-13,191,252,257.350790977478,257.3508667945862,257.35398864746094,257.367883682251,257.52485275268555,257.52485275268555,257.52485275268555,257.52485275268555,257.52485275268555,257.52485275268555,257.52485275268555,258.55026626586914,2,1.1682250499725342,None,,,,,,,,,,,,,,,,,,37,1,2025-02-19_11h54.59.294,comp,2024.2.4,57.25621459286056,2025-02-19 11h55.10.795879 -0500,
50,50,0,filler_square,None,None,None,None,None,None,None,None,None,None,3,1.0267248153686523,None,,,,,0,0,0,0,0,50,50,200,258.5653042793274,,,,,,,,,,,,,,,,,,,,,,,,,,,,,,,,,,,,,,,,,,,,,,,,,,,,,,,,,,,,,,,,,,,,,,,,,,,,,,,,,83.1734805474869,69.8545357062023,121.60884962018363,134.57952893872533,179.98552093364543,179.98552093364543,2.2,2.21,-198,-265,0,251,253,289,258.55188035964966,258.5519473552704,258.5549957752228,258.5653042793274,258.7215449810028,258.7215449810028,258.7215449810028,258.7215449810028,258.7215449810028,258.7215449810028,258.7215449810028,259.6013295650482,3,1.0267248153686523,None,,,,,,,,,,,,,,,,,,37,1,2025-02-19_11h54.59.294,comp,2024.2.4,57.25621459286056,2025-02-19 11h55.10.795879 -0500,
51,51,0,critical,whd,35.0,2.1,upper,125.0,200.0,200.0,125.0,127.0,127.0,1,0.9342658519744873,None,,,,,0,0,0,0,0,51,51,13,259.61786103248596,,,,,,,,,,,,,,,,,,,,,,,,,,,,,,,,,,,,,,,,,,,,,,,,,,,,,,,,,,,,,,,,,,,,,,,,,,,,,,,,,125.0,200.0,200.0,125.0,127.0,127.0,2.1,2.12,-258,-275,0,-250,222,258,259.6028685569763,259.60294461250305,259.60637402534485,259.61786103248596,259.7679343223572,259.7679343223572,259.7679343223572,259.7679343223572,259.7679343223572,259.7679343223572,259.7679343223572,260.5657982826233,1,0.9342658519744873,None,,,,,,,,,,,,,,,,,,37,1,2025-02-19_11h54.59.294,comp,2024.2.4,57.25621459286056,2025-02-19 11h55.10.795879 -0500,
52,52,0,critical,wdh,35.0,1.0,upper,125.0,200.0,127.0,127.0,200.0,125.0,1,0.9158713817596436,None,,,,,0,0,0,0,0,52,52,73,260.5807373523712,,,,,,,,,,,,,,,,,,,,,,,,,,,,,,,,,,,,,,,,,,,,,,,,,,,,,,,,,,,,,,,,,,,,,,,,,,,,,,,,,125.0,200.0,127.0,127.0,200.0,125.0,1.0,1.2,-260,-9,0,-12,222,11,260.5672674179077,260.5673418045044,260.57053899765015,260.5807373523712,260.74319672584534,260.74319672584534,260.74319672584534,260.74319672584534,260.74319672584534,260.74319672584534,260.74319672584534,261.50151562690735,1,0.9158713817596436,None,,,,,,,,,,,,,,,,,,37,1,2025-02-19_11h54.59.294,comp,2024.2.4,57.25621459286056,2025-02-19 11h55.10.795879 -0500,
53,53,0,critical,wdh,35.0,2.1,lower,57.0,133.0,70.0,70.0,133.0,57.0,1,1.9465456008911133,None,,,,,0,0,0,0,0,53,53,8,261.5181040763855,,,,,,,,,,,,,,,,,,,,,,,,,,,,,,,,,,,,,,,,,,,,,,,,,,,,,,,,,,,,,,,,,,,,,,,,,,,,,,,,,57.0,133.0,70.0,70.0,133.0,57.0,2.1,2.12,-198,-281,0,-279,160,278,261.5030539035797,261.50313115119934,261.5075032711029,261.5181040763855,261.6677260398865,261.6677260398865,261.6677260398865,261.6677260398865,261.6677260398865,261.6677260398865,261.6677260398865,263.46682119369507,1,1.9465456008911133,None,,,,,,,,,,,,,,,,,,37,1,2025-02-19_11h54.59.294,comp,2024.2.4,57.25621459286056,2025-02-19 11h55.10.795879 -0500,
54,54,0,critical,wdh,20.0,4.0,lower,57.0,133.0,78.0,78.0,133.0,57.0,1,1.8046350479125977,None,,,,,0,0,0,0,0,54,54,82,263.48362135887146,,,,,,,,,,,,,,,,,,,,,,,,,,,,,,,,,,,,,,,,,,,,,,,,,,,,,,,,,,,,,,,,,,,,,,,,,,,,,,,,,57.0,133.0,78.0,78.0,133.0,57.0,4.0,4.1,-202,-263,0,-20,164,-281,263.46832394599915,263.46839904785156,263.47190141677856,263.48362135887146,263.6372060775757,263.6372060775757,263.6372060775757,263.6372060775757,263.6372060775757,263.6372060775757,263.6372060775757,265.30177640914917,1,1.8046350479125977,None,,,,,,,,,,,,,,,,,,37,1,2025-02-19_11h54.59.294,comp,2024.2.4,57.25621459286056,2025-02-19 11h55.10.795879 -0500,
55,55,0,critical,hwd,35.0,2.1,lower,133.0,57.0,57.0,133.0,70.0,70.0,1,1.33833909034729,None,,,,,0,0,0,0,0,55,55,16,265.3178369998932,,,,,,,,,,,,,,,,,,,,,,,,,,,,,,,,,,,,,,,,,,,,,,,,,,,,,,,,,,,,,,,,,,,,,,,,,,,,,,,,,133.0,57.0,57.0,133.0,70.0,70.0,2.1,2.12,-191,-268,0,-288,198,274,265.3032822608948,265.30335521698,265.30650424957275,265.3178369998932,265.47768449783325,265.47768449783325,265.47768449783325,265.47768449783325,265.47768449783325,265.47768449783325,265.47768449783325,266.6734595298767,1,1.33833909034729,None,,,,,,,,,,,,,,,,,,37,1,2025-02-19_11h54.59.294,comp,2024.2.4,57.25621459286056,2025-02-19 11h55.10.795879 -0500,
56,56,0,critical,dhw,35.0,3.0,upper,127.0,127.0,200.0,125.0,125.0,200.0,2,1.208397388458252,None,,,,,0,0,0,0,0,56,56,51,266.6885702610016,,,,,,,,,,,,,,,,,,,,,,,,,,,,,,,,,,,,,,,,,,,,,,,,,,,,,,,,,,,,,,,,,,,,,,,,,,,,,,,,,127.0,127.0,200.0,125.0,125.0,200.0,3.0,3.1,-222,264,0,2,258,-283,266.67521119117737,266.67528653144836,266.6783480644226,266.6885702610016,266.8390028476715,266.8390028476715,266.8390028476715,266.8390028476715,266.8390028476715,266.8390028476715,266.8390028476715,267.90204548835754,2,1.208397388458252,None,,,,,,,,,,,,,,,,,,37,1,2025-02-19_11h54.59.294,comp,2024.2.4,57.25621459286056,2025-02-19 11h55.10.795879 -0500,
57,57,0,filler_random,None,None,None,None,None,None,None,None,None,None,1,1.1856870651245117,None,,,,,0,0,0,0,0,57,57,155,267.9190831184387,,,,,,,,,,,,,,,,,,,,,,,,,,,,,,,,,,,,,,,,,,,,,,,,,,,,,,,,,,,,,,,,,,,,,,,,,,,,,,,,,196.2388942915222,160.11166013741092,110.13052859889923,118.91687963337758,133.07679679472815,142.57072640558357,2.1,2.12,-236,-264,0,-276,227,259,267.90390133857727,267.9040324687958,267.9074876308441,267.9190831184387,268.07892990112305,268.07892990112305,268.07892990112305,268.07892990112305,268.07892990112305,268.07892990112305,268.07892990112305,269.1070227622986,1,1.1856870651245117,None,,,,,,,,,,,,,,,,,,37,1,2025-02-19_11h54.59.294,comp,2024.2.4,57.25621459286056,2025-02-19 11h55.10.795879 -0500,
58,58,0,critical,hwd,20.0,2.1,lower,133.0,57.0,57.0,133.0,78.0,78.0,1,2.300342082977295,None,,,,,0,0,0,0,0,58,58,18,269.1239483356476,,,,,,,,,,,,,,,,,,,,,,,,,,,,,,,,,,,,,,,,,,,,,,,,,,,,,,,,,,,,,,,,,,,,,,,,,,,,,,,,,133.0,57.0,57.0,133.0,78.0,78.0,2.1,2.12,-191,-264,0,-278,202,276,269.10867261886597,269.10875058174133,269.1122863292694,269.1239483356476,269.2692096233368,269.2692096233368,269.2692096233368,269.2692096233368,269.2692096233368,269.2692096233368,269.2692096233368,271.4367687702179,1,2.300342082977295,None,,,,,,,,,,,,,,,,,,37,1,2025-02-19_11h54.59.294,comp,2024.2.4,57.25621459286056,2025-02-19 11h55.10.795879 -0500,
59,59,0,critical,whd,35.0,2.1,lower,57.0,133.0,133.0,57.0,70.0,70.0,1,0.9076175689697266,None,,,,,0,0,0,0,0,59,59,36,271.4526662826538,,,,,,,,,,,,,,,,,,,,,,,,,,,,,,,,,,,,,,,,,,,,,,,,,,,,,,,,,,,,,,,,,,,,,,,,,,,,,,,,,57.0,133.0,133.0,57.0,70.0,70.0,2.1,2.12,-191,-267,0,-286,160,266,271.4382586479187,271.4383339881897,271.44156551361084,271.4526662826538,271.60570430755615,271.60570430755615,271.60570430755615,271.60570430755615,271.60570430755615,271.60570430755615,271.60570430755615,272.37449645996094,1,0.9076175689697266,None,,,,,,,,,,,,,,,,,,37,1,2025-02-19_11h54.59.294,comp,2024.2.4,57.25621459286056,2025-02-19 11h55.10.795879 -0500,
60,60,0,critical,hwd,35.0,2.1,lower,133.0,57.0,57.0,133.0,70.0,70.0,1,0.6506428718566895,None,,,,,0,0,0,0,0,60,60,40,272.39005613327026,,,,,,,,,,,,,,,,,,,,,,,,,,,,,,,,,,,,,,,,,,,,,,,,,,,,,,,,,,,,,,,,,,,,,,,,,,,,,,,,,133.0,57.0,57.0,133.0,70.0,70.0,2.1,2.12,-191,-287,0,-274,198,279,272.37609601020813,272.3761713504791,272.37965750694275,272.39005613327026,272.5433166027069,272.5433166027069,272.5433166027069,272.5433166027069,272.5433166027069,272.5433166027069,272.5433166027069,273.04633831977844,1,0.6506428718566895,None,,,,,,,,,,,,,,,,,,37,1,2025-02-19_11h54.59.294,comp,2024.2.4,57.25621459286056,2025-02-19 11h55.10.795879 -0500,
61,61,0,filler_square,None,None,None,None,None,None,None,None,None,None,3,1.44181227684021,None,,,,,0,0,0,0,0,61,61,171,273.0627689361572,,,,,,,,,,,,,,,,,,,,,,,,,,,,,,,,,,,,,,,,,,,,,,,,,,,,,,,,,,,,,,,,,,,,,,,,,,,,,,,,,65.47772418885017,66.16002325262396,79.65006991768757,66.0141045965662,81.83320780900146,81.83320780900146,2.1,2.12,-162,-252,0,-288,170,270,273.0482099056244,273.0482838153839,273.0520062446594,273.0627689361572,273.2043902873993,273.2043902873993,273.2043902873993,273.2043902873993,273.2043902873993,273.2043902873993,273.2043902873993,274.52159667015076,3,1.44181227684021,None,,,,,,,,,,,,,,,,,,37,1,2025-02-19_11h54.59.294,comp,2024.2.4,57.25621459286056,2025-02-19 11h55.10.795879 -0500,
62,62,0,critical,dhw,20.0,1.0,lower,78.0,78.0,133.0,57.0,57.0,133.0,2,4.192317962646484,None,,,,,0,0,0,0,0,62,62,54,274.5369482040405,,,,,,,,,,,,,,,,,,,,,,,,,,,,,,,,,,,,,,,,,,,,,,,,,,,,,,,,,,,,,,,,,,,,,,,,,,,,,,,,,78.0,78.0,133.0,57.0,57.0,133.0,1.0,1.3,316,-251,480,-280,671,-275,274.52307200431824,274.52314805984497,274.5265963077545,274.5369482040405,274.68583250045776,274.68583250045776,274.68583250045776,274.68583250045776,274.68583250045776,274.68583250045776,274.68583250045776,278.7316789627075,2,4.192317962646484,None,,,,,,,,,,,,,,,,,,37,1,2025-02-19_11h54.59.294,comp,2024.2.4,57.25621459286056,2025-02-19 11h55.10.795879 -0500,
63,63,0,critical,whd,20.0,2.1,upper,125.0,200.0,200.0,125.0,141.0,141.0,2,1.493236780166626,None,,,,,0,0,0,0,0,63,63,39,278.74706768989563,,,,,,,,,,,,,,,,,,,,,,,,,,,,,,,,,,,,,,,,,,,,,,,,,,,,,,,,,,,,,,,,,,,,,,,,,,,,,,,,,125.0,200.0,200.0,125.0,141.0,141.0,2.1,2.11,-258,286,0,274,229,-279,278.73314452171326,278.73321890830994,278.73626589775085,278.74706768989563,278.8915843963623,278.8915843963623,278.8915843963623,278.8915843963623,278.8915843963623,278.8915843963623,278.8915843963623,280.25572443008423,2,1.493236780166626,None,,,,,,,,,,,,,,,,,,37,1,2025-02-19_11h54.59.294,comp,2024.2.4,57.25621459286056,2025-02-19 11h55.10.795879 -0500,
64,64,0,filler_square,None,None,None,None,None,None,None,None,None,None,1,0.8306910991668701,None,,,,,0,0,0,0,0,64,64,189,280.2735424041748,,,,,,,,,,,,,,,,,,,,,,,,,,,,,,,,,,,,,,,,,,,,,,,,,,,,,,,,,,,,,,,,,,,,,,,,,,,,,,,,,127.96494236719808,127.96494236719808,65.25979060629716,123.88754492116475,58.27426654787153,101.57026318305208,2.1,2.11,-222,278,0,285,209,-271,280.2575252056122,280.2576017379761,280.2608633041382,280.2735424041748,280.4246017932892,280.4246017932892,280.4246017932892,280.4246017932892,280.4246017932892,280.4246017932892,280.4246017932892,281.10957741737366,1,0.8306910991668701,None,,,,,,,,,,,,,,,,,,37,1,2025-02-19_11h54.59.294,comp,2024.2.4,57.25621459286056,2025-02-19 11h55.10.795879 -0500,
65,65,0,critical,hdw,35.0,3.0,lower,133.0,57.0,70.0,70.0,57.0,133.0,3,0.9916319847106934,None,,,,,0,0,0,0,0,65,65,110,281.1284861564636,,,,,,,,,,,,,,,,,,,,,,,,,,,,,,,,,,,,,,,,,,,,,,,,,,,,,,,,,,,,,,,,,,,,,,,,,,,,,,,,,133.0,57.0,70.0,70.0,57.0,133.0,3.0,3.2,-160,-261,0,-19,198,258,281.1112275123596,281.11130380630493,281.1146457195282,281.1284861564636,281.2752788066864,281.2752788066864,281.2752788066864,281.2752788066864,281.2752788066864,281.2752788066864,281.2752788066864,282.1249041557312,3,0.9916319847106934,None,,,,,,,,,,,,,,,,,,37,1,2025-02-19_11h54.59.294,comp,2024.2.4,57.25621459286056,2025-02-19 11h55.10.795879 -0500,
66,66,0,critical,wdh,35.0,4.0,lower,57.0,133.0,70.0,70.0,133.0,57.0,2,1.3635532855987549,None,,,,,0,0,0,0,0,66,66,76,282.14093947410583,,,,,,,,,,,,,,,,,,,,,,,,,,,,,,,,,,,,,,,,,,,,,,,,,,,,,,,,,,,,,,,,,,,,,,,,,,,,,,,,,57.0,133.0,70.0,70.0,133.0,57.0,4.0,4.2,-198,-8,0,-276,160,9,282.12633633613586,282.1264102458954,282.1301074028015,282.14093947410583,282.2947280406952,282.2947280406952,282.2947280406952,282.2947280406952,282.2947280406952,282.2947280406952,282.2947280406952,283.5070090293884,2,1.3635532855987549,None,,,,,,,,,,,,,,,,,,37,1,2025-02-19_11h54.59.294,comp,2024.2.4,57.25621459286056,2025-02-19 11h55.10.795879 -0500,
67,67,0,filler_square,None,None,None,None,None,None,None,None,None,None,1,1.4445533752441406,None,,,,,0,0,0,0,0,67,67,208,283.5242290496826,,,,,,,,,,,,,,,,,,,,,,,,,,,,,,,,,,,,,,,,,,,,,,,,,,,,,,,,,,,,,,,,,,,,,,,,,,,,,,,,,120.25273130556755,160.81596154282005,59.60604403744957,70.93552640691686,171.63148461872103,171.63148461872103,2.1,2.11,-212,275,0,262,217,-272,283.50900864601135,283.50908303260803,283.51268434524536,283.5242290496826,283.6779396533966,283.6779396533966,283.6779396533966,283.6779396533966,283.6779396533966,283.6779396533966,283.6779396533966,284.9750757217407,1,1.4445533752441406,None,,,,,,,,,,,,,,,,,,37,1,2025-02-19_11h54.59.294,comp,2024.2.4,57.25621459286056,2025-02-19 11h55.10.795879 -0500,
68,68,0,catch,None,None,None,None,None,None,None,None,None,None,1,1.146711826324463,None,,,,,0,0,0,0,0,68,68,129,284.9898283481598,,,,,,,,,,,,,,,,,,,,,,,,,,,,,,,,,,,,,,,,,,,,,,,,,,,,,,,,,,,,,,,,,,,,,,,,,,,,,,,,,170,155,76,114,85,105,2.2,2.22,-230,275,0,-266,206,-260,284.9770679473877,284.9771463871002,284.98047137260437,284.9898283481598,285.1475372314453,285.1475372314453,285.1475372314453,285.1475372314453,285.1475372314453,285.1475372314453,285.1475372314453,286.14631152153015,1,1.146711826324463,None,,,,,,,,,,,,,,,,,,37,1,2025-02-19_11h54.59.294,comp,2024.2.4,57.25621459286056,2025-02-19 11h55.10.795879 -0500,
69,69,0,filler_square,None,None,None,None,None,None,None,None,None,None,3,2.996249198913574,None,,,,,0,0,0,0,0,69,69,196,286.16425251960754,,,,,,,,,,,,,,,,,,,,,,,,,,,,,,,,,,,,,,,,,,,,,,,,,,,,,,,,,,,,,,,,,,,,,,,,,,,,,,,,,68.08778767778124,57.88860607050126,71.5071038218631,71.5071038218631,67.04578263981281,71.07826120524476,3.0,3.2,-161,-286,0,10,167,275,286.148184299469,286.14826107025146,286.1513178348541,286.16425251960754,286.3095290660858,286.3095290660858,286.3095290660858,286.3095290660858,286.3095290660858,286.3095290660858,286.3095290660858,289.16607451438904,3,2.996249198913574,None,,,,,,,,,,,,,,,,,,37,1,2025-02-19_11h54.59.294,comp,2024.2.4,57.25621459286056,2025-02-19 11h55.10.795879 -0500,
70,70,0,critical,hdw,35.0,2.1,upper,200.0,125.0,127.0,127.0,125.0,200.0,3,1.090669870376587,None,,,,,0,0,0,0,0,70,70,45,289.18212819099426,,,,,,,,,,,,,,,,,,,,,,,,,,,,,,,,,,,,,,,,,,,,,,,,,,,,,,,,,,,,,,,,,,,,,,,,,,,,,,,,,200.0,125.0,127.0,127.0,125.0,200.0,2.1,2.12,-222,-287,0,-251,260,280,289.1676595211029,289.1677346229553,289.1711599826813,289.18212819099426,289.3311538696289,289.3311538696289,289.3311538696289,289.3311538696289,289.3311538696289,289.3311538696289,289.3311538696289,290.2748854160309,3,1.090669870376587,None,,,,,,,,,,,,,,,,,,37,1,2025-02-19_11h54.59.294,comp,2024.2.4,57.25621459286056,2025-02-19 11h55.10.795879 -0500,
71,71,0,filler_square,None,None,None,None,None,None,None,None,None,None,1,1.5504944324493408,None,,,,,0,0,0,0,0,71,71,190,290.2903790473938,,,,,,,,,,,,,,,,,,,,,,,,,,,,,,,,,,,,,,,,,,,,,,,,,,,,,,,,,,,,,,,,,,,,,,,,,,,,,,,,,89.75790216543547,89.75790216543547,68.08901278236468,69.00542778056024,78.04410035382261,58.092208230063676,2.2,2.22,-175,274,0,-273,160,-278,290.2766623497009,290.2767391204834,290.27979588508606,290.2903790473938,290.4301106929779,290.4301106929779,290.4301106929779,290.4301106929779,290.4301106929779,290.4301106929779,290.4301106929779,291.84533286094666,1,1.5504944324493408,None,,,,,,,,,,,,,,,,,,37,1,2025-02-19_11h54.59.294,comp,2024.2.4,57.25621459286056,2025-02-19 11h55.10.795879 -0500,
72,72,0,critical,hwd,35.0,3.0,upper,200.0,125.0,125.0,200.0,127.0,127.0,2,1.0337862968444824,None,,,,,0,0,0,0,0,72,72,99,291.8625626564026,,,,,,,,,,,,,,,,,,,,,,,,,,,,,,,,,,,,,,,,,,,,,,,,,,,,,,,,,,,,,,,,,,,,,,,,,,,,,,,,,200.0,125.0,125.0,200.0,127.0,127.0,3.0,3.1,-258,257,0,-10,260,-266,291.84686255455017,291.84698581695557,291.8511338233948,291.8625626564026,292.0108160972595,292.0108160972595,292.0108160972595,292.0108160972595,292.0108160972595,292.0108160972595,292.0108160972595,292.91194558143616,2,1.0337862968444824,None,,,,,,,,,,,,,,,,,,37,1,2025-02-19_11h54.59.294,comp,2024.2.4,57.25621459286056,2025-02-19 11h55.10.795879 -0500,
73,73,0,critical,hwd,20.0,4.0,upper,200.0,125.0,125.0,200.0,141.0,141.0,2,2.1453540325164795,None,,,,,0,0,0,0,0,73,73,107,292.9273114204407,,,,,,,,,,,,,,,,,,,,,,,,,,,,,,,,,,,,,,,,,,,,,,,,,,,,,,,,,,,,,,,,,,,,,,,,,,,,,,,,,200.0,125.0,125.0,200.0,141.0,141.0,4.0,4.2,-258,-9,0,-282,266,-12,292.91345953941345,292.91353702545166,292.9170620441437,292.9273114204407,293.0787923336029,293.0787923336029,293.0787923336029,293.0787923336029,293.0787923336029,293.0787923336029,293.0787923336029,295.0786819458008,2,2.1453540325164795,None,,,,,,,,,,,,,,,,,,37,1,2025-02-19_11h54.59.294,comp,2024.2.4,57.25621459286056,2025-02-19 11h55.10.795879 -0500,
74,74,0,critical,dwh,35.0,2.1,lower,70.0,70.0,57.0,133.0,133.0,57.0,2,1.6247427463531494,None,,,,,0,0,0,0,0,74,74,4,295.0954086780548,,,,,,,,,,,,,,,,,,,,,,,,,,,,,,,,,,,,,,,,,,,,,,,,,,,,,,,,,,,,,,,,,,,,,,,,,,,,,,,,,70.0,70.0,57.0,133.0,133.0,57.0,2.1,2.11,-198,287,0,253,191,-261,295.0802745819092,295.08034896850586,295.0846529006958,295.0954086780548,295.24572682380676,295.24572682380676,295.24572682380676,295.24572682380676,295.24572682380676,295.24572682380676,295.24572682380676,296.74040389060974,2,1.6247427463531494,None,,,,,,,,,,,,,,,,,,37,1,2025-02-19_11h54.59.294,comp,2024.2.4,57.25621459286056,2025-02-19 11h55.10.795879 -0500,
75,75,0,filler_random,None,None,None,None,None,None,None,None,None,None,1,0.9677932262420654,None,,,,,0,0,0,0,0,75,75,151,296.7605347633362,,,,,,,,,,,,,,,,,,,,,,,,,,,,,,,,,,,,,,,,,,,,,,,,,,,,,,,,,,,,,,,,,,,,,,,,,,,,,,,,,172.12098751515907,188.01200821331415,122.67583490876726,171.5482948112226,171.40991319819403,124.71607197716733,2.1,2.12,-276,-271,0,-251,244,255,296.74211716651917,296.7421922683716,296.74521350860596,296.7605347633362,296.8970720767975,296.8970720767975,296.8970720767975,296.8970720767975,296.8970720767975,296.8970720767975,296.8970720767975,297.73180651664734,1,0.9677932262420654,None,,,,,,,,,,,,,,,,,,37,1,2025-02-19_11h54.59.294,comp,2024.2.4,57.25621459286056,2025-02-19 11h55.10.795879 -0500,
76,76,0,critical,whd,20.0,2.1,upper,125.0,200.0,200.0,125.0,141.0,141.0,1,2.0520265102386475,None,,,,,0,0,0,0,0,76,76,15,297.74830746650696,,,,,,,,,,,,,,,,,,,,,,,,,,,,,,,,,,,,,,,,,,,,,,,,,,,,,,,,,,,,,,,,,,,,,,,,,,,,,,,,,125.0,200.0,200.0,125.0,141.0,141.0,2.1,2.11,-258,256,0,285,229,-251,297.7336006164551,297.73367738723755,297.73770475387573,297.74830746650696,297.90241837501526,297.90241837501526,297.90241837501526,297.90241837501526,297.90241837501526,297.90241837501526,297.90241837501526,299.813485622406,1,2.0520265102386475,None,,,,,,,,,,,,,,,,,,37,1,2025-02-19_11h54.59.294,comp,2024.2.4,57.25621459286056,2025-02-19 11h55.10.795879 -0500,
77,77,0,critical,hdw,20.0,1.0,lower,133.0,57.0,78.0,78.0,57.0,133.0,3,1.2375268936157227,None,,,,,0,0,0,0,0,77,77,114,299.827353477478,,,,,,,,,,,,,,,,,,,,,,,,,,,,,,,,,,,,,,,,,,,,,,,,,,,,,,,,,,,,,,,,,,,,,,,,,,,,,,,,,133.0,57.0,78.0,78.0,57.0,133.0,1.0,1.3,316,-268,480,-281,682,-288,299.8150291442871,299.8151068687439,299.818336725235,299.827353477478,299.9880268573761,299.9880268573761,299.9880268573761,299.9880268573761,299.9880268573761,299.9880268573761,299.9880268573761,301.0706031322479,3,1.2375268936157227,None,,,,,,,,,,,,,,,,,,37,1,2025-02-19_11h54.59.294,comp,2024.2.4,57.25621459286056,2025-02-19 11h55.10.795879 -0500,
78,78,0,filler_square,None,None,None,None,None,None,None,None,None,None,3,1.8586461544036865,None,,,,,0,0,0,0,0,78,78,186,301.08623027801514,,,,,,,,,,,,,,,,,,,,,,,,,,,,,,,,,,,,,,,,,,,,,,,,,,,,,,,,,,,,,,,,,,,,,,,,,,,,,,,,,58.25249943661858,59.59271772310082,60.303751737249186,60.071033842886536,60.721369836699814,60.721369836699814,3.0,3.2,-156,-284,0,-7,156,257,301.0723571777344,301.0724673271179,301.0754909515381,301.08623027801514,301.23046112060547,301.23046112060547,301.23046112060547,301.23046112060547,301.23046112060547,301.23046112060547,301.23046112060547,302.95394802093506,3,1.8586461544036865,None,,,,,,,,,,,,,,,,,,37,1,2025-02-19_11h54.59.294,comp,2024.2.4,57.25621459286056,2025-02-19 11h55.10.795879 -0500,
79,79,0,critical,wdh,20.0,2.1,upper,125.0,200.0,141.0,141.0,200.0,125.0,1,1.323249340057373,None,,,,,0,0,0,0,0,79,79,11,302.97323751449585,,,,,,,,,,,,,,,,,,,,,,,,,,,,,,,,,,,,,,,,,,,,,,,,,,,,,,,,,,,,,,,,,,,,,,,,,,,,,,,,,125.0,200.0,141.0,141.0,200.0,125.0,2.1,2.11,-266,252,0,281,229,-259,302.95541763305664,302.9555366039276,302.95856380462646,302.97323751449585,303.11549615859985,303.11549615859985,303.11549615859985,303.11549615859985,303.11549615859985,303.11549615859985,303.11549615859985,304.3013336658478,1,1.323249340057373,None,,,,,,,,,,,,,,,,,,37,1,2025-02-19_11h54.59.294,comp,2024.2.4,57.25621459286056,2025-02-19 11h55.10.795879 -0500,
80,80,0,critical,hdw,35.0,4.0,upper,200.0,125.0,127.0,127.0,125.0,200.0,3,1.4635584354400635,None,,,,,0,0,0,0,0,80,80,113,304.32107305526733,,,,,,,,,,,,,,,,,,,,,,,,,,,,,,,,,,,,,,,,,,,,,,,,,,,,,,,,,,,,,,,,,,,,,,,,,,,,,,,,,200.0,125.0,127.0,127.0,125.0,200.0,4.0,4.2,-222,-6,0,-266,260,18,304.30304884910583,304.30317664146423,304.30657029151917,304.32107305526733,304.4658155441284,304.4658155441284,304.4658155441284,304.4658155441284,304.4658155441284,304.4658155441284,304.4658155441284,305.8001935482025,3,1.4635584354400635,None,,,,,,,,,,,,,,,,,,37,1,2025-02-19_11h54.59.294,comp,2024.2.4,57.25621459286056,2025-02-19 11h55.10.795879 -0500,
81,81,0,filler_random,None,None,None,None,None,None,None,None,None,None,2,1.0241796970367432,None,,,,,0,0,0,0,0,81,81,148,305.81615138053894,,,,,,,,,,,,,,,,,,,,,,,,,,,,,,,,,,,,,,,,,,,,,,,,,,,,,,,,,,,,,,,,,,,,,,,,,,,,,,,,,131.52374961428418,139.57735750700073,115.9570307129052,142.2474958418272,179.34287729033767,72.63891487089896,4.0,4.1,-237,-258,0,-15,203,-276,305.80192375183105,305.80199909210205,305.8050363063812,305.81615138053894,305.96627044677734,305.96627044677734,305.96627044677734,305.96627044677734,305.96627044677734,305.96627044677734,305.96627044677734,306.85278153419495,2,1.0241796970367432,None,,,,,,,,,,,,,,,,,,37,1,2025-02-19_11h54.59.294,comp,2024.2.4,57.25621459286056,2025-02-19 11h55.10.795879 -0500,
82,82,0,filler_square,None,None,None,None,None,None,None,None,None,None,2,0.8599519729614258,None,,,,,0,0,0,0,0,82,82,209,306.86854004859924,,,,,,,,,,,,,,,,,,,,,,,,,,,,,,,,,,,,,,,,,,,,,,,,,,,,,,,,,,,,,,,,,,,,,,,,,,,,,,,,,108.67781725572667,100.8134940404406,113.04007090500744,113.04007090500744,89.97988521443145,59.9108378169247,2.1,2.12,-203,-283,0,-252,182,283,306.85480761528015,306.85488629341125,306.8579046726227,306.86854004859924,307.01608967781067,307.01608967781067,307.01608967781067,307.01608967781067,307.01608967781067,307.01608967781067,307.01608967781067,307.74405884742737,2,0.8599519729614258,None,,,,,,,,,,,,,,,,,,37,1,2025-02-19_11h54.59.294,comp,2024.2.4,57.25621459286056,2025-02-19 11h55.10.795879 -0500,
83,83,0,critical,hwd,35.0,3.0,lower,133.0,57.0,57.0,133.0,70.0,70.0,2,1.3686692714691162,None,,,,,0,0,0,0,0,83,83,98,307.7599651813507,,,,,,,,,,,,,,,,,,,,,,,,,,,,,,,,,,,,,,,,,,,,,,,,,,,,,,,,,,,,,,,,,,,,,,,,,,,,,,,,,133.0,57.0,57.0,133.0,70.0,70.0,3.0,3.2,-191,-270,0,-5,198,278,307.7456076145172,307.7456798553467,307.7487337589264,307.7599651813507,307.898978471756,307.898978471756,307.898978471756,307.898978471756,307.898978471756,307.898978471756,307.898978471756,309.13178157806396,2,1.3686692714691162,None,,,,,,,,,,,,,,,,,,37,1,2025-02-19_11h54.59.294,comp,2024.2.4,57.25621459286056,2025-02-19 11h55.10.795879 -0500,
84,84,0,critical,whd,20.0,2.1,lower,57.0,133.0,133.0,57.0,78.0,78.0,2,0.8279688358306885,None,,,,,0,0,0,0,0,84,84,14,309.14877009391785,,,,,,,,,,,,,,,,,,,,,,,,,,,,,,,,,,,,,,,,,,,,,,,,,,,,,,,,,,,,,,,,,,,,,,,,,,,,,,,,,57.0,133.0,133.0,57.0,78.0,78.0,2.1,2.12,-191,-250,0,-252,164,282,309.1333611011505,309.13347244262695,309.13708996772766,309.14877009391785,309.2984974384308,309.2984974384308,309.2984974384308,309.2984974384308,309.2984974384308,309.2984974384308,309.2984974384308,309.9830026626587,2,0.8279688358306885,None,,,,,,,,,,,,,,,,,,37,1,2025-02-19_11h54.59.294,comp,2024.2.4,57.25621459286056,2025-02-19 11h55.10.795879 -0500,
85,85,0,filler_random,None,None,None,None,None,None,None,None,None,None,1,1.1371941566467285,None,,,,,0,0,0,0,0,85,85,130,309.9990086555481,,,,,,,,,,,,,,,,,,,,,,,,,,,,,,,,,,,,,,,,,,,,,,,,,,,,,,,,,,,,,,,,,,,,,,,,,,,,,,,,,170.73386140496495,184.74379626556515,152.03986704424773,58.905113056461325,141.79148934333182,75.15276323419961,4.0,4.1,-218,-280,0,-17,163,-257,309.9846873283386,309.9847640991211,309.988308429718,309.9990086555481,310.1504077911377,310.1504077911377,310.1504077911377,310.1504077911377,310.1504077911377,310.1504077911377,310.1504077911377,311.1495568752289,1,1.1371941566467285,None,,,,,,,,,,,,,,,,,,37,1,2025-02-19_11h54.59.294,comp,2024.2.4,57.25621459286056,2025-02-19 11h55.10.795879 -0500,
86,86,0,filler_square,None,None,None,None,None,None,None,None,None,None,1,0.706169605255127,None,,,,,0,0,0,0,0,86,86,170,311.17459535598755,,,,,,,,,,,,,,,,,,,,,,,,,,,,,,,,,,,,,,,,,,,,,,,,,,,,,,,,,,,,,,,,,,,,,,,,,,,,,,,,,88.96583876603057,77.57194734153454,173.40430594453596,173.40430594453596,74.67405588545971,93.42580940600439,3.0,3.2,-221,-265,0,-9,229,282,311.1513214111328,311.1513969898224,311.1548261642456,311.17459535598755,311.31774401664734,311.31774401664734,311.31774401664734,311.31774401664734,311.31774401664734,311.31774401664734,311.31774401664734,311.8885374069214,1,0.706169605255127,None,,,,,,,,,,,,,,,,,,37,1,2025-02-19_11h54.59.294,comp,2024.2.4,57.25621459286056,2025-02-19 11h55.10.795879 -0500,
87,87,0,critical,hwd,35.0,2.1,upper,200.0,125.0,125.0,200.0,127.0,127.0,1,2.4074509143829346,None,,,,,0,0,0,0,0,87,87,41,311.9052288532257,,,,,,,,,,,,,,,,,,,,,,,,,,,,,,,,,,,,,,,,,,,,,,,,,,,,,,,,,,,,,,,,,,,,,,,,,,,,,,,,,200.0,125.0,125.0,200.0,127.0,127.0,2.1,2.11,-258,268,0,265,260,-287,311.8900787830353,311.8901550769806,311.89366126060486,311.9052288532257,312.05149149894714,312.05149149894714,312.05149149894714,312.05149149894714,312.05149149894714,312.05149149894714,312.05149149894714,314.3159348964691,1,2.4074509143829346,None,,,,,,,,,,,,,,,,,,37,1,2025-02-19_11h54.59.294,comp,2024.2.4,57.25621459286056,2025-02-19 11h55.10.795879 -0500,
88,88,0,catch,None,None,None,None,None,None,None,None,None,None,1,0.9156589508056641,None,,,,,0,0,0,0,0,88,88,128,314.33253359794617,,,,,,,,,,,,,,,,,,,,,,,,,,,,,,,,,,,,,,,,,,,,,,,,,,,,,,,,,,,,,,,,,,,,,,,,,,,,,,,,,127,198,87,103,71,119,4.0,4.2,-246,-10,0,-268,207,6,314.31799030303955,314.3180696964264,314.32169914245605,314.33253359794617,314.4751422405243,314.4751422405243,314.4751422405243,314.4751422405243,314.4751422405243,314.4751422405243,314.4751422405243,315.251277923584,1,0.9156589508056641,None,,,,,,,,,,,,,,,,,,37,1,2025-02-19_11h54.59.294,comp,2024.2.4,57.25621459286056,2025-02-19 11h55.10.795879 -0500,
89,89,0,critical,wdh,20.0,4.0,upper,125.0,200.0,141.0,141.0,200.0,125.0,1,0.645287036895752,None,,,,,0,0,0,0,0,89,89,83,315.26739478111267,,,,,,,,,,,,,,,,,,,,,,,,,,,,,,,,,,,,,,,,,,,,,,,,,,,,,,,,,,,,,,,,,,,,,,,,,,,,,,,,,125.0,200.0,141.0,141.0,200.0,125.0,4.0,4.2,-266,-18,0,-277,229,6,315.25287318229675,315.2529480457306,315.2565951347351,315.26739478111267,315.41654920578003,315.41654920578003,315.41654920578003,315.41654920578003,315.41654920578003,315.41654920578003,315.41654920578003,315.91998505592346,1,0.645287036895752,None,,,,,,,,,,,,,,,,,,37,1,2025-02-19_11h54.59.294,comp,2024.2.4,57.25621459286056,2025-02-19 11h55.10.795879 -0500,
90,90,0,filler_square,None,None,None,None,None,None,None,None,None,None,3,1.0958995819091797,None,,,,,0,0,0,0,0,90,90,173,315.9365634918213,,,,,,,,,,,,,,,,,,,,,,,,,,,,,,,,,,,,,,,,,,,,,,,,,,,,,,,,,,,,,,,,,,,,,,,,,,,,,,,,,161.4767755424691,124.66351211472924,133.46617262392397,143.29830300117288,177.9755492219498,177.9755492219498,1.0,1.1,-710,275,-480,279,-223,255,315.9218182563782,315.921897649765,315.92507219314575,315.9365634918213,316.0851299762726,316.0851299762726,316.0851299762726,316.0851299762726,316.0851299762726,316.0851299762726,316.0851299762726,317.0513789653778,3,1.0958995819091797,None,,,,,,,,,,,,,,,,,,37,1,2025-02-19_11h54.59.294,comp,2024.2.4,57.25621459286056,2025-02-19 11h55.10.795879 -0500,
91,91,0,critical,hdw,20.0,3.0,upper,200.0,125.0,141.0,141.0,125.0,200.0,3,2.0295066833496094,None,,,,,0,0,0,0,0,91,91,117,317.0667333602905,,,,,,,,,,,,,,,,,,,,,,,,,,,,,,,,,,,,,,,,,,,,,,,,,,,,,,,,,,,,,,,,,,,,,,,,,,,,,,,,,200.0,125.0,141.0,141.0,125.0,200.0,3.0,3.2,-229,-276,0,-5,266,267,317.0528621673584,317.0529384613037,317.0559813976288,317.0667333602905,317.2249422073364,317.2249422073364,317.2249422073364,317.2249422073364,317.2249422073364,317.2249422073364,317.2249422073364,319.1073548793793,3,2.0295066833496094,None,,,,,,,,,,,,,,,,,,37,1,2025-02-19_11h54.59.294,comp,2024.2.4,57.25621459286056,2025-02-19 11h55.10.795879 -0500,
92,92,0,filler_random,None,None,None,None,None,None,None,None,None,None,3,1.1576712131500244,None,,,,,0,0,0,0,0,92,92,165,319.12299966812134,,,,,,,,,,,,,,,,,,,,,,,,,,,,,,,,,,,,,,,,,,,,,,,,,,,,,,,,,,,,,,,,,,,,,,,,,,,,,,,,,111.70033690289293,123.3766354613934,100.73994920683592,107.54452026561913,120.63369848342927,114.65088134949798,3.0,3.2,-211,-252,0,-17,207,279,319.10900831222534,319.1090829372406,319.1121528148651,319.12299966812134,319.26979994773865,319.26979994773865,319.26979994773865,319.26979994773865,319.26979994773865,319.26979994773865,319.26979994773865,320.28926634788513,3,1.1576712131500244,None,,,,,,,,,,,,,,,,,,37,1,2025-02-19_11h54.59.294,comp,2024.2.4,57.25621459286056,2025-02-19 11h55.10.795879 -0500,
93,93,0,critical,whd,35.0,4.0,upper,125.0,200.0,200.0,125.0,127.0,127.0,1,1.0710351467132568,None,,,,,0,0,0,0,0,93,93,89,320.30565881729126,,,,,,,,,,,,,,,,,,,,,,,,,,,,,,,,,,,,,,,,,,,,,,,,,,,,,,,,,,,,,,,,,,,,,,,,,,,,,,,,,125.0,200.0,200.0,125.0,127.0,127.0,4.0,4.2,-258,4,0,-253,222,13,320.2910602092743,320.2911696434021,320.2948968410492,320.30565881729126,320.4534921646118,320.4534921646118,320.4534921646118,320.4534921646118,320.4534921646118,320.4534921646118,320.4534921646118,321.38699293136597,1,1.0710351467132568,None,,,,,,,,,,,,,,,,,,37,1,2025-02-19_11h54.59.294,comp,2024.2.4,57.25621459286056,2025-02-19 11h55.10.795879 -0500,
94,94,0,filler_random,None,None,None,None,None,None,None,None,None,None,1,0.8055641651153564,None,,,,,0,0,0,0,0,94,94,163,321.4032244682312,,,,,,,,,,,,,,,,,,,,,,,,,,,,,,,,,,,,,,,,,,,,,,,,,,,,,,,,,,,,,,,,,,,,,,,,,,,,,,,,,174.61115430321877,187.47990221279335,86.70943743958912,126.28269564558045,65.33230175639305,104.041414460249,2.1,2.11,-253,269,0,273,211,-264,321.3886375427246,321.3887138366699,321.3922276496887,321.4032244682312,321.5597839355469,321.5597839355469,321.5597839355469,321.5597839355469,321.5597839355469,321.5597839355469,321.5597839355469,322.22020268440247,1,0.8055641651153564,None,,,,,,,,,,,,,,,,,,37,1,2025-02-19_11h54.59.294,comp,2024.2.4,57.25621459286056,2025-02-19 11h55.10.795879 -0500,
95,95,0,critical,hdw,35.0,1.0,lower,133.0,57.0,70.0,70.0,57.0,133.0,3,2.0672802925109863,None,,,,,0,0,0,0,0,95,95,108,322.2369737625122,,,,,,,,,,,,,,,,,,,,,,,,,,,,,,,,,,,,,,,,,,,,,,,,,,,,,,,,,,,,,,,,,,,,,,,,,,,,,,,,,133.0,57.0,70.0,70.0,57.0,133.0,1.0,1.3,320,-257,480,-277,678,-271,322.2218425273895,322.221919298172,322.2262370586395,322.2369737625122,322.38806104660034,322.38806104660034,322.38806104660034,322.38806104660034,322.38806104660034,322.38806104660034,322.38806104660034,324.32203340530396,3,2.0672802925109863,None,,,,,,,,,,,,,,,,,,37,1,2025-02-19_11h54.59.294,comp,2024.2.4,57.25621459286056,2025-02-19 11h55.10.795879 -0500,
96,96,0,critical,dhw,20.0,3.0,upper,141.0,141.0,200.0,125.0,125.0,200.0,3,1.560178279876709,None,,,,,0,0,0,0,0,96,96,57,324.33803844451904,,,,,,,,,,,,,,,,,,,,,,,,,,,,,,,,,,,,,,,,,,,,,,,,,,,,,,,,,,,,,,,,,,,,,,,,,,,,,,,,,141.0,141.0,200.0,125.0,125.0,200.0,3.0,3.1,-229,257,0,17,258,-272,324.323472738266,324.3235478401184,324.32775688171387,324.33803844451904,324.4880304336548,324.4880304336548,324.4880304336548,324.4880304336548,324.4880304336548,324.4880304336548,324.4880304336548,325.90531516075134,3,1.560178279876709,None,,,,,,,,,,,,,,,,,,37,1,2025-02-19_11h54.59.294,comp,2024.2.4,57.25621459286056,2025-02-19 11h55.10.795879 -0500,
97,97,0,filler_random,None,None,None,None,None,None,None,None,None,None,1,1.6537842750549316,None,,,,,0,0,0,0,0,97,97,140,325.9232339859009,,,,,,,,,,,,,,,,,,,,,,,,,,,,,,,,,,,,,,,,,,,,,,,,,,,,,,,,,,,,,,,,,,,,,,,,,,,,,,,,,135.53468810041684,187.28866330131572,135.17092025892939,121.04895005460443,163.6739692937632,115.57482411653193,4.0,4.2,-250,10,0,-255,214,-18,325.90702056884766,325.9070978164673,325.9102098941803,325.9232339859009,326.0719110965729,326.0719110965729,326.0719110965729,326.0719110965729,326.0719110965729,326.0719110965729,326.0719110965729,327.58847403526306,1,1.6537842750549316,None,,,,,,,,,,,,,,,,,,37,1,2025-02-19_11h54.59.294,comp,2024.2.4,57.25621459286056,2025-02-19 11h55.10.795879 -0500,
98,98,0,filler_square,None,None,None,None,None,None,None,None,None,None,1,2.963167905807495,None,,,,,0,0,0,0,0,98,98,177,327.6052553653717,,,,,,,,,,,,,,,,,,,,,,,,,,,,,,,,,,,,,,,,,,,,,,,,,,,,,,,,,,,,,,,,,,,,,,,,,,,,,,,,,64.03503162723531,63.38015465204042,65.94436338418099,65.94436338418099,57.32651766803015,57.49100628129792,1.0,1.3,319,-256,480,-256,638,-278,327.5903785228729,327.59053897857666,327.5940754413605,327.6052553653717,327.75441884994507,327.75441884994507,327.75441884994507,327.75441884994507,327.75441884994507,327.75441884994507,327.75441884994507,330.5731086730957,1,2.963167905807495,None,,,,,,,,,,,,,,,,,,37,1,2025-02-19_11h54.59.294,comp,2024.2.4,57.25621459286056,2025-02-19 11h55.10.795879 -0500,
99,99,0,filler_random,None,None,None,None,None,None,None,None,None,None,2,1.345642328262329,None,,,,,0,0,0,0,0,99,99,168,330.5905170440674,,,,,,,,,,,,,,,,,,,,,,,,,,,,,,,,,,,,,,,,,,,,,,,,,,,,,,,,,,,,,,,,,,,,,,,,,,,,,,,,,68.27796168126493,169.4598287971421,111.6724645687633,123.63268204918832,66.14119340774971,77.27394672514377,2.1,2.11,-243,256,0,262,196,-264,330.57481622695923,330.5749318599701,330.5783967971802,330.5905170440674,330.7406952381134,330.7406952381134,330.7406952381134,330.7406952381134,330.7406952381134,330.7406952381134,330.7406952381134,331.94705605506897,2,1.345642328262329,None,,,,,,,,,,,,,,,,,,37,1,2025-02-19_11h54.59.294,comp,2024.2.4,57.25621459286056,2025-02-19 11h55.10.795879 -0500,
100,100,0,critical,hdw,35.0,3.0,upper,200.0,125.0,127.0,127.0,125.0,200.0,3,1.1496174335479736,None,,,,,0,0,0,0,0,100,100,111,331.96251368522644,,,,,,,,,,,,,,,,,,,,,,,,,,,,,,,,,,,,,,,,,,,,,,,,,,,,,,,,,,,,,,,,,,,,,,,,,,,,,,,,,200.0,125.0,127.0,127.0,125.0,200.0,3.0,3.2,-222,-289,0,-11,260,252,331.94861030578613,331.9486846923828,331.9517545700073,331.96251368522644,332.1069507598877,332.1069507598877,332.1069507598877,332.1069507598877,332.1069507598877,332.1069507598877,332.1069507598877,333.1225519180298,3,1.1496174335479736,None,,,,,,,,,,,,,,,,,,37,1,2025-02-19_11h54.59.294,comp,2024.2.4,57.25621459286056,2025-02-19 11h55.10.795879 -0500,
101,101,0,filler_random,None,None,None,None,None,None,None,None,None,None,2,1.0852982997894287,None,,,,,0,0,0,0,0,101,101,156,333.13945412635803,,,,,,,,,,,,,,,,,,,,,,,,,,,,,,,,,,,,,,,,,,,,,,,,,,,,,,,,,,,,,,,,,,,,,,,,,,,,,,,,,98.63562035955343,134.22320111124031,152.06058271523915,136.31304796988445,198.4482786656603,76.27513009950098,4.0,4.1,-231,-264,0,-9,202,-261,333.12434577941895,333.12449049949646,333.1278839111328,333.13945412635803,333.28938484191895,333.28938484191895,333.28938484191895,333.28938484191895,333.28938484191895,333.28938484191895,333.28938484191895,334.2325735092163,2,1.0852982997894287,None,,,,,,,,,,,,,,,,,,37,1,2025-02-19_11h54.59.294,comp,2024.2.4,57.25621459286056,2025-02-19 11h55.10.795879 -0500,
102,102,0,critical,hwd,20.0,1.0,upper,200.0,125.0,125.0,200.0,141.0,141.0,3,0.9509050846099854,None,,,,,0,0,0,0,0,102,102,103,334.24990034103394,,,,,,,,,,,,,,,,,,,,,,,,,,,,,,,,,,,,,,,,,,,,,,,,,,,,,,,,,,,,,,,,,,,,,,,,,,,,,,,,,200.0,125.0,125.0,200.0,141.0,141.0,1.0,1.1,-738,277,-480,251,-214,265,334.2341709136963,334.23424792289734,334.23771476745605,334.24990034103394,334.38720536231995,334.38720536231995,334.38720536231995,334.38720536231995,334.38720536231995,334.38720536231995,334.38720536231995,335.20430994033813,3,0.9509050846099854,None,,,,,,,,,,,,,,,,,,37,1,2025-02-19_11h54.59.294,comp,2024.2.4,57.25621459286056,2025-02-19 11h55.10.795879 -0500,
103,103,0,critical,dwh,20.0,2.1,lower,78.0,78.0,57.0,133.0,133.0,57.0,3,2.2509799003601074,None,,,,,0,0,0,0,0,103,103,30,335.2218418121338,,,,,,,,,,,,,,,,,,,,,,,,,,,,,,,,,,,,,,,,,,,,,,,,,,,,,,,,,,,,,,,,,,,,,,,,,,,,,,,,,78.0,78.0,57.0,133.0,133.0,57.0,2.1,2.12,-202,-283,0,-263,191,266,335.2058165073395,335.2058901786804,335.2089521884918,335.2218418121338,335.35799264907837,335.35799264907837,335.35799264907837,335.35799264907837,335.35799264907837,335.35799264907837,335.35799264907837,337.4749970436096,3,2.2509799003601074,None,,,,,,,,,,,,,,,,,,37,1,2025-02-19_11h54.59.294,comp,2024.2.4,57.25621459286056,2025-02-19 11h55.10.795879 -0500,
104,104,0,catch,None,None,None,None,None,None,None,None,None,None,3,1.572368860244751,None,,,,,0,0,0,0,0,104,104,121,337.49191999435425,,,,,,,,,,,,,,,,,,,,,,,,,,,,,,,,,,,,,,,,,,,,,,,,,,,,,,,,,,,,,,,,,,,,,,,,,,,,,,,,,109,81,101,89,176,149,2.1,2.11,-181,250,0,264,215,-281,337.47713589668274,337.47721576690674,337.48106622695923,337.49191999435425,337.64183044433594,337.64183044433594,337.64183044433594,337.64183044433594,337.64183044433594,337.64183044433594,337.64183044433594,339.0782845020294,3,1.572368860244751,None,,,,,,,,,,,,,,,,,,37,1,2025-02-19_11h54.59.294,comp,2024.2.4,57.25621459286056,2025-02-19 11h55.10.795879 -0500,
105,105,0,filler_square,None,None,None,None,None,None,None,None,None,None,2,1.4171698093414307,None,,,,,0,0,0,0,0,105,105,191,339.09507942199707,,,,,,,,,,,,,,,,,,,,,,,,,,,,,,,,,,,,,,,,,,,,,,,,,,,,,,,,,,,,,,,,,,,,,,,,,,,,,,,,,102.86321131446894,98.99295224051426,131.08402480647925,131.08402480647925,110.1126631868884,84.06008429374526,4.0,4.2,-211,-11,0,-272,204,3,339.0802938938141,339.0803723335266,339.0843331813812,339.09507942199707,339.2424566745758,339.2424566745758,339.2424566745758,339.2424566745758,339.2424566745758,339.2424566745758,339.2424566745758,340.5248486995697,2,1.4171698093414307,None,,,,,,,,,,,,,,,,,,37,1,2025-02-19_11h54.59.294,comp,2024.2.4,57.25621459286056,2025-02-19 11h55.10.795879 -0500,
106,106,0,critical,whd,35.0,2.1,upper,125.0,200.0,200.0,125.0,127.0,127.0,2,1.6519865989685059,None,,,,,0,0,0,0,0,106,106,37,340.5402002334595,,,,,,,,,,,,,,,,,,,,,,,,,,,,,,,,,,,,,,,,,,,,,,,,,,,,,,,,,,,,,,,,,,,,,,,,,,,,,,,,,125.0,200.0,200.0,125.0,127.0,127.0,2.1,2.12,-258,-276,0,-257,222,265,340.5262134075165,340.52628684043884,340.5296597480774,340.5402002334595,340.68284606933594,340.68284606933594,340.68284606933594,340.68284606933594,340.68284606933594,340.68284606933594,340.68284606933594,342.19424176216125,2,1.6519865989685059,None,,,,,,,,,,,,,,,,,,37,1,2025-02-19_11h54.59.294,comp,2024.2.4,57.25621459286056,2025-02-19 11h55.10.795879 -0500,
107,107,0,filler_square,None,None,None,None,None,None,None,None,None,None,3,1.0377781391143799,None,,,,,0,0,0,0,0,107,107,194,342.21055722236633,,,,,,,,,,,,,,,,,,,,,,,,,,,,,,,,,,,,,,,,,,,,,,,,,,,,,,,,,,,,,,,,,,,,,,,,,,,,,,,,,145.00846083394111,166.6782999546969,86.48089423070995,140.14861069853796,169.22582805530317,169.22582805530317,3.0,3.2,-249,-257,0,-3,251,288,342.1959939002991,342.19609451293945,342.1997814178467,342.21055722236633,342.3587188720703,342.3587188720703,342.3587188720703,342.3587188720703,342.3587188720703,342.3587188720703,342.3587188720703,343.26282000541687,3,1.0377781391143799,None,,,,,,,,,,,,,,,,,,37,1,2025-02-19_11h54.59.294,comp,2024.2.4,57.25621459286056,2025-02-19 11h55.10.795879 -0500,
108,108,0,filler_square,None,None,None,None,None,None,None,None,None,None,1,1.8140742778778076,None,,,,,0,0,0,0,0,108,108,193,343.2821922302246,,,,,,,,,,,,,,,,,,,,,,,,,,,,,,,,,,,,,,,,,,,,,,,,,,,,,,,,,,,,,,,,,,,,,,,,,,,,,,,,,124.06497619031066,124.06497619031066,100.32560255351467,58.968614719630175,109.3636320528091,89.96728653972997,1.0,1.1,-668,264,-480,282,-310,284,343.2645933628082,343.26467180252075,343.2677409648895,343.2821922302246,343.4303889274597,343.4303889274597,343.4303889274597,343.4303889274597,343.4303889274597,343.4303889274597,343.4303889274597,345.1123239994049,1,1.8140742778778076,None,,,,,,,,,,,,,,,,,,37,1,2025-02-19_11h54.59.294,comp,2024.2.4,57.25621459286056,2025-02-19 11h55.10.795879 -0500,
109,109,0,critical,dwh,20.0,2.1,upper,141.0,141.0,125.0,200.0,200.0,125.0,1,1.1366877555847168,None,,,,,0,0,0,0,0,109,109,31,345.12771439552307,,,,,,,,,,,,,,,,,,,,,,,,,,,,,,,,,,,,,,,,,,,,,,,,,,,,,,,,,,,,,,,,,,,,,,,,,,,,,,,,,141.0,141.0,125.0,200.0,200.0,125.0,2.1,2.11,-266,275,0,277,258,-265,345.11406087875366,345.1141548156738,345.1174967288971,345.12771439552307,345.27987480163574,345.27987480163574,345.27987480163574,345.27987480163574,345.27987480163574,345.27987480163574,345.27987480163574,346.2776765823364,1,1.1366877555847168,None,,,,,,,,,,,,,,,,,,37,1,2025-02-19_11h54.59.294,comp,2024.2.4,57.25621459286056,2025-02-19 11h55.10.795879 -0500,
110,110,0,critical,wdh,35.0,3.0,lower,57.0,133.0,70.0,70.0,133.0,57.0,3,1.5637974739074707,None,,,,,0,0,0,0,0,110,110,74,346.2928330898285,,,,,,,,,,,,,,,,,,,,,,,,,,,,,,,,,,,,,,,,,,,,,,,,,,,,,,,,,,,,,,,,,,,,,,,,,,,,,,,,,57.0,133.0,70.0,70.0,133.0,57.0,3.0,3.2,-198,-275,0,-7,160,269,346.2791724205017,346.27924728393555,346.282573223114,346.2928330898285,346.4435963630676,346.4435963630676,346.4435963630676,346.4435963630676,346.4435963630676,346.4435963630676,346.4435963630676,347.8605182170868,3,1.5637974739074707,None,,,,,,,,,,,,,,,,,,37,1,2025-02-19_11h54.59.294,comp,2024.2.4,57.25621459286056,2025-02-19 11h55.10.795879 -0500,
111,111,0,filler_random,None,None,None,None,None,None,None,None,None,None,1,1.391885757446289,None,,,,,0,0,0,0,0,111,111,158,347.88102889060974,,,,,,,,,,,,,,,,,,,,,,,,,,,,,,,,,,,,,,,,,,,,,,,,,,,,,,,,,,,,,,,,,,,,,,,,,,,,,,,,,166.20434507893899,197.9356795077664,154.5539785405424,142.94688188476155,63.00382583080079,142.01392373668602,3.0,3.2,-266,-277,0,-13,238,286,347.8621828556061,347.86225938796997,347.86545491218567,347.88102889060974,348.0287220478058,348.0287220478058,348.0287220478058,348.0287220478058,348.0287220478058,348.0287220478058,348.0287220478058,349.27911925315857,1,1.391885757446289,None,,,,,,,,,,,,,,,,,,37,1,2025-02-19_11h54.59.294,comp,2024.2.4,57.25621459286056,2025-02-19 11h55.10.795879 -0500,
112,112,0,critical,hwd,20.0,2.1,lower,133.0,57.0,57.0,133.0,78.0,78.0,2,1.6488301753997803,None,,,,,0,0,0,0,0,112,112,42,349.2956476211548,,,,,,,,,,,,,,,,,,,,,,,,,,,,,,,,,,,,,,,,,,,,,,,,,,,,,,,,,,,,,,,,,,,,,,,,,,,,,,,,,133.0,57.0,57.0,133.0,78.0,78.0,2.1,2.11,-191,279,0,253,202,-282,349.28063106536865,349.28070735931396,349.28490352630615,349.2956476211548,349.4459619522095,349.4459619522095,349.4459619522095,349.4459619522095,349.4459619522095,349.4459619522095,349.4459619522095,350.9483222961426,2,1.6488301753997803,None,,,,,,,,,,,,,,,,,,37,1,2025-02-19_11h54.59.294,comp,2024.2.4,57.25621459286056,2025-02-19 11h55.10.795879 -0500,
113,113,0,critical,dwh,20.0,4.0,upper,141.0,141.0,125.0,200.0,200.0,125.0,2,2.243989944458008,None,,,,,0,0,0,0,0,113,113,71,350.9644777774811,,,,,,,,,,,,,,,,,,,,,,,,,,,,,,,,,,,,,,,,,,,,,,,,,,,,,,,,,,,,,,,,,,,,,,,,,,,,,,,,,141.0,141.0,125.0,200.0,200.0,125.0,4.0,4.2,-266,-15,0,-284,258,15,350.94995856285095,350.9500365257263,350.9536554813385,350.9644777774811,351.11308097839355,351.11308097839355,351.11308097839355,351.11308097839355,351.11308097839355,351.11308097839355,351.11308097839355,353.22036623954773,2,2.243989944458008,None,,,,,,,,,,,,,,,,,,37,1,2025-02-19_11h54.59.294,comp,2024.2.4,57.25621459286056,2025-02-19 11h55.10.795879 -0500,
114,114,0,filler_square,None,None,None,None,None,None,None,None,None,None,3,1.2075705528259277,None,,,,,0,0,0,0,0,114,114,192,353.240754365921,,,,,,,,,,,,,,,,,,,,,,,,,,,,,,,,,,,,,,,,,,,,,,,,,,,,,,,,,,,,,,,,,,,,,,,,,,,,,,,,,72.34310047301851,90.83442625633322,104.5948596824248,63.27056007772218,111.29899102224036,111.29899102224036,2.1,2.12,-173,-260,0,-271,183,284,353.2222502231598,353.22237849235535,353.2257447242737,353.240754365921,353.3803606033325,353.3803606033325,353.3803606033325,353.3803606033325,353.3803606033325,353.3803606033325,353.3803606033325,354.4662079811096,3,1.2075705528259277,None,,,,,,,,,,,,,,,,,,37,1,2025-02-19_11h54.59.294,comp,2024.2.4,57.25621459286056,2025-02-19 11h55.10.795879 -0500,
115,115,0,catch,None,None,None,None,None,None,None,None,None,None,1,1.011922836303711,None,,,,,0,0,0,0,0,115,115,126,354.484500169754,,,,,,,,,,,,,,,,,,,,,,,,,,,,,,,,,,,,,,,,,,,,,,,,,,,,,,,,,,,,,,,,,,,,,,,,,,,,,,,,,198,127,79,111,133,57,2.1,2.12,-215,-257,0,-260,180,258,354.46822714805603,354.46830344200134,354.4716098308563,354.484500169754,354.6334156990051,354.6334156990051,354.6334156990051,354.6334156990051,354.6334156990051,354.6334156990051,354.6334156990051,355.49971294403076,1,1.011922836303711,None,,,,,,,,,,,,,,,,,,37,1,2025-02-19_11h54.59.294,comp,2024.2.4,57.25621459286056,2025-02-19 11h55.10.795879 -0500,
116,116,0,filler_random,None,None,None,None,None,None,None,None,None,None,3,1.0737533569335938,None,,,,,0,0,0,0,0,116,116,131,355.51888513565063,,,,,,,,,,,,,,,,,,,,,,,,,,,,,,,,,,,,,,,,,,,,,,,,,,,,,,,,,,,,,,,,,,,,,,,,,,,,,,,,,103.93401405569622,107.0795796438066,191.08436286533117,144.6223230963496,188.87765083986793,190.04063975271364,1.0,1.1,-702,255,-480,276,-217,280,355.5013575553894,355.5014612674713,355.5046720504761,355.51888513565063,355.66350626945496,355.66350626945496,355.66350626945496,355.66350626945496,355.66350626945496,355.66350626945496,355.66350626945496,356.5967347621918,3,1.0737533569335938,None,,,,,,,,,,,,,,,,,,37,1,2025-02-19_11h54.59.294,comp,2024.2.4,57.25621459286056,2025-02-19 11h55.10.795879 -0500,
117,117,0,critical,wdh,35.0,3.0,upper,125.0,200.0,127.0,127.0,200.0,125.0,3,1.3362443447113037,None,,,,,0,0,0,0,0,117,117,75,356.617892742157,,,,,,,,,,,,,,,,,,,,,,,,,,,,,,,,,,,,,,,,,,,,,,,,,,,,,,,,,,,,,,,,,,,,,,,,,,,,,,,,,125.0,200.0,127.0,127.0,200.0,125.0,3.0,3.2,-260,-285,0,18,222,254,356.59827065467834,356.5983462333679,356.6016960144043,356.617892742157,356.7644999027252,356.7644999027252,356.7644999027252,356.7644999027252,356.7644999027252,356.7644999027252,356.7644999027252,357.9659333229065,3,1.3362443447113037,None,,,,,,,,,,,,,,,,,,37,1,2025-02-19_11h54.59.294,comp,2024.2.4,57.25621459286056,2025-02-19 11h55.10.795879 -0500,
118,118,0,critical,dhw,20.0,2.1,upper,141.0,141.0,200.0,125.0,125.0,200.0,3,1.0347163677215576,None,,,,,0,0,0,0,0,118,118,27,357.98149824142456,,,,,,,,,,,,,,,,,,,,,,,,,,,,,,,,,,,,,,,,,,,,,,,,,,,,,,,,,,,,,,,,,,,,,,,,,,,,,,,,,141.0,141.0,200.0,125.0,125.0,200.0,2.1,2.12,-229,-281,0,-270,258,270,357.96739649772644,357.9674942493439,357.9708905220032,357.98149824142456,358.1313154697418,358.1313154697418,358.1313154697418,358.1313154697418,358.1313154697418,358.1313154697418,358.1313154697418,359.03251671791077,3,1.0347163677215576,None,,,,,,,,,,,,,,,,,,37,1,2025-02-19_11h54.59.294,comp,2024.2.4,57.25621459286056,2025-02-19 11h55.10.795879 -0500,
119,119,0,critical,hwd,20.0,1.0,lower,133.0,57.0,57.0,133.0,78.0,78.0,3,1.1761245727539062,None,,,,,0,0,0,0,0,119,119,102,359.04819226264954,,,,,,,,,,,,,,,,,,,,,,,,,,,,,,,,,,,,,,,,,,,,,,,,,,,,,,,,,,,,,,,,,,,,,,,,,,,,,,,,,133.0,57.0,57.0,133.0,78.0,78.0,1.0,1.2,-191,-16,0,5,202,9,359.03401255607605,359.0340886116028,359.03766775131226,359.04819226264954,359.18512654304504,359.18512654304504,359.18512654304504,359.18512654304504,359.18512654304504,359.18512654304504,359.18512654304504,360.23316192626953,3,1.1761245727539062,None,,,,,,,,,,,,,,,,,,37,1,2025-02-19_11h54.59.294,comp,2024.2.4,57.25621459286056,2025-02-19 11h55.10.795879 -0500,
120,120,0,filler_square,None,None,None,None,None,None,None,None,None,None,2,0.9112348556518555,None,,,,,0,0,0,0,0,120,120,197,360.2495291233063,,,,,,,,,,,,,,,,,,,,,,,,,,,,,,,,,,,,,,,,,,,,,,,,,,,,,,,,,,,,,,,,,,,,,,,,,,,,,,,,,78.95371301234111,57.1304187785305,64.05340015769379,61.46856801447958,85.34351762481657,85.34351762481657,1.0,1.3,325,-279,480,-289,649,-276,360.2352149486542,360.2353308200836,360.23893904685974,360.2495291233063,360.3985619544983,360.3985619544983,360.3985619544983,360.3985619544983,360.3985619544983,360.3985619544983,360.3985619544983,361.16574120521545,2,0.9112348556518555,None,,,,,,,,,,,,,,,,,,37,1,2025-02-19_11h54.59.294,comp,2024.2.4,57.25621459286056,2025-02-19 11h55.10.795879 -0500,
121,121,0,filler_random,None,None,None,None,None,None,None,None,None,None,1,0.8662631511688232,None,,,,,0,0,0,0,0,121,121,146,361.18203830718994,,,,,,,,,,,,,,,,,,,,,,,,,,,,,,,,,,,,,,,,,,,,,,,,,,,,,,,,,,,,,,,,,,,,,,,,,,,,,,,,,79.95872791108096,162.116404381944,141.27949353588735,85.67609283126275,129.21201163284454,69.24456885129784,2.2,2.22,-220,268,0,-282,173,-253,361.16748571395874,361.1675844192505,361.1711459159851,361.18203830718994,361.3333308696747,361.3333308696747,361.3333308696747,361.3333308696747,361.3333308696747,361.3333308696747,361.3333308696747,362.0525860786438,1,0.8662631511688232,None,,,,,,,,,,,,,,,,,,37,1,2025-02-19_11h54.59.294,comp,2024.2.4,57.25621459286056,2025-02-19 11h55.10.795879 -0500,
122,122,0,filler_square,None,None,None,None,None,None,None,None,None,None,2,0.5764312744140625,None,,,,,0,0,0,0,0,122,122,180,362.07179975509644,,,,,,,,,,,,,,,,,,,,,,,,,,,,,,,,,,,,,,,,,,,,,,,,,,,,,,,,,,,,,,,,,,,,,,,,,,,,,,,,,102.55993175343306,102.55993175343306,66.20866873771058,87.51710877206553,92.04230721712665,88.38170947288737,3.0,3.2,-191,-253,0,13,184,276,362.05447268486023,362.054563999176,362.05772638320923,362.07179975509644,362.21648144721985,362.21648144721985,362.21648144721985,362.21648144721985,362.21648144721985,362.21648144721985,362.21648144721985,362.6502525806427,2,0.5764312744140625,None,,,,,,,,,,,,,,,,,,37,1,2025-02-19_11h54.59.294,comp,2024.2.4,57.25621459286056,2025-02-19 11h55.10.795879 -0500,
123,123,0,critical,hdw,35.0,2.1,upper,200.0,125.0,127.0,127.0,125.0,200.0,1,1.3018207550048828,None,,,,,0,0,0,0,0,123,123,21,362.6663866043091,,,,,,,,,,,,,,,,,,,,,,,,,,,,,,,,,,,,,,,,,,,,,,,,,,,,,,,,,,,,,,,,,,,,,,,,,,,,,,,,,200.0,125.0,127.0,127.0,125.0,200.0,2.1,2.11,-222,256,0,272,260,-284,362.6519203186035,362.6519968509674,362.65569949150085,362.6663866043091,362.81957387924194,362.81957387924194,362.81957387924194,362.81957387924194,362.81957387924194,362.81957387924194,362.81957387924194,363.98960518836975,1,1.3018207550048828,None,,,,,,,,,,,,,,,,,,37,1,2025-02-19_11h54.59.294,comp,2024.2.4,57.25621459286056,2025-02-19 11h55.10.795879 -0500,
124,124,0,critical,dwh,20.0,4.0,lower,78.0,78.0,57.0,133.0,133.0,57.0,2,1.3877968788146973,None,,,,,0,0,0,0,0,124,124,70,364.0043668746948,,,,,,,,,,,,,,,,,,,,,,,,,,,,,,,,,,,,,,,,,,,,,,,,,,,,,,,,,,,,,,,,,,,,,,,,,,,,,,,,,78.0,78.0,57.0,133.0,133.0,57.0,4.0,4.2,-202,-6,0,-279,191,19,363.99100947380066,363.99108242988586,363.99409675598145,364.0043668746948,364.15025901794434,364.15025901794434,364.15025901794434,364.15025901794434,364.15025901794434,364.15025901794434,364.15025901794434,365.4064927101135,2,1.3877968788146973,None,,,,,,,,,,,,,,,,,,37,1,2025-02-19_11h54.59.294,comp,2024.2.4,57.25621459286056,2025-02-19 11h55.10.795879 -0500,
125,125,0,filler_random,None,None,None,None,None,None,None,None,None,None,1,0.9137630462646484,None,,,,,0,0,0,0,0,125,125,144,365.42256331443787,,,,,,,,,,,,,,,,,,,,,,,,,,,,,,,,,,,,,,,,,,,,,,,,,,,,,,,,,,,,,,,,,,,,,,,,,,,,,,,,,156.9039272575973,176.07200091771523,67.32432296662171,138.022610782007,137.57220366733875,60.9491242505395,3.0,3.1,-253,278,0,-5,195,-264,365.4081652164459,365.4082405567169,365.4117169380188,365.42256331443787,365.56609535217285,365.56609535217285,365.56609535217285,365.56609535217285,365.56609535217285,365.56609535217285,365.56609535217285,366.3385953903198,1,0.9137630462646484,None,,,,,,,,,,,,,,,,,,37,1,2025-02-19_11h54.59.294,comp,2024.2.4,57.25621459286056,2025-02-19 11h55.10.795879 -0500,
126,126,0,critical,hdw,35.0,2.1,lower,133.0,57.0,70.0,70.0,57.0,133.0,3,0.9904377460479736,None,,,,,0,0,0,0,0,126,126,44,366.35379123687744,,,,,,,,,,,,,,,,,,,,,,,,,,,,,,,,,,,,,,,,,,,,,,,,,,,,,,,,,,,,,,,,,,,,,,,,,,,,,,,,,133.0,57.0,70.0,70.0,57.0,133.0,2.1,2.12,-160,-253,0,-270,198,277,366.3400435447693,366.34012055397034,366.3432369232178,366.35379123687744,366.5013003349304,366.5013003349304,366.5013003349304,366.5013003349304,366.5013003349304,366.5013003349304,366.5013003349304,367.35326051712036,3,0.9904377460479736,None,,,,,,,,,,,,,,,,,,37,1,2025-02-19_11h54.59.294,comp,2024.2.4,57.25621459286056,2025-02-19 11h55.10.795879 -0500,
127,127,0,critical,wdh,20.0,3.0,upper,125.0,200.0,141.0,141.0,200.0,125.0,1,2.270134449005127,None,,,,,0,0,0,0,0,127,127,81,367.370157957077,,,,,,,,,,,,,,,,,,,,,,,,,,,,,,,,,,,,,,,,,,,,,,,,,,,,,,,,,,,,,,,,,,,,,,,,,,,,,,,,,125.0,200.0,141.0,141.0,200.0,125.0,3.0,3.2,-266,-260,0,19,229,266,367.3549177646637,367.3549952507019,367.3589918613434,367.370157957077,367.52128505706787,367.52128505706787,367.52128505706787,367.52128505706787,367.52128505706787,367.52128505706787,367.52128505706787,369.65804052352905,1,2.270134449005127,None,,,,,,,,,,,,,,,,,,37,1,2025-02-19_11h54.59.294,comp,2024.2.4,57.25621459286056,2025-02-19 11h55.10.795879 -0500,
128,128,0,filler_random,None,None,None,None,None,None,None,None,None,None,3,1.1407384872436523,None,,,,,0,0,0,0,0,128,128,149,369.6754994392395,,,,,,,,,,,,,,,,,,,,,,,,,,,,,,,,,,,,,,,,,,,,,,,,,,,,,,,,,,,,,,,,,,,,,,,,,,,,,,,,,196.7712490831705,128.1095697274581,144.78035082645607,143.8826669679549,187.82367914310976,165.1538500590093,2.2,2.21,-232,-276,0,268,251,259,369.6597011089325,369.659775018692,369.662784576416,369.6754994392395,369.8208100795746,369.8208100795746,369.8208100795746,369.8208100795746,369.8208100795746,369.8208100795746,369.8208100795746,370.81872844696045,3,1.1407384872436523,None,,,,,,,,,,,,,,,,,,37,1,2025-02-19_11h54.59.294,comp,2024.2.4,57.25621459286056,2025-02-19 11h55.10.795879 -0500,
129,129,0,critical,hwd,35.0,4.0,upper,200.0,125.0,125.0,200.0,127.0,127.0,1,0.9584076404571533,None,,,,,0,0,0,0,0,129,129,101,370.8346014022827,,,,,,,,,,,,,,,,,,,,,,,,,,,,,,,,,,,,,,,,,,,,,,,,,,,,,,,,,,,,,,,,,,,,,,,,,,,,,,,,,200.0,125.0,125.0,200.0,127.0,127.0,4.0,4.2,-258,8,0,-269,260,-7,370.8202180862427,370.82029366493225,370.8238580226898,370.8346014022827,370.9844870567322,370.9844870567322,370.9844870567322,370.9844870567322,370.9844870567322,370.9844870567322,370.9844870567322,371.80129528045654,1,0.9584076404571533,None,,,,,,,,,,,,,,,,,,37,1,2025-02-19_11h54.59.294,comp,2024.2.4,57.25621459286056,2025-02-19 11h55.10.795879 -0500,
130,130,0,critical,whd,20.0,3.0,lower,57.0,133.0,133.0,57.0,78.0,78.0,1,1.0948772430419922,None,,,,,0,0,0,0,0,130,130,92,371.8179888725281,,,,,,,,,,,,,,,,,,,,,,,,,,,,,,,,,,,,,,,,,,,,,,,,,,,,,,,,,,,,,,,,,,,,,,,,,,,,,,,,,57.0,133.0,133.0,57.0,78.0,78.0,3.0,3.1,-191,251,0,-18,164,-255,371.8028211593628,371.8028974533081,371.8061101436615,371.8179888725281,371.9723505973816,371.9723505973816,371.9723505973816,371.9723505973816,371.9723505973816,371.9723505973816,371.9723505973816,372.923898935318,1,1.0948772430419922,None,,,,,,,,,,,,,,,,,,37,1,2025-02-19_11h54.59.294,comp,2024.2.4,57.25621459286056,2025-02-19 11h55.10.795879 -0500,
131,131,0,critical,whd,20.0,3.0,upper,125.0,200.0,200.0,125.0,141.0,141.0,1,0.8606326580047607,None,,,,,0,0,0,0,0,131,131,93,372.9398651123047,,,,,,,,,,,,,,,,,,,,,,,,,,,,,,,,,,,,,,,,,,,,,,,,,,,,,,,,,,,,,,,,,,,,,,,,,,,,,,,,,125.0,200.0,200.0,125.0,141.0,141.0,3.0,3.1,-258,277,0,-16,229,-265,372.92585849761963,372.92600321769714,372.92927503585815,372.9398651123047,373.08663392066956,373.08663392066956,373.08663392066956,373.08663392066956,373.08663392066956,373.08663392066956,373.08663392066956,373.8048713207245,1,0.8606326580047607,None,,,,,,,,,,,,,,,,,,37,1,2025-02-19_11h54.59.294,comp,2024.2.4,57.25621459286056,2025-02-19 11h55.10.795879 -0500,
132,132,0,critical,hwd,20.0,3.0,upper,200.0,125.0,125.0,200.0,141.0,141.0,2,0.7389428615570068,None,,,,,0,0,0,0,0,132,132,105,373.82133650779724,,,,,,,,,,,,,,,,,,,,,,,,,,,,,,,,,,,,,,,,,,,,,,,,,,,,,,,,,,,,,,,,,,,,,,,,,,,,,,,,,200.0,125.0,125.0,200.0,141.0,141.0,3.0,3.2,-258,-250,0,-8,266,278,373.8063826560974,373.8064806461334,373.80959820747375,373.82133650779724,373.96809124946594,373.96809124946594,373.96809124946594,373.96809124946594,373.96809124946594,373.96809124946594,373.96809124946594,374.5745575428009,2,0.7389428615570068,None,,,,,,,,,,,,,,,,,,37,1,2025-02-19_11h54.59.294,comp,2024.2.4,57.25621459286056,2025-02-19 11h55.10.795879 -0500,
133,133,0,critical,dwh,35.0,2.1,upper,127.0,127.0,125.0,200.0,200.0,125.0,2,1.594005823135376,None,,,,,0,0,0,0,0,133,133,29,374.5910189151764,,,,,,,,,,,,,,,,,,,,,,,,,,,,,,,,,,,,,,,,,,,,,,,,,,,,,,,,,,,,,,,,,,,,,,,,,,,,,,,,,127.0,127.0,125.0,200.0,200.0,125.0,2.1,2.12,-260,-267,0,-288,258,269,374.57652616500854,374.57660365104675,374.5797369480133,374.5910189151764,374.7360508441925,374.7360508441925,374.7360508441925,374.7360508441925,374.7360508441925,374.7360508441925,374.7360508441925,376.18720388412476,2,1.594005823135376,None,,,,,,,,,,,,,,,,,,37,1,2025-02-19_11h54.59.294,comp,2024.2.4,57.25621459286056,2025-02-19 11h55.10.795879 -0500,
134,134,0,filler_random,None,None,None,None,None,None,None,None,None,None,1,1.1959702968597412,None,,,,,0,0,0,0,0,134,134,150,376.20455837249756,,,,,,,,,,,,,,,,,,,,,,,,,,,,,,,,,,,,,,,,,,,,,,,,,,,,,,,,,,,,,,,,,,,,,,,,,,,,,,,,,113.4454398585572,169.78152417716421,142.2249600955084,127.53064403943549,61.543052172257724,129.24268708200066,3.0,3.2,-245,-276,0,6,224,266,376.18892121315,376.1889979839325,376.19317722320557,376.20455837249756,376.35652780532837,376.35652780532837,376.35652780532837,376.35652780532837,376.35652780532837,376.35652780532837,376.35652780532837,377.4045763015747,1,1.1959702968597412,None,,,,,,,,,,,,,,,,,,37,1,2025-02-19_11h54.59.294,comp,2024.2.4,57.25621459286056,2025-02-19 11h55.10.795879 -0500,
135,135,0,filler_random,None,None,None,None,None,None,None,None,None,None,3,0.9212524890899658,None,,,,,0,0,0,0,0,135,135,147,377.42456555366516,,,,,,,,,,,,,,,,,,,,,,,,,,,,,,,,,,,,,,,,,,,,,,,,,,,,,,,,,,,,,,,,,,,,,,,,,,,,,,,,,132.05211071046006,153.5566873357005,162.4392739438232,96.19851449233556,170.6044097309761,161.96715672086722,1.0,1.1,-701,286,-480,253,-255,264,377.40645933151245,377.40659260749817,377.4100058078766,377.42456555366516,377.5700829029083,377.5700829029083,377.5700829029083,377.5700829029083,377.5700829029083,377.5700829029083,377.5700829029083,378.35149669647217,3,0.9212524890899658,None,,,,,,,,,,,,,,,,,,37,1,2025-02-19_11h54.59.294,comp,2024.2.4,57.25621459286056,2025-02-19 11h55.10.795879 -0500,
136,136,0,critical,hdw,20.0,2.1,lower,133.0,57.0,78.0,78.0,57.0,133.0,1,1.9272637367248535,None,,,,,0,0,0,0,0,136,136,22,378.36900067329407,,,,,,,,,,,,,,,,,,,,,,,,,,,,,,,,,,,,,,,,,,,,,,,,,,,,,,,,,,,,,,,,,,,,,,,,,,,,,,,,,133.0,57.0,78.0,78.0,57.0,133.0,2.1,2.12,-164,-250,0,-268,202,267,378.3530926704407,378.3531684875488,378.3565752506256,378.36900067329407,378.5208349227905,378.5208349227905,378.5208349227905,378.5208349227905,378.5208349227905,378.5208349227905,378.5208349227905,380.30886673927307,1,1.9272637367248535,None,,,,,,,,,,,,,,,,,,37,1,2025-02-19_11h54.59.294,comp,2024.2.4,57.25621459286056,2025-02-19 11h55.10.795879 -0500,
137,137,0,critical,dhw,35.0,2.1,lower,70.0,70.0,133.0,57.0,57.0,133.0,2,1.6813580989837646,None,,,,,0,0,0,0,0,137,137,24,380.3268928527832,,,,,,,,,,,,,,,,,,,,,,,,,,,,,,,,,,,,,,,,,,,,,,,,,,,,,,,,,,,,,,,,,,,,,,,,,,,,,,,,,70.0,70.0,133.0,57.0,57.0,133.0,2.1,2.11,-160,253,0,267,191,-270,380.3106837272644,380.3107614517212,380.3138060569763,380.3268928527832,380.4721374511719,380.4721374511719,380.4721374511719,380.4721374511719,380.4721374511719,380.4721374511719,380.4721374511719,382.02109026908875,2,1.6813580989837646,None,,,,,,,,,,,,,,,,,,37,1,2025-02-19_11h54.59.294,comp,2024.2.4,57.25621459286056,2025-02-19 11h55.10.795879 -0500,
138,138,0,critical,hwd,20.0,4.0,lower,133.0,57.0,57.0,133.0,78.0,78.0,2,0.71514892578125,None,,,,,0,0,0,0,0,138,138,106,382.0373876094818,,,,,,,,,,,,,,,,,,,,,,,,,,,,,,,,,,,,,,,,,,,,,,,,,,,,,,,,,,,,,,,,,,,,,,,,,,,,,,,,,133.0,57.0,57.0,133.0,78.0,78.0,4.0,4.1,-191,-286,0,6,202,-256,382.02261543273926,382.0226891040802,382.02618384361267,382.0373876094818,382.1779475212097,382.1779475212097,382.1779475212097,382.1779475212097,382.1779475212097,382.1779475212097,382.1779475212097,382.7630453109741,2,0.71514892578125,None,,,,,,,,,,,,,,,,,,37,1,2025-02-19_11h54.59.294,comp,2024.2.4,57.25621459286056,2025-02-19 11h55.10.795879 -0500,
139,139,0,critical,wdh,20.0,3.0,lower,57.0,133.0,78.0,78.0,133.0,57.0,3,1.8036625385284424,None,,,,,0,0,0,0,0,139,139,80,382.7806193828583,,,,,,,,,,,,,,,,,,,,,,,,,,,,,,,,,,,,,,,,,,,,,,,,,,,,,,,,,,,,,,,,,,,,,,,,,,,,,,,,,57.0,133.0,78.0,78.0,133.0,57.0,3.0,3.2,-202,-252,0,-2,164,254,382.76449942588806,382.7645740509033,382.7676057815552,382.7806193828583,382.92265725135803,382.92265725135803,382.92265725135803,382.92265725135803,382.92265725135803,382.92265725135803,382.92265725135803,384.596604347229,3,1.8036625385284424,None,,,,,,,,,,,,,,,,,,37,1,2025-02-19_11h54.59.294,comp,2024.2.4,57.25621459286056,2025-02-19 11h55.10.795879 -0500,
140,140,0,filler_random,None,None,None,None,None,None,None,None,None,None,3,1.715240716934204,None,,,,,0,0,0,0,0,140,140,145,384.6131589412689,,,,,,,,,,,,,,,,,,,,,,,,,,,,,,,,,,,,,,,,,,,,,,,,,,,,,,,,,,,,,,,,,,,,,,,,,,,,,,,,,197.43405501313617,72.47171671472847,104.14168297709261,109.83854863431502,144.09922765305376,152.05988457962405,3.0,3.1,-187,279,0,14,227,-287,384.598313331604,384.5983908176422,384.60152888298035,384.6131589412689,384.75572443008423,384.75572443008423,384.75572443008423,384.75572443008423,384.75572443008423,384.75572443008423,384.75572443008423,386.3425223827362,3,1.715240716934204,None,,,,,,,,,,,,,,,,,,37,1,2025-02-19_11h54.59.294,comp,2024.2.4,57.25621459286056,2025-02-19 11h55.10.795879 -0500,
