thisN,thisTrialN,thisRepN,effect,order,distance,config,diag,h_1,w_1,h_2,w_2,h_3,w_3,rect_choice.keys,rect_choice.rt,rect_choice.duration,instructions_loop.thisRepN,instructions_loop.thisTrialN,instructions_loop.thisN,instructions_loop.thisIndex,blocks.thisRepN,blocks.thisTrialN,blocks.thisN,blocks.thisIndex,trials.thisRepN,trials.thisTrialN,trials.thisN,trials.thisIndex,thisRow.t,notes,consent.started,agree_button.started,decline_button.started,consent_img.started,mouse.started,consent.stopped,agree_button.numClicks,agree_button.timesOn,agree_button.timesOff,decline_button.numClicks,decline_button.timesOn,decline_button.timesOff,mouse.x,mouse.y,mouse.leftButton,mouse.midButton,mouse.rightButton,mouse.time,mouse.clicked_name,exp_params.started,exp_params.stopped,welcome.started,welcome_text.started,welcome.stopped,instructions_1.started,instructions_1_text_1.started,instructions_1_text_2.started,key_resp.started,instructions_1.stopped,instructions_loop.key_resp.keys,instructions_loop.key_resp.rt,instructions_loop.key_resp.duration,instructions_2.started,instructions_2_text_1.started,instructions_2_text_2.started,key_resp_2.started,instructions_2.stopped,instructions_loop.key_resp_2.keys,instructions_loop.key_resp_2.rt,instructions_loop.key_resp_2.duration,instructions_3.started,instructions_3_text_1.started,r1_instr3.started,r2_instr3.started,r3_instr3.started,r1_instr3_label.started,r2_instr3_label.started,r3_instr3_label.started,instructions_3_text_3.started,instructions_3_text_4.started,key_resp_3.started,instructions_3.stopped,instructions_loop.key_resp_3.keys,instructions_loop.key_resp_3.rt,instructions_loop.key_resp_3.duration,instructions_4.started,instructions_4_text_1.started,instructions_4_text_3.started,instructions_4_text_2.started,key_resp_4.started,instructions_4.stopped,instructions_loop.key_resp_4.keys,instructions_loop.key_resp_4.rt,instructions_loop.key_resp_4.duration,instructions_5.started,instructions_5_text_1.started,instructions_5_text_2.started,key_resp_5.started,instructions_5.stopped,instructions_loop.key_resp_5.keys,instructions_loop.key_resp_5.rt,instructions_loop.key_resp_5.duration,start_exp.started,start_exp_text.started,key_resp_6.started,start_exp.stopped,key_resp_6.keys,key_resp_6.rt,key_resp_6.duration,h_1_tmp,w_1_tmp,h_2_tmp,w_2_tmp,h_3_tmp,w_3_tmp,config_tmp,config_tmp_1,r_1_x,r_1_y,r_2_x,r_2_y,r_3_x,r_3_y,pre_trial.started,pre_trial.stopped,choice_trial.started,rect_choice.started,r_1.started,r_2.started,r_3.started,r_1_label.started,r_2_label.started,r_3_label.started,prompt.started,choice_trial.stopped,trials.rect_choice.keys,trials.rect_choice.rt,trials.rect_choice.duration,end_block.started,end_block_text.started,end_block.stopped,end.started,end_text.started,key_resp_7.started,end.stopped,key_resp_7.keys,key_resp_7.rt,key_resp_7.duration,debriefing.started,debrief_form.started,end_debrief.started,debriefing.stopped,end_debrief.keys,end_debrief.rt,end_debrief.duration,participant,computer,date,expName,psychopyVersion,frameRate,expStart,
,,,,,,,,,,,,,,,,,,,,,,,,,,,,,,,0.015312910079956055,0.04126763343811035,0.04126763343811035,0.04126763343811035,0.015017271041870117,37.68408131599426,1,[37.64160442352295],[37.641615867614746],0,,,[-88.0],[-499.0],[1],[0],[0],[37.66822028160095],['agree_button'],,,,,,,,,,,,,,,,,,,,,,,,,,,,,,,,,,,,,,,,,,,,,,,,,,,,,,,,,,,,,,,,,,,,,,,,,,,,,,,,,,,,,,,,,,,,,,,,,,,,,,,,,,,38,3,2025-02-19_11h55.10.598,comp,2024.2.4,60.07860932540364,2025-02-19 11h55.20.475069 -0500,
,,,,,,,,,,,,,,,,,,,,,,,,,,,,,,,,,,,,,,,,,,,,,,,,,,37.68433690071106,37.68437147140503,,,,,,,,,,,,,,,,,,,,,,,,,,,,,,,,,,,,,,,,,,,,,,,,,,,,,,,,,,,,,,,,,,,,,,,,,,,,,,,,,,,,,,,,,,,,,,,,,,,,,,,,,38,3,2025-02-19_11h55.10.598,comp,2024.2.4,60.07860932540364,2025-02-19 11h55.20.475069 -0500,
,,,,,,,,,,,,,,,,,,,,,,,,,,,,,,,,,,,,,,,,,,,,,,,,,,,,37.684393644332886,37.6977972984314,39.68752360343933,,,,,,,,,,,,,,,,,,,,,,,,,,,,,,,,,,,,,,,,,,,,,,,,,,,,,,,,,,,,,,,,,,,,,,,,,,,,,,,,,,,,,,,,,,,,,,,,,,,,,,38,3,2025-02-19_11h55.10.598,comp,2024.2.4,60.07860932540364,2025-02-19 11h55.20.475069 -0500,
0,0,0,,,,,,,,,,,,,,,0,0,0,0,,,,,,,,,39.7042076587677,,,,,,,,,,,,,,,,,,,,,,,,,,39.68806266784668,39.7042076587677,39.7042076587677,41.187342405319214,45.95549440383911,space,4.753006935119629,None,45.9555778503418,45.970925092697144,45.970925092697144,47.47067427635193,54.30491900444031,space,6.816080331802368,None,54.30500507354736,54.326746225357056,54.326746225357056,54.326746225357056,54.326746225357056,54.326746225357056,54.326746225357056,54.326746225357056,54.326746225357056,54.326746225357056,55.80437159538269,58.772215843200684,space,2.9605143070220947,None,58.772303104400635,58.7878737449646,58.7878737449646,58.7878737449646,60.287421226501465,65.6720654964447,space,5.372346639633179,None,65.67214846611023,65.6873550415039,65.6873550415039,67.18718719482422,67.5215802192688,space,0.3211038112640381,None,67.52169299125671,67.53710174560547,67.53710174560547,68.33825469017029,space,0.7956104278564453,None,,,,,,,,,,,,,,,,,,,,,,,,,,,,,,,,,,,,,,,,,,,,,,,38,3,2025-02-19_11h55.10.598,comp,2024.2.4,60.07860932540364,2025-02-19 11h55.20.475069 -0500,
0,0,0,critical,dhw,35.0,2.1,upper,127.0,127.0,200.0,125.0,125.0,200.0,3,3.342512369155884,None,,,,,0,0,0,0,0,0,0,1,68.39750742912292,,,,,,,,,,,,,,,,,,,,,,,,,,,,,,,,,,,,,,,,,,,,,,,,,,,,,,,,,,,,,,,,,,,,,,,,,,,,,,,,,127.0,127.0,200.0,125.0,125.0,200.0,2.1,2.12,-222,-278,0,-262,258,269,68.38369512557983,68.38374185562134,68.38580465316772,68.39750742912292,68.54387140274048,68.54387140274048,68.54387140274048,68.54387140274048,68.54387140274048,68.54387140274048,68.54387140274048,71.75557374954224,3,3.342512369155884,None,,,,,,,,,,,,,,,,,,38,3,2025-02-19_11h55.10.598,comp,2024.2.4,60.07860932540364,2025-02-19 11h55.20.475069 -0500,
1,1,0,critical,hwd,20.0,1.0,lower,133.0,57.0,57.0,133.0,78.0,78.0,1,24.61006474494934,None,,,,,0,0,0,0,0,1,1,102,71.77057027816772,,,,,,,,,,,,,,,,,,,,,,,,,,,,,,,,,,,,,,,,,,,,,,,,,,,,,,,,,,,,,,,,,,,,,,,,,,,,,,,,,133.0,57.0,57.0,133.0,78.0,78.0,1.0,1.2,-191,-12,0,14,202,-19,71.75635051727295,71.75639176368713,71.75897526741028,71.77057027816772,71.92056012153625,71.92056012153625,71.92056012153625,71.92056012153625,71.92056012153625,71.92056012153625,71.92056012153625,96.38818836212158,1,24.61006474494934,None,,,,,,,,,,,,,,,,,,38,3,2025-02-19_11h55.10.598,comp,2024.2.4,60.07860932540364,2025-02-19 11h55.20.475069 -0500,
2,2,0,filler_random,None,None,None,None,None,None,None,None,None,None,2,1.1446833610534668,None,,,,,0,0,0,0,0,2,2,161,96.40388631820679,,,,,,,,,,,,,,,,,,,,,,,,,,,,,,,,,,,,,,,,,,,,,,,,,,,,,,,,,,,,,,,,,,,,,,,,,,,,,,,,,104.41389782127045,58.83254053048751,190.55563271690752,134.74071765679125,142.29359228386878,120.60964570102863,1.0,1.3,287,-290,480,-273,704,-284,96.3891110420227,96.38915157318115,96.3917145729065,96.40388631820679,96.55389475822449,96.55389475822449,96.55389475822449,96.55389475822449,96.55389475822449,96.55389475822449,96.55389475822449,97.55495357513428,2,1.1446833610534668,None,,,,,,,,,,,,,,,,,,38,3,2025-02-19_11h55.10.598,comp,2024.2.4,60.07860932540364,2025-02-19 11h55.20.475069 -0500,
3,3,0,filler_random,None,None,None,None,None,None,None,None,None,None,2,1.1851789951324463,None,,,,,0,0,0,0,0,3,3,164,97.57068037986755,,,,,,,,,,,,,,,,,,,,,,,,,,,,,,,,,,,,,,,,,,,,,,,,,,,,,,,,,,,,,,,,,,,,,,,,,,,,,,,,,73.18649703202883,106.30706584770198,161.16270862883619,157.20852407284235,94.4724730435986,108.52211908893332,4.0,4.1,-228,-271,0,-5,229,-282,97.55588889122009,97.5559298992157,97.55843114852905,97.57068037986755,97.7205581665039,97.7205581665039,97.7205581665039,97.7205581665039,97.7205581665039,97.7205581665039,97.7205581665039,98.77151608467102,2,1.1851789951324463,None,,,,,,,,,,,,,,,,,,38,3,2025-02-19_11h55.10.598,comp,2024.2.4,60.07860932540364,2025-02-19 11h55.20.475069 -0500,
4,4,0,critical,dwh,20.0,1.0,lower,78.0,78.0,57.0,133.0,133.0,57.0,1,4.584791421890259,None,,,,,0,0,0,0,0,4,4,66,98.78692936897278,,,,,,,,,,,,,,,,,,,,,,,,,,,,,,,,,,,,,,,,,,,,,,,,,,,,,,,,,,,,,,,,,,,,,,,,,,,,,,,,,78.0,78.0,57.0,133.0,133.0,57.0,1.0,1.3,278,-280,480,-257,671,-267,98.77231740951538,98.77235889434814,98.77477407455444,98.78692936897278,98.93712162971497,98.93712162971497,98.93712162971497,98.93712162971497,98.93712162971497,98.93712162971497,98.93712162971497,103.38808631896973,1,4.584791421890259,None,,,,,,,,,,,,,,,,,,38,3,2025-02-19_11h55.10.598,comp,2024.2.4,60.07860932540364,2025-02-19 11h55.20.475069 -0500,
5,5,0,critical,hdw,20.0,1.0,lower,133.0,57.0,78.0,78.0,57.0,133.0,1,7.320223093032837,None,,,,,0,0,0,0,0,5,5,114,103.40353894233704,,,,,,,,,,,,,,,,,,,,,,,,,,,,,,,,,,,,,,,,,,,,,,,,,,,,,,,,,,,,,,,,,,,,,,,,,,,,,,,,,133.0,57.0,78.0,78.0,57.0,133.0,1.0,1.1,-644,273,-480,282,-278,270,103.38891220092773,103.38895344734192,103.39165377616882,103.40353894233704,103.55408883094788,103.55408883094788,103.55408883094788,103.55408883094788,103.55408883094788,103.55408883094788,103.55408883094788,110.7381043434143,1,7.320223093032837,None,,,,,,,,,,,,,,,,,,38,3,2025-02-19_11h55.10.598,comp,2024.2.4,60.07860932540364,2025-02-19 11h55.20.475069 -0500,
6,6,0,critical,dwh,20.0,2.1,lower,78.0,78.0,57.0,133.0,133.0,57.0,2,3.7636120319366455,None,,,,,0,0,0,0,0,6,6,30,110.75357556343079,,,,,,,,,,,,,,,,,,,,,,,,,,,,,,,,,,,,,,,,,,,,,,,,,,,,,,,,,,,,,,,,,,,,,,,,,,,,,,,,,78.0,78.0,57.0,133.0,133.0,57.0,2.1,2.12,-202,-275,0,-290,191,266,110.73893570899963,110.73897743225098,110.74157452583313,110.75357556343079,110.90356731414795,110.90356731414795,110.90356731414795,110.90356731414795,110.90356731414795,110.90356731414795,110.90356731414795,114.52154564857483,2,3.7636120319366455,None,,,,,,,,,,,,,,,,,,38,3,2025-02-19_11h55.10.598,comp,2024.2.4,60.07860932540364,2025-02-19 11h55.20.475069 -0500,
7,7,0,critical,dhw,35.0,2.1,lower,70.0,70.0,133.0,57.0,57.0,133.0,3,11.30767297744751,None,,,,,0,0,0,0,0,7,7,0,114.53707528114319,,,,,,,,,,,,,,,,,,,,,,,,,,,,,,,,,,,,,,,,,,,,,,,,,,,,,,,,,,,,,,,,,,,,,,,,,,,,,,,,,70.0,70.0,133.0,57.0,57.0,133.0,2.1,2.11,-160,273,0,256,191,-267,114.52233219146729,114.52237391471863,114.52456951141357,114.53707528114319,114.68695497512817,114.68695497512817,114.68695497512817,114.68695497512817,114.68695497512817,114.68695497512817,114.68695497512817,125.85458660125732,3,11.30767297744751,None,,,,,,,,,,,,,,,,,,38,3,2025-02-19_11h55.10.598,comp,2024.2.4,60.07860932540364,2025-02-19 11h55.20.475069 -0500,
8,8,0,critical,whd,35.0,3.0,lower,57.0,133.0,133.0,57.0,70.0,70.0,2,2.366342067718506,None,,,,,0,0,0,0,0,8,8,86,125.8706443309784,,,,,,,,,,,,,,,,,,,,,,,,,,,,,,,,,,,,,,,,,,,,,,,,,,,,,,,,,,,,,,,,,,,,,,,,,,,,,,,,,57.0,133.0,133.0,57.0,70.0,70.0,3.0,3.2,-191,-287,0,12,160,254,125.85537576675415,125.85541653633118,125.85760068893433,125.8706443309784,126.02031922340393,126.02031922340393,126.02031922340393,126.02031922340393,126.02031922340393,126.02031922340393,126.02031922340393,128.25452303886414,2,2.366342067718506,None,,,,,,,,,,,,,,,,,,38,3,2025-02-19_11h55.10.598,comp,2024.2.4,60.07860932540364,2025-02-19 11h55.20.475069 -0500,
9,9,0,critical,whd,20.0,2.1,lower,57.0,133.0,133.0,57.0,78.0,78.0,1,5.2322022914886475,None,,,,,0,0,0,0,0,9,9,14,128.2700662612915,,,,,,,,,,,,,,,,,,,,,,,,,,,,,,,,,,,,,,,,,,,,,,,,,,,,,,,,,,,,,,,,,,,,,,,,,,,,,,,,,57.0,133.0,133.0,57.0,78.0,78.0,2.1,2.11,-191,281,0,255,164,-258,128.25529170036316,128.25533246994019,128.25766015052795,128.2700662612915,128.42019128799438,128.42019128799438,128.42019128799438,128.42019128799438,128.42019128799438,128.42019128799438,128.42019128799438,133.50475597381592,1,5.2322022914886475,None,,,,,,,,,,,,,,,,,,38,3,2025-02-19_11h55.10.598,comp,2024.2.4,60.07860932540364,2025-02-19 11h55.20.475069 -0500,
10,10,0,critical,dhw,35.0,4.0,upper,127.0,127.0,200.0,125.0,125.0,200.0,3,5.397168397903442,None,,,,,0,0,0,0,0,10,10,53,133.52029705047607,,,,,,,,,,,,,,,,,,,,,,,,,,,,,,,,,,,,,,,,,,,,,,,,,,,,,,,,,,,,,,,,,,,,,,,,,,,,,,,,,127.0,127.0,200.0,125.0,125.0,200.0,4.0,4.1,-222,-282,0,0,258,-259,133.50556325912476,133.5056028366089,133.50779938697815,133.52029705047607,133.6703794002533,133.6703794002533,133.6703794002533,133.6703794002533,133.6703794002533,133.6703794002533,133.6703794002533,138.92168307304382,3,5.397168397903442,None,,,,,,,,,,,,,,,,,,38,3,2025-02-19_11h55.10.598,comp,2024.2.4,60.07860932540364,2025-02-19 11h55.20.475069 -0500,
11,11,0,critical,hwd,20.0,2.1,lower,133.0,57.0,57.0,133.0,78.0,78.0,1,3.7002780437469482,None,,,,,0,0,0,0,0,11,11,42,138.936913728714,,,,,,,,,,,,,,,,,,,,,,,,,,,,,,,,,,,,,,,,,,,,,,,,,,,,,,,,,,,,,,,,,,,,,,,,,,,,,,,,,133.0,57.0,57.0,133.0,78.0,78.0,2.1,2.11,-191,258,0,276,202,-276,138.92247319221497,138.92251420021057,138.92466926574707,138.936913728714,139.08715510368347,139.08715510368347,139.08715510368347,139.08715510368347,139.08715510368347,139.08715510368347,139.08715510368347,142.63823747634888,1,3.7002780437469482,None,,,,,,,,,,,,,,,,,,38,3,2025-02-19_11h55.10.598,comp,2024.2.4,60.07860932540364,2025-02-19 11h55.20.475069 -0500,
12,12,0,critical,dhw,35.0,3.0,lower,70.0,70.0,133.0,57.0,57.0,133.0,3,5.005688905715942,None,,,,,0,0,0,0,0,12,12,50,142.6536147594452,,,,,,,,,,,,,,,,,,,,,,,,,,,,,,,,,,,,,,,,,,,,,,,,,,,,,,,,,,,,,,,,,,,,,,,,,,,,,,,,,70.0,70.0,133.0,57.0,57.0,133.0,3.0,3.1,-160,278,0,7,191,-284,142.63899540901184,142.6390347480774,142.6415364742279,142.6536147594452,142.80351066589355,142.80351066589355,142.80351066589355,142.80351066589355,142.80351066589355,142.80351066589355,142.80351066589355,147.6715760231018,3,5.005688905715942,None,,,,,,,,,,,,,,,,,,38,3,2025-02-19_11h55.10.598,comp,2024.2.4,60.07860932540364,2025-02-19 11h55.20.475069 -0500,
13,13,0,critical,wdh,20.0,4.0,lower,57.0,133.0,78.0,78.0,133.0,57.0,1,4.309731960296631,None,,,,,0,0,0,0,0,13,13,82,147.68663024902344,,,,,,,,,,,,,,,,,,,,,,,,,,,,,,,,,,,,,,,,,,,,,,,,,,,,,,,,,,,,,,,,,,,,,,,,,,,,,,,,,57.0,133.0,78.0,78.0,133.0,57.0,4.0,4.1,-202,-250,0,-20,164,-290,147.67237782478333,147.67241954803467,147.67483377456665,147.68663024902344,147.8369951248169,147.8369951248169,147.8369951248169,147.8369951248169,147.8369951248169,147.8369951248169,147.8369951248169,152.00450158119202,1,4.309731960296631,None,,,,,,,,,,,,,,,,,,38,3,2025-02-19_11h55.10.598,comp,2024.2.4,60.07860932540364,2025-02-19 11h55.20.475069 -0500,
14,14,0,filler_random,None,None,None,None,None,None,None,None,None,None,3,7.255144119262695,None,,,,,0,0,0,0,0,14,14,137,152.020094871521,,,,,,,,,,,,,,,,,,,,,,,,,,,,,,,,,,,,,,,,,,,,,,,,,,,,,,,,,,,,,,,,,,,,,,,,,,,,,,,,,139.3328362771661,173.63071162766153,193.65939195522577,138.81963099059217,176.55361766991294,160.96517829381304,1.0,1.2,-252,-20,0,-10,246,7,152.00537300109863,152.0054144859314,152.00781726837158,152.020094871521,152.17064476013184,152.17064476013184,152.17064476013184,152.17064476013184,152.17064476013184,152.17064476013184,152.17064476013184,159.28808665275574,3,7.255144119262695,None,,,,,,,,,,,,,,,,,,38,3,2025-02-19_11h55.10.598,comp,2024.2.4,60.07860932540364,2025-02-19 11h55.20.475069 -0500,
15,15,0,filler_random,None,None,None,None,None,None,None,None,None,None,2,2.187910556793213,None,,,,,0,0,0,0,0,15,15,136,159.30337023735046,,,,,,,,,,,,,,,,,,,,,,,,,,,,,,,,,,,,,,,,,,,,,,,,,,,,,,,,,,,,,,,,,,,,,,,,,,,,,,,,,112.41364528707511,190.47901474970706,179.65915969344644,183.03876146405054,175.7290114131725,93.97232318011422,2.1,2.11,-283,266,0,288,235,-268,159.28902888298035,159.28907132148743,159.29165768623352,159.30337023735046,159.4536008834839,159.4536008834839,159.4536008834839,159.4536008834839,159.4536008834839,159.4536008834839,159.4536008834839,161.50463008880615,2,2.187910556793213,None,,,,,,,,,,,,,,,,,,38,3,2025-02-19_11h55.10.598,comp,2024.2.4,60.07860932540364,2025-02-19 11h55.20.475069 -0500,
16,16,0,critical,hwd,20.0,2.1,upper,200.0,125.0,125.0,200.0,141.0,141.0,1,2.4676566123962402,None,,,,,0,0,0,0,0,16,16,43,161.51984214782715,,,,,,,,,,,,,,,,,,,,,,,,,,,,,,,,,,,,,,,,,,,,,,,,,,,,,,,,,,,,,,,,,,,,,,,,,,,,,,,,,200.0,125.0,125.0,200.0,141.0,141.0,2.1,2.12,-258,-282,0,-289,266,288,161.50542211532593,161.5054783821106,161.50787019729614,161.51984214782715,161.6702699661255,161.6702699661255,161.6702699661255,161.6702699661255,161.6702699661255,161.6702699661255,161.6702699661255,164.00489473342896,1,2.4676566123962402,None,,,,,,,,,,,,,,,,,,38,3,2025-02-19_11h55.10.598,comp,2024.2.4,60.07860932540364,2025-02-19 11h55.20.475069 -0500,
17,17,0,critical,hdw,20.0,2.1,lower,133.0,57.0,78.0,78.0,57.0,133.0,1,7.976211786270142,None,,,,,0,0,0,0,0,17,17,46,164.01992535591125,,,,,,,,,,,,,,,,,,,,,,,,,,,,,,,,,,,,,,,,,,,,,,,,,,,,,,,,,,,,,,,,,,,,,,,,,,,,,,,,,133.0,57.0,78.0,78.0,57.0,133.0,2.1,2.11,-164,272,0,258,202,-286,164.00591492652893,164.00595664978027,164.00817561149597,164.01992535591125,164.16999554634094,164.16999554634094,164.16999554634094,164.16999554634094,164.16999554634094,164.16999554634094,164.16999554634094,172.00424599647522,1,7.976211786270142,None,,,,,,,,,,,,,,,,,,38,3,2025-02-19_11h55.10.598,comp,2024.2.4,60.07860932540364,2025-02-19 11h55.20.475069 -0500,
18,18,0,critical,dhw,35.0,1.0,upper,127.0,127.0,200.0,125.0,125.0,200.0,2,2.768080234527588,None,,,,,0,0,0,0,0,18,18,49,172.0199315547943,,,,,,,,,,,,,,,,,,,,,,,,,,,,,,,,,,,,,,,,,,,,,,,,,,,,,,,,,,,,,,,,,,,,,,,,,,,,,,,,,127.0,127.0,200.0,125.0,125.0,200.0,1.0,1.3,258,-254,480,-289,738,-264,172.00506043434143,172.00510263442993,172.00778603553772,172.0199315547943,172.17050576210022,172.17050576210022,172.17050576210022,172.17050576210022,172.17050576210022,172.17050576210022,172.17050576210022,174.80457186698914,2,2.768080234527588,None,,,,,,,,,,,,,,,,,,38,3,2025-02-19_11h55.10.598,comp,2024.2.4,60.07860932540364,2025-02-19 11h55.20.475069 -0500,
19,19,0,critical,wdh,20.0,2.1,upper,125.0,200.0,141.0,141.0,200.0,125.0,1,17.743875980377197,None,,,,,0,0,0,0,0,19,19,11,174.82008481025696,,,,,,,,,,,,,,,,,,,,,,,,,,,,,,,,,,,,,,,,,,,,,,,,,,,,,,,,,,,,,,,,,,,,,,,,,,,,,,,,,125.0,200.0,141.0,141.0,200.0,125.0,2.1,2.11,-266,255,0,256,229,-265,174.80548071861267,174.80552434921265,174.80886507034302,174.82008481025696,174.9700436592102,174.9700436592102,174.9700436592102,174.9700436592102,174.9700436592102,174.9700436592102,174.9700436592102,192.5712592601776,1,17.743875980377197,None,,,,,,,,,,,,,,,,,,38,3,2025-02-19_11h55.10.598,comp,2024.2.4,60.07860932540364,2025-02-19 11h55.20.475069 -0500,
20,20,0,critical,dwh,35.0,4.0,upper,127.0,127.0,125.0,200.0,200.0,125.0,2,4.78445839881897,None,,,,,0,0,0,0,0,20,20,65,192.5865671634674,,,,,,,,,,,,,,,,,,,,,,,,,,,,,,,,,,,,,,,,,,,,,,,,,,,,,,,,,,,,,,,,,,,,,,,,,,,,,,,,,127.0,127.0,125.0,200.0,200.0,125.0,4.0,4.1,-260,-279,0,3,258,-262,192.57207655906677,192.57211875915527,192.57479214668274,192.5865671634674,192.73679780960083,192.73679780960083,192.73679780960083,192.73679780960083,192.73679780960083,192.73679780960083,192.73679780960083,197.38775968551636,2,4.78445839881897,None,,,,,,,,,,,,,,,,,,38,3,2025-02-19_11h55.10.598,comp,2024.2.4,60.07860932540364,2025-02-19 11h55.20.475069 -0500,
21,21,0,critical,whd,20.0,2.1,lower,57.0,133.0,133.0,57.0,78.0,78.0,1,2.713890790939331,None,,,,,0,0,0,0,0,21,21,38,197.40301632881165,,,,,,,,,,,,,,,,,,,,,,,,,,,,,,,,,,,,,,,,,,,,,,,,,,,,,,,,,,,,,,,,,,,,,,,,,,,,,,,,,57.0,133.0,133.0,57.0,78.0,78.0,2.1,2.11,-191,251,0,257,164,-267,197.38856434822083,197.38860654830933,197.39107155799866,197.40301632881165,197.55295991897583,197.55295991897583,197.55295991897583,197.55295991897583,197.55295991897583,197.55295991897583,197.55295991897583,200.1210126876831,1,2.713890790939331,None,,,,,,,,,,,,,,,,,,38,3,2025-02-19_11h55.10.598,comp,2024.2.4,60.07860932540364,2025-02-19 11h55.20.475069 -0500,
22,22,0,critical,dwh,20.0,4.0,lower,78.0,78.0,57.0,133.0,133.0,57.0,2,11.307675838470459,None,,,,,0,0,0,0,0,22,22,70,200.13645315170288,,,,,,,,,,,,,,,,,,,,,,,,,,,,,,,,,,,,,,,,,,,,,,,,,,,,,,,,,,,,,,,,,,,,,,,,,,,,,,,,,78.0,78.0,57.0,133.0,133.0,57.0,4.0,4.1,-202,-268,0,-11,191,-288,200.1217978000641,200.1218376159668,200.12432670593262,200.13645315170288,200.28646564483643,200.28646564483643,200.28646564483643,200.28646564483643,200.28646564483643,200.28646564483643,200.28646564483643,211.45395970344543,2,11.307675838470459,None,,,,,,,,,,,,,,,,,,38,3,2025-02-19_11h55.10.598,comp,2024.2.4,60.07860932540364,2025-02-19 11h55.20.475069 -0500,
23,23,0,critical,hwd,20.0,4.0,upper,200.0,125.0,125.0,200.0,141.0,141.0,1,2.97446870803833,None,,,,,0,0,0,0,0,23,23,107,211.46971702575684,,,,,,,,,,,,,,,,,,,,,,,,,,,,,,,,,,,,,,,,,,,,,,,,,,,,,,,,,,,,,,,,,,,,,,,,,,,,,,,,,200.0,125.0,125.0,200.0,141.0,141.0,4.0,4.2,-258,19,0,-273,266,-19,211.4547312259674,211.45477080345154,211.45721912384033,211.46971702575684,211.61980485916138,211.61980485916138,211.61980485916138,211.61980485916138,211.61980485916138,211.61980485916138,211.61980485916138,214.45436191558838,1,2.97446870803833,None,,,,,,,,,,,,,,,,,,38,3,2025-02-19_11h55.10.598,comp,2024.2.4,60.07860932540364,2025-02-19 11h55.20.475069 -0500,
24,24,0,filler_square,None,None,None,None,None,None,None,None,None,None,1,1.7333405017852783,None,,,,,0,0,0,0,0,24,24,179,214.46992778778076,,,,,,,,,,,,,,,,,,,,,,,,,,,,,,,,,,,,,,,,,,,,,,,,,,,,,,,,,,,,,,,,,,,,,,,,,,,,,,,,,99.19291212401154,99.19291212401154,74.70506250024206,60.86004584112494,57.17406488701726,85.97958134362428,2.1,2.12,-176,-281,0,-267,169,268,214.4553587436676,214.45540070533752,214.45793223381042,214.46992778778076,214.61973023414612,214.61973023414612,214.61973023414612,214.61973023414612,214.61973023414612,214.61973023414612,214.61973023414612,216.22062635421753,1,1.7333405017852783,None,,,,,,,,,,,,,,,,,,38,3,2025-02-19_11h55.10.598,comp,2024.2.4,60.07860932540364,2025-02-19 11h55.20.475069 -0500,
25,25,0,filler_random,None,None,None,None,None,None,None,None,None,None,3,1.7508058547973633,None,,,,,0,0,0,0,0,25,25,151,216.2361032962799,,,,,,,,,,,,,,,,,,,,,,,,,,,,,,,,,,,,,,,,,,,,,,,,,,,,,,,,,,,,,,,,,,,,,,,,,,,,,,,,,78.99956459549942,93.35081022276071,157.23249556428928,73.13720799371865,93.58973854018262,166.32185252549232,2.1,2.12,-179,-253,0,-258,216,265,216.2215611934662,216.2216033935547,216.22380018234253,216.2361032962799,216.38635563850403,216.38635563850403,216.38635563850403,216.38635563850403,216.38635563850403,216.38635563850403,216.38635563850403,218.00393152236938,3,1.7508058547973633,None,,,,,,,,,,,,,,,,,,38,3,2025-02-19_11h55.10.598,comp,2024.2.4,60.07860932540364,2025-02-19 11h55.20.475069 -0500,
26,26,0,filler_square,None,None,None,None,None,None,None,None,None,None,1,1.7196927070617676,None,,,,,0,0,0,0,0,26,26,184,218.01951599121094,,,,,,,,,,,,,,,,,,,,,,,,,,,,,,,,,,,,,,,,,,,,,,,,,,,,,,,,,,,,,,,,,,,,,,,,,,,,,,,,,108.32407819401857,108.32407819401857,80.2346077816863,68.50969733641047,106.8669769400854,73.07514831288329,4.0,4.2,-184,-6,0,-272,167,-5,218.0049924850464,218.00503277778625,218.00761604309082,218.01951599121094,218.1696047782898,218.1696047782898,218.1696047782898,218.1696047782898,218.1696047782898,218.1696047782898,218.1696047782898,219.75403213500977,1,1.7196927070617676,None,,,,,,,,,,,,,,,,,,38,3,2025-02-19_11h55.10.598,comp,2024.2.4,60.07860932540364,2025-02-19 11h55.20.475069 -0500,
27,27,0,critical,dwh,35.0,2.1,upper,127.0,127.0,125.0,200.0,200.0,125.0,3,2.8837480545043945,None,,,,,0,0,0,0,0,27,27,29,219.76947903633118,,,,,,,,,,,,,,,,,,,,,,,,,,,,,,,,,,,,,,,,,,,,,,,,,,,,,,,,,,,,,,,,,,,,,,,,,,,,,,,,,127.0,127.0,125.0,200.0,200.0,125.0,2.1,2.11,-260,282,0,288,258,-260,219.75482511520386,219.75486779212952,219.75732231140137,219.76947903633118,219.91973423957825,219.91973423957825,219.91973423957825,219.91973423957825,219.91973423957825,219.91973423957825,219.91973423957825,222.6547646522522,3,2.8837480545043945,None,,,,,,,,,,,,,,,,,,38,3,2025-02-19_11h55.10.598,comp,2024.2.4,60.07860932540364,2025-02-19 11h55.20.475069 -0500,
28,28,0,filler_random,None,None,None,None,None,None,None,None,None,None,1,1.3012678623199463,None,,,,,0,0,0,0,0,28,28,140,222.66970682144165,,,,,,,,,,,,,,,,,,,,,,,,,,,,,,,,,,,,,,,,,,,,,,,,,,,,,,,,,,,,,,,,,,,,,,,,,,,,,,,,,195.38916407649407,199.97166207880048,76.83735577943028,108.6839135886566,141.4416310224671,66.19337686147657,2.2,2.21,-250,-290,0,253,183,286,222.6557755470276,222.655832529068,222.65844297409058,222.66970682144165,222.81985688209534,222.81985688209534,222.81985688209534,222.81985688209534,222.81985688209534,222.81985688209534,222.81985688209534,223.98741722106934,1,1.3012678623199463,None,,,,,,,,,,,,,,,,,,38,3,2025-02-19_11h55.10.598,comp,2024.2.4,60.07860932540364,2025-02-19 11h55.20.475069 -0500,
29,29,0,catch,None,None,None,None,None,None,None,None,None,None,1,0.8336951732635498,None,,,,,0,0,0,0,0,29,29,120,224.00286865234375,,,,,,,,,,,,,,,,,,,,,,,,,,,,,,,,,,,,,,,,,,,,,,,,,,,,,,,,,,,,,,,,,,,,,,,,,,,,,,,,,163,162,110,80,100,90,1.0,1.1,-697,276,-480,283,-299,277,223.98848485946655,223.98852634429932,223.9906907081604,224.00286865234375,224.15292763710022,224.15292763710022,224.15292763710022,224.15292763710022,224.15292763710022,224.15292763710022,224.15292763710022,224.85408186912537,1,0.8336951732635498,None,,,,,,,,,,,,,,,,,,38,3,2025-02-19_11h55.10.598,comp,2024.2.4,60.07860932540364,2025-02-19 11h55.20.475069 -0500,
30,30,0,filler_random,None,None,None,None,None,None,None,None,None,None,3,1.142242431640625,None,,,,,0,0,0,0,0,30,30,166,224.86948537826538,,,,,,,,,,,,,,,,,,,,,,,,,,,,,,,,,,,,,,,,,,,,,,,,,,,,,,,,,,,,,,,,,,,,,,,,,,,,,,,,,129.26138583384977,127.30457925980926,129.67229520399735,85.93602862630766,149.07076311806733,138.81849107674998,3.0,3.2,-203,-255,0,-5,208,287,224.85502433776855,224.85506558418274,224.8575975894928,224.86948537826538,225.0198609828949,225.0198609828949,225.0198609828949,225.0198609828949,225.0198609828949,225.0198609828949,225.0198609828949,226.0207440853119,3,1.142242431640625,None,,,,,,,,,,,,,,,,,,38,3,2025-02-19_11h55.10.598,comp,2024.2.4,60.07860932540364,2025-02-19 11h55.20.475069 -0500,
31,31,0,critical,hdw,20.0,4.0,lower,133.0,57.0,78.0,78.0,57.0,133.0,3,2.0799293518066406,None,,,,,0,0,0,0,0,31,31,118,226.03636622428894,,,,,,,,,,,,,,,,,,,,,,,,,,,,,,,,,,,,,,,,,,,,,,,,,,,,,,,,,,,,,,,,,,,,,,,,,,,,,,,,,133.0,57.0,78.0,78.0,57.0,133.0,4.0,4.2,-164,-20,0,-264,202,0,226.02159690856934,226.02163982391357,226.0238971710205,226.03636622428894,226.18625283241272,226.18625283241272,226.18625283241272,226.18625283241272,226.18625283241272,226.18625283241272,226.18625283241272,228.1207754611969,3,2.0799293518066406,None,,,,,,,,,,,,,,,,,,38,3,2025-02-19_11h55.10.598,comp,2024.2.4,60.07860932540364,2025-02-19 11h55.20.475069 -0500,
32,32,0,critical,hwd,20.0,3.0,lower,133.0,57.0,57.0,133.0,78.0,78.0,1,2.0434069633483887,None,,,,,0,0,0,0,0,32,32,104,228.1362783908844,,,,,,,,,,,,,,,,,,,,,,,,,,,,,,,,,,,,,,,,,,,,,,,,,,,,,,,,,,,,,,,,,,,,,,,,,,,,,,,,,133.0,57.0,57.0,133.0,78.0,78.0,3.0,3.2,-191,-252,0,16,202,252,228.1215889453888,228.1216299533844,228.12409925460815,228.1362783908844,228.28649282455444,228.28649282455444,228.28649282455444,228.28649282455444,228.28649282455444,228.28649282455444,228.28649282455444,230.1872787475586,1,2.0434069633483887,None,,,,,,,,,,,,,,,,,,38,3,2025-02-19_11h55.10.598,comp,2024.2.4,60.07860932540364,2025-02-19 11h55.20.475069 -0500,
33,33,0,filler_random,None,None,None,None,None,None,None,None,None,None,3,1.1926414966583252,None,,,,,0,0,0,0,0,33,33,141,230.20299363136292,,,,,,,,,,,,,,,,,,,,,,,,,,,,,,,,,,,,,,,,,,,,,,,,,,,,,,,,,,,,,,,,,,,,,,,,,,,,,,,,,121.66431223578824,175.5719120877374,112.44440967244373,62.1345204609032,199.2507407976377,166.92541540215137,1.0,1.3,265,-276,480,-267,691,-262,230.18821239471436,230.18825435638428,230.19088172912598,230.20299363136292,230.3532693386078,230.3532693386078,230.3532693386078,230.3532693386078,230.3532693386078,230.3532693386078,230.3532693386078,231.40417957305908,3,1.1926414966583252,None,,,,,,,,,,,,,,,,,,38,3,2025-02-19_11h55.10.598,comp,2024.2.4,60.07860932540364,2025-02-19 11h55.20.475069 -0500,
34,34,0,critical,wdh,20.0,2.1,upper,125.0,200.0,141.0,141.0,200.0,125.0,1,6.408128023147583,None,,,,,0,0,0,0,0,34,34,35,231.4197235107422,,,,,,,,,,,,,,,,,,,,,,,,,,,,,,,,,,,,,,,,,,,,,,,,,,,,,,,,,,,,,,,,,,,,,,,,,,,,,,,,,125.0,200.0,141.0,141.0,200.0,125.0,2.1,2.11,-266,279,0,277,229,-250,231.404967546463,231.40500807762146,231.40754508972168,231.4197235107422,231.5697705745697,231.5697705745697,231.5697705745697,231.5697705745697,231.5697705745697,231.5697705745697,231.5697705745697,237.83763980865479,1,6.408128023147583,None,,,,,,,,,,,,,,,,,,38,3,2025-02-19_11h55.10.598,comp,2024.2.4,60.07860932540364,2025-02-19 11h55.20.475069 -0500,
35,35,0,filler_random,None,None,None,None,None,None,None,None,None,None,3,1.4946601390838623,None,,,,,0,0,0,0,0,35,35,133,237.85295844078064,,,,,,,,,,,,,,,,,,,,,,,,,,,,,,,,,,,,,,,,,,,,,,,,,,,,,,,,,,,,,,,,,,,,,,,,,,,,,,,,,179.73926487960176,70.38555253463967,108.84117509433867,162.22424007034618,164.71128454811526,151.53812005161063,2.1,2.12,-212,-287,0,-261,253,256,237.83857107162476,237.83861374855042,237.84069776535034,237.85295844078064,238.003103017807,238.003103017807,238.003103017807,238.003103017807,238.003103017807,238.003103017807,238.003103017807,239.35403752326965,3,1.4946601390838623,None,,,,,,,,,,,,,,,,,,38,3,2025-02-19_11h55.10.598,comp,2024.2.4,60.07860932540364,2025-02-19 11h55.20.475069 -0500,
36,36,0,filler_square,None,None,None,None,None,None,None,None,None,None,1,1.4835658073425293,None,,,,,0,0,0,0,0,36,36,187,239.36959314346313,,,,,,,,,,,,,,,,,,,,,,,,,,,,,,,,,,,,,,,,,,,,,,,,,,,,,,,,,,,,,,,,,,,,,,,,,,,,,,,,,198.3487287541631,198.3487287541631,94.81649881038388,183.58527570047647,100.06598414672212,94.03617773572307,2.1,2.12,-287,-290,0,-289,235,259,239.35503697395325,239.355078458786,239.35769271850586,239.36959314346313,239.51963996887207,239.51963996887207,239.51963996887207,239.51963996887207,239.51963996887207,239.51963996887207,239.51963996887207,240.87072324752808,1,1.4835658073425293,None,,,,,,,,,,,,,,,,,,38,3,2025-02-19_11h55.10.598,comp,2024.2.4,60.07860932540364,2025-02-19 11h55.20.475069 -0500,
37,37,0,filler_random,None,None,None,None,None,None,None,None,None,None,2,2.0615713596343994,None,,,,,0,0,0,0,0,37,37,160,240.8860366344452,,,,,,,,,,,,,,,,,,,,,,,,,,,,,,,,,,,,,,,,,,,,,,,,,,,,,,,,,,,,,,,,,,,,,,,,,,,,,,,,,60.41747014757526,66.30604466233845,175.81524219261314,113.08292162331537,116.1743610377216,101.03022622449812,4.0,4.2,-186,9,0,-273,203,0,240.87163662910461,240.87167811393738,240.87413334846497,240.8860366344452,241.0362422466278,241.0362422466278,241.0362422466278,241.0362422466278,241.0362422466278,241.0362422466278,241.0362422466278,242.95397448539734,2,2.0615713596343994,None,,,,,,,,,,,,,,,,,,38,3,2025-02-19_11h55.10.598,comp,2024.2.4,60.07860932540364,2025-02-19 11h55.20.475069 -0500,
38,38,0,critical,hwd,20.0,2.1,upper,200.0,125.0,125.0,200.0,141.0,141.0,2,17.369194746017456,None,,,,,0,0,0,0,0,38,38,19,242.9696009159088,,,,,,,,,,,,,,,,,,,,,,,,,,,,,,,,,,,,,,,,,,,,,,,,,,,,,,,,,,,,,,,,,,,,,,,,,,,,,,,,,200.0,125.0,125.0,200.0,141.0,141.0,2.1,2.12,-258,-261,0,-288,266,257,242.95477890968323,242.9548192024231,242.95766472816467,242.9696009159088,243.1201856136322,243.1201856136322,243.1201856136322,243.1201856136322,243.1201856136322,243.1201856136322,243.1201856136322,260.35415744781494,2,17.369194746017456,None,,,,,,,,,,,,,,,,,,38,3,2025-02-19_11h55.10.598,comp,2024.2.4,60.07860932540364,2025-02-19 11h55.20.475069 -0500,
39,39,0,critical,whd,35.0,1.0,lower,57.0,133.0,133.0,57.0,70.0,70.0,1,2.0668957233428955,None,,,,,0,0,0,0,0,39,39,84,260.3692388534546,,,,,,,,,,,,,,,,,,,,,,,,,,,,,,,,,,,,,,,,,,,,,,,,,,,,,,,,,,,,,,,,,,,,,,,,,,,,,,,,,57.0,133.0,133.0,57.0,70.0,70.0,1.0,1.2,-191,-8,0,-8,160,9,260.3549346923828,260.3549737930298,260.3571436405182,260.3692388534546,260.51936292648315,260.51936292648315,260.51936292648315,260.51936292648315,260.51936292648315,260.51936292648315,260.51936292648315,262.45379066467285,1,2.0668957233428955,None,,,,,,,,,,,,,,,,,,38,3,2025-02-19_11h55.10.598,comp,2024.2.4,60.07860932540364,2025-02-19 11h55.20.475069 -0500,
40,40,0,filler_random,None,None,None,None,None,None,None,None,None,None,1,0.9264626502990723,None,,,,,0,0,0,0,0,40,40,158,262.4692075252533,,,,,,,,,,,,,,,,,,,,,,,,,,,,,,,,,,,,,,,,,,,,,,,,,,,,,,,,,,,,,,,,,,,,,,,,,,,,,,,,,154.87702969295816,188.21078792883935,87.18999012884748,80.74734449868052,58.5610636235089,146.53190565762492,2.1,2.11,-230,284,0,278,210,-265,262.45468854904175,262.4547293186188,262.457222700119,262.4692075252533,262.6193826198578,262.6193826198578,262.6193826198578,262.6193826198578,262.6193826198578,262.6193826198578,262.6193826198578,263.4038918018341,1,0.9264626502990723,None,,,,,,,,,,,,,,,,,,38,3,2025-02-19_11h55.10.598,comp,2024.2.4,60.07860932540364,2025-02-19 11h55.20.475069 -0500,
41,41,0,critical,dwh,20.0,2.1,lower,78.0,78.0,57.0,133.0,133.0,57.0,1,5.527844429016113,None,,,,,0,0,0,0,0,41,41,6,263.41960191726685,,,,,,,,,,,,,,,,,,,,,,,,,,,,,,,,,,,,,,,,,,,,,,,,,,,,,,,,,,,,,,,,,,,,,,,,,,,,,,,,,78.0,78.0,57.0,133.0,133.0,57.0,2.1,2.12,-202,-259,0,-285,191,279,263.4046995639801,263.4047417640686,263.40730023384094,263.41960191726685,263.5695261955261,263.5695261955261,263.5695261955261,263.5695261955261,263.5695261955261,263.5695261955261,263.5695261955261,268.95370221138,1,5.527844429016113,None,,,,,,,,,,,,,,,,,,38,3,2025-02-19_11h55.10.598,comp,2024.2.4,60.07860932540364,2025-02-19 11h55.20.475069 -0500,
42,42,0,critical,hdw,20.0,3.0,lower,133.0,57.0,78.0,78.0,57.0,133.0,2,1.7051174640655518,None,,,,,0,0,0,0,0,42,42,116,268.96934700012207,,,,,,,,,,,,,,,,,,,,,,,,,,,,,,,,,,,,,,,,,,,,,,,,,,,,,,,,,,,,,,,,,,,,,,,,,,,,,,,,,133.0,57.0,78.0,78.0,57.0,133.0,3.0,3.2,-164,-273,0,16,202,273,268.9544630050659,268.9545056819916,268.9568724632263,268.96934700012207,269.11927795410156,269.11927795410156,269.11927795410156,269.11927795410156,269.11927795410156,269.11927795410156,269.11927795410156,270.68691849708557,2,1.7051174640655518,None,,,,,,,,,,,,,,,,,,38,3,2025-02-19_11h55.10.598,comp,2024.2.4,60.07860932540364,2025-02-19 11h55.20.475069 -0500,
43,43,0,filler_square,None,None,None,None,None,None,None,None,None,None,3,1.1175954341888428,None,,,,,0,0,0,0,0,43,43,205,270.70249485969543,,,,,,,,,,,,,,,,,,,,,,,,,,,,,,,,,,,,,,,,,,,,,,,,,,,,,,,,,,,,,,,,,,,,,,,,,,,,,,,,,141.08587704269948,89.81458076196483,142.80566038097015,73.08756518211067,174.95981478676043,174.95981478676043,4.0,4.2,-177,7,0,-268,220,8,270.6879963874817,270.6880371570587,270.6906065940857,270.70249485969543,270.85269045829773,270.85269045829773,270.85269045829773,270.85269045829773,270.85269045829773,270.85269045829773,270.85269045829773,271.8372118473053,3,1.1175954341888428,None,,,,,,,,,,,,,,,,,,38,3,2025-02-19_11h55.10.598,comp,2024.2.4,60.07860932540364,2025-02-19 11h55.20.475069 -0500,
44,44,0,critical,wdh,20.0,3.0,upper,125.0,200.0,141.0,141.0,200.0,125.0,3,1.8004612922668457,None,,,,,0,0,0,0,0,44,44,81,271.85249423980713,,,,,,,,,,,,,,,,,,,,,,,,,,,,,,,,,,,,,,,,,,,,,,,,,,,,,,,,,,,,,,,,,,,,,,,,,,,,,,,,,125.0,200.0,141.0,141.0,200.0,125.0,3.0,3.1,-266,277,0,9,229,-280,271.83799505233765,271.83803606033325,271.8405783176422,271.85249423980713,272.0028052330017,272.0028052330017,272.0028052330017,272.0028052330017,272.0028052330017,272.0028052330017,272.0028052330017,273.67055773735046,3,1.8004612922668457,None,,,,,,,,,,,,,,,,,,38,3,2025-02-19_11h55.10.598,comp,2024.2.4,60.07860932540364,2025-02-19 11h55.20.475069 -0500,
45,45,0,filler_random,None,None,None,None,None,None,None,None,None,None,3,1.5419254302978516,None,,,,,0,0,0,0,0,45,45,157,273.6858308315277,,,,,,,,,,,,,,,,,,,,,,,,,,,,,,,,,,,,,,,,,,,,,,,,,,,,,,,,,,,,,,,,,,,,,,,,,,,,,,,,,134.35645108089335,133.91754888680185,146.12995620862603,153.09171495263791,117.59050695870738,177.36018240701736,2.1,2.11,-240,269,0,281,261,-269,273.6714677810669,273.67151141166687,273.67390418052673,273.6858308315277,273.836128950119,273.836128950119,273.836128950119,273.836128950119,273.836128950119,273.836128950119,273.836128950119,275.237099647522,3,1.5419254302978516,None,,,,,,,,,,,,,,,,,,38,3,2025-02-19_11h55.10.598,comp,2024.2.4,60.07860932540364,2025-02-19 11h55.20.475069 -0500,
46,46,0,catch,None,None,None,None,None,None,None,None,None,None,1,0.9429423809051514,None,,,,,0,0,0,0,0,46,46,129,275.25264596939087,,,,,,,,,,,,,,,,,,,,,,,,,,,,,,,,,,,,,,,,,,,,,,,,,,,,,,,,,,,,,,,,,,,,,,,,,,,,,,,,,176,149,112,78,86,104,2.1,2.12,-210,-285,0,-276,187,256,275.23813247680664,275.2381739616394,275.2407741546631,275.25264596939087,275.4026572704315,275.4026572704315,275.4026572704315,275.4026572704315,275.4026572704315,275.4026572704315,275.4026572704315,276.2037353515625,1,0.9429423809051514,None,,,,,,,,,,,,,,,,,,38,3,2025-02-19_11h55.10.598,comp,2024.2.4,60.07860932540364,2025-02-19 11h55.20.475069 -0500,
47,47,0,filler_square,None,None,None,None,None,None,None,None,None,None,1,0.7762744426727295,None,,,,,0,0,0,0,0,47,47,185,276.2193250656128,,,,,,,,,,,,,,,,,,,,,,,,,,,,,,,,,,,,,,,,,,,,,,,,,,,,,,,,,,,,,,,,,,,,,,,,,,,,,,,,,180.59550584139515,180.59550584139515,176.21135863095932,104.71211307475937,64.55053126367966,148.96039104357777,1.0,1.3,241,-289,480,-280,703,-276,276.2047097682953,276.20475339889526,276.2072253227234,276.2193250656128,276.36935687065125,276.36935687065125,276.36935687065125,276.36935687065125,276.36935687065125,276.36935687065125,276.36935687065125,277.0038182735443,1,0.7762744426727295,None,,,,,,,,,,,,,,,,,,38,3,2025-02-19_11h55.10.598,comp,2024.2.4,60.07860932540364,2025-02-19 11h55.20.475069 -0500,
48,48,0,filler_random,None,None,None,None,None,None,None,None,None,None,1,1.0245780944824219,None,,,,,0,0,0,0,0,48,48,162,277.0192975997925,,,,,,,,,,,,,,,,,,,,,,,,,,,,,,,,,,,,,,,,,,,,,,,,,,,,,,,,,,,,,,,,,,,,,,,,,,,,,,,,,115.76438618572253,170.0210309079185,143.41772844906447,69.04329589472223,84.41593229127432,77.00125213009235,2.1,2.12,-216,-254,0,-272,169,263,277.00475001335144,277.00479388237,277.00727462768555,277.0192975997925,277.16927123069763,277.16927123069763,277.16927123069763,277.16927123069763,277.16927123069763,277.16927123069763,277.16927123069763,278.0537123680115,1,1.0245780944824219,None,,,,,,,,,,,,,,,,,,38,3,2025-02-19_11h55.10.598,comp,2024.2.4,60.07860932540364,2025-02-19 11h55.20.475069 -0500,
49,49,0,filler_random,None,None,None,None,None,None,None,None,None,None,3,1.6317949295043945,None,,,,,0,0,0,0,0,49,49,130,278.06946063041687,,,,,,,,,,,,,,,,,,,,,,,,,,,,,,,,,,,,,,,,,,,,,,,,,,,,,,,,,,,,,,,,,,,,,,,,,,,,,,,,,77.35999087260765,75.14367088508936,58.17734637845875,133.9699508560297,118.08797875975665,77.0723745801531,4.0,4.1,-201,-282,0,0,202,-269,278.05461525917053,278.05465722084045,278.0568084716797,278.06946063041687,278.21918082237244,278.21918082237244,278.21918082237244,278.21918082237244,278.21918082237244,278.21918082237244,278.21918082237244,279.70369839668274,3,1.6317949295043945,None,,,,,,,,,,,,,,,,,,38,3,2025-02-19_11h55.10.598,comp,2024.2.4,60.07860932540364,2025-02-19 11h55.20.475069 -0500,
50,50,0,filler_random,None,None,None,None,None,None,None,None,None,None,3,1.1551001071929932,None,,,,,0,0,0,0,0,50,50,144,279.71929025650024,,,,,,,,,,,,,,,,,,,,,,,,,,,,,,,,,,,,,,,,,,,,,,,,,,,,,,,,,,,,,,,,,,,,,,,,,,,,,,,,,166.93204890810756,64.32070170853726,103.58070796207451,120.85011835427512,143.6667429932506,154.76288218326198,2.2,2.22,-189,251,0,-266,234,-268,279.70463466644287,279.70467710494995,279.70711851119995,279.71929025650024,279.8693287372589,279.8693287372589,279.8693287372589,279.8693287372589,279.8693287372589,279.8693287372589,279.8693287372589,280.8870494365692,3,1.1551001071929932,None,,,,,,,,,,,,,,,,,,38,3,2025-02-19_11h55.10.598,comp,2024.2.4,60.07860932540364,2025-02-19 11h55.20.475069 -0500,
51,51,0,critical,hdw,35.0,2.1,lower,133.0,57.0,70.0,70.0,57.0,133.0,3,1.7088775634765625,None,,,,,0,0,0,0,0,51,51,20,280.902391910553,,,,,,,,,,,,,,,,,,,,,,,,,,,,,,,,,,,,,,,,,,,,,,,,,,,,,,,,,,,,,,,,,,,,,,,,,,,,,,,,,133.0,57.0,70.0,70.0,57.0,133.0,2.1,2.11,-160,260,0,271,198,-271,280.8878347873688,280.88787603378296,280.8904640674591,280.902391910553,281.05262565612793,281.05262565612793,281.05262565612793,281.05262565612793,281.05262565612793,281.05262565612793,281.05262565612793,282.6202509403229,3,1.7088775634765625,None,,,,,,,,,,,,,,,,,,38,3,2025-02-19_11h55.10.598,comp,2024.2.4,60.07860932540364,2025-02-19 11h55.20.475069 -0500,
52,52,0,filler_square,None,None,None,None,None,None,None,None,None,None,3,5.632847785949707,None,,,,,0,0,0,0,0,52,52,207,282.63603353500366,,,,,,,,,,,,,,,,,,,,,,,,,,,,,,,,,,,,,,,,,,,,,,,,,,,,,,,,,,,,,,,,,,,,,,,,,,,,,,,,,57.6127855100082,58.49976708365591,59.39513526604269,59.39513526604269,58.83644781069658,57.5937766106759,2.1,2.12,-155,-289,0,-271,154,260,282.6211953163147,282.62123680114746,282.62336897850037,282.63603353500366,282.7857041358948,282.7857041358948,282.7857041358948,282.7857041358948,282.7857041358948,282.7857041358948,282.7857041358948,288.2705030441284,3,5.632847785949707,None,,,,,,,,,,,,,,,,,,38,3,2025-02-19_11h55.10.598,comp,2024.2.4,60.07860932540364,2025-02-19 11h55.20.475069 -0500,
53,53,0,critical,dhw,20.0,2.1,upper,141.0,141.0,200.0,125.0,125.0,200.0,3,3.037216901779175,None,,,,,0,0,0,0,0,53,53,3,288.2859625816345,,,,,,,,,,,,,,,,,,,,,,,,,,,,,,,,,,,,,,,,,,,,,,,,,,,,,,,,,,,,,,,,,,,,,,,,,,,,,,,,,141.0,141.0,200.0,125.0,125.0,200.0,2.1,2.11,-229,268,0,254,258,-285,288.2713167667389,288.2713589668274,288.27415108680725,288.2859625816345,288.4363718032837,288.4363718032837,288.4363718032837,288.4363718032837,288.4363718032837,288.4363718032837,288.4363718032837,291.3371903896332,3,3.037216901779175,None,,,,,,,,,,,,,,,,,,38,3,2025-02-19_11h55.10.598,comp,2024.2.4,60.07860932540364,2025-02-19 11h55.20.475069 -0500,
54,54,0,filler_square,None,None,None,None,None,None,None,None,None,None,1,2.71688175201416,None,,,,,0,0,0,0,0,54,54,178,291.3524386882782,,,,,,,,,,,,,,,,,,,,,,,,,,,,,,,,,,,,,,,,,,,,,,,,,,,,,,,,,,,,,,,,,,,,,,,,,,,,,,,,,167.26837904469463,167.26837904469463,140.77214586693168,155.2562499819886,147.21763851326293,140.55330051383316,4.0,4.1,-257,-264,0,2,244,-254,291.33812713623047,291.3381698131561,291.34074568748474,291.3524386882782,291.5027117729187,291.5027117729187,291.5027117729187,291.5027117729187,291.5027117729187,291.5027117729187,291.5027117729187,294.0871386528015,1,2.71688175201416,None,,,,,,,,,,,,,,,,,,38,3,2025-02-19_11h55.10.598,comp,2024.2.4,60.07860932540364,2025-02-19 11h55.20.475069 -0500,
55,55,0,filler_random,None,None,None,None,None,None,None,None,None,None,3,1.1664364337921143,None,,,,,0,0,0,0,0,55,55,139,294.1024351119995,,,,,,,,,,,,,,,,,,,,,,,,,,,,,,,,,,,,,,,,,,,,,,,,,,,,,,,,,,,,,,,,,,,,,,,,,,,,,,,,,107.19943190561041,85.51974297459654,129.28693999300071,69.7004088426315,170.8506475490567,115.89195853614187,4.0,4.1,-174,-276,0,12,189,-256,294.08805227279663,294.0880937576294,294.0906391143799,294.1024351119995,294.252788066864,294.252788066864,294.252788066864,294.252788066864,294.252788066864,294.252788066864,294.252788066864,295.27049708366394,3,1.1664364337921143,None,,,,,,,,,,,,,,,,,,38,3,2025-02-19_11h55.10.598,comp,2024.2.4,60.07860932540364,2025-02-19 11h55.20.475069 -0500,
56,56,0,critical,dhw,35.0,4.0,lower,70.0,70.0,133.0,57.0,57.0,133.0,3,3.9334964752197266,None,,,,,0,0,0,0,0,56,56,52,295.28583097457886,,,,,,,,,,,,,,,,,,,,,,,,,,,,,,,,,,,,,,,,,,,,,,,,,,,,,,,,,,,,,,,,,,,,,,,,,,,,,,,,,70.0,70.0,133.0,57.0,57.0,133.0,4.0,4.2,-160,-6,0,-257,191,0,295.27135252952576,295.27139353752136,295.27357006073,295.28583097457886,295.4357762336731,295.4357762336731,295.4357762336731,295.4357762336731,295.4357762336731,295.4357762336731,295.4357762336731,299.22041511535645,3,3.9334964752197266,None,,,,,,,,,,,,,,,,,,38,3,2025-02-19_11h55.10.598,comp,2024.2.4,60.07860932540364,2025-02-19 11h55.20.475069 -0500,
57,57,0,filler_random,None,None,None,None,None,None,None,None,None,None,3,1.1432597637176514,None,,,,,0,0,0,0,0,57,57,153,299.23586893081665,,,,,,,,,,,,,,,,,,,,,,,,,,,,,,,,,,,,,,,,,,,,,,,,,,,,,,,,,,,,,,,,,,,,,,,,,,,,,,,,,100.3544132520756,115.94783170389758,125.31201242300884,159.27374390909154,180.7736060995436,150.1516879314573,2.2,2.22,-234,268,0,-280,251,-278,299.22129702568054,299.2213382720947,299.2239408493042,299.23586893081665,299.3858275413513,299.3858275413513,299.3858275413513,299.3858275413513,299.3858275413513,299.3858275413513,299.3858275413513,300.38698291778564,3,1.1432597637176514,None,,,,,,,,,,,,,,,,,,38,3,2025-02-19_11h55.10.598,comp,2024.2.4,60.07860932540364,2025-02-19 11h55.20.475069 -0500,
58,58,0,critical,hdw,35.0,3.0,lower,133.0,57.0,70.0,70.0,57.0,133.0,3,7.898565769195557,None,,,,,0,0,0,0,0,58,58,110,300.4025340080261,,,,,,,,,,,,,,,,,,,,,,,,,,,,,,,,,,,,,,,,,,,,,,,,,,,,,,,,,,,,,,,,,,,,,,,,,,,,,,,,,133.0,57.0,70.0,70.0,57.0,133.0,3.0,3.1,-160,285,0,1,198,-261,300.38778424263,300.38782691955566,300.39025235176086,300.4025340080261,300.55234384536743,300.55234384536743,300.55234384536743,300.55234384536743,300.55234384536743,300.55234384536743,300.55234384536743,308.3035044670105,3,7.898565769195557,None,,,,,,,,,,,,,,,,,,38,3,2025-02-19_11h55.10.598,comp,2024.2.4,60.07860932540364,2025-02-19 11h55.20.475069 -0500,
59,59,0,critical,hdw,35.0,2.1,upper,200.0,125.0,127.0,127.0,125.0,200.0,3,3.8836517333984375,None,,,,,0,0,0,0,0,59,59,45,308.31925082206726,,,,,,,,,,,,,,,,,,,,,,,,,,,,,,,,,,,,,,,,,,,,,,,,,,,,,,,,,,,,,,,,,,,,,,,,,,,,,,,,,200.0,125.0,127.0,127.0,125.0,200.0,2.1,2.11,-222,271,0,256,260,-258,308.3042914867401,308.30433416366577,308.3076615333557,308.31925082206726,308.4691002368927,308.4691002368927,308.4691002368927,308.4691002368927,308.4691002368927,308.4691002368927,308.4691002368927,312.2202694416046,3,3.8836517333984375,None,,,,,,,,,,,,,,,,,,38,3,2025-02-19_11h55.10.598,comp,2024.2.4,60.07860932540364,2025-02-19 11h55.20.475069 -0500,
60,60,0,catch,None,None,None,None,None,None,None,None,None,None,2,1.1680195331573486,None,,,,,0,0,0,0,0,60,60,125,312.2355115413666,,,,,,,,,,,,,,,,,,,,,,,,,,,,,,,,,,,,,,,,,,,,,,,,,,,,,,,,,,,,,,,,,,,,,,,,,,,,,,,,,128,62,179,146,81,109,2.2,2.21,-200,-262,0,258,224,282,312.2213463783264,312.2213878631592,312.22398710250854,312.2355115413666,312.3856723308563,312.3856723308563,312.3856723308563,312.3856723308563,312.3856723308563,312.3856723308563,312.3856723308563,313.4201362133026,2,1.1680195331573486,None,,,,,,,,,,,,,,,,,,38,3,2025-02-19_11h55.10.598,comp,2024.2.4,60.07860932540364,2025-02-19 11h55.20.475069 -0500,
61,61,0,filler_random,None,None,None,None,None,None,None,None,None,None,1,3.4226479530334473,None,,,,,0,0,0,0,0,61,61,145,313.43552327156067,,,,,,,,,,,,,,,,,,,,,,,,,,,,,,,,,,,,,,,,,,,,,,,,,,,,,,,,,,,,,,,,,,,,,,,,,,,,,,,,,132.7486946783739,143.43020182501772,139.0110873797268,94.1126829881773,186.2027317277292,83.47708022562051,3.0,3.2,-215,-276,0,4,185,260,313.42106461524963,313.42110538482666,313.42367601394653,313.43552327156067,313.58568501472473,313.58568501472473,313.58568501472473,313.58568501472473,313.58568501472473,313.58568501472473,313.58568501472473,316.8704309463501,1,3.4226479530334473,None,,,,,,,,,,,,,,,,,,38,3,2025-02-19_11h55.10.598,comp,2024.2.4,60.07860932540364,2025-02-19 11h55.20.475069 -0500,
62,62,0,critical,hdw,35.0,2.1,upper,200.0,125.0,127.0,127.0,125.0,200.0,3,1.1175603866577148,None,,,,,0,0,0,0,0,62,62,21,316.8854765892029,,,,,,,,,,,,,,,,,,,,,,,,,,,,,,,,,,,,,,,,,,,,,,,,,,,,,,,,,,,,,,,,,,,,,,,,,,,,,,,,,200.0,125.0,127.0,127.0,125.0,200.0,2.1,2.11,-222,286,0,253,260,-267,316.87123465538025,316.87127470970154,316.87337708473206,316.8854765892029,317.0358340740204,317.0358340740204,317.0358340740204,317.0358340740204,317.0358340740204,317.0358340740204,317.0358340740204,318.02032685279846,3,1.1175603866577148,None,,,,,,,,,,,,,,,,,,38,3,2025-02-19_11h55.10.598,comp,2024.2.4,60.07860932540364,2025-02-19 11h55.20.475069 -0500,
63,63,0,critical,wdh,20.0,1.0,lower,57.0,133.0,78.0,78.0,133.0,57.0,1,4.150760173797607,None,,,,,0,0,0,0,0,63,63,78,318.03546595573425,,,,,,,,,,,,,,,,,,,,,,,,,,,,,,,,,,,,,,,,,,,,,,,,,,,,,,,,,,,,,,,,,,,,,,,,,,,,,,,,,57.0,133.0,78.0,78.0,133.0,57.0,1.0,1.1,-682,277,-480,287,-316,278,318.0211548805237,318.02119636535645,318.0238106250763,318.03546595573425,318.18562173843384,318.18562173843384,318.18562173843384,318.18562173843384,318.18562173843384,318.18562173843384,318.18562173843384,322.2034389972687,1,4.150760173797607,None,,,,,,,,,,,,,,,,,,38,3,2025-02-19_11h55.10.598,comp,2024.2.4,60.07860932540364,2025-02-19 11h55.20.475069 -0500,
64,64,0,filler_square,None,None,None,None,None,None,None,None,None,None,1,1.065798282623291,None,,,,,0,0,0,0,0,64,64,208,322.21902990341187,,,,,,,,,,,,,,,,,,,,,,,,,,,,,,,,,,,,,,,,,,,,,,,,,,,,,,,,,,,,,,,,,,,,,,,,,,,,,,,,,155.18019826518972,155.18019826518972,96.93188776131163,63.89045525989759,133.16050276734882,57.174874531473655,2.1,2.12,-206,-281,0,-258,157,268,322.2044117450714,322.20446586608887,322.20801734924316,322.21902990341187,322.36899733543396,322.36899733543396,322.36899733543396,322.36899733543396,322.36899733543396,322.36899733543396,322.36899733543396,323.2870080471039,1,1.065798282623291,None,,,,,,,,,,,,,,,,,,38,3,2025-02-19_11h55.10.598,comp,2024.2.4,60.07860932540364,2025-02-19 11h55.20.475069 -0500,
65,65,0,filler_square,None,None,None,None,None,None,None,None,None,None,2,1.3819119930267334,None,,,,,0,0,0,0,0,65,65,195,323.3027505874634,,,,,,,,,,,,,,,,,,,,,,,,,,,,,,,,,,,,,,,,,,,,,,,,,,,,,,,,,,,,,,,,,,,,,,,,,,,,,,,,,62.18983046299966,63.946991721372676,85.59642532295811,85.59642532295811,71.41879750904009,73.97303401557943,1.0,1.3,309,-276,480,-289,656,-284,323.2882390022278,323.2882845401764,323.2904031276703,323.3027505874634,323.4522132873535,323.4522132873535,323.4522132873535,323.4522132873535,323.4522132873535,323.4522132873535,323.4522132873535,324.68666648864746,2,1.3819119930267334,None,,,,,,,,,,,,,,,,,,38,3,2025-02-19_11h55.10.598,comp,2024.2.4,60.07860932540364,2025-02-19 11h55.20.475069 -0500,
66,66,0,critical,hdw,20.0,2.1,upper,200.0,125.0,141.0,141.0,125.0,200.0,1,3.0604770183563232,None,,,,,0,0,0,0,0,66,66,23,324.7024645805359,,,,,,,,,,,,,,,,,,,,,,,,,,,,,,,,,,,,,,,,,,,,,,,,,,,,,,,,,,,,,,,,,,,,,,,,,,,,,,,,,200.0,125.0,141.0,141.0,125.0,200.0,2.1,2.12,-229,-272,0,-255,266,275,324.6874301433563,324.6874907016754,324.6895489692688,324.7024645805359,324.8523573875427,324.8523573875427,324.8523573875427,324.8523573875427,324.8523573875427,324.8523573875427,324.8523573875427,327.7701976299286,1,3.0604770183563232,None,,,,,,,,,,,,,,,,,,38,3,2025-02-19_11h55.10.598,comp,2024.2.4,60.07860932540364,2025-02-19 11h55.20.475069 -0500,
67,67,0,filler_square,None,None,None,None,None,None,None,None,None,None,3,2.024803400039673,None,,,,,0,0,0,0,0,67,67,172,327.7861316204071,,,,,,,,,,,,,,,,,,,,,,,,,,,,,,,,,,,,,,,,,,,,,,,,,,,,,,,,,,,,,,,,,,,,,,,,,,,,,,,,,96.34884330693936,96.34884330693936,71.54841711151553,75.50825373631216,92.95382992996895,79.89532237017028,2.2,2.21,-182,-259,0,288,174,276,327.7711751461029,327.77121782302856,327.7733814716339,327.7861316204071,327.9355056285858,327.9355056285858,327.9355056285858,327.9355056285858,327.9355056285858,327.9355056285858,327.9355056285858,329.8200023174286,3,2.024803400039673,None,,,,,,,,,,,,,,,,,,38,3,2025-02-19_11h55.10.598,comp,2024.2.4,60.07860932540364,2025-02-19 11h55.20.475069 -0500,
68,68,0,critical,wdh,20.0,1.0,upper,125.0,200.0,141.0,141.0,200.0,125.0,3,4.8709211349487305,None,,,,,0,0,0,0,0,68,68,79,329.8359434604645,,,,,,,,,,,,,,,,,,,,,,,,,,,,,,,,,,,,,,,,,,,,,,,,,,,,,,,,,,,,,,,,,,,,,,,,,,,,,,,,,125.0,200.0,141.0,141.0,200.0,125.0,1.0,1.2,-266,14,0,16,229,-16,329.82073974609375,329.820778131485,329.82284331321716,329.8359434604645,329.9857578277588,329.9857578277588,329.9857578277588,329.9857578277588,329.9857578277588,329.9857578277588,329.9857578277588,334.72018694877625,3,4.8709211349487305,None,,,,,,,,,,,,,,,,,,38,3,2025-02-19_11h55.10.598,comp,2024.2.4,60.07860932540364,2025-02-19 11h55.20.475069 -0500,
69,69,0,critical,dhw,20.0,4.0,lower,78.0,78.0,133.0,57.0,57.0,133.0,3,6.580384731292725,None,,,,,0,0,0,0,0,69,69,58,334.7354004383087,,,,,,,,,,,,,,,,,,,,,,,,,,,,,,,,,,,,,,,,,,,,,,,,,,,,,,,,,,,,,,,,,,,,,,,,,,,,,,,,,78.0,78.0,133.0,57.0,57.0,133.0,4.0,4.1,-164,-267,0,-5,191,-287,334.72097635269165,334.7210178375244,334.7235505580902,334.7354004383087,334.88537764549255,334.88537764549255,334.88537764549255,334.88537764549255,334.88537764549255,334.88537764549255,334.88537764549255,341.3201148509979,3,6.580384731292725,None,,,,,,,,,,,,,,,,,,38,3,2025-02-19_11h55.10.598,comp,2024.2.4,60.07860932540364,2025-02-19 11h55.20.475069 -0500,
70,70,0,critical,dhw,20.0,1.0,lower,78.0,78.0,133.0,57.0,57.0,133.0,2,6.322464466094971,None,,,,,0,0,0,0,0,70,70,54,341.3355333805084,,,,,,,,,,,,,,,,,,,,,,,,,,,,,,,,,,,,,,,,,,,,,,,,,,,,,,,,,,,,,,,,,,,,,,,,,,,,,,,,,78.0,78.0,133.0,57.0,57.0,133.0,1.0,1.2,-164,13,0,-1,191,14,341.3208763599396,341.32091784477234,341.32309007644653,341.3355333805084,341.4855160713196,341.4855160713196,341.4855160713196,341.4855160713196,341.4855160713196,341.4855160713196,341.4855160713196,347.66995429992676,2,6.322464466094971,None,,,,,,,,,,,,,,,,,,38,3,2025-02-19_11h55.10.598,comp,2024.2.4,60.07860932540364,2025-02-19 11h55.20.475069 -0500,
71,71,0,filler_square,None,None,None,None,None,None,None,None,None,None,3,1.3413722515106201,None,,,,,0,0,0,0,0,71,71,200,347.68540501594543,,,,,,,,,,,,,,,,,,,,,,,,,,,,,,,,,,,,,,,,,,,,,,,,,,,,,,,,,,,,,,,,,,,,,,,,,,,,,,,,,62.84970896762598,61.770223766655356,66.57400493469282,67.76558801029994,72.13862949655956,72.13862949655956,4.0,4.1,-161,-275,0,14,166,-251,347.6709363460541,347.67097759246826,347.6736710071564,347.68540501594543,347.8353888988495,347.8353888988495,347.8353888988495,347.8353888988495,347.8353888988495,347.8353888988495,347.8353888988495,349.03638076782227,3,1.3413722515106201,None,,,,,,,,,,,,,,,,,,38,3,2025-02-19_11h55.10.598,comp,2024.2.4,60.07860932540364,2025-02-19 11h55.20.475069 -0500,
72,72,0,critical,dwh,20.0,2.1,upper,141.0,141.0,125.0,200.0,200.0,125.0,2,2.5265235900878906,None,,,,,0,0,0,0,0,72,72,31,349.0522747039795,,,,,,,,,,,,,,,,,,,,,,,,,,,,,,,,,,,,,,,,,,,,,,,,,,,,,,,,,,,,,,,,,,,,,,,,,,,,,,,,,141.0,141.0,125.0,200.0,200.0,125.0,2.1,2.11,-266,285,0,285,258,-265,349.03719186782837,349.0372338294983,349.0393776893616,349.0522747039795,349.20225715637207,349.20225715637207,349.20225715637207,349.20225715637207,349.20225715637207,349.20225715637207,349.20225715637207,351.58670115470886,2,2.5265235900878906,None,,,,,,,,,,,,,,,,,,38,3,2025-02-19_11h55.10.598,comp,2024.2.4,60.07860932540364,2025-02-19 11h55.20.475069 -0500,
73,73,0,filler_square,None,None,None,None,None,None,None,None,None,None,1,0.9767091274261475,None,,,,,0,0,0,0,0,73,73,194,351.6022984981537,,,,,,,,,,,,,,,,,,,,,,,,,,,,,,,,,,,,,,,,,,,,,,,,,,,,,,,,,,,,,,,,,,,,,,,,,,,,,,,,,130.83190459181014,130.83190459181014,113.68452310716086,86.4604472997546,80.5104269621052,127.60538371116586,1.0,1.2,-205,1,0,-2,203,-15,351.58765935897827,351.5877010822296,351.58985233306885,351.6022984981537,351.75211906433105,351.75211906433105,351.75211906433105,351.75211906433105,351.75211906433105,351.75211906433105,351.75211906433105,352.5865297317505,1,0.9767091274261475,None,,,,,,,,,,,,,,,,,,38,3,2025-02-19_11h55.10.598,comp,2024.2.4,60.07860932540364,2025-02-19 11h55.20.475069 -0500,
74,74,0,critical,whd,35.0,1.0,upper,125.0,200.0,200.0,125.0,127.0,127.0,2,3.167799949645996,None,,,,,0,0,0,0,0,74,74,85,352.6021480560303,,,,,,,,,,,,,,,,,,,,,,,,,,,,,,,,,,,,,,,,,,,,,,,,,,,,,,,,,,,,,,,,,,,,,,,,,,,,,,,,,125.0,200.0,200.0,125.0,127.0,127.0,1.0,1.3,222,-280,480,-278,702,-258,352.587317943573,352.58735942840576,352.589736700058,352.6021480560303,352.75221252441406,352.75221252441406,352.75221252441406,352.75221252441406,352.75221252441406,352.75221252441406,352.75221252441406,355.78664660453796,2,3.167799949645996,None,,,,,,,,,,,,,,,,,,38,3,2025-02-19_11h55.10.598,comp,2024.2.4,60.07860932540364,2025-02-19 11h55.20.475069 -0500,
75,75,0,catch,None,None,None,None,None,None,None,None,None,None,3,0.9680707454681396,None,,,,,0,0,0,0,0,75,75,128,355.8019642829895,,,,,,,,,,,,,,,,,,,,,,,,,,,,,,,,,,,,,,,,,,,,,,,,,,,,,,,,,,,,,,,,,,,,,,,,,,,,,,,,,76,114,118,72,145,180,2.1,2.12,-189,-263,0,-281,222,287,355.78770995140076,355.7877531051636,355.7899820804596,355.8019642829895,355.9521310329437,355.9521310329437,355.9521310329437,355.9521310329437,355.9521310329437,355.9521310329437,355.9521310329437,356.78649711608887,3,0.9680707454681396,None,,,,,,,,,,,,,,,,,,38,3,2025-02-19_11h55.10.598,comp,2024.2.4,60.07860932540364,2025-02-19 11h55.20.475069 -0500,
76,76,0,critical,hwd,35.0,2.1,lower,133.0,57.0,57.0,133.0,70.0,70.0,1,2.376840591430664,None,,,,,0,0,0,0,0,76,76,16,356.8019187450409,,,,,,,,,,,,,,,,,,,,,,,,,,,,,,,,,,,,,,,,,,,,,,,,,,,,,,,,,,,,,,,,,,,,,,,,,,,,,,,,,133.0,57.0,57.0,133.0,70.0,70.0,2.1,2.11,-191,277,0,256,198,-261,356.78730726242065,356.78734850883484,356.7897665500641,356.8019187450409,356.95202374458313,356.95202374458313,356.95202374458313,356.95202374458313,356.95202374458313,356.95202374458313,356.95202374458313,359.18639850616455,1,2.376840591430664,None,,,,,,,,,,,,,,,,,,38,3,2025-02-19_11h55.10.598,comp,2024.2.4,60.07860932540364,2025-02-19 11h55.20.475069 -0500,
77,77,0,filler_random,None,None,None,None,None,None,None,None,None,None,3,1.297877550125122,None,,,,,0,0,0,0,0,77,77,142,359.20220613479614,,,,,,,,,,,,,,,,,,,,,,,,,,,,,,,,,,,,,,,,,,,,,,,,,,,,,,,,,,,,,,,,,,,,,,,,,,,,,,,,,98.43613464268856,188.0731652588993,136.48382831715372,74.01532520588506,151.81919926569398,131.1667361981764,4.0,4.2,-227,-4,0,-264,199,8,359.1873288154602,359.18737149238586,359.18953680992126,359.20220613479614,359.3521521091461,359.3521521091461,359.3521521091461,359.3521521091461,359.3521521091461,359.3521521091461,359.3521521091461,360.5033366680145,3,1.297877550125122,None,,,,,,,,,,,,,,,,,,38,3,2025-02-19_11h55.10.598,comp,2024.2.4,60.07860932540364,2025-02-19 11h55.20.475069 -0500,
78,78,0,filler_square,None,None,None,None,None,None,None,None,None,None,3,2.476228713989258,None,,,,,0,0,0,0,0,78,78,180,360.5186984539032,,,,,,,,,,,,,,,,,,,,,,,,,,,,,,,,,,,,,,,,,,,,,,,,,,,,,,,,,,,,,,,,,,,,,,,,,,,,,,,,,77.18498036876626,64.72705497907428,69.04841418332352,69.91741789545422,79.10558594648658,79.10558594648658,4.0,4.1,-163,-267,0,10,171,-267,360.5042941570282,360.5043363571167,360.5065393447876,360.5186984539032,360.6685266494751,360.6685266494751,360.6685266494751,360.6685266494751,360.6685266494751,360.6685266494751,360.6685266494751,363.0030107498169,3,2.476228713989258,None,,,,,,,,,,,,,,,,,,38,3,2025-02-19_11h55.10.598,comp,2024.2.4,60.07860932540364,2025-02-19 11h55.20.475069 -0500,
79,79,0,critical,hdw,35.0,1.0,lower,133.0,57.0,70.0,70.0,57.0,133.0,3,1.303417682647705,None,,,,,0,0,0,0,0,79,79,108,363.01863527297974,,,,,,,,,,,,,,,,,,,,,,,,,,,,,,,,,,,,,,,,,,,,,,,,,,,,,,,,,,,,,,,,,,,,,,,,,,,,,,,,,133.0,57.0,70.0,70.0,57.0,133.0,1.0,1.1,-640,290,-480,288,-282,270,363.0038022994995,363.00384497642517,363.00640320777893,363.01863527297974,363.16864109039307,363.16864109039307,363.16864109039307,363.16864109039307,363.16864109039307,363.16864109039307,363.16864109039307,364.33627009391785,3,1.303417682647705,None,,,,,,,,,,,,,,,,,,38,3,2025-02-19_11h55.10.598,comp,2024.2.4,60.07860932540364,2025-02-19 11h55.20.475069 -0500,
80,80,0,filler_square,None,None,None,None,None,None,None,None,None,None,2,1.1632704734802246,None,,,,,0,0,0,0,0,80,80,181,364.3518145084381,,,,,,,,,,,,,,,,,,,,,,,,,,,,,,,,,,,,,,,,,,,,,,,,,,,,,,,,,,,,,,,,,,,,,,,,,,,,,,,,,105.2499093126005,109.40841320237654,198.6452360290496,198.6452360290496,108.61653281405727,99.87173187383573,2.2,2.22,-250,269,0,-285,245,-264,364.33723521232605,364.337277173996,364.3399112224579,364.3518145084381,364.5021779537201,364.5021779537201,364.5021779537201,364.5021779537201,364.5021779537201,364.5021779537201,364.5021779537201,365.51998019218445,2,1.1632704734802246,None,,,,,,,,,,,,,,,,,,38,3,2025-02-19_11h55.10.598,comp,2024.2.4,60.07860932540364,2025-02-19 11h55.20.475069 -0500,
81,81,0,filler_random,None,None,None,None,None,None,None,None,None,None,2,0.9384028911590576,None,,,,,0,0,0,0,0,81,81,154,365.5354127883911,,,,,,,,,,,,,,,,,,,,,,,,,,,,,,,,,,,,,,,,,,,,,,,,,,,,,,,,,,,,,,,,,,,,,,,,,,,,,,,,,128.7082166336637,164.39062871282005,196.07275654509806,172.03093350326634,77.56126390602695,190.4228979209708,1.0,1.3,216,-288,480,-258,757,-253,365.5209610462189,365.5210030078888,365.52341985702515,365.5354127883911,365.6858823299408,365.6858823299408,365.6858823299408,365.6858823299408,365.6858823299408,365.6858823299408,365.6858823299408,366.48654770851135,2,0.9384028911590576,None,,,,,,,,,,,,,,,,,,38,3,2025-02-19_11h55.10.598,comp,2024.2.4,60.07860932540364,2025-02-19 11h55.20.475069 -0500,
82,82,0,critical,whd,35.0,2.1,upper,125.0,200.0,200.0,125.0,127.0,127.0,1,2.2287845611572266,None,,,,,0,0,0,0,0,82,82,13,366.50184750556946,,,,,,,,,,,,,,,,,,,,,,,,,,,,,,,,,,,,,,,,,,,,,,,,,,,,,,,,,,,,,,,,,,,,,,,,,,,,,,,,,125.0,200.0,200.0,125.0,127.0,127.0,2.1,2.11,-258,288,0,279,222,-268,366.4873628616333,366.48740577697754,366.4895691871643,366.50184750556946,366.6521370410919,366.6521370410919,366.6521370410919,366.6521370410919,366.6521370410919,366.6521370410919,366.6521370410919,368.7366750240326,1,2.2287845611572266,None,,,,,,,,,,,,,,,,,,38,3,2025-02-19_11h55.10.598,comp,2024.2.4,60.07860932540364,2025-02-19 11h55.20.475069 -0500,
83,83,0,filler_square,None,None,None,None,None,None,None,None,None,None,1,3.6831865310668945,None,,,,,0,0,0,0,0,83,83,202,368.75237011909485,,,,,,,,,,,,,,,,,,,,,,,,,,,,,,,,,,,,,,,,,,,,,,,,,,,,,,,,,,,,,,,,,,,,,,,,,,,,,,,,,74.67628899717906,71.31537419531438,60.40778315271311,57.2948194854904,75.27916340853882,75.27916340853882,2.1,2.12,-160,-271,0,-286,162,269,368.7376661300659,368.73770928382874,368.73997020721436,368.75237011909485,368.90203189849854,368.90203189849854,368.90203189849854,368.90203189849854,368.90203189849854,368.90203189849854,368.90203189849854,372.45300006866455,1,3.6831865310668945,None,,,,,,,,,,,,,,,,,,38,3,2025-02-19_11h55.10.598,comp,2024.2.4,60.07860932540364,2025-02-19 11h55.20.475069 -0500,
84,84,0,filler_square,None,None,None,None,None,None,None,None,None,None,1,1.021510362625122,None,,,,,0,0,0,0,0,84,84,188,372.46845984458923,,,,,,,,,,,,,,,,,,,,,,,,,,,,,,,,,,,,,,,,,,,,,,,,,,,,,,,,,,,,,,,,,,,,,,,,,,,,,,,,,163.22995434046928,163.22995434046928,132.37792931840332,73.9757126748393,70.83010144352622,122.08772498892736,4.0,4.1,-215,-277,0,-18,194,-261,372.4539659023285,372.4540059566498,372.45654559135437,372.46845984458923,372.61875081062317,372.61875081062317,372.61875081062317,372.61875081062317,372.61875081062317,372.61875081062317,372.61875081062317,373.5031249523163,1,1.021510362625122,None,,,,,,,,,,,,,,,,,,38,3,2025-02-19_11h55.10.598,comp,2024.2.4,60.07860932540364,2025-02-19 11h55.20.475069 -0500,
85,85,0,critical,hwd,35.0,4.0,lower,133.0,57.0,57.0,133.0,70.0,70.0,2,3.8840479850769043,None,,,,,0,0,0,0,0,85,85,100,373.5183324813843,,,,,,,,,,,,,,,,,,,,,,,,,,,,,,,,,,,,,,,,,,,,,,,,,,,,,,,,,,,,,,,,,,,,,,,,,,,,,,,,,133.0,57.0,57.0,133.0,70.0,70.0,4.0,4.1,-191,-277,0,-20,198,-281,373.50391960144043,373.50396060943604,373.50653624534607,373.5183324813843,373.66864252090454,373.66864252090454,373.66864252090454,373.66864252090454,373.66864252090454,373.66864252090454,373.66864252090454,377.4196503162384,2,3.8840479850769043,None,,,,,,,,,,,,,,,,,,38,3,2025-02-19_11h55.10.598,comp,2024.2.4,60.07860932540364,2025-02-19 11h55.20.475069 -0500,
86,86,0,filler_square,None,None,None,None,None,None,None,None,None,None,3,1.08034086227417,None,,,,,0,0,0,0,0,86,86,174,377.43503308296204,,,,,,,,,,,,,,,,,,,,,,,,,,,,,,,,,,,,,,,,,,,,,,,,,,,,,,,,,,,,,,,,,,,,,,,,,,,,,,,,,93.32876262232134,93.32876262232134,58.52532454123615,65.9884791576492,92.64711052983375,80.57282651864494,3.0,3.1,-176,287,0,0,169,-259,377.4206168651581,377.42065954208374,377.4231195449829,377.43503308296204,377.5851483345032,377.5851483345032,377.5851483345032,377.5851483345032,377.5851483345032,377.5851483345032,377.5851483345032,378.519718170166,3,1.08034086227417,None,,,,,,,,,,,,,,,,,,38,3,2025-02-19_11h55.10.598,comp,2024.2.4,60.07860932540364,2025-02-19 11h55.20.475069 -0500,
87,87,0,critical,dhw,35.0,3.0,upper,127.0,127.0,200.0,125.0,125.0,200.0,3,4.403123378753662,None,,,,,0,0,0,0,0,87,87,51,378.5352075099945,,,,,,,,,,,,,,,,,,,,,,,,,,,,,,,,,,,,,,,,,,,,,,,,,,,,,,,,,,,,,,,,,,,,,,,,,,,,,,,,,127.0,127.0,200.0,125.0,125.0,200.0,3.0,3.1,-222,262,0,8,258,-290,378.5205228328705,378.5205638408661,378.5227313041687,378.5352075099945,378.6853301525116,378.6853301525116,378.6853301525116,378.6853301525116,378.6853301525116,378.6853301525116,378.6853301525116,382.95306158065796,3,4.403123378753662,None,,,,,,,,,,,,,,,,,,38,3,2025-02-19_11h55.10.598,comp,2024.2.4,60.07860932540364,2025-02-19 11h55.20.475069 -0500,
88,88,0,critical,hwd,35.0,3.0,lower,133.0,57.0,57.0,133.0,70.0,70.0,2,1.7783348560333252,None,,,,,0,0,0,0,0,88,88,98,382.9683358669281,,,,,,,,,,,,,,,,,,,,,,,,,,,,,,,,,,,,,,,,,,,,,,,,,,,,,,,,,,,,,,,,,,,,,,,,,,,,,,,,,133.0,57.0,57.0,133.0,70.0,70.0,3.0,3.2,-191,-286,0,18,198,250,382.95387268066406,382.95391297340393,382.9564399719238,382.9683358669281,383.1185154914856,383.1185154914856,383.1185154914856,383.1185154914856,383.1185154914856,383.1185154914856,383.1185154914856,384.75298261642456,2,1.7783348560333252,None,,,,,,,,,,,,,,,,,,38,3,2025-02-19_11h55.10.598,comp,2024.2.4,60.07860932540364,2025-02-19 11h55.20.475069 -0500,
89,89,0,critical,hwd,20.0,4.0,lower,133.0,57.0,57.0,133.0,78.0,78.0,2,2.7318694591522217,None,,,,,0,0,0,0,0,89,89,106,384.7686667442322,,,,,,,,,,,,,,,,,,,,,,,,,,,,,,,,,,,,,,,,,,,,,,,,,,,,,,,,,,,,,,,,,,,,,,,,,,,,,,,,,133.0,57.0,57.0,133.0,78.0,78.0,4.0,4.2,-191,-1,0,-285,202,-12,384.75377655029297,384.7538185119629,384.7564001083374,384.7686667442322,384.9183955192566,384.9183955192566,384.9183955192566,384.9183955192566,384.9183955192566,384.9183955192566,384.9183955192566,387.5031442642212,2,2.7318694591522217,None,,,,,,,,,,,,,,,,,,38,3,2025-02-19_11h55.10.598,comp,2024.2.4,60.07860932540364,2025-02-19 11h55.20.475069 -0500,
90,90,0,filler_random,None,None,None,None,None,None,None,None,None,None,1,1.04392409324646,None,,,,,0,0,0,0,0,90,90,132,387.51867270469666,,,,,,,,,,,,,,,,,,,,,,,,,,,,,,,,,,,,,,,,,,,,,,,,,,,,,,,,,,,,,,,,,,,,,,,,,,,,,,,,,86.27234392755754,190.53014957145362,79.39541865905419,142.75381097599148,82.80794018841448,134.37951553950987,2.1,2.12,-263,-287,0,-284,235,263,387.50415658950806,387.50420093536377,387.5069422721863,387.51867270469666,387.66854333877563,387.66854333877563,387.66854333877563,387.66854333877563,387.66854333877563,387.66854333877563,387.66854333877563,388.56967401504517,1,1.04392409324646,None,,,,,,,,,,,,,,,,,,38,3,2025-02-19_11h55.10.598,comp,2024.2.4,60.07860932540364,2025-02-19 11h55.20.475069 -0500,
91,91,0,critical,hdw,35.0,4.0,lower,133.0,57.0,70.0,70.0,57.0,133.0,3,2.552720785140991,None,,,,,0,0,0,0,0,91,91,112,388.58522272109985,,,,,,,,,,,,,,,,,,,,,,,,,,,,,,,,,,,,,,,,,,,,,,,,,,,,,,,,,,,,,,,,,,,,,,,,,,,,,,,,,133.0,57.0,70.0,70.0,57.0,133.0,4.0,4.2,-160,12,0,-252,198,-7,388.5704345703125,388.57048630714417,388.5726592540741,388.58522272109985,388.7350950241089,388.7350950241089,388.7350950241089,388.7350950241089,388.7350950241089,388.7350950241089,388.7350950241089,391.15275716781616,3,2.552720785140991,None,,,,,,,,,,,,,,,,,,38,3,2025-02-19_11h55.10.598,comp,2024.2.4,60.07860932540364,2025-02-19 11h55.20.475069 -0500,
92,92,0,critical,whd,20.0,4.0,upper,125.0,200.0,200.0,125.0,141.0,141.0,1,2.6672074794769287,None,,,,,0,0,0,0,0,92,92,95,391.1683192253113,,,,,,,,,,,,,,,,,,,,,,,,,,,,,,,,,,,,,,,,,,,,,,,,,,,,,,,,,,,,,,,,,,,,,,,,,,,,,,,,,125.0,200.0,200.0,125.0,141.0,141.0,4.0,4.1,-258,-281,0,11,229,-269,391.1535904407501,391.15363121032715,391.15621638298035,391.1683192253113,391.3187963962555,391.3187963962555,391.3187963962555,391.3187963962555,391.3187963962555,391.3187963962555,391.3187963962555,393.8530812263489,1,2.6672074794769287,None,,,,,,,,,,,,,,,,,,38,3,2025-02-19_11h55.10.598,comp,2024.2.4,60.07860932540364,2025-02-19 11h55.20.475069 -0500,
93,93,0,critical,dwh,35.0,2.1,lower,70.0,70.0,57.0,133.0,133.0,57.0,3,8.51021957397461,None,,,,,0,0,0,0,0,93,93,28,393.8683216571808,,,,,,,,,,,,,,,,,,,,,,,,,,,,,,,,,,,,,,,,,,,,,,,,,,,,,,,,,,,,,,,,,,,,,,,,,,,,,,,,,70.0,70.0,57.0,133.0,133.0,57.0,2.1,2.11,-198,279,0,273,191,-267,393.85385608673096,393.8538942337036,393.8564112186432,393.8683216571808,394.0186655521393,394.0186655521393,394.0186655521393,394.0186655521393,394.0186655521393,394.0186655521393,394.0186655521393,402.38610005378723,3,8.51021957397461,None,,,,,,,,,,,,,,,,,,38,3,2025-02-19_11h55.10.598,comp,2024.2.4,60.07860932540364,2025-02-19 11h55.20.475069 -0500,
94,94,0,filler_square,None,None,None,None,None,None,None,None,None,None,3,1.1358211040496826,None,,,,,0,0,0,0,0,94,94,191,402.4018397331238,,,,,,,,,,,,,,,,,,,,,,,,,,,,,,,,,,,,,,,,,,,,,,,,,,,,,,,,,,,,,,,,,,,,,,,,,,,,,,,,,128.3435942601161,129.85398039558595,77.37648085904719,165.18482175924598,174.63604618829737,174.63604618829737,2.1,2.12,-244,-279,0,-266,266,288,402.38710021972656,402.3871433734894,402.3897614479065,402.4018397331238,402.5517337322235,402.5517337322235,402.5517337322235,402.5517337322235,402.5517337322235,402.5517337322235,402.5517337322235,403.55292773246765,3,1.1358211040496826,None,,,,,,,,,,,,,,,,,,38,3,2025-02-19_11h55.10.598,comp,2024.2.4,60.07860932540364,2025-02-19 11h55.20.475069 -0500,
95,95,0,critical,whd,20.0,1.0,upper,125.0,200.0,200.0,125.0,141.0,141.0,2,2.9855782985687256,None,,,,,0,0,0,0,0,95,95,91,403.56826877593994,,,,,,,,,,,,,,,,,,,,,,,,,,,,,,,,,,,,,,,,,,,,,,,,,,,,,,,,,,,,,,,,,,,,,,,,,,,,,,,,,125.0,200.0,200.0,125.0,141.0,141.0,1.0,1.2,-258,12,0,12,229,-16,403.55371284484863,403.55375504493713,403.55622816085815,403.56826877593994,403.71859669685364,403.71859669685364,403.71859669685364,403.71859669685364,403.71859669685364,403.71859669685364,403.71859669685364,406.5698387622833,2,2.9855782985687256,None,,,,,,,,,,,,,,,,,,38,3,2025-02-19_11h55.10.598,comp,2024.2.4,60.07860932540364,2025-02-19 11h55.20.475069 -0500,
96,96,0,critical,hdw,20.0,1.0,upper,200.0,125.0,141.0,141.0,125.0,200.0,1,2.9779250621795654,None,,,,,0,0,0,0,0,96,96,115,406.5849471092224,,,,,,,,,,,,,,,,,,,,,,,,,,,,,,,,,,,,,,,,,,,,,,,,,,,,,,,,,,,,,,,,,,,,,,,,,,,,,,,,,200.0,125.0,141.0,141.0,125.0,200.0,1.0,1.2,-229,-9,0,2,266,18,406.57062220573425,406.5706648826599,406.5730655193329,406.5849471092224,406.7355160713196,406.7355160713196,406.7355160713196,406.7355160713196,406.7355160713196,406.7355160713196,406.7355160713196,409.5697877407074,1,2.9779250621795654,None,,,,,,,,,,,,,,,,,,38,3,2025-02-19_11h55.10.598,comp,2024.2.4,60.07860932540364,2025-02-19 11h55.20.475069 -0500,
97,97,0,filler_square,None,None,None,None,None,None,None,None,None,None,1,1.7211034297943115,None,,,,,0,0,0,0,0,97,97,201,409.58517360687256,,,,,,,,,,,,,,,,,,,,,,,,,,,,,,,,,,,,,,,,,,,,,,,,,,,,,,,,,,,,,,,,,,,,,,,,,,,,,,,,,109.13603846807811,109.13603846807811,94.69371791243448,101.9050902912052,61.65086139618086,105.95350050514568,2.1,2.11,-202,287,0,273,200,-258,409.57072830200195,409.570769071579,409.5728623867035,409.58517360687256,409.7349922657013,409.7349922657013,409.7349922657013,409.7349922657013,409.7349922657013,409.7349922657013,409.7349922657013,411.3194615840912,1,1.7211034297943115,None,,,,,,,,,,,,,,,,,,38,3,2025-02-19_11h55.10.598,comp,2024.2.4,60.07860932540364,2025-02-19 11h55.20.475069 -0500,
98,98,0,filler_random,None,None,None,None,None,None,None,None,None,None,2,1.1801576614379883,None,,,,,0,0,0,0,0,98,98,156,411.3348340988159,,,,,,,,,,,,,,,,,,,,,,,,,,,,,,,,,,,,,,,,,,,,,,,,,,,,,,,,,,,,,,,,,,,,,,,,,,,,,,,,,63.01842787139837,93.22994069140637,152.61132023600248,169.03100019491214,171.6028270841826,72.29739006967792,2.1,2.12,-227,-273,0,-283,217,284,411.3203511238098,411.3203909397125,411.3226068019867,411.3348340988159,411.48514556884766,411.48514556884766,411.48514556884766,411.48514556884766,411.48514556884766,411.48514556884766,411.48514556884766,412.519549369812,2,1.1801576614379883,None,,,,,,,,,,,,,,,,,,38,3,2025-02-19_11h55.10.598,comp,2024.2.4,60.07860932540364,2025-02-19 11h55.20.475069 -0500,
99,99,0,filler_square,None,None,None,None,None,None,None,None,None,None,2,0.811638355255127,None,,,,,0,0,0,0,0,99,99,193,412.5350081920624,,,,,,,,,,,,,,,,,,,,,,,,,,,,,,,,,,,,,,,,,,,,,,,,,,,,,,,,,,,,,,,,,,,,,,,,,,,,,,,,,137.3029143442402,58.372088798296076,158.73035214602146,158.73035214602146,135.83823614799147,91.88073787357101,2.2,2.22,-205,261,0,-276,221,-288,412.52058362960815,412.5206265449524,412.5231337547302,412.5350081920624,412.68516421318054,412.68516421318054,412.68516421318054,412.68516421318054,412.68516421318054,412.68516421318054,412.68516421318054,413.35292649269104,2,0.811638355255127,None,,,,,,,,,,,,,,,,,,38,3,2025-02-19_11h55.10.598,comp,2024.2.4,60.07860932540364,2025-02-19 11h55.20.475069 -0500,
100,100,0,critical,dwh,35.0,4.0,lower,70.0,70.0,57.0,133.0,133.0,57.0,2,7.753254175186157,None,,,,,0,0,0,0,0,100,100,64,413.36836290359497,,,,,,,,,,,,,,,,,,,,,,,,,,,,,,,,,,,,,,,,,,,,,,,,,,,,,,,,,,,,,,,,,,,,,,,,,,,,,,,,,70.0,70.0,57.0,133.0,133.0,57.0,4.0,4.2,-198,-6,0,-273,191,-10,413.35373854637146,413.3537814617157,413.3564627170563,413.36836290359497,413.51823902130127,413.51823902130127,413.51823902130127,413.51823902130127,413.51823902130127,413.51823902130127,413.51823902130127,421.1360385417938,2,7.753254175186157,None,,,,,,,,,,,,,,,,,,38,3,2025-02-19_11h55.10.598,comp,2024.2.4,60.07860932540364,2025-02-19 11h55.20.475069 -0500,
101,101,0,filler_random,None,None,None,None,None,None,None,None,None,None,3,1.4589598178863525,None,,,,,0,0,0,0,0,101,101,150,421.15149331092834,,,,,,,,,,,,,,,,,,,,,,,,,,,,,,,,,,,,,,,,,,,,,,,,,,,,,,,,,,,,,,,,,,,,,,,,,,,,,,,,,63.876112560387625,199.6412537861894,86.18392569596311,84.05914657326107,150.9192394889007,131.79833780039016,2.2,2.22,-238,287,0,-271,204,-273,421.1369423866272,421.13698291778564,421.1397228240967,421.15149331092834,421.30164647102356,421.30164647102356,421.30164647102356,421.30164647102356,421.30164647102356,421.30164647102356,421.30164647102356,422.6194152832031,3,1.4589598178863525,None,,,,,,,,,,,,,,,,,,38,3,2025-02-19_11h55.10.598,comp,2024.2.4,60.07860932540364,2025-02-19 11h55.20.475069 -0500,
102,102,0,critical,hwd,35.0,3.0,upper,200.0,125.0,125.0,200.0,127.0,127.0,2,2.0490965843200684,None,,,,,0,0,0,0,0,102,102,99,422.6349415779114,,,,,,,,,,,,,,,,,,,,,,,,,,,,,,,,,,,,,,,,,,,,,,,,,,,,,,,,,,,,,,,,,,,,,,,,,,,,,,,,,200.0,125.0,125.0,200.0,127.0,127.0,3.0,3.1,-258,256,0,-13,260,-251,422.62020683288574,422.62024760246277,422.62241768836975,422.6349415779114,422.78512144088745,422.78512144088745,422.78512144088745,422.78512144088745,422.78512144088745,422.78512144088745,422.78512144088745,424.68633246421814,2,2.0490965843200684,None,,,,,,,,,,,,,,,,,,38,3,2025-02-19_11h55.10.598,comp,2024.2.4,60.07860932540364,2025-02-19 11h55.20.475069 -0500,
103,103,0,catch,None,None,None,None,None,None,None,None,None,None,1,1.0044834613800049,None,,,,,0,0,0,0,0,103,103,126,424.70167684555054,,,,,,,,,,,,,,,,,,,,,,,,,,,,,,,,,,,,,,,,,,,,,,,,,,,,,,,,,,,,,,,,,,,,,,,,,,,,,,,,,156,169,118,72,72,118,2.2,2.22,-216,281,0,-289,191,-286,424.6874186992645,424.68747568130493,424.6896984577179,424.70167684555054,424.8515040874481,424.8515040874481,424.8515040874481,424.8515040874481,424.8515040874481,424.8515040874481,424.8515040874481,425.719379901886,1,1.0044834613800049,None,,,,,,,,,,,,,,,,,,38,3,2025-02-19_11h55.10.598,comp,2024.2.4,60.07860932540364,2025-02-19 11h55.20.475069 -0500,
104,104,0,critical,hwd,35.0,4.0,upper,200.0,125.0,125.0,200.0,127.0,127.0,2,2.643461227416992,None,,,,,0,0,0,0,0,104,104,101,425.7348418235779,,,,,,,,,,,,,,,,,,,,,,,,,,,,,,,,,,,,,,,,,,,,,,,,,,,,,,,,,,,,,,,,,,,,,,,,,,,,,,,,,200.0,125.0,125.0,200.0,127.0,127.0,4.0,4.2,-258,-1,0,-282,260,-17,425.7204370498657,425.7204895019531,425.7226359844208,425.7348418235779,425.88509130477905,425.88509130477905,425.88509130477905,425.88509130477905,425.88509130477905,425.88509130477905,425.88509130477905,428.38618183135986,2,2.643461227416992,None,,,,,,,,,,,,,,,,,,38,3,2025-02-19_11h55.10.598,comp,2024.2.4,60.07860932540364,2025-02-19 11h55.20.475069 -0500,
105,105,0,filler_square,None,None,None,None,None,None,None,None,None,None,2,3.313704013824463,None,,,,,0,0,0,0,0,105,105,183,428.4016659259796,,,,,,,,,,,,,,,,,,,,,,,,,,,,,,,,,,,,,,,,,,,,,,,,,,,,,,,,,,,,,,,,,,,,,,,,,,,,,,,,,87.46193212781701,83.87518514112622,97.60386950565268,97.60386950565268,81.24502584815458,89.05821155852979,1.0,1.3,293,-256,480,-253,669,-250,428.3871555328369,428.38719868659973,428.3893678188324,428.4016659259796,428.55157136917114,428.55157136917114,428.55157136917114,428.55157136917114,428.55157136917114,428.55157136917114,428.55157136917114,431.7194097042084,2,3.313704013824463,None,,,,,,,,,,,,,,,,,,38,3,2025-02-19_11h55.10.598,comp,2024.2.4,60.07860932540364,2025-02-19 11h55.20.475069 -0500,
106,106,0,critical,wdh,20.0,2.1,lower,57.0,133.0,78.0,78.0,133.0,57.0,1,7.738618850708008,None,,,,,0,0,0,0,0,106,106,10,431.73487186431885,,,,,,,,,,,,,,,,,,,,,,,,,,,,,,,,,,,,,,,,,,,,,,,,,,,,,,,,,,,,,,,,,,,,,,,,,,,,,,,,,57.0,133.0,78.0,78.0,133.0,57.0,2.1,2.12,-202,-250,0,-280,164,276,431.72017097473145,431.7202112674713,431.72246623039246,431.73487186431885,431.88480734825134,431.88480734825134,431.88480734825134,431.88480734825134,431.88480734825134,431.88480734825134,431.88480734825134,439.48591136932373,1,7.738618850708008,None,,,,,,,,,,,,,,,,,,38,3,2025-02-19_11h55.10.598,comp,2024.2.4,60.07860932540364,2025-02-19 11h55.20.475069 -0500,
107,107,0,critical,wdh,35.0,2.1,upper,125.0,200.0,127.0,127.0,200.0,125.0,1,1.813267707824707,None,,,,,0,0,0,0,0,107,107,33,439.5013897418976,,,,,,,,,,,,,,,,,,,,,,,,,,,,,,,,,,,,,,,,,,,,,,,,,,,,,,,,,,,,,,,,,,,,,,,,,,,,,,,,,125.0,200.0,127.0,127.0,200.0,125.0,2.1,2.12,-260,-284,0,-261,222,280,439.48673486709595,439.486775636673,439.4892899990082,439.5013897418976,439.65178775787354,439.65178775787354,439.65178775787354,439.65178775787354,439.65178775787354,439.65178775787354,439.65178775787354,441.3197765350342,1,1.813267707824707,None,,,,,,,,,,,,,,,,,,38,3,2025-02-19_11h55.10.598,comp,2024.2.4,60.07860932540364,2025-02-19 11h55.20.475069 -0500,
108,108,0,critical,wdh,35.0,2.1,upper,125.0,200.0,127.0,127.0,200.0,125.0,1,1.395246982574463,None,,,,,0,0,0,0,0,108,108,9,441.3349144458771,,,,,,,,,,,,,,,,,,,,,,,,,,,,,,,,,,,,,,,,,,,,,,,,,,,,,,,,,,,,,,,,,,,,,,,,,,,,,,,,,125.0,200.0,127.0,127.0,200.0,125.0,2.1,2.11,-260,282,0,259,222,-254,441.32053089141846,441.32057094573975,441.322637796402,441.3349144458771,441.48498463630676,441.48498463630676,441.48498463630676,441.48498463630676,441.48498463630676,441.48498463630676,441.48498463630676,442.7360770702362,1,1.395246982574463,None,,,,,,,,,,,,,,,,,,38,3,2025-02-19_11h55.10.598,comp,2024.2.4,60.07860932540364,2025-02-19 11h55.20.475069 -0500,
109,109,0,critical,hdw,20.0,2.1,upper,200.0,125.0,141.0,141.0,125.0,200.0,1,1.1785624027252197,None,,,,,0,0,0,0,0,109,109,47,442.7515609264374,,,,,,,,,,,,,,,,,,,,,,,,,,,,,,,,,,,,,,,,,,,,,,,,,,,,,,,,,,,,,,,,,,,,,,,,,,,,,,,,,200.0,125.0,141.0,141.0,125.0,200.0,2.1,2.11,-229,284,0,284,266,-263,442.7368667125702,442.73690819740295,442.7393720149994,442.7515609264374,442.9016737937927,442.9016737937927,442.9016737937927,442.9016737937927,442.9016737937927,442.9016737937927,442.9016737937927,443.9360942840576,1,1.1785624027252197,None,,,,,,,,,,,,,,,,,,38,3,2025-02-19_11h55.10.598,comp,2024.2.4,60.07860932540364,2025-02-19 11h55.20.475069 -0500,
110,110,0,critical,wdh,35.0,4.0,upper,125.0,200.0,127.0,127.0,200.0,125.0,3,2.7326340675354004,None,,,,,0,0,0,0,0,110,110,77,443.95152711868286,,,,,,,,,,,,,,,,,,,,,,,,,,,,,,,,,,,,,,,,,,,,,,,,,,,,,,,,,,,,,,,,,,,,,,,,,,,,,,,,,125.0,200.0,127.0,127.0,200.0,125.0,4.0,4.2,-260,14,0,-274,222,15,443.93689942359924,443.93694162368774,443.9394235610962,443.95152711868286,444.10181975364685,444.10181975364685,444.10181975364685,444.10181975364685,444.10181975364685,444.10181975364685,444.10181975364685,446.68613052368164,3,2.7326340675354004,None,,,,,,,,,,,,,,,,,,38,3,2025-02-19_11h55.10.598,comp,2024.2.4,60.07860932540364,2025-02-19 11h55.20.475069 -0500,
111,111,0,critical,hwd,35.0,1.0,lower,133.0,57.0,57.0,133.0,70.0,70.0,1,2.398193836212158,None,,,,,0,0,0,0,0,111,111,96,446.7015688419342,,,,,,,,,,,,,,,,,,,,,,,,,,,,,,,,,,,,,,,,,,,,,,,,,,,,,,,,,,,,,,,,,,,,,,,,,,,,,,,,,133.0,57.0,57.0,133.0,70.0,70.0,1.0,1.3,289,-275,480,-281,678,-268,446.686963558197,446.6870045661926,446.68917775154114,446.7015688419342,446.8514840602875,446.8514840602875,446.8514840602875,446.8514840602875,446.8514840602875,446.8514840602875,446.8514840602875,449.1025652885437,1,2.398193836212158,None,,,,,,,,,,,,,,,,,,38,3,2025-02-19_11h55.10.598,comp,2024.2.4,60.07860932540364,2025-02-19 11h55.20.475069 -0500,
112,112,0,catch,None,None,None,None,None,None,None,None,None,None,3,0.7658655643463135,None,,,,,0,0,0,0,0,112,112,121,449.1181640625,,,,,,,,,,,,,,,,,,,,,,,,,,,,,,,,,,,,,,,,,,,,,,,,,,,,,,,,,,,,,,,,,,,,,,,,,,,,,,,,,82,108,85,105,189,136,4.0,4.2,-202,3,0,-254,216,3,449.1036150455475,449.10365653038025,449.10582661628723,449.1181640625,449.26829648017883,449.26829648017883,449.26829648017883,449.26829648017883,449.26829648017883,449.26829648017883,449.26829648017883,449.8859510421753,3,0.7658655643463135,None,,,,,,,,,,,,,,,,,,38,3,2025-02-19_11h55.10.598,comp,2024.2.4,60.07860932540364,2025-02-19 11h55.20.475069 -0500,
113,113,0,critical,whd,35.0,2.1,upper,125.0,200.0,200.0,125.0,127.0,127.0,2,0.9502434730529785,None,,,,,0,0,0,0,0,113,113,37,449.90147161483765,,,,,,,,,,,,,,,,,,,,,,,,,,,,,,,,,,,,,,,,,,,,,,,,,,,,,,,,,,,,,,,,,,,,,,,,,,,,,,,,,125.0,200.0,200.0,125.0,127.0,127.0,2.1,2.11,-258,267,0,275,222,-285,449.88677954673767,449.88682198524475,449.889057636261,449.90147161483765,450.05154371261597,450.05154371261597,450.05154371261597,450.05154371261597,450.05154371261597,450.05154371261597,450.05154371261597,450.8529860973358,2,0.9502434730529785,None,,,,,,,,,,,,,,,,,,38,3,2025-02-19_11h55.10.598,comp,2024.2.4,60.07860932540364,2025-02-19 11h55.20.475069 -0500,
114,114,0,critical,dwh,35.0,3.0,upper,127.0,127.0,125.0,200.0,200.0,125.0,2,1.031524896621704,None,,,,,0,0,0,0,0,114,114,63,450.8681924343109,,,,,,,,,,,,,,,,,,,,,,,,,,,,,,,,,,,,,,,,,,,,,,,,,,,,,,,,,,,,,,,,,,,,,,,,,,,,,,,,,127.0,127.0,125.0,200.0,200.0,125.0,3.0,3.1,-260,277,0,17,258,-281,450.85378217697144,450.8538239002228,450.8559923171997,450.8681924343109,451.0182909965515,451.0182909965515,451.0182909965515,451.0182909965515,451.0182909965515,451.0182909965515,451.0182909965515,451.9028220176697,2,1.031524896621704,None,,,,,,,,,,,,,,,,,,38,3,2025-02-19_11h55.10.598,comp,2024.2.4,60.07860932540364,2025-02-19 11h55.20.475069 -0500,
115,115,0,catch,None,None,None,None,None,None,None,None,None,None,2,0.7655749320983887,None,,,,,0,0,0,0,0,115,115,122,451.91810274124146,,,,,,,,,,,,,,,,,,,,,,,,,,,,,,,,,,,,,,,,,,,,,,,,,,,,,,,,,,,,,,,,,,,,,,,,,,,,,,,,,99,91,177,148,129,61,3.0,3.2,-216,-286,0,1,200,260,451.903835773468,451.9038758277893,451.90592551231384,451.91810274124146,452.06810307502747,452.06810307502747,452.06810307502747,452.06810307502747,452.06810307502747,452.06810307502747,452.06810307502747,452.68606543540955,2,0.7655749320983887,None,,,,,,,,,,,,,,,,,,38,3,2025-02-19_11h55.10.598,comp,2024.2.4,60.07860932540364,2025-02-19 11h55.20.475069 -0500,
116,116,0,filler_random,None,None,None,None,None,None,None,None,None,None,3,2.182612657546997,None,,,,,0,0,0,0,0,116,116,167,452.7015142440796,,,,,,,,,,,,,,,,,,,,,,,,,,,,,,,,,,,,,,,,,,,,,,,,,,,,,,,,,,,,,,,,,,,,,,,,,,,,,,,,,153.31649392555272,80.37690889943715,143.2919144477408,123.50144941879418,158.54157840877727,170.86731383159525,3.0,3.2,-198,-273,0,-6,243,255,452.68699193000793,452.68703269958496,452.68919491767883,452.7015142440796,452.8515775203705,452.8515775203705,452.8515775203705,452.8515775203705,452.8515775203705,452.8515775203705,452.8515775203705,454.88612151145935,3,2.182612657546997,None,,,,,,,,,,,,,,,,,,38,3,2025-02-19_11h55.10.598,comp,2024.2.4,60.07860932540364,2025-02-19 11h55.20.475069 -0500,
117,117,0,critical,wdh,20.0,4.0,upper,125.0,200.0,141.0,141.0,200.0,125.0,1,0.8519744873046875,None,,,,,0,0,0,0,0,117,117,83,454.9015188217163,,,,,,,,,,,,,,,,,,,,,,,,,,,,,,,,,,,,,,,,,,,,,,,,,,,,,,,,,,,,,,,,,,,,,,,,,,,,,,,,,125.0,200.0,141.0,141.0,200.0,125.0,4.0,4.2,-266,-16,0,-256,229,10,454.8869135379791,454.88695526123047,454.8894188404083,454.9015188217163,455.0516197681427,455.0516197681427,455.0516197681427,455.0516197681427,455.0516197681427,455.0516197681427,455.0516197681427,455.76923847198486,1,0.8519744873046875,None,,,,,,,,,,,,,,,,,,38,3,2025-02-19_11h55.10.598,comp,2024.2.4,60.07860932540364,2025-02-19 11h55.20.475069 -0500,
118,118,0,critical,dhw,35.0,1.0,lower,70.0,70.0,133.0,57.0,57.0,133.0,1,6.304749965667725,None,,,,,0,0,0,0,0,118,118,48,455.7846348285675,,,,,,,,,,,,,,,,,,,,,,,,,,,,,,,,,,,,,,,,,,,,,,,,,,,,,,,,,,,,,,,,,,,,,,,,,,,,,,,,,70.0,70.0,133.0,57.0,57.0,133.0,1.0,1.1,-640,257,-480,250,-289,290,455.7700448036194,455.77008628845215,455.7726945877075,455.7846348285675,455.93460297584534,455.93460297584534,455.93460297584534,455.93460297584534,455.93460297584534,455.93460297584534,455.93460297584534,462.10249948501587,1,6.304749965667725,None,,,,,,,,,,,,,,,,,,38,3,2025-02-19_11h55.10.598,comp,2024.2.4,60.07860932540364,2025-02-19 11h55.20.475069 -0500,
119,119,0,critical,dwh,35.0,2.1,upper,127.0,127.0,125.0,200.0,200.0,125.0,2,2.187429904937744,None,,,,,0,0,0,0,0,119,119,5,462.11788153648376,,,,,,,,,,,,,,,,,,,,,,,,,,,,,,,,,,,,,,,,,,,,,,,,,,,,,,,,,,,,,,,,,,,,,,,,,,,,,,,,,127.0,127.0,125.0,200.0,200.0,125.0,2.1,2.11,-260,274,0,284,258,-275,462.10329008102417,462.1033308506012,462.1054775714874,462.11788153648376,462.26821517944336,462.26821517944336,462.26821517944336,462.26821517944336,462.26821517944336,462.26821517944336,462.26821517944336,464.3201789855957,2,2.187429904937744,None,,,,,,,,,,,,,,,,,,38,3,2025-02-19_11h55.10.598,comp,2024.2.4,60.07860932540364,2025-02-19 11h55.20.475069 -0500,
120,120,0,filler_square,None,None,None,None,None,None,None,None,None,None,3,1.10736083984375,None,,,,,0,0,0,0,0,120,120,189,464.33500242233276,,,,,,,,,,,,,,,,,,,,,,,,,,,,,,,,,,,,,,,,,,,,,,,,,,,,,,,,,,,,,,,,,,,,,,,,,,,,,,,,,110.68734220185732,126.22619040653319,59.15856065393145,86.56802315827233,129.27118605536762,129.27118605536762,4.0,4.1,-202,-272,0,-2,204,-258,464.32114124298096,464.32118344306946,464.32319712638855,464.33500242233276,464.48514437675476,464.48514437675476,464.48514437675476,464.48514437675476,464.48514437675476,464.48514437675476,464.48514437675476,465.4524233341217,3,1.10736083984375,None,,,,,,,,,,,,,,,,,,38,3,2025-02-19_11h55.10.598,comp,2024.2.4,60.07860932540364,2025-02-19 11h55.20.475069 -0500,
121,121,0,critical,whd,35.0,4.0,upper,125.0,200.0,200.0,125.0,127.0,127.0,1,2.917144536972046,None,,,,,0,0,0,0,0,121,121,89,465.4682877063751,,,,,,,,,,,,,,,,,,,,,,,,,,,,,,,,,,,,,,,,,,,,,,,,,,,,,,,,,,,,,,,,,,,,,,,,,,,,,,,,,125.0,200.0,200.0,125.0,127.0,127.0,4.0,4.2,-258,-3,0,-259,222,-16,465.45319724082947,465.4532370567322,465.45555567741394,465.4682877063751,465.61811351776123,465.61811351776123,465.61811351776123,465.61811351776123,465.61811351776123,465.61811351776123,465.61811351776123,468.4024429321289,1,2.917144536972046,None,,,,,,,,,,,,,,,,,,38,3,2025-02-19_11h55.10.598,comp,2024.2.4,60.07860932540364,2025-02-19 11h55.20.475069 -0500,
122,122,0,filler_square,None,None,None,None,None,None,None,None,None,None,3,0.7762298583984375,None,,,,,0,0,0,0,0,122,122,209,468.41782903671265,,,,,,,,,,,,,,,,,,,,,,,,,,,,,,,,,,,,,,,,,,,,,,,,,,,,,,,,,,,,,,,,,,,,,,,,,,,,,,,,,75.71245133960777,187.1496225820672,61.79114313042494,60.61076044358211,191.5736579954443,191.5736579954443,1.0,1.1,-700,288,-480,280,-258,265,468.4033980369568,468.4034402370453,468.40558409690857,468.41782903671265,468.5680491924286,468.5680491924286,468.5680491924286,468.5680491924286,468.5680491924286,468.5680491924286,468.5680491924286,469.2026171684265,3,0.7762298583984375,None,,,,,,,,,,,,,,,,,,38,3,2025-02-19_11h55.10.598,comp,2024.2.4,60.07860932540364,2025-02-19 11h55.20.475069 -0500,
123,123,0,critical,dwh,35.0,3.0,lower,70.0,70.0,57.0,133.0,133.0,57.0,3,5.465689182281494,None,,,,,0,0,0,0,0,123,123,62,469.2181043624878,,,,,,,,,,,,,,,,,,,,,,,,,,,,,,,,,,,,,,,,,,,,,,,,,,,,,,,,,,,,,,,,,,,,,,,,,,,,,,,,,70.0,70.0,57.0,133.0,133.0,57.0,3.0,3.1,-198,287,0,-16,191,-274,469.20339846611023,469.20343947410583,469.2058629989624,469.2181043624878,469.36781883239746,469.36781883239746,469.36781883239746,469.36781883239746,469.36781883239746,469.36781883239746,469.36781883239746,474.6858022212982,3,5.465689182281494,None,,,,,,,,,,,,,,,,,,38,3,2025-02-19_11h55.10.598,comp,2024.2.4,60.07860932540364,2025-02-19 11h55.20.475069 -0500,
124,124,0,filler_square,None,None,None,None,None,None,None,None,None,None,1,0.9716832637786865,None,,,,,0,0,0,0,0,124,124,199,474.7014684677124,,,,,,,,,,,,,,,,,,,,,,,,,,,,,,,,,,,,,,,,,,,,,,,,,,,,,,,,,,,,,,,,,,,,,,,,,,,,,,,,,102.83136039788116,102.83136039788116,75.52326053727599,75.77689038221354,83.23228075323608,59.66143549863893,3.0,3.2,-185,-264,0,-20,164,256,474.68679308891296,474.6868357658386,474.68898034095764,474.7014684677124,474.8511245250702,474.8511245250702,474.8511245250702,474.8511245250702,474.8511245250702,474.8511245250702,474.8511245250702,475.685772895813,1,0.9716832637786865,None,,,,,,,,,,,,,,,,,,38,3,2025-02-19_11h55.10.598,comp,2024.2.4,60.07860932540364,2025-02-19 11h55.20.475069 -0500,
125,125,0,critical,whd,35.0,2.1,lower,57.0,133.0,133.0,57.0,70.0,70.0,1,3.0140039920806885,None,,,,,0,0,0,0,0,125,125,12,475.70105934143066,,,,,,,,,,,,,,,,,,,,,,,,,,,,,,,,,,,,,,,,,,,,,,,,,,,,,,,,,,,,,,,,,,,,,,,,,,,,,,,,,57.0,133.0,133.0,57.0,70.0,70.0,2.1,2.12,-191,-266,0,-262,160,288,475.6865813732147,475.68662190437317,475.6890456676483,475.70105934143066,475.8513648509979,475.8513648509979,475.8513648509979,475.8513648509979,475.8513648509979,475.8513648509979,475.8513648509979,478.71909737586975,1,3.0140039920806885,None,,,,,,,,,,,,,,,,,,38,3,2025-02-19_11h55.10.598,comp,2024.2.4,60.07860932540364,2025-02-19 11h55.20.475069 -0500,
126,126,0,critical,wdh,35.0,3.0,upper,125.0,200.0,127.0,127.0,200.0,125.0,3,3.9949567317962646,None,,,,,0,0,0,0,0,126,126,75,478.7350010871887,,,,,,,,,,,,,,,,,,,,,,,,,,,,,,,,,,,,,,,,,,,,,,,,,,,,,,,,,,,,,,,,,,,,,,,,,,,,,,,,,125.0,200.0,127.0,127.0,200.0,125.0,3.0,3.1,-260,275,0,-10,222,-284,478.71989464759827,478.71993589401245,478.7221064567566,478.7350010871887,478.8847162723541,478.8847162723541,478.8847162723541,478.8847162723541,478.8847162723541,478.8847162723541,478.8847162723541,482.7357943058014,3,3.9949567317962646,None,,,,,,,,,,,,,,,,,,38,3,2025-02-19_11h55.10.598,comp,2024.2.4,60.07860932540364,2025-02-19 11h55.20.475069 -0500,
127,127,0,critical,wdh,35.0,2.1,lower,57.0,133.0,70.0,70.0,133.0,57.0,1,3.810441017150879,None,,,,,0,0,0,0,0,127,127,8,482.7515547275543,,,,,,,,,,,,,,,,,,,,,,,,,,,,,,,,,,,,,,,,,,,,,,,,,,,,,,,,,,,,,,,,,,,,,,,,,,,,,,,,,57.0,133.0,70.0,70.0,133.0,57.0,2.1,2.12,-198,-271,0,-251,160,278,482.73661947250366,482.73666286468506,482.7388696670532,482.7515547275543,482.9011914730072,482.9011914730072,482.9011914730072,482.9011914730072,482.9011914730072,482.9011914730072,482.9011914730072,486.56882071495056,1,3.810441017150879,None,,,,,,,,,,,,,,,,,,38,3,2025-02-19_11h55.10.598,comp,2024.2.4,60.07860932540364,2025-02-19 11h55.20.475069 -0500,
128,128,0,critical,dhw,20.0,3.0,lower,78.0,78.0,133.0,57.0,57.0,133.0,1,6.225528717041016,None,,,,,0,0,0,0,0,128,128,56,486.5845630168915,,,,,,,,,,,,,,,,,,,,,,,,,,,,,,,,,,,,,,,,,,,,,,,,,,,,,,,,,,,,,,,,,,,,,,,,,,,,,,,,,78.0,78.0,133.0,57.0,57.0,133.0,3.0,3.2,-164,-260,0,11,191,262,486.5697572231293,486.5697977542877,486.5720446109772,486.5845630168915,486.7344756126404,486.7344756126404,486.7344756126404,486.7344756126404,486.7344756126404,486.7344756126404,486.7344756126404,492.8188359737396,1,6.225528717041016,None,,,,,,,,,,,,,,,,,,38,3,2025-02-19_11h55.10.598,comp,2024.2.4,60.07860932540364,2025-02-19 11h55.20.475069 -0500,
129,129,0,critical,dwh,35.0,1.0,upper,127.0,127.0,125.0,200.0,200.0,125.0,3,0.6796417236328125,None,,,,,0,0,0,0,0,129,129,61,492.83455991744995,,,,,,,,,,,,,,,,,,,,,,,,,,,,,,,,,,,,,,,,,,,,,,,,,,,,,,,,,,,,,,,,,,,,,,,,,,,,,,,,,127.0,127.0,125.0,200.0,200.0,125.0,1.0,1.1,-740,278,-480,253,-222,265,492.8196334838867,492.8196768760681,492.82191228866577,492.83455991744995,492.984658241272,492.984658241272,492.984658241272,492.984658241272,492.984658241272,492.984658241272,492.984658241272,493.5191652774811,3,0.6796417236328125,None,,,,,,,,,,,,,,,,,,38,3,2025-02-19_11h55.10.598,comp,2024.2.4,60.07860932540364,2025-02-19 11h55.20.475069 -0500,
130,130,0,filler_square,None,None,None,None,None,None,None,None,None,None,1,0.8433926105499268,None,,,,,0,0,0,0,0,130,130,177,493.5345571041107,,,,,,,,,,,,,,,,,,,,,,,,,,,,,,,,,,,,,,,,,,,,,,,,,,,,,,,,,,,,,,,,,,,,,,,,,,,,,,,,,131.421983537097,131.421983537097,115.31382017017933,88.3831595713414,63.25610411262694,77.49439995830228,2.2,2.22,-206,259,0,-272,179,-279,493.520161151886,493.5202031135559,493.5226376056671,493.5345571041107,493.6845097541809,493.6845097541809,493.6845097541809,493.6845097541809,493.6845097541809,493.6845097541809,493.6845097541809,494.38553857803345,1,0.8433926105499268,None,,,,,,,,,,,,,,,,,,38,3,2025-02-19_11h55.10.598,comp,2024.2.4,60.07860932540364,2025-02-19 11h55.20.475069 -0500,
131,131,0,catch,None,None,None,None,None,None,None,None,None,None,3,0.8004472255706787,None,,,,,0,0,0,0,0,131,131,123,494.40122628211975,,,,,,,,,,,,,,,,,,,,,,,,,,,,,,,,,,,,,,,,,,,,,,,,,,,,,,,,,,,,,,,,,,,,,,,,,,,,,,,,,129,61,72,118,150,175,2.2,2.21,-186,-280,0,283,242,287,494.38660073280334,494.3866443634033,494.3888130187988,494.40122628211975,494.5511362552643,494.5511362552643,494.5511362552643,494.5511362552643,494.5511362552643,494.5511362552643,494.5511362552643,495.2188529968262,3,0.8004472255706787,None,,,,,,,,,,,,,,,,,,38,3,2025-02-19_11h55.10.598,comp,2024.2.4,60.07860932540364,2025-02-19 11h55.20.475069 -0500,
132,132,0,critical,hdw,20.0,2.1,lower,133.0,57.0,78.0,78.0,57.0,133.0,1,1.3508026599884033,None,,,,,0,0,0,0,0,132,132,22,495.23431062698364,,,,,,,,,,,,,,,,,,,,,,,,,,,,,,,,,,,,,,,,,,,,,,,,,,,,,,,,,,,,,,,,,,,,,,,,,,,,,,,,,133.0,57.0,78.0,78.0,57.0,133.0,2.1,2.11,-164,275,0,285,202,-273,495.2196624279022,495.2197048664093,495.22219371795654,495.23431062698364,495.38442850112915,495.38442850112915,495.38442850112915,495.38442850112915,495.38442850112915,495.38442850112915,495.38442850112915,496.60211062431335,1,1.3508026599884033,None,,,,,,,,,,,,,,,,,,38,3,2025-02-19_11h55.10.598,comp,2024.2.4,60.07860932540364,2025-02-19 11h55.20.475069 -0500,
133,133,0,critical,dhw,20.0,1.0,upper,141.0,141.0,200.0,125.0,125.0,200.0,2,4.217296838760376,None,,,,,0,0,0,0,0,133,133,55,496.6175639629364,,,,,,,,,,,,,,,,,,,,,,,,,,,,,,,,,,,,,,,,,,,,,,,,,,,,,,,,,,,,,,,,,,,,,,,,,,,,,,,,,141.0,141.0,200.0,125.0,125.0,200.0,1.0,1.1,-709,283,-480,287,-222,254,496.6029281616211,496.6029689311981,496.6055898666382,496.6175639629364,496.76798129081726,496.76798129081726,496.76798129081726,496.76798129081726,496.76798129081726,496.76798129081726,496.76798129081726,500.8360209465027,2,4.217296838760376,None,,,,,,,,,,,,,,,,,,38,3,2025-02-19_11h55.10.598,comp,2024.2.4,60.07860932540364,2025-02-19 11h55.20.475069 -0500,
134,134,0,critical,hwd,35.0,2.1,upper,200.0,125.0,125.0,200.0,127.0,127.0,2,2.4377851486206055,None,,,,,0,0,0,0,0,134,134,17,500.85121965408325,,,,,,,,,,,,,,,,,,,,,,,,,,,,,,,,,,,,,,,,,,,,,,,,,,,,,,,,,,,,,,,,,,,,,,,,,,,,,,,,,200.0,125.0,125.0,200.0,127.0,127.0,2.1,2.11,-258,265,0,284,260,-282,500.83679604530334,500.8368365764618,500.83922290802,500.85121965408325,501.0012197494507,501.0012197494507,501.0012197494507,501.0012197494507,501.0012197494507,501.0012197494507,501.0012197494507,503.3022847175598,2,2.4377851486206055,None,,,,,,,,,,,,,,,,,,38,3,2025-02-19_11h55.10.598,comp,2024.2.4,60.07860932540364,2025-02-19 11h55.20.475069 -0500,
135,135,0,critical,whd,20.0,2.1,upper,125.0,200.0,200.0,125.0,141.0,141.0,2,1.2281732559204102,None,,,,,0,0,0,0,0,135,135,15,503.31756925582886,,,,,,,,,,,,,,,,,,,,,,,,,,,,,,,,,,,,,,,,,,,,,,,,,,,,,,,,,,,,,,,,,,,,,,,,,,,,,,,,,125.0,200.0,200.0,125.0,141.0,141.0,2.1,2.12,-258,-267,0,-258,229,274,503.30309319496155,503.30313444137573,503.30572485923767,503.31756925582886,503.4682524204254,503.4682524204254,503.4682524204254,503.4682524204254,503.4682524204254,503.4682524204254,503.4682524204254,504.55243945121765,2,1.2281732559204102,None,,,,,,,,,,,,,,,,,,38,3,2025-02-19_11h55.10.598,comp,2024.2.4,60.07860932540364,2025-02-19 11h55.20.475069 -0500,
136,136,0,filler_square,None,None,None,None,None,None,None,None,None,None,2,1.12113356590271,None,,,,,0,0,0,0,0,136,136,203,504.5678312778473,,,,,,,,,,,,,,,,,,,,,,,,,,,,,,,,,,,,,,,,,,,,,,,,,,,,,,,,,,,,,,,,,,,,,,,,,,,,,,,,,101.37010441309275,121.88809535172949,145.0888360528302,145.0888360528302,94.84385638867909,112.56709769809439,2.2,2.22,-229,250,0,-271,225,-254,504.55340552330017,504.5534625053406,504.5560474395752,504.5678312778473,504.7177155017853,504.7177155017853,504.7177155017853,504.7177155017853,504.7177155017853,504.7177155017853,504.7177155017853,505.70211005210876,2,1.12113356590271,None,,,,,,,,,,,,,,,,,,38,3,2025-02-19_11h55.10.598,comp,2024.2.4,60.07860932540364,2025-02-19 11h55.20.475069 -0500,
137,137,0,filler_square,None,None,None,None,None,None,None,None,None,None,1,1.1009891033172607,None,,,,,0,0,0,0,0,137,137,197,505.717561006546,,,,,,,,,,,,,,,,,,,,,,,,,,,,,,,,,,,,,,,,,,,,,,,,,,,,,,,,,,,,,,,,,,,,,,,,,,,,,,,,,198.20993673656497,198.20993673656497,136.723691547663,125.50125939676293,92.4370963447247,86.87070282954703,3.0,3.2,-258,-251,0,1,202,265,505.7031161785126,505.7031581401825,505.7057521343231,505.717561006546,505.8679265975952,505.8679265975952,505.8679265975952,505.8679265975952,505.8679265975952,505.8679265975952,505.8679265975952,506.8356423377991,1,1.1009891033172607,None,,,,,,,,,,,,,,,,,,38,3,2025-02-19_11h55.10.598,comp,2024.2.4,60.07860932540364,2025-02-19 11h55.20.475069 -0500,
138,138,0,critical,hwd,20.0,1.0,upper,200.0,125.0,125.0,200.0,141.0,141.0,1,3.502336025238037,None,,,,,0,0,0,0,0,138,138,103,506.8508679866791,,,,,,,,,,,,,,,,,,,,,,,,,,,,,,,,,,,,,,,,,,,,,,,,,,,,,,,,,,,,,,,,,,,,,,,,,,,,,,,,,200.0,125.0,125.0,200.0,141.0,141.0,1.0,1.3,222,-258,480,-273,746,-280,506.8364272117615,506.83648204803467,506.83891201019287,506.8508679866791,507.00119280815125,507.00119280815125,507.00119280815125,507.00119280815125,507.00119280815125,507.00119280815125,507.00119280815125,510.369074344635,1,3.502336025238037,None,,,,,,,,,,,,,,,,,,38,3,2025-02-19_11h55.10.598,comp,2024.2.4,60.07860932540364,2025-02-19 11h55.20.475069 -0500,
139,139,0,critical,hdw,35.0,3.0,upper,200.0,125.0,127.0,127.0,125.0,200.0,1,1.54551362991333,None,,,,,0,0,0,0,0,139,139,111,510.38426518440247,,,,,,,,,,,,,,,,,,,,,,,,,,,,,,,,,,,,,,,,,,,,,,,,,,,,,,,,,,,,,,,,,,,,,,,,,,,,,,,,,200.0,125.0,127.0,127.0,125.0,200.0,3.0,3.2,-222,-251,0,-16,260,270,510.3698470592499,510.3698868751526,510.37235021591187,510.38426518440247,510.5345468521118,510.5345468521118,510.5345468521118,510.5345468521118,510.5345468521118,510.5345468521118,510.5345468521118,511.93560314178467,1,1.54551362991333,None,,,,,,,,,,,,,,,,,,38,3,2025-02-19_11h55.10.598,comp,2024.2.4,60.07860932540364,2025-02-19 11h55.20.475069 -0500,
140,140,0,critical,hwd,35.0,2.1,upper,200.0,125.0,125.0,200.0,127.0,127.0,2,1.417771816253662,None,,,,,0,0,0,0,0,140,140,41,511.9512188434601,,,,,,,,,,,,,,,,,,,,,,,,,,,,,,,,,,,,,,,,,,,,,,,,,,,,,,,,,,,,,,,,,,,,,,,,,,,,,,,,,200.0,125.0,125.0,200.0,127.0,127.0,2.1,2.11,-258,253,0,255,260,-264,511.9363925457001,511.93643283843994,511.9385941028595,511.9512188434601,512.101235628128,512.101235628128,512.101235628128,512.101235628128,512.101235628128,512.101235628128,512.101235628128,513.3855979442596,2,1.417771816253662,None,,,,,,,,,,,,,,,,,,38,3,2025-02-19_11h55.10.598,comp,2024.2.4,60.07860932540364,2025-02-19 11h55.20.475069 -0500,
