thisN,thisTrialN,thisRepN,effect,order,distance,config,diag,h_1,w_1,h_2,w_2,h_3,w_3,rect_choice.keys,rect_choice.rt,rect_choice.duration,instructions_loop.thisRepN,instructions_loop.thisTrialN,instructions_loop.thisN,instructions_loop.thisIndex,blocks.thisRepN,blocks.thisTrialN,blocks.thisN,blocks.thisIndex,trials.thisRepN,trials.thisTrialN,trials.thisN,trials.thisIndex,thisRow.t,notes,consent.started,agree_button.started,decline_button.started,consent_img.started,mouse.started,consent.stopped,agree_button.numClicks,agree_button.timesOn,agree_button.timesOff,decline_button.numClicks,decline_button.timesOn,decline_button.timesOff,mouse.x,mouse.y,mouse.leftButton,mouse.midButton,mouse.rightButton,mouse.time,mouse.clicked_name,exp_params.started,exp_params.stopped,welcome.started,welcome_text.started,welcome.stopped,instructions_1.started,instructions_1_text_1.started,instructions_1_text_2.started,key_resp.started,instructions_1.stopped,instructions_loop.key_resp.keys,instructions_loop.key_resp.rt,instructions_loop.key_resp.duration,instructions_2.started,instructions_2_text_1.started,instructions_2_text_2.started,key_resp_2.started,instructions_2.stopped,instructions_loop.key_resp_2.keys,instructions_loop.key_resp_2.rt,instructions_loop.key_resp_2.duration,instructions_3.started,instructions_3_text_1.started,r1_instr3.started,r2_instr3.started,r3_instr3.started,r1_instr3_label.started,r2_instr3_label.started,r3_instr3_label.started,instructions_3_text_3.started,instructions_3_text_4.started,key_resp_3.started,instructions_3.stopped,instructions_loop.key_resp_3.keys,instructions_loop.key_resp_3.rt,instructions_loop.key_resp_3.duration,instructions_4.started,instructions_4_text_1.started,instructions_4_text_3.started,instructions_4_text_2.started,key_resp_4.started,instructions_4.stopped,instructions_loop.key_resp_4.keys,instructions_loop.key_resp_4.rt,instructions_loop.key_resp_4.duration,instructions_5.started,instructions_5_text_1.started,instructions_5_text_2.started,key_resp_5.started,instructions_5.stopped,instructions_loop.key_resp_5.keys,instructions_loop.key_resp_5.rt,instructions_loop.key_resp_5.duration,start_exp.started,start_exp_text.started,key_resp_6.started,start_exp.stopped,key_resp_6.keys,key_resp_6.rt,key_resp_6.duration,h_1_tmp,w_1_tmp,h_2_tmp,w_2_tmp,h_3_tmp,w_3_tmp,config_tmp,config_tmp_1,r_1_x,r_1_y,r_2_x,r_2_y,r_3_x,r_3_y,pre_trial.started,pre_trial.stopped,choice_trial.started,rect_choice.started,r_1.started,r_2.started,r_3.started,r_1_label.started,r_2_label.started,r_3_label.started,prompt.started,choice_trial.stopped,trials.rect_choice.keys,trials.rect_choice.rt,trials.rect_choice.duration,end_block.started,end_block_text.started,end_block.stopped,end.started,end_text.started,key_resp_7.started,end.stopped,key_resp_7.keys,key_resp_7.rt,key_resp_7.duration,debriefing.started,debrief_form.started,end_debrief.started,debriefing.stopped,end_debrief.keys,end_debrief.rt,end_debrief.duration,participant,computer,date,expName,psychopyVersion,frameRate,expStart,
,,,,,,,,,,,,,,,,,,,,,,,,,,,,,,,0.014517545700073242,0.03493618965148926,0.03493618965148926,0.03493618965148926,0.014332056045532227,11.60080599784851,1,[11.563387155532837],[11.563410520553589],0,,,"[-379.0, -142.0, -84.0]","[-426.0, -522.0, -505.0]","[1, 1, 1]","[0, 0, 0]","[0, 0, 0]","[9.362384557723999, 10.74029016494751, 11.585725545883179]","[None, None, 'agree_button']",,,,,,,,,,,,,,,,,,,,,,,,,,,,,,,,,,,,,,,,,,,,,,,,,,,,,,,,,,,,,,,,,,,,,,,,,,,,,,,,,,,,,,,,,,,,,,,,,,,,,,,,,,,39,2,2025-02-19_12h00.40.617,comp,2024.2.4,57.47842317169098,2025-02-19 12h00.54.811809 -0500,
,,,,,,,,,,,,,,,,,,,,,,,,,,,,,,,,,,,,,,,,,,,,,,,,,,11.601475954055786,11.601547956466675,,,,,,,,,,,,,,,,,,,,,,,,,,,,,,,,,,,,,,,,,,,,,,,,,,,,,,,,,,,,,,,,,,,,,,,,,,,,,,,,,,,,,,,,,,,,,,,,,,,,,,,,,39,2,2025-02-19_12h00.40.617,comp,2024.2.4,57.47842317169098,2025-02-19 12h00.54.811809 -0500,
,,,,,,,,,,,,,,,,,,,,,,,,,,,,,,,,,,,,,,,,,,,,,,,,,,,,11.6015944480896,11.617180824279785,13.603134870529175,,,,,,,,,,,,,,,,,,,,,,,,,,,,,,,,,,,,,,,,,,,,,,,,,,,,,,,,,,,,,,,,,,,,,,,,,,,,,,,,,,,,,,,,,,,,,,,,,,,,,,39,2,2025-02-19_12h00.40.617,comp,2024.2.4,57.47842317169098,2025-02-19 12h00.54.811809 -0500,
0,0,0,,,,,,,,,,,,,,,0,0,0,0,,,,,,,,,13.621442794799805,,,,,,,,,,,,,,,,,,,,,,,,,,13.604091167449951,13.621442794799805,13.621442794799805,15.101924180984497,17.068959712982178,space,1.9616177082061768,None,17.069140911102295,17.08538246154785,17.08538246154785,18.56917977333069,28.257115602493286,space,9.685734987258911,None,28.257280111312866,28.28762984275818,28.28762984275818,28.28762984275818,28.28762984275818,28.28762984275818,28.28762984275818,28.28762984275818,28.28762984275818,28.28762984275818,29.768980026245117,31.907716274261475,space,2.1196045875549316,None,31.907881498336792,31.92481517791748,31.92481517791748,31.92481517791748,33.40701770782471,35.92482900619507,space,2.5039451122283936,None,35.92499017715454,35.94024729728699,35.94024729728699,37.42549419403076,37.658302307128906,space,0.22137975692749023,None,37.6585431098938,37.67414474487305,37.67414474487305,38.46150279045105,space,0.7735826969146729,None,,,,,,,,,,,,,,,,,,,,,,,,,,,,,,,,,,,,,,,,,,,,,,,39,2,2025-02-19_12h00.40.617,comp,2024.2.4,57.47842317169098,2025-02-19 12h00.54.811809 -0500,
0,0,0,filler_random,None,None,None,None,None,None,None,None,None,None,2,2.534959077835083,None,,,,,0,0,0,0,0,0,0,134,38.53652811050415,,,,,,,,,,,,,,,,,,,,,,,,,,,,,,,,,,,,,,,,,,,,,,,,,,,,,,,,,,,,,,,,,,,,,,,,,,,,,,,,,60.26104357266018,169.40526690061586,68.1917859794041,168.4888922201184,87.79816402542065,68.23194889990009,2.1,2.11,-265,282,0,269,214,-290,38.520368337631226,38.52039670944214,38.52137613296509,38.53652811050415,38.68348240852356,38.68348240852356,38.68348240852356,38.68348240852356,38.68348240852356,38.68348240852356,38.68348240852356,41.07446479797363,2,2.534959077835083,None,,,,,,,,,,,,,,,,,,39,2,2025-02-19_12h00.40.617,comp,2024.2.4,57.47842317169098,2025-02-19 12h00.54.811809 -0500,
1,1,0,filler_square,None,None,None,None,None,None,None,None,None,None,3,3.2198739051818848,None,,,,,0,0,0,0,0,1,1,205,41.09169673919678,,,,,,,,,,,,,,,,,,,,,,,,,,,,,,,,,,,,,,,,,,,,,,,,,,,,,,,,,,,,,,,,,,,,,,,,,,,,,,,,,77.29821669672624,77.29821669672624,57.713157281127636,74.63916546158009,75.07021498835859,64.4217493943282,3.0,3.1,-172,274,0,3,166,-280,41.07598948478699,41.07603168487549,41.07776427268982,41.09169673919678,41.22726225852966,41.22726225852966,41.22726225852966,41.22726225852966,41.22726225852966,41.22726225852966,41.22726225852966,44.32845854759216,3,3.2198739051818848,None,,,,,,,,,,,,,,,,,,39,2,2025-02-19_12h00.40.617,comp,2024.2.4,57.47842317169098,2025-02-19 12h00.54.811809 -0500,
2,2,0,critical,hwd,20.0,2.1,upper,200.0,125.0,125.0,200.0,141.0,141.0,1,3.794278144836426,None,,,,,0,0,0,0,0,2,2,43,44.3417444229126,,,,,,,,,,,,,,,,,,,,,,,,,,,,,,,,,,,,,,,,,,,,,,,,,,,,,,,,,,,,,,,,,,,,,,,,,,,,,,,,,200.0,125.0,125.0,200.0,141.0,141.0,2.1,2.12,-258,-255,0,-268,266,275,44.3299241065979,44.329993724823,44.332849979400635,44.3417444229126,44.493873834609985,44.493873834609985,44.493873834609985,44.493873834609985,44.493873834609985,44.493873834609985,44.493873834609985,48.14638066291809,1,3.794278144836426,None,,,,,,,,,,,,,,,,,,39,2,2025-02-19_12h00.40.617,comp,2024.2.4,57.47842317169098,2025-02-19 12h00.54.811809 -0500,
3,3,0,critical,dhw,20.0,2.1,upper,141.0,141.0,200.0,125.0,125.0,200.0,3,2.0199787616729736,None,,,,,0,0,0,0,0,3,3,27,48.16298842430115,,,,,,,,,,,,,,,,,,,,,,,,,,,,,,,,,,,,,,,,,,,,,,,,,,,,,,,,,,,,,,,,,,,,,,,,,,,,,,,,,141.0,141.0,200.0,125.0,125.0,200.0,2.1,2.11,-229,272,0,258,258,-268,48.148027658462524,48.14810609817505,48.152241706848145,48.16298842430115,48.30981373786926,48.30981373786926,48.30981373786926,48.30981373786926,48.30981373786926,48.30981373786926,48.30981373786926,50.1966392993927,3,2.0199787616729736,None,,,,,,,,,,,,,,,,,,39,2,2025-02-19_12h00.40.617,comp,2024.2.4,57.47842317169098,2025-02-19 12h00.54.811809 -0500,
4,4,0,critical,dhw,20.0,3.0,lower,78.0,78.0,133.0,57.0,57.0,133.0,3,4.614501476287842,None,,,,,0,0,0,0,0,4,4,56,50.216832399368286,,,,,,,,,,,,,,,,,,,,,,,,,,,,,,,,,,,,,,,,,,,,,,,,,,,,,,,,,,,,,,,,,,,,,,,,,,,,,,,,,78.0,78.0,133.0,57.0,57.0,133.0,3.0,3.2,-164,-263,0,-7,191,261,50.198302268981934,50.19846487045288,50.20178699493408,50.216832399368286,50.36329221725464,50.36329221725464,50.36329221725464,50.36329221725464,50.36329221725464,50.36329221725464,50.36329221725464,54.84800338745117,3,4.614501476287842,None,,,,,,,,,,,,,,,,,,39,2,2025-02-19_12h00.40.617,comp,2024.2.4,57.47842317169098,2025-02-19 12h00.54.811809 -0500,
5,5,0,filler_random,None,None,None,None,None,None,None,None,None,None,2,1.26352858543396,None,,,,,0,0,0,0,0,5,5,156,54.863905906677246,,,,,,,,,,,,,,,,,,,,,,,,,,,,,,,,,,,,,,,,,,,,,,,,,,,,,,,,,,,,,,,,,,,,,,,,,,,,,,,,,129.9634704710966,78.31588037253343,190.6220133207748,72.65314412207823,87.56079160081626,72.30433343657626,2.2,2.21,-171,-263,0,290,168,286,54.849766969680786,54.84984254837036,54.853267192840576,54.863905906677246,55.01427936553955,55.01427936553955,55.01427936553955,55.01427936553955,55.01427936553955,55.01427936553955,55.01427936553955,56.132319688797,2,1.26352858543396,None,,,,,,,,,,,,,,,,,,39,2,2025-02-19_12h00.40.617,comp,2024.2.4,57.47842317169098,2025-02-19 12h00.54.811809 -0500,
6,6,0,filler_random,None,None,None,None,None,None,None,None,None,None,1,1.8427879810333252,None,,,,,0,0,0,0,0,6,6,141,56.149046659469604,,,,,,,,,,,,,,,,,,,,,,,,,,,,,,,,,,,,,,,,,,,,,,,,,,,,,,,,,,,,,,,,,,,,,,,,,,,,,,,,,160.81539112222617,143.6237083256044,166.19651994053496,117.95737084233977,117.17700922035795,85.69480352432004,1.0,1.2,-227,7,0,-12,198,2,56.1339795589447,56.13405776023865,56.13805627822876,56.149046659469604,56.305808544158936,56.305808544158936,56.305808544158936,56.305808544158936,56.305808544158936,56.305808544158936,56.305808544158936,58.00003910064697,1,1.8427879810333252,None,,,,,,,,,,,,,,,,,,39,2,2025-02-19_12h00.40.617,comp,2024.2.4,57.47842317169098,2025-02-19 12h00.54.811809 -0500,
7,7,0,critical,hdw,20.0,2.1,lower,133.0,57.0,78.0,78.0,57.0,133.0,1,2.8783679008483887,None,,,,,0,0,0,0,0,7,7,22,58.01665472984314,,,,,,,,,,,,,,,,,,,,,,,,,,,,,,,,,,,,,,,,,,,,,,,,,,,,,,,,,,,,,,,,,,,,,,,,,,,,,,,,,133.0,57.0,78.0,78.0,57.0,133.0,2.1,2.12,-164,-264,0,-288,202,283,58.00164723396301,58.001723289489746,58.005051136016846,58.01665472984314,58.1658239364624,58.1658239364624,58.1658239364624,58.1658239364624,58.1658239364624,58.1658239364624,58.1658239364624,60.91137409210205,1,2.8783679008483887,None,,,,,,,,,,,,,,,,,,39,2,2025-02-19_12h00.40.617,comp,2024.2.4,57.47842317169098,2025-02-19 12h00.54.811809 -0500,
8,8,0,filler_random,None,None,None,None,None,None,None,None,None,None,3,1.3498921394348145,None,,,,,0,0,0,0,0,8,8,143,60.92916417121887,,,,,,,,,,,,,,,,,,,,,,,,,,,,,,,,,,,,,,,,,,,,,,,,,,,,,,,,,,,,,,,,,,,,,,,,,,,,,,,,,75.30750188365413,136.64475459848308,58.1329958316435,115.6749593738005,172.51142361257521,116.28026482227688,3.0,3.2,-222,-282,0,17,212,250,60.91307854652405,60.91320252418518,60.91646409034729,60.92916417121887,61.06484794616699,61.06484794616699,61.06484794616699,61.06484794616699,61.06484794616699,61.06484794616699,61.06484794616699,62.28957462310791,3,1.3498921394348145,None,,,,,,,,,,,,,,,,,,39,2,2025-02-19_12h00.40.617,comp,2024.2.4,57.47842317169098,2025-02-19 12h00.54.811809 -0500,
9,9,0,critical,hdw,20.0,3.0,lower,133.0,57.0,78.0,78.0,57.0,133.0,3,2.3337175846099854,None,,,,,0,0,0,0,0,9,9,116,62.30620551109314,,,,,,,,,,,,,,,,,,,,,,,,,,,,,,,,,,,,,,,,,,,,,,,,,,,,,,,,,,,,,,,,,,,,,,,,,,,,,,,,,133.0,57.0,78.0,78.0,57.0,133.0,3.0,3.1,-164,286,0,-10,202,-287,62.29121470451355,62.29129076004028,62.29449415206909,62.30620551109314,62.4533371925354,62.4533371925354,62.4533371925354,62.4533371925354,62.4533371925354,62.4533371925354,62.4533371925354,64.6584997177124,3,2.3337175846099854,None,,,,,,,,,,,,,,,,,,39,2,2025-02-19_12h00.40.617,comp,2024.2.4,57.47842317169098,2025-02-19 12h00.54.811809 -0500,
10,10,0,critical,wdh,20.0,1.0,upper,125.0,200.0,141.0,141.0,200.0,125.0,1,1.7817542552947998,None,,,,,0,0,0,0,0,10,10,79,64.67337727546692,,,,,,,,,,,,,,,,,,,,,,,,,,,,,,,,,,,,,,,,,,,,,,,,,,,,,,,,,,,,,,,,,,,,,,,,,,,,,,,,,125.0,200.0,141.0,141.0,200.0,125.0,1.0,1.3,214,-260,480,-287,709,-264,64.66008520126343,64.66016268730164,64.6630322933197,64.67337727546692,64.81811714172363,64.81811714172363,64.81811714172363,64.81811714172363,64.81811714172363,64.81811714172363,64.81811714172363,66.46970057487488,1,1.7817542552947998,None,,,,,,,,,,,,,,,,,,39,2,2025-02-19_12h00.40.617,comp,2024.2.4,57.47842317169098,2025-02-19 12h00.54.811809 -0500,
11,11,0,critical,wdh,20.0,2.1,lower,57.0,133.0,78.0,78.0,133.0,57.0,1,3.874150037765503,None,,,,,0,0,0,0,0,11,11,10,66.48494625091553,,,,,,,,,,,,,,,,,,,,,,,,,,,,,,,,,,,,,,,,,,,,,,,,,,,,,,,,,,,,,,,,,,,,,,,,,,,,,,,,,57.0,133.0,78.0,78.0,133.0,57.0,2.1,2.12,-202,-288,0,-283,164,270,66.47125697135925,66.47133111953735,66.4746663570404,66.48494625091553,66.64038753509521,66.64038753509521,66.64038753509521,66.64038753509521,66.64038753509521,66.64038753509521,66.64038753509521,70.36863827705383,1,3.874150037765503,None,,,,,,,,,,,,,,,,,,39,2,2025-02-19_12h00.40.617,comp,2024.2.4,57.47842317169098,2025-02-19 12h00.54.811809 -0500,
12,12,0,critical,whd,35.0,4.0,upper,125.0,200.0,200.0,125.0,127.0,127.0,2,1.7024235725402832,None,,,,,0,0,0,0,0,12,12,89,70.38528800010681,,,,,,,,,,,,,,,,,,,,,,,,,,,,,,,,,,,,,,,,,,,,,,,,,,,,,,,,,,,,,,,,,,,,,,,,,,,,,,,,,125.0,200.0,200.0,125.0,127.0,127.0,4.0,4.2,-258,12,0,-285,222,16,70.3702232837677,70.37030100822449,70.37361526489258,70.38528800010681,70.54316830635071,70.54316830635071,70.54316830635071,70.54316830635071,70.54316830635071,70.54316830635071,70.54316830635071,72.09449553489685,2,1.7024235725402832,None,,,,,,,,,,,,,,,,,,39,2,2025-02-19_12h00.40.617,comp,2024.2.4,57.47842317169098,2025-02-19 12h00.54.811809 -0500,
13,13,0,filler_square,None,None,None,None,None,None,None,None,None,None,3,1.4306514263153076,None,,,,,0,0,0,0,0,13,13,183,72.11335301399231,,,,,,,,,,,,,,,,,,,,,,,,,,,,,,,,,,,,,,,,,,,,,,,,,,,,,,,,,,,,,,,,,,,,,,,,,,,,,,,,,60.18940013279499,66.48329502521123,156.98279968473025,171.5033596932077,190.05456718289994,190.05456718289994,2.2,2.21,-215,-254,0,264,277,284,72.09631395339966,72.09638833999634,72.09918594360352,72.11335301399231,72.25050115585327,72.25050115585327,72.25050115585327,72.25050115585327,72.25050115585327,72.25050115585327,72.25050115585327,73.55499696731567,3,1.4306514263153076,None,,,,,,,,,,,,,,,,,,39,2,2025-02-19_12h00.40.617,comp,2024.2.4,57.47842317169098,2025-02-19 12h00.54.811809 -0500,
14,14,0,critical,wdh,20.0,3.0,upper,125.0,200.0,141.0,141.0,200.0,125.0,1,1.948477029800415,None,,,,,0,0,0,0,0,14,14,81,73.57056307792664,,,,,,,,,,,,,,,,,,,,,,,,,,,,,,,,,,,,,,,,,,,,,,,,,,,,,,,,,,,,,,,,,,,,,,,,,,,,,,,,,125.0,200.0,141.0,141.0,200.0,125.0,3.0,3.2,-266,-272,0,-18,229,250,73.5566508769989,73.55673170089722,73.55996441841125,73.57056307792664,73.72567200660706,73.72567200660706,73.72567200660706,73.72567200660706,73.72567200660706,73.72567200660706,73.72567200660706,75.52340483665466,1,1.948477029800415,None,,,,,,,,,,,,,,,,,,39,2,2025-02-19_12h00.40.617,comp,2024.2.4,57.47842317169098,2025-02-19 12h00.54.811809 -0500,
15,15,0,filler_square,None,None,None,None,None,None,None,None,None,None,2,2.131227493286133,None,,,,,0,0,0,0,0,15,15,176,75.53969883918762,,,,,,,,,,,,,,,,,,,,,,,,,,,,,,,,,,,,,,,,,,,,,,,,,,,,,,,,,,,,,,,,,,,,,,,,,,,,,,,,,62.903019745531495,57.01149963755137,65.25807233427886,65.25807233427886,60.06011084754576,60.424372824144676,1.0,1.3,323,-255,480,-268,639,-275,75.52586483955383,75.52600574493408,75.52897310256958,75.53969883918762,75.68579721450806,75.68579721450806,75.68579721450806,75.68579721450806,75.68579721450806,75.68579721450806,75.68579721450806,77.68821477890015,2,2.131227493286133,None,,,,,,,,,,,,,,,,,,39,2,2025-02-19_12h00.40.617,comp,2024.2.4,57.47842317169098,2025-02-19 12h00.54.811809 -0500,
16,16,0,critical,wdh,35.0,3.0,upper,125.0,200.0,127.0,127.0,200.0,125.0,1,1.8591935634613037,None,,,,,0,0,0,0,0,16,16,75,77.70854115486145,,,,,,,,,,,,,,,,,,,,,,,,,,,,,,,,,,,,,,,,,,,,,,,,,,,,,,,,,,,,,,,,,,,,,,,,,,,,,,,,,125.0,200.0,127.0,127.0,200.0,125.0,3.0,3.2,-260,-257,0,-13,222,281,77.68982863426208,77.68992280960083,77.6933605670929,77.70854115486145,77.85487580299377,77.85487580299377,77.85487580299377,77.85487580299377,77.85487580299377,77.85487580299377,77.85487580299377,79.57445478439331,1,1.8591935634613037,None,,,,,,,,,,,,,,,,,,39,2,2025-02-19_12h00.40.617,comp,2024.2.4,57.47842317169098,2025-02-19 12h00.54.811809 -0500,
17,17,0,critical,hwd,35.0,3.0,lower,133.0,57.0,57.0,133.0,70.0,70.0,2,1.7040026187896729,None,,,,,0,0,0,0,0,17,17,98,79.59106969833374,,,,,,,,,,,,,,,,,,,,,,,,,,,,,,,,,,,,,,,,,,,,,,,,,,,,,,,,,,,,,,,,,,,,,,,,,,,,,,,,,133.0,57.0,57.0,133.0,70.0,70.0,3.0,3.1,-191,258,0,-2,198,-263,79.57614850997925,79.57623147964478,79.58011174201965,79.59106969833374,79.74194931983948,79.74194931983948,79.74194931983948,79.74194931983948,79.74194931983948,79.74194931983948,79.74194931983948,81.30565762519836,2,1.7040026187896729,None,,,,,,,,,,,,,,,,,,39,2,2025-02-19_12h00.40.617,comp,2024.2.4,57.47842317169098,2025-02-19 12h00.54.811809 -0500,
18,18,0,critical,wdh,35.0,2.1,upper,125.0,200.0,127.0,127.0,200.0,125.0,1,1.4293334484100342,None,,,,,0,0,0,0,0,18,18,9,81.32250261306763,,,,,,,,,,,,,,,,,,,,,,,,,,,,,,,,,,,,,,,,,,,,,,,,,,,,,,,,,,,,,,,,,,,,,,,,,,,,,,,,,125.0,200.0,127.0,127.0,200.0,125.0,2.1,2.12,-260,-256,0,-255,222,263,81.30729079246521,81.3073832988739,81.3107635974884,81.32250261306763,81.47383689880371,81.47383689880371,81.47383689880371,81.47383689880371,81.47383689880371,81.47383689880371,81.47383689880371,82.75973200798035,1,1.4293334484100342,None,,,,,,,,,,,,,,,,,,39,2,2025-02-19_12h00.40.617,comp,2024.2.4,57.47842317169098,2025-02-19 12h00.54.811809 -0500,
19,19,0,filler_square,None,None,None,None,None,None,None,None,None,None,3,1.142246961593628,None,,,,,0,0,0,0,0,19,19,195,82.77743172645569,,,,,,,,,,,,,,,,,,,,,,,,,,,,,,,,,,,,,,,,,,,,,,,,,,,,,,,,,,,,,,,,,,,,,,,,,,,,,,,,,150.1535007390787,115.57957609661688,74.71682689377461,107.11756549898618,167.57548250073893,167.57548250073893,2.2,2.22,-207,282,0,-252,233,-269,82.76174473762512,82.76182460784912,82.76496720314026,82.77743172645569,82.92751789093018,82.92751789093018,82.92751789093018,82.92751789093018,82.92751789093018,82.92751789093018,82.92751789093018,83.92528438568115,3,1.142246961593628,None,,,,,,,,,,,,,,,,,,39,2,2025-02-19_12h00.40.617,comp,2024.2.4,57.47842317169098,2025-02-19 12h00.54.811809 -0500,
20,20,0,critical,whd,35.0,3.0,upper,125.0,200.0,200.0,125.0,127.0,127.0,1,1.2181675434112549,None,,,,,0,0,0,0,0,20,20,87,83.9409019947052,,,,,,,,,,,,,,,,,,,,,,,,,,,,,,,,,,,,,,,,,,,,,,,,,,,,,,,,,,,,,,,,,,,,,,,,,,,,,,,,,125.0,200.0,200.0,125.0,127.0,127.0,3.0,3.2,-258,-252,0,8,222,274,83.9268913269043,83.92697620391846,83.93026161193848,83.9409019947052,84.0933780670166,84.0933780670166,84.0933780670166,84.0933780670166,84.0933780670166,84.0933780670166,84.0933780670166,85.17379117012024,1,1.2181675434112549,None,,,,,,,,,,,,,,,,,,39,2,2025-02-19_12h00.40.617,comp,2024.2.4,57.47842317169098,2025-02-19 12h00.54.811809 -0500,
21,21,0,critical,dhw,35.0,2.1,upper,127.0,127.0,200.0,125.0,125.0,200.0,2,1.7654483318328857,None,,,,,0,0,0,0,0,21,21,25,85.19354748725891,,,,,,,,,,,,,,,,,,,,,,,,,,,,,,,,,,,,,,,,,,,,,,,,,,,,,,,,,,,,,,,,,,,,,,,,,,,,,,,,,127.0,127.0,200.0,125.0,125.0,200.0,2.1,2.12,-222,-288,0,-288,258,276,85.1753580570221,85.17546272277832,85.1788740158081,85.19354748725891,85.33202385902405,85.33202385902405,85.33202385902405,85.33202385902405,85.33202385902405,85.33202385902405,85.33202385902405,86.97500896453857,2,1.7654483318328857,None,,,,,,,,,,,,,,,,,,39,2,2025-02-19_12h00.40.617,comp,2024.2.4,57.47842317169098,2025-02-19 12h00.54.811809 -0500,
22,22,0,critical,dwh,35.0,1.0,upper,127.0,127.0,125.0,200.0,200.0,125.0,2,6.304593086242676,None,,,,,0,0,0,0,0,22,22,61,86.99050378799438,,,,,,,,,,,,,,,,,,,,,,,,,,,,,,,,,,,,,,,,,,,,,,,,,,,,,,,,,,,,,,,,,,,,,,,,,,,,,,,,,127.0,127.0,125.0,200.0,200.0,125.0,1.0,1.2,-260,2,0,-7,258,13,86.97657513618469,86.97666597366333,86.98013591766357,86.99050378799438,87.14188742637634,87.14188742637634,87.14188742637634,87.14188742637634,87.14188742637634,87.14188742637634,87.14188742637634,93.31053280830383,2,6.304593086242676,None,,,,,,,,,,,,,,,,,,39,2,2025-02-19_12h00.40.617,comp,2024.2.4,57.47842317169098,2025-02-19 12h00.54.811809 -0500,
23,23,0,critical,whd,35.0,2.1,upper,125.0,200.0,200.0,125.0,127.0,127.0,1,1.6660993099212646,None,,,,,0,0,0,0,0,23,23,37,93.32577180862427,,,,,,,,,,,,,,,,,,,,,,,,,,,,,,,,,,,,,,,,,,,,,,,,,,,,,,,,,,,,,,,,,,,,,,,,,,,,,,,,,125.0,200.0,200.0,125.0,127.0,127.0,2.1,2.11,-258,277,0,279,222,-269,93.31213307380676,93.31220936775208,93.31554698944092,93.32577180862427,93.47629499435425,93.47629499435425,93.47629499435425,93.47629499435425,93.47629499435425,93.47629499435425,93.47629499435425,94.994619846344,1,1.6660993099212646,None,,,,,,,,,,,,,,,,,,39,2,2025-02-19_12h00.40.617,comp,2024.2.4,57.47842317169098,2025-02-19 12h00.54.811809 -0500,
24,24,0,critical,hwd,20.0,4.0,lower,133.0,57.0,57.0,133.0,78.0,78.0,1,2.140876293182373,None,,,,,0,0,0,0,0,24,24,106,95.01095223426819,,,,,,,,,,,,,,,,,,,,,,,,,,,,,,,,,,,,,,,,,,,,,,,,,,,,,,,,,,,,,,,,,,,,,,,,,,,,,,,,,133.0,57.0,57.0,133.0,78.0,78.0,4.0,4.1,-191,-284,0,-7,202,-260,94.99613738059998,94.99621415138245,94.99984502792358,95.01095223426819,95.16008114814758,95.16008114814758,95.16008114814758,95.16008114814758,95.16008114814758,95.16008114814758,95.16008114814758,97.1621687412262,1,2.140876293182373,None,,,,,,,,,,,,,,,,,,39,2,2025-02-19_12h00.40.617,comp,2024.2.4,57.47842317169098,2025-02-19 12h00.54.811809 -0500,
25,25,0,critical,dwh,35.0,2.1,lower,70.0,70.0,57.0,133.0,133.0,57.0,2,1.2780168056488037,None,,,,,0,0,0,0,0,25,25,28,97.17788290977478,,,,,,,,,,,,,,,,,,,,,,,,,,,,,,,,,,,,,,,,,,,,,,,,,,,,,,,,,,,,,,,,,,,,,,,,,,,,,,,,,70.0,70.0,57.0,133.0,133.0,57.0,2.1,2.11,-198,269,0,289,191,-272,97.16373324394226,97.16381168365479,97.16713380813599,97.17788290977478,97.33273339271545,97.33273339271545,97.33273339271545,97.33273339271545,97.33273339271545,97.33273339271545,97.33273339271545,98.46239161491394,2,1.2780168056488037,None,,,,,,,,,,,,,,,,,,39,2,2025-02-19_12h00.40.617,comp,2024.2.4,57.47842317169098,2025-02-19 12h00.54.811809 -0500,
26,26,0,critical,dwh,20.0,4.0,upper,141.0,141.0,125.0,200.0,200.0,125.0,2,1.5363998413085938,None,,,,,0,0,0,0,0,26,26,71,98.47886276245117,,,,,,,,,,,,,,,,,,,,,,,,,,,,,,,,,,,,,,,,,,,,,,,,,,,,,,,,,,,,,,,,,,,,,,,,,,,,,,,,,141.0,141.0,125.0,200.0,200.0,125.0,4.0,4.2,-266,-13,0,-280,258,-19,98.46388936042786,98.46396613121033,98.46797037124634,98.47886276245117,98.627366065979,98.627366065979,98.627366065979,98.627366065979,98.627366065979,98.627366065979,98.627366065979,100.01837515830994,2,1.5363998413085938,None,,,,,,,,,,,,,,,,,,39,2,2025-02-19_12h00.40.617,comp,2024.2.4,57.47842317169098,2025-02-19 12h00.54.811809 -0500,
27,27,0,filler_random,None,None,None,None,None,None,None,None,None,None,3,2.486783027648926,None,,,,,0,0,0,0,0,27,27,146,100.03451871871948,,,,,,,,,,,,,,,,,,,,,,,,,,,,,,,,,,,,,,,,,,,,,,,,,,,,,,,,,,,,,,,,,,,,,,,,,,,,,,,,,87.27134153017177,158.85398470424133,75.22486374892873,131.85229885109683,148.02595385519078,194.23088455586623,1.0,1.1,-721,263,-480,259,-221,256,100.02019143104553,100.0203161239624,100.0235698223114,100.03451871871948,100.17849946022034,100.17849946022034,100.17849946022034,100.17849946022034,100.17849946022034,100.17849946022034,100.17849946022034,102.53977823257446,3,2.486783027648926,None,,,,,,,,,,,,,,,,,,39,2,2025-02-19_12h00.40.617,comp,2024.2.4,57.47842317169098,2025-02-19 12h00.54.811809 -0500,
28,28,0,critical,dhw,20.0,2.1,upper,141.0,141.0,200.0,125.0,125.0,200.0,2,1.374873161315918,None,,,,,0,0,0,0,0,28,28,3,102.56014323234558,,,,,,,,,,,,,,,,,,,,,,,,,,,,,,,,,,,,,,,,,,,,,,,,,,,,,,,,,,,,,,,,,,,,,,,,,,,,,,,,,141.0,141.0,200.0,125.0,125.0,200.0,2.1,2.12,-229,-279,0,-258,258,253,102.54137945175171,102.54148983955383,102.54483127593994,102.56014323234558,102.69672012329102,102.69672012329102,102.69672012329102,102.69672012329102,102.69672012329102,102.69672012329102,102.69672012329102,103.94603228569031,2,1.374873161315918,None,,,,,,,,,,,,,,,,,,39,2,2025-02-19_12h00.40.617,comp,2024.2.4,57.47842317169098,2025-02-19 12h00.54.811809 -0500,
29,29,0,filler_square,None,None,None,None,None,None,None,None,None,None,2,1.052138090133667,None,,,,,0,0,0,0,0,29,29,196,103.96295738220215,,,,,,,,,,,,,,,,,,,,,,,,,,,,,,,,,,,,,,,,,,,,,,,,,,,,,,,,,,,,,,,,,,,,,,,,,,,,,,,,,123.89351463834096,174.08851033817456,196.92347935505984,196.92347935505984,84.15037227991928,192.4926525730749,3.0,3.1,-282,282,0,9,291,-252,103.94798755645752,103.94806480407715,103.9512403011322,103.96295738220215,104.10354900360107,104.10354900360107,104.10354900360107,104.10354900360107,104.10354900360107,104.10354900360107,104.10354900360107,105.03085160255432,2,1.052138090133667,None,,,,,,,,,,,,,,,,,,39,2,2025-02-19_12h00.40.617,comp,2024.2.4,57.47842317169098,2025-02-19 12h00.54.811809 -0500,
30,30,0,critical,wdh,35.0,1.0,lower,57.0,133.0,70.0,70.0,133.0,57.0,1,1.2581286430358887,None,,,,,0,0,0,0,0,30,30,72,105.04643964767456,,,,,,,,,,,,,,,,,,,,,,,,,,,,,,,,,,,,,,,,,,,,,,,,,,,,,,,,,,,,,,,,,,,,,,,,,,,,,,,,,57.0,133.0,70.0,70.0,133.0,57.0,1.0,1.2,-198,-13,0,1,160,4,105.0325379371643,105.0326156616211,105.03607296943665,105.04643964767456,105.20313239097595,105.20313239097595,105.20313239097595,105.20313239097595,105.20313239097595,105.20313239097595,105.20313239097595,106.31475019454956,1,1.2581286430358887,None,,,,,,,,,,,,,,,,,,39,2,2025-02-19_12h00.40.617,comp,2024.2.4,57.47842317169098,2025-02-19 12h00.54.811809 -0500,
31,31,0,catch,None,None,None,None,None,None,None,None,None,None,1,1.2125413417816162,None,,,,,0,0,0,0,0,31,31,129,106.33146119117737,,,,,,,,,,,,,,,,,,,,,,,,,,,,,,,,,,,,,,,,,,,,,,,,,,,,,,,,,,,,,,,,,,,,,,,,,,,,,,,,,136,189,113,77,124,66,2.2,2.22,-229,266,0,-275,168,-258,106.31666254997253,106.31673908233643,106.32070803642273,106.33146119117737,106.48009133338928,106.48009133338928,106.48009133338928,106.48009133338928,106.48009133338928,106.48009133338928,106.48009133338928,107.5466480255127,1,1.2125413417816162,None,,,,,,,,,,,,,,,,,,39,2,2025-02-19_12h00.40.617,comp,2024.2.4,57.47842317169098,2025-02-19 12h00.54.811809 -0500,
32,32,0,critical,wdh,35.0,3.0,lower,57.0,133.0,70.0,70.0,133.0,57.0,1,1.6211035251617432,None,,,,,0,0,0,0,0,32,32,74,107.56206893920898,,,,,,,,,,,,,,,,,,,,,,,,,,,,,,,,,,,,,,,,,,,,,,,,,,,,,,,,,,,,,,,,,,,,,,,,,,,,,,,,,57.0,133.0,70.0,70.0,133.0,57.0,3.0,3.2,-198,-256,0,-11,160,287,107.5481595993042,107.54823541641235,107.55111479759216,107.56206893920898,107.72096252441406,107.72096252441406,107.72096252441406,107.72096252441406,107.72096252441406,107.72096252441406,107.72096252441406,109.18538117408752,1,1.6211035251617432,None,,,,,,,,,,,,,,,,,,39,2,2025-02-19_12h00.40.617,comp,2024.2.4,57.47842317169098,2025-02-19 12h00.54.811809 -0500,
33,33,0,filler_random,None,None,None,None,None,None,None,None,None,None,3,1.5397584438323975,None,,,,,0,0,0,0,0,33,33,150,109.20390582084656,,,,,,,,,,,,,,,,,,,,,,,,,,,,,,,,,,,,,,,,,,,,,,,,,,,,,,,,,,,,,,,,,,,,,,,,,,,,,,,,,161.13484284705288,132.9626023647793,84.96389359801526,192.67617512640032,175.1116676539623,154.8919743530064,3.0,3.2,-259,-256,0,0,270,289,109.18759608268738,109.18768811225891,109.19055438041687,109.20390582084656,109.35527300834656,109.35527300834656,109.35527300834656,109.35527300834656,109.35527300834656,109.35527300834656,109.35527300834656,110.74930930137634,3,1.5397584438323975,None,,,,,,,,,,,,,,,,,,39,2,2025-02-19_12h00.40.617,comp,2024.2.4,57.47842317169098,2025-02-19 12h00.54.811809 -0500,
34,34,0,critical,hdw,35.0,1.0,upper,200.0,125.0,127.0,127.0,125.0,200.0,1,1.161102294921875,None,,,,,0,0,0,0,0,34,34,109,110.76587462425232,,,,,,,,,,,,,,,,,,,,,,,,,,,,,,,,,,,,,,,,,,,,,,,,,,,,,,,,,,,,,,,,,,,,,,,,,,,,,,,,,200.0,125.0,127.0,127.0,125.0,200.0,1.0,1.3,258,-281,480,-256,740,-285,110.75089979171753,110.75097846984863,110.75418162345886,110.76587462425232,110.9160053730011,110.9160053730011,110.9160053730011,110.9160053730011,110.9160053730011,110.9160053730011,110.9160053730011,111.9392786026001,1,1.161102294921875,None,,,,,,,,,,,,,,,,,,39,2,2025-02-19_12h00.40.617,comp,2024.2.4,57.47842317169098,2025-02-19 12h00.54.811809 -0500,
35,35,0,critical,dwh,35.0,4.0,upper,127.0,127.0,125.0,200.0,200.0,125.0,3,2.093224048614502,None,,,,,0,0,0,0,0,35,35,65,111.95444297790527,,,,,,,,,,,,,,,,,,,,,,,,,,,,,,,,,,,,,,,,,,,,,,,,,,,,,,,,,,,,,,,,,,,,,,,,,,,,,,,,,127.0,127.0,125.0,200.0,200.0,125.0,4.0,4.2,-260,-3,0,-270,258,8,111.94081735610962,111.94089221954346,111.94368743896484,111.95444297790527,112.10095286369324,112.10095286369324,112.10095286369324,112.10095286369324,112.10095286369324,112.10095286369324,112.10095286369324,114.04997038841248,3,2.093224048614502,None,,,,,,,,,,,,,,,,,,39,2,2025-02-19_12h00.40.617,comp,2024.2.4,57.47842317169098,2025-02-19 12h00.54.811809 -0500,
36,36,0,critical,dhw,20.0,1.0,upper,141.0,141.0,200.0,125.0,125.0,200.0,2,1.259960412979126,None,,,,,0,0,0,0,0,36,36,55,114.06780314445496,,,,,,,,,,,,,,,,,,,,,,,,,,,,,,,,,,,,,,,,,,,,,,,,,,,,,,,,,,,,,,,,,,,,,,,,,,,,,,,,,141.0,141.0,200.0,125.0,125.0,200.0,1.0,1.2,-229,-19,0,11,258,-14,114.05144429206848,114.05152130126953,114.05466508865356,114.06780314445496,114.21665215492249,114.21665215492249,114.21665215492249,114.21665215492249,114.21665215492249,114.21665215492249,114.21665215492249,115.33313655853271,2,1.259960412979126,None,,,,,,,,,,,,,,,,,,39,2,2025-02-19_12h00.40.617,comp,2024.2.4,57.47842317169098,2025-02-19 12h00.54.811809 -0500,
37,37,0,filler_random,None,None,None,None,None,None,None,None,None,None,1,1.4631826877593994,None,,,,,0,0,0,0,0,37,37,144,115.35984659194946,,,,,,,,,,,,,,,,,,,,,,,,,,,,,,,,,,,,,,,,,,,,,,,,,,,,,,,,,,,,,,,,,,,,,,,,,,,,,,,,,171.718084491942,91.25926842066211,158.80749715161159,149.45390357205955,141.3513471401733,77.2464713808225,2.1,2.12,-216,-262,0,-273,209,287,115.33507633209229,115.33518290519714,115.33840489387512,115.35984659194946,115.50085997581482,115.50085997581482,115.50085997581482,115.50085997581482,115.50085997581482,115.50085997581482,115.50085997581482,116.83487391471863,1,1.4631826877593994,None,,,,,,,,,,,,,,,,,,39,2,2025-02-19_12h00.40.617,comp,2024.2.4,57.47842317169098,2025-02-19 12h00.54.811809 -0500,
38,38,0,critical,hwd,20.0,1.0,lower,133.0,57.0,57.0,133.0,78.0,78.0,2,2.1731152534484863,None,,,,,0,0,0,0,0,38,38,102,116.85035276412964,,,,,,,,,,,,,,,,,,,,,,,,,,,,,,,,,,,,,,,,,,,,,,,,,,,,,,,,,,,,,,,,,,,,,,,,,,,,,,,,,133.0,57.0,57.0,133.0,78.0,78.0,1.0,1.3,289,-277,480,-274,682,-271,116.83639621734619,116.83649682998657,116.83933711051941,116.85035276412964,117.0020546913147,117.0020546913147,117.0020546913147,117.0020546913147,117.0020546913147,117.0020546913147,117.0020546913147,119.03546619415283,2,2.1731152534484863,None,,,,,,,,,,,,,,,,,,39,2,2025-02-19_12h00.40.617,comp,2024.2.4,57.47842317169098,2025-02-19 12h00.54.811809 -0500,
39,39,0,critical,dwh,20.0,4.0,lower,78.0,78.0,57.0,133.0,133.0,57.0,2,1.188445806503296,None,,,,,0,0,0,0,0,39,39,70,119.05077767372131,,,,,,,,,,,,,,,,,,,,,,,,,,,,,,,,,,,,,,,,,,,,,,,,,,,,,,,,,,,,,,,,,,,,,,,,,,,,,,,,,78.0,78.0,57.0,133.0,133.0,57.0,4.0,4.1,-202,-251,0,10,191,-254,119.03700304031372,119.03707695007324,119.0404486656189,119.05077767372131,119.20250463485718,119.20250463485718,119.20250463485718,119.20250463485718,119.20250463485718,119.20250463485718,119.20250463485718,120.2578661441803,2,1.188445806503296,None,,,,,,,,,,,,,,,,,,39,2,2025-02-19_12h00.40.617,comp,2024.2.4,57.47842317169098,2025-02-19 12h00.54.811809 -0500,
40,40,0,critical,hdw,35.0,3.0,lower,133.0,57.0,70.0,70.0,57.0,133.0,2,1.3776981830596924,None,,,,,0,0,0,0,0,40,40,110,120.2774384021759,,,,,,,,,,,,,,,,,,,,,,,,,,,,,,,,,,,,,,,,,,,,,,,,,,,,,,,,,,,,,,,,,,,,,,,,,,,,,,,,,133.0,57.0,70.0,70.0,57.0,133.0,3.0,3.2,-160,-266,0,-18,198,259,120.25936889648438,120.25946426391602,120.26222896575928,120.2774384021759,120.41862440109253,120.41862440109253,120.41862440109253,120.41862440109253,120.41862440109253,120.41862440109253,120.41862440109253,121.6699287891388,2,1.3776981830596924,None,,,,,,,,,,,,,,,,,,39,2,2025-02-19_12h00.40.617,comp,2024.2.4,57.47842317169098,2025-02-19 12h00.54.811809 -0500,
41,41,0,critical,whd,35.0,2.1,upper,125.0,200.0,200.0,125.0,127.0,127.0,2,1.3130135536193848,None,,,,,0,0,0,0,0,41,41,13,121.68730568885803,,,,,,,,,,,,,,,,,,,,,,,,,,,,,,,,,,,,,,,,,,,,,,,,,,,,,,,,,,,,,,,,,,,,,,,,,,,,,,,,,125.0,200.0,200.0,125.0,127.0,127.0,2.1,2.11,-258,273,0,273,222,-273,121.67153143882751,121.6716103553772,121.6747567653656,121.68730568885803,121.8350601196289,121.8350601196289,121.8350601196289,121.8350601196289,121.8350601196289,121.8350601196289,121.8350601196289,123.00383281707764,2,1.3130135536193848,None,,,,,,,,,,,,,,,,,,39,2,2025-02-19_12h00.40.617,comp,2024.2.4,57.47842317169098,2025-02-19 12h00.54.811809 -0500,
42,42,0,filler_random,None,None,None,None,None,None,None,None,None,None,2,1.0874104499816895,None,,,,,0,0,0,0,0,42,42,149,123.02438068389893,,,,,,,,,,,,,,,,,,,,,,,,,,,,,,,,,,,,,,,,,,,,,,,,,,,,,,,,,,,,,,,,,,,,,,,,,,,,,,,,,132.2907836550928,143.7051903730955,174.51327349018752,138.24508081376192,116.7556595314156,118.14159973623475,2.2,2.21,-237,-283,0,278,224,287,123.00575017929077,123.00583124160767,123.00960516929626,123.02438068389893,123.17025780677795,123.17025780677795,123.17025780677795,123.17025780677795,123.17025780677795,123.17025780677795,123.17025780677795,124.11761260032654,2,1.0874104499816895,None,,,,,,,,,,,,,,,,,,39,2,2025-02-19_12h00.40.617,comp,2024.2.4,57.47842317169098,2025-02-19 12h00.54.811809 -0500,
43,43,0,critical,dhw,20.0,2.1,lower,78.0,78.0,133.0,57.0,57.0,133.0,3,1.8988816738128662,None,,,,,0,0,0,0,0,43,43,26,124.13282632827759,,,,,,,,,,,,,,,,,,,,,,,,,,,,,,,,,,,,,,,,,,,,,,,,,,,,,,,,,,,,,,,,,,,,,,,,,,,,,,,,,78.0,78.0,133.0,57.0,57.0,133.0,2.1,2.12,-164,-272,0,-271,191,289,124.11915302276611,124.11923408508301,124.12209916114807,124.13282632827759,124.28902578353882,124.28902578353882,124.28902578353882,124.28902578353882,124.28902578353882,124.28902578353882,124.28902578353882,126.04013109207153,3,1.8988816738128662,None,,,,,,,,,,,,,,,,,,39,2,2025-02-19_12h00.40.617,comp,2024.2.4,57.47842317169098,2025-02-19 12h00.54.811809 -0500,
44,44,0,critical,hwd,35.0,4.0,upper,200.0,125.0,125.0,200.0,127.0,127.0,2,1.1436161994934082,None,,,,,0,0,0,0,0,44,44,101,126.05606126785278,,,,,,,,,,,,,,,,,,,,,,,,,,,,,,,,,,,,,,,,,,,,,,,,,,,,,,,,,,,,,,,,,,,,,,,,,,,,,,,,,200.0,125.0,125.0,200.0,127.0,127.0,4.0,4.1,-258,-252,0,11,260,-267,126.04177951812744,126.04186224937439,126.04526019096375,126.05606126785278,126.2047758102417,126.2047758102417,126.2047758102417,126.2047758102417,126.2047758102417,126.2047758102417,126.2047758102417,127.20539903640747,2,1.1436161994934082,None,,,,,,,,,,,,,,,,,,39,2,2025-02-19_12h00.40.617,comp,2024.2.4,57.47842317169098,2025-02-19 12h00.54.811809 -0500,
45,45,0,catch,None,None,None,None,None,None,None,None,None,None,3,1.2649991512298584,None,,,,,0,0,0,0,0,45,45,126,127.22215151786804,,,,,,,,,,,,,,,,,,,,,,,,,,,,,,,,,,,,,,,,,,,,,,,,,,,,,,,,,,,,,,,,,,,,,,,,,,,,,,,,,133,57,122,68,194,131,3.0,3.1,-158,273,0,6,196,-252,127.2075743675232,127.20765471458435,127.21103239059448,127.22215151786804,127.37163043022156,127.37163043022156,127.37163043022156,127.37163043022156,127.37163043022156,127.37163043022156,127.37163043022156,128.50343537330627,3,1.2649991512298584,None,,,,,,,,,,,,,,,,,,39,2,2025-02-19_12h00.40.617,comp,2024.2.4,57.47842317169098,2025-02-19 12h00.54.811809 -0500,
46,46,0,filler_square,None,None,None,None,None,None,None,None,None,None,1,1.3998253345489502,None,,,,,0,0,0,0,0,46,46,194,128.51951098442078,,,,,,,,,,,,,,,,,,,,,,,,,,,,,,,,,,,,,,,,,,,,,,,,,,,,,,,,,,,,,,,,,,,,,,,,,,,,,,,,,73.26049311015106,74.16438841632666,72.22594738586386,67.2510451546274,74.8458452989405,74.8458452989405,2.2,2.21,-167,-256,0,269,167,285,128.50518155097961,128.5052568912506,128.50822806358337,128.51951098442078,128.66823744773865,128.66823744773865,128.66823744773865,128.66823744773865,128.66823744773865,128.66823744773865,128.66823744773865,129.9230182170868,1,1.3998253345489502,None,,,,,,,,,,,,,,,,,,39,2,2025-02-19_12h00.40.617,comp,2024.2.4,57.47842317169098,2025-02-19 12h00.54.811809 -0500,
47,47,0,critical,hwd,35.0,3.0,upper,200.0,125.0,125.0,200.0,127.0,127.0,2,5.226909637451172,None,,,,,0,0,0,0,0,47,47,99,129.94090914726257,,,,,,,,,,,,,,,,,,,,,,,,,,,,,,,,,,,,,,,,,,,,,,,,,,,,,,,,,,,,,,,,,,,,,,,,,,,,,,,,,200.0,125.0,125.0,200.0,127.0,127.0,3.0,3.1,-258,267,0,-18,260,-265,129.9245891571045,129.9246690273285,129.9279067516327,129.94090914726257,130.09847593307495,130.09847593307495,130.09847593307495,130.09847593307495,130.09847593307495,130.09847593307495,130.09847593307495,135.17370104789734,2,5.226909637451172,None,,,,,,,,,,,,,,,,,,39,2,2025-02-19_12h00.40.617,comp,2024.2.4,57.47842317169098,2025-02-19 12h00.54.811809 -0500,
48,48,0,filler_square,None,None,None,None,None,None,None,None,None,None,3,1.665067195892334,None,,,,,0,0,0,0,0,48,48,201,135.19003176689148,,,,,,,,,,,,,,,,,,,,,,,,,,,,,,,,,,,,,,,,,,,,,,,,,,,,,,,,,,,,,,,,,,,,,,,,,,,,,,,,,63.89560087474008,136.35642482286352,145.4594224763007,102.29622699158999,168.33569371413984,168.33569371413984,1.0,1.2,-215,-4,0,-7,231,-10,135.17555212974548,135.17563366889954,135.17891693115234,135.19003176689148,135.34091639518738,135.34091639518738,135.34091639518738,135.34091639518738,135.34091639518738,135.34091639518738,135.34091639518738,136.86933016777039,3,1.665067195892334,None,,,,,,,,,,,,,,,,,,39,2,2025-02-19_12h00.40.617,comp,2024.2.4,57.47842317169098,2025-02-19 12h00.54.811809 -0500,
49,49,0,critical,dwh,20.0,3.0,upper,141.0,141.0,125.0,200.0,200.0,125.0,2,1.1673080921173096,None,,,,,0,0,0,0,0,49,49,69,136.88776087760925,,,,,,,,,,,,,,,,,,,,,,,,,,,,,,,,,,,,,,,,,,,,,,,,,,,,,,,,,,,,,,,,,,,,,,,,,,,,,,,,,141.0,141.0,125.0,200.0,200.0,125.0,3.0,3.2,-266,-281,0,7,258,269,136.87108731269836,136.87120389938354,136.87452220916748,136.88776087760925,137.02420163154602,137.02420163154602,137.02420163154602,137.02420163154602,137.02420163154602,137.02420163154602,137.02420163154602,138.06678438186646,2,1.1673080921173096,None,,,,,,,,,,,,,,,,,,39,2,2025-02-19_12h00.40.617,comp,2024.2.4,57.47842317169098,2025-02-19 12h00.54.811809 -0500,
50,50,0,critical,dwh,35.0,4.0,lower,70.0,70.0,57.0,133.0,133.0,57.0,2,0.7796127796173096,None,,,,,0,0,0,0,0,50,50,64,138.08348107337952,,,,,,,,,,,,,,,,,,,,,,,,,,,,,,,,,,,,,,,,,,,,,,,,,,,,,,,,,,,,,,,,,,,,,,,,,,,,,,,,,70.0,70.0,57.0,133.0,133.0,57.0,4.0,4.1,-198,-253,0,19,191,-262,138.06825256347656,138.06832766532898,138.0711419582367,138.08348107337952,138.22490000724792,138.22490000724792,138.22490000724792,138.22490000724792,138.22490000724792,138.22490000724792,138.22490000724792,138.87815833091736,2,0.7796127796173096,None,,,,,,,,,,,,,,,,,,39,2,2025-02-19_12h00.40.617,comp,2024.2.4,57.47842317169098,2025-02-19 12h00.54.811809 -0500,
51,51,0,filler_square,None,None,None,None,None,None,None,None,None,None,1,0.877932071685791,None,,,,,0,0,0,0,0,51,51,178,138.89716958999634,,,,,,,,,,,,,,,,,,,,,,,,,,,,,,,,,,,,,,,,,,,,,,,,,,,,,,,,,,,,,,,,,,,,,,,,,,,,,,,,,189.8592625098364,189.8592625098364,68.9216360637761,153.9840155062435,137.83131149566486,60.4448426103393,4.0,4.2,-268,7,0,-261,203,12,138.8800754547119,138.88016748428345,138.8831651210785,138.89716958999634,139.04037833213806,139.04037833213806,139.04037833213806,139.04037833213806,139.04037833213806,139.04037833213806,139.04037833213806,139.791499376297,1,0.877932071685791,None,,,,,,,,,,,,,,,,,,39,2,2025-02-19_12h00.40.617,comp,2024.2.4,57.47842317169098,2025-02-19 12h00.54.811809 -0500,
52,52,0,critical,hwd,35.0,4.0,lower,133.0,57.0,57.0,133.0,70.0,70.0,2,1.0251502990722656,None,,,,,0,0,0,0,0,52,52,100,139.80672645568848,,,,,,,,,,,,,,,,,,,,,,,,,,,,,,,,,,,,,,,,,,,,,,,,,,,,,,,,,,,,,,,,,,,,,,,,,,,,,,,,,133.0,57.0,57.0,133.0,70.0,70.0,4.0,4.2,-191,-20,0,-269,198,19,139.79300665855408,139.79308080673218,139.7964334487915,139.80672645568848,139.9464545249939,139.9464545249939,139.9464545249939,139.9464545249939,139.9464545249939,139.9464545249939,139.9464545249939,140.84269762039185,2,1.0251502990722656,None,,,,,,,,,,,,,,,,,,39,2,2025-02-19_12h00.40.617,comp,2024.2.4,57.47842317169098,2025-02-19 12h00.54.811809 -0500,
53,53,0,critical,dhw,20.0,4.0,upper,141.0,141.0,200.0,125.0,125.0,200.0,3,1.710190773010254,None,,,,,0,0,0,0,0,53,53,59,140.85866379737854,,,,,,,,,,,,,,,,,,,,,,,,,,,,,,,,,,,,,,,,,,,,,,,,,,,,,,,,,,,,,,,,,,,,,,,,,,,,,,,,,141.0,141.0,200.0,125.0,125.0,200.0,4.0,4.2,-229,11,0,-273,258,8,140.84434580802917,140.84446001052856,140.84792494773865,140.85866379737854,141.0099494457245,141.0099494457245,141.0099494457245,141.0099494457245,141.0099494457245,141.0099494457245,141.0099494457245,142.5745816230774,3,1.710190773010254,None,,,,,,,,,,,,,,,,,,39,2,2025-02-19_12h00.40.617,comp,2024.2.4,57.47842317169098,2025-02-19 12h00.54.811809 -0500,
54,54,0,filler_square,None,None,None,None,None,None,None,None,None,None,1,0.9271240234375,None,,,,,0,0,0,0,0,54,54,192,142.59271359443665,,,,,,,,,,,,,,,,,,,,,,,,,,,,,,,,,,,,,,,,,,,,,,,,,,,,,,,,,,,,,,,,,,,,,,,,,,,,,,,,,66.46123809862893,66.46123809862893,60.433813402761736,62.119805075036275,64.10243657576369,66.11793861695429,2.2,2.21,-160,-289,0,276,160,279,142.5764410495758,142.57652854919434,142.57968378067017,142.59271359443665,142.74525046348572,142.74525046348572,142.74525046348572,142.74525046348572,142.74525046348572,142.74525046348572,142.74525046348572,143.52637124061584,1,0.9271240234375,None,,,,,,,,,,,,,,,,,,39,2,2025-02-19_12h00.40.617,comp,2024.2.4,57.47842317169098,2025-02-19 12h00.54.811809 -0500,
55,55,0,critical,hdw,20.0,4.0,upper,200.0,125.0,141.0,141.0,125.0,200.0,1,1.095482349395752,None,,,,,0,0,0,0,0,55,55,119,143.54371309280396,,,,,,,,,,,,,,,,,,,,,,,,,,,,,,,,,,,,,,,,,,,,,,,,,,,,,,,,,,,,,,,,,,,,,,,,,,,,,,,,,200.0,125.0,141.0,141.0,125.0,200.0,4.0,4.1,-229,-265,0,9,266,-279,143.52789878845215,143.52797722816467,143.53112030029297,143.54371309280396,143.69716501235962,143.69716501235962,143.69716501235962,143.69716501235962,143.69716501235962,143.69716501235962,143.69716501235962,144.64323687553406,1,1.095482349395752,None,,,,,,,,,,,,,,,,,,39,2,2025-02-19_12h00.40.617,comp,2024.2.4,57.47842317169098,2025-02-19 12h00.54.811809 -0500,
56,56,0,critical,whd,20.0,2.1,lower,57.0,133.0,133.0,57.0,78.0,78.0,1,1.4760775566101074,None,,,,,0,0,0,0,0,56,56,14,144.6595025062561,,,,,,,,,,,,,,,,,,,,,,,,,,,,,,,,,,,,,,,,,,,,,,,,,,,,,,,,,,,,,,,,,,,,,,,,,,,,,,,,,57.0,133.0,133.0,57.0,78.0,78.0,2.1,2.12,-191,-274,0,-274,164,261,144.64481711387634,144.64489364624023,144.64884114265442,144.6595025062561,144.81177473068237,144.81177473068237,144.81177473068237,144.81177473068237,144.81177473068237,144.81177473068237,144.81177473068237,146.14403200149536,1,1.4760775566101074,None,,,,,,,,,,,,,,,,,,39,2,2025-02-19_12h00.40.617,comp,2024.2.4,57.47842317169098,2025-02-19 12h00.54.811809 -0500,
57,57,0,critical,dwh,20.0,3.0,lower,78.0,78.0,57.0,133.0,133.0,57.0,2,1.0787200927734375,None,,,,,0,0,0,0,0,57,57,68,146.16099667549133,,,,,,,,,,,,,,,,,,,,,,,,,,,,,,,,,,,,,,,,,,,,,,,,,,,,,,,,,,,,,,,,,,,,,,,,,,,,,,,,,78.0,78.0,57.0,133.0,133.0,57.0,3.0,3.1,-202,254,0,12,191,-283,146.1456217765808,146.14569807052612,146.1492817401886,146.16099667549133,146.31126022338867,146.31126022338867,146.31126022338867,146.31126022338867,146.31126022338867,146.31126022338867,146.31126022338867,147.24795055389404,2,1.0787200927734375,None,,,,,,,,,,,,,,,,,,39,2,2025-02-19_12h00.40.617,comp,2024.2.4,57.47842317169098,2025-02-19 12h00.54.811809 -0500,
58,58,0,critical,wdh,35.0,4.0,lower,57.0,133.0,70.0,70.0,133.0,57.0,2,0.7385084629058838,None,,,,,0,0,0,0,0,58,58,76,147.2690179347992,,,,,,,,,,,,,,,,,,,,,,,,,,,,,,,,,,,,,,,,,,,,,,,,,,,,,,,,,,,,,,,,,,,,,,,,,,,,,,,,,57.0,133.0,70.0,70.0,133.0,57.0,4.0,4.1,-198,-257,0,-16,160,-278,147.24965524673462,147.2497956752777,147.25306749343872,147.2690179347992,147.41077995300293,147.41077995300293,147.41077995300293,147.41077995300293,147.41077995300293,147.41077995300293,147.41077995300293,148.01266813278198,2,0.7385084629058838,None,,,,,,,,,,,,,,,,,,39,2,2025-02-19_12h00.40.617,comp,2024.2.4,57.47842317169098,2025-02-19 12h00.54.811809 -0500,
59,59,0,critical,hwd,35.0,2.1,upper,200.0,125.0,125.0,200.0,127.0,127.0,2,1.5687477588653564,None,,,,,0,0,0,0,0,59,59,17,148.0307378768921,,,,,,,,,,,,,,,,,,,,,,,,,,,,,,,,,,,,,,,,,,,,,,,,,,,,,,,,,,,,,,,,,,,,,,,,,,,,,,,,,200.0,125.0,125.0,200.0,127.0,127.0,2.1,2.12,-258,-270,0,-264,260,270,148.01435685157776,148.0144555568695,148.0173101425171,148.0307378768921,148.17665219306946,148.17665219306946,148.17665219306946,148.17665219306946,148.17665219306946,148.17665219306946,148.17665219306946,149.6185450553894,2,1.5687477588653564,None,,,,,,,,,,,,,,,,,,39,2,2025-02-19_12h00.40.617,comp,2024.2.4,57.47842317169098,2025-02-19 12h00.54.811809 -0500,
60,60,0,critical,hwd,20.0,1.0,upper,200.0,125.0,125.0,200.0,141.0,141.0,1,0.9951958656311035,None,,,,,0,0,0,0,0,60,60,103,149.63593339920044,,,,,,,,,,,,,,,,,,,,,,,,,,,,,,,,,,,,,,,,,,,,,,,,,,,,,,,,,,,,,,,,,,,,,,,,,,,,,,,,,200.0,125.0,125.0,200.0,141.0,141.0,1.0,1.3,222,-272,480,-287,746,-263,149.62016463279724,149.62024021148682,149.62347507476807,149.63593339920044,149.77818083763123,149.77818083763123,149.77818083763123,149.77818083763123,149.77818083763123,149.77818083763123,149.77818083763123,150.64614629745483,1,0.9951958656311035,None,,,,,,,,,,,,,,,,,,39,2,2025-02-19_12h00.40.617,comp,2024.2.4,57.47842317169098,2025-02-19 12h00.54.811809 -0500,
61,61,0,filler_square,None,None,None,None,None,None,None,None,None,None,2,1.0649664402008057,None,,,,,0,0,0,0,0,61,61,204,150.6622805595398,,,,,,,,,,,,,,,,,,,,,,,,,,,,,,,,,,,,,,,,,,,,,,,,,,,,,,,,,,,,,,,,,,,,,,,,,,,,,,,,,85.7124305146317,67.91552603246593,104.2857146917236,104.2857146917236,89.19430738315882,79.66705560840268,1.0,1.2,-182,-12,0,3,188,4,150.64813423156738,150.6482639312744,150.6516523361206,150.6622805595398,150.81138396263123,150.81138396263123,150.81138396263123,150.81138396263123,150.81138396263123,150.81138396263123,150.81138396263123,151.73205971717834,2,1.0649664402008057,None,,,,,,,,,,,,,,,,,,39,2,2025-02-19_12h00.40.617,comp,2024.2.4,57.47842317169098,2025-02-19 12h00.54.811809 -0500,
62,62,0,critical,dwh,20.0,2.1,lower,78.0,78.0,57.0,133.0,133.0,57.0,1,1.378100872039795,None,,,,,0,0,0,0,0,62,62,6,151.74977135658264,,,,,,,,,,,,,,,,,,,,,,,,,,,,,,,,,,,,,,,,,,,,,,,,,,,,,,,,,,,,,,,,,,,,,,,,,,,,,,,,,78.0,78.0,57.0,133.0,133.0,57.0,2.1,2.11,-202,287,0,269,191,-253,151.7335925102234,151.73367357254028,151.736718416214,151.74977135658264,151.89534497261047,151.89534497261047,151.89534497261047,151.89534497261047,151.89534497261047,151.89534497261047,151.89534497261047,153.1342294216156,1,1.378100872039795,None,,,,,,,,,,,,,,,,,,39,2,2025-02-19_12h00.40.617,comp,2024.2.4,57.47842317169098,2025-02-19 12h00.54.811809 -0500,
63,63,0,critical,hdw,35.0,3.0,upper,200.0,125.0,127.0,127.0,125.0,200.0,1,1.780745267868042,None,,,,,0,0,0,0,0,63,63,111,153.15437984466553,,,,,,,,,,,,,,,,,,,,,,,,,,,,,,,,,,,,,,,,,,,,,,,,,,,,,,,,,,,,,,,,,,,,,,,,,,,,,,,,,200.0,125.0,127.0,127.0,125.0,200.0,3.0,3.2,-222,-288,0,0,260,290,153.13578009605408,153.13585901260376,153.13873600959778,153.15437984466553,153.29812359809875,153.29812359809875,153.29812359809875,153.29812359809875,153.29812359809875,153.29812359809875,153.29812359809875,154.9465208053589,1,1.780745267868042,None,,,,,,,,,,,,,,,,,,39,2,2025-02-19_12h00.40.617,comp,2024.2.4,57.47842317169098,2025-02-19 12h00.54.811809 -0500,
64,64,0,critical,dhw,35.0,2.1,upper,127.0,127.0,200.0,125.0,125.0,200.0,2,1.1574363708496094,None,,,,,0,0,0,0,0,64,64,1,154.96226000785828,,,,,,,,,,,,,,,,,,,,,,,,,,,,,,,,,,,,,,,,,,,,,,,,,,,,,,,,,,,,,,,,,,,,,,,,,,,,,,,,,127.0,127.0,200.0,125.0,125.0,200.0,2.1,2.12,-222,-263,0,-253,258,266,154.94795775413513,154.9480321407318,154.95100712776184,154.96226000785828,155.11227893829346,155.11227893829346,155.11227893829346,155.11227893829346,155.11227893829346,155.11227893829346,155.11227893829346,156.12839579582214,2,1.1574363708496094,None,,,,,,,,,,,,,,,,,,39,2,2025-02-19_12h00.40.617,comp,2024.2.4,57.47842317169098,2025-02-19 12h00.54.811809 -0500,
65,65,0,critical,hdw,35.0,2.1,lower,133.0,57.0,70.0,70.0,57.0,133.0,3,1.3832554817199707,None,,,,,0,0,0,0,0,65,65,20,156.1445062160492,,,,,,,,,,,,,,,,,,,,,,,,,,,,,,,,,,,,,,,,,,,,,,,,,,,,,,,,,,,,,,,,,,,,,,,,,,,,,,,,,133.0,57.0,70.0,70.0,57.0,133.0,2.1,2.11,-160,253,0,264,198,-258,156.12994861602783,156.13002514839172,156.1328785419464,156.1445062160492,156.28206253051758,156.28206253051758,156.28206253051758,156.28206253051758,156.28206253051758,156.28206253051758,156.28206253051758,157.53056740760803,3,1.3832554817199707,None,,,,,,,,,,,,,,,,,,39,2,2025-02-19_12h00.40.617,comp,2024.2.4,57.47842317169098,2025-02-19 12h00.54.811809 -0500,
66,66,0,filler_square,None,None,None,None,None,None,None,None,None,None,2,0.9400882720947266,None,,,,,0,0,0,0,0,66,66,202,157.54702425003052,,,,,,,,,,,,,,,,,,,,,,,,,,,,,,,,,,,,,,,,,,,,,,,,,,,,,,,,,,,,,,,,,,,,,,,,,,,,,,,,,98.09946032106883,128.05226462370067,154.00541758695363,120.40667349455833,171.08269675063235,171.08269675063235,4.0,4.1,-220,-281,0,8,242,-275,157.5324318408966,157.53251671791077,157.5358910560608,157.54702425003052,157.69639372825623,157.69639372825623,157.69639372825623,157.69639372825623,157.69639372825623,157.69639372825623,157.69639372825623,158.49734902381897,2,0.9400882720947266,None,,,,,,,,,,,,,,,,,,39,2,2025-02-19_12h00.40.617,comp,2024.2.4,57.47842317169098,2025-02-19 12h00.54.811809 -0500,
67,67,0,critical,hdw,35.0,1.0,lower,133.0,57.0,70.0,70.0,57.0,133.0,1,0.8844823837280273,None,,,,,0,0,0,0,0,67,67,108,158.51474571228027,,,,,,,,,,,,,,,,,,,,,,,,,,,,,,,,,,,,,,,,,,,,,,,,,,,,,,,,,,,,,,,,,,,,,,,,,,,,,,,,,133.0,57.0,70.0,70.0,57.0,133.0,1.0,1.3,320,-267,480,-258,678,-266,158.49907279014587,158.49919772148132,158.5032787322998,158.51474571228027,158.66445899009705,158.66445899009705,158.66445899009705,158.66445899009705,158.66445899009705,158.66445899009705,158.66445899009705,159.4154031276703,1,0.8844823837280273,None,,,,,,,,,,,,,,,,,,39,2,2025-02-19_12h00.40.617,comp,2024.2.4,57.47842317169098,2025-02-19 12h00.54.811809 -0500,
68,68,0,filler_random,None,None,None,None,None,None,None,None,None,None,2,0.7606863975524902,None,,,,,0,0,0,0,0,68,68,135,159.43123817443848,,,,,,,,,,,,,,,,,,,,,,,,,,,,,,,,,,,,,,,,,,,,,,,,,,,,,,,,,,,,,,,,,,,,,,,,,,,,,,,,,155.59266418421632,155.0161022630322,145.3008526849659,91.18800127909589,154.35566048063174,72.65698484667513,4.0,4.2,-219,-11,0,-283,178,-3,159.41728568077087,159.41751146316528,159.42088341712952,159.43123817443848,159.58395552635193,159.58395552635193,159.58395552635193,159.58395552635193,159.58395552635193,159.58395552635193,159.58395552635193,160.19722938537598,2,0.7606863975524902,None,,,,,,,,,,,,,,,,,,39,2,2025-02-19_12h00.40.617,comp,2024.2.4,57.47842317169098,2025-02-19 12h00.54.811809 -0500,
69,69,0,filler_random,None,None,None,None,None,None,None,None,None,None,3,1.0814173221588135,None,,,,,0,0,0,0,0,69,69,151,160.21448493003845,,,,,,,,,,,,,,,,,,,,,,,,,,,,,,,,,,,,,,,,,,,,,,,,,,,,,,,,,,,,,,,,,,,,,,,,,,,,,,,,,130.94041071216995,69.72498392748996,96.02607143598462,122.52362441276019,133.8098803588964,195.5066500320487,4.0,4.1,-192,-287,0,3,255,-269,160.19907021522522,160.1992039680481,160.20273447036743,160.21448493003845,160.37040376663208,160.37040376663208,160.37040376663208,160.37040376663208,160.37040376663208,160.37040376663208,160.37040376663208,161.30315947532654,3,1.0814173221588135,None,,,,,,,,,,,,,,,,,,39,2,2025-02-19_12h00.40.617,comp,2024.2.4,57.47842317169098,2025-02-19 12h00.54.811809 -0500,
70,70,0,critical,wdh,35.0,1.0,upper,125.0,200.0,127.0,127.0,200.0,125.0,1,1.8644812107086182,None,,,,,0,0,0,0,0,70,70,73,161.3191089630127,,,,,,,,,,,,,,,,,,,,,,,,,,,,,,,,,,,,,,,,,,,,,,,,,,,,,,,,,,,,,,,,,,,,,,,,,,,,,,,,,125.0,200.0,127.0,127.0,200.0,125.0,1.0,1.3,220,-267,480,-271,702,-270,161.30475616455078,161.30483436584473,161.3076410293579,161.3191089630127,161.46475958824158,161.46475958824158,161.46475958824158,161.46475958824158,161.46475958824158,161.46475958824158,161.46475958824158,163.18620371818542,1,1.8644812107086182,None,,,,,,,,,,,,,,,,,,39,2,2025-02-19_12h00.40.617,comp,2024.2.4,57.47842317169098,2025-02-19 12h00.54.811809 -0500,
71,71,0,critical,hwd,35.0,2.1,lower,133.0,57.0,57.0,133.0,70.0,70.0,1,2.7010269165039062,None,,,,,0,0,0,0,0,71,71,40,163.20257830619812,,,,,,,,,,,,,,,,,,,,,,,,,,,,,,,,,,,,,,,,,,,,,,,,,,,,,,,,,,,,,,,,,,,,,,,,,,,,,,,,,133.0,57.0,57.0,133.0,70.0,70.0,2.1,2.12,-191,-270,0,-270,198,253,163.18789219856262,163.18802523612976,163.19098949432373,163.20257830619812,163.34819149971008,163.34819149971008,163.34819149971008,163.34819149971008,163.34819149971008,163.34819149971008,163.34819149971008,165.90596389770508,1,2.7010269165039062,None,,,,,,,,,,,,,,,,,,39,2,2025-02-19_12h00.40.617,comp,2024.2.4,57.47842317169098,2025-02-19 12h00.54.811809 -0500,
72,72,0,filler_random,None,None,None,None,None,None,None,None,None,None,3,1.4691669940948486,None,,,,,0,0,0,0,0,72,72,132,165.92192792892456,,,,,,,,,,,,,,,,,,,,,,,,,,,,,,,,,,,,,,,,,,,,,,,,,,,,,,,,,,,,,,,,,,,,,,,,,,,,,,,,,163.26151619920228,73.74568592788785,88.33669161377699,176.88969768876734,145.02483039018927,161.99342215648625,2.1,2.12,-221,-265,0,-269,265,290,165.90766215324402,165.90779209136963,165.9109971523285,165.92192792892456,166.07070064544678,166.07070064544678,166.07070064544678,166.07070064544678,166.07070064544678,166.07070064544678,166.07070064544678,167.4039192199707,3,1.4691669940948486,None,,,,,,,,,,,,,,,,,,39,2,2025-02-19_12h00.40.617,comp,2024.2.4,57.47842317169098,2025-02-19 12h00.54.811809 -0500,
73,73,0,catch,None,None,None,None,None,None,None,None,None,None,1,1.1926193237304688,None,,,,,0,0,0,0,0,73,73,121,167.42250895500183,,,,,,,,,,,,,,,,,,,,,,,,,,,,,,,,,,,,,,,,,,,,,,,,,,,,,,,,,,,,,,,,,,,,,,,,,,,,,,,,,137,188,76,114,85,105,2.2,2.22,-247,277,0,-267,206,-286,167.40604877471924,167.40612769126892,167.40946245193481,167.42250895500183,167.5673975944519,167.5673975944519,167.5673975944519,167.5673975944519,167.5673975944519,167.5673975944519,167.5673975944519,168.61834907531738,1,1.1926193237304688,None,,,,,,,,,,,,,,,,,,39,2,2025-02-19_12h00.40.617,comp,2024.2.4,57.47842317169098,2025-02-19 12h00.54.811809 -0500,
74,74,0,filler_random,None,None,None,None,None,None,None,None,None,None,1,1.8845674991607666,None,,,,,0,0,0,0,0,74,74,158,168.63452410697937,,,,,,,,,,,,,,,,,,,,,,,,,,,,,,,,,,,,,,,,,,,,,,,,,,,,,,,,,,,,,,,,,,,,,,,,,,,,,,,,,175.28047882944142,119.56384608263912,109.38485975644367,116.39998814213081,88.84417301256381,182.76004050002848,2.2,2.21,-214,-250,0,285,246,267,168.6203224658966,168.62040162086487,168.62368655204773,168.63452410697937,168.78029704093933,168.78029704093933,168.78029704093933,168.78029704093933,168.78029704093933,168.78029704093933,168.78029704093933,170.53218603134155,1,1.8845674991607666,None,,,,,,,,,,,,,,,,,,39,2,2025-02-19_12h00.40.617,comp,2024.2.4,57.47842317169098,2025-02-19 12h00.54.811809 -0500,
75,75,0,filler_square,None,None,None,None,None,None,None,None,None,None,3,1.876521110534668,None,,,,,0,0,0,0,0,75,75,170,170.54811835289001,,,,,,,,,,,,,,,,,,,,,,,,,,,,,,,,,,,,,,,,,,,,,,,,,,,,,,,,,,,,,,,,,,,,,,,,,,,,,,,,,69.45895414641176,87.69341128825124,72.69221531176125,58.213953483234604,91.10859137055208,91.10859137055208,2.2,2.21,-169,-263,0,261,171,263,170.53418636322021,170.53426337242126,170.53738451004028,170.54811835289001,170.68870544433594,170.68870544433594,170.68870544433594,170.68870544433594,170.68870544433594,170.68870544433594,170.68870544433594,172.43586611747742,3,1.876521110534668,None,,,,,,,,,,,,,,,,,,39,2,2025-02-19_12h00.40.617,comp,2024.2.4,57.47842317169098,2025-02-19 12h00.54.811809 -0500,
76,76,0,critical,hdw,20.0,2.1,upper,200.0,125.0,141.0,141.0,125.0,200.0,1,1.3724586963653564,None,,,,,0,0,0,0,0,76,76,47,172.45257544517517,,,,,,,,,,,,,,,,,,,,,,,,,,,,,,,,,,,,,,,,,,,,,,,,,,,,,,,,,,,,,,,,,,,,,,,,,,,,,,,,,200.0,125.0,141.0,141.0,125.0,200.0,2.1,2.12,-229,-287,0,-258,266,274,172.4374418258667,172.43753385543823,172.44093871116638,172.45257544517517,172.60074067115784,172.60074067115784,172.60074067115784,172.60074067115784,172.60074067115784,172.60074067115784,172.60074067115784,173.83601641654968,1,1.3724586963653564,None,,,,,,,,,,,,,,,,,,39,2,2025-02-19_12h00.40.617,comp,2024.2.4,57.47842317169098,2025-02-19 12h00.54.811809 -0500,
77,77,0,critical,hdw,35.0,2.1,upper,200.0,125.0,127.0,127.0,125.0,200.0,1,1.2427995204925537,None,,,,,0,0,0,0,0,77,77,45,173.8523199558258,,,,,,,,,,,,,,,,,,,,,,,,,,,,,,,,,,,,,,,,,,,,,,,,,,,,,,,,,,,,,,,,,,,,,,,,,,,,,,,,,200.0,125.0,127.0,127.0,125.0,200.0,2.1,2.11,-222,270,0,255,260,-257,173.83756732940674,173.8376669883728,173.84167313575745,173.8523199558258,174.00161933898926,174.00161933898926,174.00161933898926,174.00161933898926,174.00161933898926,174.00161933898926,174.00161933898926,175.10821843147278,1,1.2427995204925537,None,,,,,,,,,,,,,,,,,,39,2,2025-02-19_12h00.40.617,comp,2024.2.4,57.47842317169098,2025-02-19 12h00.54.811809 -0500,
78,78,0,filler_square,None,None,None,None,None,None,None,None,None,None,2,1.0110440254211426,None,,,,,0,0,0,0,0,78,78,182,175.12411284446716,,,,,,,,,,,,,,,,,,,,,,,,,,,,,,,,,,,,,,,,,,,,,,,,,,,,,,,,,,,,,,,,,,,,,,,,,,,,,,,,,146.2714276071868,168.2621788344363,178.01267199012545,178.01267199012545,145.04830227423588,162.2975554296156,1.0,1.2,-269,7,0,-4,266,-19,175.10997676849365,175.11005306243896,175.11293721199036,175.12411284446716,175.26768398284912,175.26768398284912,175.26768398284912,175.26768398284912,175.26768398284912,175.26768398284912,175.26768398284912,176.13791847229004,2,1.0110440254211426,None,,,,,,,,,,,,,,,,,,39,2,2025-02-19_12h00.40.617,comp,2024.2.4,57.47842317169098,2025-02-19 12h00.54.811809 -0500,
79,79,0,filler_random,None,None,None,None,None,None,None,None,None,None,2,0.9900741577148438,None,,,,,0,0,0,0,0,79,79,163,176.15360236167908,,,,,,,,,,,,,,,,,,,,,,,,,,,,,,,,,,,,,,,,,,,,,,,,,,,,,,,,,,,,,,,,,,,,,,,,,,,,,,,,,78.10044766877114,105.4196418547225,108.23274068590227,180.5500759764929,193.22405555425215,77.39614459074431,2.2,2.21,-239,-257,0,285,225,272,176.139639377594,176.13975954055786,176.14291787147522,176.15360236167908,176.31228017807007,176.31228017807007,176.31228017807007,176.31228017807007,176.31228017807007,176.31228017807007,176.31228017807007,177.15364909172058,2,0.9900741577148438,None,,,,,,,,,,,,,,,,,,39,2,2025-02-19_12h00.40.617,comp,2024.2.4,57.47842317169098,2025-02-19 12h00.54.811809 -0500,
80,80,0,critical,dwh,35.0,1.0,lower,70.0,70.0,57.0,133.0,133.0,57.0,2,1.3282725811004639,None,,,,,0,0,0,0,0,80,80,60,177.16966819763184,,,,,,,,,,,,,,,,,,,,,,,,,,,,,,,,,,,,,,,,,,,,,,,,,,,,,,,,,,,,,,,,,,,,,,,,,,,,,,,,,70.0,70.0,57.0,133.0,133.0,57.0,1.0,1.2,-198,19,0,16,191,5,177.15513229370117,177.15520930290222,177.1585192680359,177.16966819763184,177.32021713256836,177.32021713256836,177.32021713256836,177.32021713256836,177.32021713256836,177.32021713256836,177.32021713256836,178.50502252578735,2,1.3282725811004639,None,,,,,,,,,,,,,,,,,,39,2,2025-02-19_12h00.40.617,comp,2024.2.4,57.47842317169098,2025-02-19 12h00.54.811809 -0500,
81,81,0,catch,None,None,None,None,None,None,None,None,None,None,3,1.2617347240447998,None,,,,,0,0,0,0,0,81,81,127,178.52211999893188,,,,,,,,,,,,,,,,,,,,,,,,,,,,,,,,,,,,,,,,,,,,,,,,,,,,,,,,,,,,,,,,,,,,,,,,,,,,,,,,,117,73,93,97,160,165,4.0,4.1,-181,-271,0,-9,227,-284,178.5070939064026,178.50720119476318,178.51008677482605,178.52211999893188,178.66913294792175,178.66913294792175,178.66913294792175,178.66913294792175,178.66913294792175,178.66913294792175,178.66913294792175,179.78626704216003,3,1.2617347240447998,None,,,,,,,,,,,,,,,,,,39,2,2025-02-19_12h00.40.617,comp,2024.2.4,57.47842317169098,2025-02-19 12h00.54.811809 -0500,
82,82,0,critical,wdh,20.0,2.1,lower,57.0,133.0,78.0,78.0,133.0,57.0,1,1.1252110004425049,None,,,,,0,0,0,0,0,82,82,34,179.80235290527344,,,,,,,,,,,,,,,,,,,,,,,,,,,,,,,,,,,,,,,,,,,,,,,,,,,,,,,,,,,,,,,,,,,,,,,,,,,,,,,,,57.0,133.0,78.0,78.0,133.0,57.0,2.1,2.12,-202,-256,0,-264,164,255,179.7878701686859,179.78795075416565,179.79111695289612,179.80235290527344,179.9502351284027,179.9502351284027,179.9502351284027,179.9502351284027,179.9502351284027,179.9502351284027,179.9502351284027,180.93635869026184,1,1.1252110004425049,None,,,,,,,,,,,,,,,,,,39,2,2025-02-19_12h00.40.617,comp,2024.2.4,57.47842317169098,2025-02-19 12h00.54.811809 -0500,
83,83,0,filler_random,None,None,None,None,None,None,None,None,None,None,1,1.0476000308990479,None,,,,,0,0,0,0,0,83,83,154,180.95203280448914,,,,,,,,,,,,,,,,,,,,,,,,,,,,,,,,,,,,,,,,,,,,,,,,,,,,,,,,,,,,,,,,,,,,,,,,,,,,,,,,,147.8591631501394,151.0785402135777,141.8860667585965,109.29731194430565,167.33531026536696,90.3644419347824,2.1,2.12,-226,-283,0,-264,196,272,180.93807935714722,180.93815636634827,180.9410798549652,180.95203280448914,181.10417485237122,181.10417485237122,181.10417485237122,181.10417485237122,181.10417485237122,181.10417485237122,181.10417485237122,182.00397634506226,1,1.0476000308990479,None,,,,,,,,,,,,,,,,,,39,2,2025-02-19_12h00.40.617,comp,2024.2.4,57.47842317169098,2025-02-19 12h00.54.811809 -0500,
84,84,0,filler_square,None,None,None,None,None,None,None,None,None,None,2,1.132023811340332,None,,,,,0,0,0,0,0,84,84,191,182.02012658119202,,,,,,,,,,,,,,,,,,,,,,,,,,,,,,,,,,,,,,,,,,,,,,,,,,,,,,,,,,,,,,,,,,,,,,,,,,,,,,,,,68.84292357742837,68.67199960260739,76.45850322239492,69.52231334540367,80.34847660629917,80.34847660629917,3.0,3.1,-165,282,0,-17,171,-261,182.00575304031372,182.00582838058472,182.00877952575684,182.02012658119202,182.1710820198059,182.1710820198059,182.1710820198059,182.1710820198059,182.1710820198059,182.1710820198059,182.1710820198059,183.1583640575409,2,1.132023811340332,None,,,,,,,,,,,,,,,,,,39,2,2025-02-19_12h00.40.617,comp,2024.2.4,57.47842317169098,2025-02-19 12h00.54.811809 -0500,
85,85,0,critical,whd,35.0,4.0,lower,57.0,133.0,133.0,57.0,70.0,70.0,2,0.7928662300109863,None,,,,,0,0,0,0,0,85,85,88,183.1746370792389,,,,,,,,,,,,,,,,,,,,,,,,,,,,,,,,,,,,,,,,,,,,,,,,,,,,,,,,,,,,,,,,,,,,,,,,,,,,,,,,,57.0,133.0,133.0,57.0,70.0,70.0,4.0,4.1,-191,-264,0,2,160,-272,183.15997433662415,183.1600525379181,183.16338539123535,183.1746370792389,183.32377243041992,183.32377243041992,183.32377243041992,183.32377243041992,183.32377243041992,183.32377243041992,183.32377243041992,183.97219252586365,2,0.7928662300109863,None,,,,,,,,,,,,,,,,,,39,2,2025-02-19_12h00.40.617,comp,2024.2.4,57.47842317169098,2025-02-19 12h00.54.811809 -0500,
86,86,0,critical,dwh,20.0,2.1,upper,141.0,141.0,125.0,200.0,200.0,125.0,3,1.4834942817687988,None,,,,,0,0,0,0,0,86,86,31,183.98817992210388,,,,,,,,,,,,,,,,,,,,,,,,,,,,,,,,,,,,,,,,,,,,,,,,,,,,,,,,,,,,,,,,,,,,,,,,,,,,,,,,,141.0,141.0,125.0,200.0,200.0,125.0,2.1,2.12,-266,-257,0,-281,258,273,183.9738667011261,183.97397017478943,183.97737550735474,183.98817992210388,184.13970518112183,184.13970518112183,184.13970518112183,184.13970518112183,184.13970518112183,184.13970518112183,184.13970518112183,185.47557282447815,3,1.4834942817687988,None,,,,,,,,,,,,,,,,,,39,2,2025-02-19_12h00.40.617,comp,2024.2.4,57.47842317169098,2025-02-19 12h00.54.811809 -0500,
87,87,0,critical,whd,20.0,3.0,upper,125.0,200.0,200.0,125.0,141.0,141.0,2,0.8548965454101562,None,,,,,0,0,0,0,0,87,87,93,185.49634552001953,,,,,,,,,,,,,,,,,,,,,,,,,,,,,,,,,,,,,,,,,,,,,,,,,,,,,,,,,,,,,,,,,,,,,,,,,,,,,,,,,125.0,200.0,200.0,125.0,141.0,141.0,3.0,3.1,-258,254,0,0,229,-289,185.4772343635559,185.4773142337799,185.48059678077698,185.49634552001953,185.63916206359863,185.63916206359863,185.63916206359863,185.63916206359863,185.63916206359863,185.63916206359863,185.63916206359863,186.36300373077393,2,0.8548965454101562,None,,,,,,,,,,,,,,,,,,39,2,2025-02-19_12h00.40.617,comp,2024.2.4,57.47842317169098,2025-02-19 12h00.54.811809 -0500,
88,88,0,critical,wdh,20.0,4.0,lower,57.0,133.0,78.0,78.0,133.0,57.0,2,0.9734508991241455,None,,,,,0,0,0,0,0,88,88,82,186.37836813926697,,,,,,,,,,,,,,,,,,,,,,,,,,,,,,,,,,,,,,,,,,,,,,,,,,,,,,,,,,,,,,,,,,,,,,,,,,,,,,,,,57.0,133.0,78.0,78.0,133.0,57.0,4.0,4.1,-202,-279,0,13,164,-253,186.3646113872528,186.36470460891724,186.3679234981537,186.37836813926697,186.52282881736755,186.52282881736755,186.52282881736755,186.52282881736755,186.52282881736755,186.52282881736755,186.52282881736755,187.3577983379364,2,0.9734508991241455,None,,,,,,,,,,,,,,,,,,39,2,2025-02-19_12h00.40.617,comp,2024.2.4,57.47842317169098,2025-02-19 12h00.54.811809 -0500,
89,89,0,critical,dwh,35.0,3.0,upper,127.0,127.0,125.0,200.0,200.0,125.0,2,0.7052278518676758,None,,,,,0,0,0,0,0,89,89,63,187.37404489517212,,,,,,,,,,,,,,,,,,,,,,,,,,,,,,,,,,,,,,,,,,,,,,,,,,,,,,,,,,,,,,,,,,,,,,,,,,,,,,,,,127.0,127.0,125.0,200.0,200.0,125.0,3.0,3.1,-260,251,0,11,258,-276,187.3592448234558,187.35931873321533,187.36327862739563,187.37404489517212,187.52168607711792,187.52168607711792,187.52168607711792,187.52168607711792,187.52168607711792,187.52168607711792,187.52168607711792,188.0888888835907,2,0.7052278518676758,None,,,,,,,,,,,,,,,,,,39,2,2025-02-19_12h00.40.617,comp,2024.2.4,57.47842317169098,2025-02-19 12h00.54.811809 -0500,
90,90,0,filler_random,None,None,None,None,None,None,None,None,None,None,2,0.6313045024871826,None,,,,,0,0,0,0,0,90,90,165,188.1055247783661,,,,,,,,,,,,,,,,,,,,,,,,,,,,,,,,,,,,,,,,,,,,,,,,,,,,,,,,,,,,,,,,,,,,,,,,,,,,,,,,,70.92374426044772,91.34493123580263,181.28963475383782,110.58964974917465,71.27984087315663,89.42765567875938,3.0,3.2,-197,-256,0,14,196,254,188.09054923057556,188.09062433242798,188.09371137619019,188.1055247783661,188.2542209625244,188.2542209625244,188.2542209625244,188.2542209625244,188.2542209625244,188.2542209625244,188.2542209625244,188.742830991745,2,0.6313045024871826,None,,,,,,,,,,,,,,,,,,39,2,2025-02-19_12h00.40.617,comp,2024.2.4,57.47842317169098,2025-02-19 12h00.54.811809 -0500,
91,91,0,filler_square,None,None,None,None,None,None,None,None,None,None,2,0.556079626083374,None,,,,,0,0,0,0,0,91,91,177,188.76338982582092,,,,,,,,,,,,,,,,,,,,,,,,,,,,,,,,,,,,,,,,,,,,,,,,,,,,,,,,,,,,,,,,,,,,,,,,,,,,,,,,,80.50132632713509,80.50132632713509,70.79709338970923,69.08891059032854,72.90369377637978,80.43683617105259,4.0,4.1,-171,-273,0,5,171,-278,188.74486207962036,188.74494242668152,188.7482192516327,188.76338982582092,188.90851020812988,188.90851020812988,188.90851020812988,188.90851020812988,188.90851020812988,188.90851020812988,188.90851020812988,189.32393741607666,2,0.556079626083374,None,,,,,,,,,,,,,,,,,,39,2,2025-02-19_12h00.40.617,comp,2024.2.4,57.47842317169098,2025-02-19 12h00.54.811809 -0500,
92,92,0,critical,hwd,35.0,1.0,lower,133.0,57.0,57.0,133.0,70.0,70.0,1,1.5083179473876953,None,,,,,0,0,0,0,0,92,92,96,189.33990120887756,,,,,,,,,,,,,,,,,,,,,,,,,,,,,,,,,,,,,,,,,,,,,,,,,,,,,,,,,,,,,,,,,,,,,,,,,,,,,,,,,133.0,57.0,57.0,133.0,70.0,70.0,1.0,1.3,289,-270,480,-282,678,-251,189.32543468475342,189.32552456855774,189.32894921302795,189.33990120887756,189.48857235908508,189.48857235908508,189.48857235908508,189.48857235908508,189.48857235908508,189.48857235908508,189.48857235908508,190.8578941822052,1,1.5083179473876953,None,,,,,,,,,,,,,,,,,,39,2,2025-02-19_12h00.40.617,comp,2024.2.4,57.47842317169098,2025-02-19 12h00.54.811809 -0500,
93,93,0,critical,dwh,20.0,1.0,upper,141.0,141.0,125.0,200.0,200.0,125.0,3,2.894339084625244,None,,,,,0,0,0,0,0,93,93,67,190.87350344657898,,,,,,,,,,,,,,,,,,,,,,,,,,,,,,,,,,,,,,,,,,,,,,,,,,,,,,,,,,,,,,,,,,,,,,,,,,,,,,,,,141.0,141.0,125.0,200.0,200.0,125.0,1.0,1.2,-266,0,0,16,258,17,190.85931015014648,190.85938596725464,190.86282920837402,190.87350344657898,191.02519726753235,191.02519726753235,191.02519726753235,191.02519726753235,191.02519726753235,191.02519726753235,191.02519726753235,193.7817621231079,3,2.894339084625244,None,,,,,,,,,,,,,,,,,,39,2,2025-02-19_12h00.40.617,comp,2024.2.4,57.47842317169098,2025-02-19 12h00.54.811809 -0500,
94,94,0,critical,hwd,20.0,2.1,lower,133.0,57.0,57.0,133.0,78.0,78.0,2,1.7087476253509521,None,,,,,0,0,0,0,0,94,94,42,193.80251288414001,,,,,,,,,,,,,,,,,,,,,,,,,,,,,,,,,,,,,,,,,,,,,,,,,,,,,,,,,,,,,,,,,,,,,,,,,,,,,,,,,133.0,57.0,57.0,133.0,78.0,78.0,2.1,2.12,-191,-290,0,-272,202,266,193.78329825401306,193.78337597846985,193.78677248954773,193.80251288414001,193.9416627883911,193.9416627883911,193.9416627883911,193.9416627883911,193.9416627883911,193.9416627883911,193.9416627883911,195.52591156959534,2,1.7087476253509521,None,,,,,,,,,,,,,,,,,,39,2,2025-02-19_12h00.40.617,comp,2024.2.4,57.47842317169098,2025-02-19 12h00.54.811809 -0500,
95,95,0,catch,None,None,None,None,None,None,None,None,None,None,2,1.1946451663970947,None,,,,,0,0,0,0,0,95,95,124,195.5423972606659,,,,,,,,,,,,,,,,,,,,,,,,,,,,,,,,,,,,,,,,,,,,,,,,,,,,,,,,,,,,,,,,,,,,,,,,,,,,,,,,,72,118,181,144,85,105,2.1,2.12,-227,-275,0,-258,220,289,195.52797937393188,195.52805590629578,195.53138637542725,195.5423972606659,195.6919288635254,195.6919288635254,195.6919288635254,195.6919288635254,195.6919288635254,195.6919288635254,195.6919288635254,196.7411298751831,2,1.1946451663970947,None,,,,,,,,,,,,,,,,,,39,2,2025-02-19_12h00.40.617,comp,2024.2.4,57.47842317169098,2025-02-19 12h00.54.811809 -0500,
96,96,0,critical,hdw,35.0,4.0,upper,200.0,125.0,127.0,127.0,125.0,200.0,1,2.826876163482666,None,,,,,0,0,0,0,0,96,96,113,196.75713753700256,,,,,,,,,,,,,,,,,,,,,,,,,,,,,,,,,,,,,,,,,,,,,,,,,,,,,,,,,,,,,,,,,,,,,,,,,,,,,,,,,200.0,125.0,127.0,127.0,125.0,200.0,4.0,4.1,-222,-252,0,2,260,-271,196.742671251297,196.74274730682373,196.74555230140686,196.75713753700256,196.90700387954712,196.90700387954712,196.90700387954712,196.90700387954712,196.90700387954712,196.90700387954712,196.90700387954712,199.59669303894043,1,2.826876163482666,None,,,,,,,,,,,,,,,,,,39,2,2025-02-19_12h00.40.617,comp,2024.2.4,57.47842317169098,2025-02-19 12h00.54.811809 -0500,
97,97,0,filler_random,None,None,None,None,None,None,None,None,None,None,2,1.2087156772613525,None,,,,,0,0,0,0,0,97,97,136,199.61518549919128,,,,,,,,,,,,,,,,,,,,,,,,,,,,,,,,,,,,,,,,,,,,,,,,,,,,,,,,,,,,,,,,,,,,,,,,,,,,,,,,,122.8960941529056,149.1364150465514,130.72837038549505,85.38243642694954,145.02499070859312,59.10331962905055,4.0,4.1,-213,-271,0,-2,168,-256,199.5988585948944,199.59898948669434,199.60191106796265,199.61518549919128,199.75992584228516,199.75992584228516,199.75992584228516,199.75992584228516,199.75992584228516,199.75992584228516,199.75992584228516,200.82757806777954,2,1.2087156772613525,None,,,,,,,,,,,,,,,,,,39,2,2025-02-19_12h00.40.617,comp,2024.2.4,57.47842317169098,2025-02-19 12h00.54.811809 -0500,
98,98,0,critical,whd,20.0,2.1,upper,125.0,200.0,200.0,125.0,141.0,141.0,1,1.34696626663208,None,,,,,0,0,0,0,0,98,98,15,200.84464478492737,,,,,,,,,,,,,,,,,,,,,,,,,,,,,,,,,,,,,,,,,,,,,,,,,,,,,,,,,,,,,,,,,,,,,,,,,,,,,,,,,125.0,200.0,200.0,125.0,141.0,141.0,2.1,2.12,-258,-255,0,-253,229,282,200.82912802696228,200.8292064666748,200.83312344551086,200.84464478492737,200.99245691299438,200.99245691299438,200.99245691299438,200.99245691299438,200.99245691299438,200.99245691299438,200.99245691299438,202.20234489440918,1,1.34696626663208,None,,,,,,,,,,,,,,,,,,39,2,2025-02-19_12h00.40.617,comp,2024.2.4,57.47842317169098,2025-02-19 12h00.54.811809 -0500,
99,99,0,filler_random,None,None,None,None,None,None,None,None,None,None,2,0.730914831161499,None,,,,,0,0,0,0,0,99,99,169,202.22125029563904,,,,,,,,,,,,,,,,,,,,,,,,,,,,,,,,,,,,,,,,,,,,,,,,,,,,,,,,,,,,,,,,,,,,,,,,,,,,,,,,,62.416777002953445,101.88387554609011,159.75144563416882,178.96279215247333,171.61866660310065,118.69303713396056,2.1,2.12,-236,-279,0,-254,245,261,202.20403623580933,202.20411252975464,202.20698237419128,202.22125029563904,202.36334538459778,202.36334538459778,202.36334538459778,202.36334538459778,202.36334538459778,202.36334538459778,202.36334538459778,202.96408915519714,2,0.730914831161499,None,,,,,,,,,,,,,,,,,,39,2,2025-02-19_12h00.40.617,comp,2024.2.4,57.47842317169098,2025-02-19 12h00.54.811809 -0500,
100,100,0,critical,dhw,35.0,2.1,lower,70.0,70.0,133.0,57.0,57.0,133.0,3,1.3872196674346924,None,,,,,0,0,0,0,0,100,100,24,202.98020815849304,,,,,,,,,,,,,,,,,,,,,,,,,,,,,,,,,,,,,,,,,,,,,,,,,,,,,,,,,,,,,,,,,,,,,,,,,,,,,,,,,70.0,70.0,133.0,57.0,57.0,133.0,2.1,2.11,-160,280,0,285,191,-266,202.96580457687378,202.96588516235352,202.96958804130554,202.98020815849304,203.12889289855957,203.12889289855957,203.12889289855957,203.12889289855957,203.12889289855957,203.12889289855957,203.12889289855957,204.3808948993683,3,1.3872196674346924,None,,,,,,,,,,,,,,,,,,39,2,2025-02-19_12h00.40.617,comp,2024.2.4,57.47842317169098,2025-02-19 12h00.54.811809 -0500,
101,101,0,filler_square,None,None,None,None,None,None,None,None,None,None,2,0.8592405319213867,None,,,,,0,0,0,0,0,101,101,188,204.39661931991577,,,,,,,,,,,,,,,,,,,,,,,,,,,,,,,,,,,,,,,,,,,,,,,,,,,,,,,,,,,,,,,,,,,,,,,,,,,,,,,,,109.33135813408757,118.61291060429971,172.11853906517237,172.11853906517237,149.28131678680586,69.42731620504858,1.0,1.2,-241,0,0,-11,217,-1,204.38281559944153,204.38291454315186,204.3862760066986,204.39661931991577,204.5451271533966,204.5451271533966,204.5451271533966,204.5451271533966,204.5451271533966,204.5451271533966,204.5451271533966,205.26158618927002,2,0.8592405319213867,None,,,,,,,,,,,,,,,,,,39,2,2025-02-19_12h00.40.617,comp,2024.2.4,57.47842317169098,2025-02-19 12h00.54.811809 -0500,
102,102,0,filler_random,None,None,None,None,None,None,None,None,None,None,2,1.0808830261230469,None,,,,,0,0,0,0,0,102,102,168,205.27869081497192,,,,,,,,,,,,,,,,,,,,,,,,,,,,,,,,,,,,,,,,,,,,,,,,,,,,,,,,,,,,,,,,,,,,,,,,,,,,,,,,,86.14053746144177,153.33648231850987,105.70547649420838,136.08522356197642,88.50302718892401,87.87339691041095,3.0,3.2,-241,-252,0,1,208,280,205.26344442367554,205.2635316848755,205.26707243919373,205.27869081497192,205.4249153137207,205.4249153137207,205.4249153137207,205.4249153137207,205.4249153137207,205.4249153137207,205.4249153137207,206.37875318527222,2,1.0808830261230469,None,,,,,,,,,,,,,,,,,,39,2,2025-02-19_12h00.40.617,comp,2024.2.4,57.47842317169098,2025-02-19 12h00.54.811809 -0500,
103,103,0,critical,dhw,35.0,4.0,upper,127.0,127.0,200.0,125.0,125.0,200.0,2,1.205883264541626,None,,,,,0,0,0,0,0,103,103,53,206.3941195011139,,,,,,,,,,,,,,,,,,,,,,,,,,,,,,,,,,,,,,,,,,,,,,,,,,,,,,,,,,,,,,,,,,,,,,,,,,,,,,,,,127.0,127.0,200.0,125.0,125.0,200.0,4.0,4.1,-222,-271,0,12,258,-271,206.38023614883423,206.38031029701233,206.3833999633789,206.3941195011139,206.54980182647705,206.54980182647705,206.54980182647705,206.54980182647705,206.54980182647705,206.54980182647705,206.54980182647705,207.60813760757446,2,1.205883264541626,None,,,,,,,,,,,,,,,,,,39,2,2025-02-19_12h00.40.617,comp,2024.2.4,57.47842317169098,2025-02-19 12h00.54.811809 -0500,
104,104,0,filler_square,None,None,None,None,None,None,None,None,None,None,1,1.0935606956481934,None,,,,,0,0,0,0,0,104,104,200,207.62576937675476,,,,,,,,,,,,,,,,,,,,,,,,,,,,,,,,,,,,,,,,,,,,,,,,,,,,,,,,,,,,,,,,,,,,,,,,,,,,,,,,,185.88635915737422,185.88635915737422,166.1552726972371,181.72627065526206,106.05995960152569,161.88460267504706,1.0,1.3,200,-278,480,-273,748,-279,207.6099305152893,207.61000847816467,207.61280918121338,207.62576937675476,207.7782642841339,207.7782642841339,207.7782642841339,207.7782642841339,207.7782642841339,207.7782642841339,207.7782642841339,208.72987937927246,1,1.0935606956481934,None,,,,,,,,,,,,,,,,,,39,2,2025-02-19_12h00.40.617,comp,2024.2.4,57.47842317169098,2025-02-19 12h00.54.811809 -0500,
105,105,0,filler_random,None,None,None,None,None,None,None,None,None,None,2,1.293370008468628,None,,,,,0,0,0,0,0,105,105,164,208.74652814865112,,,,,,,,,,,,,,,,,,,,,,,,,,,,,,,,,,,,,,,,,,,,,,,,,,,,,,,,,,,,,,,,,,,,,,,,,,,,,,,,,124.6850943864854,92.06519900795935,93.68587505101445,175.2074007392988,60.3342525696157,107.6131721015295,2.1,2.12,-230,-261,0,-282,237,278,208.73151755332947,208.73159432411194,208.73497891426086,208.74652814865112,208.89649105072021,208.89649105072021,208.89649105072021,208.89649105072021,208.89649105072021,208.89649105072021,208.89649105072021,210.04922342300415,2,1.293370008468628,None,,,,,,,,,,,,,,,,,,39,2,2025-02-19_12h00.40.617,comp,2024.2.4,57.47842317169098,2025-02-19 12h00.54.811809 -0500,
106,106,0,filler_square,None,None,None,None,None,None,None,None,None,None,1,1.030444860458374,None,,,,,0,0,0,0,0,106,106,175,210.06484460830688,,,,,,,,,,,,,,,,,,,,,,,,,,,,,,,,,,,,,,,,,,,,,,,,,,,,,,,,,,,,,,,,,,,,,,,,,,,,,,,,,93.02157668552024,93.02157668552024,67.12552012382352,85.255380339488,66.46529424913156,91.01871131440123,1.0,1.3,295,-276,480,-281,664,-280,210.0511395931244,210.0512216091156,210.05415534973145,210.06484460830688,210.21366238594055,210.21366238594055,210.21366238594055,210.21366238594055,210.21366238594055,210.21366238594055,210.21366238594055,211.0973937511444,1,1.030444860458374,None,,,,,,,,,,,,,,,,,,39,2,2025-02-19_12h00.40.617,comp,2024.2.4,57.47842317169098,2025-02-19 12h00.54.811809 -0500,
107,107,0,filler_square,None,None,None,None,None,None,None,None,None,None,1,2.5908045768737793,None,,,,,0,0,0,0,0,107,107,208,211.11332321166992,,,,,,,,,,,,,,,,,,,,,,,,,,,,,,,,,,,,,,,,,,,,,,,,,,,,,,,,,,,,,,,,,,,,,,,,,,,,,,,,,77.40312298400187,77.40312298400187,61.67436536135239,61.12123030102119,73.12120378197065,68.94772736522836,1.0,1.2,-165,2,0,4,161,0,211.09912705421448,211.09920382499695,211.10260772705078,211.11332321166992,211.26085233688354,211.26085233688354,211.26085233688354,211.26085233688354,211.26085233688354,211.26085233688354,211.26085233688354,213.71776127815247,1,2.5908045768737793,None,,,,,,,,,,,,,,,,,,39,2,2025-02-19_12h00.40.617,comp,2024.2.4,57.47842317169098,2025-02-19 12h00.54.811809 -0500,
108,108,0,filler_random,None,None,None,None,None,None,None,None,None,None,1,1.83406662940979,None,,,,,0,0,0,0,0,108,108,160,213.7339105606079,,,,,,,,,,,,,,,,,,,,,,,,,,,,,,,,,,,,,,,,,,,,,,,,,,,,,,,,,,,,,,,,,,,,,,,,,,,,,,,,,182.31167093743642,119.2868403288816,121.27599191150904,119.45059230113782,185.42642009495768,61.13421037308862,2.2,2.21,-215,-268,0,271,186,280,213.71964597702026,213.71978282928467,213.7230384349823,213.7339105606079,213.88178300857544,213.88178300857544,213.88178300857544,213.88178300857544,213.88178300857544,213.88178300857544,213.88178300857544,215.58706164360046,1,1.83406662940979,None,,,,,,,,,,,,,,,,,,39,2,2025-02-19_12h00.40.617,comp,2024.2.4,57.47842317169098,2025-02-19 12h00.54.811809 -0500,
109,109,0,critical,dhw,35.0,3.0,upper,127.0,127.0,200.0,125.0,125.0,200.0,2,6.252798795700073,None,,,,,0,0,0,0,0,109,109,51,215.60260319709778,,,,,,,,,,,,,,,,,,,,,,,,,,,,,,,,,,,,,,,,,,,,,,,,,,,,,,,,,,,,,,,,,,,,,,,,,,,,,,,,,127.0,127.0,200.0,125.0,125.0,200.0,3.0,3.2,-222,-258,0,17,258,277,215.5887382030487,215.58883929252625,215.59223318099976,215.60260319709778,215.75126004219055,215.75126004219055,215.75126004219055,215.75126004219055,215.75126004219055,215.75126004219055,215.75126004219055,221.8715901374817,2,6.252798795700073,None,,,,,,,,,,,,,,,,,,39,2,2025-02-19_12h00.40.617,comp,2024.2.4,57.47842317169098,2025-02-19 12h00.54.811809 -0500,
110,110,0,filler_square,None,None,None,None,None,None,None,None,None,None,1,1.30440092086792,None,,,,,0,0,0,0,0,110,110,173,221.88753628730774,,,,,,,,,,,,,,,,,,,,,,,,,,,,,,,,,,,,,,,,,,,,,,,,,,,,,,,,,,,,,,,,,,,,,,,,,,,,,,,,,100.8112534573705,100.8112534573705,84.28474071872651,72.38306548488578,57.743282949195,75.50061585197415,1.0,1.1,-663,289,-480,270,-310,274,221.87368059158325,221.87376141548157,221.87717056274414,221.88753628730774,222.03593349456787,222.03593349456787,222.03593349456787,222.03593349456787,222.03593349456787,222.03593349456787,222.03593349456787,223.19974637031555,1,1.30440092086792,None,,,,,,,,,,,,,,,,,,39,2,2025-02-19_12h00.40.617,comp,2024.2.4,57.47842317169098,2025-02-19 12h00.54.811809 -0500,
111,111,0,critical,wdh,35.0,4.0,upper,125.0,200.0,127.0,127.0,200.0,125.0,1,1.1843676567077637,None,,,,,0,0,0,0,0,111,111,77,223.2155978679657,,,,,,,,,,,,,,,,,,,,,,,,,,,,,,,,,,,,,,,,,,,,,,,,,,,,,,,,,,,,,,,,,,,,,,,,,,,,,,,,,125.0,200.0,127.0,127.0,200.0,125.0,4.0,4.2,-260,-8,0,-255,222,-12,223.20130324363708,223.20137977600098,223.2046344280243,223.2155978679657,223.36878108978271,223.36878108978271,223.36878108978271,223.36878108978271,223.36878108978271,223.36878108978271,223.36878108978271,224.40757012367249,1,1.1843676567077637,None,,,,,,,,,,,,,,,,,,39,2,2025-02-19_12h00.40.617,comp,2024.2.4,57.47842317169098,2025-02-19 12h00.54.811809 -0500,
112,112,0,filler_random,None,None,None,None,None,None,None,None,None,None,2,1.774829626083374,None,,,,,0,0,0,0,0,112,112,137,224.4251585006714,,,,,,,,,,,,,,,,,,,,,,,,,,,,,,,,,,,,,,,,,,,,,,,,,,,,,,,,,,,,,,,,,,,,,,,,,,,,,,,,,173.05730686960402,67.525058429399,190.9745128616059,189.93617635844828,103.80860217216151,96.84254392261836,1.0,1.3,255,-273,480,-273,719,-275,224.40919637680054,224.40927386283875,224.4120397567749,224.4251585006714,224.56788539886475,224.56788539886475,224.56788539886475,224.56788539886475,224.56788539886475,224.56788539886475,224.56788539886475,226.20249676704407,2,1.774829626083374,None,,,,,,,,,,,,,,,,,,39,2,2025-02-19_12h00.40.617,comp,2024.2.4,57.47842317169098,2025-02-19 12h00.54.811809 -0500,
113,113,0,critical,hdw,35.0,4.0,lower,133.0,57.0,70.0,70.0,57.0,133.0,1,3.028346538543701,None,,,,,0,0,0,0,0,113,113,112,226.21948790550232,,,,,,,,,,,,,,,,,,,,,,,,,,,,,,,,,,,,,,,,,,,,,,,,,,,,,,,,,,,,,,,,,,,,,,,,,,,,,,,,,133.0,57.0,70.0,70.0,57.0,133.0,4.0,4.2,-160,-10,0,-267,198,-13,226.20410871505737,226.20418500900269,226.20792388916016,226.21948790550232,226.37474727630615,226.37474727630615,226.37474727630615,226.37474727630615,226.37474727630615,226.37474727630615,226.37474727630615,229.25208282470703,1,3.028346538543701,None,,,,,,,,,,,,,,,,,,39,2,2025-02-19_12h00.40.617,comp,2024.2.4,57.47842317169098,2025-02-19 12h00.54.811809 -0500,
114,114,0,critical,wdh,20.0,3.0,lower,57.0,133.0,78.0,78.0,133.0,57.0,2,0.9676027297973633,None,,,,,0,0,0,0,0,114,114,80,229.27235221862793,,,,,,,,,,,,,,,,,,,,,,,,,,,,,,,,,,,,,,,,,,,,,,,,,,,,,,,,,,,,,,,,,,,,,,,,,,,,,,,,,57.0,133.0,78.0,78.0,133.0,57.0,3.0,3.1,-202,289,0,11,164,-270,229.25362753868103,229.25370335578918,229.25673985481262,229.27235221862793,229.4192988872528,229.4192988872528,229.4192988872528,229.4192988872528,229.4192988872528,229.4192988872528,229.4192988872528,230.2488420009613,2,0.9676027297973633,None,,,,,,,,,,,,,,,,,,39,2,2025-02-19_12h00.40.617,comp,2024.2.4,57.47842317169098,2025-02-19 12h00.54.811809 -0500,
115,115,0,critical,wdh,20.0,2.1,upper,125.0,200.0,141.0,141.0,200.0,125.0,1,1.2067716121673584,None,,,,,0,0,0,0,0,115,115,11,230.26482224464417,,,,,,,,,,,,,,,,,,,,,,,,,,,,,,,,,,,,,,,,,,,,,,,,,,,,,,,,,,,,,,,,,,,,,,,,,,,,,,,,,125.0,200.0,141.0,141.0,200.0,125.0,2.1,2.12,-266,-252,0,-251,229,261,230.25036525726318,230.25048398971558,230.253262758255,230.26482224464417,230.40130877494812,230.40130877494812,230.40130877494812,230.40130877494812,230.40130877494812,230.40130877494812,230.40130877494812,231.48675394058228,1,1.2067716121673584,None,,,,,,,,,,,,,,,,,,39,2,2025-02-19_12h00.40.617,comp,2024.2.4,57.47842317169098,2025-02-19 12h00.54.811809 -0500,
116,116,0,filler_square,None,None,None,None,None,None,None,None,None,None,1,1.6880414485931396,None,,,,,0,0,0,0,0,116,116,172,231.50321984291077,,,,,,,,,,,,,,,,,,,,,,,,,,,,,,,,,,,,,,,,,,,,,,,,,,,,,,,,,,,,,,,,,,,,,,,,,,,,,,,,,169.19018481238612,169.19018481238612,83.12867350608782,114.44119561535042,127.65011412518274,67.09880459728294,3.0,3.1,-238,282,0,-15,187,-270,231.4887285232544,231.48880410194397,231.49192905426025,231.50321984291077,231.65002155303955,231.65002155303955,231.65002155303955,231.65002155303955,231.65002155303955,231.65002155303955,231.65002155303955,233.20395493507385,1,1.6880414485931396,None,,,,,,,,,,,,,,,,,,39,2,2025-02-19_12h00.40.617,comp,2024.2.4,57.47842317169098,2025-02-19 12h00.54.811809 -0500,
117,117,0,filler_random,None,None,None,None,None,None,None,None,None,None,2,1.003556251525879,None,,,,,0,0,0,0,0,117,117,152,233.22002005577087,,,,,,,,,,,,,,,,,,,,,,,,,,,,,,,,,,,,,,,,,,,,,,,,,,,,,,,,,,,,,,,,,,,,,,,,,,,,,,,,,141.79084997483778,199.62549784439787,145.7005475531298,193.19527745262658,93.58024068454522,170.89790024516364,4.0,4.1,-292,-286,0,18,278,-261,233.20563435554504,233.20571184158325,233.20876598358154,233.22002005577087,233.3713035583496,233.3713035583496,233.3713035583496,233.3713035583496,233.3713035583496,233.3713035583496,233.3713035583496,234.2374701499939,2,1.003556251525879,None,,,,,,,,,,,,,,,,,,39,2,2025-02-19_12h00.40.617,comp,2024.2.4,57.47842317169098,2025-02-19 12h00.54.811809 -0500,
118,118,0,catch,None,None,None,None,None,None,None,None,None,None,3,1.2291827201843262,None,,,,,0,0,0,0,0,118,118,120,234.25817680358887,,,,,,,,,,,,,,,,,,,,,,,,,,,,,,,,,,,,,,,,,,,,,,,,,,,,,,,,,,,,,,,,,,,,,,,,,,,,,,,,,124,66,106,84,132,193,2.2,2.21,-171,-266,0,273,234,272,234.23956036567688,234.23963499069214,234.24284267425537,234.25817680358887,234.40521264076233,234.40521264076233,234.40521264076233,234.40521264076233,234.40521264076233,234.40521264076233,234.40521264076233,235.5050013065338,3,1.2291827201843262,None,,,,,,,,,,,,,,,,,,39,2,2025-02-19_12h00.40.617,comp,2024.2.4,57.47842317169098,2025-02-19 12h00.54.811809 -0500,
119,119,0,critical,hwd,20.0,2.1,upper,200.0,125.0,125.0,200.0,141.0,141.0,1,1.503553867340088,None,,,,,0,0,0,0,0,119,119,19,235.52021837234497,,,,,,,,,,,,,,,,,,,,,,,,,,,,,,,,,,,,,,,,,,,,,,,,,,,,,,,,,,,,,,,,,,,,,,,,,,,,,,,,,200.0,125.0,125.0,200.0,141.0,141.0,2.1,2.11,-258,286,0,261,266,-271,235.50648999214172,235.50656604766846,235.50968432426453,235.52021837234497,235.67054080963135,235.67054080963135,235.67054080963135,235.67054080963135,235.67054080963135,235.67054080963135,235.67054080963135,237.02924799919128,1,1.503553867340088,None,,,,,,,,,,,,,,,,,,39,2,2025-02-19_12h00.40.617,comp,2024.2.4,57.47842317169098,2025-02-19 12h00.54.811809 -0500,
120,120,0,filler_square,None,None,None,None,None,None,None,None,None,None,3,1.322472333908081,None,,,,,0,0,0,0,0,120,120,180,237.04534077644348,,,,,,,,,,,,,,,,,,,,,,,,,,,,,,,,,,,,,,,,,,,,,,,,,,,,,,,,,,,,,,,,,,,,,,,,,,,,,,,,,99.74483526986309,114.7863780726789,147.58020354092338,127.73181310229789,194.70361247478303,194.70361247478303,4.0,4.2,-217,19,0,-252,257,20,237.03119277954102,237.03127074241638,237.03436875343323,237.04534077644348,237.19561052322388,237.19561052322388,237.19561052322388,237.19561052322388,237.19561052322388,237.19561052322388,237.19561052322388,238.37104487419128,3,1.322472333908081,None,,,,,,,,,,,,,,,,,,39,2,2025-02-19_12h00.40.617,comp,2024.2.4,57.47842317169098,2025-02-19 12h00.54.811809 -0500,
121,121,0,filler_random,None,None,None,None,None,None,None,None,None,None,3,0.7004852294921875,None,,,,,0,0,0,0,0,121,121,148,238.38683676719666,,,,,,,,,,,,,,,,,,,,,,,,,,,,,,,,,,,,,,,,,,,,,,,,,,,,,,,,,,,,,,,,,,,,,,,,,,,,,,,,,83.88182776908913,66.37476724059832,74.45986894298441,172.1534184252122,171.03741789872527,191.78193323843706,2.2,2.22,-215,277,0,-250,278,-274,238.3727207183838,238.3727991580963,238.3755967617035,238.38683676719666,238.538959980011,238.538959980011,238.538959980011,238.538959980011,238.538959980011,238.538959980011,238.538959980011,239.10581183433533,3,0.7004852294921875,None,,,,,,,,,,,,,,,,,,39,2,2025-02-19_12h00.40.617,comp,2024.2.4,57.47842317169098,2025-02-19 12h00.54.811809 -0500,
122,122,0,critical,dhw,20.0,1.0,lower,78.0,78.0,133.0,57.0,57.0,133.0,2,1.5831890106201172,None,,,,,0,0,0,0,0,122,122,54,239.12077045440674,,,,,,,,,,,,,,,,,,,,,,,,,,,,,,,,,,,,,,,,,,,,,,,,,,,,,,,,,,,,,,,,,,,,,,,,,,,,,,,,,78.0,78.0,133.0,57.0,57.0,133.0,1.0,1.1,-644,283,-480,254,-289,251,239.10729384422302,239.10736799240112,239.11017060279846,239.12077045440674,239.27374911308289,239.27374911308289,239.27374911308289,239.27374911308289,239.27374911308289,239.27374911308289,239.27374911308289,240.71243810653687,2,1.5831890106201172,None,,,,,,,,,,,,,,,,,,39,2,2025-02-19_12h00.40.617,comp,2024.2.4,57.47842317169098,2025-02-19 12h00.54.811809 -0500,
123,123,0,filler_random,None,None,None,None,None,None,None,None,None,None,1,0.9441144466400146,None,,,,,0,0,0,0,0,123,123,145,240.72781419754028,,,,,,,,,,,,,,,,,,,,,,,,,,,,,,,,,,,,,,,,,,,,,,,,,,,,,,,,,,,,,,,,,,,,,,,,,,,,,,,,,189.53208767797767,188.366497702323,80.88879794796503,115.87134989270564,182.51343003945925,78.86432967564271,2.2,2.22,-248,268,0,-266,193,-268,240.71408367156982,240.71415972709656,240.71701502799988,240.72781419754028,240.8729944229126,240.8729944229126,240.8729944229126,240.8729944229126,240.8729944229126,240.8729944229126,240.8729944229126,241.67403602600098,1,0.9441144466400146,None,,,,,,,,,,,,,,,,,,39,2,2025-02-19_12h00.40.617,comp,2024.2.4,57.47842317169098,2025-02-19 12h00.54.811809 -0500,
124,124,0,critical,dhw,35.0,2.1,lower,70.0,70.0,133.0,57.0,57.0,133.0,3,2.5580241680145264,None,,,,,0,0,0,0,0,124,124,0,241.68968868255615,,,,,,,,,,,,,,,,,,,,,,,,,,,,,,,,,,,,,,,,,,,,,,,,,,,,,,,,,,,,,,,,,,,,,,,,,,,,,,,,,70.0,70.0,133.0,57.0,57.0,133.0,2.1,2.12,-160,-268,0,-272,191,279,241.67551803588867,241.6755964756012,241.6788420677185,241.68968868255615,241.83878827095032,241.83878827095032,241.83878827095032,241.83878827095032,241.83878827095032,241.83878827095032,241.83878827095032,244.2591359615326,3,2.5580241680145264,None,,,,,,,,,,,,,,,,,,39,2,2025-02-19_12h00.40.617,comp,2024.2.4,57.47842317169098,2025-02-19 12h00.54.811809 -0500,
125,125,0,critical,wdh,35.0,2.1,lower,57.0,133.0,70.0,70.0,133.0,57.0,1,1.7158617973327637,None,,,,,0,0,0,0,0,125,125,32,244.27552938461304,,,,,,,,,,,,,,,,,,,,,,,,,,,,,,,,,,,,,,,,,,,,,,,,,,,,,,,,,,,,,,,,,,,,,,,,,,,,,,,,,57.0,133.0,70.0,70.0,133.0,57.0,2.1,2.11,-198,277,0,279,160,-282,244.26070928573608,244.26083493232727,244.26476430892944,244.27552938461304,244.42516255378723,244.42516255378723,244.42516255378723,244.42516255378723,244.42516255378723,244.42516255378723,244.42516255378723,246.0081331729889,1,1.7158617973327637,None,,,,,,,,,,,,,,,,,,39,2,2025-02-19_12h00.40.617,comp,2024.2.4,57.47842317169098,2025-02-19 12h00.54.811809 -0500,
126,126,0,critical,hwd,20.0,3.0,lower,133.0,57.0,57.0,133.0,78.0,78.0,2,1.2719454765319824,None,,,,,0,0,0,0,0,126,126,104,246.0234944820404,,,,,,,,,,,,,,,,,,,,,,,,,,,,,,,,,,,,,,,,,,,,,,,,,,,,,,,,,,,,,,,,,,,,,,,,,,,,,,,,,133.0,57.0,57.0,133.0,78.0,78.0,3.0,3.2,-191,-280,0,0,202,270,246.00973510742188,246.00981044769287,246.01318049430847,246.0234944820404,246.16775798797607,246.16775798797607,246.16775798797607,246.16775798797607,246.16775798797607,246.16775798797607,246.16775798797607,247.3133008480072,2,1.2719454765319824,None,,,,,,,,,,,,,,,,,,39,2,2025-02-19_12h00.40.617,comp,2024.2.4,57.47842317169098,2025-02-19 12h00.54.811809 -0500,
127,127,0,critical,dwh,35.0,2.1,upper,127.0,127.0,125.0,200.0,200.0,125.0,2,0.9647090435028076,None,,,,,0,0,0,0,0,127,127,5,247.3310146331787,,,,,,,,,,,,,,,,,,,,,,,,,,,,,,,,,,,,,,,,,,,,,,,,,,,,,,,,,,,,,,,,,,,,,,,,,,,,,,,,,127.0,127.0,125.0,200.0,200.0,125.0,2.1,2.11,-260,251,0,270,258,-256,247.31493425369263,247.31509637832642,247.31833696365356,247.3310146331787,247.47517681121826,247.47517681121826,247.47517681121826,247.47517681121826,247.47517681121826,247.47517681121826,247.47517681121826,248.30979204177856,2,0.9647090435028076,None,,,,,,,,,,,,,,,,,,39,2,2025-02-19_12h00.40.617,comp,2024.2.4,57.47842317169098,2025-02-19 12h00.54.811809 -0500,
128,128,0,critical,hdw,20.0,1.0,lower,133.0,57.0,78.0,78.0,57.0,133.0,3,0.9698140621185303,None,,,,,0,0,0,0,0,128,128,114,248.32561993598938,,,,,,,,,,,,,,,,,,,,,,,,,,,,,,,,,,,,,,,,,,,,,,,,,,,,,,,,,,,,,,,,,,,,,,,,,,,,,,,,,133.0,57.0,78.0,78.0,57.0,133.0,1.0,1.1,-644,288,-480,283,-278,262,248.31127405166626,248.31135177612305,248.31538224220276,248.32561993598938,248.47492051124573,248.47492051124573,248.47492051124573,248.47492051124573,248.47492051124573,248.47492051124573,248.47492051124573,249.3115565776825,3,0.9698140621185303,None,,,,,,,,,,,,,,,,,,39,2,2025-02-19_12h00.40.617,comp,2024.2.4,57.47842317169098,2025-02-19 12h00.54.811809 -0500,
129,129,0,critical,hdw,20.0,1.0,upper,200.0,125.0,141.0,141.0,125.0,200.0,1,2.2085721492767334,None,,,,,0,0,0,0,0,129,129,115,249.32686734199524,,,,,,,,,,,,,,,,,,,,,,,,,,,,,,,,,,,,,,,,,,,,,,,,,,,,,,,,,,,,,,,,,,,,,,,,,,,,,,,,,200.0,125.0,141.0,141.0,125.0,200.0,1.0,1.3,251,-284,480,-256,746,-259,249.31310415267944,249.31317973136902,249.31653118133545,249.32686734199524,249.47659277915955,249.47659277915955,249.47659277915955,249.47659277915955,249.47659277915955,249.47659277915955,249.47659277915955,251.5500111579895,1,2.2085721492767334,None,,,,,,,,,,,,,,,,,,39,2,2025-02-19_12h00.40.617,comp,2024.2.4,57.47842317169098,2025-02-19 12h00.54.811809 -0500,
130,130,0,critical,wdh,35.0,2.1,upper,125.0,200.0,127.0,127.0,200.0,125.0,1,1.3301434516906738,None,,,,,0,0,0,0,0,130,130,33,251.56534790992737,,,,,,,,,,,,,,,,,,,,,,,,,,,,,,,,,,,,,,,,,,,,,,,,,,,,,,,,,,,,,,,,,,,,,,,,,,,,,,,,,125.0,200.0,127.0,127.0,200.0,125.0,2.1,2.12,-260,-250,0,-283,222,273,251.55154514312744,251.55162382125854,251.5545470714569,251.56534790992737,251.71067190170288,251.71067190170288,251.71067190170288,251.71067190170288,251.71067190170288,251.71067190170288,251.71067190170288,252.89807105064392,1,1.3301434516906738,None,,,,,,,,,,,,,,,,,,39,2,2025-02-19_12h00.40.617,comp,2024.2.4,57.47842317169098,2025-02-19 12h00.54.811809 -0500,
131,131,0,critical,hwd,35.0,2.1,lower,133.0,57.0,57.0,133.0,70.0,70.0,2,1.5502238273620605,None,,,,,0,0,0,0,0,131,131,16,252.91376399993896,,,,,,,,,,,,,,,,,,,,,,,,,,,,,,,,,,,,,,,,,,,,,,,,,,,,,,,,,,,,,,,,,,,,,,,,,,,,,,,,,133.0,57.0,57.0,133.0,70.0,70.0,2.1,2.12,-191,-279,0,-283,198,284,252.90018844604492,252.90026998519897,252.90315103530884,252.91376399993896,253.06343865394592,253.06343865394592,253.06343865394592,253.06343865394592,253.06343865394592,253.06343865394592,253.06343865394592,254.4701075553894,2,1.5502238273620605,None,,,,,,,,,,,,,,,,,,39,2,2025-02-19_12h00.40.617,comp,2024.2.4,57.47842317169098,2025-02-19 12h00.54.811809 -0500,
132,132,0,critical,dwh,35.0,2.1,lower,70.0,70.0,57.0,133.0,133.0,57.0,2,0.8076658248901367,None,,,,,0,0,0,0,0,132,132,4,254.48766469955444,,,,,,,,,,,,,,,,,,,,,,,,,,,,,,,,,,,,,,,,,,,,,,,,,,,,,,,,,,,,,,,,,,,,,,,,,,,,,,,,,70.0,70.0,57.0,133.0,133.0,57.0,2.1,2.12,-198,-287,0,-283,191,281,254.47161555290222,254.4716911315918,254.4745512008667,254.48766469955444,254.6280026435852,254.6280026435852,254.6280026435852,254.6280026435852,254.6280026435852,254.6280026435852,254.6280026435852,255.3117344379425,2,0.8076658248901367,None,,,,,,,,,,,,,,,,,,39,2,2025-02-19_12h00.40.617,comp,2024.2.4,57.47842317169098,2025-02-19 12h00.54.811809 -0500,
133,133,0,filler_square,None,None,None,None,None,None,None,None,None,None,2,1.9567217826843262,None,,,,,0,0,0,0,0,133,133,181,255.33120799064636,,,,,,,,,,,,,,,,,,,,,,,,,,,,,,,,,,,,,,,,,,,,,,,,,,,,,,,,,,,,,,,,,,,,,,,,,,,,,,,,,72.69998930443039,73.27718615268027,77.19109748965128,77.19109748965128,69.71425285205186,63.89149998856167,1.0,1.1,-651,286,-480,273,-313,252,255.3135051727295,255.31357979774475,255.3166379928589,255.33120799064636,255.47904014587402,255.47904014587402,255.47904014587402,255.47904014587402,255.47904014587402,255.47904014587402,255.47904014587402,257.2959191799164,2,1.9567217826843262,None,,,,,,,,,,,,,,,,,,39,2,2025-02-19_12h00.40.617,comp,2024.2.4,57.47842317169098,2025-02-19 12h00.54.811809 -0500,
134,134,0,filler_square,None,None,None,None,None,None,None,None,None,None,1,1.4960296154022217,None,,,,,0,0,0,0,0,134,134,190,257.31164288520813,,,,,,,,,,,,,,,,,,,,,,,,,,,,,,,,,,,,,,,,,,,,,,,,,,,,,,,,,,,,,,,,,,,,,,,,,,,,,,,,,71.38698551764342,71.38698551764342,60.181763087000334,66.29928417563721,67.48952263556905,63.3998663877908,1.0,1.1,-645,257,-480,264,-319,256,257.29775881767273,257.2978401184082,257.3009283542633,257.31164288520813,257.4626259803772,257.4626259803772,257.4626259803772,257.4626259803772,257.4626259803772,257.4626259803772,257.4626259803772,258.8131523132324,1,1.4960296154022217,None,,,,,,,,,,,,,,,,,,39,2,2025-02-19_12h00.40.617,comp,2024.2.4,57.47842317169098,2025-02-19 12h00.54.811809 -0500,
135,135,0,filler_random,None,None,None,None,None,None,None,None,None,None,3,1.114856481552124,None,,,,,0,0,0,0,0,135,135,167,258.82906317710876,,,,,,,,,,,,,,,,,,,,,,,,,,,,,,,,,,,,,,,,,,,,,,,,,,,,,,,,,,,,,,,,,,,,,,,,,,,,,,,,,78.25574198692222,132.75984547650665,102.1306820042225,104.19264367033651,175.89898795438992,173.79997347087692,2.1,2.12,-214,-268,0,-257,235,268,258.81487011909485,258.8149492740631,258.8182053565979,258.82906317710876,258.98110461235046,258.98110461235046,258.98110461235046,258.98110461235046,258.98110461235046,258.98110461235046,258.98110461235046,259.94965171813965,3,1.114856481552124,None,,,,,,,,,,,,,,,,,,39,2,2025-02-19_12h00.40.617,comp,2024.2.4,57.47842317169098,2025-02-19 12h00.54.811809 -0500,
136,136,0,filler_random,None,None,None,None,None,None,None,None,None,None,3,1.3030908107757568,None,,,,,0,0,0,0,0,136,136,162,259.96907353401184,,,,,,,,,,,,,,,,,,,,,,,,,,,,,,,,,,,,,,,,,,,,,,,,,,,,,,,,,,,,,,,,,,,,,,,,,,,,,,,,,87.37640296192278,114.62703677750824,95.49708928808809,102.13575144665913,90.62620370140957,183.7125584462549,3.0,3.1,-204,270,0,-8,239,-280,259.95145559310913,259.951593875885,259.954806804657,259.96907353401184,260.1131591796875,260.1131591796875,260.1131591796875,260.1131591796875,260.1131591796875,260.1131591796875,260.1131591796875,261.2798671722412,3,1.3030908107757568,None,,,,,,,,,,,,,,,,,,39,2,2025-02-19_12h00.40.617,comp,2024.2.4,57.47842317169098,2025-02-19 12h00.54.811809 -0500,
137,137,0,filler_random,None,None,None,None,None,None,None,None,None,None,3,1.1837432384490967,None,,,,,0,0,0,0,0,137,137,142,261.29562735557556,,,,,,,,,,,,,,,,,,,,,,,,,,,,,,,,,,,,,,,,,,,,,,,,,,,,,,,,,,,,,,,,,,,,,,,,,,,,,,,,,90.05576887958634,179.11714322241943,94.1691984273717,141.71512350377435,185.35327405355915,117.06482351051086,2.2,2.22,-256,259,0,-289,225,-277,261.28150153160095,261.28163623809814,261.2850012779236,261.29562735557556,261.44639325141907,261.44639325141907,261.44639325141907,261.44639325141907,261.44639325141907,261.44639325141907,261.44639325141907,262.4815831184387,3,1.1837432384490967,None,,,,,,,,,,,,,,,,,,39,2,2025-02-19_12h00.40.617,comp,2024.2.4,57.47842317169098,2025-02-19 12h00.54.811809 -0500,
138,138,0,critical,whd,20.0,1.0,upper,125.0,200.0,200.0,125.0,141.0,141.0,2,1.2058582305908203,None,,,,,0,0,0,0,0,138,138,91,262.4976625442505,,,,,,,,,,,,,,,,,,,,,,,,,,,,,,,,,,,,,,,,,,,,,,,,,,,,,,,,,,,,,,,,,,,,,,,,,,,,,,,,,125.0,200.0,200.0,125.0,141.0,141.0,1.0,1.1,-738,284,-480,260,-251,275,262.4831483364105,262.48325991630554,262.4868004322052,262.4976625442505,262.64668321609497,262.64668321609497,262.64668321609497,262.64668321609497,262.64668321609497,262.64668321609497,262.64668321609497,263.7129318714142,2,1.2058582305908203,None,,,,,,,,,,,,,,,,,,39,2,2025-02-19_12h00.40.617,comp,2024.2.4,57.47842317169098,2025-02-19 12h00.54.811809 -0500,
139,139,0,critical,dhw,35.0,1.0,lower,70.0,70.0,133.0,57.0,57.0,133.0,2,3.150636672973633,None,,,,,0,0,0,0,0,139,139,48,263.729332447052,,,,,,,,,,,,,,,,,,,,,,,,,,,,,,,,,,,,,,,,,,,,,,,,,,,,,,,,,,,,,,,,,,,,,,,,,,,,,,,,,70.0,70.0,133.0,57.0,57.0,133.0,1.0,1.1,-640,266,-480,254,-289,271,263.7145595550537,263.71463537216187,263.71794509887695,263.729332447052,263.8794882297516,263.8794882297516,263.8794882297516,263.8794882297516,263.8794882297516,263.8794882297516,263.8794882297516,266.8976809978485,2,3.150636672973633,None,,,,,,,,,,,,,,,,,,39,2,2025-02-19_12h00.40.617,comp,2024.2.4,57.47842317169098,2025-02-19 12h00.54.811809 -0500,
