thisN,thisTrialN,thisRepN,effect,order,distance,config,diag,h_1,w_1,h_2,w_2,h_3,w_3,rect_choice.keys,rect_choice.rt,rect_choice.duration,instructions_loop.thisRepN,instructions_loop.thisTrialN,instructions_loop.thisN,instructions_loop.thisIndex,blocks.thisRepN,blocks.thisTrialN,blocks.thisN,blocks.thisIndex,trials.thisRepN,trials.thisTrialN,trials.thisN,trials.thisIndex,thisRow.t,notes,consent.started,agree_button.started,decline_button.started,consent_img.started,mouse.started,consent.stopped,agree_button.numClicks,agree_button.timesOn,agree_button.timesOff,decline_button.numClicks,decline_button.timesOn,decline_button.timesOff,mouse.x,mouse.y,mouse.leftButton,mouse.midButton,mouse.rightButton,mouse.time,mouse.clicked_name,exp_params.started,exp_params.stopped,welcome.started,welcome_text.started,welcome.stopped,instructions_1.started,instructions_1_text_1.started,instructions_1_text_2.started,key_resp.started,instructions_1.stopped,instructions_loop.key_resp.keys,instructions_loop.key_resp.rt,instructions_loop.key_resp.duration,instructions_2.started,instructions_2_text_1.started,instructions_2_text_2.started,key_resp_2.started,instructions_2.stopped,instructions_loop.key_resp_2.keys,instructions_loop.key_resp_2.rt,instructions_loop.key_resp_2.duration,instructions_3.started,instructions_3_text_1.started,r1_instr3.started,r2_instr3.started,r3_instr3.started,r1_instr3_label.started,r2_instr3_label.started,r3_instr3_label.started,instructions_3_text_3.started,instructions_3_text_4.started,key_resp_3.started,instructions_3.stopped,instructions_loop.key_resp_3.keys,instructions_loop.key_resp_3.rt,instructions_loop.key_resp_3.duration,instructions_4.started,instructions_4_text_1.started,instructions_4_text_3.started,instructions_4_text_2.started,key_resp_4.started,instructions_4.stopped,instructions_loop.key_resp_4.keys,instructions_loop.key_resp_4.rt,instructions_loop.key_resp_4.duration,instructions_5.started,instructions_5_text_1.started,instructions_5_text_2.started,key_resp_5.started,instructions_5.stopped,instructions_loop.key_resp_5.keys,instructions_loop.key_resp_5.rt,instructions_loop.key_resp_5.duration,start_exp.started,start_exp_text.started,key_resp_6.started,start_exp.stopped,key_resp_6.keys,key_resp_6.rt,key_resp_6.duration,h_1_tmp,w_1_tmp,h_2_tmp,w_2_tmp,h_3_tmp,w_3_tmp,config_tmp,config_tmp_1,r_1_x,r_1_y,r_2_x,r_2_y,r_3_x,r_3_y,pre_trial.started,pre_trial.stopped,choice_trial.started,rect_choice.started,r_1.started,r_2.started,r_3.started,r_1_label.started,r_2_label.started,r_3_label.started,prompt.started,choice_trial.stopped,trials.rect_choice.keys,trials.rect_choice.rt,trials.rect_choice.duration,end_block.started,end_block_text.started,end_block.stopped,end.started,end_text.started,key_resp_7.started,end.stopped,key_resp_7.keys,key_resp_7.rt,key_resp_7.duration,debriefing.started,debrief_form.started,end_debrief.started,debriefing.stopped,end_debrief.keys,end_debrief.rt,end_debrief.duration,participant,computer,date,expName,psychopyVersion,frameRate,expStart,
,,,,,,,,,,,,,,,,,,,,,,,,,,,,,,,0.015161752700805664,0.04220843315124512,0.04220843315124512,0.04220843315124512,0.014686822891235352,6.166085720062256,1,[6.122640371322632],[6.122650861740112],0,,,[-75.0],[-488.0],[1],[0],[0],[6.150351285934448],['agree_button'],,,,,,,,,,,,,,,,,,,,,,,,,,,,,,,,,,,,,,,,,,,,,,,,,,,,,,,,,,,,,,,,,,,,,,,,,,,,,,,,,,,,,,,,,,,,,,,,,,,,,,,,,,,3,3,2025-02-18_10h03.28.014,comp,2024.2.4,60.06828441144795,2025-02-18 10h03.48.296979 -0500,
,,,,,,,,,,,,,,,,,,,,,,,,,,,,,,,,,,,,,,,,,,,,,,,,,,6.166353702545166,6.166388273239136,,,,,,,,,,,,,,,,,,,,,,,,,,,,,,,,,,,,,,,,,,,,,,,,,,,,,,,,,,,,,,,,,,,,,,,,,,,,,,,,,,,,,,,,,,,,,,,,,,,,,,,,,3,3,2025-02-18_10h03.28.014,comp,2024.2.4,60.06828441144795,2025-02-18 10h03.48.296979 -0500,
,,,,,,,,,,,,,,,,,,,,,,,,,,,,,,,,,,,,,,,,,,,,,,,,,,,,6.1664111614227295,6.179882526397705,8.169126987457275,,,,,,,,,,,,,,,,,,,,,,,,,,,,,,,,,,,,,,,,,,,,,,,,,,,,,,,,,,,,,,,,,,,,,,,,,,,,,,,,,,,,,,,,,,,,,,,,,,,,,,3,3,2025-02-18_10h03.28.014,comp,2024.2.4,60.06828441144795,2025-02-18 10h03.48.296979 -0500,
0,0,0,,,,,,,,,,,,,,,0,0,0,0,,,,,,,,,8.18594765663147,,,,,,,,,,,,,,,,,,,,,,,,,,8.169856309890747,8.18594765663147,8.18594765663147,9.66842770576477,13.003377676010132,space,3.3217220306396484,None,13.00345754623413,13.01861047744751,13.01861047744751,14.518494844436646,33.936071157455444,space,19.40832233428955,None,33.93615794181824,33.95815134048462,33.95815134048462,33.95815134048462,33.95815134048462,33.95815134048462,33.95815134048462,33.95815134048462,33.95815134048462,33.95815134048462,35.43534445762634,40.736438274383545,space,5.291456937789917,None,40.73652386665344,40.75210905075073,40.75210905075073,40.75210905075073,42.25157141685486,52.369322061538696,space,10.100225925445557,None,52.369406938552856,52.38491988182068,52.38491988182068,53.884748458862305,55.60254764556885,space,1.705005168914795,None,55.602659463882446,55.61811375617981,55.61811375617981,58.11912989616394,space,2.4837100505828857,None,,,,,,,,,,,,,,,,,,,,,,,,,,,,,,,,,,,,,,,,,,,,,,,3,3,2025-02-18_10h03.28.014,comp,2024.2.4,60.06828441144795,2025-02-18 10h03.48.296979 -0500,
0,0,0,filler_random,None,None,None,None,None,None,None,None,None,None,1,3.9071381092071533,None,,,,,0,0,0,0,0,0,0,160,58.17852020263672,,,,,,,,,,,,,,,,,,,,,,,,,,,,,,,,,,,,,,,,,,,,,,,,,,,,,,,,,,,,,,,,,,,,,,,,,,,,,,,,,109.71690207526387,149.65216568021611,79.10644108843925,135.106283807717,109.83504339954837,73.56297818176934,3.0,3.1,-238,267,0,19,200,-273,58.16506052017212,58.1651074886322,58.16713094711304,58.17852020263672,58.3241126537323,58.3241126537323,58.3241126537323,58.3241126537323,58.3241126537323,58.3241126537323,58.3241126537323,62.10266590118408,1,3.9071381092071533,None,,,,,,,,,,,,,,,,,,3,3,2025-02-18_10h03.28.014,comp,2024.2.4,60.06828441144795,2025-02-18 10h03.48.296979 -0500,
1,1,0,critical,hwd,20.0,2.1,upper,200.0,125.0,125.0,200.0,141.0,141.0,2,6.89726448059082,None,,,,,0,0,0,0,0,1,1,19,62.118093967437744,,,,,,,,,,,,,,,,,,,,,,,,,,,,,,,,,,,,,,,,,,,,,,,,,,,,,,,,,,,,,,,,,,,,,,,,,,,,,,,,,200.0,125.0,125.0,200.0,141.0,141.0,2.1,2.12,-258,-279,0,-277,266,270,62.1034677028656,62.1035099029541,62.105881690979004,62.118093967437744,62.26840829849243,62.26840829849243,62.26840829849243,62.26840829849243,62.26840829849243,62.26840829849243,62.26840829849243,69.0194833278656,2,6.89726448059082,None,,,,,,,,,,,,,,,,,,3,3,2025-02-18_10h03.28.014,comp,2024.2.4,60.06828441144795,2025-02-18 10h03.48.296979 -0500,
2,2,0,critical,hwd,35.0,1.0,lower,133.0,57.0,57.0,133.0,70.0,70.0,1,8.602845191955566,None,,,,,0,0,0,0,0,2,2,96,69.03495121002197,,,,,,,,,,,,,,,,,,,,,,,,,,,,,,,,,,,,,,,,,,,,,,,,,,,,,,,,,,,,,,,,,,,,,,,,,,,,,,,,,133.0,57.0,57.0,133.0,70.0,70.0,1.0,1.1,-671,255,-480,272,-282,259,69.0202648639679,69.02032089233398,69.02238488197327,69.03495121002197,69.18464493751526,69.18464493751526,69.18464493751526,69.18464493751526,69.18464493751526,69.18464493751526,69.18464493751526,77.65242075920105,1,8.602845191955566,None,,,,,,,,,,,,,,,,,,3,3,2025-02-18_10h03.28.014,comp,2024.2.4,60.06828441144795,2025-02-18 10h03.48.296979 -0500,
3,3,0,filler_square,None,None,None,None,None,None,None,None,None,None,2,4.300335884094238,None,,,,,0,0,0,0,0,3,3,196,77.6678569316864,,,,,,,,,,,,,,,,,,,,,,,,,,,,,,,,,,,,,,,,,,,,,,,,,,,,,,,,,,,,,,,,,,,,,,,,,,,,,,,,,150.44509313442387,167.26474876267588,168.44275276777273,168.44275276777273,61.90403106559425,155.31296902867916,2.2,2.22,-264,257,0,-282,258,-282,77.65338397026062,77.65342807769775,77.65579056739807,77.6678569316864,77.81816267967224,77.81816267967224,77.81816267967224,77.81816267967224,77.81816267967224,77.81816267967224,77.81816267967224,81.96954035758972,2,4.300335884094238,None,,,,,,,,,,,,,,,,,,3,3,2025-02-18_10h03.28.014,comp,2024.2.4,60.06828441144795,2025-02-18 10h03.48.296979 -0500,
4,4,0,critical,hwd,20.0,1.0,lower,133.0,57.0,57.0,133.0,78.0,78.0,2,5.404709100723267,None,,,,,0,0,0,0,0,4,4,102,81.98473238945007,,,,,,,,,,,,,,,,,,,,,,,,,,,,,,,,,,,,,,,,,,,,,,,,,,,,,,,,,,,,,,,,,,,,,,,,,,,,,,,,,133.0,57.0,57.0,133.0,78.0,78.0,1.0,1.1,-671,285,-480,282,-278,281,81.97033166885376,81.97037434577942,81.97251915931702,81.98473238945007,82.13460898399353,82.13460898399353,82.13460898399353,82.13460898399353,82.13460898399353,82.13460898399353,82.13460898399353,87.40243911743164,2,5.404709100723267,None,,,,,,,,,,,,,,,,,,3,3,2025-02-18_10h03.28.014,comp,2024.2.4,60.06828441144795,2025-02-18 10h03.48.296979 -0500,
5,5,0,filler_random,None,None,None,None,None,None,None,None,None,None,3,6.044343709945679,None,,,,,0,0,0,0,0,5,5,134,87.41781711578369,,,,,,,,,,,,,,,,,,,,,,,,,,,,,,,,,,,,,,,,,,,,,,,,,,,,,,,,,,,,,,,,,,,,,,,,,,,,,,,,,101.37725219616654,98.45020531280139,138.54313695820784,101.11408572373148,197.4084866913284,94.24742510463001,3.0,3.2,-196,-253,0,-8,194,258,87.40335392951965,87.40339469909668,87.40553855895996,87.41781711578369,87.56791734695435,87.56791734695435,87.56791734695435,87.56791734695435,87.56791734695435,87.56791734695435,87.56791734695435,93.46897912025452,3,6.044343709945679,None,,,,,,,,,,,,,,,,,,3,3,2025-02-18_10h03.28.014,comp,2024.2.4,60.06828441144795,2025-02-18 10h03.48.296979 -0500,
6,6,0,critical,whd,20.0,2.1,upper,125.0,200.0,200.0,125.0,141.0,141.0,1,3.633678674697876,None,,,,,0,0,0,0,0,6,6,15,93.48462557792664,,,,,,,,,,,,,,,,,,,,,,,,,,,,,,,,,,,,,,,,,,,,,,,,,,,,,,,,,,,,,,,,,,,,,,,,,,,,,,,,,125.0,200.0,200.0,125.0,141.0,141.0,2.1,2.12,-258,-269,0,-290,229,260,93.4697756767273,93.46981716156006,93.47220706939697,93.48462557792664,93.63475704193115,93.63475704193115,93.63475704193115,93.63475704193115,93.63475704193115,93.63475704193115,93.63475704193115,97.13585925102234,1,3.633678674697876,None,,,,,,,,,,,,,,,,,,3,3,2025-02-18_10h03.28.014,comp,2024.2.4,60.06828441144795,2025-02-18 10h03.48.296979 -0500,
7,7,0,filler_random,None,None,None,None,None,None,None,None,None,None,3,8.016654253005981,None,,,,,0,0,0,0,0,7,7,141,97.15114831924438,,,,,,,,,,,,,,,,,,,,,,,,,,,,,,,,,,,,,,,,,,,,,,,,,,,,,,,,,,,,,,,,,,,,,,,,,,,,,,,,,183.26247212682097,165.52181302897668,99.16519580116051,155.01893219652572,183.2002276585912,179.97863266226642,4.0,4.2,-256,-10,0,-274,263,-20,97.13683366775513,97.13687562942505,97.13962149620056,97.15114831924438,97.30135726928711,97.30135726928711,97.30135726928711,97.30135726928711,97.30135726928711,97.30135726928711,97.30135726928711,105.16921257972717,3,8.016654253005981,None,,,,,,,,,,,,,,,,,,3,3,2025-02-18_10h03.28.014,comp,2024.2.4,60.06828441144795,2025-02-18 10h03.48.296979 -0500,
8,8,0,critical,hdw,35.0,1.0,upper,200.0,125.0,127.0,127.0,125.0,200.0,3,2.5887844562530518,None,,,,,0,0,0,0,0,8,8,109,105.1844413280487,,,,,,,,,,,,,,,,,,,,,,,,,,,,,,,,,,,,,,,,,,,,,,,,,,,,,,,,,,,,,,,,,,,,,,,,,,,,,,,,,200.0,125.0,127.0,127.0,125.0,200.0,1.0,1.1,-702,260,-480,258,-220,286,105.169992685318,105.17003417015076,105.1720187664032,105.1844413280487,105.33458423614502,105.33458423614502,105.33458423614502,105.33458423614502,105.33458423614502,105.33458423614502,105.33458423614502,107.78585743904114,3,2.5887844562530518,None,,,,,,,,,,,,,,,,,,3,3,2025-02-18_10h03.28.014,comp,2024.2.4,60.06828441144795,2025-02-18 10h03.48.296979 -0500,
9,9,0,critical,hdw,35.0,3.0,upper,200.0,125.0,127.0,127.0,125.0,200.0,3,5.967019557952881,None,,,,,0,0,0,0,0,9,9,111,107.80094861984253,,,,,,,,,,,,,,,,,,,,,,,,,,,,,,,,,,,,,,,,,,,,,,,,,,,,,,,,,,,,,,,,,,,,,,,,,,,,,,,,,200.0,125.0,127.0,127.0,125.0,200.0,3.0,3.2,-222,-251,0,-9,260,278,107.78669929504395,107.78674054145813,107.78912043571472,107.80094861984253,107.95114612579346,107.95114612579346,107.95114612579346,107.95114612579346,107.95114612579346,107.95114612579346,107.95114612579346,113.76918172836304,3,5.967019557952881,None,,,,,,,,,,,,,,,,,,3,3,2025-02-18_10h03.28.014,comp,2024.2.4,60.06828441144795,2025-02-18 10h03.48.296979 -0500,
10,10,0,critical,whd,20.0,1.0,upper,125.0,200.0,200.0,125.0,141.0,141.0,1,2.684706449508667,None,,,,,0,0,0,0,0,10,10,91,113.78447222709656,,,,,,,,,,,,,,,,,,,,,,,,,,,,,,,,,,,,,,,,,,,,,,,,,,,,,,,,,,,,,,,,,,,,,,,,,,,,,,,,,125.0,200.0,200.0,125.0,141.0,141.0,1.0,1.2,-258,-16,0,19,229,16,113.76994299888611,113.76998329162598,113.772376537323,113.78447222709656,113.9345805644989,113.9345805644989,113.9345805644989,113.9345805644989,113.9345805644989,113.9345805644989,113.9345805644989,116.48556733131409,1,2.684706449508667,None,,,,,,,,,,,,,,,,,,3,3,2025-02-18_10h03.28.014,comp,2024.2.4,60.06828441144795,2025-02-18 10h03.48.296979 -0500,
11,11,0,filler_square,None,None,None,None,None,None,None,None,None,None,2,6.184278726577759,None,,,,,0,0,0,0,0,11,11,198,116.5008807182312,,,,,,,,,,,,,,,,,,,,,,,,,,,,,,,,,,,,,,,,,,,,,,,,,,,,,,,,,,,,,,,,,,,,,,,,,,,,,,,,,100.99877508042081,82.38025458360961,129.22273444326413,129.22273444326413,91.53066336721592,88.10641999688548,2.2,2.21,-202,-288,0,266,205,251,116.48658490180969,116.48662567138672,116.48905086517334,116.5008807182312,116.65099954605103,116.65099954605103,116.65099954605103,116.65099954605103,116.65099954605103,116.65099954605103,116.65099954605103,122.70204281806946,2,6.184278726577759,None,,,,,,,,,,,,,,,,,,3,3,2025-02-18_10h03.28.014,comp,2024.2.4,60.06828441144795,2025-02-18 10h03.48.296979 -0500,
12,12,0,filler_random,None,None,None,None,None,None,None,None,None,None,1,2.512531280517578,None,,,,,0,0,0,0,0,12,12,142,122.71742630004883,,,,,,,,,,,,,,,,,,,,,,,,,,,,,,,,,,,,,,,,,,,,,,,,,,,,,,,,,,,,,,,,,,,,,,,,,,,,,,,,,149.3194691911149,183.47956155132226,179.24515878832028,99.63312300597943,79.74455878274273,103.30010935442164,3.0,3.2,-238,-252,0,-17,197,287,122.70294499397278,122.70298624038696,122.7049949169159,122.71742630004883,122.867684841156,122.867684841156,122.867684841156,122.867684841156,122.867684841156,122.867684841156,122.867684841156,125.23554253578186,1,2.512531280517578,None,,,,,,,,,,,,,,,,,,3,3,2025-02-18_10h03.28.014,comp,2024.2.4,60.06828441144795,2025-02-18 10h03.48.296979 -0500,
13,13,0,filler_random,None,None,None,None,None,None,None,None,None,None,1,2.442838191986084,None,,,,,0,0,0,0,0,13,13,151,125.25114560127258,,,,,,,,,,,,,,,,,,,,,,,,,,,,,,,,,,,,,,,,,,,,,,,,,,,,,,,,,,,,,,,,,,,,,,,,,,,,,,,,,182.64158219814527,121.99374023487535,158.20784250856443,84.78356339932733,100.20823573393338,199.45372603554776,4.0,4.1,-199,-261,0,-16,238,-289,125.23647499084473,125.23651790618896,125.23979377746582,125.25114560127258,125.40097999572754,125.40097999572754,125.40097999572754,125.40097999572754,125.40097999572754,125.40097999572754,125.40097999572754,127.70217251777649,1,2.442838191986084,None,,,,,,,,,,,,,,,,,,3,3,2025-02-18_10h03.28.014,comp,2024.2.4,60.06828441144795,2025-02-18 10h03.48.296979 -0500,
14,14,0,critical,dwh,20.0,4.0,upper,141.0,141.0,125.0,200.0,200.0,125.0,2,2.6502718925476074,None,,,,,0,0,0,0,0,14,14,71,127.71765065193176,,,,,,,,,,,,,,,,,,,,,,,,,,,,,,,,,,,,,,,,,,,,,,,,,,,,,,,,,,,,,,,,,,,,,,,,,,,,,,,,,141.0,141.0,125.0,200.0,200.0,125.0,4.0,4.2,-266,5,0,-285,258,-18,127.70294833183289,127.70298981666565,127.70557713508606,127.71765065193176,127.86779999732971,127.86779999732971,127.86779999732971,127.86779999732971,127.86779999732971,127.86779999732971,127.86779999732971,130.38554167747498,2,2.6502718925476074,None,,,,,,,,,,,,,,,,,,3,3,2025-02-18_10h03.28.014,comp,2024.2.4,60.06828441144795,2025-02-18 10h03.48.296979 -0500,
15,15,0,catch,None,None,None,None,None,None,None,None,None,None,3,2.4929983615875244,None,,,,,0,0,0,0,0,15,15,127,130.40089893341064,,,,,,,,,,,,,,,,,,,,,,,,,,,,,,,,,,,,,,,,,,,,,,,,,,,,,,,,,,,,,,,,,,,,,,,,,,,,,,,,,98,92,116,74,153,172,2.2,2.21,-179,-255,0,289,219,286,130.3865749835968,130.3866150379181,130.38907289505005,130.40089893341064,130.5509808063507,130.5509808063507,130.5509808063507,130.5509808063507,130.5509808063507,130.5509808063507,130.5509808063507,132.9019956588745,3,2.4929983615875244,None,,,,,,,,,,,,,,,,,,3,3,2025-02-18_10h03.28.014,comp,2024.2.4,60.06828441144795,2025-02-18 10h03.48.296979 -0500,
16,16,0,critical,hdw,20.0,1.0,upper,200.0,125.0,141.0,141.0,125.0,200.0,3,6.183880567550659,None,,,,,0,0,0,0,0,16,16,115,132.91774368286133,,,,,,,,,,,,,,,,,,,,,,,,,,,,,,,,,,,,,,,,,,,,,,,,,,,,,,,,,,,,,,,,,,,,,,,,,,,,,,,,,200.0,125.0,141.0,141.0,125.0,200.0,1.0,1.3,251,-253,480,-252,746,-263,132.90280961990356,132.90285110473633,132.90548539161682,132.91774368286133,133.06777811050415,133.06777811050415,133.06777811050415,133.06777811050415,133.06777811050415,133.06777811050415,133.06777811050415,139.11875700950623,3,6.183880567550659,None,,,,,,,,,,,,,,,,,,3,3,2025-02-18_10h03.28.014,comp,2024.2.4,60.06828441144795,2025-02-18 10h03.48.296979 -0500,
17,17,0,critical,hwd,35.0,3.0,lower,133.0,57.0,57.0,133.0,70.0,70.0,1,3.918957471847534,None,,,,,0,0,0,0,0,17,17,98,139.1339271068573,,,,,,,,,,,,,,,,,,,,,,,,,,,,,,,,,,,,,,,,,,,,,,,,,,,,,,,,,,,,,,,,,,,,,,,,,,,,,,,,,133.0,57.0,57.0,133.0,70.0,70.0,3.0,3.1,-191,279,0,15,198,-280,139.11954855918884,139.11958956718445,139.12191343307495,139.1339271068573,139.28408217430115,139.28408217430115,139.28408217430115,139.28408217430115,139.28408217430115,139.28408217430115,139.28408217430115,143.06858730316162,1,3.918957471847534,None,,,,,,,,,,,,,,,,,,3,3,2025-02-18_10h03.28.014,comp,2024.2.4,60.06828441144795,2025-02-18 10h03.48.296979 -0500,
18,18,0,filler_square,None,None,None,None,None,None,None,None,None,None,1,3.2995636463165283,None,,,,,0,0,0,0,0,18,18,172,143.08394575119019,,,,,,,,,,,,,,,,,,,,,,,,,,,,,,,,,,,,,,,,,,,,,,,,,,,,,,,,,,,,,,,,,,,,,,,,,,,,,,,,,96.64638197324142,96.64638197324142,61.77278325185709,92.74373368570386,62.92925367988954,58.44234772945051,4.0,4.1,-191,-279,0,-17,172,-280,143.06967782974243,143.06972122192383,143.07190585136414,143.08394575119019,143.23400807380676,143.23400807380676,143.23400807380676,143.23400807380676,143.23400807380676,143.23400807380676,143.23400807380676,146.3855423927307,1,3.2995636463165283,None,,,,,,,,,,,,,,,,,,3,3,2025-02-18_10h03.28.014,comp,2024.2.4,60.06828441144795,2025-02-18 10h03.48.296979 -0500,
19,19,0,critical,dhw,35.0,1.0,lower,70.0,70.0,133.0,57.0,57.0,133.0,3,2.5664851665496826,None,,,,,0,0,0,0,0,19,19,48,146.4009394645691,,,,,,,,,,,,,,,,,,,,,,,,,,,,,,,,,,,,,,,,,,,,,,,,,,,,,,,,,,,,,,,,,,,,,,,,,,,,,,,,,70.0,70.0,133.0,57.0,57.0,133.0,1.0,1.1,-640,267,-480,262,-289,261,146.3863410949707,146.38638162612915,146.38876938819885,146.4009394645691,146.55070638656616,146.55070638656616,146.55070638656616,146.55070638656616,146.55070638656616,146.55070638656616,146.55070638656616,148.98508286476135,3,2.5664851665496826,None,,,,,,,,,,,,,,,,,,3,3,2025-02-18_10h03.28.014,comp,2024.2.4,60.06828441144795,2025-02-18 10h03.48.296979 -0500,
20,20,0,filler_square,None,None,None,None,None,None,None,None,None,None,1,3.7667040824890137,None,,,,,0,0,0,0,0,20,20,201,149.0006136894226,,,,,,,,,,,,,,,,,,,,,,,,,,,,,,,,,,,,,,,,,,,,,,,,,,,,,,,,,,,,,,,,,,,,,,,,,,,,,,,,,130.24391996626687,130.24391996626687,118.5637501542569,128.54463956766833,112.33710029882641,95.1652126411779,1.0,1.2,-225,15,0,-5,208,4,148.98602747917175,148.98606729507446,148.9886119365692,149.0006136894226,149.15082716941833,149.15082716941833,149.15082716941833,149.15082716941833,149.15082716941833,149.15082716941833,149.15082716941833,152.7686746120453,1,3.7667040824890137,None,,,,,,,,,,,,,,,,,,3,3,2025-02-18_10h03.28.014,comp,2024.2.4,60.06828441144795,2025-02-18 10h03.48.296979 -0500,
21,21,0,critical,hwd,20.0,2.1,lower,133.0,57.0,57.0,133.0,78.0,78.0,1,5.293531179428101,None,,,,,0,0,0,0,0,21,21,18,152.7840540409088,,,,,,,,,,,,,,,,,,,,,,,,,,,,,,,,,,,,,,,,,,,,,,,,,,,,,,,,,,,,,,,,,,,,,,,,,,,,,,,,,133.0,57.0,57.0,133.0,78.0,78.0,2.1,2.11,-191,276,0,280,202,-278,152.76943397521973,152.76947331428528,152.77145528793335,152.7840540409088,152.93396759033203,152.93396759033203,152.93396759033203,152.93396759033203,152.93396759033203,152.93396759033203,152.93396759033203,158.0851833820343,1,5.293531179428101,None,,,,,,,,,,,,,,,,,,3,3,2025-02-18_10h03.28.014,comp,2024.2.4,60.06828441144795,2025-02-18 10h03.48.296979 -0500,
22,22,0,filler_random,None,None,None,None,None,None,None,None,None,None,3,7.650431871414185,None,,,,,0,0,0,0,0,22,22,138,158.1006362438202,,,,,,,,,,,,,,,,,,,,,,,,,,,,,,,,,,,,,,,,,,,,,,,,,,,,,,,,,,,,,,,,,,,,,,,,,,,,,,,,,115.58278396762655,80.47887301213294,166.95133019715286,113.03350518202174,119.75172291387304,159.53281556442133,4.0,4.2,-193,18,0,-285,232,-9,158.08610606193542,158.08614778518677,158.08866262435913,158.1006362438202,158.25077748298645,158.25077748298645,158.25077748298645,158.25077748298645,158.25077748298645,158.25077748298645,158.25077748298645,165.76839637756348,3,7.650431871414185,None,,,,,,,,,,,,,,,,,,3,3,2025-02-18_10h03.28.014,comp,2024.2.4,60.06828441144795,2025-02-18 10h03.48.296979 -0500,
23,23,0,filler_square,None,None,None,None,None,None,None,None,None,None,1,3.525907039642334,None,,,,,0,0,0,0,0,23,23,208,165.78379201889038,,,,,,,,,,,,,,,,,,,,,,,,,,,,,,,,,,,,,,,,,,,,,,,,,,,,,,,,,,,,,,,,,,,,,,,,,,,,,,,,,97.12930659131689,97.12930659131689,73.09761331271895,73.36021912058418,73.13934660531532,75.4804810884744,2.2,2.21,-181,-285,0,260,170,262,165.7693281173706,165.7693681716919,165.77260184288025,165.78379201889038,165.93385291099548,165.93385291099548,165.93385291099548,165.93385291099548,165.93385291099548,165.93385291099548,165.93385291099548,169.31826829910278,1,3.525907039642334,None,,,,,,,,,,,,,,,,,,3,3,2025-02-18_10h03.28.014,comp,2024.2.4,60.06828441144795,2025-02-18 10h03.48.296979 -0500,
24,24,0,filler_square,None,None,None,None,None,None,None,None,None,None,3,7.495558977127075,None,,,,,0,0,0,0,0,24,24,195,169.33398008346558,,,,,,,,,,,,,,,,,,,,,,,,,,,,,,,,,,,,,,,,,,,,,,,,,,,,,,,,,,,,,,,,,,,,,,,,,,,,,,,,,69.93909750980605,60.33556121396531,81.5528301217094,81.5528301217094,74.15482314588255,80.1731480820506,4.0,4.1,-167,-282,0,-4,177,-283,169.31928658485413,169.3193428516388,169.3215844631195,169.33398008346558,169.48386192321777,169.48386192321777,169.48386192321777,169.48386192321777,169.48386192321777,169.48386192321777,169.48386192321777,176.83498358726501,3,7.495558977127075,None,,,,,,,,,,,,,,,,,,3,3,2025-02-18_10h03.28.014,comp,2024.2.4,60.06828441144795,2025-02-18 10h03.48.296979 -0500,
25,25,0,filler_square,None,None,None,None,None,None,None,None,None,None,3,3.418154716491699,None,,,,,0,0,0,0,0,25,25,180,176.85064005851746,,,,,,,,,,,,,,,,,,,,,,,,,,,,,,,,,,,,,,,,,,,,,,,,,,,,,,,,,,,,,,,,,,,,,,,,,,,,,,,,,59.0707049707859,69.30158022078804,67.80991622493582,66.84808520223072,72.29446405086908,72.29446405086908,3.0,3.2,-164,-258,0,-1,166,266,176.83597326278687,176.83601641654968,176.8385193347931,176.85064005851746,177.00058698654175,177.00058698654175,177.00058698654175,177.00058698654175,177.00058698654175,177.00058698654175,177.00058698654175,180.2848219871521,3,3.418154716491699,None,,,,,,,,,,,,,,,,,,3,3,2025-02-18_10h03.28.014,comp,2024.2.4,60.06828441144795,2025-02-18 10h03.48.296979 -0500,
26,26,0,filler_square,None,None,None,None,None,None,None,None,None,None,1,1.6505560874938965,None,,,,,0,0,0,0,0,26,26,185,180.30024552345276,,,,,,,,,,,,,,,,,,,,,,,,,,,,,,,,,,,,,,,,,,,,,,,,,,,,,,,,,,,,,,,,,,,,,,,,,,,,,,,,,194.20151275742668,194.20151275742668,152.90233456998095,87.2772018844563,134.08129953131373,148.8618349641206,4.0,4.1,-237,-272,0,17,214,-261,180.28577375411987,180.28581309318542,180.28830480575562,180.30024552345276,180.4506800174713,180.4506800174713,180.4506800174713,180.4506800174713,180.4506800174713,180.4506800174713,180.4506800174713,181.9683494567871,1,1.6505560874938965,None,,,,,,,,,,,,,,,,,,3,3,2025-02-18_10h03.28.014,comp,2024.2.4,60.06828441144795,2025-02-18 10h03.48.296979 -0500,
27,27,0,critical,dwh,35.0,1.0,upper,127.0,127.0,125.0,200.0,200.0,125.0,3,1.461810827255249,None,,,,,0,0,0,0,0,27,27,61,181.98358368873596,,,,,,,,,,,,,,,,,,,,,,,,,,,,,,,,,,,,,,,,,,,,,,,,,,,,,,,,,,,,,,,,,,,,,,,,,,,,,,,,,127.0,127.0,125.0,200.0,200.0,125.0,1.0,1.1,-740,276,-480,270,-222,284,181.96914505958557,181.96918654441833,181.97123646736145,181.98358368873596,182.13396883010864,182.13396883010864,182.13396883010864,182.13396883010864,182.13396883010864,182.13396883010864,182.13396883010864,183.45174837112427,3,1.461810827255249,None,,,,,,,,,,,,,,,,,,3,3,2025-02-18_10h03.28.014,comp,2024.2.4,60.06828441144795,2025-02-18 10h03.48.296979 -0500,
28,28,0,critical,hwd,35.0,2.1,lower,133.0,57.0,57.0,133.0,70.0,70.0,1,1.5053141117095947,None,,,,,0,0,0,0,0,28,28,16,183.4671311378479,,,,,,,,,,,,,,,,,,,,,,,,,,,,,,,,,,,,,,,,,,,,,,,,,,,,,,,,,,,,,,,,,,,,,,,,,,,,,,,,,133.0,57.0,57.0,133.0,70.0,70.0,2.1,2.11,-191,268,0,287,198,-266,183.45256400108337,183.4526047706604,183.4550290107727,183.4671311378479,183.6170473098755,183.6170473098755,183.6170473098755,183.6170473098755,183.6170473098755,183.6170473098755,183.6170473098755,184.98485040664673,1,1.5053141117095947,None,,,,,,,,,,,,,,,,,,3,3,2025-02-18_10h03.28.014,comp,2024.2.4,60.06828441144795,2025-02-18 10h03.48.296979 -0500,
29,29,0,catch,None,None,None,None,None,None,None,None,None,None,2,1.493279218673706,None,,,,,0,0,0,0,0,29,29,124,185.000182390213,,,,,,,,,,,,,,,,,,,,,,,,,,,,,,,,,,,,,,,,,,,,,,,,,,,,,,,,,,,,,,,,,,,,,,,,,,,,,,,,,103,87,137,188,69,121,2.1,2.12,-234,-287,0,-285,250,279,184.9859082698822,184.9859495162964,184.98845744132996,185.000182390213,185.15047883987427,185.15047883987427,185.15047883987427,185.15047883987427,185.15047883987427,185.15047883987427,185.15047883987427,186.50155115127563,2,1.493279218673706,None,,,,,,,,,,,,,,,,,,3,3,2025-02-18_10h03.28.014,comp,2024.2.4,60.06828441144795,2025-02-18 10h03.48.296979 -0500,
30,30,0,critical,hdw,35.0,2.1,upper,200.0,125.0,127.0,127.0,125.0,200.0,3,2.425091028213501,None,,,,,0,0,0,0,0,30,30,21,186.5171399116516,,,,,,,,,,,,,,,,,,,,,,,,,,,,,,,,,,,,,,,,,,,,,,,,,,,,,,,,,,,,,,,,,,,,,,,,,,,,,,,,,200.0,125.0,127.0,127.0,125.0,200.0,2.1,2.12,-222,-250,0,-272,260,266,186.50239253044128,186.5024344921112,186.50476503372192,186.5171399116516,186.66723442077637,186.66723442077637,186.66723442077637,186.66723442077637,186.66723442077637,186.66723442077637,186.66723442077637,188.95158743858337,3,2.425091028213501,None,,,,,,,,,,,,,,,,,,3,3,2025-02-18_10h03.28.014,comp,2024.2.4,60.06828441144795,2025-02-18 10h03.48.296979 -0500,
31,31,0,critical,whd,35.0,3.0,lower,57.0,133.0,133.0,57.0,70.0,70.0,1,3.175140857696533,None,,,,,0,0,0,0,0,31,31,86,188.96714425086975,,,,,,,,,,,,,,,,,,,,,,,,,,,,,,,,,,,,,,,,,,,,,,,,,,,,,,,,,,,,,,,,,,,,,,,,,,,,,,,,,57.0,133.0,133.0,57.0,70.0,70.0,3.0,3.1,-191,269,0,2,160,-284,188.9523606300354,188.95240139961243,188.95472836494446,188.96714425086975,189.1170938014984,189.1170938014984,189.1170938014984,189.1170938014984,189.1170938014984,189.1170938014984,189.1170938014984,192.15143966674805,1,3.175140857696533,None,,,,,,,,,,,,,,,,,,3,3,2025-02-18_10h03.28.014,comp,2024.2.4,60.06828441144795,2025-02-18 10h03.48.296979 -0500,
32,32,0,filler_random,None,None,None,None,None,None,None,None,None,None,3,1.7421512603759766,None,,,,,0,0,0,0,0,32,32,139,192.16739988327026,,,,,,,,,,,,,,,,,,,,,,,,,,,,,,,,,,,,,,,,,,,,,,,,,,,,,,,,,,,,,,,,,,,,,,,,,,,,,,,,,60.8281168576046,89.93953355211241,122.54189780577438,193.43231288255282,178.31254337056347,143.84990968552572,4.0,4.1,-238,-264,0,-8,265,-264,192.15234851837158,192.15239095687866,192.15445470809937,192.16739988327026,192.3171031475067,192.3171031475067,192.3171031475067,192.3171031475067,192.3171031475067,192.3171031475067,192.3171031475067,193.91815829277039,3,1.7421512603759766,None,,,,,,,,,,,,,,,,,,3,3,2025-02-18_10h03.28.014,comp,2024.2.4,60.06828441144795,2025-02-18 10h03.48.296979 -0500,
33,33,0,catch,None,None,None,None,None,None,None,None,None,None,1,1.311460256576538,None,,,,,0,0,0,0,0,33,33,126,193.93377923965454,,,,,,,,,,,,,,,,,,,,,,,,,,,,,,,,,,,,,,,,,,,,,,,,,,,,,,,,,,,,,,,,,,,,,,,,,,,,,,,,,169,156,130,60,97,93,1.0,1.3,276,-259,480,-282,652,-278,193.9192018508911,193.91924285888672,193.9215383529663,193.93377923965454,194.08396005630493,194.08396005630493,194.08396005630493,194.08396005630493,194.08396005630493,194.08396005630493,194.08396005630493,195.25138020515442,1,1.311460256576538,None,,,,,,,,,,,,,,,,,,3,3,2025-02-18_10h03.28.014,comp,2024.2.4,60.06828441144795,2025-02-18 10h03.48.296979 -0500,
34,34,0,critical,whd,20.0,2.1,upper,125.0,200.0,200.0,125.0,141.0,141.0,2,3.8014283180236816,None,,,,,0,0,0,0,0,34,34,39,195.2669415473938,,,,,,,,,,,,,,,,,,,,,,,,,,,,,,,,,,,,,,,,,,,,,,,,,,,,,,,,,,,,,,,,,,,,,,,,,,,,,,,,,125.0,200.0,200.0,125.0,141.0,141.0,2.1,2.11,-258,287,0,260,229,-274,195.25218200683594,195.25222373008728,195.2544720172882,195.2669415473938,195.41706109046936,195.41706109046936,195.41706109046936,195.41706109046936,195.41706109046936,195.41706109046936,195.41706109046936,199.08495092391968,2,3.8014283180236816,None,,,,,,,,,,,,,,,,,,3,3,2025-02-18_10h03.28.014,comp,2024.2.4,60.06828441144795,2025-02-18 10h03.48.296979 -0500,
35,35,0,filler_square,None,None,None,None,None,None,None,None,None,None,1,None,None,,,,,0,0,0,0,0,35,35,190,199.1003704071045,,,,,,,,,,,,,,,,,,,,,,,,,,,,,,,,,,,,,,,,,,,,,,,,,,,,,,,,,,,,,,,,,,,,,,,,,,,,,,,,,60.42132335696524,61.99990069118756,64.23501287855609,60.88643965412383,66.71963939115074,66.71963939115074,3.0,3.1,-157,258,0,9,160,-285,199.0859568119049,199.08599877357483,199.08811831474304,199.1003704071045,199.25019025802612,199.25019025802612,199.25019025802612,199.25019025802612,199.25019025802612,199.25019025802612,199.25019025802612,199.28458428382874,1,None,None,,,,,,,,,,,,,,,,,,3,3,2025-02-18_10h03.28.014,comp,2024.2.4,60.06828441144795,2025-02-18 10h03.48.296979 -0500,
36,36,0,filler_square,None,None,None,None,None,None,None,None,None,None,1,4.200809717178345,None,,,,,0,0,0,0,0,36,36,191,199.30002164840698,,,,,,,,,,,,,,,,,,,,,,,,,,,,,,,,,,,,,,,,,,,,,,,,,,,,,,,,,,,,,,,,,,,,,,,,,,,,,,,,,62.794216899381155,62.794216899381155,61.114797157872815,58.48373822839024,61.408112662422695,61.366494740950735,2.2,2.22,-157,273,0,-253,156,-271,199.28557181358337,199.2856147289276,199.28801846504211,199.30002164840698,199.45011520385742,199.45011520385742,199.45011520385742,199.45011520385742,199.45011520385742,199.45011520385742,199.45011520385742,203.51790356636047,1,4.200809717178345,None,,,,,,,,,,,,,,,,,,3,3,2025-02-18_10h03.28.014,comp,2024.2.4,60.06828441144795,2025-02-18 10h03.48.296979 -0500,
37,37,0,critical,wdh,35.0,3.0,upper,125.0,200.0,127.0,127.0,200.0,125.0,1,2.7522177696228027,None,,,,,0,0,0,0,0,37,37,75,203.5334370136261,,,,,,,,,,,,,,,,,,,,,,,,,,,,,,,,,,,,,,,,,,,,,,,,,,,,,,,,,,,,,,,,,,,,,,,,,,,,,,,,,125.0,200.0,127.0,127.0,200.0,125.0,3.0,3.1,-260,260,0,3,222,-284,203.51871490478516,203.51875710487366,203.5212643146515,203.5334370136261,203.68388295173645,203.68388295173645,203.68388295173645,203.68388295173645,203.68388295173645,203.68388295173645,203.68388295173645,206.30161952972412,1,2.7522177696228027,None,,,,,,,,,,,,,,,,,,3,3,2025-02-18_10h03.28.014,comp,2024.2.4,60.06828441144795,2025-02-18 10h03.48.296979 -0500,
38,38,0,critical,dwh,35.0,2.1,lower,70.0,70.0,57.0,133.0,133.0,57.0,3,4.312616348266602,None,,,,,0,0,0,0,0,38,38,4,206.3167381286621,,,,,,,,,,,,,,,,,,,,,,,,,,,,,,,,,,,,,,,,,,,,,,,,,,,,,,,,,,,,,,,,,,,,,,,,,,,,,,,,,70.0,70.0,57.0,133.0,133.0,57.0,2.1,2.11,-198,269,0,255,191,-268,206.30243253707886,206.30247402191162,206.30478167533875,206.3167381286621,206.46671438217163,206.46671438217163,206.46671438217163,206.46671438217163,206.46671438217163,206.46671438217163,206.46671438217163,210.6347634792328,3,4.312616348266602,None,,,,,,,,,,,,,,,,,,3,3,2025-02-18_10h03.28.014,comp,2024.2.4,60.06828441144795,2025-02-18 10h03.48.296979 -0500,
39,39,0,filler_random,None,None,None,None,None,None,None,None,None,None,3,1.3545150756835938,None,,,,,0,0,0,0,0,39,39,167,210.65036153793335,,,,,,,,,,,,,,,,,,,,,,,,,,,,,,,,,,,,,,,,,,,,,,,,,,,,,,,,,,,,,,,,,,,,,,,,,,,,,,,,,64.68825503922949,165.260341386653,57.341960094342106,167.92093661365652,112.82106769547364,199.59858623507267,2.2,2.21,-263,-260,0,272,280,274,210.6357114315033,210.63575267791748,210.6381676197052,210.65036153793335,210.8004207611084,210.8004207611084,210.8004207611084,210.8004207611084,210.8004207611084,210.8004207611084,210.8004207611084,212.01786994934082,3,1.3545150756835938,None,,,,,,,,,,,,,,,,,,3,3,2025-02-18_10h03.28.014,comp,2024.2.4,60.06828441144795,2025-02-18 10h03.48.296979 -0500,
40,40,0,critical,wdh,20.0,4.0,lower,57.0,133.0,78.0,78.0,133.0,57.0,2,4.522774934768677,None,,,,,0,0,0,0,0,40,40,82,212.0334722995758,,,,,,,,,,,,,,,,,,,,,,,,,,,,,,,,,,,,,,,,,,,,,,,,,,,,,,,,,,,,,,,,,,,,,,,,,,,,,,,,,57.0,133.0,78.0,78.0,133.0,57.0,4.0,4.2,-202,2,0,-286,164,-6,212.01864528656006,212.01868724822998,212.02113103866577,212.0334722995758,212.18335151672363,212.18335151672363,212.18335151672363,212.18335151672363,212.18335151672363,212.18335151672363,212.18335151672363,216.56769967079163,2,4.522774934768677,None,,,,,,,,,,,,,,,,,,3,3,2025-02-18_10h03.28.014,comp,2024.2.4,60.06828441144795,2025-02-18 10h03.48.296979 -0500,
41,41,0,critical,hwd,35.0,2.1,upper,200.0,125.0,125.0,200.0,127.0,127.0,2,8.766955375671387,None,,,,,0,0,0,0,0,41,41,17,216.58344149589539,,,,,,,,,,,,,,,,,,,,,,,,,,,,,,,,,,,,,,,,,,,,,,,,,,,,,,,,,,,,,,,,,,,,,,,,,,,,,,,,,200.0,125.0,125.0,200.0,127.0,127.0,2.1,2.11,-258,285,0,274,260,-281,216.56850171089172,216.56854343414307,216.57089233398438,216.58344149589539,216.7335741519928,216.7335741519928,216.7335741519928,216.7335741519928,216.7335741519928,216.7335741519928,216.7335741519928,225.3680350780487,2,8.766955375671387,None,,,,,,,,,,,,,,,,,,3,3,2025-02-18_10h03.28.014,comp,2024.2.4,60.06828441144795,2025-02-18 10h03.48.296979 -0500,
42,42,0,critical,hwd,20.0,2.1,lower,133.0,57.0,57.0,133.0,78.0,78.0,1,4.661713123321533,None,,,,,0,0,0,0,0,42,42,42,225.3832426071167,,,,,,,,,,,,,,,,,,,,,,,,,,,,,,,,,,,,,,,,,,,,,,,,,,,,,,,,,,,,,,,,,,,,,,,,,,,,,,,,,133.0,57.0,57.0,133.0,78.0,78.0,2.1,2.12,-191,-289,0,-277,202,277,225.36883449554443,225.36887574195862,225.37138438224792,225.3832426071167,225.53334188461304,225.53334188461304,225.53334188461304,225.53334188461304,225.53334188461304,225.53334188461304,225.53334188461304,230.05108880996704,1,4.661713123321533,None,,,,,,,,,,,,,,,,,,3,3,2025-02-18_10h03.28.014,comp,2024.2.4,60.06828441144795,2025-02-18 10h03.48.296979 -0500,
43,43,0,filler_random,None,None,None,None,None,None,None,None,None,None,3,1.2174499034881592,None,,,,,0,0,0,0,0,43,43,145,230.0667495727539,,,,,,,,,,,,,,,,,,,,,,,,,,,,,,,,,,,,,,,,,,,,,,,,,,,,,,,,,,,,,,,,,,,,,,,,,,,,,,,,,60.65682333387712,73.77147189811521,101.15646762126306,107.65982040427181,129.5050490249606,192.84583562243975,2.2,2.22,-187,251,0,-259,246,-253,230.05203557014465,230.05207777023315,230.05479431152344,230.0667495727539,230.21707224845886,230.21707224845886,230.21707224845886,230.21707224845886,230.21707224845886,230.21707224845886,230.21707224845886,231.3012444972992,3,1.2174499034881592,None,,,,,,,,,,,,,,,,,,3,3,2025-02-18_10h03.28.014,comp,2024.2.4,60.06828441144795,2025-02-18 10h03.48.296979 -0500,
44,44,0,critical,hdw,35.0,2.1,lower,133.0,57.0,70.0,70.0,57.0,133.0,1,2.1355679035186768,None,,,,,0,0,0,0,0,44,44,44,231.3165557384491,,,,,,,,,,,,,,,,,,,,,,,,,,,,,,,,,,,,,,,,,,,,,,,,,,,,,,,,,,,,,,,,,,,,,,,,,,,,,,,,,133.0,57.0,70.0,70.0,57.0,133.0,2.1,2.12,-160,-277,0,-271,198,282,231.30250120162964,231.30255842208862,231.30508637428284,231.3165557384491,231.46682143211365,231.46682143211365,231.46682143211365,231.46682143211365,231.46682143211365,231.46682143211365,231.46682143211365,233.46770000457764,1,2.1355679035186768,None,,,,,,,,,,,,,,,,,,3,3,2025-02-18_10h03.28.014,comp,2024.2.4,60.06828441144795,2025-02-18 10h03.48.296979 -0500,
45,45,0,critical,wdh,20.0,3.0,upper,125.0,200.0,141.0,141.0,200.0,125.0,1,5.2993292808532715,None,,,,,0,0,0,0,0,45,45,81,233.48317694664001,,,,,,,,,,,,,,,,,,,,,,,,,,,,,,,,,,,,,,,,,,,,,,,,,,,,,,,,,,,,,,,,,,,,,,,,,,,,,,,,,125.0,200.0,141.0,141.0,200.0,125.0,3.0,3.2,-266,-271,0,-3,229,278,233.4685196876526,233.4685595035553,233.4709894657135,233.48317694664001,233.63349199295044,233.63349199295044,233.63349199295044,233.63349199295044,233.63349199295044,233.63349199295044,233.63349199295044,238.78462505340576,1,5.2993292808532715,None,,,,,,,,,,,,,,,,,,3,3,2025-02-18_10h03.28.014,comp,2024.2.4,60.06828441144795,2025-02-18 10h03.48.296979 -0500,
46,46,0,critical,dhw,20.0,1.0,upper,141.0,141.0,200.0,125.0,125.0,200.0,2,4.82882833480835,None,,,,,0,0,0,0,0,46,46,55,238.80000376701355,,,,,,,,,,,,,,,,,,,,,,,,,,,,,,,,,,,,,,,,,,,,,,,,,,,,,,,,,,,,,,,,,,,,,,,,,,,,,,,,,141.0,141.0,200.0,125.0,125.0,200.0,1.0,1.3,251,-269,480,-255,738,-261,238.78548765182495,238.78552865982056,238.7878954410553,238.80000376701355,238.9501178264618,238.9501178264618,238.9501178264618,238.9501178264618,238.9501178264618,238.9501178264618,238.9501178264618,243.63449335098267,2,4.82882833480835,None,,,,,,,,,,,,,,,,,,3,3,2025-02-18_10h03.28.014,comp,2024.2.4,60.06828441144795,2025-02-18 10h03.48.296979 -0500,
47,47,0,critical,wdh,20.0,1.0,upper,125.0,200.0,141.0,141.0,200.0,125.0,1,2.5948023796081543,None,,,,,0,0,0,0,0,47,47,79,243.65020203590393,,,,,,,,,,,,,,,,,,,,,,,,,,,,,,,,,,,,,,,,,,,,,,,,,,,,,,,,,,,,,,,,,,,,,,,,,,,,,,,,,125.0,200.0,141.0,141.0,200.0,125.0,1.0,1.2,-266,-6,0,-17,229,20,243.6352734565735,243.63532614707947,243.6373851299286,243.65020203590393,243.80038785934448,243.80038785934448,243.80038785934448,243.80038785934448,243.80038785934448,243.80038785934448,243.80038785934448,246.25117325782776,1,2.5948023796081543,None,,,,,,,,,,,,,,,,,,3,3,2025-02-18_10h03.28.014,comp,2024.2.4,60.06828441144795,2025-02-18 10h03.48.296979 -0500,
48,48,0,filler_square,None,None,None,None,None,None,None,None,None,None,3,1.1854534149169922,None,,,,,0,0,0,0,0,48,48,193,246.266619682312,,,,,,,,,,,,,,,,,,,,,,,,,,,,,,,,,,,,,,,,,,,,,,,,,,,,,,,,,,,,,,,,,,,,,,,,,,,,,,,,,94.75131700675254,90.08952682017438,101.12436809029941,81.53054068353578,119.2197738939928,119.2197738939928,4.0,4.1,-182,-276,0,8,196,-285,246.25215196609497,246.25219440460205,246.2547152042389,246.266619682312,246.41653203964233,246.41653203964233,246.41653203964233,246.41653203964233,246.41653203964233,246.41653203964233,246.41653203964233,247.4676296710968,3,1.1854534149169922,None,,,,,,,,,,,,,,,,,,3,3,2025-02-18_10h03.28.014,comp,2024.2.4,60.06828441144795,2025-02-18 10h03.48.296979 -0500,
49,49,0,critical,wdh,20.0,2.1,lower,57.0,133.0,78.0,78.0,133.0,57.0,1,2.968928098678589,None,,,,,0,0,0,0,0,49,49,34,247.48308491706848,,,,,,,,,,,,,,,,,,,,,,,,,,,,,,,,,,,,,,,,,,,,,,,,,,,,,,,,,,,,,,,,,,,,,,,,,,,,,,,,,57.0,133.0,78.0,78.0,133.0,57.0,2.1,2.12,-202,-254,0,-264,164,281,247.46844029426575,247.46848058700562,247.47087335586548,247.48308491706848,247.6332402229309,247.6332402229309,247.6332402229309,247.6332402229309,247.6332402229309,247.6332402229309,247.6332402229309,250.46794629096985,1,2.968928098678589,None,,,,,,,,,,,,,,,,,,3,3,2025-02-18_10h03.28.014,comp,2024.2.4,60.06828441144795,2025-02-18 10h03.48.296979 -0500,
50,50,0,critical,dwh,35.0,3.0,upper,127.0,127.0,125.0,200.0,200.0,125.0,2,None,None,,,,,0,0,0,0,0,50,50,63,250.48326110839844,,,,,,,,,,,,,,,,,,,,,,,,,,,,,,,,,,,,,,,,,,,,,,,,,,,,,,,,,,,,,,,,,,,,,,,,,,,,,,,,,127.0,127.0,125.0,200.0,200.0,125.0,3.0,3.1,-260,260,0,-3,258,-268,250.46877717971802,250.468820810318,250.47127318382263,250.48326110839844,,,,,,,,250.5841555595398,2,None,None,,,,,,,,,,,,,,,,,,3,3,2025-02-18_10h03.28.014,comp,2024.2.4,60.06828441144795,2025-02-18 10h03.48.296979 -0500,
51,51,0,critical,wdh,20.0,2.1,upper,125.0,200.0,141.0,141.0,200.0,125.0,1,1.614187240600586,None,,,,,0,0,0,0,0,51,51,11,250.59959435462952,,,,,,,,,,,,,,,,,,,,,,,,,,,,,,,,,,,,,,,,,,,,,,,,,,,,,,,,,,,,,,,,,,,,,,,,,,,,,,,,,125.0,200.0,141.0,141.0,200.0,125.0,2.1,2.12,-266,-252,0,-275,229,258,250.58498406410217,250.58502578735352,250.58762049674988,250.59959435462952,250.75006318092346,250.75006318092346,250.75006318092346,250.75006318092346,250.75006318092346,250.75006318092346,250.75006318092346,252.21799230575562,1,1.614187240600586,None,,,,,,,,,,,,,,,,,,3,3,2025-02-18_10h03.28.014,comp,2024.2.4,60.06828441144795,2025-02-18 10h03.48.296979 -0500,
52,52,0,critical,hwd,20.0,2.1,upper,200.0,125.0,125.0,200.0,141.0,141.0,2,3.571133613586426,None,,,,,0,0,0,0,0,52,52,43,252.2333209514618,,,,,,,,,,,,,,,,,,,,,,,,,,,,,,,,,,,,,,,,,,,,,,,,,,,,,,,,,,,,,,,,,,,,,,,,,,,,,,,,,200.0,125.0,125.0,200.0,141.0,141.0,2.1,2.12,-258,-264,0,-269,266,252,252.2187945842743,252.21883630752563,252.2212209701538,252.2333209514618,252.38367009162903,252.38367009162903,252.38367009162903,252.38367009162903,252.38367009162903,252.38367009162903,252.38367009162903,255.81768774986267,2,3.571133613586426,None,,,,,,,,,,,,,,,,,,3,3,2025-02-18_10h03.28.014,comp,2024.2.4,60.06828441144795,2025-02-18 10h03.48.296979 -0500,
53,53,0,filler_square,None,None,None,None,None,None,None,None,None,None,1,3.4190006256103516,None,,,,,0,0,0,0,0,53,53,174,255.8328902721405,,,,,,,,,,,,,,,,,,,,,,,,,,,,,,,,,,,,,,,,,,,,,,,,,,,,,,,,,,,,,,,,,,,,,,,,,,,,,,,,,193.64604499403276,193.64604499403276,172.49542492953137,105.15956967211464,109.83233634399988,189.88258162438652,4.0,4.2,-245,-5,0,-276,244,19,255.81864094734192,255.81868433952332,255.8210780620575,255.8328902721405,255.98361325263977,255.98361325263977,255.98361325263977,255.98361325263977,255.98361325263977,255.98361325263977,255.98361325263977,259.2676651477814,1,3.4190006256103516,None,,,,,,,,,,,,,,,,,,3,3,2025-02-18_10h03.28.014,comp,2024.2.4,60.06828441144795,2025-02-18 10h03.48.296979 -0500,
54,54,0,filler_random,None,None,None,None,None,None,None,None,None,None,1,2.1850457191467285,None,,,,,0,0,0,0,0,54,54,156,259.28285455703735,,,,,,,,,,,,,,,,,,,,,,,,,,,,,,,,,,,,,,,,,,,,,,,,,,,,,,,,,,,,,,,,,,,,,,,,,,,,,,,,,103.35715011611671,179.58869508155857,77.65814133681417,86.59898375311943,93.6775517232972,160.56990904303524,1.0,1.3,251,-279,480,-259,700,-275,259.26856875419617,259.2686083316803,259.27190589904785,259.28285455703735,259.433167219162,259.433167219162,259.433167219162,259.433167219162,259.433167219162,259.433167219162,259.433167219162,261.4841170310974,1,2.1850457191467285,None,,,,,,,,,,,,,,,,,,3,3,2025-02-18_10h03.28.014,comp,2024.2.4,60.06828441144795,2025-02-18 10h03.48.296979 -0500,
55,55,0,critical,dhw,35.0,2.1,upper,127.0,127.0,200.0,125.0,125.0,200.0,3,3.088313579559326,None,,,,,0,0,0,0,0,55,55,1,261.4995377063751,,,,,,,,,,,,,,,,,,,,,,,,,,,,,,,,,,,,,,,,,,,,,,,,,,,,,,,,,,,,,,,,,,,,,,,,,,,,,,,,,127.0,127.0,200.0,125.0,125.0,200.0,2.1,2.12,-222,-262,0,-265,258,284,261.4849319458008,261.4849729537964,261.48751521110535,261.4995377063751,261.6500163078308,261.6500163078308,261.6500163078308,261.6500163078308,261.6500163078308,261.6500163078308,261.6500163078308,264.60096621513367,3,3.088313579559326,None,,,,,,,,,,,,,,,,,,3,3,2025-02-18_10h03.28.014,comp,2024.2.4,60.06828441144795,2025-02-18 10h03.48.296979 -0500,
56,56,0,critical,hdw,35.0,4.0,upper,200.0,125.0,127.0,127.0,125.0,200.0,3,1.725240707397461,None,,,,,0,0,0,0,0,56,56,113,264.6162049770355,,,,,,,,,,,,,,,,,,,,,,,,,,,,,,,,,,,,,,,,,,,,,,,,,,,,,,,,,,,,,,,,,,,,,,,,,,,,,,,,,200.0,125.0,127.0,127.0,125.0,200.0,4.0,4.1,-222,-271,0,5,260,-282,264.60176181793213,264.60180258750916,264.60425305366516,264.6162049770355,264.7665071487427,264.7665071487427,264.7665071487427,264.7665071487427,264.7665071487427,264.7665071487427,264.7665071487427,266.3508930206299,3,1.725240707397461,None,,,,,,,,,,,,,,,,,,3,3,2025-02-18_10h03.28.014,comp,2024.2.4,60.06828441144795,2025-02-18 10h03.48.296979 -0500,
57,57,0,critical,whd,20.0,2.1,lower,57.0,133.0,133.0,57.0,78.0,78.0,1,8.431974172592163,None,,,,,0,0,0,0,0,57,57,14,266.3663582801819,,,,,,,,,,,,,,,,,,,,,,,,,,,,,,,,,,,,,,,,,,,,,,,,,,,,,,,,,,,,,,,,,,,,,,,,,,,,,,,,,57.0,133.0,133.0,57.0,78.0,78.0,2.1,2.12,-191,-289,0,-256,164,262,266.35167384147644,266.3517150878906,266.3541314601898,266.3663582801819,266.51635551452637,266.51635551452637,266.51635551452637,266.51635551452637,266.51635551452637,266.51635551452637,266.51635551452637,274.80120372772217,1,8.431974172592163,None,,,,,,,,,,,,,,,,,,3,3,2025-02-18_10h03.28.014,comp,2024.2.4,60.06828441144795,2025-02-18 10h03.48.296979 -0500,
58,58,0,filler_random,None,None,None,None,None,None,None,None,None,None,2,2.0032644271850586,None,,,,,0,0,0,0,0,58,58,131,274.816588640213,,,,,,,,,,,,,,,,,,,,,,,,,,,,,,,,,,,,,,,,,,,,,,,,,,,,,,,,,,,,,,,,,,,,,,,,,,,,,,,,,116.51086186086309,75.4911769466643,130.21377881168283,187.67277300822232,102.8756602859639,86.50896526685516,2.2,2.22,-228,254,0,-273,233,-255,274.80209827423096,274.80213952064514,274.804247379303,274.816588640213,274.9663510322571,274.9663510322571,274.9663510322571,274.9663510322571,274.9663510322571,274.9663510322571,274.9663510322571,276.83414030075073,2,2.0032644271850586,None,,,,,,,,,,,,,,,,,,3,3,2025-02-18_10h03.28.014,comp,2024.2.4,60.06828441144795,2025-02-18 10h03.48.296979 -0500,
59,59,0,critical,dhw,20.0,2.1,upper,141.0,141.0,200.0,125.0,125.0,200.0,3,3.7487130165100098,None,,,,,0,0,0,0,0,59,59,27,276.8494379520416,,,,,,,,,,,,,,,,,,,,,,,,,,,,,,,,,,,,,,,,,,,,,,,,,,,,,,,,,,,,,,,,,,,,,,,,,,,,,,,,,141.0,141.0,200.0,125.0,125.0,200.0,2.1,2.12,-229,-279,0,-271,258,268,276.8349735736847,276.83501529693604,276.8375473022461,276.8494379520416,276.99964570999146,276.99964570999146,276.99964570999146,276.99964570999146,276.99964570999146,276.99964570999146,276.99964570999146,280.60096430778503,3,3.7487130165100098,None,,,,,,,,,,,,,,,,,,3,3,2025-02-18_10h03.28.014,comp,2024.2.4,60.06828441144795,2025-02-18 10h03.48.296979 -0500,
60,60,0,critical,hwd,35.0,1.0,upper,200.0,125.0,125.0,200.0,127.0,127.0,2,4.716930389404297,None,,,,,0,0,0,0,0,60,60,97,280.6163671016693,,,,,,,,,,,,,,,,,,,,,,,,,,,,,,,,,,,,,,,,,,,,,,,,,,,,,,,,,,,,,,,,,,,,,,,,,,,,,,,,,200.0,125.0,125.0,200.0,127.0,127.0,1.0,1.2,-258,14,0,2,260,1,280.60172486305237,280.6017692089081,280.6038706302643,280.6163671016693,280.7664623260498,280.7664623260498,280.7664623260498,280.7664623260498,280.7664623260498,280.7664623260498,280.7664623260498,285.3508331775665,2,4.716930389404297,None,,,,,,,,,,,,,,,,,,3,3,2025-02-18_10h03.28.014,comp,2024.2.4,60.06828441144795,2025-02-18 10h03.48.296979 -0500,
61,61,0,critical,dwh,35.0,2.1,upper,127.0,127.0,125.0,200.0,200.0,125.0,2,1.870384693145752,None,,,,,0,0,0,0,0,61,61,5,285.36601734161377,,,,,,,,,,,,,,,,,,,,,,,,,,,,,,,,,,,,,,,,,,,,,,,,,,,,,,,,,,,,,,,,,,,,,,,,,,,,,,,,,127.0,127.0,125.0,200.0,200.0,125.0,2.1,2.12,-260,-282,0,-252,258,279,285.351594209671,285.35163497924805,285.3539638519287,285.36601734161377,285.5167214870453,285.5167214870453,285.5167214870453,285.5167214870453,285.5167214870453,285.5167214870453,285.5167214870453,287.2507655620575,2,1.870384693145752,None,,,,,,,,,,,,,,,,,,3,3,2025-02-18_10h03.28.014,comp,2024.2.4,60.06828441144795,2025-02-18 10h03.48.296979 -0500,
62,62,0,critical,hdw,20.0,4.0,upper,200.0,125.0,141.0,141.0,125.0,200.0,1,1.226449966430664,None,,,,,0,0,0,0,0,62,62,119,287.2661476135254,,,,,,,,,,,,,,,,,,,,,,,,,,,,,,,,,,,,,,,,,,,,,,,,,,,,,,,,,,,,,,,,,,,,,,,,,,,,,,,,,200.0,125.0,141.0,141.0,125.0,200.0,4.0,4.1,-229,-281,0,17,266,-274,287.25158286094666,287.2516248226166,287.2550196647644,287.2661476135254,287.4164299964905,287.4164299964905,287.4164299964905,287.4164299964905,287.4164299964905,287.4164299964905,287.4164299964905,288.50071263313293,1,1.226449966430664,None,,,,,,,,,,,,,,,,,,3,3,2025-02-18_10h03.28.014,comp,2024.2.4,60.06828441144795,2025-02-18 10h03.48.296979 -0500,
63,63,0,critical,wdh,20.0,2.1,upper,125.0,200.0,141.0,141.0,200.0,125.0,3,1.7283735275268555,None,,,,,0,0,0,0,0,63,63,35,288.5161786079407,,,,,,,,,,,,,,,,,,,,,,,,,,,,,,,,,,,,,,,,,,,,,,,,,,,,,,,,,,,,,,,,,,,,,,,,,,,,,,,,,125.0,200.0,141.0,141.0,200.0,125.0,2.1,2.11,-266,282,0,275,229,-257,288.50151538848877,288.5015597343445,288.5039668083191,288.5161786079407,288.6663122177124,288.6663122177124,288.6663122177124,288.6663122177124,288.6663122177124,288.6663122177124,288.6663122177124,290.25093698501587,3,1.7283735275268555,None,,,,,,,,,,,,,,,,,,3,3,2025-02-18_10h03.28.014,comp,2024.2.4,60.06828441144795,2025-02-18 10h03.48.296979 -0500,
64,64,0,critical,hdw,20.0,4.0,lower,133.0,57.0,78.0,78.0,57.0,133.0,3,4.75348424911499,None,,,,,0,0,0,0,0,64,64,118,290.26623463630676,,,,,,,,,,,,,,,,,,,,,,,,,,,,,,,,,,,,,,,,,,,,,,,,,,,,,,,,,,,,,,,,,,,,,,,,,,,,,,,,,133.0,57.0,78.0,78.0,57.0,133.0,4.0,4.1,-164,-272,0,6,202,-289,290.2517440319061,290.2517867088318,290.25427651405334,290.26623463630676,290.41603088378906,290.41603088378906,290.41603088378906,290.41603088378906,290.41603088378906,290.41603088378906,290.41603088378906,295.03388714790344,3,4.75348424911499,None,,,,,,,,,,,,,,,,,,3,3,2025-02-18_10h03.28.014,comp,2024.2.4,60.06828441144795,2025-02-18 10h03.48.296979 -0500,
65,65,0,catch,None,None,None,None,None,None,None,None,None,None,2,1.2920339107513428,None,,,,,0,0,0,0,0,65,65,123,295.0492515563965,,,,,,,,,,,,,,,,,,,,,,,,,,,,,,,,,,,,,,,,,,,,,,,,,,,,,,,,,,,,,,,,,,,,,,,,,,,,,,,,,93,97,136,189,106,84,4.0,4.2,-239,-5,0,-252,232,-19,295.03494572639465,295.03498888015747,295.03749537467957,295.0492515563965,295.19952630996704,295.19952630996704,295.19952630996704,295.19952630996704,295.19952630996704,295.19952630996704,295.19952630996704,296.350533246994,2,1.2920339107513428,None,,,,,,,,,,,,,,,,,,3,3,2025-02-18_10h03.28.014,comp,2024.2.4,60.06828441144795,2025-02-18 10h03.48.296979 -0500,
66,66,0,filler_random,None,None,None,None,None,None,None,None,None,None,2,5.317431688308716,None,,,,,0,0,0,0,0,66,66,163,296.3661344051361,,,,,,,,,,,,,,,,,,,,,,,,,,,,,,,,,,,,,,,,,,,,,,,,,,,,,,,,,,,,,,,,,,,,,,,,,,,,,,,,,57.85581720861996,127.93439772169249,82.65930121521376,194.21882519380608,138.7256883420465,57.937863588577244,2.1,2.12,-257,-287,0,-272,222,254,296.3513991832733,296.3514380455017,296.35469031333923,296.3661344051361,296.5162420272827,296.5162420272827,296.5162420272827,296.5162420272827,296.5162420272827,296.5162420272827,296.5162420272827,301.70040464401245,2,5.317431688308716,None,,,,,,,,,,,,,,,,,,3,3,2025-02-18_10h03.28.014,comp,2024.2.4,60.06828441144795,2025-02-18 10h03.48.296979 -0500,
67,67,0,critical,wdh,35.0,3.0,lower,57.0,133.0,70.0,70.0,133.0,57.0,3,5.255592346191406,None,,,,,0,0,0,0,0,67,67,74,301.7157952785492,,,,,,,,,,,,,,,,,,,,,,,,,,,,,,,,,,,,,,,,,,,,,,,,,,,,,,,,,,,,,,,,,,,,,,,,,,,,,,,,,57.0,133.0,70.0,70.0,133.0,57.0,3.0,3.1,-198,278,0,-9,160,-256,301.7011938095093,301.7012345790863,301.70355677604675,301.7157952785492,301.866003036499,301.866003036499,301.866003036499,301.866003036499,301.866003036499,301.866003036499,301.866003036499,306.98386216163635,3,5.255592346191406,None,,,,,,,,,,,,,,,,,,3,3,2025-02-18_10h03.28.014,comp,2024.2.4,60.06828441144795,2025-02-18 10h03.48.296979 -0500,
68,68,0,critical,wdh,35.0,2.1,lower,57.0,133.0,70.0,70.0,133.0,57.0,1,6.398974180221558,None,,,,,0,0,0,0,0,68,68,8,306.99921202659607,,,,,,,,,,,,,,,,,,,,,,,,,,,,,,,,,,,,,,,,,,,,,,,,,,,,,,,,,,,,,,,,,,,,,,,,,,,,,,,,,57.0,133.0,70.0,70.0,133.0,57.0,2.1,2.11,-198,261,0,280,160,-279,306.9846580028534,306.9847011566162,306.9872019290924,306.99921202659607,307.1493172645569,307.1493172645569,307.1493172645569,307.1493172645569,307.1493172645569,307.1493172645569,307.1493172645569,313.40043687820435,1,6.398974180221558,None,,,,,,,,,,,,,,,,,,3,3,2025-02-18_10h03.28.014,comp,2024.2.4,60.06828441144795,2025-02-18 10h03.48.296979 -0500,
69,69,0,catch,None,None,None,None,None,None,None,None,None,None,3,1.3974106311798096,None,,,,,0,0,0,0,0,69,69,121,313.4160587787628,,,,,,,,,,,,,,,,,,,,,,,,,,,,,,,,,,,,,,,,,,,,,,,,,,,,,,,,,,,,,,,,,,,,,,,,,,,,,,,,,133,57,100,90,126,199,2.2,2.22,-170,278,0,-277,240,-260,313.40148663520813,313.4015293121338,313.40357637405396,313.4160587787628,313.5662863254547,313.5662863254547,313.5662863254547,313.5662863254547,313.5662863254547,313.5662863254547,313.5662863254547,314.8173053264618,3,1.3974106311798096,None,,,,,,,,,,,,,,,,,,3,3,2025-02-18_10h03.28.014,comp,2024.2.4,60.06828441144795,2025-02-18 10h03.48.296979 -0500,
70,70,0,critical,whd,35.0,2.1,upper,125.0,200.0,200.0,125.0,127.0,127.0,1,5.067400693893433,None,,,,,0,0,0,0,0,70,70,37,314.8326780796051,,,,,,,,,,,,,,,,,,,,,,,,,,,,,,,,,,,,,,,,,,,,,,,,,,,,,,,,,,,,,,,,,,,,,,,,,,,,,,,,,125.0,200.0,200.0,125.0,127.0,127.0,2.1,2.12,-258,-284,0,-268,222,281,314.8181848526001,314.81822776794434,314.82051944732666,314.8326780796051,314.98286414146423,314.98286414146423,314.98286414146423,314.98286414146423,314.98286414146423,314.98286414146423,314.98286414146423,319.91728162765503,1,5.067400693893433,None,,,,,,,,,,,,,,,,,,3,3,2025-02-18_10h03.28.014,comp,2024.2.4,60.06828441144795,2025-02-18 10h03.48.296979 -0500,
71,71,0,filler_square,None,None,None,None,None,None,None,None,None,None,2,3.608206033706665,None,,,,,0,0,0,0,0,71,71,187,319.9324641227722,,,,,,,,,,,,,,,,,,,,,,,,,,,,,,,,,,,,,,,,,,,,,,,,,,,,,,,,,,,,,,,,,,,,,,,,,,,,,,,,,149.04540266279463,66.24577894979258,160.52486994393337,160.52486994393337,62.78647312494215,138.18127882012809,2.1,2.11,-209,271,0,260,245,-261,319.91825222969055,319.91830587387085,319.9203634262085,319.9324641227722,320.082462310791,320.082462310791,320.082462310791,320.082462310791,320.082462310791,320.082462310791,320.082462310791,323.55041670799255,2,3.608206033706665,None,,,,,,,,,,,,,,,,,,3,3,2025-02-18_10h03.28.014,comp,2024.2.4,60.06828441144795,2025-02-18 10h03.48.296979 -0500,
72,72,0,filler_square,None,None,None,None,None,None,None,None,None,None,3,2.533280611038208,None,,,,,0,0,0,0,0,72,72,175,323.5663640499115,,,,,,,,,,,,,,,,,,,,,,,,,,,,,,,,,,,,,,,,,,,,,,,,,,,,,,,,,,,,,,,,,,,,,,,,,,,,,,,,,114.82937815073734,74.06955573359389,78.84621232757168,97.41183053059393,127.2762371869978,127.2762371869978,2.1,2.11,-182,279,0,278,208,-275,323.5513949394226,323.5514359474182,323.5534930229187,323.5663640499115,323.715904712677,323.715904712677,323.715904712677,323.715904712677,323.715904712677,323.715904712677,323.715904712677,326.11695408821106,3,2.533280611038208,None,,,,,,,,,,,,,,,,,,3,3,2025-02-18_10h03.28.014,comp,2024.2.4,60.06828441144795,2025-02-18 10h03.48.296979 -0500,
73,73,0,filler_random,None,None,None,None,None,None,None,None,None,None,1,1.7190849781036377,None,,,,,0,0,0,0,0,73,73,130,326.1322593688965,,,,,,,,,,,,,,,,,,,,,,,,,,,,,,,,,,,,,,,,,,,,,,,,,,,,,,,,,,,,,,,,,,,,,,,,,,,,,,,,,185.50882996244633,110.70867322251189,117.04918371343764,63.28964138131799,63.60891355244106,176.05894481026712,1.0,1.3,297,-269,480,-254,696,-264,326.1178631782532,326.1179053783417,326.1203656196594,326.1322593688965,326.2824764251709,326.2824764251709,326.2824764251709,326.2824764251709,326.2824764251709,326.2824764251709,326.2824764251709,327.8670177459717,1,1.7190849781036377,None,,,,,,,,,,,,,,,,,,3,3,2025-02-18_10h03.28.014,comp,2024.2.4,60.06828441144795,2025-02-18 10h03.48.296979 -0500,
74,74,0,filler_square,None,None,None,None,None,None,None,None,None,None,2,2.793728828430176,None,,,,,0,0,0,0,0,74,74,203,327.88236451148987,,,,,,,,,,,,,,,,,,,,,,,,,,,,,,,,,,,,,,,,,,,,,,,,,,,,,,,,,,,,,,,,,,,,,,,,,,,,,,,,,75.81160363017128,78.88085667812379,91.64394628318416,91.64394628318416,88.82004549195521,68.84849605953761,3.0,3.2,-181,-285,0,13,176,280,327.86796593666077,327.8680064678192,327.8705117702484,327.88236451148987,328.03268218040466,328.03268218040466,328.03268218040466,328.03268218040466,328.03268218040466,328.03268218040466,328.03268218040466,330.6834383010864,2,2.793728828430176,None,,,,,,,,,,,,,,,,,,3,3,2025-02-18_10h03.28.014,comp,2024.2.4,60.06828441144795,2025-02-18 10h03.48.296979 -0500,
75,75,0,filler_square,None,None,None,None,None,None,None,None,None,None,2,2.849839448928833,None,,,,,0,0,0,0,0,75,75,207,330.6992425918579,,,,,,,,,,,,,,,,,,,,,,,,,,,,,,,,,,,,,,,,,,,,,,,,,,,,,,,,,,,,,,,,,,,,,,,,,,,,,,,,,62.27446121663491,63.358841685107436,66.03682006731968,66.03682006731968,57.12954060256241,65.9688247385017,4.0,4.2,-161,6,0,-259,162,9,330.68439245224,330.68443489074707,330.6868031024933,330.6992425918579,330.8490171432495,330.8490171432495,330.8490171432495,330.8490171432495,330.8490171432495,330.8490171432495,330.8490171432495,333.56704688072205,2,2.849839448928833,None,,,,,,,,,,,,,,,,,,3,3,2025-02-18_10h03.28.014,comp,2024.2.4,60.06828441144795,2025-02-18 10h03.48.296979 -0500,
76,76,0,filler_random,None,None,None,None,None,None,None,None,None,None,1,2.1835620403289795,None,,,,,0,0,0,0,0,76,76,158,333.58231353759766,,,,,,,,,,,,,,,,,,,,,,,,,,,,,,,,,,,,,,,,,,,,,,,,,,,,,,,,,,,,,,,,,,,,,,,,,,,,,,,,,101.09304790766535,150.5688208076764,109.36548542148583,120.84905206066094,99.5941943151326,164.81720857955352,2.1,2.12,-232,-262,0,-253,239,278,333.5679876804352,333.5680282115936,333.5704970359802,333.58231353759766,333.7325074672699,333.7325074672699,333.7325074672699,333.7325074672699,333.7325074672699,333.7325074672699,333.7325074672699,335.76710057258606,1,2.1835620403289795,None,,,,,,,,,,,,,,,,,,3,3,2025-02-18_10h03.28.014,comp,2024.2.4,60.06828441144795,2025-02-18 10h03.48.296979 -0500,
77,77,0,filler_random,None,None,None,None,None,None,None,None,None,None,1,4.093600749969482,None,,,,,0,0,0,0,0,77,77,159,335.7824444770813,,,,,,,,,,,,,,,,,,,,,,,,,,,,,,,,,,,,,,,,,,,,,,,,,,,,,,,,,,,,,,,,,,,,,,,,,,,,,,,,,123.48645956400762,109.87273884551288,104.38047282758723,61.94555975742727,105.66526421420227,104.6219097957404,4.0,4.2,-182,-10,0,-257,179,17,335.7680788040161,335.7681214809418,335.77078461647034,335.7824444770813,335.932329416275,335.932329416275,335.932329416275,335.932329416275,335.932329416275,335.932329416275,335.932329416275,339.8834309577942,1,4.093600749969482,None,,,,,,,,,,,,,,,,,,3,3,2025-02-18_10h03.28.014,comp,2024.2.4,60.06828441144795,2025-02-18 10h03.48.296979 -0500,
78,78,0,critical,dwh,20.0,2.1,lower,78.0,78.0,57.0,133.0,133.0,57.0,2,5.08804988861084,None,,,,,0,0,0,0,0,78,78,6,339.8990869522095,,,,,,,,,,,,,,,,,,,,,,,,,,,,,,,,,,,,,,,,,,,,,,,,,,,,,,,,,,,,,,,,,,,,,,,,,,,,,,,,,78.0,78.0,57.0,133.0,133.0,57.0,2.1,2.12,-202,-274,0,-255,191,287,339.88420724868774,339.88424849510193,339.8864986896515,339.8990869522095,340.0488750934601,340.0488750934601,340.0488750934601,340.0488750934601,340.0488750934601,340.0488750934601,340.0488750934601,345.00000977516174,2,5.08804988861084,None,,,,,,,,,,,,,,,,,,3,3,2025-02-18_10h03.28.014,comp,2024.2.4,60.06828441144795,2025-02-18 10h03.48.296979 -0500,
79,79,0,critical,dwh,20.0,3.0,lower,78.0,78.0,57.0,133.0,133.0,57.0,2,7.566364526748657,None,,,,,0,0,0,0,0,79,79,68,345.01535511016846,,,,,,,,,,,,,,,,,,,,,,,,,,,,,,,,,,,,,,,,,,,,,,,,,,,,,,,,,,,,,,,,,,,,,,,,,,,,,,,,,78.0,78.0,57.0,133.0,133.0,57.0,3.0,3.1,-202,260,0,-14,191,-284,345.0008111000061,345.00085163116455,345.00339937210083,345.01535511016846,345.1658778190613,345.1658778190613,345.1658778190613,345.1658778190613,345.1658778190613,345.1658778190613,345.1658778190613,352.60003209114075,2,7.566364526748657,None,,,,,,,,,,,,,,,,,,3,3,2025-02-18_10h03.28.014,comp,2024.2.4,60.06828441144795,2025-02-18 10h03.48.296979 -0500,
80,80,0,critical,wdh,35.0,2.1,lower,57.0,133.0,70.0,70.0,133.0,57.0,1,2.3973701000213623,None,,,,,0,0,0,0,0,80,80,32,352.6154639720917,,,,,,,,,,,,,,,,,,,,,,,,,,,,,,,,,,,,,,,,,,,,,,,,,,,,,,,,,,,,,,,,,,,,,,,,,,,,,,,,,57.0,133.0,70.0,70.0,133.0,57.0,2.1,2.12,-198,-268,0,-267,160,258,352.6008126735687,352.60085344314575,352.6033236980438,352.6154639720917,352.76552629470825,352.76552629470825,352.76552629470825,352.76552629470825,352.76552629470825,352.76552629470825,352.76552629470825,355.0167074203491,1,2.3973701000213623,None,,,,,,,,,,,,,,,,,,3,3,2025-02-18_10h03.28.014,comp,2024.2.4,60.06828441144795,2025-02-18 10h03.48.296979 -0500,
81,81,0,critical,whd,35.0,2.1,lower,57.0,133.0,133.0,57.0,70.0,70.0,1,1.6507554054260254,None,,,,,0,0,0,0,0,81,81,36,355.0323419570923,,,,,,,,,,,,,,,,,,,,,,,,,,,,,,,,,,,,,,,,,,,,,,,,,,,,,,,,,,,,,,,,,,,,,,,,,,,,,,,,,57.0,133.0,133.0,57.0,70.0,70.0,2.1,2.12,-191,-269,0,-252,160,281,355.017493724823,355.01753544807434,355.0205600261688,355.0323419570923,355.182165145874,355.182165145874,355.182165145874,355.182165145874,355.182165145874,355.182165145874,355.182165145874,356.69993448257446,1,1.6507554054260254,None,,,,,,,,,,,,,,,,,,3,3,2025-02-18_10h03.28.014,comp,2024.2.4,60.06828441144795,2025-02-18 10h03.48.296979 -0500,
82,82,0,critical,hwd,35.0,2.1,upper,200.0,125.0,125.0,200.0,127.0,127.0,2,1.688119649887085,None,,,,,0,0,0,0,0,82,82,41,356.7154085636139,,,,,,,,,,,,,,,,,,,,,,,,,,,,,,,,,,,,,,,,,,,,,,,,,,,,,,,,,,,,,,,,,,,,,,,,,,,,,,,,,200.0,125.0,125.0,200.0,127.0,127.0,2.1,2.11,-258,260,0,286,260,-253,356.7007358074188,356.70077657699585,356.70325350761414,356.7154085636139,356.86590218544006,356.86590218544006,356.86590218544006,356.86590218544006,356.86590218544006,356.86590218544006,356.86590218544006,358.4167408943176,2,1.688119649887085,None,,,,,,,,,,,,,,,,,,3,3,2025-02-18_10h03.28.014,comp,2024.2.4,60.06828441144795,2025-02-18 10h03.48.296979 -0500,
83,83,0,critical,dhw,20.0,4.0,lower,78.0,78.0,133.0,57.0,57.0,133.0,2,4.786854982376099,None,,,,,0,0,0,0,0,83,83,58,358.4321367740631,,,,,,,,,,,,,,,,,,,,,,,,,,,,,,,,,,,,,,,,,,,,,,,,,,,,,,,,,,,,,,,,,,,,,,,,,,,,,,,,,78.0,78.0,133.0,57.0,57.0,133.0,4.0,4.2,-164,-2,0,-284,191,-9,358.41751074790955,358.41755056381226,358.4199261665344,358.4321367740631,358.58209705352783,358.58209705352783,358.58209705352783,358.58209705352783,358.58209705352783,358.58209705352783,358.58209705352783,363.2332570552826,2,4.786854982376099,None,,,,,,,,,,,,,,,,,,3,3,2025-02-18_10h03.28.014,comp,2024.2.4,60.06828441144795,2025-02-18 10h03.48.296979 -0500,
84,84,0,critical,dwh,20.0,2.1,upper,141.0,141.0,125.0,200.0,200.0,125.0,2,4.291929483413696,None,,,,,0,0,0,0,0,84,84,31,363.24869894981384,,,,,,,,,,,,,,,,,,,,,,,,,,,,,,,,,,,,,,,,,,,,,,,,,,,,,,,,,,,,,,,,,,,,,,,,,,,,,,,,,141.0,141.0,125.0,200.0,200.0,125.0,2.1,2.12,-266,-270,0,-261,258,268,363.23406529426575,363.2341055870056,363.2361476421356,363.24869894981384,363.39917635917664,363.39917635917664,363.39917635917664,363.39917635917664,363.39917635917664,363.39917635917664,363.39917635917664,367.5500087738037,2,4.291929483413696,None,,,,,,,,,,,,,,,,,,3,3,2025-02-18_10h03.28.014,comp,2024.2.4,60.06828441144795,2025-02-18 10h03.48.296979 -0500,
85,85,0,filler_random,None,None,None,None,None,None,None,None,None,None,3,10.326321363449097,None,,,,,0,0,0,0,0,85,85,133,367.5655734539032,,,,,,,,,,,,,,,,,,,,,,,,,,,,,,,,,,,,,,,,,,,,,,,,,,,,,,,,,,,,,,,,,,,,,,,,,,,,,,,,,83.7950892614246,95.79833639392596,158.75074573589401,151.8764736782316,132.1969660391661,192.10688658479253,3.0,3.2,-220,-259,0,-9,268,270,367.55088925361633,367.5509309768677,367.5533707141876,367.5655734539032,367.71558237075806,367.71558237075806,367.71558237075806,367.71558237075806,367.71558237075806,367.71558237075806,367.71558237075806,377.8999705314636,3,10.326321363449097,None,,,,,,,,,,,,,,,,,,3,3,2025-02-18_10h03.28.014,comp,2024.2.4,60.06828441144795,2025-02-18 10h03.48.296979 -0500,
86,86,0,catch,None,None,None,None,None,None,None,None,None,None,2,1.3352906703948975,None,,,,,0,0,0,0,0,86,86,120,377.9155013561249,,,,,,,,,,,,,,,,,,,,,,,,,,,,,,,,,,,,,,,,,,,,,,,,,,,,,,,,,,,,,,,,,,,,,,,,,,,,,,,,,71,119,173,152,74,116,3.0,3.2,-232,-267,0,19,230,284,377.90097284317017,377.9010126590729,377.90344047546387,377.9155013561249,378.0654776096344,378.0654776096344,378.0654776096344,378.0654776096344,378.0654776096344,378.0654776096344,378.0654776096344,379.2664706707001,2,1.3352906703948975,None,,,,,,,,,,,,,,,,,,3,3,2025-02-18_10h03.28.014,comp,2024.2.4,60.06828441144795,2025-02-18 10h03.48.296979 -0500,
87,87,0,filler_random,None,None,None,None,None,None,None,None,None,None,2,2.041862726211548,None,,,,,0,0,0,0,0,87,87,135,379.28180027008057,,,,,,,,,,,,,,,,,,,,,,,,,,,,,,,,,,,,,,,,,,,,,,,,,,,,,,,,,,,,,,,,,,,,,,,,,,,,,,,,,166.26495380147168,189.60952654998582,157.1894100155623,199.261226233887,191.203541978106,62.896559884828136,4.0,4.2,-290,16,0,-256,227,-11,379.26738452911377,379.2674262523651,379.26973390579224,379.28180027008057,379.43241596221924,379.43241596221924,379.43241596221924,379.43241596221924,379.43241596221924,379.43241596221924,379.43241596221924,381.3333570957184,2,2.041862726211548,None,,,,,,,,,,,,,,,,,,3,3,2025-02-18_10h03.28.014,comp,2024.2.4,60.06828441144795,2025-02-18 10h03.48.296979 -0500,
88,88,0,critical,hdw,35.0,2.1,lower,133.0,57.0,70.0,70.0,57.0,133.0,1,5.8324151039123535,None,,,,,0,0,0,0,0,88,88,20,381.3486955165863,,,,,,,,,,,,,,,,,,,,,,,,,,,,,,,,,,,,,,,,,,,,,,,,,,,,,,,,,,,,,,,,,,,,,,,,,,,,,,,,,133.0,57.0,70.0,70.0,57.0,133.0,2.1,2.11,-160,287,0,260,198,-271,381.3341438770294,381.3341875076294,381.3364555835724,381.3486955165863,381.49856090545654,381.49856090545654,381.49856090545654,381.49856090545654,381.49856090545654,381.49856090545654,381.49856090545654,387.1833577156067,1,5.8324151039123535,None,,,,,,,,,,,,,,,,,,3,3,2025-02-18_10h03.28.014,comp,2024.2.4,60.06828441144795,2025-02-18 10h03.48.296979 -0500,
89,89,0,critical,dhw,20.0,2.1,lower,78.0,78.0,133.0,57.0,57.0,133.0,2,3.492865800857544,None,,,,,0,0,0,0,0,89,89,2,387.1987347602844,,,,,,,,,,,,,,,,,,,,,,,,,,,,,,,,,,,,,,,,,,,,,,,,,,,,,,,,,,,,,,,,,,,,,,,,,,,,,,,,,78.0,78.0,133.0,57.0,57.0,133.0,2.1,2.12,-164,-278,0,-277,191,258,387.18412947654724,387.1841711997986,387.18665599823,387.1987347602844,387.3488087654114,387.3488087654114,387.3488087654114,387.3488087654114,387.3488087654114,387.3488087654114,387.3488087654114,390.6997187137604,2,3.492865800857544,None,,,,,,,,,,,,,,,,,,3,3,2025-02-18_10h03.28.014,comp,2024.2.4,60.06828441144795,2025-02-18 10h03.48.296979 -0500,
90,90,0,critical,wdh,35.0,2.1,upper,125.0,200.0,127.0,127.0,200.0,125.0,1,6.335280895233154,None,,,,,0,0,0,0,0,90,90,9,390.71535205841064,,,,,,,,,,,,,,,,,,,,,,,,,,,,,,,,,,,,,,,,,,,,,,,,,,,,,,,,,,,,,,,,,,,,,,,,,,,,,,,,,125.0,200.0,127.0,127.0,200.0,125.0,2.1,2.12,-260,-262,0,-272,222,252,390.700528383255,390.7005703449249,390.702933549881,390.71535205841064,390.8654954433441,390.8654954433441,390.8654954433441,390.8654954433441,390.8654954433441,390.8654954433441,390.8654954433441,397.0666332244873,1,6.335280895233154,None,,,,,,,,,,,,,,,,,,3,3,2025-02-18_10h03.28.014,comp,2024.2.4,60.06828441144795,2025-02-18 10h03.48.296979 -0500,
91,91,0,catch,None,None,None,None,None,None,None,None,None,None,2,1.5849003791809082,None,,,,,0,0,0,0,0,91,91,128,397.08179903030396,,,,,,,,,,,,,,,,,,,,,,,,,,,,,,,,,,,,,,,,,,,,,,,,,,,,,,,,,,,,,,,,,,,,,,,,,,,,,,,,,120,70,170,155,62,128,3.0,3.2,-208,-264,0,-12,238,280,397.0676670074463,397.06770944595337,397.07003474235535,397.08179903030396,397.231995344162,397.231995344162,397.231995344162,397.231995344162,397.231995344162,397.231995344162,397.231995344162,398.6831307411194,2,1.5849003791809082,None,,,,,,,,,,,,,,,,,,3,3,2025-02-18_10h03.28.014,comp,2024.2.4,60.06828441144795,2025-02-18 10h03.48.296979 -0500,
92,92,0,critical,dwh,35.0,2.1,upper,127.0,127.0,125.0,200.0,200.0,125.0,2,4.809150457382202,None,,,,,0,0,0,0,0,92,92,29,398.6984221935272,,,,,,,,,,,,,,,,,,,,,,,,,,,,,,,,,,,,,,,,,,,,,,,,,,,,,,,,,,,,,,,,,,,,,,,,,,,,,,,,,127.0,127.0,125.0,200.0,200.0,125.0,2.1,2.11,-260,282,0,268,258,-285,398.6839382648468,398.68397879600525,398.6864609718323,398.6984221935272,398.84870886802673,398.84870886802673,398.84870886802673,398.84870886802673,398.84870886802673,398.84870886802673,398.84870886802673,403.51637625694275,2,4.809150457382202,None,,,,,,,,,,,,,,,,,,3,3,2025-02-18_10h03.28.014,comp,2024.2.4,60.06828441144795,2025-02-18 10h03.48.296979 -0500,
93,93,0,filler_random,None,None,None,None,None,None,None,None,None,None,1,1.3347573280334473,None,,,,,0,0,0,0,0,93,93,166,403.53190898895264,,,,,,,,,,,,,,,,,,,,,,,,,,,,,,,,,,,,,,,,,,,,,,,,,,,,,,,,,,,,,,,,,,,,,,,,,,,,,,,,,196.33787607414268,198.4842701339801,64.02995475762025,71.03238517081056,158.64652171967364,182.3846780863525,4.0,4.2,-231,6,0,-259,223,-2,403.5173010826111,403.51734495162964,403.51956701278687,403.53190898895264,403.6819841861725,403.6819841861725,403.6819841861725,403.6819841861725,403.6819841861725,403.6819841861725,403.6819841861725,404.8831458091736,1,1.3347573280334473,None,,,,,,,,,,,,,,,,,,3,3,2025-02-18_10h03.28.014,comp,2024.2.4,60.06828441144795,2025-02-18 10h03.48.296979 -0500,
94,94,0,critical,hwd,20.0,1.0,upper,200.0,125.0,125.0,200.0,141.0,141.0,2,3.1139702796936035,None,,,,,0,0,0,0,0,94,94,103,404.89833879470825,,,,,,,,,,,,,,,,,,,,,,,,,,,,,,,,,,,,,,,,,,,,,,,,,,,,,,,,,,,,,,,,,,,,,,,,,,,,,,,,,200.0,125.0,125.0,200.0,141.0,141.0,1.0,1.2,-258,-3,0,0,266,0,404.88391184806824,404.8839542865753,404.88609886169434,404.89833879470825,405.0490052700043,405.0490052700043,405.0490052700043,405.0490052700043,405.0490052700043,405.0490052700043,405.0490052700043,408.0166096687317,2,3.1139702796936035,None,,,,,,,,,,,,,,,,,,3,3,2025-02-18_10h03.28.014,comp,2024.2.4,60.06828441144795,2025-02-18 10h03.48.296979 -0500,
95,95,0,critical,whd,35.0,4.0,upper,125.0,200.0,200.0,125.0,127.0,127.0,2,2.300349235534668,None,,,,,0,0,0,0,0,95,95,89,408.03188014030457,,,,,,,,,,,,,,,,,,,,,,,,,,,,,,,,,,,,,,,,,,,,,,,,,,,,,,,,,,,,,,,,,,,,,,,,,,,,,,,,,125.0,200.0,200.0,125.0,127.0,127.0,4.0,4.2,-258,-14,0,-262,222,10,408.01739835739136,408.0174386501312,408.01952290534973,408.03188014030457,408.1822545528412,408.1822545528412,408.1822545528412,408.1822545528412,408.1822545528412,408.1822545528412,408.1822545528412,410.34977102279663,2,2.300349235534668,None,,,,,,,,,,,,,,,,,,3,3,2025-02-18_10h03.28.014,comp,2024.2.4,60.06828441144795,2025-02-18 10h03.48.296979 -0500,
96,96,0,critical,hdw,20.0,3.0,lower,133.0,57.0,78.0,78.0,57.0,133.0,1,4.126583576202393,None,,,,,0,0,0,0,0,96,96,116,410.3649809360504,,,,,,,,,,,,,,,,,,,,,,,,,,,,,,,,,,,,,,,,,,,,,,,,,,,,,,,,,,,,,,,,,,,,,,,,,,,,,,,,,133.0,57.0,78.0,78.0,57.0,133.0,3.0,3.1,-164,289,0,6,202,-284,410.3505656719208,410.3506066799164,410.352961063385,410.3649809360504,410.5150399208069,410.5150399208069,410.5150399208069,410.5150399208069,410.5150399208069,410.5150399208069,410.5150399208069,414.4995012283325,1,4.126583576202393,None,,,,,,,,,,,,,,,,,,3,3,2025-02-18_10h03.28.014,comp,2024.2.4,60.06828441144795,2025-02-18 10h03.48.296979 -0500,
97,97,0,critical,dhw,20.0,4.0,upper,141.0,141.0,200.0,125.0,125.0,200.0,3,10.967336177825928,None,,,,,0,0,0,0,0,97,97,59,414.5150828361511,,,,,,,,,,,,,,,,,,,,,,,,,,,,,,,,,,,,,,,,,,,,,,,,,,,,,,,,,,,,,,,,,,,,,,,,,,,,,,,,,141.0,141.0,200.0,125.0,125.0,200.0,4.0,4.2,-229,-13,0,-286,258,-1,414.50027775764465,414.50033259391785,414.50226950645447,414.5150828361511,414.665235042572,414.665235042572,414.665235042572,414.665235042572,414.665235042572,414.665235042572,414.665235042572,425.4996042251587,3,10.967336177825928,None,,,,,,,,,,,,,,,,,,3,3,2025-02-18_10h03.28.014,comp,2024.2.4,60.06828441144795,2025-02-18 10h03.48.296979 -0500,
98,98,0,critical,dwh,20.0,4.0,lower,78.0,78.0,57.0,133.0,133.0,57.0,3,6.720016956329346,None,,,,,0,0,0,0,0,98,98,70,425.51481556892395,,,,,,,,,,,,,,,,,,,,,,,,,,,,,,,,,,,,,,,,,,,,,,,,,,,,,,,,,,,,,,,,,,,,,,,,,,,,,,,,,78.0,78.0,57.0,133.0,133.0,57.0,4.0,4.1,-202,-260,0,6,191,-266,425.5004186630249,425.50046157836914,425.50255393981934,425.51481556892395,425.66495418548584,425.66495418548584,425.66495418548584,425.66495418548584,425.66495418548584,425.66495418548584,425.66495418548584,432.2493646144867,3,6.720016956329346,None,,,,,,,,,,,,,,,,,,3,3,2025-02-18_10h03.28.014,comp,2024.2.4,60.06828441144795,2025-02-18 10h03.48.296979 -0500,
99,99,0,critical,hdw,35.0,3.0,lower,133.0,57.0,70.0,70.0,57.0,133.0,1,1.3856334686279297,None,,,,,0,0,0,0,0,99,99,110,432.2648253440857,,,,,,,,,,,,,,,,,,,,,,,,,,,,,,,,,,,,,,,,,,,,,,,,,,,,,,,,,,,,,,,,,,,,,,,,,,,,,,,,,133.0,57.0,70.0,70.0,57.0,133.0,3.0,3.2,-160,-264,0,14,198,259,432.2501392364502,432.25018095970154,432.2521867752075,432.2648253440857,432.4148190021515,432.4148190021515,432.4148190021515,432.4148190021515,432.4148190021515,432.4148190021515,432.4148190021515,433.66591811180115,1,1.3856334686279297,None,,,,,,,,,,,,,,,,,,3,3,2025-02-18_10h03.28.014,comp,2024.2.4,60.06828441144795,2025-02-18 10h03.48.296979 -0500,
100,100,0,critical,whd,35.0,1.0,lower,57.0,133.0,133.0,57.0,70.0,70.0,1,4.545902729034424,None,,,,,0,0,0,0,0,100,100,84,433.6813077926636,,,,,,,,,,,,,,,,,,,,,,,,,,,,,,,,,,,,,,,,,,,,,,,,,,,,,,,,,,,,,,,,,,,,,,,,,,,,,,,,,57.0,133.0,133.0,57.0,70.0,70.0,1.0,1.1,-671,263,-480,274,-320,274,433.6667482852936,433.6667900085449,433.66930103302,433.6813077926636,433.8315632343292,433.8315632343292,433.8315632343292,433.8315632343292,433.8315632343292,433.8315632343292,433.8315632343292,438.23261427879333,1,4.545902729034424,None,,,,,,,,,,,,,,,,,,3,3,2025-02-18_10h03.28.014,comp,2024.2.4,60.06828441144795,2025-02-18 10h03.48.296979 -0500,
101,101,0,filler_square,None,None,None,None,None,None,None,None,None,None,2,1.6590454578399658,None,,,,,0,0,0,0,0,101,101,179,438.2483055591583,,,,,,,,,,,,,,,,,,,,,,,,,,,,,,,,,,,,,,,,,,,,,,,,,,,,,,,,,,,,,,,,,,,,,,,,,,,,,,,,,186.80441710558844,83.59249313002277,195.16402142408975,195.16402142408975,80.79905513473754,97.6230626649123,2.2,2.21,-235,-287,0,250,242,287,438.23356103897095,438.23360300064087,438.2359972000122,438.2483055591583,438.3983943462372,438.3983943462372,438.3983943462372,438.3983943462372,438.3983943462372,438.3983943462372,438.3983943462372,439.91634154319763,2,1.6590454578399658,None,,,,,,,,,,,,,,,,,,3,3,2025-02-18_10h03.28.014,comp,2024.2.4,60.06828441144795,2025-02-18 10h03.48.296979 -0500,
102,102,0,filler_random,None,None,None,None,None,None,None,None,None,None,1,4.808084726333618,None,,,,,0,0,0,0,0,102,102,157,439.9316370487213,,,,,,,,,,,,,,,,,,,,,,,,,,,,,,,,,,,,,,,,,,,,,,,,,,,,,,,,,,,,,,,,,,,,,,,,,,,,,,,,,195.46201900813182,109.83006870296276,83.54994609765299,150.8174773025778,100.33297413252185,173.40746595713983,2.1,2.11,-226,269,0,255,258,-263,439.91724395751953,439.91728615760803,439.91939187049866,439.9316370487213,440.081547498703,440.081547498703,440.081547498703,440.081547498703,440.081547498703,440.081547498703,440.081547498703,444.7492868900299,1,4.808084726333618,None,,,,,,,,,,,,,,,,,,3,3,2025-02-18_10h03.28.014,comp,2024.2.4,60.06828441144795,2025-02-18 10h03.48.296979 -0500,
103,103,0,critical,dhw,20.0,2.1,upper,141.0,141.0,200.0,125.0,125.0,200.0,3,2.4855096340179443,None,,,,,0,0,0,0,0,103,103,3,444.7649064064026,,,,,,,,,,,,,,,,,,,,,,,,,,,,,,,,,,,,,,,,,,,,,,,,,,,,,,,,,,,,,,,,,,,,,,,,,,,,,,,,,141.0,141.0,200.0,125.0,125.0,200.0,2.1,2.11,-229,275,0,263,258,-265,444.750102519989,444.7501459121704,444.7523877620697,444.7649064064026,444.9150061607361,444.9150061607361,444.9150061607361,444.9150061607361,444.9150061607361,444.9150061607361,444.9150061607361,447.2660598754883,3,2.4855096340179443,None,,,,,,,,,,,,,,,,,,3,3,2025-02-18_10h03.28.014,comp,2024.2.4,60.06828441144795,2025-02-18 10h03.48.296979 -0500,
104,104,0,filler_square,None,None,None,None,None,None,None,None,None,None,1,3.434049367904663,None,,,,,0,0,0,0,0,104,104,171,447.281170129776,,,,,,,,,,,,,,,,,,,,,,,,,,,,,,,,,,,,,,,,,,,,,,,,,,,,,,,,,,,,,,,,,,,,,,,,,,,,,,,,,123.02425621565675,123.02425621565675,96.7713913045478,116.4536211900721,112.76139173112833,58.32002351690097,3.0,3.2,-216,-252,0,4,183,259,447.26699924468994,447.2670397758484,447.2694969177246,447.281170129776,447.4314959049225,447.4314959049225,447.4314959049225,447.4314959049225,447.4314959049225,447.4314959049225,447.4314959049225,450.73267436027527,1,3.434049367904663,None,,,,,,,,,,,,,,,,,,3,3,2025-02-18_10h03.28.014,comp,2024.2.4,60.06828441144795,2025-02-18 10h03.48.296979 -0500,
105,105,0,filler_random,None,None,None,None,None,None,None,None,None,None,2,1.8478198051452637,None,,,,,0,0,0,0,0,105,105,155,450.7645173072815,,,,,,,,,,,,,,,,,,,,,,,,,,,,,,,,,,,,,,,,,,,,,,,,,,,,,,,,,,,,,,,,,,,,,,,,,,,,,,,,,100.96338890322613,111.57119611923943,160.41901527743067,138.72383351268883,150.24476293349824,86.88295725524797,2.2,2.22,-221,289,0,-285,209,-263,450.73359298706055,450.7336344718933,450.73598766326904,450.7645173072815,450.89806938171387,450.89806938171387,450.89806938171387,450.89806938171387,450.89806938171387,450.89806938171387,450.89806938171387,452.61637806892395,2,1.8478198051452637,None,,,,,,,,,,,,,,,,,,3,3,2025-02-18_10h03.28.014,comp,2024.2.4,60.06828441144795,2025-02-18 10h03.48.296979 -0500,
106,106,0,filler_random,None,None,None,None,None,None,None,None,None,None,3,1.0916211605072021,None,,,,,0,0,0,0,0,106,106,144,452.63155221939087,,,,,,,,,,,,,,,,,,,,,,,,,,,,,,,,,,,,,,,,,,,,,,,,,,,,,,,,,,,,,,,,,,,,,,,,,,,,,,,,,67.71718706044241,177.04231640471073,119.63408413139229,88.24449059630975,162.66675224689737,164.81140087077682,4.0,4.1,-229,-283,0,17,223,-264,452.6172659397125,452.61732053756714,452.61988520622253,452.63155221939087,452.78148007392883,452.78148007392883,452.78148007392883,452.78148007392883,452.78148007392883,452.78148007392883,452.78148007392883,453.7326195240021,3,1.0916211605072021,None,,,,,,,,,,,,,,,,,,3,3,2025-02-18_10h03.28.014,comp,2024.2.4,60.06828441144795,2025-02-18 10h03.48.296979 -0500,
107,107,0,filler_square,None,None,None,None,None,None,None,None,None,None,2,0.9916231632232666,None,,,,,0,0,0,0,0,107,107,204,453.7480945587158,,,,,,,,,,,,,,,,,,,,,,,,,,,,,,,,,,,,,,,,,,,,,,,,,,,,,,,,,,,,,,,,,,,,,,,,,,,,,,,,,65.30759619679924,76.33715817300705,140.47517881921638,140.47517881921638,60.69497168430804,102.78325610749931,1.0,1.1,-684,252,-480,285,-262,253,453.7335638999939,453.7336061000824,453.73596692085266,453.7480945587158,453.89809226989746,453.89809226989746,453.89809226989746,453.89809226989746,453.89809226989746,453.89809226989746,453.89809226989746,454.7492413520813,2,0.9916231632232666,None,,,,,,,,,,,,,,,,,,3,3,2025-02-18_10h03.28.014,comp,2024.2.4,60.06828441144795,2025-02-18 10h03.48.296979 -0500,
108,108,0,filler_random,None,None,None,None,None,None,None,None,None,None,1,1.1173160076141357,None,,,,,0,0,0,0,0,108,108,148,454.76482701301575,,,,,,,,,,,,,,,,,,,,,,,,,,,,,,,,,,,,,,,,,,,,,,,,,,,,,,,,,,,,,,,,,,,,,,,,,,,,,,,,,187.34190844958164,126.02071235995737,80.57249204719967,78.41582112322811,74.04895308913908,144.058512490797,3.0,3.2,-198,-266,0,-18,207,274,454.75014758110046,454.7501904964447,454.75249791145325,454.76482701301575,454.91473507881165,454.91473507881165,454.91473507881165,454.91473507881165,454.91473507881165,454.91473507881165,454.91473507881165,455.89914727211,1,1.1173160076141357,None,,,,,,,,,,,,,,,,,,3,3,2025-02-18_10h03.28.014,comp,2024.2.4,60.06828441144795,2025-02-18 10h03.48.296979 -0500,
109,109,0,filler_square,None,None,None,None,None,None,None,None,None,None,3,3.135727882385254,None,,,,,0,0,0,0,0,109,109,186,455.9145550727844,,,,,,,,,,,,,,,,,,,,,,,,,,,,,,,,,,,,,,,,,,,,,,,,,,,,,,,,,,,,,,,,,,,,,,,,,,,,,,,,,95.88072665393344,92.86010696942448,101.68688087736825,71.76289332391327,108.25487903834932,108.25487903834932,2.2,2.22,-178,259,0,-268,186,-261,455.9001376628876,455.9001798629761,455.90271639823914,455.9145550727844,456.06479024887085,456.06479024887085,456.06479024887085,456.06479024887085,456.06479024887085,456.06479024887085,456.06479024887085,459.0659053325653,3,3.135727882385254,None,,,,,,,,,,,,,,,,,,3,3,2025-02-18_10h03.28.014,comp,2024.2.4,60.06828441144795,2025-02-18 10h03.48.296979 -0500,
110,110,0,critical,hdw,20.0,2.1,upper,200.0,125.0,141.0,141.0,125.0,200.0,3,5.6886749267578125,None,,,,,0,0,0,0,0,110,110,23,459.0812499523163,,,,,,,,,,,,,,,,,,,,,,,,,,,,,,,,,,,,,,,,,,,,,,,,,,,,,,,,,,,,,,,,,,,,,,,,,,,,,,,,,200.0,125.0,141.0,141.0,125.0,200.0,2.1,2.12,-229,-257,0,-267,266,257,459.0667061805725,459.0667476654053,459.0691602230072,459.0812499523163,459.2315526008606,459.2315526008606,459.2315526008606,459.2315526008606,459.2315526008606,459.2315526008606,459.2315526008606,464.7828154563904,3,5.6886749267578125,None,,,,,,,,,,,,,,,,,,3,3,2025-02-18_10h03.28.014,comp,2024.2.4,60.06828441144795,2025-02-18 10h03.48.296979 -0500,
111,111,0,filler_square,None,None,None,None,None,None,None,None,None,None,3,0.8841626644134521,None,,,,,0,0,0,0,0,111,111,176,464.79793977737427,,,,,,,,,,,,,,,,,,,,,,,,,,,,,,,,,,,,,,,,,,,,,,,,,,,,,,,,,,,,,,,,,,,,,,,,,,,,,,,,,142.97741423539972,133.52926872645114,57.44432563930252,124.1690796995654,154.18646237576195,154.18646237576195,3.0,3.1,-225,262,0,11,235,-263,464.78380703926086,464.7838509082794,464.78627610206604,464.79793977737427,464.94806957244873,464.94806957244873,464.94806957244873,464.94806957244873,464.94806957244873,464.94806957244873,464.94806957244873,465.69926023483276,3,0.8841626644134521,None,,,,,,,,,,,,,,,,,,3,3,2025-02-18_10h03.28.014,comp,2024.2.4,60.06828441144795,2025-02-18 10h03.48.296979 -0500,
112,112,0,filler_random,None,None,None,None,None,None,None,None,None,None,2,6.6251537799835205,None,,,,,0,0,0,0,0,112,112,165,465.7144584655762,,,,,,,,,,,,,,,,,,,,,,,,,,,,,,,,,,,,,,,,,,,,,,,,,,,,,,,,,,,,,,,,,,,,,,,,,,,,,,,,,65.12739655309211,88.89996130387158,58.15653792073665,173.21832813891626,67.16654683758259,73.52477194239992,2.1,2.12,-227,-260,0,-253,219,256,465.7001678943634,465.70020961761475,465.7027208805084,465.7144584655762,465.8644504547119,465.8644504547119,465.8644504547119,465.8644504547119,465.8644504547119,465.8644504547119,465.8644504547119,472.34892654418945,2,6.6251537799835205,None,,,,,,,,,,,,,,,,,,3,3,2025-02-18_10h03.28.014,comp,2024.2.4,60.06828441144795,2025-02-18 10h03.48.296979 -0500,
113,113,0,critical,whd,35.0,2.1,lower,57.0,133.0,133.0,57.0,70.0,70.0,2,1.4160435199737549,None,,,,,0,0,0,0,0,113,113,12,472.3646638393402,,,,,,,,,,,,,,,,,,,,,,,,,,,,,,,,,,,,,,,,,,,,,,,,,,,,,,,,,,,,,,,,,,,,,,,,,,,,,,,,,57.0,133.0,133.0,57.0,70.0,70.0,2.1,2.12,-191,-254,0,-254,160,284,472.34971618652344,472.3497588634491,472.3522880077362,472.3646638393402,472.5144696235657,472.5144696235657,472.5144696235657,472.5144696235657,472.5144696235657,472.5144696235657,472.5144696235657,473.7989270687103,2,1.4160435199737549,None,,,,,,,,,,,,,,,,,,3,3,2025-02-18_10h03.28.014,comp,2024.2.4,60.06828441144795,2025-02-18 10h03.48.296979 -0500,
114,114,0,critical,dwh,20.0,3.0,upper,141.0,141.0,125.0,200.0,200.0,125.0,2,2.355480670928955,None,,,,,0,0,0,0,0,114,114,69,473.8143963813782,,,,,,,,,,,,,,,,,,,,,,,,,,,,,,,,,,,,,,,,,,,,,,,,,,,,,,,,,,,,,,,,,,,,,,,,,,,,,,,,,141.0,141.0,125.0,200.0,200.0,125.0,3.0,3.1,-266,263,0,-13,258,-273,473.79972672462463,473.79976892471313,473.80234956741333,473.8143963813782,473.9646816253662,473.9646816253662,473.9646816253662,473.9646816253662,473.9646816253662,473.9646816253662,473.9646816253662,476.1826467514038,2,2.355480670928955,None,,,,,,,,,,,,,,,,,,3,3,2025-02-18_10h03.28.014,comp,2024.2.4,60.06828441144795,2025-02-18 10h03.48.296979 -0500,
115,115,0,filler_square,None,None,None,None,None,None,None,None,None,None,3,2.614030599594116,None,,,,,0,0,0,0,0,115,115,182,476.1976010799408,,,,,,,,,,,,,,,,,,,,,,,,,,,,,,,,,,,,,,,,,,,,,,,,,,,,,,,,,,,,,,,,,,,,,,,,,,,,,,,,,100.08759674215818,100.41495913919938,76.11578081843443,73.12876760255648,101.93309337483927,101.93309337483927,4.0,4.2,-183,11,0,-251,184,-13,476.18357610702515,476.18361735343933,476.1860103607178,476.1976010799408,476.3477325439453,476.3477325439453,476.3477325439453,476.3477325439453,476.3477325439453,476.3477325439453,476.3477325439453,478.81571197509766,3,2.614030599594116,None,,,,,,,,,,,,,,,,,,3,3,2025-02-18_10h03.28.014,comp,2024.2.4,60.06828441144795,2025-02-18 10h03.48.296979 -0500,
116,116,0,critical,dwh,20.0,2.1,lower,78.0,78.0,57.0,133.0,133.0,57.0,2,6.866896629333496,None,,,,,0,0,0,0,0,116,116,30,478.8312373161316,,,,,,,,,,,,,,,,,,,,,,,,,,,,,,,,,,,,,,,,,,,,,,,,,,,,,,,,,,,,,,,,,,,,,,,,,,,,,,,,,78.0,78.0,57.0,133.0,133.0,57.0,2.1,2.12,-202,-276,0,-262,191,254,478.81649804115295,478.8165395259857,478.8189241886139,478.8312373161316,478.9810938835144,478.9810938835144,478.9810938835144,478.9810938835144,478.9810938835144,478.9810938835144,478.9810938835144,485.7155752182007,2,6.866896629333496,None,,,,,,,,,,,,,,,,,,3,3,2025-02-18_10h03.28.014,comp,2024.2.4,60.06828441144795,2025-02-18 10h03.48.296979 -0500,
117,117,0,filler_random,None,None,None,None,None,None,None,None,None,None,1,2.1671347618103027,None,,,,,0,0,0,0,0,117,117,143,485.73101806640625,,,,,,,,,,,,,,,,,,,,,,,,,,,,,,,,,,,,,,,,,,,,,,,,,,,,,,,,,,,,,,,,,,,,,,,,,,,,,,,,,183.06271856369594,123.5137741709212,99.19813624682487,162.42445684385967,194.46770332105046,74.95531656528215,2.2,2.22,-239,269,0,-258,215,-271,485.7164902687073,485.7165307998657,485.71984004974365,485.73101806640625,485.8811752796173,485.8811752796173,485.8811752796173,485.8811752796173,485.8811752796173,485.8811752796173,485.8811752796173,487.91550850868225,1,2.1671347618103027,None,,,,,,,,,,,,,,,,,,3,3,2025-02-18_10h03.28.014,comp,2024.2.4,60.06828441144795,2025-02-18 10h03.48.296979 -0500,
118,118,0,critical,dhw,20.0,2.1,lower,78.0,78.0,133.0,57.0,57.0,133.0,2,3.6388490200042725,None,,,,,0,0,0,0,0,118,118,26,487.9308762550354,,,,,,,,,,,,,,,,,,,,,,,,,,,,,,,,,,,,,,,,,,,,,,,,,,,,,,,,,,,,,,,,,,,,,,,,,,,,,,,,,78.0,78.0,133.0,57.0,57.0,133.0,2.1,2.12,-164,-288,0,-253,191,251,487.9163088798523,487.91635155677795,487.91866540908813,487.9308762550354,488.0809302330017,488.0809302330017,488.0809302330017,488.0809302330017,488.0809302330017,488.0809302330017,488.0809302330017,491.5822043418884,2,3.6388490200042725,None,,,,,,,,,,,,,,,,,,3,3,2025-02-18_10h03.28.014,comp,2024.2.4,60.06828441144795,2025-02-18 10h03.48.296979 -0500,
119,119,0,critical,hwd,20.0,4.0,upper,200.0,125.0,125.0,200.0,141.0,141.0,1,1.5017385482788086,None,,,,,0,0,0,0,0,119,119,107,491.5976686477661,,,,,,,,,,,,,,,,,,,,,,,,,,,,,,,,,,,,,,,,,,,,,,,,,,,,,,,,,,,,,,,,,,,,,,,,,,,,,,,,,200.0,125.0,125.0,200.0,141.0,141.0,4.0,4.1,-258,-285,0,-10,266,-263,491.583003282547,491.58304476737976,491.58566641807556,491.5976686477661,491.7479531764984,491.7479531764984,491.7479531764984,491.7479531764984,491.7479531764984,491.7479531764984,491.7479531764984,493.11563515663147,1,1.5017385482788086,None,,,,,,,,,,,,,,,,,,3,3,2025-02-18_10h03.28.014,comp,2024.2.4,60.06828441144795,2025-02-18 10h03.48.296979 -0500,
120,120,0,filler_random,None,None,None,None,None,None,None,None,None,None,3,1.3190789222717285,None,,,,,0,0,0,0,0,120,120,162,493.13088488578796,,,,,,,,,,,,,,,,,,,,,,,,,,,,,,,,,,,,,,,,,,,,,,,,,,,,,,,,,,,,,,,,,,,,,,,,,,,,,,,,,145.41508133352664,87.01166787310508,170.6833656437118,63.77107216621231,173.10050348044808,147.70878860102485,3.0,3.1,-171,251,0,-3,202,-278,493.1165466308594,493.1165888309479,493.1189498901367,493.13088488578796,493.28116393089294,493.28116393089294,493.28116393089294,493.28116393089294,493.28116393089294,493.28116393089294,493.28116393089294,494.4657332897186,3,1.3190789222717285,None,,,,,,,,,,,,,,,,,,3,3,2025-02-18_10h03.28.014,comp,2024.2.4,60.06828441144795,2025-02-18 10h03.48.296979 -0500,
121,121,0,critical,dwh,20.0,1.0,upper,141.0,141.0,125.0,200.0,200.0,125.0,3,1.6353754997253418,None,,,,,0,0,0,0,0,121,121,67,494.48092246055603,,,,,,,,,,,,,,,,,,,,,,,,,,,,,,,,,,,,,,,,,,,,,,,,,,,,,,,,,,,,,,,,,,,,,,,,,,,,,,,,,141.0,141.0,125.0,200.0,200.0,125.0,1.0,1.2,-266,-15,0,19,258,-2,494.46651792526245,494.4665594100952,494.46891593933105,494.48092246055603,494.63117933273315,494.63117933273315,494.63117933273315,494.63117933273315,494.63117933273315,494.63117933273315,494.63117933273315,496.1321747303009,3,1.6353754997253418,None,,,,,,,,,,,,,,,,,,3,3,2025-02-18_10h03.28.014,comp,2024.2.4,60.06828441144795,2025-02-18 10h03.48.296979 -0500,
122,122,0,critical,dhw,20.0,3.0,lower,78.0,78.0,133.0,57.0,57.0,133.0,2,1.4644725322723389,None,,,,,0,0,0,0,0,122,122,56,496.1475160121918,,,,,,,,,,,,,,,,,,,,,,,,,,,,,,,,,,,,,,,,,,,,,,,,,,,,,,,,,,,,,,,,,,,,,,,,,,,,,,,,,78.0,78.0,133.0,57.0,57.0,133.0,3.0,3.2,-164,-288,0,-10,191,278,496.13307642936707,496.1331171989441,496.1365554332733,496.1475160121918,496.29763650894165,496.29763650894165,496.29763650894165,496.29763650894165,496.29763650894165,496.29763650894165,496.29763650894165,497.61561393737793,2,1.4644725322723389,None,,,,,,,,,,,,,,,,,,3,3,2025-02-18_10h03.28.014,comp,2024.2.4,60.06828441144795,2025-02-18 10h03.48.296979 -0500,
123,123,0,filler_square,None,None,None,None,None,None,None,None,None,None,2,2.043410062789917,None,,,,,0,0,0,0,0,123,123,184,497.63120698928833,,,,,,,,,,,,,,,,,,,,,,,,,,,,,,,,,,,,,,,,,,,,,,,,,,,,,,,,,,,,,,,,,,,,,,,,,,,,,,,,,155.8589482548142,116.97376514239896,159.30774760003374,159.30774760003374,114.99352217508287,101.20500850679137,2.1,2.12,-234,-263,0,-263,226,283,497.61660861968994,497.6166515350342,497.6189458370209,497.63120698928833,497.78105068206787,497.78105068206787,497.78105068206787,497.78105068206787,497.78105068206787,497.78105068206787,497.78105068206787,499.68215775489807,2,2.043410062789917,None,,,,,,,,,,,,,,,,,,3,3,2025-02-18_10h03.28.014,comp,2024.2.4,60.06828441144795,2025-02-18 10h03.48.296979 -0500,
124,124,0,filler_random,None,None,None,None,None,None,None,None,None,None,1,1.1680796146392822,None,,,,,0,0,0,0,0,124,124,140,499.6977517604828,,,,,,,,,,,,,,,,,,,,,,,,,,,,,,,,,,,,,,,,,,,,,,,,,,,,,,,,,,,,,,,,,,,,,,,,,,,,,,,,,184.3197502125705,120.9493921937449,69.56653589138307,90.82468599314336,127.40486603431613,101.26480226258707,4.0,4.2,-202,0,0,-266,192,-3,499.6830310821533,499.68307089805603,499.68554496765137,499.6977517604828,499.8477029800415,499.8477029800415,499.8477029800415,499.8477029800415,499.8477029800415,499.8477029800415,499.8477029800415,500.88208866119385,1,1.1680796146392822,None,,,,,,,,,,,,,,,,,,3,3,2025-02-18_10h03.28.014,comp,2024.2.4,60.06828441144795,2025-02-18 10h03.48.296979 -0500,
125,125,0,critical,hwd,35.0,4.0,lower,133.0,57.0,57.0,133.0,70.0,70.0,2,4.266757249832153,None,,,,,0,0,0,0,0,125,125,100,500.8974678516388,,,,,,,,,,,,,,,,,,,,,,,,,,,,,,,,,,,,,,,,,,,,,,,,,,,,,,,,,,,,,,,,,,,,,,,,,,,,,,,,,133.0,57.0,57.0,133.0,70.0,70.0,4.0,4.2,-191,-15,0,-290,198,-7,500.8828670978546,500.882910490036,500.8853974342346,500.8974678516388,501.04752826690674,501.04752826690674,501.04752826690674,501.04752826690674,501.04752826690674,501.04752826690674,501.04752826690674,505.1656322479248,2,4.266757249832153,None,,,,,,,,,,,,,,,,,,3,3,2025-02-18_10h03.28.014,comp,2024.2.4,60.06828441144795,2025-02-18 10h03.48.296979 -0500,
126,126,0,critical,wdh,35.0,4.0,upper,125.0,200.0,127.0,127.0,200.0,125.0,3,5.966887474060059,None,,,,,0,0,0,0,0,126,126,77,505.18100094795227,,,,,,,,,,,,,,,,,,,,,,,,,,,,,,,,,,,,,,,,,,,,,,,,,,,,,,,,,,,,,,,,,,,,,,,,,,,,,,,,,125.0,200.0,127.0,127.0,200.0,125.0,4.0,4.1,-260,-269,0,-1,222,-254,505.1664137840271,505.16645765304565,505.1685953140259,505.18100094795227,505.33111023902893,505.33111023902893,505.33111023902893,505.33111023902893,505.33111023902893,505.33111023902893,505.33111023902893,511.1492063999176,3,5.966887474060059,None,,,,,,,,,,,,,,,,,,3,3,2025-02-18_10h03.28.014,comp,2024.2.4,60.06828441144795,2025-02-18 10h03.48.296979 -0500,
127,127,0,critical,whd,35.0,2.1,upper,125.0,200.0,200.0,125.0,127.0,127.0,2,1.4161734580993652,None,,,,,0,0,0,0,0,127,127,13,511.16433024406433,,,,,,,,,,,,,,,,,,,,,,,,,,,,,,,,,,,,,,,,,,,,,,,,,,,,,,,,,,,,,,,,,,,,,,,,,,,,,,,,,125.0,200.0,200.0,125.0,127.0,127.0,2.1,2.12,-258,-285,0,-250,222,287,511.15003204345703,511.1500754356384,511.15257716178894,511.16433024406433,511.31432366371155,511.31432366371155,511.31432366371155,511.31432366371155,511.31432366371155,511.31432366371155,511.31432366371155,512.5825591087341,2,1.4161734580993652,None,,,,,,,,,,,,,,,,,,3,3,2025-02-18_10h03.28.014,comp,2024.2.4,60.06828441144795,2025-02-18 10h03.48.296979 -0500,
128,128,0,critical,whd,35.0,4.0,lower,57.0,133.0,133.0,57.0,70.0,70.0,2,3.571932554244995,None,,,,,0,0,0,0,0,128,128,88,512.5976328849792,,,,,,,,,,,,,,,,,,,,,,,,,,,,,,,,,,,,,,,,,,,,,,,,,,,,,,,,,,,,,,,,,,,,,,,,,,,,,,,,,57.0,133.0,133.0,57.0,70.0,70.0,4.0,4.1,-191,-289,0,-7,160,-287,512.5833516120911,512.5833930969238,512.5854489803314,512.5976328849792,512.7474055290222,512.7474055290222,512.7474055290222,512.7474055290222,512.7474055290222,512.7474055290222,512.7474055290222,516.1819474697113,2,3.571932554244995,None,,,,,,,,,,,,,,,,,,3,3,2025-02-18_10h03.28.014,comp,2024.2.4,60.06828441144795,2025-02-18 10h03.48.296979 -0500,
129,129,0,critical,hwd,20.0,3.0,upper,200.0,125.0,125.0,200.0,141.0,141.0,2,3.677135944366455,None,,,,,0,0,0,0,0,129,129,105,516.1973628997803,,,,,,,,,,,,,,,,,,,,,,,,,,,,,,,,,,,,,,,,,,,,,,,,,,,,,,,,,,,,,,,,,,,,,,,,,,,,,,,,,200.0,125.0,125.0,200.0,141.0,141.0,3.0,3.2,-258,-264,0,19,266,290,516.1827824115753,516.1828236579895,516.1853294372559,516.1973628997803,516.3477299213409,516.3477299213409,516.3477299213409,516.3477299213409,516.3477299213409,516.3477299213409,516.3477299213409,519.8820695877075,2,3.677135944366455,None,,,,,,,,,,,,,,,,,,3,3,2025-02-18_10h03.28.014,comp,2024.2.4,60.06828441144795,2025-02-18 10h03.48.296979 -0500,
130,130,0,filler_square,None,None,None,None,None,None,None,None,None,None,3,6.624901294708252,None,,,,,0,0,0,0,0,130,130,177,519.8975863456726,,,,,,,,,,,,,,,,,,,,,,,,,,,,,,,,,,,,,,,,,,,,,,,,,,,,,,,,,,,,,,,,,,,,,,,,,,,,,,,,,69.76129542757423,77.358389525908,83.12297329548795,57.50522271309536,85.95823218314798,85.95823218314798,4.0,4.1,-163,-277,0,-19,168,-263,519.8830282688141,519.8830707073212,519.8851683139801,519.8975863456726,520.0474936962128,520.0474936962128,520.0474936962128,520.0474936962128,520.0474936962128,520.0474936962128,520.0474936962128,526.5318200588226,3,6.624901294708252,None,,,,,,,,,,,,,,,,,,3,3,2025-02-18_10h03.28.014,comp,2024.2.4,60.06828441144795,2025-02-18 10h03.48.296979 -0500,
131,131,0,critical,dhw,35.0,3.0,lower,70.0,70.0,133.0,57.0,57.0,133.0,2,1.4864726066589355,None,,,,,0,0,0,0,0,131,131,50,526.5475554466248,,,,,,,,,,,,,,,,,,,,,,,,,,,,,,,,,,,,,,,,,,,,,,,,,,,,,,,,,,,,,,,,,,,,,,,,,,,,,,,,,70.0,70.0,133.0,57.0,57.0,133.0,3.0,3.1,-160,279,0,-6,191,-252,526.5326170921326,526.5326609611511,526.5352191925049,526.5475554466248,526.6976637840271,526.6976637840271,526.6976637840271,526.6976637840271,526.6976637840271,526.6976637840271,526.6976637840271,528.0485217571259,2,1.4864726066589355,None,,,,,,,,,,,,,,,,,,3,3,2025-02-18_10h03.28.014,comp,2024.2.4,60.06828441144795,2025-02-18 10h03.48.296979 -0500,
132,132,0,filler_random,None,None,None,None,None,None,None,None,None,None,3,1.3215787410736084,None,,,,,0,0,0,0,0,132,132,152,528.0638990402222,,,,,,,,,,,,,,,,,,,,,,,,,,,,,,,,,,,,,,,,,,,,,,,,,,,,,,,,,,,,,,,,,,,,,,,,,,,,,,,,,105.09736342374809,109.13922352432414,141.72083934451152,59.93806384866651,160.8148591641207,192.22497375010138,2.2,2.22,-181,287,0,-276,222,-267,528.0494616031647,528.0495026111603,528.0518698692322,528.0638990402222,528.214129447937,528.214129447937,528.214129447937,528.214129447937,528.214129447937,528.214129447937,528.214129447937,529.3985123634338,3,1.3215787410736084,None,,,,,,,,,,,,,,,,,,3,3,2025-02-18_10h03.28.014,comp,2024.2.4,60.06828441144795,2025-02-18 10h03.48.296979 -0500,
133,133,0,filler_square,None,None,None,None,None,None,None,None,None,None,1,1.2276787757873535,None,,,,,0,0,0,0,0,133,133,206,529.4146208763123,,,,,,,,,,,,,,,,,,,,,,,,,,,,,,,,,,,,,,,,,,,,,,,,,,,,,,,,,,,,,,,,,,,,,,,,,,,,,,,,,178.05695721069057,178.05695721069057,59.7545798679872,122.58738520975963,100.47064075956736,124.93697859024685,1.0,1.1,-726,252,-480,280,-260,256,529.3994398117065,529.3994815349579,529.4017677307129,529.4146208763123,529.5641269683838,529.5641269683838,529.5641269683838,529.5641269683838,529.5641269683838,529.5641269683838,529.5641269683838,530.6485841274261,1,1.2276787757873535,None,,,,,,,,,,,,,,,,,,3,3,2025-02-18_10h03.28.014,comp,2024.2.4,60.06828441144795,2025-02-18 10h03.48.296979 -0500,
134,134,0,critical,wdh,20.0,4.0,upper,125.0,200.0,141.0,141.0,200.0,125.0,1,2.153400182723999,None,,,,,0,0,0,0,0,134,134,83,530.6641147136688,,,,,,,,,,,,,,,,,,,,,,,,,,,,,,,,,,,,,,,,,,,,,,,,,,,,,,,,,,,,,,,,,,,,,,,,,,,,,,,,,125.0,200.0,141.0,141.0,200.0,125.0,4.0,4.1,-266,-288,0,10,229,-268,530.6493520736694,530.6493940353394,530.6517155170441,530.6641147136688,530.8141922950745,530.8141922950745,530.8141922950745,530.8141922950745,530.8141922950745,530.8141922950745,530.8141922950745,532.8319563865662,1,2.153400182723999,None,,,,,,,,,,,,,,,,,,3,3,2025-02-18_10h03.28.014,comp,2024.2.4,60.06828441144795,2025-02-18 10h03.48.296979 -0500,
135,135,0,filler_random,None,None,None,None,None,None,None,None,None,None,3,1.379091739654541,None,,,,,0,0,0,0,0,135,135,169,532.8471846580505,,,,,,,,,,,,,,,,,,,,,,,,,,,,,,,,,,,,,,,,,,,,,,,,,,,,,,,,,,,,,,,,,,,,,,,,,,,,,,,,,189.0252587387225,96.52002194001817,83.83638577832798,141.26151542566208,165.39852645258946,146.24722067691175,4.0,4.2,-215,20,0,-252,240,-4,532.8328642845154,532.8329060077667,532.8354814052582,532.8471846580505,532.9974558353424,532.9974558353424,532.9974558353424,532.9974558353424,532.9974558353424,532.9974558353424,532.9974558353424,534.2320766448975,3,1.379091739654541,None,,,,,,,,,,,,,,,,,,3,3,2025-02-18_10h03.28.014,comp,2024.2.4,60.06828441144795,2025-02-18 10h03.48.296979 -0500,
136,136,0,critical,dwh,20.0,1.0,lower,78.0,78.0,57.0,133.0,133.0,57.0,3,7.626855373382568,None,,,,,0,0,0,0,0,136,136,66,534.247472524643,,,,,,,,,,,,,,,,,,,,,,,,,,,,,,,,,,,,,,,,,,,,,,,,,,,,,,,,,,,,,,,,,,,,,,,,,,,,,,,,,78.0,78.0,57.0,133.0,133.0,57.0,1.0,1.1,-682,264,-480,281,-289,272,534.2328934669495,534.2329363822937,534.2355587482452,534.247472524643,534.3973543643951,534.3973543643951,534.3973543643951,534.3973543643951,534.3973543643951,534.3973543643951,534.3973543643951,541.8818995952606,3,7.626855373382568,None,,,,,,,,,,,,,,,,,,3,3,2025-02-18_10h03.28.014,comp,2024.2.4,60.06828441144795,2025-02-18 10h03.48.296979 -0500,
137,137,0,filler_random,None,None,None,None,None,None,None,None,None,None,2,1.1044487953186035,None,,,,,0,0,0,0,0,137,137,154,541.8974270820618,,,,,,,,,,,,,,,,,,,,,,,,,,,,,,,,,,,,,,,,,,,,,,,,,,,,,,,,,,,,,,,,,,,,,,,,,,,,,,,,,160.35537961238975,68.37015940007953,198.84172040706142,113.13422634084469,131.49929023241015,87.86786105682349,1.0,1.2,-187,2,0,-13,197,-5,541.8828158378601,541.8828587532043,541.8854959011078,541.8974270820618,542.0472800731659,542.0472800731659,542.0472800731659,542.0472800731659,542.0472800731659,542.0472800731659,542.0472800731659,543.0150952339172,2,1.1044487953186035,None,,,,,,,,,,,,,,,,,,3,3,2025-02-18_10h03.28.014,comp,2024.2.4,60.06828441144795,2025-02-18 10h03.48.296979 -0500,
138,138,0,critical,hwd,20.0,3.0,lower,133.0,57.0,57.0,133.0,78.0,78.0,1,5.043816804885864,None,,,,,0,0,0,0,0,138,138,104,543.0303952693939,,,,,,,,,,,,,,,,,,,,,,,,,,,,,,,,,,,,,,,,,,,,,,,,,,,,,,,,,,,,,,,,,,,,,,,,,,,,,,,,,133.0,57.0,57.0,133.0,78.0,78.0,3.0,3.2,-191,-262,0,-1,202,253,543.0159223079681,543.0159623622894,543.0184745788574,543.0303952693939,543.1804049015045,543.1804049015045,543.1804049015045,543.1804049015045,543.1804049015045,543.1804049015045,543.1804049015045,548.0817966461182,1,5.043816804885864,None,,,,,,,,,,,,,,,,,,3,3,2025-02-18_10h03.28.014,comp,2024.2.4,60.06828441144795,2025-02-18 10h03.48.296979 -0500,
139,139,0,filler_random,None,None,None,None,None,None,None,None,None,None,2,2.344783306121826,None,,,,,0,0,0,0,0,139,139,153,548.0974175930023,,,,,,,,,,,,,,,,,,,,,,,,,,,,,,,,,,,,,,,,,,,,,,,,,,,,,,,,,,,,,,,,,,,,,,,,,,,,,,,,,67.17516225833293,138.63870199188676,169.4443708002948,146.25316004035727,177.19503114684508,82.39782516693569,1.0,1.2,-238,-6,0,-4,210,-6,548.0826914310455,548.0827322006226,548.0851285457611,548.0974175930023,548.2473518848419,548.2473518848419,548.2473518848419,548.2473518848419,548.2473518848419,548.2473518848419,548.2473518848419,550.4484174251556,2,2.344783306121826,None,,,,,,,,,,,,,,,,,,3,3,2025-02-18_10h03.28.014,comp,2024.2.4,60.06828441144795,2025-02-18 10h03.48.296979 -0500,
140,140,0,critical,hdw,20.0,2.1,lower,133.0,57.0,78.0,78.0,57.0,133.0,1,6.305262327194214,None,,,,,0,0,0,0,0,140,140,22,550.4639110565186,,,,,,,,,,,,,,,,,,,,,,,,,,,,,,,,,,,,,,,,,,,,,,,,,,,,,,,,,,,,,,,,,,,,,,,,,,,,,,,,,133.0,57.0,78.0,78.0,57.0,133.0,2.1,2.11,-164,252,0,276,202,-272,550.449193239212,550.4492321014404,550.4514515399933,550.4639110565186,550.613751411438,550.613751411438,550.613751411438,550.613751411438,550.613751411438,550.613751411438,550.613751411438,556.7815337181091,1,6.305262327194214,None,,,,,,,,,,,,,,,,,,3,3,2025-02-18_10h03.28.014,comp,2024.2.4,60.06828441144795,2025-02-18 10h03.48.296979 -0500,
