thisN,thisTrialN,thisRepN,effect,order,distance,config,diag,h_1,w_1,h_2,w_2,h_3,w_3,rect_choice.keys,rect_choice.rt,rect_choice.duration,instructions_loop.thisRepN,instructions_loop.thisTrialN,instructions_loop.thisN,instructions_loop.thisIndex,blocks.thisRepN,blocks.thisTrialN,blocks.thisN,blocks.thisIndex,trials.thisRepN,trials.thisTrialN,trials.thisN,trials.thisIndex,thisRow.t,notes,consent.started,agree_button.started,decline_button.started,consent_img.started,mouse.started,consent.stopped,agree_button.numClicks,agree_button.timesOn,agree_button.timesOff,decline_button.numClicks,decline_button.timesOn,decline_button.timesOff,mouse.x,mouse.y,mouse.leftButton,mouse.midButton,mouse.rightButton,mouse.time,mouse.clicked_name,exp_params.started,exp_params.stopped,welcome.started,welcome_text.started,welcome_text.stopped,welcome.stopped,instructions_1.started,instructions_1_text_1.started,instructions_1_text_2.started,key_resp.started,instructions_1.stopped,instructions_loop.key_resp.keys,instructions_loop.key_resp.rt,instructions_loop.key_resp.duration,instructions_2.started,instructions_2_text_1.started,instructions_2_text_2.started,key_resp_2.started,instructions_2.stopped,instructions_loop.key_resp_2.keys,instructions_loop.key_resp_2.rt,instructions_loop.key_resp_2.duration,instructions_3.started,instructions_3_text_1.started,r1_instr3.started,r2_instr3.started,r3_instr3.started,r1_instr3_label.started,r2_instr3_label.started,r3_instr3_label.started,instructions_3_text_3.started,instructions_3_text_4.started,key_resp_3.started,instructions_3.stopped,instructions_loop.key_resp_3.keys,instructions_loop.key_resp_3.rt,instructions_loop.key_resp_3.duration,instructions_4.started,instructions_4_text_1.started,instructions_4_text_3.started,instructions_4_text_2.started,key_resp_4.started,instructions_4.stopped,instructions_loop.key_resp_4.keys,instructions_loop.key_resp_4.rt,instructions_loop.key_resp_4.duration,instructions_5.started,instructions_5_text_1.started,instructions_5_text_2.started,key_resp_5.started,instructions_5.stopped,instructions_loop.key_resp_5.keys,instructions_loop.key_resp_5.rt,instructions_loop.key_resp_5.duration,start_exp.started,start_exp_text.started,key_resp_6.started,start_exp.stopped,key_resp_6.keys,key_resp_6.rt,key_resp_6.duration,h_1_tmp,w_1_tmp,h_2_tmp,w_2_tmp,h_3_tmp,w_3_tmp,config_tmp,config_tmp_1,r_1_x,r_1_y,r_2_x,r_2_y,r_3_x,r_3_y,pre_trial.started,pre_trial.stopped,choice_trial.started,rect_choice.started,r_1.started,r_2.started,r_3.started,r_1_label.started,r_2_label.started,r_3_label.started,prompt.started,choice_trial.stopped,trials.rect_choice.keys,trials.rect_choice.rt,trials.rect_choice.duration,end_block.started,end_block_text.started,end_block.stopped,end.started,end_text.started,key_resp_7.started,end.stopped,key_resp_7.keys,key_resp_7.rt,key_resp_7.duration,debriefing.started,debrief_form.started,end_debrief.started,debriefing.stopped,end_debrief.keys,end_debrief.rt,end_debrief.duration,participant,computer,date,expName,psychopyVersion,frameRate,expStart,
,,,,,,,,,,,,,,,,,,,,,,,,,,,,,,,0.01489877700805664,0.038628578186035156,0.038628578186035156,0.038628578186035156,0.014687776565551758,43.38571810722351,1,[43.34442210197449],[43.34444522857666],0,,,[-46.0],[-524.0],[1],[0],[0],[43.37028527259827],['agree_button'],,,,,,,,,,,,,,,,,,,,,,,,,,,,,,,,,,,,,,,,,,,,,,,,,,,,,,,,,,,,,,,,,,,,,,,,,,,,,,,,,,,,,,,,,,,,,,,,,,,,,,,,,,,,40,4,2025-02-19_12h02.23.288,comp,2024.2.4,57.672372068464824,2025-02-19 12h02.36.793793 -0500,
,,,,,,,,,,,,,,,,,,,,,,,,,,,,,,,,,,,,,,,,,,,,,,,,,,43.38625192642212,43.386354207992554,,,,,,,,,,,,,,,,,,,,,,,,,,,,,,,,,,,,,,,,,,,,,,,,,,,,,,,,,,,,,,,,,,,,,,,,,,,,,,,,,,,,,,,,,,,,,,,,,,,,,,,,,,40,4,2025-02-19_12h02.23.288,comp,2024.2.4,57.672372068464824,2025-02-19 12h02.36.793793 -0500,
,,,,,,,,,,,,,,,,,,,,,,,,,,,,,,,,,,,,,,,,,,,,,,,,,,,,43.38643455505371,43.40060496330261,45.40395402908325,45.386115074157715,,,,,,,,,,,,,,,,,,,,,,,,,,,,,,,,,,,,,,,,,,,,,,,,,,,,,,,,,,,,,,,,,,,,,,,,,,,,,,,,,,,,,,,,,,,,,,,,,,,,,,40,4,2025-02-19_12h02.23.288,comp,2024.2.4,57.672372068464824,2025-02-19 12h02.36.793793 -0500,
0,0,0,,,,,,,,,,,,,,,0,0,0,0,,,,,,,,,45.40395402908325,,,,,,,,,,,,,,,,,,,,,,,,,,,45.38697671890259,45.40395402908325,45.40395402908325,46.88720750808716,49.30586838722229,space,2.400862455368042,None,49.30601716041565,49.32126069068909,49.32126069068909,50.805152893066406,56.45460557937622,space,5.643608331680298,None,56.454758405685425,56.48286437988281,56.48286437988281,56.48286437988281,56.48286437988281,56.48286437988281,56.48286437988281,56.48286437988281,56.48286437988281,56.48286437988281,57.95823812484741,61.07475137710571,space,3.1055824756622314,None,61.07491159439087,61.09121060371399,61.09121060371399,61.09121060371399,62.577250719070435,67.92805242538452,space,5.334582090377808,None,67.92821764945984,67.94380021095276,67.94380021095276,69.42750453948975,70.24582695960999,space,0.8128948211669922,None,70.2460241317749,70.2607626914978,70.2607626914978,71.22889995574951,space,0.9551043510437012,None,,,,,,,,,,,,,,,,,,,,,,,,,,,,,,,,,,,,,,,,,,,,,,,40,4,2025-02-19_12h02.23.288,comp,2024.2.4,57.672372068464824,2025-02-19 12h02.36.793793 -0500,
0,0,0,critical,dwh,20.0,2.1,lower,78.0,78.0,57.0,133.0,133.0,57.0,2,23.82932424545288,None,,,,,0,0,0,0,0,0,0,6,71.30681896209717,,,,,,,,,,,,,,,,,,,,,,,,,,,,,,,,,,,,,,,,,,,,,,,,,,,,,,,,,,,,,,,,,,,,,,,,,,,,,,,,,,78.0,78.0,57.0,133.0,133.0,57.0,2.1,2.11,-202,256,0,290,191,-266,71.29059052467346,71.29063320159912,71.29226851463318,71.30681896209717,71.47515940666199,71.47515940666199,71.47515940666199,71.47515940666199,71.47515940666199,71.47515940666199,71.47515940666199,95.1543037891388,2,23.82932424545288,None,,,,,,,,,,,,,,,,,,40,4,2025-02-19_12h02.23.288,comp,2024.2.4,57.672372068464824,2025-02-19 12h02.36.793793 -0500,
1,1,0,critical,hwd,20.0,4.0,lower,133.0,57.0,57.0,133.0,78.0,78.0,1,8.669971942901611,None,,,,,0,0,0,0,0,1,1,106,95.1700348854065,,,,,,,,,,,,,,,,,,,,,,,,,,,,,,,,,,,,,,,,,,,,,,,,,,,,,,,,,,,,,,,,,,,,,,,,,,,,,,,,,,133.0,57.0,57.0,133.0,78.0,78.0,4.0,4.2,-191,-2,0,-284,202,1,95.15598177909851,95.15608072280884,95.15953588485718,95.1700348854065,95.32658886909485,95.32658886909485,95.32658886909485,95.32658886909485,95.32658886909485,95.32658886909485,95.32658886909485,103.85662865638733,1,8.669971942901611,None,,,,,,,,,,,,,,,,,,40,4,2025-02-19_12h02.23.288,comp,2024.2.4,57.672372068464824,2025-02-19 12h02.36.793793 -0500,
2,2,0,critical,dhw,20.0,3.0,lower,78.0,78.0,133.0,57.0,57.0,133.0,3,8.680068016052246,None,,,,,0,0,0,0,0,2,2,56,103.87245965003967,,,,,,,,,,,,,,,,,,,,,,,,,,,,,,,,,,,,,,,,,,,,,,,,,,,,,,,,,,,,,,,,,,,,,,,,,,,,,,,,,,78.0,78.0,133.0,57.0,57.0,133.0,3.0,3.2,-164,-287,0,-4,191,286,103.85816979408264,103.85825037956238,103.861745595932,103.87245965003967,104.0211238861084,104.0211238861084,104.0211238861084,104.0211238861084,104.0211238861084,104.0211238861084,104.0211238861084,112.557950258255,3,8.680068016052246,None,,,,,,,,,,,,,,,,,,40,4,2025-02-19_12h02.23.288,comp,2024.2.4,57.672372068464824,2025-02-19 12h02.36.793793 -0500,
3,3,0,critical,hwd,20.0,3.0,upper,200.0,125.0,125.0,200.0,141.0,141.0,1,11.049992799758911,None,,,,,0,0,0,0,0,3,3,105,112.57443046569824,,,,,,,,,,,,,,,,,,,,,,,,,,,,,,,,,,,,,,,,,,,,,,,,,,,,,,,,,,,,,,,,,,,,,,,,,,,,,,,,,,200.0,125.0,125.0,200.0,141.0,141.0,3.0,3.2,-258,-264,0,-12,266,273,112.55956101417542,112.55964040756226,112.562819480896,112.57443046569824,112.72668099403381,112.72668099403381,112.72668099403381,112.72668099403381,112.72668099403381,112.72668099403381,112.72668099403381,123.62966060638428,1,11.049992799758911,None,,,,,,,,,,,,,,,,,,40,4,2025-02-19_12h02.23.288,comp,2024.2.4,57.672372068464824,2025-02-19 12h02.36.793793 -0500,
4,4,0,filler_square,None,None,None,None,None,None,None,None,None,None,3,2.562471628189087,None,,,,,0,0,0,0,0,4,4,208,123.64551520347595,,,,,,,,,,,,,,,,,,,,,,,,,,,,,,,,,,,,,,,,,,,,,,,,,,,,,,,,,,,,,,,,,,,,,,,,,,,,,,,,,,80.17620932175117,59.165235990707274,86.70069665584239,77.96981229745676,123.6530366074084,123.6530366074084,1.0,1.3,315,-280,480,-262,677,-288,123.63143110275269,123.63150954246521,123.63484382629395,123.64551520347595,123.79864835739136,123.79864835739136,123.79864835739136,123.79864835739136,123.79864835739136,123.79864835739136,123.79864835739136,126.22400283813477,3,2.562471628189087,None,,,,,,,,,,,,,,,,,,40,4,2025-02-19_12h02.23.288,comp,2024.2.4,57.672372068464824,2025-02-19 12h02.36.793793 -0500,
5,5,0,critical,hdw,20.0,4.0,lower,133.0,57.0,78.0,78.0,57.0,133.0,3,8.832140922546387,None,,,,,0,0,0,0,0,5,5,118,126.23983788490295,,,,,,,,,,,,,,,,,,,,,,,,,,,,,,,,,,,,,,,,,,,,,,,,,,,,,,,,,,,,,,,,,,,,,,,,,,,,,,,,,,133.0,57.0,78.0,78.0,57.0,133.0,4.0,4.2,-164,-9,0,-267,202,-5,126.22562646865845,126.22570419311523,126.22858619689941,126.23983788490295,126.38039422035217,126.38039422035217,126.38039422035217,126.38039422035217,126.38039422035217,126.38039422035217,126.38039422035217,135.08675527572632,3,8.832140922546387,None,,,,,,,,,,,,,,,,,,40,4,2025-02-19_12h02.23.288,comp,2024.2.4,57.672372068464824,2025-02-19 12h02.36.793793 -0500,
6,6,0,critical,whd,35.0,2.1,lower,57.0,133.0,133.0,57.0,70.0,70.0,1,2.0126874446868896,None,,,,,0,0,0,0,0,6,6,36,135.10743188858032,,,,,,,,,,,,,,,,,,,,,,,,,,,,,,,,,,,,,,,,,,,,,,,,,,,,,,,,,,,,,,,,,,,,,,,,,,,,,,,,,,57.0,133.0,133.0,57.0,70.0,70.0,2.1,2.11,-191,289,0,281,160,-258,135.08826899528503,135.08837127685547,135.09161520004272,135.10743188858032,135.25015997886658,135.25015997886658,135.25015997886658,135.25015997886658,135.25015997886658,135.25015997886658,135.25015997886658,137.1329483985901,1,2.0126874446868896,None,,,,,,,,,,,,,,,,,,40,4,2025-02-19_12h02.23.288,comp,2024.2.4,57.672372068464824,2025-02-19 12h02.36.793793 -0500,
7,7,0,critical,dhw,20.0,4.0,upper,141.0,141.0,200.0,125.0,125.0,200.0,2,5.1866538524627686,None,,,,,0,0,0,0,0,7,7,59,137.15009808540344,,,,,,,,,,,,,,,,,,,,,,,,,,,,,,,,,,,,,,,,,,,,,,,,,,,,,,,,,,,,,,,,,,,,,,,,,,,,,,,,,,141.0,141.0,200.0,125.0,125.0,200.0,4.0,4.2,-229,-11,0,-278,258,-15,137.13455939292908,137.13468146324158,137.1379199028015,137.15009808540344,137.30344009399414,137.30344009399414,137.30344009399414,137.30344009399414,137.30344009399414,137.30344009399414,137.30344009399414,142.33925652503967,2,5.1866538524627686,None,,,,,,,,,,,,,,,,,,40,4,2025-02-19_12h02.23.288,comp,2024.2.4,57.672372068464824,2025-02-19 12h02.36.793793 -0500,
8,8,0,filler_square,None,None,None,None,None,None,None,None,None,None,1,4.915806531906128,None,,,,,0,0,0,0,0,8,8,196,142.35627365112305,,,,,,,,,,,,,,,,,,,,,,,,,,,,,,,,,,,,,,,,,,,,,,,,,,,,,,,,,,,,,,,,,,,,,,,,,,,,,,,,,,93.13570914655912,93.13570914655912,77.10214215070826,89.85670101291005,76.44163727587456,73.9920063975728,3.0,3.1,-187,277,0,10,178,-271,142.34139227867126,142.3415129184723,142.34488582611084,142.35627365112305,142.5117313861847,142.5117313861847,142.5117313861847,142.5117313861847,142.5117313861847,142.5117313861847,142.5117313861847,147.27555084228516,1,4.915806531906128,None,,,,,,,,,,,,,,,,,,40,4,2025-02-19_12h02.23.288,comp,2024.2.4,57.672372068464824,2025-02-19 12h02.36.793793 -0500,
9,9,0,critical,hdw,35.0,4.0,lower,133.0,57.0,70.0,70.0,57.0,133.0,1,4.297687530517578,None,,,,,0,0,0,0,0,9,9,112,147.29375100135803,,,,,,,,,,,,,,,,,,,,,,,,,,,,,,,,,,,,,,,,,,,,,,,,,,,,,,,,,,,,,,,,,,,,,,,,,,,,,,,,,,133.0,57.0,70.0,70.0,57.0,133.0,4.0,4.2,-160,-6,0,-255,198,6,147.27718138694763,147.2772605419159,147.28056597709656,147.29375100135803,147.4365198612213,147.4365198612213,147.4365198612213,147.4365198612213,147.4365198612213,147.4365198612213,147.4365198612213,151.60298681259155,1,4.297687530517578,None,,,,,,,,,,,,,,,,,,40,4,2025-02-19_12h02.23.288,comp,2024.2.4,57.672372068464824,2025-02-19 12h02.36.793793 -0500,
10,10,0,critical,whd,35.0,3.0,upper,125.0,200.0,200.0,125.0,127.0,127.0,1,3.9714508056640625,None,,,,,0,0,0,0,0,10,10,87,151.62050247192383,,,,,,,,,,,,,,,,,,,,,,,,,,,,,,,,,,,,,,,,,,,,,,,,,,,,,,,,,,,,,,,,,,,,,,,,,,,,,,,,,,125.0,200.0,200.0,125.0,127.0,127.0,3.0,3.2,-258,-265,0,19,222,272,151.60356616973877,151.60359168052673,151.60462975502014,151.62050247192383,151.75542616844177,151.75542616844177,151.75542616844177,151.75542616844177,151.75542616844177,151.75542616844177,151.75542616844177,155.60695934295654,1,3.9714508056640625,None,,,,,,,,,,,,,,,,,,40,4,2025-02-19_12h02.23.288,comp,2024.2.4,57.672372068464824,2025-02-19 12h02.36.793793 -0500,
11,11,0,critical,wdh,20.0,4.0,upper,125.0,200.0,141.0,141.0,200.0,125.0,1,11.193864583969116,None,,,,,0,0,0,0,0,11,11,83,155.6229224205017,,,,,,,,,,,,,,,,,,,,,,,,,,,,,,,,,,,,,,,,,,,,,,,,,,,,,,,,,,,,,,,,,,,,,,,,,,,,,,,,,,125.0,200.0,141.0,141.0,200.0,125.0,4.0,4.2,-266,17,0,-287,229,17,155.60865259170532,155.60876631736755,155.61197423934937,155.6229224205017,155.77264189720154,155.77264189720154,155.77264189720154,155.77264189720154,155.77264189720154,155.77264189720154,155.77264189720154,166.8269443511963,1,11.193864583969116,None,,,,,,,,,,,,,,,,,,40,4,2025-02-19_12h02.23.288,comp,2024.2.4,57.672372068464824,2025-02-19 12h02.36.793793 -0500,
12,12,0,critical,hwd,35.0,1.0,lower,133.0,57.0,57.0,133.0,70.0,70.0,2,10.634519100189209,None,,,,,0,0,0,0,0,12,12,96,166.84554266929626,,,,,,,,,,,,,,,,,,,,,,,,,,,,,,,,,,,,,,,,,,,,,,,,,,,,,,,,,,,,,,,,,,,,,,,,,,,,,,,,,,133.0,57.0,57.0,133.0,70.0,70.0,1.0,1.1,-671,287,-480,251,-282,278,166.82847499847412,166.82855010032654,166.83246660232544,166.84554266929626,167.00154995918274,167.00154995918274,167.00154995918274,167.00154995918274,167.00154995918274,167.00154995918274,167.00154995918274,177.4948902130127,2,10.634519100189209,None,,,,,,,,,,,,,,,,,,40,4,2025-02-19_12h02.23.288,comp,2024.2.4,57.672372068464824,2025-02-19 12h02.36.793793 -0500,
13,13,0,critical,whd,20.0,3.0,upper,125.0,200.0,200.0,125.0,141.0,141.0,1,6.673478841781616,None,,,,,0,0,0,0,0,13,13,93,177.51053142547607,,,,,,,,,,,,,,,,,,,,,,,,,,,,,,,,,,,,,,,,,,,,,,,,,,,,,,,,,,,,,,,,,,,,,,,,,,,,,,,,,,125.0,200.0,200.0,125.0,141.0,141.0,3.0,3.2,-258,-270,0,10,229,259,177.49635863304138,177.49643397331238,177.49921441078186,177.51053142547607,177.66402626037598,177.66402626037598,177.66402626037598,177.66402626037598,177.66402626037598,177.66402626037598,177.66402626037598,184.2000801563263,1,6.673478841781616,None,,,,,,,,,,,,,,,,,,40,4,2025-02-19_12h02.23.288,comp,2024.2.4,57.672372068464824,2025-02-19 12h02.36.793793 -0500,
14,14,0,critical,whd,20.0,2.1,upper,125.0,200.0,200.0,125.0,141.0,141.0,3,9.528284072875977,None,,,,,0,0,0,0,0,14,14,39,184.21640586853027,,,,,,,,,,,,,,,,,,,,,,,,,,,,,,,,,,,,,,,,,,,,,,,,,,,,,,,,,,,,,,,,,,,,,,,,,,,,,,,,,,125.0,200.0,200.0,125.0,141.0,141.0,2.1,2.12,-258,-263,0,-251,229,284,184.20196986198425,184.20210194587708,184.20614647865295,184.21640586853027,184.37167358398438,184.37167358398438,184.37167358398438,184.37167358398438,184.37167358398438,184.37167358398438,184.37167358398438,193.75392484664917,3,9.528284072875977,None,,,,,,,,,,,,,,,,,,40,4,2025-02-19_12h02.23.288,comp,2024.2.4,57.672372068464824,2025-02-19 12h02.36.793793 -0500,
15,15,0,filler_square,None,None,None,None,None,None,None,None,None,None,3,1.4784514904022217,None,,,,,0,0,0,0,0,15,15,190,193.76970052719116,,,,,,,,,,,,,,,,,,,,,,,,,,,,,,,,,,,,,,,,,,,,,,,,,,,,,,,,,,,,,,,,,,,,,,,,,,,,,,,,,,68.27531056865311,90.1651841849382,91.35547596362619,83.40768947544325,191.55320283944846,191.55320283944846,2.1,2.12,-183,-264,0,-289,233,258,193.75585007667542,193.75592923164368,193.7590093612671,193.76970052719116,193.918438911438,193.918438911438,193.918438911438,193.918438911438,193.918438911438,193.918438911438,193.918438911438,195.2524082660675,3,1.4784514904022217,None,,,,,,,,,,,,,,,,,,40,4,2025-02-19_12h02.23.288,comp,2024.2.4,57.672372068464824,2025-02-19 12h02.36.793793 -0500,
16,16,0,critical,dhw,20.0,1.0,lower,78.0,78.0,133.0,57.0,57.0,133.0,1,14.122200012207031,None,,,,,0,0,0,0,0,16,16,54,195.2702260017395,,,,,,,,,,,,,,,,,,,,,,,,,,,,,,,,,,,,,,,,,,,,,,,,,,,,,,,,,,,,,,,,,,,,,,,,,,,,,,,,,,78.0,78.0,133.0,57.0,57.0,133.0,1.0,1.3,316,-258,480,-278,671,-274,195.253915309906,195.25399208068848,195.25717782974243,195.2702260017395,195.41848230361938,195.41848230361938,195.41848230361938,195.41848230361938,195.41848230361938,195.41848230361938,195.41848230361938,209.40965366363525,1,14.122200012207031,None,,,,,,,,,,,,,,,,,,40,4,2025-02-19_12h02.23.288,comp,2024.2.4,57.672372068464824,2025-02-19 12h02.36.793793 -0500,
17,17,0,filler_random,None,None,None,None,None,None,None,None,None,None,3,2.045673131942749,None,,,,,0,0,0,0,0,17,17,159,209.4264178276062,,,,,,,,,,,,,,,,,,,,,,,,,,,,,,,,,,,,,,,,,,,,,,,,,,,,,,,,,,,,,,,,,,,,,,,,,,,,,,,,,,63.15916772741299,195.71374960134915,111.44005542532821,159.51336624994843,187.4003681870756,163.91927986424434,4.0,4.1,-274,-271,0,1,258,-277,209.4117829799652,209.41186594963074,209.415212392807,209.4264178276062,209.5722577571869,209.5722577571869,209.5722577571869,209.5722577571869,209.5722577571869,209.5722577571869,209.5722577571869,211.4902160167694,3,2.045673131942749,None,,,,,,,,,,,,,,,,,,40,4,2025-02-19_12h02.23.288,comp,2024.2.4,57.672372068464824,2025-02-19 12h02.36.793793 -0500,
18,18,0,critical,dwh,35.0,2.1,lower,70.0,70.0,57.0,133.0,133.0,57.0,3,5.437812089920044,None,,,,,0,0,0,0,0,18,18,4,211.50641107559204,,,,,,,,,,,,,,,,,,,,,,,,,,,,,,,,,,,,,,,,,,,,,,,,,,,,,,,,,,,,,,,,,,,,,,,,,,,,,,,,,,70.0,70.0,57.0,133.0,133.0,57.0,2.1,2.11,-198,283,0,265,191,-260,211.49177289009094,211.49184799194336,211.4957733154297,211.50641107559204,211.6584029197693,211.6584029197693,211.6584029197693,211.6584029197693,211.6584029197693,211.6584029197693,211.6584029197693,216.94736552238464,3,5.437812089920044,None,,,,,,,,,,,,,,,,,,40,4,2025-02-19_12h02.23.288,comp,2024.2.4,57.672372068464824,2025-02-19 12h02.36.793793 -0500,
19,19,0,critical,dhw,35.0,1.0,lower,70.0,70.0,133.0,57.0,57.0,133.0,2,8.650453329086304,None,,,,,0,0,0,0,0,19,19,48,216.96556615829468,,,,,,,,,,,,,,,,,,,,,,,,,,,,,,,,,,,,,,,,,,,,,,,,,,,,,,,,,,,,,,,,,,,,,,,,,,,,,,,,,,70.0,70.0,133.0,57.0,57.0,133.0,1.0,1.2,-160,1,0,7,191,-19,216.94880366325378,216.9488809108734,216.95165610313416,216.96556615829468,217.10888934135437,217.10888934135437,217.10888934135437,217.10888934135437,217.10888934135437,217.10888934135437,217.10888934135437,225.62646484375,2,8.650453329086304,None,,,,,,,,,,,,,,,,,,40,4,2025-02-19_12h02.23.288,comp,2024.2.4,57.672372068464824,2025-02-19 12h02.36.793793 -0500,
20,20,0,critical,whd,20.0,2.1,lower,57.0,133.0,133.0,57.0,78.0,78.0,1,3.846078395843506,None,,,,,0,0,0,0,0,20,20,38,225.6425919532776,,,,,,,,,,,,,,,,,,,,,,,,,,,,,,,,,,,,,,,,,,,,,,,,,,,,,,,,,,,,,,,,,,,,,,,,,,,,,,,,,,57.0,133.0,133.0,57.0,78.0,78.0,2.1,2.12,-191,-281,0,-259,164,267,225.6279571056366,225.628032207489,225.63090801239014,225.6425919532776,225.79413485527039,225.79413485527039,225.79413485527039,225.79413485527039,225.79413485527039,225.79413485527039,225.79413485527039,229.4962956905365,1,3.846078395843506,None,,,,,,,,,,,,,,,,,,40,4,2025-02-19_12h02.23.288,comp,2024.2.4,57.672372068464824,2025-02-19 12h02.36.793793 -0500,
21,21,0,filler_random,None,None,None,None,None,None,None,None,None,None,2,1.8639814853668213,None,,,,,0,0,0,0,0,21,21,141,229.5123007297516,,,,,,,,,,,,,,,,,,,,,,,,,,,,,,,,,,,,,,,,,,,,,,,,,,,,,,,,,,,,,,,,,,,,,,,,,,,,,,,,,,139.574542466947,118.07857594635959,177.50056944394902,198.6731972805137,141.19812404940598,165.26809204054987,2.1,2.12,-254,-263,0,-282,278,279,229.4981071949005,229.49818968772888,229.50156259536743,229.5123007297516,229.66213965415955,229.66213965415955,229.66213965415955,229.66213965415955,229.66213965415955,229.66213965415955,229.66213965415955,231.38083600997925,2,1.8639814853668213,None,,,,,,,,,,,,,,,,,,40,4,2025-02-19_12h02.23.288,comp,2024.2.4,57.672372068464824,2025-02-19 12h02.36.793793 -0500,
22,22,0,filler_square,None,None,None,None,None,None,None,None,None,None,3,2.1393213272094727,None,,,,,0,0,0,0,0,22,22,204,231.39668369293213,,,,,,,,,,,,,,,,,,,,,,,,,,,,,,,,,,,,,,,,,,,,,,,,,,,,,,,,,,,,,,,,,,,,,,,,,,,,,,,,,,64.29806760767286,104.5235495176284,90.71637054852164,83.14367580426278,106.67092106582061,106.67092106582061,4.0,4.1,-190,-271,0,-9,191,-274,231.38276529312134,231.38289737701416,231.38605785369873,231.39668369293213,231.5372190475464,231.5372190475464,231.5372190475464,231.5372190475464,231.5372190475464,231.5372190475464,231.5372190475464,233.5459268093109,3,2.1393213272094727,None,,,,,,,,,,,,,,,,,,40,4,2025-02-19_12h02.23.288,comp,2024.2.4,57.672372068464824,2025-02-19 12h02.36.793793 -0500,
23,23,0,critical,hdw,35.0,3.0,lower,133.0,57.0,70.0,70.0,57.0,133.0,1,2.973564386367798,None,,,,,0,0,0,0,0,23,23,110,233.56259751319885,,,,,,,,,,,,,,,,,,,,,,,,,,,,,,,,,,,,,,,,,,,,,,,,,,,,,,,,,,,,,,,,,,,,,,,,,,,,,,,,,,133.0,57.0,70.0,70.0,57.0,133.0,3.0,3.1,-160,270,0,16,198,-265,233.54751133918762,233.54759001731873,233.55079698562622,233.56259751319885,233.71493244171143,233.71493244171143,233.71493244171143,233.71493244171143,233.71493244171143,233.71493244171143,233.71493244171143,236.54664993286133,1,2.973564386367798,None,,,,,,,,,,,,,,,,,,40,4,2025-02-19_12h02.23.288,comp,2024.2.4,57.672372068464824,2025-02-19 12h02.36.793793 -0500,
24,24,0,critical,hwd,20.0,1.0,upper,200.0,125.0,125.0,200.0,141.0,141.0,1,2.4054508209228516,None,,,,,0,0,0,0,0,24,24,103,236.56287288665771,,,,,,,,,,,,,,,,,,,,,,,,,,,,,,,,,,,,,,,,,,,,,,,,,,,,,,,,,,,,,,,,,,,,,,,,,,,,,,,,,,200.0,125.0,125.0,200.0,141.0,141.0,1.0,1.2,-258,2,0,2,266,15,236.5480875968933,236.54816460609436,236.55107307434082,236.56287288665771,236.71472144126892,236.71472144126892,236.71472144126892,236.71472144126892,236.71472144126892,236.71472144126892,236.71472144126892,238.98523449897766,1,2.4054508209228516,None,,,,,,,,,,,,,,,,,,40,4,2025-02-19_12h02.23.288,comp,2024.2.4,57.672372068464824,2025-02-19 12h02.36.793793 -0500,
25,25,0,critical,wdh,35.0,4.0,lower,57.0,133.0,70.0,70.0,133.0,57.0,2,5.9569361209869385,None,,,,,0,0,0,0,0,25,25,76,239.00377011299133,,,,,,,,,,,,,,,,,,,,,,,,,,,,,,,,,,,,,,,,,,,,,,,,,,,,,,,,,,,,,,,,,,,,,,,,,,,,,,,,,,57.0,133.0,70.0,70.0,133.0,57.0,4.0,4.2,-198,-6,0,-269,160,5,238.9872808456421,238.987380027771,238.99022364616394,239.00377011299133,239.1497459411621,239.1497459411621,239.1497459411621,239.1497459411621,239.1497459411621,239.1497459411621,239.1497459411621,244.96717262268066,2,5.9569361209869385,None,,,,,,,,,,,,,,,,,,40,4,2025-02-19_12h02.23.288,comp,2024.2.4,57.672372068464824,2025-02-19 12h02.36.793793 -0500,
26,26,0,filler_square,None,None,None,None,None,None,None,None,None,None,1,1.5940861701965332,None,,,,,0,0,0,0,0,26,26,209,244.98385953903198,,,,,,,,,,,,,,,,,,,,,,,,,,,,,,,,,,,,,,,,,,,,,,,,,,,,,,,,,,,,,,,,,,,,,,,,,,,,,,,,,,192.5731874402374,192.5731874402374,121.25046905618403,112.38606225212847,176.95879663640733,141.96107544756921,1.0,1.1,-728,270,-480,257,-257,259,244.96903944015503,244.9691207408905,244.97314763069153,244.98385953903198,245.13441157341003,245.13441157341003,245.13441157341003,245.13441157341003,245.13441157341003,245.13441157341003,245.13441157341003,246.5830955505371,1,1.5940861701965332,None,,,,,,,,,,,,,,,,,,40,4,2025-02-19_12h02.23.288,comp,2024.2.4,57.672372068464824,2025-02-19 12h02.36.793793 -0500,
27,27,0,catch,None,None,None,None,None,None,None,None,None,None,2,1.5520341396331787,None,,,,,0,0,0,0,0,27,27,128,246.60000085830688,,,,,,,,,,,,,,,,,,,,,,,,,,,,,,,,,,,,,,,,,,,,,,,,,,,,,,,,,,,,,,,,,,,,,,,,,,,,,,,,,,84,106,140,185,111,79,4.0,4.2,-242,0,0,-268,228,15,246.58502984046936,246.58510875701904,246.58822321891785,246.60000085830688,246.75351738929749,246.75351738929749,246.75351738929749,246.75351738929749,246.75351738929749,246.75351738929749,246.75351738929749,248.16896176338196,2,1.5520341396331787,None,,,,,,,,,,,,,,,,,,40,4,2025-02-19_12h02.23.288,comp,2024.2.4,57.672372068464824,2025-02-19 12h02.36.793793 -0500,
28,28,0,filler_random,None,None,None,None,None,None,None,None,None,None,3,2.1832284927368164,None,,,,,0,0,0,0,0,28,28,164,248.18508195877075,,,,,,,,,,,,,,,,,,,,,,,,,,,,,,,,,,,,,,,,,,,,,,,,,,,,,,,,,,,,,,,,,,,,,,,,,,,,,,,,,,165.75415908612285,73.77958440762977,71.60527674584279,138.59423058761598,193.38135027087884,131.89609806830282,2.2,2.22,-202,287,0,-266,231,-289,248.1708278656006,248.17094588279724,248.17444443702698,248.18508195877075,248.33456254005432,248.33456254005432,248.33456254005432,248.33456254005432,248.33456254005432,248.33456254005432,248.33456254005432,250.38602304458618,3,2.1832284927368164,None,,,,,,,,,,,,,,,,,,40,4,2025-02-19_12h02.23.288,comp,2024.2.4,57.672372068464824,2025-02-19 12h02.36.793793 -0500,
29,29,0,critical,wdh,20.0,4.0,lower,57.0,133.0,78.0,78.0,133.0,57.0,2,6.543272495269775,None,,,,,0,0,0,0,0,29,29,82,250.4020688533783,,,,,,,,,,,,,,,,,,,,,,,,,,,,,,,,,,,,,,,,,,,,,,,,,,,,,,,,,,,,,,,,,,,,,,,,,,,,,,,,,,57.0,133.0,78.0,78.0,133.0,57.0,4.0,4.1,-202,-281,0,12,164,-284,250.38773798942566,250.38782286643982,250.39130020141602,250.4020688533783,250.55289006233215,250.55289006233215,250.55289006233215,250.55289006233215,250.55289006233215,250.55289006233215,250.55289006233215,256.9517550468445,2,6.543272495269775,None,,,,,,,,,,,,,,,,,,40,4,2025-02-19_12h02.23.288,comp,2024.2.4,57.672372068464824,2025-02-19 12h02.36.793793 -0500,
30,30,0,filler_random,None,None,None,None,None,None,None,None,None,None,2,1.7679100036621094,None,,,,,0,0,0,0,0,30,30,131,256.9687430858612,,,,,,,,,,,,,,,,,,,,,,,,,,,,,,,,,,,,,,,,,,,,,,,,,,,,,,,,,,,,,,,,,,,,,,,,,,,,,,,,,,74.7447335965065,78.63480192385417,145.28363936177686,108.91934242397554,80.04754628847044,69.75331922720021,2.2,2.22,-190,277,0,-256,185,-290,256.9536793231964,256.9537603855133,256.9569993019104,256.9687430858612,257.107791185379,257.107791185379,257.107791185379,257.107791185379,257.107791185379,257.107791185379,257.107791185379,258.7426962852478,2,1.7679100036621094,None,,,,,,,,,,,,,,,,,,40,4,2025-02-19_12h02.23.288,comp,2024.2.4,57.672372068464824,2025-02-19 12h02.36.793793 -0500,
31,31,0,critical,hdw,35.0,1.0,upper,200.0,125.0,127.0,127.0,125.0,200.0,1,2.9131016731262207,None,,,,,0,0,0,0,0,31,31,109,258.75901103019714,,,,,,,,,,,,,,,,,,,,,,,,,,,,,,,,,,,,,,,,,,,,,,,,,,,,,,,,,,,,,,,,,,,,,,,,,,,,,,,,,,200.0,125.0,127.0,127.0,125.0,200.0,1.0,1.3,258,-277,480,-269,740,-251,258.744176864624,258.74425196647644,258.747052192688,258.75901103019714,258.9060537815094,258.9060537815094,258.9060537815094,258.9060537815094,258.9060537815094,258.9060537815094,258.9060537815094,261.6885361671448,1,2.9131016731262207,None,,,,,,,,,,,,,,,,,,40,4,2025-02-19_12h02.23.288,comp,2024.2.4,57.672372068464824,2025-02-19 12h02.36.793793 -0500,
32,32,0,critical,dhw,35.0,2.1,lower,70.0,70.0,133.0,57.0,57.0,133.0,2,5.182788372039795,None,,,,,0,0,0,0,0,32,32,0,261.70557284355164,,,,,,,,,,,,,,,,,,,,,,,,,,,,,,,,,,,,,,,,,,,,,,,,,,,,,,,,,,,,,,,,,,,,,,,,,,,,,,,,,,70.0,70.0,133.0,57.0,57.0,133.0,2.1,2.12,-160,-257,0,-251,191,273,261.6901443004608,261.69022035598755,261.69349551200867,261.70557284355164,261.85643339157104,261.85643339157104,261.85643339157104,261.85643339157104,261.85643339157104,261.85643339157104,261.85643339157104,266.90668392181396,2,5.182788372039795,None,,,,,,,,,,,,,,,,,,40,4,2025-02-19_12h02.23.288,comp,2024.2.4,57.672372068464824,2025-02-19 12h02.36.793793 -0500,
33,33,0,filler_square,None,None,None,None,None,None,None,None,None,None,3,0.972672700881958,None,,,,,0,0,0,0,0,33,33,179,266.923455953598,,,,,,,,,,,,,,,,,,,,,,,,,,,,,,,,,,,,,,,,,,,,,,,,,,,,,,,,,,,,,,,,,,,,,,,,,,,,,,,,,,119.0397047397569,112.30287004481438,94.14997691501014,101.42274888304786,182.25218613212456,182.25218613212456,1.0,1.1,-683,283,-480,280,-242,257,266.90867352485657,266.9087529182434,266.9120740890503,266.923455953598,267.0841705799103,267.0841705799103,267.0841705799103,267.0841705799103,267.0841705799103,267.0841705799103,267.0841705799103,267.89952182769775,3,0.972672700881958,None,,,,,,,,,,,,,,,,,,40,4,2025-02-19_12h02.23.288,comp,2024.2.4,57.672372068464824,2025-02-19 12h02.36.793793 -0500,
34,34,0,critical,hdw,20.0,1.0,lower,133.0,57.0,78.0,78.0,57.0,133.0,1,2.6057746410369873,None,,,,,0,0,0,0,0,34,34,114,267.91471672058105,,,,,,,,,,,,,,,,,,,,,,,,,,,,,,,,,,,,,,,,,,,,,,,,,,,,,,,,,,,,,,,,,,,,,,,,,,,,,,,,,,133.0,57.0,78.0,78.0,57.0,133.0,1.0,1.1,-644,252,-480,264,-278,286,267.9010798931122,267.9011580944061,267.9040069580078,267.91471672058105,268.0563373565674,268.0563373565674,268.0563373565674,268.0563373565674,268.0563373565674,268.0563373565674,268.0563373565674,270.5251090526581,1,2.6057746410369873,None,,,,,,,,,,,,,,,,,,40,4,2025-02-19_12h02.23.288,comp,2024.2.4,57.672372068464824,2025-02-19 12h02.36.793793 -0500,
35,35,0,filler_random,None,None,None,None,None,None,None,None,None,None,2,1.706528663635254,None,,,,,0,0,0,0,0,35,35,147,270.54164147377014,,,,,,,,,,,,,,,,,,,,,,,,,,,,,,,,,,,,,,,,,,,,,,,,,,,,,,,,,,,,,,,,,,,,,,,,,,,,,,,,,,150.77784281721415,122.76927284942438,138.30477096974477,184.1426973332484,78.2787167001233,124.07540278326474,4.0,4.1,-249,-289,0,-19,250,-257,270.526828289032,270.52690625190735,270.53038907051086,270.54164147377014,270.6952095031738,270.6952095031738,270.6952095031738,270.6952095031738,270.6952095031738,270.6952095031738,270.6952095031738,272.257360458374,2,1.706528663635254,None,,,,,,,,,,,,,,,,,,40,4,2025-02-19_12h02.23.288,comp,2024.2.4,57.672372068464824,2025-02-19 12h02.36.793793 -0500,
36,36,0,filler_square,None,None,None,None,None,None,None,None,None,None,3,1.022251844406128,None,,,,,0,0,0,0,0,36,36,181,272.2741525173187,,,,,,,,,,,,,,,,,,,,,,,,,,,,,,,,,,,,,,,,,,,,,,,,,,,,,,,,,,,,,,,,,,,,,,,,,,,,,,,,,,77.39491219274466,67.86295199235435,59.335150451170485,65.08644623475993,96.89806537777862,96.89806537777862,3.0,3.2,-162,-279,0,4,177,274,272.2593741416931,272.2594554424286,272.26267409324646,272.2741525173187,272.4246370792389,272.4246370792389,272.4246370792389,272.4246370792389,272.4246370792389,272.4246370792389,272.4246370792389,273.2985112667084,3,1.022251844406128,None,,,,,,,,,,,,,,,,,,40,4,2025-02-19_12h02.23.288,comp,2024.2.4,57.672372068464824,2025-02-19 12h02.36.793793 -0500,
37,37,0,critical,whd,35.0,4.0,upper,125.0,200.0,200.0,125.0,127.0,127.0,1,4.13473653793335,None,,,,,0,0,0,0,0,37,37,89,273.31344723701477,,,,,,,,,,,,,,,,,,,,,,,,,,,,,,,,,,,,,,,,,,,,,,,,,,,,,,,,,,,,,,,,,,,,,,,,,,,,,,,,,,125.0,200.0,200.0,125.0,127.0,127.0,4.0,4.1,-258,-284,0,-2,222,-274,273.3000156879425,273.3000907897949,273.30289125442505,273.31344723701477,273.46435809135437,273.46435809135437,273.46435809135437,273.46435809135437,273.46435809135437,273.46435809135437,273.46435809135437,277.4610261917114,1,4.13473653793335,None,,,,,,,,,,,,,,,,,,40,4,2025-02-19_12h02.23.288,comp,2024.2.4,57.672372068464824,2025-02-19 12h02.36.793793 -0500,
38,38,0,critical,hwd,20.0,2.1,upper,200.0,125.0,125.0,200.0,141.0,141.0,2,4.110051870346069,None,,,,,0,0,0,0,0,38,38,19,277.4823625087738,,,,,,,,,,,,,,,,,,,,,,,,,,,,,,,,,,,,,,,,,,,,,,,,,,,,,,,,,,,,,,,,,,,,,,,,,,,,,,,,,,200.0,125.0,125.0,200.0,141.0,141.0,2.1,2.12,-258,-286,0,-254,266,257,277.46260261535645,277.46269249916077,277.4660270214081,277.4823625087738,277.62715220451355,277.62715220451355,277.62715220451355,277.62715220451355,277.62715220451355,277.62715220451355,277.62715220451355,281.59444403648376,2,4.110051870346069,None,,,,,,,,,,,,,,,,,,40,4,2025-02-19_12h02.23.288,comp,2024.2.4,57.672372068464824,2025-02-19 12h02.36.793793 -0500,
39,39,0,critical,hwd,20.0,2.1,upper,200.0,125.0,125.0,200.0,141.0,141.0,1,3.2846484184265137,None,,,,,0,0,0,0,0,39,39,43,281.6112880706787,,,,,,,,,,,,,,,,,,,,,,,,,,,,,,,,,,,,,,,,,,,,,,,,,,,,,,,,,,,,,,,,,,,,,,,,,,,,,,,,,,200.0,125.0,125.0,200.0,141.0,141.0,2.1,2.11,-258,275,0,261,266,-265,281.59604144096375,281.5961174964905,281.5993058681488,281.6112880706787,281.76169061660767,281.76169061660767,281.76169061660767,281.76169061660767,281.76169061660767,281.76169061660767,281.76169061660767,284.913880109787,1,3.2846484184265137,None,,,,,,,,,,,,,,,,,,40,4,2025-02-19_12h02.23.288,comp,2024.2.4,57.672372068464824,2025-02-19 12h02.36.793793 -0500,
40,40,0,critical,hdw,20.0,3.0,lower,133.0,57.0,78.0,78.0,57.0,133.0,3,1.8267343044281006,None,,,,,0,0,0,0,0,40,40,116,284.9334831237793,,,,,,,,,,,,,,,,,,,,,,,,,,,,,,,,,,,,,,,,,,,,,,,,,,,,,,,,,,,,,,,,,,,,,,,,,,,,,,,,,,133.0,57.0,78.0,78.0,57.0,133.0,3.0,3.2,-164,-254,0,8,202,254,284.91543197631836,284.9155089855194,284.91888403892517,284.9334831237793,285.0845515727997,285.0845515727997,285.0845515727997,285.0845515727997,285.0845515727997,285.0845515727997,285.0845515727997,286.7643401622772,3,1.8267343044281006,None,,,,,,,,,,,,,,,,,,40,4,2025-02-19_12h02.23.288,comp,2024.2.4,57.672372068464824,2025-02-19 12h02.36.793793 -0500,
41,41,0,filler_random,None,None,None,None,None,None,None,None,None,None,2,0.89984130859375,None,,,,,0,0,0,0,0,41,41,150,286.780179977417,,,,,,,,,,,,,,,,,,,,,,,,,,,,,,,,,,,,,,,,,,,,,,,,,,,,,,,,,,,,,,,,,,,,,,,,,,,,,,,,,,135.20080029517732,111.97022184664009,157.80046360764237,195.84693989060693,68.32448884980958,77.90211657784371,2.2,2.21,-250,-254,0,265,233,274,286.7660732269287,286.7661552429199,286.7694528102875,286.780179977417,286.929979801178,286.929979801178,286.929979801178,286.929979801178,286.929979801178,286.929979801178,286.929979801178,287.69314980506897,2,0.89984130859375,None,,,,,,,,,,,,,,,,,,40,4,2025-02-19_12h02.23.288,comp,2024.2.4,57.672372068464824,2025-02-19 12h02.36.793793 -0500,
42,42,0,critical,wdh,35.0,2.1,upper,125.0,200.0,127.0,127.0,200.0,125.0,1,2.9162652492523193,None,,,,,0,0,0,0,0,42,42,9,287.7093493938446,,,,,,,,,,,,,,,,,,,,,,,,,,,,,,,,,,,,,,,,,,,,,,,,,,,,,,,,,,,,,,,,,,,,,,,,,,,,,,,,,,125.0,200.0,127.0,127.0,200.0,125.0,2.1,2.11,-260,278,0,260,222,-283,287.6948220729828,287.69489908218384,287.69814372062683,287.7093493938446,287.84715151786804,287.84715151786804,287.84715151786804,287.84715151786804,287.84715151786804,287.84715151786804,287.84715151786804,290.63087701797485,1,2.9162652492523193,None,,,,,,,,,,,,,,,,,,40,4,2025-02-19_12h02.23.288,comp,2024.2.4,57.672372068464824,2025-02-19 12h02.36.793793 -0500,
43,43,0,critical,hdw,35.0,2.1,upper,200.0,125.0,127.0,127.0,125.0,200.0,3,3.816983222961426,None,,,,,0,0,0,0,0,43,43,45,290.6472735404968,,,,,,,,,,,,,,,,,,,,,,,,,,,,,,,,,,,,,,,,,,,,,,,,,,,,,,,,,,,,,,,,,,,,,,,,,,,,,,,,,,200.0,125.0,127.0,127.0,125.0,200.0,2.1,2.11,-222,280,0,269,260,-280,290.6324951648712,290.6325931549072,290.635870218277,290.6472735404968,290.79457116127014,290.79457116127014,290.79457116127014,290.79457116127014,290.79457116127014,290.79457116127014,290.79457116127014,294.4702799320221,3,3.816983222961426,None,,,,,,,,,,,,,,,,,,40,4,2025-02-19_12h02.23.288,comp,2024.2.4,57.672372068464824,2025-02-19 12h02.36.793793 -0500,
44,44,0,critical,whd,35.0,2.1,lower,57.0,133.0,133.0,57.0,70.0,70.0,2,2.511549949645996,None,,,,,0,0,0,0,0,44,44,12,294.48850107192993,,,,,,,,,,,,,,,,,,,,,,,,,,,,,,,,,,,,,,,,,,,,,,,,,,,,,,,,,,,,,,,,,,,,,,,,,,,,,,,,,,57.0,133.0,133.0,57.0,70.0,70.0,2.1,2.12,-191,-260,0,-258,160,258,294.4720323085785,294.4721517562866,294.47537541389465,294.48850107192993,294.63297510147095,294.63297510147095,294.63297510147095,294.63297510147095,294.63297510147095,294.63297510147095,294.63297510147095,297.01372241973877,2,2.511549949645996,None,,,,,,,,,,,,,,,,,,40,4,2025-02-19_12h02.23.288,comp,2024.2.4,57.672372068464824,2025-02-19 12h02.36.793793 -0500,
45,45,0,filler_square,None,None,None,None,None,None,None,None,None,None,2,2.458085060119629,None,,,,,0,0,0,0,0,45,45,182,297.0300438404083,,,,,,,,,,,,,,,,,,,,,,,,,,,,,,,,,,,,,,,,,,,,,,,,,,,,,,,,,,,,,,,,,,,,,,,,,,,,,,,,,,63.51610278754267,72.79279971760774,111.16955897769472,111.16955897769472,109.91375057393327,80.53373227203701,4.0,4.2,-188,4,0,-269,192,-16,297.01555609703064,297.0156352519989,297.0184586048126,297.0300438404083,297.1807904243469,297.1807904243469,297.1807904243469,297.1807904243469,297.1807904243469,297.1807904243469,297.1807904243469,299.5010151863098,2,2.458085060119629,None,,,,,,,,,,,,,,,,,,40,4,2025-02-19_12h02.23.288,comp,2024.2.4,57.672372068464824,2025-02-19 12h02.36.793793 -0500,
46,46,0,filler_square,None,None,None,None,None,None,None,None,None,None,3,1.6436820030212402,None,,,,,0,0,0,0,0,46,46,203,299.5171639919281,,,,,,,,,,,,,,,,,,,,,,,,,,,,,,,,,,,,,,,,,,,,,,,,,,,,,,,,,,,,,,,,,,,,,,,,,,,,,,,,,,119.11742694090992,117.4867231452329,103.30708505144872,150.53365194819398,159.37633484636586,159.37633484636586,1.0,1.1,-710,279,-480,289,-229,260,299.50282979011536,299.50290870666504,299.5060725212097,299.5171639919281,299.66552925109863,299.66552925109863,299.66552925109863,299.66552925109863,299.66552925109863,299.66552925109863,299.66552925109863,301.1672706604004,3,1.6436820030212402,None,,,,,,,,,,,,,,,,,,40,4,2025-02-19_12h02.23.288,comp,2024.2.4,57.672372068464824,2025-02-19 12h02.36.793793 -0500,
47,47,0,filler_square,None,None,None,None,None,None,None,None,None,None,3,2.5606753826141357,None,,,,,0,0,0,0,0,47,47,180,301.18348121643066,,,,,,,,,,,,,,,,,,,,,,,,,,,,,,,,,,,,,,,,,,,,,,,,,,,,,,,,,,,,,,,,,,,,,,,,,,,,,,,,,,69.73550011501291,107.48407513404557,122.27979447434917,127.55437804324922,128.42483039843546,128.42483039843546,2.1,2.11,-214,290,0,273,224,-252,301.16916155815125,301.1692407131195,301.17222261428833,301.18348121643066,301.337415933609,301.337415933609,301.337415933609,301.337415933609,301.337415933609,301.337415933609,301.337415933609,303.76212549209595,3,2.5606753826141357,None,,,,,,,,,,,,,,,,,,40,4,2025-02-19_12h02.23.288,comp,2024.2.4,57.672372068464824,2025-02-19 12h02.36.793793 -0500,
48,48,0,filler_random,None,None,None,None,None,None,None,None,None,None,2,1.5488495826721191,None,,,,,0,0,0,0,0,48,48,134,303.78002667427063,,,,,,,,,,,,,,,,,,,,,,,,,,,,,,,,,,,,,,,,,,,,,,,,,,,,,,,,,,,,,,,,,,,,,,,,,,,,,,,,,,96.8216232576572,84.72216325654679,78.71159576155274,90.45656459949294,65.81384185052879,98.50385509771658,2.2,2.22,-184,265,0,-272,190,-260,303.76387429237366,303.7639491558075,303.7668125629425,303.78002667427063,303.91773414611816,303.91773414611816,303.91773414611816,303.91773414611816,303.91773414611816,303.91773414611816,303.91773414611816,305.33639430999756,2,1.5488495826721191,None,,,,,,,,,,,,,,,,,,40,4,2025-02-19_12h02.23.288,comp,2024.2.4,57.672372068464824,2025-02-19 12h02.36.793793 -0500,
49,49,0,filler_square,None,None,None,None,None,None,None,None,None,None,2,2.3752517700195312,None,,,,,0,0,0,0,0,49,49,170,305.3532774448395,,,,,,,,,,,,,,,,,,,,,,,,,,,,,,,,,,,,,,,,,,,,,,,,,,,,,,,,,,,,,,,,,,,,,,,,,,,,,,,,,,59.72707251108527,63.54935529614433,81.53324170449315,81.53324170449315,72.26057049505371,80.3800202367441,4.0,4.1,-169,-268,0,4,177,-263,305.33822798728943,305.3383820056915,305.342396736145,305.3532774448395,305.50160336494446,305.50160336494446,305.50160336494446,305.50160336494446,305.50160336494446,305.50160336494446,305.50160336494446,307.7377836704254,2,2.3752517700195312,None,,,,,,,,,,,,,,,,,,40,4,2025-02-19_12h02.23.288,comp,2024.2.4,57.672372068464824,2025-02-19 12h02.36.793793 -0500,
50,50,0,critical,dhw,35.0,2.1,upper,127.0,127.0,200.0,125.0,125.0,200.0,2,16.719122171401978,None,,,,,0,0,0,0,0,50,50,1,307.7536017894745,,,,,,,,,,,,,,,,,,,,,,,,,,,,,,,,,,,,,,,,,,,,,,,,,,,,,,,,,,,,,,,,,,,,,,,,,,,,,,,,,,127.0,127.0,200.0,125.0,125.0,200.0,2.1,2.12,-222,-262,0,-263,258,282,307.7392747402191,307.7393763065338,307.74281549453735,307.7536017894745,307.9027464389801,307.9027464389801,307.9027464389801,307.9027464389801,307.9027464389801,307.9027464389801,307.9027464389801,324.4799394607544,2,16.719122171401978,None,,,,,,,,,,,,,,,,,,40,4,2025-02-19_12h02.23.288,comp,2024.2.4,57.672372068464824,2025-02-19 12h02.36.793793 -0500,
51,51,0,critical,whd,20.0,2.1,lower,57.0,133.0,133.0,57.0,78.0,78.0,1,5.087613105773926,None,,,,,0,0,0,0,0,51,51,14,324.4964072704315,,,,,,,,,,,,,,,,,,,,,,,,,,,,,,,,,,,,,,,,,,,,,,,,,,,,,,,,,,,,,,,,,,,,,,,,,,,,,,,,,,57.0,133.0,133.0,57.0,78.0,78.0,2.1,2.11,-191,286,0,272,164,-270,324.4814736843109,324.4815516471863,324.4854850769043,324.4964072704315,324.6412672996521,324.6412672996521,324.6412672996521,324.6412672996521,324.6412672996521,324.6412672996521,324.6412672996521,329.59376764297485,1,5.087613105773926,None,,,,,,,,,,,,,,,,,,40,4,2025-02-19_12h02.23.288,comp,2024.2.4,57.672372068464824,2025-02-19 12h02.36.793793 -0500,
52,52,0,critical,dhw,20.0,4.0,lower,78.0,78.0,133.0,57.0,57.0,133.0,3,1.9742214679718018,None,,,,,0,0,0,0,0,52,52,58,329.6104938983917,,,,,,,,,,,,,,,,,,,,,,,,,,,,,,,,,,,,,,,,,,,,,,,,,,,,,,,,,,,,,,,,,,,,,,,,,,,,,,,,,,78.0,78.0,133.0,57.0,57.0,133.0,4.0,4.2,-164,10,0,-290,191,-16,329.5953485965729,329.5954306125641,329.59882640838623,329.6104938983917,329.75826048851013,329.75826048851013,329.75826048851013,329.75826048851013,329.75826048851013,329.75826048851013,329.75826048851013,331.59336733818054,3,1.9742214679718018,None,,,,,,,,,,,,,,,,,,40,4,2025-02-19_12h02.23.288,comp,2024.2.4,57.672372068464824,2025-02-19 12h02.36.793793 -0500,
53,53,0,filler_square,None,None,None,None,None,None,None,None,None,None,2,1.8288862705230713,None,,,,,0,0,0,0,0,53,53,188,331.6092782020569,,,,,,,,,,,,,,,,,,,,,,,,,,,,,,,,,,,,,,,,,,,,,,,,,,,,,,,,,,,,,,,,,,,,,,,,,,,,,,,,,,79.48563914716638,79.48563914716638,77.34997561009779,74.90735615026941,64.82301550164979,64.60975433303406,1.0,1.1,-653,270,-480,261,-314,274,331.59509539604187,331.59517455101013,331.5982940196991,331.6092782020569,331.75135493278503,331.75135493278503,331.75135493278503,331.75135493278503,331.75135493278503,331.75135493278503,331.75135493278503,333.4512529373169,2,1.8288862705230713,None,,,,,,,,,,,,,,,,,,40,4,2025-02-19_12h02.23.288,comp,2024.2.4,57.672372068464824,2025-02-19 12h02.36.793793 -0500,
54,54,0,filler_random,None,None,None,None,None,None,None,None,None,None,2,2.0766520500183105,None,,,,,0,0,0,0,0,54,54,152,333.4679305553436,,,,,,,,,,,,,,,,,,,,,,,,,,,,,,,,,,,,,,,,,,,,,,,,,,,,,,,,,,,,,,,,,,,,,,,,,,,,,,,,,,118.44799780761306,160.36521121530185,130.48394486300032,137.32146778429959,97.74275390740397,145.22672775913088,3.0,3.2,-245,-282,0,4,237,265,333.4532608985901,333.45340299606323,333.4567070007324,333.4679305553436,333.60813879966736,333.60813879966736,333.60813879966736,333.60813879966736,333.60813879966736,333.60813879966736,333.60813879966736,335.55150294303894,2,2.0766520500183105,None,,,,,,,,,,,,,,,,,,40,4,2025-02-19_12h02.23.288,comp,2024.2.4,57.672372068464824,2025-02-19 12h02.36.793793 -0500,
55,55,0,filler_square,None,None,None,None,None,None,None,None,None,None,2,1.3881287574768066,None,,,,,0,0,0,0,0,55,55,176,335.57202219963074,,,,,,,,,,,,,,,,,,,,,,,,,,,,,,,,,,,,,,,,,,,,,,,,,,,,,,,,,,,,,,,,,,,,,,,,,,,,,,,,,,91.13297590724231,99.8685497230038,118.35901097380253,118.35901097380253,100.71003930938106,94.01137274898794,3.0,3.1,-205,260,0,-15,202,-267,335.55335307121277,335.55343890190125,335.55629301071167,335.57202219963074,335.71329498291016,335.71329498291016,335.71329498291016,335.71329498291016,335.71329498291016,335.71329498291016,335.71329498291016,336.96298027038574,2,1.3881287574768066,None,,,,,,,,,,,,,,,,,,40,4,2025-02-19_12h02.23.288,comp,2024.2.4,57.672372068464824,2025-02-19 12h02.36.793793 -0500,
56,56,0,catch,None,None,None,None,None,None,None,None,None,None,2,0.9714958667755127,None,,,,,0,0,0,0,0,56,56,126,336.9814643859863,,,,,,,,,,,,,,,,,,,,,,,,,,,,,,,,,,,,,,,,,,,,,,,,,,,,,,,,,,,,,,,,,,,,,,,,,,,,,,,,,,107,83,166,159,97,93,3.0,3.2,-217,-277,0,-13,222,265,336.9651291370392,336.96521043777466,336.9683632850647,336.9814643859863,337.1294376850128,337.1294376850128,337.1294376850128,337.1294376850128,337.1294376850128,337.1294376850128,337.1294376850128,337.9601585865021,2,0.9714958667755127,None,,,,,,,,,,,,,,,,,,40,4,2025-02-19_12h02.23.288,comp,2024.2.4,57.672372068464824,2025-02-19 12h02.36.793793 -0500,
57,57,0,filler_random,None,None,None,None,None,None,None,None,None,None,3,1.6798253059387207,None,,,,,0,0,0,0,0,57,57,156,337.9763960838318,,,,,,,,,,,,,,,,,,,,,,,,,,,,,,,,,,,,,,,,,,,,,,,,,,,,,,,,,,,,,,,,,,,,,,,,,,,,,,,,,,131.5396174314105,105.52905342998201,198.9174364213575,73.95973493474828,148.81660710471746,135.76255875446375,3.0,3.1,-186,285,0,9,201,-277,337.9618082046509,337.96188616752625,337.9646906852722,337.9763960838318,338.11199736595154,338.11199736595154,338.11199736595154,338.11199736595154,338.11199736595154,338.11199736595154,338.11199736595154,339.6660671234131,3,1.6798253059387207,None,,,,,,,,,,,,,,,,,,40,4,2025-02-19_12h02.23.288,comp,2024.2.4,57.672372068464824,2025-02-19 12h02.36.793793 -0500,
58,58,0,critical,wdh,35.0,2.1,upper,125.0,200.0,127.0,127.0,200.0,125.0,1,1.40647554397583,None,,,,,0,0,0,0,0,58,58,33,339.6817488670349,,,,,,,,,,,,,,,,,,,,,,,,,,,,,,,,,,,,,,,,,,,,,,,,,,,,,,,,,,,,,,,,,,,,,,,,,,,,,,,,,,125.0,200.0,127.0,127.0,200.0,125.0,2.1,2.12,-260,-266,0,-275,222,250,339.6682369709015,339.6683506965637,339.6711869239807,339.6817488670349,339.82814478874207,339.82814478874207,339.82814478874207,339.82814478874207,339.82814478874207,339.82814478874207,339.82814478874207,341.1027569770813,1,1.40647554397583,None,,,,,,,,,,,,,,,,,,40,4,2025-02-19_12h02.23.288,comp,2024.2.4,57.672372068464824,2025-02-19 12h02.36.793793 -0500,
59,59,0,critical,dwh,35.0,1.0,upper,127.0,127.0,125.0,200.0,200.0,125.0,3,2.2558910846710205,None,,,,,0,0,0,0,0,59,59,61,341.12124490737915,,,,,,,,,,,,,,,,,,,,,,,,,,,,,,,,,,,,,,,,,,,,,,,,,,,,,,,,,,,,,,,,,,,,,,,,,,,,,,,,,,127.0,127.0,125.0,200.0,200.0,125.0,1.0,1.1,-740,260,-480,284,-222,289,341.10439014434814,341.1045126914978,341.10794949531555,341.12124490737915,341.2640528678894,341.2640528678894,341.2640528678894,341.2640528678894,341.2640528678894,341.2640528678894,341.2640528678894,343.38070344924927,3,2.2558910846710205,None,,,,,,,,,,,,,,,,,,40,4,2025-02-19_12h02.23.288,comp,2024.2.4,57.672372068464824,2025-02-19 12h02.36.793793 -0500,
60,60,0,filler_random,None,None,None,None,None,None,None,None,None,None,3,1.5690701007843018,None,,,,,0,0,0,0,0,60,60,162,343.3992648124695,,,,,,,,,,,,,,,,,,,,,,,,,,,,,,,,,,,,,,,,,,,,,,,,,,,,,,,,,,,,,,,,,,,,,,,,,,,,,,,,,,79.5674726049716,106.48578975130206,140.6735594583575,100.6931041005034,104.90509648619236,198.84985309851012,2.2,2.22,-200,284,0,-276,246,-258,343.3825340270996,343.3826549053192,343.3860025405884,343.3992648124695,343.54896879196167,343.54896879196167,343.54896879196167,343.54896879196167,343.54896879196167,343.54896879196167,343.54896879196167,344.9706087112427,3,1.5690701007843018,None,,,,,,,,,,,,,,,,,,40,4,2025-02-19_12h02.23.288,comp,2024.2.4,57.672372068464824,2025-02-19 12h02.36.793793 -0500,
61,61,0,critical,dhw,20.0,3.0,upper,141.0,141.0,200.0,125.0,125.0,200.0,2,3.979471445083618,None,,,,,0,0,0,0,0,61,61,57,344.98865008354187,,,,,,,,,,,,,,,,,,,,,,,,,,,,,,,,,,,,,,,,,,,,,,,,,,,,,,,,,,,,,,,,,,,,,,,,,,,,,,,,,,141.0,141.0,200.0,125.0,125.0,200.0,3.0,3.2,-229,-264,0,9,258,274,344.9721429347992,344.9722218513489,344.9750711917877,344.98865008354187,345.1298494338989,345.1298494338989,345.1298494338989,345.1298494338989,345.1298494338989,345.1298494338989,345.1298494338989,348.98248624801636,2,3.979471445083618,None,,,,,,,,,,,,,,,,,,40,4,2025-02-19_12h02.23.288,comp,2024.2.4,57.672372068464824,2025-02-19 12h02.36.793793 -0500,
62,62,0,critical,dwh,35.0,2.1,lower,70.0,70.0,57.0,133.0,133.0,57.0,3,1.2977144718170166,None,,,,,0,0,0,0,0,62,62,28,348.9984130859375,,,,,,,,,,,,,,,,,,,,,,,,,,,,,,,,,,,,,,,,,,,,,,,,,,,,,,,,,,,,,,,,,,,,,,,,,,,,,,,,,,70.0,70.0,57.0,133.0,133.0,57.0,2.1,2.11,-198,290,0,260,191,-287,348.9840021133423,348.9840798377991,348.98719024658203,348.9984130859375,349.1477806568146,349.1477806568146,349.1477806568146,349.1477806568146,349.1477806568146,349.1477806568146,349.1477806568146,350.3000955581665,3,1.2977144718170166,None,,,,,,,,,,,,,,,,,,40,4,2025-02-19_12h02.23.288,comp,2024.2.4,57.672372068464824,2025-02-19 12h02.36.793793 -0500,
63,63,0,critical,dhw,20.0,2.1,lower,78.0,78.0,133.0,57.0,57.0,133.0,3,1.0363342761993408,None,,,,,0,0,0,0,0,63,63,26,350.3157660961151,,,,,,,,,,,,,,,,,,,,,,,,,,,,,,,,,,,,,,,,,,,,,,,,,,,,,,,,,,,,,,,,,,,,,,,,,,,,,,,,,,78.0,78.0,133.0,57.0,57.0,133.0,2.1,2.11,-164,279,0,252,191,-284,350.3016266822815,350.30170464515686,350.3051748275757,350.3157660961151,350.4560194015503,350.4560194015503,350.4560194015503,350.4560194015503,350.4560194015503,350.4560194015503,350.4560194015503,351.3672893047333,3,1.0363342761993408,None,,,,,,,,,,,,,,,,,,40,4,2025-02-19_12h02.23.288,comp,2024.2.4,57.672372068464824,2025-02-19 12h02.36.793793 -0500,
64,64,0,critical,wdh,35.0,4.0,upper,125.0,200.0,127.0,127.0,200.0,125.0,1,1.5533528327941895,None,,,,,0,0,0,0,0,64,64,77,351.38305044174194,,,,,,,,,,,,,,,,,,,,,,,,,,,,,,,,,,,,,,,,,,,,,,,,,,,,,,,,,,,,,,,,,,,,,,,,,,,,,,,,,,125.0,200.0,127.0,127.0,200.0,125.0,4.0,4.2,-260,7,0,-250,222,1,351.36881041526794,351.36888670921326,351.3723464012146,351.38305044174194,351.5330901145935,351.5330901145935,351.5330901145935,351.5330901145935,351.5330901145935,351.5330901145935,351.5330901145935,352.95092368125916,1,1.5533528327941895,None,,,,,,,,,,,,,,,,,,40,4,2025-02-19_12h02.23.288,comp,2024.2.4,57.672372068464824,2025-02-19 12h02.36.793793 -0500,
65,65,0,filler_square,None,None,None,None,None,None,None,None,None,None,3,1.3782525062561035,None,,,,,0,0,0,0,0,65,65,174,352.9665138721466,,,,,,,,,,,,,,,,,,,,,,,,,,,,,,,,,,,,,,,,,,,,,,,,,,,,,,,,,,,,,,,,,,,,,,,,,,,,,,,,,,83.7370820678988,59.040812628898436,63.57903557001731,81.63501685180779,86.33399189939288,86.33399189939288,3.0,3.2,-166,-266,0,8,180,274,352.9527759552002,352.9528522491455,352.9562346935272,352.9665138721466,353.11724519729614,353.11724519729614,353.11724519729614,353.11724519729614,353.11724519729614,353.11724519729614,353.11724519729614,354.35147190093994,3,1.3782525062561035,None,,,,,,,,,,,,,,,,,,40,4,2025-02-19_12h02.23.288,comp,2024.2.4,57.672372068464824,2025-02-19 12h02.36.793793 -0500,
66,66,0,critical,whd,20.0,1.0,lower,57.0,133.0,133.0,57.0,78.0,78.0,2,2.705198049545288,None,,,,,0,0,0,0,0,66,66,90,354.3670058250427,,,,,,,,,,,,,,,,,,,,,,,,,,,,,,,,,,,,,,,,,,,,,,,,,,,,,,,,,,,,,,,,,,,,,,,,,,,,,,,,,,57.0,133.0,133.0,57.0,78.0,78.0,1.0,1.1,-671,256,-480,255,-316,276,354.3530020713806,354.3530831336975,354.35623931884766,354.3670058250427,354.51495337486267,354.51495337486267,354.51495337486267,354.51495337486267,354.51495337486267,354.51495337486267,354.51495337486267,357.0852942466736,2,2.705198049545288,None,,,,,,,,,,,,,,,,,,40,4,2025-02-19_12h02.23.288,comp,2024.2.4,57.672372068464824,2025-02-19 12h02.36.793793 -0500,
67,67,0,critical,dhw,20.0,2.1,lower,78.0,78.0,133.0,57.0,57.0,133.0,2,2.6273677349090576,None,,,,,0,0,0,0,0,67,67,2,357.1013090610504,,,,,,,,,,,,,,,,,,,,,,,,,,,,,,,,,,,,,,,,,,,,,,,,,,,,,,,,,,,,,,,,,,,,,,,,,,,,,,,,,,78.0,78.0,133.0,57.0,57.0,133.0,2.1,2.12,-164,-276,0,-256,191,285,357.08680987358093,357.0868844985962,357.08982968330383,357.1013090610504,357.2568199634552,357.2568199634552,357.2568199634552,357.2568199634552,357.2568199634552,357.2568199634552,357.2568199634552,359.7374346256256,2,2.6273677349090576,None,,,,,,,,,,,,,,,,,,40,4,2025-02-19_12h02.23.288,comp,2024.2.4,57.672372068464824,2025-02-19 12h02.36.793793 -0500,
68,68,0,filler_square,None,None,None,None,None,None,None,None,None,None,3,1.2303767204284668,None,,,,,0,0,0,0,0,68,68,189,359.75391364097595,,,,,,,,,,,,,,,,,,,,,,,,,,,,,,,,,,,,,,,,,,,,,,,,,,,,,,,,,,,,,,,,,,,,,,,,,,,,,,,,,,102.92481673623422,69.59465668432688,149.88717607813783,118.54992523487005,164.07068460588917,164.07068460588917,3.0,3.1,-190,272,0,6,237,-289,359.73915576934814,359.7392375469208,359.7431597709656,359.75391364097595,359.90642285346985,359.90642285346985,359.90642285346985,359.90642285346985,359.90642285346985,359.90642285346985,359.90642285346985,361.002916097641,3,1.2303767204284668,None,,,,,,,,,,,,,,,,,,40,4,2025-02-19_12h02.23.288,comp,2024.2.4,57.672372068464824,2025-02-19 12h02.36.793793 -0500,
69,69,0,critical,hdw,35.0,3.0,upper,200.0,125.0,127.0,127.0,125.0,200.0,3,1.979905605316162,None,,,,,0,0,0,0,0,69,69,111,361.02078080177307,,,,,,,,,,,,,,,,,,,,,,,,,,,,,,,,,,,,,,,,,,,,,,,,,,,,,,,,,,,,,,,,,,,,,,,,,,,,,,,,,,200.0,125.0,127.0,127.0,125.0,200.0,3.0,3.2,-222,-255,0,16,260,262,361.0045266151428,361.0046031475067,361.00763988494873,361.02078080177307,361.1747233867645,361.1747233867645,361.1747233867645,361.1747233867645,361.1747233867645,361.1747233867645,361.1747233867645,363.00274324417114,3,1.979905605316162,None,,,,,,,,,,,,,,,,,,40,4,2025-02-19_12h02.23.288,comp,2024.2.4,57.672372068464824,2025-02-19 12h02.36.793793 -0500,
70,70,0,critical,wdh,20.0,2.1,upper,125.0,200.0,141.0,141.0,200.0,125.0,1,5.317772150039673,None,,,,,0,0,0,0,0,70,70,35,363.01923751831055,,,,,,,,,,,,,,,,,,,,,,,,,,,,,,,,,,,,,,,,,,,,,,,,,,,,,,,,,,,,,,,,,,,,,,,,,,,,,,,,,,125.0,200.0,141.0,141.0,200.0,125.0,2.1,2.11,-266,284,0,259,229,-264,363.00443029403687,363.00451612472534,363.0076415538788,363.01923751831055,363.17290568351746,363.17290568351746,363.17290568351746,363.17290568351746,363.17290568351746,363.17290568351746,363.17290568351746,368.3452625274658,1,5.317772150039673,None,,,,,,,,,,,,,,,,,,40,4,2025-02-19_12h02.23.288,comp,2024.2.4,57.672372068464824,2025-02-19 12h02.36.793793 -0500,
71,71,0,filler_square,None,None,None,None,None,None,None,None,None,None,1,1.7943286895751953,None,,,,,0,0,0,0,0,71,71,191,368.3657376766205,,,,,,,,,,,,,,,,,,,,,,,,,,,,,,,,,,,,,,,,,,,,,,,,,,,,,,,,,,,,,,,,,,,,,,,,,,,,,,,,,,165.2957418558174,165.2957418558174,144.43207826664235,123.7034602333777,138.58896184459863,125.65707470916644,2.2,2.22,-240,262,0,-251,221,-288,368.3471009731293,368.3471794128418,368.35000944137573,368.3657376766205,368.5065574645996,368.5065574645996,368.5065574645996,368.5065574645996,368.5065574645996,368.5065574645996,368.5065574645996,370.17247796058655,1,1.7943286895751953,None,,,,,,,,,,,,,,,,,,40,4,2025-02-19_12h02.23.288,comp,2024.2.4,57.672372068464824,2025-02-19 12h02.36.793793 -0500,
72,72,0,critical,whd,35.0,2.1,upper,125.0,200.0,200.0,125.0,127.0,127.0,1,8.739837169647217,None,,,,,0,0,0,0,0,72,72,37,370.18845796585083,,,,,,,,,,,,,,,,,,,,,,,,,,,,,,,,,,,,,,,,,,,,,,,,,,,,,,,,,,,,,,,,,,,,,,,,,,,,,,,,,,125.0,200.0,200.0,125.0,127.0,127.0,2.1,2.12,-258,-273,0,-281,222,263,370.1739778518677,370.17405557632446,370.17715787887573,370.18845796585083,370.325204372406,370.325204372406,370.325204372406,370.325204372406,370.325204372406,370.325204372406,370.325204372406,378.94292879104614,1,8.739837169647217,None,,,,,,,,,,,,,,,,,,40,4,2025-02-19_12h02.23.288,comp,2024.2.4,57.672372068464824,2025-02-19 12h02.36.793793 -0500,
73,73,0,critical,hwd,35.0,2.1,upper,200.0,125.0,125.0,200.0,127.0,127.0,1,1.8334283828735352,None,,,,,0,0,0,0,0,73,73,41,378.958820104599,,,,,,,,,,,,,,,,,,,,,,,,,,,,,,,,,,,,,,,,,,,,,,,,,,,,,,,,,,,,,,,,,,,,,,,,,,,,,,,,,,200.0,125.0,125.0,200.0,127.0,127.0,2.1,2.12,-258,-256,0,-272,260,269,378.94439935684204,378.94449830055237,378.9484703540802,378.958820104599,379.11200428009033,379.11200428009033,379.11200428009033,379.11200428009033,379.11200428009033,379.11200428009033,379.11200428009033,380.80900526046753,1,1.8334283828735352,None,,,,,,,,,,,,,,,,,,40,4,2025-02-19_12h02.23.288,comp,2024.2.4,57.672372068464824,2025-02-19 12h02.36.793793 -0500,
74,74,0,filler_square,None,None,None,None,None,None,None,None,None,None,2,1.0237839221954346,None,,,,,0,0,0,0,0,74,74,171,380.82564520835876,,,,,,,,,,,,,,,,,,,,,,,,,,,,,,,,,,,,,,,,,,,,,,,,,,,,,,,,,,,,,,,,,,,,,,,,,,,,,,,,,,61.5356661418255,84.01697512010001,140.02143896487826,140.02143896487826,100.56380734121089,100.67748707977177,2.1,2.12,-208,-269,0,-277,216,278,380.81094431877136,380.81106424331665,380.8144860267639,380.82564520835876,380.97630071640015,380.97630071640015,380.97630071640015,380.97630071640015,380.97630071640015,380.97630071640015,380.97630071640015,381.8603732585907,2,1.0237839221954346,None,,,,,,,,,,,,,,,,,,40,4,2025-02-19_12h02.23.288,comp,2024.2.4,57.672372068464824,2025-02-19 12h02.36.793793 -0500,
75,75,0,filler_random,None,None,None,None,None,None,None,None,None,None,2,0.7960712909698486,None,,,,,0,0,0,0,0,75,75,157,381.87644815444946,,,,,,,,,,,,,,,,,,,,,,,,,,,,,,,,,,,,,,,,,,,,,,,,,,,,,,,,,,,,,,,,,,,,,,,,,,,,,,,,,,105.13386460449303,83.83150577129925,148.3965299267959,133.93705426230514,137.9415857029976,88.21873287092008,2.1,2.12,-205,-254,0,-278,207,272,381.8621690273285,381.86224937438965,381.8656075000763,381.87644815444946,382.023814201355,382.023814201355,382.023814201355,382.023814201355,382.023814201355,382.023814201355,382.023814201355,382.6770601272583,2,0.7960712909698486,None,,,,,,,,,,,,,,,,,,40,4,2025-02-19_12h02.23.288,comp,2024.2.4,57.672372068464824,2025-02-19 12h02.36.793793 -0500,
76,76,0,filler_random,None,None,None,None,None,None,None,None,None,None,2,0.987297773361206,None,,,,,0,0,0,0,0,76,76,155,382.69321513175964,,,,,,,,,,,,,,,,,,,,,,,,,,,,,,,,,,,,,,,,,,,,,,,,,,,,,,,,,,,,,,,,,,,,,,,,,,,,,,,,,,66.72841990967147,62.58943032114927,198.43865596752605,185.26110299635292,80.39774396573961,100.92775324673016,1.0,1.1,-700,257,-480,264,-241,278,382.67899346351624,382.6790735721588,382.6824722290039,382.69321513175964,382.8427128791809,382.8427128791809,382.8427128791809,382.8427128791809,382.8427128791809,382.8427128791809,382.8427128791809,383.6940019130707,2,0.987297773361206,None,,,,,,,,,,,,,,,,,,40,4,2025-02-19_12h02.23.288,comp,2024.2.4,57.672372068464824,2025-02-19 12h02.36.793793 -0500,
77,77,0,critical,dwh,35.0,2.1,upper,127.0,127.0,125.0,200.0,200.0,125.0,2,4.315474033355713,None,,,,,0,0,0,0,0,77,77,29,383.7094130516052,,,,,,,,,,,,,,,,,,,,,,,,,,,,,,,,,,,,,,,,,,,,,,,,,,,,,,,,,,,,,,,,,,,,,,,,,,,,,,,,,,127.0,127.0,125.0,200.0,200.0,125.0,2.1,2.12,-260,-260,0,-264,258,290,383.6956219673157,383.69569969177246,383.69914960861206,383.7094130516052,383.8650710582733,383.8650710582733,383.8650710582733,383.8650710582733,383.8650710582733,383.8650710582733,383.8650710582733,388.0274693965912,2,4.315474033355713,None,,,,,,,,,,,,,,,,,,40,4,2025-02-19_12h02.23.288,comp,2024.2.4,57.672372068464824,2025-02-19 12h02.36.793793 -0500,
78,78,0,filler_square,None,None,None,None,None,None,None,None,None,None,2,2.47301983833313,None,,,,,0,0,0,0,0,78,78,175,388.04806327819824,,,,,,,,,,,,,,,,,,,,,,,,,,,,,,,,,,,,,,,,,,,,,,,,,,,,,,,,,,,,,,,,,,,,,,,,,,,,,,,,,,112.59194870140252,142.95617084803462,144.3930894980658,144.3930894980658,67.39245489463949,75.25785725116297,4.0,4.1,-240,-283,0,-13,206,-286,388.0292956829071,388.0294077396393,388.03291869163513,388.04806327819824,388.18084144592285,388.18084144592285,388.18084144592285,388.18084144592285,388.18084144592285,388.18084144592285,388.18084144592285,390.5262961387634,2,2.47301983833313,None,,,,,,,,,,,,,,,,,,40,4,2025-02-19_12h02.23.288,comp,2024.2.4,57.672372068464824,2025-02-19 12h02.36.793793 -0500,
79,79,0,critical,hwd,20.0,2.1,lower,133.0,57.0,57.0,133.0,78.0,78.0,1,4.129271984100342,None,,,,,0,0,0,0,0,79,79,42,390.54293751716614,,,,,,,,,,,,,,,,,,,,,,,,,,,,,,,,,,,,,,,,,,,,,,,,,,,,,,,,,,,,,,,,,,,,,,,,,,,,,,,,,,133.0,57.0,57.0,133.0,78.0,78.0,2.1,2.12,-191,-270,0,-251,202,277,390.52784180641174,390.5279188156128,390.53110575675964,390.54293751716614,390.6975543498993,390.6975543498993,390.6975543498993,390.6975543498993,390.6975543498993,390.6975543498993,390.6975543498993,394.68985652923584,1,4.129271984100342,None,,,,,,,,,,,,,,,,,,40,4,2025-02-19_12h02.23.288,comp,2024.2.4,57.672372068464824,2025-02-19 12h02.36.793793 -0500,
80,80,0,critical,whd,20.0,2.1,upper,125.0,200.0,200.0,125.0,141.0,141.0,1,7.501173257827759,None,,,,,0,0,0,0,0,80,80,15,394.7069501876831,,,,,,,,,,,,,,,,,,,,,,,,,,,,,,,,,,,,,,,,,,,,,,,,,,,,,,,,,,,,,,,,,,,,,,,,,,,,,,,,,,125.0,200.0,200.0,125.0,141.0,141.0,2.1,2.12,-258,-287,0,-273,229,258,394.6913619041443,394.69143867492676,394.6942501068115,394.7069501876831,394.8474328517914,394.8474328517914,394.8474328517914,394.8474328517914,394.8474328517914,394.8474328517914,394.8474328517914,402.21878385543823,1,7.501173257827759,None,,,,,,,,,,,,,,,,,,40,4,2025-02-19_12h02.23.288,comp,2024.2.4,57.672372068464824,2025-02-19 12h02.36.793793 -0500,
81,81,0,critical,whd,35.0,1.0,upper,125.0,200.0,200.0,125.0,127.0,127.0,1,7.6925578117370605,None,,,,,0,0,0,0,0,81,81,85,402.2356107234955,,,,,,,,,,,,,,,,,,,,,,,,,,,,,,,,,,,,,,,,,,,,,,,,,,,,,,,,,,,,,,,,,,,,,,,,,,,,,,,,,,125.0,200.0,200.0,125.0,127.0,127.0,1.0,1.2,-258,-11,0,-6,222,3,402.22041940689087,402.2205340862274,402.2238702774048,402.2356107234955,402.3823881149292,402.3823881149292,402.3823881149292,402.3823881149292,402.3823881149292,402.3823881149292,402.3823881149292,409.94045758247375,1,7.6925578117370605,None,,,,,,,,,,,,,,,,,,40,4,2025-02-19_12h02.23.288,comp,2024.2.4,57.672372068464824,2025-02-19 12h02.36.793793 -0500,
82,82,0,filler_square,None,None,None,None,None,None,None,None,None,None,2,1.6344420909881592,None,,,,,0,0,0,0,0,82,82,198,409.9582829475403,,,,,,,,,,,,,,,,,,,,,,,,,,,,,,,,,,,,,,,,,,,,,,,,,,,,,,,,,,,,,,,,,,,,,,,,,,,,,,,,,,57.7653417185312,96.763946675125,107.70125044749376,107.70125044749376,62.831202876861866,92.01390584685997,2.1,2.11,-198,261,0,264,196,-271,409.94222044944763,409.94230246543884,409.94514060020447,409.9582829475403,410.1029508113861,410.1029508113861,410.1029508113861,410.1029508113861,410.1029508113861,410.1029508113861,410.1029508113861,411.6030957698822,2,1.6344420909881592,None,,,,,,,,,,,,,,,,,,40,4,2025-02-19_12h02.23.288,comp,2024.2.4,57.672372068464824,2025-02-19 12h02.36.793793 -0500,
83,83,0,filler_random,None,None,None,None,None,None,None,None,None,None,1,2.821221113204956,None,,,,,0,0,0,0,0,83,83,160,411.6192407608032,,,,,,,,,,,,,,,,,,,,,,,,,,,,,,,,,,,,,,,,,,,,,,,,,,,,,,,,,,,,,,,,,,,,,,,,,,,,,,,,,,62.09346812606925,147.6571474539632,131.02279294862967,65.48318579332044,87.09300892853756,81.32183474937017,2.1,2.12,-203,-268,0,-276,169,285,411.6053035259247,411.6054174900055,411.60852813720703,411.6192407608032,411.77062582969666,411.77062582969666,411.77062582969666,411.77062582969666,411.77062582969666,411.77062582969666,411.77062582969666,414.44266295433044,1,2.821221113204956,None,,,,,,,,,,,,,,,,,,40,4,2025-02-19_12h02.23.288,comp,2024.2.4,57.672372068464824,2025-02-19 12h02.36.793793 -0500,
84,84,0,critical,wdh,20.0,1.0,lower,57.0,133.0,78.0,78.0,133.0,57.0,2,4.030316114425659,None,,,,,0,0,0,0,0,84,84,78,414.4577751159668,,,,,,,,,,,,,,,,,,,,,,,,,,,,,,,,,,,,,,,,,,,,,,,,,,,,,,,,,,,,,,,,,,,,,,,,,,,,,,,,,,57.0,133.0,78.0,78.0,133.0,57.0,1.0,1.1,-682,258,-480,263,-316,261,414.4441363811493,414.4442138671875,414.447060585022,414.4577751159668,414.60364413261414,414.60364413261414,414.60364413261414,414.60364413261414,414.60364413261414,414.60364413261414,414.60364413261414,418.5031065940857,2,4.030316114425659,None,,,,,,,,,,,,,,,,,,40,4,2025-02-19_12h02.23.288,comp,2024.2.4,57.672372068464824,2025-02-19 12h02.36.793793 -0500,
85,85,0,filler_square,None,None,None,None,None,None,None,None,None,None,3,1.5057084560394287,None,,,,,0,0,0,0,0,85,85,201,418.5191156864166,,,,,,,,,,,,,,,,,,,,,,,,,,,,,,,,,,,,,,,,,,,,,,,,,,,,,,,,,,,,,,,,,,,,,,,,,,,,,,,,,,178.27113514615175,147.81688048181041,183.40501241363768,165.5645385119388,198.42144828539247,198.42144828539247,2.2,2.22,-253,265,0,-269,278,-262,418.50515961647034,418.5052366256714,418.50845432281494,418.5191156864166,418.6765556335449,418.6765556335449,418.6765556335449,418.6765556335449,418.6765556335449,418.6765556335449,418.6765556335449,420.0270400047302,3,1.5057084560394287,None,,,,,,,,,,,,,,,,,,40,4,2025-02-19_12h02.23.288,comp,2024.2.4,57.672372068464824,2025-02-19 12h02.36.793793 -0500,
86,86,0,critical,whd,20.0,1.0,upper,125.0,200.0,200.0,125.0,141.0,141.0,1,4.9904985427856445,None,,,,,0,0,0,0,0,86,86,91,420.0423743724823,,,,,,,,,,,,,,,,,,,,,,,,,,,,,,,,,,,,,,,,,,,,,,,,,,,,,,,,,,,,,,,,,,,,,,,,,,,,,,,,,,125.0,200.0,200.0,125.0,141.0,141.0,1.0,1.2,-258,-2,0,-5,229,-6,420.028605222702,420.02868390083313,420.0316243171692,420.0423743724823,420.18673157691956,420.18673157691956,420.18673157691956,420.18673157691956,420.18673157691956,420.18673157691956,420.18673157691956,425.0432469844818,1,4.9904985427856445,None,,,,,,,,,,,,,,,,,,40,4,2025-02-19_12h02.23.288,comp,2024.2.4,57.672372068464824,2025-02-19 12h02.36.793793 -0500,
87,87,0,filler_random,None,None,None,None,None,None,None,None,None,None,2,0.9650862216949463,None,,,,,0,0,0,0,0,87,87,139,425.05906343460083,,,,,,,,,,,,,,,,,,,,,,,,,,,,,,,,,,,,,,,,,,,,,,,,,,,,,,,,,,,,,,,,,,,,,,,,,,,,,,,,,,134.85315841287826,59.6076063363152,130.2944852007009,195.14446570954027,61.46379999033517,64.341648795412,4.0,4.1,-223,-286,0,-11,226,-252,425.04501509666443,425.0450966358185,425.0482544898987,425.05906343460083,425.2068109512329,425.2068109512329,425.2068109512329,425.2068109512329,425.2068109512329,425.2068109512329,425.2068109512329,426.0413658618927,2,0.9650862216949463,None,,,,,,,,,,,,,,,,,,40,4,2025-02-19_12h02.23.288,comp,2024.2.4,57.672372068464824,2025-02-19 12h02.36.793793 -0500,
88,88,0,critical,hdw,20.0,1.0,upper,200.0,125.0,141.0,141.0,125.0,200.0,3,1.29298734664917,None,,,,,0,0,0,0,0,88,88,115,426.059677362442,,,,,,,,,,,,,,,,,,,,,,,,,,,,,,,,,,,,,,,,,,,,,,,,,,,,,,,,,,,,,,,,,,,,,,,,,,,,,,,,,,200.0,125.0,141.0,141.0,125.0,200.0,1.0,1.3,251,-261,480,-272,746,-289,426.04288721084595,426.04296684265137,426.04603838920593,426.059677362442,426.20763206481934,426.20763206481934,426.20763206481934,426.20763206481934,426.20763206481934,426.20763206481934,426.20763206481934,427.3579170703888,3,1.29298734664917,None,,,,,,,,,,,,,,,,,,40,4,2025-02-19_12h02.23.288,comp,2024.2.4,57.672372068464824,2025-02-19 12h02.36.793793 -0500,
89,89,0,filler_random,None,None,None,None,None,None,None,None,None,None,2,1.3543870449066162,None,,,,,0,0,0,0,0,89,89,166,427.37402391433716,,,,,,,,,,,,,,,,,,,,,,,,,,,,,,,,,,,,,,,,,,,,,,,,,,,,,,,,,,,,,,,,,,,,,,,,,,,,,,,,,,111.37984715000485,133.76070832220955,135.6874575652595,185.6990188496431,123.64000090411616,60.44760953621166,2.2,2.22,-256,259,0,-283,219,-252,427.35961389541626,427.3596909046173,427.3629643917084,427.37402391433716,427.5230884552002,427.5230884552002,427.5230884552002,427.5230884552002,427.5230884552002,427.5230884552002,427.5230884552002,428.742018699646,2,1.3543870449066162,None,,,,,,,,,,,,,,,,,,40,4,2025-02-19_12h02.23.288,comp,2024.2.4,57.672372068464824,2025-02-19 12h02.36.793793 -0500,
90,90,0,filler_square,None,None,None,None,None,None,None,None,None,None,1,1.0983350276947021,None,,,,,0,0,0,0,0,90,90,183,428.7578499317169,,,,,,,,,,,,,,,,,,,,,,,,,,,,,,,,,,,,,,,,,,,,,,,,,,,,,,,,,,,,,,,,,,,,,,,,,,,,,,,,,,152.53257373646244,152.53257373646244,123.91317868214709,87.36294861038222,105.57136366233881,117.9978193402053,2.1,2.12,-216,-275,0,-279,199,274,428.743812084198,428.74388694763184,428.74722170829773,428.7578499317169,428.89457082748413,428.89457082748413,428.89457082748413,428.89457082748413,428.89457082748413,428.89457082748413,428.89457082748413,429.85842752456665,1,1.0983350276947021,None,,,,,,,,,,,,,,,,,,40,4,2025-02-19_12h02.23.288,comp,2024.2.4,57.672372068464824,2025-02-19 12h02.36.793793 -0500,
91,91,0,critical,hwd,20.0,3.0,lower,133.0,57.0,57.0,133.0,78.0,78.0,3,8.046781063079834,None,,,,,0,0,0,0,0,91,91,104,429.87423968315125,,,,,,,,,,,,,,,,,,,,,,,,,,,,,,,,,,,,,,,,,,,,,,,,,,,,,,,,,,,,,,,,,,,,,,,,,,,,,,,,,,133.0,57.0,57.0,133.0,78.0,78.0,3.0,3.1,-191,254,0,-8,202,-286,429.86005115509033,429.8601264953613,429.86352348327637,429.87423968315125,430.02610969543457,430.02610969543457,430.02610969543457,430.02610969543457,430.02610969543457,430.02610969543457,430.02610969543457,437.9278073310852,3,8.046781063079834,None,,,,,,,,,,,,,,,,,,40,4,2025-02-19_12h02.23.288,comp,2024.2.4,57.672372068464824,2025-02-19 12h02.36.793793 -0500,
92,92,0,critical,hwd,35.0,2.1,lower,133.0,57.0,57.0,133.0,70.0,70.0,2,2.7366342544555664,None,,,,,0,0,0,0,0,92,92,16,437.94387125968933,,,,,,,,,,,,,,,,,,,,,,,,,,,,,,,,,,,,,,,,,,,,,,,,,,,,,,,,,,,,,,,,,,,,,,,,,,,,,,,,,,133.0,57.0,57.0,133.0,70.0,70.0,2.1,2.12,-191,-266,0,-276,198,271,437.92933654785156,437.9294180870056,437.9327743053436,437.94387125968933,438.09609866142273,438.09609866142273,438.09609866142273,438.09609866142273,438.09609866142273,438.09609866142273,438.09609866142273,440.6828269958496,2,2.7366342544555664,None,,,,,,,,,,,,,,,,,,40,4,2025-02-19_12h02.23.288,comp,2024.2.4,57.672372068464824,2025-02-19 12h02.36.793793 -0500,
93,93,0,critical,whd,35.0,4.0,lower,57.0,133.0,133.0,57.0,70.0,70.0,1,7.595667123794556,None,,,,,0,0,0,0,0,93,93,88,440.70109486579895,,,,,,,,,,,,,,,,,,,,,,,,,,,,,,,,,,,,,,,,,,,,,,,,,,,,,,,,,,,,,,,,,,,,,,,,,,,,,,,,,,57.0,133.0,133.0,57.0,70.0,70.0,4.0,4.2,-191,-8,0,-287,160,15,440.684490442276,440.68456745147705,440.687780380249,440.70109486579895,440.8447253704071,440.8447253704071,440.8447253704071,440.8447253704071,440.8447253704071,440.8447253704071,440.8447253704071,448.3030068874359,1,7.595667123794556,None,,,,,,,,,,,,,,,,,,40,4,2025-02-19_12h02.23.288,comp,2024.2.4,57.672372068464824,2025-02-19 12h02.36.793793 -0500,
94,94,0,critical,whd,20.0,4.0,upper,125.0,200.0,200.0,125.0,141.0,141.0,1,3.8292181491851807,None,,,,,0,0,0,0,0,94,94,95,448.3231279850006,,,,,,,,,,,,,,,,,,,,,,,,,,,,,,,,,,,,,,,,,,,,,,,,,,,,,,,,,,,,,,,,,,,,,,,,,,,,,,,,,,125.0,200.0,200.0,125.0,141.0,141.0,4.0,4.2,-258,-14,0,-266,229,-18,448.3046922683716,448.3047683238983,448.3079762458801,448.3231279850006,448.464950799942,448.464950799942,448.464950799942,448.464950799942,448.464950799942,448.464950799942,448.464950799942,452.1657416820526,1,3.8292181491851807,None,,,,,,,,,,,,,,,,,,40,4,2025-02-19_12h02.23.288,comp,2024.2.4,57.672372068464824,2025-02-19 12h02.36.793793 -0500,
95,95,0,filler_square,None,None,None,None,None,None,None,None,None,None,1,1.9638335704803467,None,,,,,0,0,0,0,0,95,95,184,452.18121552467346,,,,,,,,,,,,,,,,,,,,,,,,,,,,,,,,,,,,,,,,,,,,,,,,,,,,,,,,,,,,,,,,,,,,,,,,,,,,,,,,,,101.59331798708007,101.59331798708007,89.56787366681075,70.2139339623335,63.494803642899136,93.16635797573694,4.0,4.2,-182,2,0,-272,178,5,452.1675612926483,452.16763615608215,452.17095136642456,452.18121552467346,452.3317906856537,452.3317906856537,452.3317906856537,452.3317906856537,452.3317906856537,452.3317906856537,452.3317906856537,454.15197491645813,1,1.9638335704803467,None,,,,,,,,,,,,,,,,,,40,4,2025-02-19_12h02.23.288,comp,2024.2.4,57.672372068464824,2025-02-19 12h02.36.793793 -0500,
96,96,0,critical,hwd,35.0,1.0,upper,200.0,125.0,125.0,200.0,127.0,127.0,2,1.7076046466827393,None,,,,,0,0,0,0,0,96,96,97,454.1728661060333,,,,,,,,,,,,,,,,,,,,,,,,,,,,,,,,,,,,,,,,,,,,,,,,,,,,,,,,,,,,,,,,,,,,,,,,,,,,,,,,,,200.0,125.0,125.0,200.0,127.0,127.0,1.0,1.3,222,-277,480,-288,740,-288,454.153687953949,454.15380477905273,454.1570653915405,454.1728661060333,454.31795048713684,454.31795048713684,454.31795048713684,454.31795048713684,454.31795048713684,454.31795048713684,454.31795048713684,455.88380575180054,2,1.7076046466827393,None,,,,,,,,,,,,,,,,,,40,4,2025-02-19_12h02.23.288,comp,2024.2.4,57.672372068464824,2025-02-19 12h02.36.793793 -0500,
97,97,0,critical,hdw,35.0,4.0,upper,200.0,125.0,127.0,127.0,125.0,200.0,3,1.187748908996582,None,,,,,0,0,0,0,0,97,97,113,455.90076661109924,,,,,,,,,,,,,,,,,,,,,,,,,,,,,,,,,,,,,,,,,,,,,,,,,,,,,,,,,,,,,,,,,,,,,,,,,,,,,,,,,,200.0,125.0,127.0,127.0,125.0,200.0,4.0,4.2,-222,14,0,-290,260,-5,455.8853385448456,455.88541650772095,455.8881618976593,455.90076661109924,456.055064201355,456.055064201355,456.055064201355,456.055064201355,456.055064201355,456.055064201355,456.055064201355,457.09813952445984,3,1.187748908996582,None,,,,,,,,,,,,,,,,,,40,4,2025-02-19_12h02.23.288,comp,2024.2.4,57.672372068464824,2025-02-19 12h02.36.793793 -0500,
98,98,0,filler_square,None,None,None,None,None,None,None,None,None,None,2,0.9111514091491699,None,,,,,0,0,0,0,0,98,98,187,457.1144435405731,,,,,,,,,,,,,,,,,,,,,,,,,,,,,,,,,,,,,,,,,,,,,,,,,,,,,,,,,,,,,,,,,,,,,,,,,,,,,,,,,,178.06138977777616,162.84471636384774,196.31186867879038,196.31186867879038,102.1454073446142,83.43644555567893,3.0,3.2,-276,-263,0,16,236,262,457.09992504119873,457.10000133514404,457.102826833725,457.1144435405731,457.2696807384491,457.2696807384491,457.2696807384491,457.2696807384491,457.2696807384491,457.2696807384491,457.2696807384491,458.0333368778229,2,0.9111514091491699,None,,,,,,,,,,,,,,,,,,40,4,2025-02-19_12h02.23.288,comp,2024.2.4,57.672372068464824,2025-02-19 12h02.36.793793 -0500,
99,99,0,critical,wdh,35.0,2.1,lower,57.0,133.0,70.0,70.0,133.0,57.0,3,2.542587995529175,None,,,,,0,0,0,0,0,99,99,8,458.0495991706848,,,,,,,,,,,,,,,,,,,,,,,,,,,,,,,,,,,,,,,,,,,,,,,,,,,,,,,,,,,,,,,,,,,,,,,,,,,,,,,,,,57.0,133.0,70.0,70.0,133.0,57.0,2.1,2.12,-198,-266,0,-287,160,261,458.0349049568176,458.03498101234436,458.03827261924744,458.0495991706848,458.20360016822815,458.20360016822815,458.20360016822815,458.20360016822815,458.20360016822815,458.20360016822815,458.20360016822815,460.6104574203491,3,2.542587995529175,None,,,,,,,,,,,,,,,,,,40,4,2025-02-19_12h02.23.288,comp,2024.2.4,57.672372068464824,2025-02-19 12h02.36.793793 -0500,
100,100,0,critical,wdh,20.0,1.0,upper,125.0,200.0,141.0,141.0,200.0,125.0,3,2.209540367126465,None,,,,,0,0,0,0,0,100,100,79,460.63062953948975,,,,,,,,,,,,,,,,,,,,,,,,,,,,,,,,,,,,,,,,,,,,,,,,,,,,,,,,,,,,,,,,,,,,,,,,,,,,,,,,,,125.0,200.0,141.0,141.0,200.0,125.0,1.0,1.2,-266,-6,0,-15,229,-2,460.61194229125977,460.6120204925537,460.6152400970459,460.63062953948975,460.76886463165283,460.76886463165283,460.76886463165283,460.76886463165283,460.76886463165283,460.76886463165283,460.76886463165283,462.8511862754822,3,2.209540367126465,None,,,,,,,,,,,,,,,,,,40,4,2025-02-19_12h02.23.288,comp,2024.2.4,57.672372068464824,2025-02-19 12h02.36.793793 -0500,
101,101,0,filler_square,None,None,None,None,None,None,None,None,None,None,3,8.865731954574585,None,,,,,0,0,0,0,0,101,101,206,462.870765209198,,,,,,,,,,,,,,,,,,,,,,,,,,,,,,,,,,,,,,,,,,,,,,,,,,,,,,,,,,,,,,,,,,,,,,,,,,,,,,,,,,66.02762644617357,71.87472277894736,103.80804026376936,103.80804026376936,92.72336698357682,100.72572353588286,2.1,2.11,-184,284,0,279,198,-275,462.85322189331055,462.8533036708832,462.85681986808777,462.870765209198,463.01947569847107,463.01947569847107,463.01947569847107,463.01947569847107,463.01947569847107,463.01947569847107,463.01947569847107,471.7398478984833,3,8.865731954574585,None,,,,,,,,,,,,,,,,,,40,4,2025-02-19_12h02.23.288,comp,2024.2.4,57.672372068464824,2025-02-19 12h02.36.793793 -0500,
102,102,0,filler_square,None,None,None,None,None,None,None,None,None,None,1,3.042628288269043,None,,,,,0,0,0,0,0,102,102,186,471.7583029270172,,,,,,,,,,,,,,,,,,,,,,,,,,,,,,,,,,,,,,,,,,,,,,,,,,,,,,,,,,,,,,,,,,,,,,,,,,,,,,,,,,103.11260572660868,103.11260572660868,70.73245594002235,93.49163409505738,69.56565277614357,93.21412291776282,2.1,2.11,-194,284,0,271,189,-258,471.7416818141937,471.741760969162,471.7445864677429,471.7583029270172,471.9036889076233,471.9036889076233,471.9036889076233,471.9036889076233,471.9036889076233,471.9036889076233,471.9036889076233,474.80588364601135,1,3.042628288269043,None,,,,,,,,,,,,,,,,,,40,4,2025-02-19_12h02.23.288,comp,2024.2.4,57.672372068464824,2025-02-19 12h02.36.793793 -0500,
103,103,0,critical,dwh,20.0,4.0,upper,141.0,141.0,125.0,200.0,200.0,125.0,3,1.9942529201507568,None,,,,,0,0,0,0,0,103,103,71,474.82258343696594,,,,,,,,,,,,,,,,,,,,,,,,,,,,,,,,,,,,,,,,,,,,,,,,,,,,,,,,,,,,,,,,,,,,,,,,,,,,,,,,,,141.0,141.0,125.0,200.0,200.0,125.0,4.0,4.2,-266,15,0,-289,258,8,474.8075008392334,474.8076229095459,474.81101274490356,474.82258343696594,474.96022295951843,474.96022295951843,474.96022295951843,474.96022295951843,474.96022295951843,474.96022295951843,474.96022295951843,476.8247563838959,3,1.9942529201507568,None,,,,,,,,,,,,,,,,,,40,4,2025-02-19_12h02.23.288,comp,2024.2.4,57.672372068464824,2025-02-19 12h02.36.793793 -0500,
104,104,0,critical,dhw,35.0,4.0,lower,70.0,70.0,133.0,57.0,57.0,133.0,3,2.183866024017334,None,,,,,0,0,0,0,0,104,104,52,476.8404698371887,,,,,,,,,,,,,,,,,,,,,,,,,,,,,,,,,,,,,,,,,,,,,,,,,,,,,,,,,,,,,,,,,,,,,,,,,,,,,,,,,,70.0,70.0,133.0,57.0,57.0,133.0,4.0,4.1,-160,-256,0,6,191,-285,476.82622241973877,476.82629799842834,476.82941913604736,476.8404698371887,476.9889395236969,476.9889395236969,476.9889395236969,476.9889395236969,476.9889395236969,476.9889395236969,476.9889395236969,479.03980135917664,3,2.183866024017334,None,,,,,,,,,,,,,,,,,,40,4,2025-02-19_12h02.23.288,comp,2024.2.4,57.672372068464824,2025-02-19 12h02.36.793793 -0500,
105,105,0,critical,dhw,35.0,2.1,lower,70.0,70.0,133.0,57.0,57.0,133.0,3,5.398829936981201,None,,,,,0,0,0,0,0,105,105,24,479.05750346183777,,,,,,,,,,,,,,,,,,,,,,,,,,,,,,,,,,,,,,,,,,,,,,,,,,,,,,,,,,,,,,,,,,,,,,,,,,,,,,,,,,70.0,70.0,133.0,57.0,57.0,133.0,2.1,2.12,-160,-273,0,-262,191,266,479.0412919521332,479.04140400886536,479.04444646835327,479.05750346183777,479.2112784385681,479.2112784385681,479.2112784385681,479.2112784385681,479.2112784385681,479.2112784385681,479.2112784385681,484.45882511138916,3,5.398829936981201,None,,,,,,,,,,,,,,,,,,40,4,2025-02-19_12h02.23.288,comp,2024.2.4,57.672372068464824,2025-02-19 12h02.36.793793 -0500,
106,106,0,filler_square,None,None,None,None,None,None,None,None,None,None,3,1.3742790222167969,None,,,,,0,0,0,0,0,106,106,173,484.4747893810272,,,,,,,,,,,,,,,,,,,,,,,,,,,,,,,,,,,,,,,,,,,,,,,,,,,,,,,,,,,,,,,,,,,,,,,,,,,,,,,,,,86.66668062488931,97.27162202095965,60.9143548292385,76.83447722081445,105.62171466612375,105.62171466612375,2.2,2.22,-183,283,0,-251,187,-274,484.4606215953827,484.4607012271881,484.464017868042,484.4747893810272,484.6251931190491,484.6251931190491,484.6251931190491,484.6251931190491,484.6251931190491,484.6251931190491,484.6251931190491,485.8605351448059,3,1.3742790222167969,None,,,,,,,,,,,,,,,,,,40,4,2025-02-19_12h02.23.288,comp,2024.2.4,57.672372068464824,2025-02-19 12h02.36.793793 -0500,
107,107,0,filler_random,None,None,None,None,None,None,None,None,None,None,3,2.811617374420166,None,,,,,0,0,0,0,0,107,107,158,485.87711215019226,,,,,,,,,,,,,,,,,,,,,,,,,,,,,,,,,,,,,,,,,,,,,,,,,,,,,,,,,,,,,,,,,,,,,,,,,,,,,,,,,,119.69901421268506,171.4464650722929,128.36382595317122,146.51311527494892,171.05265612157257,119.71720542272716,2.1,2.12,-255,-265,0,-286,229,275,485.86243510246277,485.86257147789,485.8664734363556,485.87711215019226,486.02674412727356,486.02674412727356,486.02674412727356,486.02674412727356,486.02674412727356,486.02674412727356,486.02674412727356,488.69200348854065,3,2.811617374420166,None,,,,,,,,,,,,,,,,,,40,4,2025-02-19_12h02.23.288,comp,2024.2.4,57.672372068464824,2025-02-19 12h02.36.793793 -0500,
108,108,0,critical,hwd,35.0,3.0,upper,200.0,125.0,125.0,200.0,127.0,127.0,2,4.236786365509033,None,,,,,0,0,0,0,0,108,108,99,488.708215713501,,,,,,,,,,,,,,,,,,,,,,,,,,,,,,,,,,,,,,,,,,,,,,,,,,,,,,,,,,,,,,,,,,,,,,,,,,,,,,,,,,200.0,125.0,125.0,200.0,127.0,127.0,3.0,3.1,-258,263,0,-18,260,-278,488.69352197647095,488.6936013698578,488.69642663002014,488.708215713501,488.86112117767334,488.86112117767334,488.86112117767334,488.86112117767334,488.86112117767334,488.86112117767334,488.86112117767334,492.9504454135895,2,4.236786365509033,None,,,,,,,,,,,,,,,,,,40,4,2025-02-19_12h02.23.288,comp,2024.2.4,57.672372068464824,2025-02-19 12h02.36.793793 -0500,
109,109,0,catch,None,None,None,None,None,None,None,None,None,None,3,1.177426815032959,None,,,,,0,0,0,0,0,109,109,120,492.9668734073639,,,,,,,,,,,,,,,,,,,,,,,,,,,,,,,,,,,,,,,,,,,,,,,,,,,,,,,,,,,,,,,,,,,,,,,,,,,,,,,,,,101,89,99,91,162,163,3.0,3.1,-186,264,0,-20,223,-278,492.95240354537964,492.95248556137085,492.95537185668945,492.9668734073639,493.10991406440735,493.10991406440735,493.10991406440735,493.10991406440735,493.10991406440735,493.10991406440735,493.10991406440735,494.1470592021942,3,1.177426815032959,None,,,,,,,,,,,,,,,,,,40,4,2025-02-19_12h02.23.288,comp,2024.2.4,57.672372068464824,2025-02-19 12h02.36.793793 -0500,
110,110,0,critical,dhw,20.0,2.1,upper,141.0,141.0,200.0,125.0,125.0,200.0,2,1.5167326927185059,None,,,,,0,0,0,0,0,110,110,27,494.1635317802429,,,,,,,,,,,,,,,,,,,,,,,,,,,,,,,,,,,,,,,,,,,,,,,,,,,,,,,,,,,,,,,,,,,,,,,,,,,,,,,,,,141.0,141.0,200.0,125.0,125.0,200.0,2.1,2.12,-229,-276,0,-280,258,279,494.14886832237244,494.14899802207947,494.15264654159546,494.1635317802429,494.3217089176178,494.3217089176178,494.3217089176178,494.3217089176178,494.3217089176178,494.3217089176178,494.3217089176178,495.69739031791687,2,1.5167326927185059,None,,,,,,,,,,,,,,,,,,40,4,2025-02-19_12h02.23.288,comp,2024.2.4,57.672372068464824,2025-02-19 12h02.36.793793 -0500,
111,111,0,critical,hwd,20.0,1.0,lower,133.0,57.0,57.0,133.0,78.0,78.0,2,3.279531240463257,None,,,,,0,0,0,0,0,111,111,102,495.7130081653595,,,,,,,,,,,,,,,,,,,,,,,,,,,,,,,,,,,,,,,,,,,,,,,,,,,,,,,,,,,,,,,,,,,,,,,,,,,,,,,,,,133.0,57.0,57.0,133.0,78.0,78.0,1.0,1.2,-191,-3,0,15,202,-9,495.6990132331848,495.69913840293884,495.70263385772705,495.7130081653595,495.8660726547241,495.8660726547241,495.8660726547241,495.8660726547241,495.8660726547241,495.8660726547241,495.8660726547241,499.0128355026245,2,3.279531240463257,None,,,,,,,,,,,,,,,,,,40,4,2025-02-19_12h02.23.288,comp,2024.2.4,57.672372068464824,2025-02-19 12h02.36.793793 -0500,
112,112,0,filler_random,None,None,None,None,None,None,None,None,None,None,1,1.6830518245697021,None,,,,,0,0,0,0,0,112,112,132,499.0294153690338,,,,,,,,,,,,,,,,,,,,,,,,,,,,,,,,,,,,,,,,,,,,,,,,,,,,,,,,,,,,,,,,,,,,,,,,,,,,,,,,,,141.78591893069978,194.47432151374528,181.72197561364212,69.58277324063721,121.38067382999581,177.85245109326425,4.0,4.1,-228,-275,0,10,220,-254,499.01453828811646,499.014616727829,499.01775884628296,499.0294153690338,499.18141651153564,499.18141651153564,499.18141651153564,499.18141651153564,499.18141651153564,499.18141651153564,499.18141651153564,500.71643018722534,1,1.6830518245697021,None,,,,,,,,,,,,,,,,,,40,4,2025-02-19_12h02.23.288,comp,2024.2.4,57.672372068464824,2025-02-19 12h02.36.793793 -0500,
113,113,0,filler_random,None,None,None,None,None,None,None,None,None,None,2,1.6681785583496094,None,,,,,0,0,0,0,0,113,113,143,500.7321593761444,,,,,,,,,,,,,,,,,,,,,,,,,,,,,,,,,,,,,,,,,,,,,,,,,,,,,,,,,,,,,,,,,,,,,,,,,,,,,,,,,,147.9717461710767,119.95005449890678,192.81094065275235,106.857760217775,58.32239540393819,117.82850253877285,3.0,3.2,-209,-259,0,8,208,275,500.71829414367676,500.71839475631714,500.7213761806488,500.7321593761444,500.87847805023193,500.87847805023193,500.87847805023193,500.87847805023193,500.87847805023193,500.87847805023193,500.87847805023193,502.4148631095886,2,1.6681785583496094,None,,,,,,,,,,,,,,,,,,40,4,2025-02-19_12h02.23.288,comp,2024.2.4,57.672372068464824,2025-02-19 12h02.36.793793 -0500,
114,114,0,critical,wdh,35.0,1.0,lower,57.0,133.0,70.0,70.0,133.0,57.0,3,7.937570333480835,None,,,,,0,0,0,0,0,114,114,72,502.4307746887207,,,,,,,,,,,,,,,,,,,,,,,,,,,,,,,,,,,,,,,,,,,,,,,,,,,,,,,,,,,,,,,,,,,,,,,,,,,,,,,,,,57.0,133.0,70.0,70.0,133.0,57.0,1.0,1.1,-678,285,-480,264,-320,284,502.4163670539856,502.41644501686096,502.41967129707336,502.4307746887207,502.5837712287903,502.5837712287903,502.5837712287903,502.5837712287903,502.5837712287903,502.5837712287903,502.5837712287903,510.3835029602051,3,7.937570333480835,None,,,,,,,,,,,,,,,,,,40,4,2025-02-19_12h02.23.288,comp,2024.2.4,57.672372068464824,2025-02-19 12h02.36.793793 -0500,
115,115,0,filler_square,None,None,None,None,None,None,None,None,None,None,3,1.51371431350708,None,,,,,0,0,0,0,0,115,115,205,510.3991491794586,,,,,,,,,,,,,,,,,,,,,,,,,,,,,,,,,,,,,,,,,,,,,,,,,,,,,,,,,,,,,,,,,,,,,,,,,,,,,,,,,,65.41506962178121,81.01060048441295,77.14151615992702,85.54742124444721,91.37760392513704,91.37760392513704,4.0,4.2,-179,-16,0,-277,184,4,510.3852581977844,510.3853750228882,510.38880705833435,510.3991491794586,510.54882860183716,510.54882860183716,510.54882860183716,510.54882860183716,510.54882860183716,510.54882860183716,510.54882860183716,511.91957807540894,3,1.51371431350708,None,,,,,,,,,,,,,,,,,,40,4,2025-02-19_12h02.23.288,comp,2024.2.4,57.672372068464824,2025-02-19 12h02.36.793793 -0500,
116,116,0,filler_square,None,None,None,None,None,None,None,None,None,None,2,0.9617660045623779,None,,,,,0,0,0,0,0,116,116,195,511.93534207344055,,,,,,,,,,,,,,,,,,,,,,,,,,,,,,,,,,,,,,,,,,,,,,,,,,,,,,,,,,,,,,,,,,,,,,,,,,,,,,,,,,128.15707934762878,128.15707934762878,77.56396826204565,95.82258576793974,77.18584319892042,78.15891873798664,1.0,1.1,-688,289,-480,261,-297,260,511.9214713573456,511.92154908180237,511.9246401786804,511.93534207344055,512.0837190151215,512.0837190151215,512.0837190151215,512.0837190151215,512.0837190151215,512.0837190151215,512.0837190151215,512.9019601345062,2,0.9617660045623779,None,,,,,,,,,,,,,,,,,,40,4,2025-02-19_12h02.23.288,comp,2024.2.4,57.672372068464824,2025-02-19 12h02.36.793793 -0500,
117,117,0,critical,hwd,35.0,4.0,upper,200.0,125.0,125.0,200.0,127.0,127.0,1,0.03488898277282715,None,,,,,0,0,0,0,0,117,117,101,512.9174427986145,,,,,,,,,,,,,,,,,,,,,,,,,,,,,,,,,,,,,,,,,,,,,,,,,,,,,,,,,,,,,,,,,,,,,,,,,,,,,,,,,,200.0,125.0,125.0,200.0,127.0,127.0,4.0,4.2,-258,12,0,-282,260,3,512.9034216403961,512.9035205841064,512.9066565036774,512.9174427986145,,,,,,,,512.9666972160339,1,0.03488898277282715,None,,,,,,,,,,,,,,,,,,40,4,2025-02-19_12h02.23.288,comp,2024.2.4,57.672372068464824,2025-02-19 12h02.36.793793 -0500,
118,118,0,critical,hdw,20.0,2.1,upper,200.0,125.0,141.0,141.0,125.0,200.0,3,3.6944267749786377,None,,,,,0,0,0,0,0,118,118,47,512.9862885475159,,,,,,,,,,,,,,,,,,,,,,,,,,,,,,,,,,,,,,,,,,,,,,,,,,,,,,,,,,,,,,,,,,,,,,,,,,,,,,,,,,200.0,125.0,141.0,141.0,125.0,200.0,2.1,2.11,-229,272,0,284,266,-285,512.96826004982,512.9683976173401,512.9715020656586,512.9862885475159,513.1352844238281,513.1352844238281,513.1352844238281,513.1352844238281,513.1352844238281,513.1352844238281,513.1352844238281,516.6866099834442,3,3.6944267749786377,None,,,,,,,,,,,,,,,,,,40,4,2025-02-19_12h02.23.288,comp,2024.2.4,57.672372068464824,2025-02-19 12h02.36.793793 -0500,
119,119,0,filler_random,None,None,None,None,None,None,None,None,None,None,2,1.1090795993804932,None,,,,,0,0,0,0,0,119,119,161,516.7076330184937,,,,,,,,,,,,,,,,,,,,,,,,,,,,,,,,,,,,,,,,,,,,,,,,,,,,,,,,,,,,,,,,,,,,,,,,,,,,,,,,,,107.79329930763136,108.97138225599954,157.46603668936274,83.63049034084798,139.86784458474372,130.38890652501505,2.2,2.21,-192,-279,0,278,203,271,516.6883039474487,516.688462972641,516.6918578147888,516.7076330184937,516.8514227867126,516.8514227867126,516.8514227867126,516.8514227867126,516.8514227867126,516.8514227867126,516.8514227867126,517.818888425827,2,1.1090795993804932,None,,,,,,,,,,,,,,,,,,40,4,2025-02-19_12h02.23.288,comp,2024.2.4,57.672372068464824,2025-02-19 12h02.36.793793 -0500,
120,120,0,critical,hdw,20.0,2.1,lower,133.0,57.0,78.0,78.0,57.0,133.0,1,1.7797622680664062,None,,,,,0,0,0,0,0,120,120,22,517.8365683555603,,,,,,,,,,,,,,,,,,,,,,,,,,,,,,,,,,,,,,,,,,,,,,,,,,,,,,,,,,,,,,,,,,,,,,,,,,,,,,,,,,133.0,57.0,78.0,78.0,57.0,133.0,2.1,2.12,-164,-278,0,-288,202,260,517.820526599884,517.8206033706665,517.8236348628998,517.8365683555603,517.988009929657,517.988009929657,517.988009929657,517.988009929657,517.988009929657,517.988009929657,517.988009929657,519.6202218532562,1,1.7797622680664062,None,,,,,,,,,,,,,,,,,,40,4,2025-02-19_12h02.23.288,comp,2024.2.4,57.672372068464824,2025-02-19 12h02.36.793793 -0500,
121,121,0,critical,hwd,35.0,3.0,lower,133.0,57.0,57.0,133.0,70.0,70.0,2,1.1574440002441406,None,,,,,0,0,0,0,0,121,121,98,519.6360011100769,,,,,,,,,,,,,,,,,,,,,,,,,,,,,,,,,,,,,,,,,,,,,,,,,,,,,,,,,,,,,,,,,,,,,,,,,,,,,,,,,,133.0,57.0,57.0,133.0,70.0,70.0,3.0,3.1,-191,277,0,11,198,-257,519.6217715740204,519.6218481063843,519.6252772808075,519.6360011100769,519.785078048706,519.785078048706,519.785078048706,519.785078048706,519.785078048706,519.785078048706,519.785078048706,520.8037564754486,2,1.1574440002441406,None,,,,,,,,,,,,,,,,,,40,4,2025-02-19_12h02.23.288,comp,2024.2.4,57.672372068464824,2025-02-19 12h02.36.793793 -0500,
122,122,0,critical,dwh,35.0,4.0,lower,70.0,70.0,57.0,133.0,133.0,57.0,3,0.805088996887207,None,,,,,0,0,0,0,0,122,122,64,520.8195049762726,,,,,,,,,,,,,,,,,,,,,,,,,,,,,,,,,,,,,,,,,,,,,,,,,,,,,,,,,,,,,,,,,,,,,,,,,,,,,,,,,,70.0,70.0,57.0,133.0,133.0,57.0,4.0,4.2,-198,-5,0,-274,191,9,520.8052685260773,520.805365562439,520.8087747097015,520.8195049762726,520.970231294632,520.970231294632,520.970231294632,520.970231294632,520.970231294632,520.970231294632,520.970231294632,521.6369340419769,3,0.805088996887207,None,,,,,,,,,,,,,,,,,,40,4,2025-02-19_12h02.23.288,comp,2024.2.4,57.672372068464824,2025-02-19 12h02.36.793793 -0500,
123,123,0,critical,wdh,35.0,2.1,lower,57.0,133.0,70.0,70.0,133.0,57.0,3,1.0348875522613525,None,,,,,0,0,0,0,0,123,123,32,521.6615829467773,,,,,,,,,,,,,,,,,,,,,,,,,,,,,,,,,,,,,,,,,,,,,,,,,,,,,,,,,,,,,,,,,,,,,,,,,,,,,,,,,,57.0,133.0,70.0,70.0,133.0,57.0,2.1,2.12,-198,-255,0,-276,160,279,521.6385769844055,521.6386525630951,521.6420419216156,521.6615829467773,521.8039498329163,521.8039498329163,521.8039498329163,521.8039498329163,521.8039498329163,521.8039498329163,521.8039498329163,522.7144429683685,3,1.0348875522613525,None,,,,,,,,,,,,,,,,,,40,4,2025-02-19_12h02.23.288,comp,2024.2.4,57.672372068464824,2025-02-19 12h02.36.793793 -0500,
124,124,0,critical,whd,20.0,3.0,lower,57.0,133.0,133.0,57.0,78.0,78.0,2,2.1426448822021484,None,,,,,0,0,0,0,0,124,124,92,522.730103969574,,,,,,,,,,,,,,,,,,,,,,,,,,,,,,,,,,,,,,,,,,,,,,,,,,,,,,,,,,,,,,,,,,,,,,,,,,,,,,,,,,57.0,133.0,133.0,57.0,78.0,78.0,3.0,3.1,-191,281,0,11,164,-269,522.7160403728485,522.7161204814911,522.7189693450928,522.730103969574,522.8697288036346,522.8697288036346,522.8697288036346,522.8697288036346,522.8697288036346,522.8697288036346,522.8697288036346,524.8929381370544,2,2.1426448822021484,None,,,,,,,,,,,,,,,,,,40,4,2025-02-19_12h02.23.288,comp,2024.2.4,57.672372068464824,2025-02-19 12h02.36.793793 -0500,
125,125,0,critical,dwh,35.0,3.0,lower,70.0,70.0,57.0,133.0,133.0,57.0,2,1.1230742931365967,None,,,,,0,0,0,0,0,125,125,62,524.909904718399,,,,,,,,,,,,,,,,,,,,,,,,,,,,,,,,,,,,,,,,,,,,,,,,,,,,,,,,,,,,,,,,,,,,,,,,,,,,,,,,,,70.0,70.0,57.0,133.0,133.0,57.0,3.0,3.2,-198,-283,0,1,191,280,524.8944330215454,524.8945069313049,524.8972861766815,524.909904718399,525.0532624721527,525.0532624721527,525.0532624721527,525.0532624721527,525.0532624721527,525.0532624721527,525.0532624721527,526.0413973331451,2,1.1230742931365967,None,,,,,,,,,,,,,,,,,,40,4,2025-02-19_12h02.23.288,comp,2024.2.4,57.672372068464824,2025-02-19 12h02.36.793793 -0500,
126,126,0,filler_random,None,None,None,None,None,None,None,None,None,None,2,1.0796306133270264,None,,,,,0,0,0,0,0,126,126,137,526.056770324707,,,,,,,,,,,,,,,,,,,,,,,,,,,,,,,,,,,,,,,,,,,,,,,,,,,,,,,,,,,,,,,,,,,,,,,,,,,,,,,,,,107.52794088118824,70.27256718354646,177.59778400366562,127.0675640126412,147.35139662247212,85.42618717844135,4.0,4.1,-195,-280,0,-15,202,-256,526.04319190979,526.0432739257812,526.0461895465851,526.056770324707,526.2052412033081,526.2052412033081,526.2052412033081,526.2052412033081,526.2052412033081,526.2052412033081,526.2052412033081,527.1393406391144,2,1.0796306133270264,None,,,,,,,,,,,,,,,,,,40,4,2025-02-19_12h02.23.288,comp,2024.2.4,57.672372068464824,2025-02-19 12h02.36.793793 -0500,
127,127,0,critical,hdw,35.0,1.0,lower,133.0,57.0,70.0,70.0,57.0,133.0,1,2.627720355987549,None,,,,,0,0,0,0,0,127,127,108,527.1570217609406,,,,,,,,,,,,,,,,,,,,,,,,,,,,,,,,,,,,,,,,,,,,,,,,,,,,,,,,,,,,,,,,,,,,,,,,,,,,,,,,,,133.0,57.0,70.0,70.0,57.0,133.0,1.0,1.2,-160,18,0,-11,198,-3,527.1408026218414,527.140878200531,527.1439733505249,527.1570217609406,527.3067083358765,527.3067083358765,527.3067083358765,527.3067083358765,527.3067083358765,527.3067083358765,527.3067083358765,529.7904205322266,1,2.627720355987549,None,,,,,,,,,,,,,,,,,,40,4,2025-02-19_12h02.23.288,comp,2024.2.4,57.672372068464824,2025-02-19 12h02.36.793793 -0500,
128,128,0,critical,dhw,35.0,2.1,upper,127.0,127.0,200.0,125.0,125.0,200.0,2,1.6780657768249512,None,,,,,0,0,0,0,0,128,128,25,529.810469865799,,,,,,,,,,,,,,,,,,,,,,,,,,,,,,,,,,,,,,,,,,,,,,,,,,,,,,,,,,,,,,,,,,,,,,,,,,,,,,,,,,127.0,127.0,200.0,125.0,125.0,200.0,2.1,2.12,-222,-273,0,-276,258,255,529.7919483184814,529.7920274734497,529.7950775623322,529.810469865799,529.9558169841766,529.9558169841766,529.9558169841766,529.9558169841766,529.9558169841766,529.9558169841766,529.9558169841766,531.4946947097778,2,1.6780657768249512,None,,,,,,,,,,,,,,,,,,40,4,2025-02-19_12h02.23.288,comp,2024.2.4,57.672372068464824,2025-02-19 12h02.36.793793 -0500,
129,129,0,catch,None,None,None,None,None,None,None,None,None,None,3,0.8930587768554688,None,,,,,0,0,0,0,0,129,129,123,531.5154228210449,,,,,,,,,,,,,,,,,,,,,,,,,,,,,,,,,,,,,,,,,,,,,,,,,,,,,,,,,,,,,,,,,,,,,,,,,,,,,,,,,,111,79,91,99,168,157,4.0,4.1,-185,-272,0,-18,224,-275,531.4966943264008,531.496787071228,531.4996719360352,531.5154228210449,531.6578540802002,531.6578540802002,531.6578540802002,531.6578540802002,531.6578540802002,531.6578540802002,531.6578540802002,532.4233400821686,3,0.8930587768554688,None,,,,,,,,,,,,,,,,,,40,4,2025-02-19_12h02.23.288,comp,2024.2.4,57.672372068464824,2025-02-19 12h02.36.793793 -0500,
130,130,0,filler_random,None,None,None,None,None,None,None,None,None,None,3,0.8615713119506836,None,,,,,0,0,0,0,0,130,130,149,532.4428105354309,,,,,,,,,,,,,,,,,,,,,,,,,,,,,,,,,,,,,,,,,,,,,,,,,,,,,,,,,,,,,,,,,,,,,,,,,,,,,,,,,,60.49297066108052,177.08138613268846,157.71583440217756,79.09851979448683,166.40099118525518,168.46025342579588,1.0,1.1,-704,256,-480,264,-260,276,532.4250185489655,532.4251418113708,532.4283463954926,532.4428105354309,532.5913848876953,532.5913848876953,532.5913848876953,532.5913848876953,532.5913848876953,532.5913848876953,532.5913848876953,533.317608833313,3,0.8615713119506836,None,,,,,,,,,,,,,,,,,,40,4,2025-02-19_12h02.23.288,comp,2024.2.4,57.672372068464824,2025-02-19 12h02.36.793793 -0500,
131,131,0,critical,dhw,35.0,3.0,lower,70.0,70.0,133.0,57.0,57.0,133.0,1,2.028294801712036,None,,,,,0,0,0,0,0,131,131,50,533.332405090332,,,,,,,,,,,,,,,,,,,,,,,,,,,,,,,,,,,,,,,,,,,,,,,,,,,,,,,,,,,,,,,,,,,,,,,,,,,,,,,,,,70.0,70.0,133.0,57.0,57.0,133.0,3.0,3.1,-160,283,0,20,191,-257,533.3190441131592,533.3191194534302,533.3218989372253,533.332405090332,533.4761519432068,533.4761519432068,533.4761519432068,533.4761519432068,533.4761519432068,533.4761519432068,533.4761519432068,535.3747615814209,1,2.028294801712036,None,,,,,,,,,,,,,,,,,,40,4,2025-02-19_12h02.23.288,comp,2024.2.4,57.672372068464824,2025-02-19 12h02.36.793793 -0500,
132,132,0,critical,whd,35.0,2.1,upper,125.0,200.0,200.0,125.0,127.0,127.0,2,2.506805419921875,None,,,,,0,0,0,0,0,132,132,13,535.3905427455902,,,,,,,,,,,,,,,,,,,,,,,,,,,,,,,,,,,,,,,,,,,,,,,,,,,,,,,,,,,,,,,,,,,,,,,,,,,,,,,,,,125.0,200.0,200.0,125.0,127.0,127.0,2.1,2.12,-258,-289,0,-271,222,257,535.3763952255249,535.376494884491,535.3799929618835,535.3905427455902,535.5409445762634,535.5409445762634,535.5409445762634,535.5409445762634,535.5409445762634,535.5409445762634,535.5409445762634,537.9117774963379,2,2.506805419921875,None,,,,,,,,,,,,,,,,,,40,4,2025-02-19_12h02.23.288,comp,2024.2.4,57.672372068464824,2025-02-19 12h02.36.793793 -0500,
133,133,0,filler_random,None,None,None,None,None,None,None,None,None,None,2,0.8808774948120117,None,,,,,0,0,0,0,0,133,133,133,537.9275391101837,,,,,,,,,,,,,,,,,,,,,,,,,,,,,,,,,,,,,,,,,,,,,,,,,,,,,,,,,,,,,,,,,,,,,,,,,,,,,,,,,,69.94053363704553,76.84651830748663,197.21945507394273,159.5472427920946,97.33398528141123,146.13177529956084,2.2,2.21,-214,-258,0,287,249,260,537.9141590595245,537.91423869133,537.9171075820923,537.9275391101837,538.0725350379944,538.0725350379944,538.0725350379944,538.0725350379944,538.0725350379944,538.0725350379944,538.0725350379944,538.8108160495758,2,0.8808774948120117,None,,,,,,,,,,,,,,,,,,40,4,2025-02-19_12h02.23.288,comp,2024.2.4,57.672372068464824,2025-02-19 12h02.36.793793 -0500,
134,134,0,filler_square,None,None,None,None,None,None,None,None,None,None,2,1.085683822631836,None,,,,,0,0,0,0,0,134,134,207,538.8274893760681,,,,,,,,,,,,,,,,,,,,,,,,,,,,,,,,,,,,,,,,,,,,,,,,,,,,,,,,,,,,,,,,,,,,,,,,,,,,,,,,,,98.20835009408371,131.8800727570113,156.2351235613279,156.2351235613279,106.01694732135263,142.07201486567322,4.0,4.1,-240,-269,0,19,245,-258,538.8128340244293,538.8129136562347,538.8164820671082,538.8274893760681,538.9743010997772,538.9743010997772,538.9743010997772,538.9743010997772,538.9743010997772,538.9743010997772,538.9743010997772,539.9169371128082,2,1.085683822631836,None,,,,,,,,,,,,,,,,,,40,4,2025-02-19_12h02.23.288,comp,2024.2.4,57.672372068464824,2025-02-19 12h02.36.793793 -0500,
135,135,0,filler_square,None,None,None,None,None,None,None,None,None,None,3,1.011674404144287,None,,,,,0,0,0,0,0,135,135,199,539.9327573776245,,,,,,,,,,,,,,,,,,,,,,,,,,,,,,,,,,,,,,,,,,,,,,,,,,,,,,,,,,,,,,,,,,,,,,,,,,,,,,,,,,112.74808855749365,82.59239019700647,98.36420833284147,77.7670336117277,122.09883080224029,122.09883080224029,4.0,4.2,-176,10,0,-260,196,-14,539.9190330505371,539.9191131591797,539.9221043586731,539.9327573776245,540.0807547569275,540.0807547569275,540.0807547569275,540.0807547569275,540.0807547569275,540.0807547569275,540.0807547569275,540.960165977478,3,1.011674404144287,None,,,,,,,,,,,,,,,,,,40,4,2025-02-19_12h02.23.288,comp,2024.2.4,57.672372068464824,2025-02-19 12h02.36.793793 -0500,
136,136,0,critical,dwh,20.0,4.0,lower,78.0,78.0,57.0,133.0,133.0,57.0,3,1.8562257289886475,None,,,,,0,0,0,0,0,136,136,70,540.9761745929718,,,,,,,,,,,,,,,,,,,,,,,,,,,,,,,,,,,,,,,,,,,,,,,,,,,,,,,,,,,,,,,,,,,,,,,,,,,,,,,,,,78.0,78.0,57.0,133.0,133.0,57.0,4.0,4.1,-202,-263,0,-18,191,-259,540.9617042541504,540.9617793560028,540.9657413959503,540.9761745929718,541.116269826889,541.116269826889,541.116269826889,541.116269826889,541.116269826889,541.116269826889,541.116269826889,542.8454310894012,3,1.8562257289886475,None,,,,,,,,,,,,,,,,,,40,4,2025-02-19_12h02.23.288,comp,2024.2.4,57.672372068464824,2025-02-19 12h02.36.793793 -0500,
137,137,0,filler_square,None,None,None,None,None,None,None,None,None,None,2,1.889371633529663,None,,,,,0,0,0,0,0,137,137,177,542.8660633563995,,,,,,,,,,,,,,,,,,,,,,,,,,,,,,,,,,,,,,,,,,,,,,,,,,,,,,,,,,,,,,,,,,,,,,,,,,,,,,,,,,59.80072895671045,61.24774851418951,73.02531923766168,73.02531923766168,67.89426354137258,63.810343931476744,4.0,4.2,-163,-5,0,-269,164,-18,542.8473608493805,542.8474433422089,542.8504440784454,542.8660633563995,543.0125751495361,543.0125751495361,543.0125751495361,543.0125751495361,543.0125751495361,543.0125751495361,543.0125751495361,544.7595591545105,2,1.889371633529663,None,,,,,,,,,,,,,,,,,,40,4,2025-02-19_12h02.23.288,comp,2024.2.4,57.672372068464824,2025-02-19 12h02.36.793793 -0500,
138,138,0,filler_random,None,None,None,None,None,None,None,None,None,None,1,1.6483049392700195,None,,,,,0,0,0,0,0,138,138,138,544.7764258384705,,,,,,,,,,,,,,,,,,,,,,,,,,,,,,,,,,,,,,,,,,,,,,,,,,,,,,,,,,,,,,,,,,,,,,,,,,,,,,,,,,175.21680797001835,153.69225120671751,81.36880328194489,131.35168899352954,107.18498801121106,145.59550591727313,3.0,3.1,-239,271,0,0,234,-267,544.7614593505859,544.7615926265717,544.76482462883,544.7764258384705,544.9233531951904,544.9233531951904,544.9233531951904,544.9233531951904,544.9233531951904,544.9233531951904,544.9233531951904,546.4274039268494,1,1.6483049392700195,None,,,,,,,,,,,,,,,,,,40,4,2025-02-19_12h02.23.288,comp,2024.2.4,57.672372068464824,2025-02-19 12h02.36.793793 -0500,
139,139,0,filler_square,None,None,None,None,None,None,None,None,None,None,3,1.2846570014953613,None,,,,,0,0,0,0,0,139,139,197,546.4438240528107,,,,,,,,,,,,,,,,,,,,,,,,,,,,,,,,,,,,,,,,,,,,,,,,,,,,,,,,,,,,,,,,,,,,,,,,,,,,,,,,,,115.0021091389093,114.74617098409342,76.0550311031875,110.68757905922178,143.55877698789607,143.55877698789607,1.0,1.2,-209,15,0,1,223,17,546.4291453361511,546.4292252063751,546.4323337078094,546.4438240528107,546.5936415195465,546.5936415195465,546.5936415195465,546.5936415195465,546.5936415195465,546.5936415195465,546.5936415195465,547.7303907871246,3,1.2846570014953613,None,,,,,,,,,,,,,,,,,,40,4,2025-02-19_12h02.23.288,comp,2024.2.4,57.672372068464824,2025-02-19 12h02.36.793793 -0500,
