thisN,thisTrialN,thisRepN,effect,order,distance,config,diag,h_1,w_1,h_2,w_2,h_3,w_3,rect_choice.keys,rect_choice.rt,rect_choice.duration,instructions_loop.thisRepN,instructions_loop.thisTrialN,instructions_loop.thisN,instructions_loop.thisIndex,blocks.thisRepN,blocks.thisTrialN,blocks.thisN,blocks.thisIndex,trials.thisRepN,trials.thisTrialN,trials.thisN,trials.thisIndex,thisRow.t,notes,consent.started,agree_button.started,decline_button.started,consent_img.started,mouse.started,consent.stopped,agree_button.numClicks,agree_button.timesOn,agree_button.timesOff,decline_button.numClicks,decline_button.timesOn,decline_button.timesOff,mouse.x,mouse.y,mouse.leftButton,mouse.midButton,mouse.rightButton,mouse.time,mouse.clicked_name,exp_params.started,exp_params.stopped,welcome.started,welcome_text.started,welcome.stopped,instructions_1.started,instructions_1_text_1.started,instructions_1_text_2.started,key_resp.started,instructions_1.stopped,instructions_loop.key_resp.keys,instructions_loop.key_resp.rt,instructions_loop.key_resp.duration,instructions_2.started,instructions_2_text_1.started,instructions_2_text_2.started,key_resp_2.started,instructions_2.stopped,instructions_loop.key_resp_2.keys,instructions_loop.key_resp_2.rt,instructions_loop.key_resp_2.duration,instructions_3.started,instructions_3_text_1.started,r1_instr3.started,r2_instr3.started,r3_instr3.started,r1_instr3_label.started,r2_instr3_label.started,r3_instr3_label.started,instructions_3_text_3.started,instructions_3_text_4.started,key_resp_3.started,instructions_3.stopped,instructions_loop.key_resp_3.keys,instructions_loop.key_resp_3.rt,instructions_loop.key_resp_3.duration,instructions_4.started,instructions_4_text_1.started,instructions_4_text_3.started,instructions_4_text_2.started,key_resp_4.started,instructions_4.stopped,instructions_loop.key_resp_4.keys,instructions_loop.key_resp_4.rt,instructions_loop.key_resp_4.duration,instructions_5.started,instructions_5_text_1.started,instructions_5_text_2.started,key_resp_5.started,instructions_5.stopped,instructions_loop.key_resp_5.keys,instructions_loop.key_resp_5.rt,instructions_loop.key_resp_5.duration,start_exp.started,start_exp_text.started,key_resp_6.started,start_exp.stopped,key_resp_6.keys,key_resp_6.rt,key_resp_6.duration,h_1_tmp,w_1_tmp,h_2_tmp,w_2_tmp,h_3_tmp,w_3_tmp,config_tmp,config_tmp_1,r_1_x,r_1_y,r_2_x,r_2_y,r_3_x,r_3_y,pre_trial.started,pre_trial.stopped,choice_trial.started,rect_choice.started,r_1.started,r_2.started,r_3.started,r_1_label.started,r_2_label.started,r_3_label.started,prompt.started,choice_trial.stopped,trials.rect_choice.keys,trials.rect_choice.rt,trials.rect_choice.duration,end_block.started,end_block_text.started,end_block.stopped,end.started,end_text.started,key_resp_7.started,end.stopped,key_resp_7.keys,key_resp_7.rt,key_resp_7.duration,debriefing.started,debrief_form.started,end_debrief.started,debriefing.stopped,end_debrief.keys,end_debrief.rt,end_debrief.duration,participant,computer,date,expName,psychopyVersion,frameRate,expStart,
,,,,,,,,,,,,,,,,,,,,,,,,,,,,,,,0.014955282211303711,0.03908729553222656,0.03908729553222656,0.03908729553222656,0.01476144790649414,10.1431405544281,1,[10.101181507110596],[10.101204872131348],0,,,[-61.0],[-508.0],[1],[0],[0],[10.127610445022583],['agree_button'],,,,,,,,,,,,,,,,,,,,,,,,,,,,,,,,,,,,,,,,,,,,,,,,,,,,,,,,,,,,,,,,,,,,,,,,,,,,,,,,,,,,,,,,,,,,,,,,,,,,,,,,,,,41,6,2025-02-19_12h08.23.329,comp,2024.2.4,55.954343284498016,2025-02-19 12h08.40.630013 -0500,
,,,,,,,,,,,,,,,,,,,,,,,,,,,,,,,,,,,,,,,,,,,,,,,,,,10.143728256225586,10.143847942352295,,,,,,,,,,,,,,,,,,,,,,,,,,,,,,,,,,,,,,,,,,,,,,,,,,,,,,,,,,,,,,,,,,,,,,,,,,,,,,,,,,,,,,,,,,,,,,,,,,,,,,,,,41,6,2025-02-19_12h08.23.329,comp,2024.2.4,55.954343284498016,2025-02-19 12h08.40.630013 -0500,
,,,,,,,,,,,,,,,,,,,,,,,,,,,,,,,,,,,,,,,,,,,,,,,,,,,,10.143914937973022,10.159544706344604,12.1566903591156,,,,,,,,,,,,,,,,,,,,,,,,,,,,,,,,,,,,,,,,,,,,,,,,,,,,,,,,,,,,,,,,,,,,,,,,,,,,,,,,,,,,,,,,,,,,,,,,,,,,,,41,6,2025-02-19_12h08.23.329,comp,2024.2.4,55.954343284498016,2025-02-19 12h08.40.630013 -0500,
0,0,0,,,,,,,,,,,,,,,0,0,0,0,,,,,,,,,12.17704463005066,,,,,,,,,,,,,,,,,,,,,,,,,,12.157646894454956,12.17704463005066,12.17704463005066,13.657234907150269,16.8082377910614,space,3.134328603744507,None,16.808396339416504,16.824822902679443,16.824822902679443,18.308483600616455,24.578984022140503,space,6.251370429992676,None,24.579139709472656,24.608607530593872,24.608607530593872,24.608607530593872,24.608607530593872,24.608607530593872,24.608607530593872,24.608607530593872,24.608607530593872,24.608607530593872,26.099663734436035,31.149078130722046,space,5.035959959030151,None,31.149235486984253,31.165949821472168,31.165949821472168,31.165949821472168,32.66677975654602,39.08534026145935,space,6.404750823974609,None,39.08553457260132,39.10018730163574,39.10018730163574,40.60257315635681,41.951674699783325,space,1.3329780101776123,None,41.95187735557556,41.96711444854736,41.96711444854736,42.6845920085907,space,0.7043814659118652,None,,,,,,,,,,,,,,,,,,,,,,,,,,,,,,,,,,,,,,,,,,,,,,,41,6,2025-02-19_12h08.23.329,comp,2024.2.4,55.954343284498016,2025-02-19 12h08.40.630013 -0500,
0,0,0,filler_square,None,None,None,None,None,None,None,None,None,None,2,2.691425323486328,None,,,,,0,0,0,0,0,0,0,198,42.76433563232422,,,,,,,,,,,,,,,,,,,,,,,,,,,,,,,,,,,,,,,,,,,,,,,,,,,,,,,,,,,,,,,,,,,,,,,,,,,,,,,,,57.78008274177034,148.02930822548896,151.2667720003406,151.2667720003406,123.8366444267713,125.16299003438583,1.0,1.3,234,-266,480,-256,714,-284,42.74660801887512,42.746646881103516,42.74867010116577,42.76433563232422,42.911860942840576,42.911860942840576,42.911860942840576,42.911860942840576,42.911860942840576,42.911860942840576,42.911860942840576,45.4699010848999,2,2.691425323486328,None,,,,,,,,,,,,,,,,,,41,6,2025-02-19_12h08.23.329,comp,2024.2.4,55.954343284498016,2025-02-19 12h08.40.630013 -0500,
1,1,0,critical,whd,20.0,2.1,lower,57.0,133.0,133.0,57.0,78.0,78.0,2,7.515495777130127,None,,,,,0,0,0,0,0,1,1,14,45.48469924926758,,,,,,,,,,,,,,,,,,,,,,,,,,,,,,,,,,,,,,,,,,,,,,,,,,,,,,,,,,,,,,,,,,,,,,,,,,,,,,,,,57.0,133.0,133.0,57.0,78.0,78.0,2.1,2.11,-191,263,0,259,164,-253,45.47128653526306,45.47134613990784,45.47418451309204,45.48469924926758,45.63406705856323,45.63406705856323,45.63406705856323,45.63406705856323,45.63406705856323,45.63406705856323,45.63406705856323,53.006645917892456,2,7.515495777130127,None,,,,,,,,,,,,,,,,,,41,6,2025-02-19_12h08.23.329,comp,2024.2.4,55.954343284498016,2025-02-19 12h08.40.630013 -0500,
2,2,0,filler_random,None,None,None,None,None,None,None,None,None,None,3,3.2242932319641113,None,,,,,0,0,0,0,0,2,2,138,53.02379250526428,,,,,,,,,,,,,,,,,,,,,,,,,,,,,,,,,,,,,,,,,,,,,,,,,,,,,,,,,,,,,,,,,,,,,,,,,,,,,,,,,115.68297921027721,149.86006264306545,169.87269859237261,62.04191691419339,155.139203442343,134.74473348941854,2.2,2.22,-202,250,0,-259,194,-279,53.00869369506836,53.00877380371094,53.01212549209595,53.02379250526428,53.17735958099365,53.17735958099365,53.17735958099365,53.17735958099365,53.17735958099365,53.17735958099365,53.17735958099365,56.25683331489563,3,3.2242932319641113,None,,,,,,,,,,,,,,,,,,41,6,2025-02-19_12h08.23.329,comp,2024.2.4,55.954343284498016,2025-02-19 12h08.40.630013 -0500,
3,3,0,critical,wdh,20.0,2.1,upper,125.0,200.0,141.0,141.0,200.0,125.0,1,7.964754104614258,None,,,,,0,0,0,0,0,3,3,11,56.27487230300903,,,,,,,,,,,,,,,,,,,,,,,,,,,,,,,,,,,,,,,,,,,,,,,,,,,,,,,,,,,,,,,,,,,,,,,,,,,,,,,,,125.0,200.0,141.0,141.0,200.0,125.0,2.1,2.11,-266,259,0,289,229,-251,56.25838613510132,56.25850033760071,56.26178979873657,56.27487230300903,56.423176765441895,56.423176765441895,56.423176765441895,56.423176765441895,56.423176765441895,56.423176765441895,56.423176765441895,64.25389385223389,1,7.964754104614258,None,,,,,,,,,,,,,,,,,,41,6,2025-02-19_12h08.23.329,comp,2024.2.4,55.954343284498016,2025-02-19 12h08.40.630013 -0500,
4,4,0,critical,hwd,20.0,3.0,upper,200.0,125.0,125.0,200.0,141.0,141.0,1,1.9139206409454346,None,,,,,0,0,0,0,0,4,4,105,64.27027750015259,,,,,,,,,,,,,,,,,,,,,,,,,,,,,,,,,,,,,,,,,,,,,,,,,,,,,,,,,,,,,,,,,,,,,,,,,,,,,,,,,200.0,125.0,125.0,200.0,141.0,141.0,3.0,3.1,-258,259,0,-1,266,-269,64.25559139251709,64.25572729110718,64.25897598266602,64.27027750015259,64.40931344032288,64.40931344032288,64.40931344032288,64.40931344032288,64.40931344032288,64.40931344032288,64.40931344032288,66.19454288482666,1,1.9139206409454346,None,,,,,,,,,,,,,,,,,,41,6,2025-02-19_12h08.23.329,comp,2024.2.4,55.954343284498016,2025-02-19 12h08.40.630013 -0500,
5,5,0,filler_square,None,None,None,None,None,None,None,None,None,None,2,2.947134494781494,None,,,,,0,0,0,0,0,5,5,174,66.21307873725891,,,,,,,,,,,,,,,,,,,,,,,,,,,,,,,,,,,,,,,,,,,,,,,,,,,,,,,,,,,,,,,,,,,,,,,,,,,,,,,,,118.67694734249612,132.462374378393,143.3593295760404,143.3593295760404,123.01385024291578,65.59899474773917,1.0,1.3,246,-268,480,-281,680,-255,66.19656538963318,66.19664716720581,66.19990658760071,66.21307873725891,66.35758829116821,66.35758829116821,66.35758829116821,66.35758829116821,66.35758829116821,66.35758829116821,66.35758829116821,69.16254305839539,2,2.947134494781494,None,,,,,,,,,,,,,,,,,,41,6,2025-02-19_12h08.23.329,comp,2024.2.4,55.954343284498016,2025-02-19 12h08.40.630013 -0500,
6,6,0,filler_square,None,None,None,None,None,None,None,None,None,None,1,1.1591901779174805,None,,,,,0,0,0,0,0,6,6,190,69.17913317680359,,,,,,,,,,,,,,,,,,,,,,,,,,,,,,,,,,,,,,,,,,,,,,,,,,,,,,,,,,,,,,,,,,,,,,,,,,,,,,,,,147.70382227621542,147.70382227621542,138.97491011428582,92.71327097024242,85.66670655611111,76.69680534840188,4.0,4.2,-216,15,0,-260,181,12,69.16445541381836,69.16453719139099,69.16776323318481,69.17913317680359,69.32628655433655,69.32628655433655,69.32628655433655,69.32628655433655,69.32628655433655,69.32628655433655,69.32628655433655,70.3434386253357,1,1.1591901779174805,None,,,,,,,,,,,,,,,,,,41,6,2025-02-19_12h08.23.329,comp,2024.2.4,55.954343284498016,2025-02-19 12h08.40.630013 -0500,
7,7,0,critical,wdh,35.0,2.1,lower,57.0,133.0,70.0,70.0,133.0,57.0,3,2.224303960800171,None,,,,,0,0,0,0,0,7,7,32,70.35927486419678,,,,,,,,,,,,,,,,,,,,,,,,,,,,,,,,,,,,,,,,,,,,,,,,,,,,,,,,,,,,,,,,,,,,,,,,,,,,,,,,,57.0,133.0,70.0,70.0,133.0,57.0,2.1,2.12,-198,-284,0,-258,160,288,70.34498691558838,70.34506392478943,70.3481650352478,70.35927486419678,70.51230597496033,70.51230597496033,70.51230597496033,70.51230597496033,70.51230597496033,70.51230597496033,70.51230597496033,72.5953540802002,3,2.224303960800171,None,,,,,,,,,,,,,,,,,,41,6,2025-02-19_12h08.23.329,comp,2024.2.4,55.954343284498016,2025-02-19 12h08.40.630013 -0500,
8,8,0,critical,hdw,35.0,2.1,upper,200.0,125.0,127.0,127.0,125.0,200.0,3,1.7876999378204346,None,,,,,0,0,0,0,0,8,8,21,72.61423778533936,,,,,,,,,,,,,,,,,,,,,,,,,,,,,,,,,,,,,,,,,,,,,,,,,,,,,,,,,,,,,,,,,,,,,,,,,,,,,,,,,200.0,125.0,127.0,127.0,125.0,200.0,2.1,2.12,-222,-254,0,-266,260,275,72.59680986404419,72.5968861579895,72.59987139701843,72.61423778533936,72.76249885559082,72.76249885559082,72.76249885559082,72.76249885559082,72.76249885559082,72.76249885559082,72.76249885559082,74.41339421272278,3,1.7876999378204346,None,,,,,,,,,,,,,,,,,,41,6,2025-02-19_12h08.23.329,comp,2024.2.4,55.954343284498016,2025-02-19 12h08.40.630013 -0500,
9,9,0,critical,dhw,35.0,4.0,lower,70.0,70.0,133.0,57.0,57.0,133.0,1,1.6019115447998047,None,,,,,0,0,0,0,0,9,9,52,74.42975640296936,,,,,,,,,,,,,,,,,,,,,,,,,,,,,,,,,,,,,,,,,,,,,,,,,,,,,,,,,,,,,,,,,,,,,,,,,,,,,,,,,70.0,70.0,133.0,57.0,57.0,133.0,4.0,4.2,-160,-12,0,-286,191,14,74.41499471664429,74.41512179374695,74.41903972625732,74.42975640296936,74.5803632736206,74.5803632736206,74.5803632736206,74.5803632736206,74.5803632736206,74.5803632736206,74.5803632736206,76.04619646072388,1,1.6019115447998047,None,,,,,,,,,,,,,,,,,,41,6,2025-02-19_12h08.23.329,comp,2024.2.4,55.954343284498016,2025-02-19 12h08.40.630013 -0500,
10,10,0,filler_square,None,None,None,None,None,None,None,None,None,None,3,1.4116010665893555,None,,,,,0,0,0,0,0,10,10,178,76.06243658065796,,,,,,,,,,,,,,,,,,,,,,,,,,,,,,,,,,,,,,,,,,,,,,,,,,,,,,,,,,,,,,,,,,,,,,,,,,,,,,,,,187.33517004130104,97.89603748077487,147.51529711650716,89.29662891693928,196.584580830562,196.584580830562,2.1,2.12,-190,-289,0,-278,239,275,76.0480489730835,76.04812335968018,76.05213761329651,76.06243658065796,76.21484184265137,76.21484184265137,76.21484184265137,76.21484184265137,76.21484184265137,76.21484184265137,76.21484184265137,77.47889804840088,3,1.4116010665893555,None,,,,,,,,,,,,,,,,,,41,6,2025-02-19_12h08.23.329,comp,2024.2.4,55.954343284498016,2025-02-19 12h08.40.630013 -0500,
11,11,0,critical,hwd,35.0,2.1,lower,133.0,57.0,57.0,133.0,70.0,70.0,1,1.6707749366760254,None,,,,,0,0,0,0,0,11,11,40,77.4968855381012,,,,,,,,,,,,,,,,,,,,,,,,,,,,,,,,,,,,,,,,,,,,,,,,,,,,,,,,,,,,,,,,,,,,,,,,,,,,,,,,,133.0,57.0,57.0,133.0,70.0,70.0,2.1,2.12,-191,-276,0,-263,198,282,77.48038482666016,77.48050379753113,77.48352718353271,77.4968855381012,77.64785027503967,77.64785027503967,77.64785027503967,77.64785027503967,77.64785027503967,77.64785027503967,77.64785027503967,79.17029881477356,1,1.6707749366760254,None,,,,,,,,,,,,,,,,,,41,6,2025-02-19_12h08.23.329,comp,2024.2.4,55.954343284498016,2025-02-19 12h08.40.630013 -0500,
12,12,0,critical,hwd,20.0,4.0,lower,133.0,57.0,57.0,133.0,78.0,78.0,3,1.2837727069854736,None,,,,,0,0,0,0,0,12,12,106,79.18861365318298,,,,,,,,,,,,,,,,,,,,,,,,,,,,,,,,,,,,,,,,,,,,,,,,,,,,,,,,,,,,,,,,,,,,,,,,,,,,,,,,,133.0,57.0,57.0,133.0,78.0,78.0,4.0,4.2,-191,4,0,-264,202,2,79.17191982269287,79.17203402519226,79.1753580570221,79.18861365318298,79.32950139045715,79.32950139045715,79.32950139045715,79.32950139045715,79.32950139045715,79.32950139045715,79.32950139045715,80.48111176490784,3,1.2837727069854736,None,,,,,,,,,,,,,,,,,,41,6,2025-02-19_12h08.23.329,comp,2024.2.4,55.954343284498016,2025-02-19 12h08.40.630013 -0500,
13,13,0,critical,whd,35.0,3.0,lower,57.0,133.0,133.0,57.0,70.0,70.0,1,1.4715306758880615,None,,,,,0,0,0,0,0,13,13,86,80.49671125411987,,,,,,,,,,,,,,,,,,,,,,,,,,,,,,,,,,,,,,,,,,,,,,,,,,,,,,,,,,,,,,,,,,,,,,,,,,,,,,,,,57.0,133.0,133.0,57.0,70.0,70.0,3.0,3.2,-191,-280,0,-10,160,287,80.48264193534851,80.48271608352661,80.48603677749634,80.49671125411987,80.65187501907349,80.65187501907349,80.65187501907349,80.65187501907349,80.65187501907349,80.65187501907349,80.65187501907349,81.97646808624268,1,1.4715306758880615,None,,,,,,,,,,,,,,,,,,41,6,2025-02-19_12h08.23.329,comp,2024.2.4,55.954343284498016,2025-02-19 12h08.40.630013 -0500,
14,14,0,filler_random,None,None,None,None,None,None,None,None,None,None,3,1.7835958003997803,None,,,,,0,0,0,0,0,14,14,139,81.99273443222046,,,,,,,,,,,,,,,,,,,,,,,,,,,,,,,,,,,,,,,,,,,,,,,,,,,,,,,,,,,,,,,,,,,,,,,,,,,,,,,,,182.1152960870305,139.8904244019128,190.62087500037947,163.43135105427328,188.15205516269066,169.78237227952536,4.0,4.2,-248,-5,0,-253,263,-14,81.9781641960144,81.97829461097717,81.98158264160156,81.99273443222046,82.14402890205383,82.14402890205383,82.14402890205383,82.14402890205383,82.14402890205383,82.14402890205383,82.14402890205383,83.78502893447876,3,1.7835958003997803,None,,,,,,,,,,,,,,,,,,41,6,2025-02-19_12h08.23.329,comp,2024.2.4,55.954343284498016,2025-02-19 12h08.40.630013 -0500,
15,15,0,critical,dwh,35.0,1.0,upper,127.0,127.0,125.0,200.0,200.0,125.0,3,1.1644527912139893,None,,,,,0,0,0,0,0,15,15,61,83.80323386192322,,,,,,,,,,,,,,,,,,,,,,,,,,,,,,,,,,,,,,,,,,,,,,,,,,,,,,,,,,,,,,,,,,,,,,,,,,,,,,,,,127.0,127.0,125.0,200.0,200.0,125.0,1.0,1.2,-260,15,0,6,258,16,83.7867259979248,83.78684377670288,83.79008293151855,83.80323386192322,83.9476408958435,83.9476408958435,83.9476408958435,83.9476408958435,83.9476408958435,83.9476408958435,83.9476408958435,84.98276233673096,3,1.1644527912139893,None,,,,,,,,,,,,,,,,,,41,6,2025-02-19_12h08.23.329,comp,2024.2.4,55.954343284498016,2025-02-19 12h08.40.630013 -0500,
16,16,0,critical,dhw,35.0,2.1,upper,127.0,127.0,200.0,125.0,125.0,200.0,3,0.889054536819458,None,,,,,0,0,0,0,0,16,16,1,84.99845361709595,,,,,,,,,,,,,,,,,,,,,,,,,,,,,,,,,,,,,,,,,,,,,,,,,,,,,,,,,,,,,,,,,,,,,,,,,,,,,,,,,127.0,127.0,200.0,125.0,125.0,200.0,2.1,2.12,-222,-285,0,-283,258,275,84.98446583747864,84.98460268974304,84.98808121681213,84.99845361709595,85.15155696868896,85.15155696868896,85.15155696868896,85.15155696868896,85.15155696868896,85.15155696868896,85.15155696868896,85.90082669258118,3,0.889054536819458,None,,,,,,,,,,,,,,,,,,41,6,2025-02-19_12h08.23.329,comp,2024.2.4,55.954343284498016,2025-02-19 12h08.40.630013 -0500,
17,17,0,critical,whd,35.0,2.1,upper,125.0,200.0,200.0,125.0,127.0,127.0,2,1.9138545989990234,None,,,,,0,0,0,0,0,17,17,13,85.9177303314209,,,,,,,,,,,,,,,,,,,,,,,,,,,,,,,,,,,,,,,,,,,,,,,,,,,,,,,,,,,,,,,,,,,,,,,,,,,,,,,,,125.0,200.0,200.0,125.0,127.0,127.0,2.1,2.12,-258,-287,0,-253,222,267,85.9025399684906,85.90261769294739,85.90623569488525,85.9177303314209,86.06574487686157,86.06574487686157,86.06574487686157,86.06574487686157,86.06574487686157,86.06574487686157,86.06574487686157,87.84961295127869,2,1.9138545989990234,None,,,,,,,,,,,,,,,,,,41,6,2025-02-19_12h08.23.329,comp,2024.2.4,55.954343284498016,2025-02-19 12h08.40.630013 -0500,
18,18,0,filler_square,None,None,None,None,None,None,None,None,None,None,2,2.223132371902466,None,,,,,0,0,0,0,0,18,18,183,87.86564087867737,,,,,,,,,,,,,,,,,,,,,,,,,,,,,,,,,,,,,,,,,,,,,,,,,,,,,,,,,,,,,,,,,,,,,,,,,,,,,,,,,59.91969021678036,59.681388827987504,64.29415105846888,64.29415105846888,57.48217543992764,60.37028590267384,2.2,2.21,-158,-287,0,264,158,270,87.85163640975952,87.85171103477478,87.85519027709961,87.86564087867737,88.0148184299469,88.0148184299469,88.0148184299469,88.0148184299469,88.0148184299469,88.0148184299469,88.0148184299469,90.10732841491699,2,2.223132371902466,None,,,,,,,,,,,,,,,,,,41,6,2025-02-19_12h08.23.329,comp,2024.2.4,55.954343284498016,2025-02-19 12h08.40.630013 -0500,
19,19,0,critical,hdw,35.0,1.0,lower,133.0,57.0,70.0,70.0,57.0,133.0,1,2.137930393218994,None,,,,,0,0,0,0,0,19,19,108,90.12698173522949,,,,,,,,,,,,,,,,,,,,,,,,,,,,,,,,,,,,,,,,,,,,,,,,,,,,,,,,,,,,,,,,,,,,,,,,,,,,,,,,,133.0,57.0,70.0,70.0,57.0,133.0,1.0,1.1,-640,255,-480,272,-282,281,90.10886740684509,90.10894179344177,90.11178684234619,90.12698173522949,90.26465702056885,90.26465702056885,90.26465702056885,90.26465702056885,90.26465702056885,90.26465702056885,90.26465702056885,92.27228474617004,1,2.137930393218994,None,,,,,,,,,,,,,,,,,,41,6,2025-02-19_12h08.23.329,comp,2024.2.4,55.954343284498016,2025-02-19 12h08.40.630013 -0500,
20,20,0,filler_random,None,None,None,None,None,None,None,None,None,None,3,1.4235656261444092,None,,,,,0,0,0,0,0,20,20,131,92.28860855102539,,,,,,,,,,,,,,,,,,,,,,,,,,,,,,,,,,,,,,,,,,,,,,,,,,,,,,,,,,,,,,,,,,,,,,,,,,,,,,,,,81.00283730063661,79.52324903726812,151.54873361250492,85.9972361594283,135.93982434456387,155.04853084379545,4.0,4.1,-179,-284,0,-14,217,-265,92.27402353286743,92.27410125732422,92.27701830863953,92.28860855102539,92.4352867603302,92.4352867603302,92.4352867603302,92.4352867603302,92.4352867603302,92.4352867603302,92.4352867603302,93.72128486633301,3,1.4235656261444092,None,,,,,,,,,,,,,,,,,,41,6,2025-02-19_12h08.23.329,comp,2024.2.4,55.954343284498016,2025-02-19 12h08.40.630013 -0500,
21,21,0,critical,whd,35.0,1.0,upper,125.0,200.0,200.0,125.0,127.0,127.0,2,2.130084276199341,None,,,,,0,0,0,0,0,21,21,85,93.742347240448,,,,,,,,,,,,,,,,,,,,,,,,,,,,,,,,,,,,,,,,,,,,,,,,,,,,,,,,,,,,,,,,,,,,,,,,,,,,,,,,,125.0,200.0,200.0,125.0,127.0,127.0,1.0,1.3,222,-275,480,-289,702,-289,93.72299098968506,93.72308921813965,93.72658896446228,93.742347240448,93.88450455665588,93.88450455665588,93.88450455665588,93.88450455665588,93.88450455665588,93.88450455665588,93.88450455665588,95.87885451316833,2,2.130084276199341,None,,,,,,,,,,,,,,,,,,41,6,2025-02-19_12h08.23.329,comp,2024.2.4,55.954343284498016,2025-02-19 12h08.40.630013 -0500,
22,22,0,critical,dwh,20.0,3.0,lower,78.0,78.0,57.0,133.0,133.0,57.0,2,1.0233595371246338,None,,,,,0,0,0,0,0,22,22,68,95.89652371406555,,,,,,,,,,,,,,,,,,,,,,,,,,,,,,,,,,,,,,,,,,,,,,,,,,,,,,,,,,,,,,,,,,,,,,,,,,,,,,,,,78.0,78.0,57.0,133.0,133.0,57.0,3.0,3.1,-202,262,0,-5,191,-270,95.88032913208008,95.88042068481445,95.88322877883911,95.89652371406555,96.03334546089172,96.03334546089172,96.03334546089172,96.03334546089172,96.03334546089172,96.03334546089172,96.03334546089172,96.92349076271057,2,1.0233595371246338,None,,,,,,,,,,,,,,,,,,41,6,2025-02-19_12h08.23.329,comp,2024.2.4,55.954343284498016,2025-02-19 12h08.40.630013 -0500,
23,23,0,critical,whd,20.0,2.1,upper,125.0,200.0,200.0,125.0,141.0,141.0,2,1.5815238952636719,None,,,,,0,0,0,0,0,23,23,15,96.93859767913818,,,,,,,,,,,,,,,,,,,,,,,,,,,,,,,,,,,,,,,,,,,,,,,,,,,,,,,,,,,,,,,,,,,,,,,,,,,,,,,,,125.0,200.0,200.0,125.0,141.0,141.0,2.1,2.12,-258,-250,0,-277,229,274,96.9250705242157,96.9251480102539,96.92805624008179,96.93859767913818,97.08618998527527,97.08618998527527,97.08618998527527,97.08618998527527,97.08618998527527,97.08618998527527,97.08618998527527,98.53637528419495,2,1.5815238952636719,None,,,,,,,,,,,,,,,,,,41,6,2025-02-19_12h08.23.329,comp,2024.2.4,55.954343284498016,2025-02-19 12h08.40.630013 -0500,
24,24,0,critical,hwd,20.0,2.1,lower,133.0,57.0,57.0,133.0,78.0,78.0,2,1.0395166873931885,None,,,,,0,0,0,0,0,24,24,42,98.55222678184509,,,,,,,,,,,,,,,,,,,,,,,,,,,,,,,,,,,,,,,,,,,,,,,,,,,,,,,,,,,,,,,,,,,,,,,,,,,,,,,,,133.0,57.0,57.0,133.0,78.0,78.0,2.1,2.11,-191,252,0,281,202,-254,98.53794980049133,98.53802180290222,98.54112458229065,98.55222678184509,98.70979762077332,98.70979762077332,98.70979762077332,98.70979762077332,98.70979762077332,98.70979762077332,98.70979762077332,99.60218930244446,2,1.0395166873931885,None,,,,,,,,,,,,,,,,,,41,6,2025-02-19_12h08.23.329,comp,2024.2.4,55.954343284498016,2025-02-19 12h08.40.630013 -0500,
25,25,0,filler_square,None,None,None,None,None,None,None,None,None,None,1,1.2049667835235596,None,,,,,0,0,0,0,0,25,25,189,99.6187813282013,,,,,,,,,,,,,,,,,,,,,,,,,,,,,,,,,,,,,,,,,,,,,,,,,,,,,,,,,,,,,,,,,,,,,,,,,,,,,,,,,138.56220087685003,138.56220087685003,86.03482408065257,81.65050049150855,73.67210168595264,114.74679469803141,3.0,3.1,-206,289,0,13,194,-264,99.60401844978333,99.60409426689148,99.60714197158813,99.6187813282013,99.77003312110901,99.77003312110901,99.77003312110901,99.77003312110901,99.77003312110901,99.77003312110901,99.77003312110901,100.83694744110107,1,1.2049667835235596,None,,,,,,,,,,,,,,,,,,41,6,2025-02-19_12h08.23.329,comp,2024.2.4,55.954343284498016,2025-02-19 12h08.40.630013 -0500,
26,26,0,critical,wdh,35.0,1.0,lower,57.0,133.0,70.0,70.0,133.0,57.0,1,2.979310989379883,None,,,,,0,0,0,0,0,26,26,72,100.85285949707031,,,,,,,,,,,,,,,,,,,,,,,,,,,,,,,,,,,,,,,,,,,,,,,,,,,,,,,,,,,,,,,,,,,,,,,,,,,,,,,,,57.0,133.0,70.0,70.0,133.0,57.0,1.0,1.1,-678,262,-480,273,-320,289,100.83849096298218,100.8385660648346,100.84258389472961,100.85285949707031,101.00048398971558,101.00048398971558,101.00048398971558,101.00048398971558,101.00048398971558,101.00048398971558,101.00048398971558,103.84028005599976,1,2.979310989379883,None,,,,,,,,,,,,,,,,,,41,6,2025-02-19_12h08.23.329,comp,2024.2.4,55.954343284498016,2025-02-19 12h08.40.630013 -0500,
27,27,0,filler_square,None,None,None,None,None,None,None,None,None,None,2,12.319323778152466,None,,,,,0,0,0,0,0,27,27,171,103.85648679733276,,,,,,,,,,,,,,,,,,,,,,,,,,,,,,,,,,,,,,,,,,,,,,,,,,,,,,,,,,,,,,,,,,,,,,,,,,,,,,,,,94.7179237828435,74.83953389781328,143.61719834904892,143.61719834904892,64.81106473469035,124.4685911198148,1.0,1.2,-205,13,0,2,230,12,103.8421311378479,103.84228444099426,103.84562945365906,103.85648679733276,104.00330114364624,104.00330114364624,104.00330114364624,104.00330114364624,104.00330114364624,104.00330114364624,104.00330114364624,116.1917679309845,2,12.319323778152466,None,,,,,,,,,,,,,,,,,,41,6,2025-02-19_12h08.23.329,comp,2024.2.4,55.954343284498016,2025-02-19 12h08.40.630013 -0500,
28,28,0,filler_square,None,None,None,None,None,None,None,None,None,None,1,2.5775668621063232,None,,,,,0,0,0,0,0,28,28,197,116.20859503746033,,,,,,,,,,,,,,,,,,,,,,,,,,,,,,,,,,,,,,,,,,,,,,,,,,,,,,,,,,,,,,,,,,,,,,,,,,,,,,,,,57.336437074576295,57.15347630901501,58.80250937272237,59.26476610924157,59.39633705979723,59.39633705979723,4.0,4.1,-154,-263,0,14,155,-262,116.19404244422913,116.19412088394165,116.19820070266724,116.20859503746033,116.35873913764954,116.35873913764954,116.35873913764954,116.35873913764954,116.35873913764954,116.35873913764954,116.35873913764954,118.79191017150879,1,2.5775668621063232,None,,,,,,,,,,,,,,,,,,41,6,2025-02-19_12h08.23.329,comp,2024.2.4,55.954343284498016,2025-02-19 12h08.40.630013 -0500,
29,29,0,critical,dwh,35.0,3.0,upper,127.0,127.0,125.0,200.0,200.0,125.0,2,1.511918306350708,None,,,,,0,0,0,0,0,29,29,63,118.8084614276886,,,,,,,,,,,,,,,,,,,,,,,,,,,,,,,,,,,,,,,,,,,,,,,,,,,,,,,,,,,,,,,,,,,,,,,,,,,,,,,,,127.0,127.0,125.0,200.0,200.0,125.0,3.0,3.1,-260,284,0,8,258,-289,118.79349827766418,118.7935733795166,118.79684853553772,118.8084614276886,118.95774435997009,118.95774435997009,118.95774435997009,118.95774435997009,118.95774435997009,118.95774435997009,118.95774435997009,120.32575178146362,2,1.511918306350708,None,,,,,,,,,,,,,,,,,,41,6,2025-02-19_12h08.23.329,comp,2024.2.4,55.954343284498016,2025-02-19 12h08.40.630013 -0500,
30,30,0,filler_random,None,None,None,None,None,None,None,None,None,None,3,1.682079792022705,None,,,,,0,0,0,0,0,30,30,157,120.34228324890137,,,,,,,,,,,,,,,,,,,,,,,,,,,,,,,,,,,,,,,,,,,,,,,,,,,,,,,,,,,,,,,,,,,,,,,,,,,,,,,,,157.22789312380814,59.28631914495562,146.34279400029857,63.13095343257414,169.4259994936056,158.3314499159502,1.0,1.2,-157,-19,0,2,207,-8,120.32749366760254,120.32759976387024,120.33085584640503,120.34228324890137,120.49825501441956,120.49825501441956,120.49825501441956,120.49825501441956,120.49825501441956,120.49825501441956,120.49825501441956,122.02701306343079,3,1.682079792022705,None,,,,,,,,,,,,,,,,,,41,6,2025-02-19_12h08.23.329,comp,2024.2.4,55.954343284498016,2025-02-19 12h08.40.630013 -0500,
31,31,0,filler_square,None,None,None,None,None,None,None,None,None,None,2,1.4053139686584473,None,,,,,0,0,0,0,0,31,31,185,122.0431456565857,,,,,,,,,,,,,,,,,,,,,,,,,,,,,,,,,,,,,,,,,,,,,,,,,,,,,,,,,,,,,,,,,,,,,,,,,,,,,,,,,71.07725044620105,63.49103178177947,178.7108517506521,178.7108517506521,131.47189635674698,122.21106086188522,2.2,2.21,-217,-258,0,264,246,270,122.02887225151062,122.02895092964172,122.03227615356445,122.0431456565857,122.19719552993774,122.19719552993774,122.19719552993774,122.19719552993774,122.19719552993774,122.19719552993774,122.19719552993774,123.45106410980225,2,1.4053139686584473,None,,,,,,,,,,,,,,,,,,41,6,2025-02-19_12h08.23.329,comp,2024.2.4,55.954343284498016,2025-02-19 12h08.40.630013 -0500,
32,32,0,critical,whd,35.0,2.1,lower,57.0,133.0,133.0,57.0,70.0,70.0,1,1.8220925331115723,None,,,,,0,0,0,0,0,32,32,12,123.46777963638306,,,,,,,,,,,,,,,,,,,,,,,,,,,,,,,,,,,,,,,,,,,,,,,,,,,,,,,,,,,,,,,,,,,,,,,,,,,,,,,,,57.0,133.0,133.0,57.0,70.0,70.0,2.1,2.12,-191,-287,0,-279,160,273,123.45268273353577,123.45275974273682,123.4560751914978,123.46777963638306,123.61049437522888,123.61049437522888,123.61049437522888,123.61049437522888,123.61049437522888,123.61049437522888,123.61049437522888,125.29315876960754,1,1.8220925331115723,None,,,,,,,,,,,,,,,,,,41,6,2025-02-19_12h08.23.329,comp,2024.2.4,55.954343284498016,2025-02-19 12h08.40.630013 -0500,
33,33,0,filler_random,None,None,None,None,None,None,None,None,None,None,2,1.1148045063018799,None,,,,,0,0,0,0,0,33,33,142,125.30950832366943,,,,,,,,,,,,,,,,,,,,,,,,,,,,,,,,,,,,,,,,,,,,,,,,,,,,,,,,,,,,,,,,,,,,,,,,,,,,,,,,,115.30937036248392,72.23986855964135,159.07811089609663,79.17620217377313,81.88872703076859,196.8847609499227,2.2,2.21,-172,-281,0,281,234,267,125.29506802558899,125.2951488494873,125.29844212532043,125.30950832366943,125.46375846862793,125.46375846862793,125.46375846862793,125.46375846862793,125.46375846862793,125.46375846862793,125.46375846862793,126.4324471950531,2,1.1148045063018799,None,,,,,,,,,,,,,,,,,,41,6,2025-02-19_12h08.23.329,comp,2024.2.4,55.954343284498016,2025-02-19 12h08.40.630013 -0500,
34,34,0,critical,wdh,20.0,2.1,upper,125.0,200.0,141.0,141.0,200.0,125.0,1,1.6201834678649902,None,,,,,0,0,0,0,0,34,34,35,126.45208597183228,,,,,,,,,,,,,,,,,,,,,,,,,,,,,,,,,,,,,,,,,,,,,,,,,,,,,,,,,,,,,,,,,,,,,,,,,,,,,,,,,125.0,200.0,141.0,141.0,200.0,125.0,2.1,2.11,-266,266,0,284,229,-252,126.43400168418884,126.43408012390137,126.43702864646912,126.45208597183228,126.59584403038025,126.59584403038025,126.59584403038025,126.59584403038025,126.59584403038025,126.59584403038025,126.59584403038025,128.08004140853882,1,1.6201834678649902,None,,,,,,,,,,,,,,,,,,41,6,2025-02-19_12h08.23.329,comp,2024.2.4,55.954343284498016,2025-02-19 12h08.40.630013 -0500,
35,35,0,critical,hwd,35.0,2.1,lower,133.0,57.0,57.0,133.0,70.0,70.0,1,1.2145006656646729,None,,,,,0,0,0,0,0,35,35,16,128.0976927280426,,,,,,,,,,,,,,,,,,,,,,,,,,,,,,,,,,,,,,,,,,,,,,,,,,,,,,,,,,,,,,,,,,,,,,,,,,,,,,,,,133.0,57.0,57.0,133.0,70.0,70.0,2.1,2.11,-191,277,0,285,198,-274,128.08156442642212,128.08163976669312,128.08465719223022,128.0976927280426,128.24859166145325,128.24859166145325,128.24859166145325,128.24859166145325,128.24859166145325,128.24859166145325,128.24859166145325,129.3292396068573,1,1.2145006656646729,None,,,,,,,,,,,,,,,,,,41,6,2025-02-19_12h08.23.329,comp,2024.2.4,55.954343284498016,2025-02-19 12h08.40.630013 -0500,
36,36,0,critical,hdw,20.0,4.0,lower,133.0,57.0,78.0,78.0,57.0,133.0,1,1.9835870265960693,None,,,,,0,0,0,0,0,36,36,118,129.34449195861816,,,,,,,,,,,,,,,,,,,,,,,,,,,,,,,,,,,,,,,,,,,,,,,,,,,,,,,,,,,,,,,,,,,,,,,,,,,,,,,,,133.0,57.0,78.0,78.0,57.0,133.0,4.0,4.2,-164,9,0,-286,202,-8,129.33075857162476,129.33083152770996,129.33402490615845,129.34449195861816,129.4964485168457,129.4964485168457,129.4964485168457,129.4964485168457,129.4964485168457,129.4964485168457,129.4964485168457,131.3300392627716,1,1.9835870265960693,None,,,,,,,,,,,,,,,,,,41,6,2025-02-19_12h08.23.329,comp,2024.2.4,55.954343284498016,2025-02-19 12h08.40.630013 -0500,
37,37,0,critical,dwh,20.0,2.1,upper,141.0,141.0,125.0,200.0,200.0,125.0,3,2.2136855125427246,None,,,,,0,0,0,0,0,37,37,7,131.346604347229,,,,,,,,,,,,,,,,,,,,,,,,,,,,,,,,,,,,,,,,,,,,,,,,,,,,,,,,,,,,,,,,,,,,,,,,,,,,,,,,,141.0,141.0,125.0,200.0,200.0,125.0,2.1,2.12,-266,-288,0,-283,258,284,131.3317039012909,131.33178186416626,131.33497667312622,131.346604347229,131.4966561794281,131.4966561794281,131.4966561794281,131.4966561794281,131.4966561794281,131.4966561794281,131.4966561794281,133.5711224079132,3,2.2136855125427246,None,,,,,,,,,,,,,,,,,,41,6,2025-02-19_12h08.23.329,comp,2024.2.4,55.954343284498016,2025-02-19 12h08.40.630013 -0500,
38,38,0,critical,hdw,35.0,3.0,upper,200.0,125.0,127.0,127.0,125.0,200.0,3,1.7334246635437012,None,,,,,0,0,0,0,0,38,38,111,133.58655214309692,,,,,,,,,,,,,,,,,,,,,,,,,,,,,,,,,,,,,,,,,,,,,,,,,,,,,,,,,,,,,,,,,,,,,,,,,,,,,,,,,200.0,125.0,127.0,127.0,125.0,200.0,3.0,3.1,-222,281,0,16,260,-276,133.5727503299713,133.572829246521,133.57578015327454,133.58655214309692,133.73073196411133,133.73073196411133,133.73073196411133,133.73073196411133,133.73073196411133,133.73073196411133,133.73073196411133,135.33106970787048,3,1.7334246635437012,None,,,,,,,,,,,,,,,,,,41,6,2025-02-19_12h08.23.329,comp,2024.2.4,55.954343284498016,2025-02-19 12h08.40.630013 -0500,
39,39,0,catch,None,None,None,None,None,None,None,None,None,None,1,1.3482940196990967,None,,,,,0,0,0,0,0,39,39,127,135.34766697883606,,,,,,,,,,,,,,,,,,,,,,,,,,,,,,,,,,,,,,,,,,,,,,,,,,,,,,,,,,,,,,,,,,,,,,,,,,,,,,,,,174,151,71,119,127,63,2.2,2.21,-231,-256,0,254,187,252,135.33295607566833,135.33303546905518,135.336172580719,135.34766697883606,135.4966902732849,135.4966902732849,135.4966902732849,135.4966902732849,135.4966902732849,135.4966902732849,135.4966902732849,136.69785261154175,1,1.3482940196990967,None,,,,,,,,,,,,,,,,,,41,6,2025-02-19_12h08.23.329,comp,2024.2.4,55.954343284498016,2025-02-19 12h08.40.630013 -0500,
40,40,0,critical,whd,20.0,3.0,upper,125.0,200.0,200.0,125.0,141.0,141.0,2,1.797602653503418,None,,,,,0,0,0,0,0,40,40,93,136.71489000320435,,,,,,,,,,,,,,,,,,,,,,,,,,,,,,,,,,,,,,,,,,,,,,,,,,,,,,,,,,,,,,,,,,,,,,,,,,,,,,,,,125.0,200.0,200.0,125.0,141.0,141.0,3.0,3.2,-258,-288,0,8,229,250,136.6993749141693,136.69947814941406,136.7030873298645,136.71489000320435,136.86862182617188,136.86862182617188,136.86862182617188,136.86862182617188,136.86862182617188,136.86862182617188,136.86862182617188,138.51601028442383,2,1.797602653503418,None,,,,,,,,,,,,,,,,,,41,6,2025-02-19_12h08.23.329,comp,2024.2.4,55.954343284498016,2025-02-19 12h08.40.630013 -0500,
41,41,0,filler_square,None,None,None,None,None,None,None,None,None,None,1,1.860142469406128,None,,,,,0,0,0,0,0,41,41,194,138.53250908851624,,,,,,,,,,,,,,,,,,,,,,,,,,,,,,,,,,,,,,,,,,,,,,,,,,,,,,,,,,,,,,,,,,,,,,,,,,,,,,,,,199.44207127965993,199.44207127965993,140.79541099890423,119.466610264608,83.06950397673951,193.12273508775584,2.2,2.21,-255,-286,0,288,252,254,138.5177562236786,138.5178325176239,138.52182340621948,138.53250908851624,138.68285036087036,138.68285036087036,138.68285036087036,138.68285036087036,138.68285036087036,138.68285036087036,138.68285036087036,140.40005683898926,1,1.860142469406128,None,,,,,,,,,,,,,,,,,,41,6,2025-02-19_12h08.23.329,comp,2024.2.4,55.954343284498016,2025-02-19 12h08.40.630013 -0500,
42,42,0,critical,dhw,35.0,1.0,lower,70.0,70.0,133.0,57.0,57.0,133.0,2,1.9237005710601807,None,,,,,0,0,0,0,0,42,42,48,140.42032504081726,,,,,,,,,,,,,,,,,,,,,,,,,,,,,,,,,,,,,,,,,,,,,,,,,,,,,,,,,,,,,,,,,,,,,,,,,,,,,,,,,70.0,70.0,133.0,57.0,57.0,133.0,1.0,1.2,-160,-18,0,4,191,-15,140.4016215801239,140.4017014503479,140.40502738952637,140.42032504081726,140.5542917251587,140.5542917251587,140.5542917251587,140.5542917251587,140.5542917251587,140.5542917251587,140.5542917251587,142.35122418403625,2,1.9237005710601807,None,,,,,,,,,,,,,,,,,,41,6,2025-02-19_12h08.23.329,comp,2024.2.4,55.954343284498016,2025-02-19 12h08.40.630013 -0500,
43,43,0,critical,whd,20.0,1.0,lower,57.0,133.0,133.0,57.0,78.0,78.0,2,0.8646237850189209,None,,,,,0,0,0,0,0,43,43,90,142.36703991889954,,,,,,,,,,,,,,,,,,,,,,,,,,,,,,,,,,,,,,,,,,,,,,,,,,,,,,,,,,,,,,,,,,,,,,,,,,,,,,,,,57.0,133.0,133.0,57.0,78.0,78.0,1.0,1.2,-191,13,0,-9,164,17,142.3526895046234,142.35276627540588,142.35621094703674,142.36703991889954,142.5243284702301,142.5243284702301,142.5243284702301,142.5243284702301,142.5243284702301,142.5243284702301,142.5243284702301,143.2497434616089,2,0.8646237850189209,None,,,,,,,,,,,,,,,,,,41,6,2025-02-19_12h08.23.329,comp,2024.2.4,55.954343284498016,2025-02-19 12h08.40.630013 -0500,
44,44,0,critical,wdh,20.0,1.0,upper,125.0,200.0,141.0,141.0,200.0,125.0,1,1.9669663906097412,None,,,,,0,0,0,0,0,44,44,79,143.265958070755,,,,,,,,,,,,,,,,,,,,,,,,,,,,,,,,,,,,,,,,,,,,,,,,,,,,,,,,,,,,,,,,,,,,,,,,,,,,,,,,,125.0,200.0,141.0,141.0,200.0,125.0,1.0,1.3,214,-258,480,-252,709,-256,143.2512490749359,143.25132489204407,143.25468516349792,143.265958070755,143.42248678207397,143.42248678207397,143.42248678207397,143.42248678207397,143.42248678207397,143.42248678207397,143.42248678207397,145.23765230178833,1,1.9669663906097412,None,,,,,,,,,,,,,,,,,,41,6,2025-02-19_12h08.23.329,comp,2024.2.4,55.954343284498016,2025-02-19 12h08.40.630013 -0500,
45,45,0,filler_random,None,None,None,None,None,None,None,None,None,None,2,1.2350401878356934,None,,,,,0,0,0,0,0,45,45,135,145.25264835357666,,,,,,,,,,,,,,,,,,,,,,,,,,,,,,,,,,,,,,,,,,,,,,,,,,,,,,,,,,,,,,,,,,,,,,,,,,,,,,,,,147.00511498292778,152.24581542308923,106.28339835369137,158.69745660839868,194.8761550577132,118.52481045739063,3.0,3.2,-251,-290,0,-19,235,256,145.2399115562439,145.23999333381653,145.24288415908813,145.25264835357666,145.3996388912201,145.3996388912201,145.3996388912201,145.3996388912201,145.3996388912201,145.3996388912201,145.3996388912201,146.50092911720276,2,1.2350401878356934,None,,,,,,,,,,,,,,,,,,41,6,2025-02-19_12h08.23.329,comp,2024.2.4,55.954343284498016,2025-02-19 12h08.40.630013 -0500,
46,46,0,critical,hdw,20.0,3.0,upper,200.0,125.0,141.0,141.0,125.0,200.0,1,1.6271603107452393,None,,,,,0,0,0,0,0,46,46,117,146.51651191711426,,,,,,,,,,,,,,,,,,,,,,,,,,,,,,,,,,,,,,,,,,,,,,,,,,,,,,,,,,,,,,,,,,,,,,,,,,,,,,,,,200.0,125.0,141.0,141.0,125.0,200.0,3.0,3.1,-229,257,0,20,266,-285,146.50246930122375,146.50254845619202,146.50576519966125,146.51651191711426,146.65916419029236,146.65916419029236,146.65916419029236,146.65916419029236,146.65916419029236,146.65916419029236,146.65916419029236,148.15548658370972,1,1.6271603107452393,None,,,,,,,,,,,,,,,,,,41,6,2025-02-19_12h08.23.329,comp,2024.2.4,55.954343284498016,2025-02-19 12h08.40.630013 -0500,
47,47,0,critical,whd,20.0,4.0,lower,57.0,133.0,133.0,57.0,78.0,78.0,1,2.3713436126708984,None,,,,,0,0,0,0,0,47,47,94,148.17304873466492,,,,,,,,,,,,,,,,,,,,,,,,,,,,,,,,,,,,,,,,,,,,,,,,,,,,,,,,,,,,,,,,,,,,,,,,,,,,,,,,,57.0,133.0,133.0,57.0,78.0,78.0,4.0,4.2,-191,18,0,-264,164,4,148.15706729888916,148.15714383125305,148.15998077392578,148.17304873466492,148.3183262348175,148.3183262348175,148.3183262348175,148.3183262348175,148.3183262348175,148.3183262348175,148.3183262348175,150.55383563041687,1,2.3713436126708984,None,,,,,,,,,,,,,,,,,,41,6,2025-02-19_12h08.23.329,comp,2024.2.4,55.954343284498016,2025-02-19 12h08.40.630013 -0500,
48,48,0,critical,hdw,35.0,3.0,lower,133.0,57.0,70.0,70.0,57.0,133.0,1,2.18914794921875,None,,,,,0,0,0,0,0,48,48,110,150.5704779624939,,,,,,,,,,,,,,,,,,,,,,,,,,,,,,,,,,,,,,,,,,,,,,,,,,,,,,,,,,,,,,,,,,,,,,,,,,,,,,,,,133.0,57.0,70.0,70.0,57.0,133.0,3.0,3.1,-160,259,0,15,198,-250,150.5553503036499,150.55545806884766,150.5586006641388,150.5704779624939,150.71797060966492,150.71797060966492,150.71797060966492,150.71797060966492,150.71797060966492,150.71797060966492,150.71797060966492,152.77023077011108,1,2.18914794921875,None,,,,,,,,,,,,,,,,,,41,6,2025-02-19_12h08.23.329,comp,2024.2.4,55.954343284498016,2025-02-19 12h08.40.630013 -0500,
49,49,0,critical,dhw,35.0,2.1,lower,70.0,70.0,133.0,57.0,57.0,133.0,3,1.8127710819244385,None,,,,,0,0,0,0,0,49,49,24,152.78728127479553,,,,,,,,,,,,,,,,,,,,,,,,,,,,,,,,,,,,,,,,,,,,,,,,,,,,,,,,,,,,,,,,,,,,,,,,,,,,,,,,,70.0,70.0,133.0,57.0,57.0,133.0,2.1,2.12,-160,-284,0,-281,191,266,152.77173900604248,152.7718141078949,152.77576160430908,152.78728127479553,152.93345093727112,152.93345093727112,152.93345093727112,152.93345093727112,152.93345093727112,152.93345093727112,152.93345093727112,154.60298871994019,3,1.8127710819244385,None,,,,,,,,,,,,,,,,,,41,6,2025-02-19_12h08.23.329,comp,2024.2.4,55.954343284498016,2025-02-19 12h08.40.630013 -0500,
50,50,0,critical,hwd,20.0,2.1,upper,200.0,125.0,125.0,200.0,141.0,141.0,1,3.1764581203460693,None,,,,,0,0,0,0,0,50,50,19,154.62328028678894,,,,,,,,,,,,,,,,,,,,,,,,,,,,,,,,,,,,,,,,,,,,,,,,,,,,,,,,,,,,,,,,,,,,,,,,,,,,,,,,,200.0,125.0,125.0,200.0,141.0,141.0,2.1,2.11,-258,278,0,258,266,-264,154.60452032089233,154.60459995269775,154.60768961906433,154.62328028678894,154.7708396911621,154.7708396911621,154.7708396911621,154.7708396911621,154.7708396911621,154.7708396911621,154.7708396911621,157.81153011322021,1,3.1764581203460693,None,,,,,,,,,,,,,,,,,,41,6,2025-02-19_12h08.23.329,comp,2024.2.4,55.954343284498016,2025-02-19 12h08.40.630013 -0500,
51,51,0,filler_square,None,None,None,None,None,None,None,None,None,None,1,2.2801871299743652,None,,,,,0,0,0,0,0,51,51,186,157.83150267601013,,,,,,,,,,,,,,,,,,,,,,,,,,,,,,,,,,,,,,,,,,,,,,,,,,,,,,,,,,,,,,,,,,,,,,,,,,,,,,,,,186.74430614797345,186.74430614797345,95.35848802730919,127.63483409603259,137.61356659003795,183.319208144372,2.1,2.12,-253,-283,0,-265,251,281,157.81331729888916,157.81339573860168,157.81623339653015,157.83150267601013,157.973158121109,157.973158121109,157.973158121109,157.973158121109,157.973158121109,157.973158121109,157.973158121109,160.12147903442383,1,2.2801871299743652,None,,,,,,,,,,,,,,,,,,41,6,2025-02-19_12h08.23.329,comp,2024.2.4,55.954343284498016,2025-02-19 12h08.40.630013 -0500,
52,52,0,critical,whd,20.0,4.0,upper,125.0,200.0,200.0,125.0,141.0,141.0,1,1.7555077075958252,None,,,,,0,0,0,0,0,52,52,95,160.14035892486572,,,,,,,,,,,,,,,,,,,,,,,,,,,,,,,,,,,,,,,,,,,,,,,,,,,,,,,,,,,,,,,,,,,,,,,,,,,,,,,,,125.0,200.0,200.0,125.0,141.0,141.0,4.0,4.1,-258,-288,0,-8,229,-260,160.1229968070984,160.12307810783386,160.126145362854,160.14035892486572,160.28891396522522,160.28891396522522,160.28891396522522,160.28891396522522,160.28891396522522,160.28891396522522,160.28891396522522,161.9120647907257,1,1.7555077075958252,None,,,,,,,,,,,,,,,,,,41,6,2025-02-19_12h08.23.329,comp,2024.2.4,55.954343284498016,2025-02-19 12h08.40.630013 -0500,
53,53,0,filler_random,None,None,None,None,None,None,None,None,None,None,3,1.5534167289733887,None,,,,,0,0,0,0,0,53,53,134,161.9270510673523,,,,,,,,,,,,,,,,,,,,,,,,,,,,,,,,,,,,,,,,,,,,,,,,,,,,,,,,,,,,,,,,,,,,,,,,,,,,,,,,,169.0834726022659,94.72533259671903,149.1419865363942,151.36470292478083,197.7473692799008,192.07975113328627,2.2,2.22,-219,267,0,-281,268,-250,161.91382360458374,161.9139039516449,161.91675448417664,161.9270510673523,162.07678771018982,162.07678771018982,162.07678771018982,162.07678771018982,162.07678771018982,162.07678771018982,162.07678771018982,163.49030828475952,3,1.5534167289733887,None,,,,,,,,,,,,,,,,,,41,6,2025-02-19_12h08.23.329,comp,2024.2.4,55.954343284498016,2025-02-19 12h08.40.630013 -0500,
54,54,0,filler_random,None,None,None,None,None,None,None,None,None,None,1,2.7093958854675293,None,,,,,0,0,0,0,0,54,54,130,163.5062391757965,,,,,,,,,,,,,,,,,,,,,,,,,,,,,,,,,,,,,,,,,,,,,,,,,,,,,,,,,,,,,,,,,,,,,,,,,,,,,,,,,156.66830493075628,141.29254897680042,129.46770368212896,178.01623757555888,70.92467079394098,118.36615898290759,2.1,2.11,-256,288,0,289,244,-275,163.4919946193695,163.49206852912903,163.49555277824402,163.5062391757965,163.66138458251953,163.66138458251953,163.66138458251953,163.66138458251953,163.66138458251953,163.66138458251953,163.66138458251953,166.22627663612366,1,2.7093958854675293,None,,,,,,,,,,,,,,,,,,41,6,2025-02-19_12h08.23.329,comp,2024.2.4,55.954343284498016,2025-02-19 12h08.40.630013 -0500,
55,55,0,catch,None,None,None,None,None,None,None,None,None,None,2,1.1957838535308838,None,,,,,0,0,0,0,0,55,55,121,166.24449944496155,,,,,,,,,,,,,,,,,,,,,,,,,,,,,,,,,,,,,,,,,,,,,,,,,,,,,,,,,,,,,,,,,,,,,,,,,,,,,,,,,72,118,179,146,86,104,1.0,1.2,-228,9,0,-5,221,15,166.22829794883728,166.2283799648285,166.2314326763153,166.24449944496155,166.39590430259705,166.39590430259705,166.39590430259705,166.39590430259705,166.39590430259705,166.39590430259705,166.39590430259705,167.4477095603943,2,1.1957838535308838,None,,,,,,,,,,,,,,,,,,41,6,2025-02-19_12h08.23.329,comp,2024.2.4,55.954343284498016,2025-02-19 12h08.40.630013 -0500,
56,56,0,critical,dhw,20.0,2.1,upper,141.0,141.0,200.0,125.0,125.0,200.0,2,1.9636752605438232,None,,,,,0,0,0,0,0,56,56,27,167.46828365325928,,,,,,,,,,,,,,,,,,,,,,,,,,,,,,,,,,,,,,,,,,,,,,,,,,,,,,,,,,,,,,,,,,,,,,,,,,,,,,,,,141.0,141.0,200.0,125.0,125.0,200.0,2.1,2.11,-229,289,0,270,258,-274,167.44933533668518,167.44948291778564,167.45276474952698,167.46828365325928,167.60677886009216,167.60677886009216,167.60677886009216,167.60677886009216,167.60677886009216,167.60677886009216,167.60677886009216,169.44649124145508,2,1.9636752605438232,None,,,,,,,,,,,,,,,,,,41,6,2025-02-19_12h08.23.329,comp,2024.2.4,55.954343284498016,2025-02-19 12h08.40.630013 -0500,
57,57,0,filler_square,None,None,None,None,None,None,None,None,None,None,3,4.317210912704468,None,,,,,0,0,0,0,0,57,57,182,169.46730375289917,,,,,,,,,,,,,,,,,,,,,,,,,,,,,,,,,,,,,,,,,,,,,,,,,,,,,,,,,,,,,,,,,,,,,,,,,,,,,,,,,57.83678914762968,62.11144874143198,61.20975857878305,74.41094019570896,82.08133556774814,82.08133556774814,4.0,4.2,-164,17,0,-268,174,10,169.44884634017944,169.4489712715149,169.45200872421265,169.46730375289917,169.61420106887817,169.61420106887817,169.61420106887817,169.61420106887817,169.61420106887817,169.61420106887817,169.61420106887817,173.7949297428131,3,4.317210912704468,None,,,,,,,,,,,,,,,,,,41,6,2025-02-19_12h08.23.329,comp,2024.2.4,55.954343284498016,2025-02-19 12h08.40.630013 -0500,
58,58,0,critical,dhw,20.0,1.0,lower,78.0,78.0,133.0,57.0,57.0,133.0,2,19.93144965171814,None,,,,,0,0,0,0,0,58,58,54,173.81302642822266,,,,,,,,,,,,,,,,,,,,,,,,,,,,,,,,,,,,,,,,,,,,,,,,,,,,,,,,,,,,,,,,,,,,,,,,,,,,,,,,,78.0,78.0,133.0,57.0,57.0,133.0,1.0,1.1,-644,255,-480,278,-289,260,173.7965362071991,173.79666376113892,173.8001823425293,173.81302642822266,173.9594955444336,173.9594955444336,173.9594955444336,173.9594955444336,173.9594955444336,173.9594955444336,173.9594955444336,193.74956893920898,2,19.93144965171814,None,,,,,,,,,,,,,,,,,,41,6,2025-02-19_12h08.23.329,comp,2024.2.4,55.954343284498016,2025-02-19 12h08.40.630013 -0500,
59,59,0,critical,dwh,35.0,2.1,upper,127.0,127.0,125.0,200.0,200.0,125.0,3,2.4361677169799805,None,,,,,0,0,0,0,0,59,59,29,193.76387977600098,,,,,,,,,,,,,,,,,,,,,,,,,,,,,,,,,,,,,,,,,,,,,,,,,,,,,,,,,,,,,,,,,,,,,,,,,,,,,,,,,127.0,127.0,125.0,200.0,200.0,125.0,2.1,2.12,-260,-263,0,-250,258,270,193.75112390518188,193.75120306015015,193.75429701805115,193.76387977600098,193.90384364128113,193.90384364128113,193.90384364128113,193.90384364128113,193.90384364128113,193.90384364128113,193.90384364128113,196.20348238945007,3,2.4361677169799805,None,,,,,,,,,,,,,,,,,,41,6,2025-02-19_12h08.23.329,comp,2024.2.4,55.954343284498016,2025-02-19 12h08.40.630013 -0500,
60,60,0,critical,dhw,35.0,3.0,upper,127.0,127.0,200.0,125.0,125.0,200.0,3,16.476703882217407,None,,,,,0,0,0,0,0,60,60,51,196.21907591819763,,,,,,,,,,,,,,,,,,,,,,,,,,,,,,,,,,,,,,,,,,,,,,,,,,,,,,,,,,,,,,,,,,,,,,,,,,,,,,,,,127.0,127.0,200.0,125.0,125.0,200.0,3.0,3.1,-222,279,0,3,258,-271,196.20545196533203,196.2055468559265,196.20842027664185,196.21907591819763,196.36736822128296,196.36736822128296,196.36736822128296,196.36736822128296,196.36736822128296,196.36736822128296,196.36736822128296,212.70544624328613,3,16.476703882217407,None,,,,,,,,,,,,,,,,,,41,6,2025-02-19_12h08.23.329,comp,2024.2.4,55.954343284498016,2025-02-19 12h08.40.630013 -0500,
61,61,0,filler_random,None,None,None,None,None,None,None,None,None,None,2,1.557487964630127,None,,,,,0,0,0,0,0,61,61,158,212.72313833236694,,,,,,,,,,,,,,,,,,,,,,,,,,,,,,,,,,,,,,,,,,,,,,,,,,,,,,,,,,,,,,,,,,,,,,,,,,,,,,,,,165.498968427188,180.318027158017,189.506626877557,181.02555537503628,79.42621559795712,182.01667489670274,4.0,4.2,-277,-3,0,-289,278,14,212.70743203163147,212.70752096176147,212.71160340309143,212.72313833236694,212.87177109718323,212.87177109718323,212.87177109718323,212.87177109718323,212.87177109718323,212.87177109718323,212.87177109718323,214.2902603149414,2,1.557487964630127,None,,,,,,,,,,,,,,,,,,41,6,2025-02-19_12h08.23.329,comp,2024.2.4,55.954343284498016,2025-02-19 12h08.40.630013 -0500,
62,62,0,filler_random,None,None,None,None,None,None,None,None,None,None,1,14.301953792572021,None,,,,,0,0,0,0,0,62,62,166,214.3063304424286,,,,,,,,,,,,,,,,,,,,,,,,,,,,,,,,,,,,,,,,,,,,,,,,,,,,,,,,,,,,,,,,,,,,,,,,,,,,,,,,,194.9932375669669,104.19526465073778,76.26884541574306,61.73663922533309,66.46212808790551,155.6974747687829,3.0,3.1,-179,286,0,8,205,-282,214.29204297065735,214.2921543121338,214.29556965827942,214.3063304424286,214.45474934577942,214.45474934577942,214.45474934577942,214.45474934577942,214.45474934577942,214.45474934577942,214.45474934577942,228.61489701271057,1,14.301953792572021,None,,,,,,,,,,,,,,,,,,41,6,2025-02-19_12h08.23.329,comp,2024.2.4,55.954343284498016,2025-02-19 12h08.40.630013 -0500,
63,63,0,critical,hdw,20.0,4.0,upper,200.0,125.0,141.0,141.0,125.0,200.0,3,2.888369083404541,None,,,,,0,0,0,0,0,63,63,119,228.6324806213379,,,,,,,,,,,,,,,,,,,,,,,,,,,,,,,,,,,,,,,,,,,,,,,,,,,,,,,,,,,,,,,,,,,,,,,,,,,,,,,,,200.0,125.0,141.0,141.0,125.0,200.0,4.0,4.2,-229,12,0,-274,266,-6,228.61639547348022,228.61651515960693,228.61935186386108,228.6324806213379,228.7759792804718,228.7759792804718,228.7759792804718,228.7759792804718,228.7759792804718,228.7759792804718,228.7759792804718,231.52750301361084,3,2.888369083404541,None,,,,,,,,,,,,,,,,,,41,6,2025-02-19_12h08.23.329,comp,2024.2.4,55.954343284498016,2025-02-19 12h08.40.630013 -0500,
64,64,0,catch,None,None,None,None,None,None,None,None,None,None,2,1.3594820499420166,None,,,,,0,0,0,0,0,64,64,120,231.54447221755981,,,,,,,,,,,,,,,,,,,,,,,,,,,,,,,,,,,,,,,,,,,,,,,,,,,,,,,,,,,,,,,,,,,,,,,,,,,,,,,,,98,92,184,141,61,129,4.0,4.1,-212,-255,0,-17,231,-251,231.529358625412,231.5294725894928,231.53270649909973,231.54447221755981,231.69062900543213,231.69062900543213,231.69062900543213,231.69062900543213,231.69062900543213,231.69062900543213,231.69062900543213,232.90765476226807,2,1.3594820499420166,None,,,,,,,,,,,,,,,,,,41,6,2025-02-19_12h08.23.329,comp,2024.2.4,55.954343284498016,2025-02-19 12h08.40.630013 -0500,
65,65,0,critical,dhw,20.0,4.0,upper,141.0,141.0,200.0,125.0,125.0,200.0,2,2.0839200019836426,None,,,,,0,0,0,0,0,65,65,59,232.92430067062378,,,,,,,,,,,,,,,,,,,,,,,,,,,,,,,,,,,,,,,,,,,,,,,,,,,,,,,,,,,,,,,,,,,,,,,,,,,,,,,,,141.0,141.0,200.0,125.0,125.0,200.0,4.0,4.2,-229,16,0,-280,258,-4,232.9092309474945,232.90930652618408,232.91259717941284,232.92430067062378,233.06105875968933,233.06105875968933,233.06105875968933,233.06105875968933,233.06105875968933,233.06105875968933,233.06105875968933,235.0116889476776,2,2.0839200019836426,None,,,,,,,,,,,,,,,,,,41,6,2025-02-19_12h08.23.329,comp,2024.2.4,55.954343284498016,2025-02-19 12h08.40.630013 -0500,
66,66,0,filler_random,None,None,None,None,None,None,None,None,None,None,3,3.06007981300354,None,,,,,0,0,0,0,0,66,66,162,235.0278661251068,,,,,,,,,,,,,,,,,,,,,,,,,,,,,,,,,,,,,,,,,,,,,,,,,,,,,,,,,,,,,,,,,,,,,,,,,,,,,,,,,67.53115455235401,106.40517417168593,150.60476137495448,178.87589157881797,144.05174075400507,157.52024571477853,1.0,1.3,241,-278,480,-274,744,-259,235.01323413848877,235.0133092403412,235.0161669254303,235.0278661251068,235.18929314613342,235.18929314613342,235.18929314613342,235.18929314613342,235.18929314613342,235.18929314613342,235.18929314613342,238.10069465637207,3,3.06007981300354,None,,,,,,,,,,,,,,,,,,41,6,2025-02-19_12h08.23.329,comp,2024.2.4,55.954343284498016,2025-02-19 12h08.40.630013 -0500,
67,67,0,catch,None,None,None,None,None,None,None,None,None,None,2,1.7619400024414062,None,,,,,0,0,0,0,0,67,67,123,238.11784625053406,,,,,,,,,,,,,,,,,,,,,,,,,,,,,,,,,,,,,,,,,,,,,,,,,,,,,,,,,,,,,,,,,,,,,,,,,,,,,,,,,124,66,194,131,93,97,2.2,2.22,-194,277,0,-262,210,-272,238.10272932052612,238.10280919075012,238.10595703125,238.11784625053406,238.26390385627747,238.26390385627747,238.26390385627747,238.26390385627747,238.26390385627747,238.26390385627747,238.26390385627747,239.89722847938538,2,1.7619400024414062,None,,,,,,,,,,,,,,,,,,41,6,2025-02-19_12h08.23.329,comp,2024.2.4,55.954343284498016,2025-02-19 12h08.40.630013 -0500,
68,68,0,filler_square,None,None,None,None,None,None,None,None,None,None,3,1.6229281425476074,None,,,,,0,0,0,0,0,68,68,180,239.9129936695099,,,,,,,,,,,,,,,,,,,,,,,,,,,,,,,,,,,,,,,,,,,,,,,,,,,,,,,,,,,,,,,,,,,,,,,,,,,,,,,,,80.85824886502428,95.87214057208533,63.35873946008027,115.68986131929172,137.71154687350645,137.71154687350645,1.0,1.3,278,-253,480,-284,703,-259,239.8990888595581,239.8992223739624,239.90263605117798,239.9129936695099,240.0637845993042,240.0637845993042,240.0637845993042,240.0637845993042,240.0637845993042,240.0637845993042,240.0637845993042,241.54519176483154,3,1.6229281425476074,None,,,,,,,,,,,,,,,,,,41,6,2025-02-19_12h08.23.329,comp,2024.2.4,55.954343284498016,2025-02-19 12h08.40.630013 -0500,
69,69,0,critical,dhw,35.0,3.0,lower,70.0,70.0,133.0,57.0,57.0,133.0,3,2.2066686153411865,None,,,,,0,0,0,0,0,69,69,50,241.56146383285522,,,,,,,,,,,,,,,,,,,,,,,,,,,,,,,,,,,,,,,,,,,,,,,,,,,,,,,,,,,,,,,,,,,,,,,,,,,,,,,,,70.0,70.0,133.0,57.0,57.0,133.0,3.0,3.2,-160,-270,0,-7,191,277,241.54686784744263,241.54699635505676,241.5504801273346,241.56146383285522,241.70307731628418,241.70307731628418,241.70307731628418,241.70307731628418,241.70307731628418,241.70307731628418,241.70307731628418,243.78076481819153,3,2.2066686153411865,None,,,,,,,,,,,,,,,,,,41,6,2025-02-19_12h08.23.329,comp,2024.2.4,55.954343284498016,2025-02-19 12h08.40.630013 -0500,
70,70,0,filler_random,None,None,None,None,None,None,None,None,None,None,2,1.5166683197021484,None,,,,,0,0,0,0,0,70,70,155,243.79611992835999,,,,,,,,,,,,,,,,,,,,,,,,,,,,,,,,,,,,,,,,,,,,,,,,,,,,,,,,,,,,,,,,,,,,,,,,,,,,,,,,,110.18155568189538,62.17323097093626,194.81323483320918,189.83766458859225,105.41856702517732,172.03689209406426,1.0,1.3,258,-277,480,-269,757,-265,243.78244924545288,243.78252983093262,243.78557777404785,243.79611992835999,243.93867373466492,243.93867373466492,243.93867373466492,243.93867373466492,243.93867373466492,243.93867373466492,243.93867373466492,245.32077956199646,2,1.5166683197021484,None,,,,,,,,,,,,,,,,,,41,6,2025-02-19_12h08.23.329,comp,2024.2.4,55.954343284498016,2025-02-19 12h08.40.630013 -0500,
71,71,0,critical,dwh,20.0,2.1,upper,141.0,141.0,125.0,200.0,200.0,125.0,3,1.3447034358978271,None,,,,,0,0,0,0,0,71,71,31,245.3358998298645,,,,,,,,,,,,,,,,,,,,,,,,,,,,,,,,,,,,,,,,,,,,,,,,,,,,,,,,,,,,,,,,,,,,,,,,,,,,,,,,,141.0,141.0,125.0,200.0,200.0,125.0,2.1,2.11,-266,253,0,272,258,-251,245.32230377197266,245.3223831653595,245.32530808448792,245.3358998298645,245.4812159538269,245.4812159538269,245.4812159538269,245.4812159538269,245.4812159538269,245.4812159538269,245.4812159538269,246.6833779811859,3,1.3447034358978271,None,,,,,,,,,,,,,,,,,,41,6,2025-02-19_12h08.23.329,comp,2024.2.4,55.954343284498016,2025-02-19 12h08.40.630013 -0500,
72,72,0,filler_square,None,None,None,None,None,None,None,None,None,None,3,1.891754388809204,None,,,,,0,0,0,0,0,72,72,184,246.70015215873718,,,,,,,,,,,,,,,,,,,,,,,,,,,,,,,,,,,,,,,,,,,,,,,,,,,,,,,,,,,,,,,,,,,,,,,,,,,,,,,,,99.72289546959648,124.7256399506479,59.97424302724951,60.58754856334687,127.26652053790262,127.26652053790262,2.1,2.11,-189,271,0,289,190,-273,246.6851692199707,246.68524551391602,246.68869423866272,246.70015215873718,246.8463954925537,246.8463954925537,246.8463954925537,246.8463954925537,246.8463954925537,246.8463954925537,246.8463954925537,248.60447645187378,3,1.891754388809204,None,,,,,,,,,,,,,,,,,,41,6,2025-02-19_12h08.23.329,comp,2024.2.4,55.954343284498016,2025-02-19 12h08.40.630013 -0500,
73,73,0,critical,dhw,35.0,4.0,upper,127.0,127.0,200.0,125.0,125.0,200.0,2,1.592299461364746,None,,,,,0,0,0,0,0,73,73,53,248.6238076686859,,,,,,,,,,,,,,,,,,,,,,,,,,,,,,,,,,,,,,,,,,,,,,,,,,,,,,,,,,,,,,,,,,,,,,,,,,,,,,,,,127.0,127.0,200.0,125.0,125.0,200.0,4.0,4.2,-222,11,0,-278,258,12,248.60609650611877,248.6062216758728,248.60957884788513,248.6238076686859,248.76714992523193,248.76714992523193,248.76714992523193,248.76714992523193,248.76714992523193,248.76714992523193,248.76714992523193,250.23303699493408,2,1.592299461364746,None,,,,,,,,,,,,,,,,,,41,6,2025-02-19_12h08.23.329,comp,2024.2.4,55.954343284498016,2025-02-19 12h08.40.630013 -0500,
74,74,0,critical,hwd,20.0,1.0,upper,200.0,125.0,125.0,200.0,141.0,141.0,1,1.9186666011810303,None,,,,,0,0,0,0,0,74,74,103,250.24916315078735,,,,,,,,,,,,,,,,,,,,,,,,,,,,,,,,,,,,,,,,,,,,,,,,,,,,,,,,,,,,,,,,,,,,,,,,,,,,,,,,,200.0,125.0,125.0,200.0,141.0,141.0,1.0,1.1,-738,282,-480,286,-214,281,250.23457717895508,250.23465037345886,250.2378373146057,250.24916315078735,250.40764260292053,250.40764260292053,250.40764260292053,250.40764260292053,250.40764260292053,250.40764260292053,250.40764260292053,252.18452882766724,1,1.9186666011810303,None,,,,,,,,,,,,,,,,,,41,6,2025-02-19_12h08.23.329,comp,2024.2.4,55.954343284498016,2025-02-19 12h08.40.630013 -0500,
75,75,0,filler_random,None,None,None,None,None,None,None,None,None,None,1,6.8324644565582275,None,,,,,0,0,0,0,0,75,75,137,252.19990611076355,,,,,,,,,,,,,,,,,,,,,,,,,,,,,,,,,,,,,,,,,,,,,,,,,,,,,,,,,,,,,,,,,,,,,,,,,,,,,,,,,184.3002303294636,151.38134007253225,147.77805711787295,147.6918496471224,63.813179629793005,90.43200729727653,2.1,2.11,-246,257,0,286,215,-255,252.1861755847931,252.18624901771545,252.18969011306763,252.19990611076355,252.35249495506287,252.35249495506287,252.35249495506287,252.35249495506287,252.35249495506287,252.35249495506287,252.35249495506287,259.0368552207947,1,6.8324644565582275,None,,,,,,,,,,,,,,,,,,41,6,2025-02-19_12h08.23.329,comp,2024.2.4,55.954343284498016,2025-02-19 12h08.40.630013 -0500,
76,76,0,filler_square,None,None,None,None,None,None,None,None,None,None,2,1.7469511032104492,None,,,,,0,0,0,0,0,76,76,187,259.05300116539,,,,,,,,,,,,,,,,,,,,,,,,,,,,,,,,,,,,,,,,,,,,,,,,,,,,,,,,,,,,,,,,,,,,,,,,,,,,,,,,,112.4224002095363,60.620373902038644,133.59779251233294,133.59779251233294,88.42847109314658,66.41371148047719,3.0,3.1,-193,277,0,-9,196,-252,259.03871846199036,259.03879976272583,259.0421459674835,259.05300116539,259.20180583000183,259.20180583000183,259.20180583000183,259.20180583000183,259.20180583000183,259.20180583000183,259.20180583000183,260.80379986763,2,1.7469511032104492,None,,,,,,,,,,,,,,,,,,41,6,2025-02-19_12h08.23.329,comp,2024.2.4,55.954343284498016,2025-02-19 12h08.40.630013 -0500,
77,77,0,critical,hdw,20.0,2.1,upper,200.0,125.0,141.0,141.0,125.0,200.0,1,1.6309268474578857,None,,,,,0,0,0,0,0,77,77,47,260.8178987503052,,,,,,,,,,,,,,,,,,,,,,,,,,,,,,,,,,,,,,,,,,,,,,,,,,,,,,,,,,,,,,,,,,,,,,,,,,,,,,,,,200.0,125.0,141.0,141.0,125.0,200.0,2.1,2.11,-229,267,0,288,266,-264,260.80523586273193,260.805312871933,260.8084900379181,260.8178987503052,260.9604535102844,260.9604535102844,260.9604535102844,260.9604535102844,260.9604535102844,260.9604535102844,260.9604535102844,262.4546835422516,1,1.6309268474578857,None,,,,,,,,,,,,,,,,,,41,6,2025-02-19_12h08.23.329,comp,2024.2.4,55.954343284498016,2025-02-19 12h08.40.630013 -0500,
78,78,0,critical,wdh,20.0,3.0,lower,57.0,133.0,78.0,78.0,133.0,57.0,1,1.8185477256774902,None,,,,,0,0,0,0,0,78,78,80,262.4695291519165,,,,,,,,,,,,,,,,,,,,,,,,,,,,,,,,,,,,,,,,,,,,,,,,,,,,,,,,,,,,,,,,,,,,,,,,,,,,,,,,,57.0,133.0,78.0,78.0,133.0,57.0,3.0,3.2,-202,-266,0,0,164,277,262.4563629627228,262.4565124511719,262.4599280357361,262.4695291519165,262.6172959804535,262.6172959804535,262.6172959804535,262.6172959804535,262.6172959804535,262.6172959804535,262.6172959804535,264.3048460483551,1,1.8185477256774902,None,,,,,,,,,,,,,,,,,,41,6,2025-02-19_12h08.23.329,comp,2024.2.4,55.954343284498016,2025-02-19 12h08.40.630013 -0500,
79,79,0,critical,hdw,35.0,2.1,upper,200.0,125.0,127.0,127.0,125.0,200.0,3,2.3753321170806885,None,,,,,0,0,0,0,0,79,79,45,264.3205032348633,,,,,,,,,,,,,,,,,,,,,,,,,,,,,,,,,,,,,,,,,,,,,,,,,,,,,,,,,,,,,,,,,,,,,,,,,,,,,,,,,200.0,125.0,127.0,127.0,125.0,200.0,2.1,2.12,-222,-251,0,-288,260,266,264.3064730167389,264.3065779209137,264.3100686073303,264.3205032348633,264.4720993041992,264.4720993041992,264.4720993041992,264.4720993041992,264.4720993041992,264.4720993041992,264.4720993041992,266.71172070503235,3,2.3753321170806885,None,,,,,,,,,,,,,,,,,,41,6,2025-02-19_12h08.23.329,comp,2024.2.4,55.954343284498016,2025-02-19 12h08.40.630013 -0500,
80,80,0,filler_square,None,None,None,None,None,None,None,None,None,None,2,1.447716474533081,None,,,,,0,0,0,0,0,80,80,207,266.7281939983368,,,,,,,,,,,,,,,,,,,,,,,,,,,,,,,,,,,,,,,,,,,,,,,,,,,,,,,,,,,,,,,,,,,,,,,,,,,,,,,,,82.92762866972546,79.58735139387761,177.46309101763842,177.46309101763842,68.34671176472823,70.48905477269533,2.1,2.12,-225,-262,0,-259,220,268,266.713579416275,266.7137141227722,266.7169406414032,266.7281939983368,266.87119817733765,266.87119817733765,266.87119817733765,266.87119817733765,266.87119817733765,266.87119817733765,266.87119817733765,268.1906259059906,2,1.447716474533081,None,,,,,,,,,,,,,,,,,,41,6,2025-02-19_12h08.23.329,comp,2024.2.4,55.954343284498016,2025-02-19 12h08.40.630013 -0500,
81,81,0,filler_random,None,None,None,None,None,None,None,None,None,None,2,0.9375333786010742,None,,,,,0,0,0,0,0,81,81,141,268.20636510849,,,,,,,,,,,,,,,,,,,,,,,,,,,,,,,,,,,,,,,,,,,,,,,,,,,,,,,,,,,,,,,,,,,,,,,,,,,,,,,,,115.1586244574953,73.6976724567759,92.99913093150283,195.37809148464618,114.1562019492663,58.24957940675056,4.0,4.1,-231,-286,0,-4,223,-252,268.192396402359,268.19255685806274,268.19598484039307,268.20636510849,268.3596086502075,268.3596086502075,268.3596086502075,268.3596086502075,268.3596086502075,268.3596086502075,268.3596086502075,269.16056966781616,2,0.9375333786010742,None,,,,,,,,,,,,,,,,,,41,6,2025-02-19_12h08.23.329,comp,2024.2.4,55.954343284498016,2025-02-19 12h08.40.630013 -0500,
82,82,0,filler_square,None,None,None,None,None,None,None,None,None,None,1,0.951160192489624,None,,,,,0,0,0,0,0,82,82,170,269.1767165660858,,,,,,,,,,,,,,,,,,,,,,,,,,,,,,,,,,,,,,,,,,,,,,,,,,,,,,,,,,,,,,,,,,,,,,,,,,,,,,,,,151.8400023940518,151.8400023940518,82.62442731672029,109.875894427335,79.26203415365671,109.15836474458642,3.0,3.2,-227,-269,0,6,206,280,269.16277742385864,269.16286063194275,269.1661710739136,269.1767165660858,269.32908964157104,269.32908964157104,269.32908964157104,269.32908964157104,269.32908964157104,269.32908964157104,269.32908964157104,270.13861441612244,1,0.951160192489624,None,,,,,,,,,,,,,,,,,,41,6,2025-02-19_12h08.23.329,comp,2024.2.4,55.954343284498016,2025-02-19 12h08.40.630013 -0500,
83,83,0,critical,hdw,35.0,2.1,lower,133.0,57.0,70.0,70.0,57.0,133.0,1,1.917206048965454,None,,,,,0,0,0,0,0,83,83,44,270.1547431945801,,,,,,,,,,,,,,,,,,,,,,,,,,,,,,,,,,,,,,,,,,,,,,,,,,,,,,,,,,,,,,,,,,,,,,,,,,,,,,,,,133.0,57.0,70.0,70.0,57.0,133.0,2.1,2.11,-160,262,0,269,198,-259,270.14010524749756,270.14018511772156,270.1430687904358,270.1547431945801,270.29152250289917,270.29152250289917,270.29152250289917,270.29152250289917,270.29152250289917,270.29152250289917,270.29152250289917,272.07547879219055,1,1.917206048965454,None,,,,,,,,,,,,,,,,,,41,6,2025-02-19_12h08.23.329,comp,2024.2.4,55.954343284498016,2025-02-19 12h08.40.630013 -0500,
84,84,0,critical,whd,35.0,2.1,lower,57.0,133.0,133.0,57.0,70.0,70.0,1,1.2505929470062256,None,,,,,0,0,0,0,0,84,84,36,272.0933299064636,,,,,,,,,,,,,,,,,,,,,,,,,,,,,,,,,,,,,,,,,,,,,,,,,,,,,,,,,,,,,,,,,,,,,,,,,,,,,,,,,57.0,133.0,133.0,57.0,70.0,70.0,2.1,2.12,-191,-264,0,-252,160,278,272.07694959640503,272.07702565193176,272.08035254478455,272.0933299064636,272.23973512649536,272.23973512649536,272.23973512649536,272.23973512649536,272.23973512649536,272.23973512649536,272.23973512649536,273.3638827800751,1,1.2505929470062256,None,,,,,,,,,,,,,,,,,,41,6,2025-02-19_12h08.23.329,comp,2024.2.4,55.954343284498016,2025-02-19 12h08.40.630013 -0500,
85,85,0,filler_square,None,None,None,None,None,None,None,None,None,None,1,1.0661900043487549,None,,,,,0,0,0,0,0,85,85,200,273.38161993026733,,,,,,,,,,,,,,,,,,,,,,,,,,,,,,,,,,,,,,,,,,,,,,,,,,,,,,,,,,,,,,,,,,,,,,,,,,,,,,,,,170.51242633862478,170.51242633862478,62.72997427376041,76.6303176697001,162.65058759191254,74.5678329993783,4.0,4.2,-220,-9,0,-264,172,6,273.36583161354065,273.36593103408813,273.36909914016724,273.38161993026733,273.5239143371582,273.5239143371582,273.5239143371582,273.5239143371582,273.5239143371582,273.5239143371582,273.5239143371582,274.45808005332947,1,1.0661900043487549,None,,,,,,,,,,,,,,,,,,41,6,2025-02-19_12h08.23.329,comp,2024.2.4,55.954343284498016,2025-02-19 12h08.40.630013 -0500,
86,86,0,filler_random,None,None,None,None,None,None,None,None,None,None,1,1.182119607925415,None,,,,,0,0,0,0,0,86,86,169,274.47400307655334,,,,,,,,,,,,,,,,,,,,,,,,,,,,,,,,,,,,,,,,,,,,,,,,,,,,,,,,,,,,,,,,,,,,,,,,,,,,,,,,,142.1411821835614,122.43519520522666,107.09471207996896,71.15240475721168,131.91129522914648,79.37057986553607,2.1,2.12,-193,-277,0,-273,171,264,274.45997858047485,274.46011424064636,274.46331334114075,274.47400307655334,274.63104248046875,274.63104248046875,274.63104248046875,274.63104248046875,274.63104248046875,274.63104248046875,274.63104248046875,275.65821599960327,1,1.182119607925415,None,,,,,,,,,,,,,,,,,,41,6,2025-02-19_12h08.23.329,comp,2024.2.4,55.954343284498016,2025-02-19 12h08.40.630013 -0500,
87,87,0,critical,dwh,20.0,1.0,lower,78.0,78.0,57.0,133.0,133.0,57.0,2,1.1598930358886719,None,,,,,0,0,0,0,0,87,87,66,275.6806490421295,,,,,,,,,,,,,,,,,,,,,,,,,,,,,,,,,,,,,,,,,,,,,,,,,,,,,,,,,,,,,,,,,,,,,,,,,,,,,,,,,78.0,78.0,57.0,133.0,133.0,57.0,1.0,1.1,-682,289,-480,252,-289,280,275.65974497795105,275.65982580184937,275.66339135169983,275.6806490421295,275.8261260986328,275.8261260986328,275.8261260986328,275.8261260986328,275.8261260986328,275.8261260986328,275.8261260986328,276.84561347961426,2,1.1598930358886719,None,,,,,,,,,,,,,,,,,,41,6,2025-02-19_12h08.23.329,comp,2024.2.4,55.954343284498016,2025-02-19 12h08.40.630013 -0500,
88,88,0,filler_random,None,None,None,None,None,None,None,None,None,None,2,1.7134051322937012,None,,,,,0,0,0,0,0,88,88,145,276.8623526096344,,,,,,,,,,,,,,,,,,,,,,,,,,,,,,,,,,,,,,,,,,,,,,,,,,,,,,,,,,,,,,,,,,,,,,,,,,,,,,,,,105.79661693038292,181.06449213945297,171.77972076682164,138.7651574626716,182.764171404059,104.43139452368828,4.0,4.1,-256,-256,0,8,218,-261,276.8474600315094,276.8475534915924,276.850839138031,276.8623526096344,277.0078558921814,277.0078558921814,277.0078558921814,277.0078558921814,277.0078558921814,277.0078558921814,277.0078558921814,278.5858187675476,2,1.7134051322937012,None,,,,,,,,,,,,,,,,,,41,6,2025-02-19_12h08.23.329,comp,2024.2.4,55.954343284498016,2025-02-19 12h08.40.630013 -0500,
89,89,0,critical,dwh,35.0,2.1,lower,70.0,70.0,57.0,133.0,133.0,57.0,2,1.1259984970092773,None,,,,,0,0,0,0,0,89,89,28,278.602490901947,,,,,,,,,,,,,,,,,,,,,,,,,,,,,,,,,,,,,,,,,,,,,,,,,,,,,,,,,,,,,,,,,,,,,,,,,,,,,,,,,70.0,70.0,57.0,133.0,133.0,57.0,2.1,2.11,-198,257,0,285,191,-255,278.58735489845276,278.5874676704407,278.5907402038574,278.602490901947,278.7427673339844,278.7427673339844,278.7427673339844,278.7427673339844,278.7427673339844,278.7427673339844,278.7427673339844,279.7369611263275,2,1.1259984970092773,None,,,,,,,,,,,,,,,,,,41,6,2025-02-19_12h08.23.329,comp,2024.2.4,55.954343284498016,2025-02-19 12h08.40.630013 -0500,
90,90,0,critical,wdh,20.0,3.0,upper,125.0,200.0,141.0,141.0,200.0,125.0,1,1.4343619346618652,None,,,,,0,0,0,0,0,90,90,81,279.75758957862854,,,,,,,,,,,,,,,,,,,,,,,,,,,,,,,,,,,,,,,,,,,,,,,,,,,,,,,,,,,,,,,,,,,,,,,,,,,,,,,,,125.0,200.0,141.0,141.0,200.0,125.0,3.0,3.2,-266,-283,0,17,229,251,279.7385423183441,279.738618850708,279.7419238090515,279.75758957862854,279.89139771461487,279.89139771461487,279.89139771461487,279.89139771461487,279.89139771461487,279.89139771461487,279.89139771461487,281.2096326351166,1,1.4343619346618652,None,,,,,,,,,,,,,,,,,,41,6,2025-02-19_12h08.23.329,comp,2024.2.4,55.954343284498016,2025-02-19 12h08.40.630013 -0500,
91,91,0,filler_random,None,None,None,None,None,None,None,None,None,None,3,1.8310909271240234,None,,,,,0,0,0,0,0,91,91,164,281.2251567840576,,,,,,,,,,,,,,,,,,,,,,,,,,,,,,,,,,,,,,,,,,,,,,,,,,,,,,,,,,,,,,,,,,,,,,,,,,,,,,,,,66.20470938853487,196.53667697846282,137.9030338606749,67.76481510504817,132.48823935966487,158.71735715425103,3.0,3.1,-228,275,0,-11,209,-290,281.2112822532654,281.2113561630249,281.21434926986694,281.2251567840576,281.38244366645813,281.38244366645813,281.38244366645813,281.38244366645813,281.38244366645813,281.38244366645813,281.38244366645813,283.05985164642334,3,1.8310909271240234,None,,,,,,,,,,,,,,,,,,41,6,2025-02-19_12h08.23.329,comp,2024.2.4,55.954343284498016,2025-02-19 12h08.40.630013 -0500,
92,92,0,critical,hdw,35.0,4.0,upper,200.0,125.0,127.0,127.0,125.0,200.0,3,1.8917930126190186,None,,,,,0,0,0,0,0,92,92,113,283.0763146877289,,,,,,,,,,,,,,,,,,,,,,,,,,,,,,,,,,,,,,,,,,,,,,,,,,,,,,,,,,,,,,,,,,,,,,,,,,,,,,,,,200.0,125.0,127.0,127.0,125.0,200.0,4.0,4.2,-222,8,0,-282,260,18,283.06137561798096,283.0614883899689,283.06481552124023,283.0763146877289,283.2177987098694,283.2177987098694,283.2177987098694,283.2177987098694,283.2177987098694,283.2177987098694,283.2177987098694,284.9892876148224,3,1.8917930126190186,None,,,,,,,,,,,,,,,,,,41,6,2025-02-19_12h08.23.329,comp,2024.2.4,55.954343284498016,2025-02-19 12h08.40.630013 -0500,
93,93,0,critical,dhw,20.0,3.0,upper,141.0,141.0,200.0,125.0,125.0,200.0,2,0.9305813312530518,None,,,,,0,0,0,0,0,93,93,57,285.0062201023102,,,,,,,,,,,,,,,,,,,,,,,,,,,,,,,,,,,,,,,,,,,,,,,,,,,,,,,,,,,,,,,,,,,,,,,,,,,,,,,,,141.0,141.0,200.0,125.0,125.0,200.0,3.0,3.1,-229,276,0,0,258,-256,284.9908185005188,284.9908969402313,284.99384093284607,285.0062201023102,285.1460201740265,285.1460201740265,285.1460201740265,285.1460201740265,285.1460201740265,285.1460201740265,285.1460201740265,285.94568037986755,2,0.9305813312530518,None,,,,,,,,,,,,,,,,,,41,6,2025-02-19_12h08.23.329,comp,2024.2.4,55.954343284498016,2025-02-19 12h08.40.630013 -0500,
94,94,0,filler_random,None,None,None,None,None,None,None,None,None,None,1,2.5570342540740967,None,,,,,0,0,0,0,0,94,94,165,285.96350169181824,,,,,,,,,,,,,,,,,,,,,,,,,,,,,,,,,,,,,,,,,,,,,,,,,,,,,,,,,,,,,,,,,,,,,,,,,,,,,,,,,118.68586612003921,104.77117247337631,141.28043593853567,70.18038836780073,123.52632189619399,82.35424458344121,2.1,2.12,-183,-289,0,-289,172,288,285.9472737312317,285.9473514556885,285.95056533813477,285.96350169181824,286.1095051765442,286.1095051765442,286.1095051765442,286.1095051765442,286.1095051765442,286.1095051765442,286.1095051765442,288.53044033050537,1,2.5570342540740967,None,,,,,,,,,,,,,,,,,,41,6,2025-02-19_12h08.23.329,comp,2024.2.4,55.954343284498016,2025-02-19 12h08.40.630013 -0500,
95,95,0,critical,hdw,35.0,4.0,lower,133.0,57.0,70.0,70.0,57.0,133.0,1,2.197482109069824,None,,,,,0,0,0,0,0,95,95,112,288.5464792251587,,,,,,,,,,,,,,,,,,,,,,,,,,,,,,,,,,,,,,,,,,,,,,,,,,,,,,,,,,,,,,,,,,,,,,,,,,,,,,,,,133.0,57.0,70.0,70.0,57.0,133.0,4.0,4.1,-160,-268,0,5,198,-268,288.53196120262146,288.53203654289246,288.53532910346985,288.5464792251587,288.6983063220978,288.6983063220978,288.6983063220978,288.6983063220978,288.6983063220978,288.6983063220978,288.6983063220978,290.74516344070435,1,2.197482109069824,None,,,,,,,,,,,,,,,,,,41,6,2025-02-19_12h08.23.329,comp,2024.2.4,55.954343284498016,2025-02-19 12h08.40.630013 -0500,
96,96,0,critical,wdh,20.0,1.0,lower,57.0,133.0,78.0,78.0,133.0,57.0,1,2.551924467086792,None,,,,,0,0,0,0,0,96,96,78,290.7601959705353,,,,,,,,,,,,,,,,,,,,,,,,,,,,,,,,,,,,,,,,,,,,,,,,,,,,,,,,,,,,,,,,,,,,,,,,,,,,,,,,,57.0,133.0,78.0,78.0,133.0,57.0,1.0,1.1,-682,285,-480,265,-316,283,290.7458736896515,290.7459077835083,290.74717116355896,290.7601959705353,290.91193103790283,290.91193103790283,290.91193103790283,290.91193103790283,290.91193103790283,290.91193103790283,290.91193103790283,293.3182771205902,1,2.551924467086792,None,,,,,,,,,,,,,,,,,,41,6,2025-02-19_12h08.23.329,comp,2024.2.4,55.954343284498016,2025-02-19 12h08.40.630013 -0500,
97,97,0,filler_random,None,None,None,None,None,None,None,None,None,None,1,1.34958815574646,None,,,,,0,0,0,0,0,97,97,149,293.3384337425232,,,,,,,,,,,,,,,,,,,,,,,,,,,,,,,,,,,,,,,,,,,,,,,,,,,,,,,,,,,,,,,,,,,,,,,,,,,,,,,,,199.32942522694302,128.70153118416312,102.19119242885039,175.56294421528162,95.06055829412256,73.08916357881974,2.1,2.12,-248,-252,0,-260,220,252,293.3201057910919,293.32018423080444,293.3230628967285,293.3384337425232,293.48227763175964,293.48227763175964,293.48227763175964,293.48227763175964,293.48227763175964,293.48227763175964,293.48227763175964,294.6983530521393,1,1.34958815574646,None,,,,,,,,,,,,,,,,,,41,6,2025-02-19_12h08.23.329,comp,2024.2.4,55.954343284498016,2025-02-19 12h08.40.630013 -0500,
98,98,0,filler_square,None,None,None,None,None,None,None,None,None,None,2,1.0230417251586914,None,,,,,0,0,0,0,0,98,98,196,294.71449851989746,,,,,,,,,,,,,,,,,,,,,,,,,,,,,,,,,,,,,,,,,,,,,,,,,,,,,,,,,,,,,,,,,,,,,,,,,,,,,,,,,103.89691965973842,91.36571466616236,177.87256444769713,177.87256444769713,108.40344406378809,104.37582408790655,2.2,2.21,-231,-281,0,283,237,290,294.7001578807831,294.70023369789124,294.7032415866852,294.71449851989746,294.86321091651917,294.86321091651917,294.86321091651917,294.86321091651917,294.86321091651917,294.86321091651917,294.86321091651917,295.7484929561615,2,1.0230417251586914,None,,,,,,,,,,,,,,,,,,41,6,2025-02-19_12h08.23.329,comp,2024.2.4,55.954343284498016,2025-02-19 12h08.40.630013 -0500,
99,99,0,filler_random,None,None,None,None,None,None,None,None,None,None,3,2.8201398849487305,None,,,,,0,0,0,0,0,99,99,136,295.76459670066833,,,,,,,,,,,,,,,,,,,,,,,,,,,,,,,,,,,,,,,,,,,,,,,,,,,,,,,,,,,,,,,,,,,,,,,,,,,,,,,,,161.82908239686594,65.29089620630253,179.8738568408699,58.286600722050395,121.01669478420578,151.40109625979136,2.1,2.11,-158,283,0,267,201,-284,295.75022649765015,295.7503066062927,295.7537422180176,295.76459670066833,295.91530418395996,295.91530418395996,295.91530418395996,295.91530418395996,295.91530418395996,295.91530418395996,295.91530418395996,298.5900595188141,3,2.8201398849487305,None,,,,,,,,,,,,,,,,,,41,6,2025-02-19_12h08.23.329,comp,2024.2.4,55.954343284498016,2025-02-19 12h08.40.630013 -0500,
100,100,0,critical,hdw,20.0,2.1,lower,133.0,57.0,78.0,78.0,57.0,133.0,1,1.9697487354278564,None,,,,,0,0,0,0,0,100,100,22,298.6066918373108,,,,,,,,,,,,,,,,,,,,,,,,,,,,,,,,,,,,,,,,,,,,,,,,,,,,,,,,,,,,,,,,,,,,,,,,,,,,,,,,,133.0,57.0,78.0,78.0,57.0,133.0,2.1,2.11,-164,287,0,274,202,-273,298.5916383266449,298.5917139053345,298.59501004219055,298.6066918373108,298.74825859069824,298.74825859069824,298.74825859069824,298.74825859069824,298.74825859069824,298.74825859069824,298.74825859069824,300.58605790138245,1,1.9697487354278564,None,,,,,,,,,,,,,,,,,,41,6,2025-02-19_12h08.23.329,comp,2024.2.4,55.954343284498016,2025-02-19 12h08.40.630013 -0500,
101,101,0,critical,hdw,20.0,1.0,lower,133.0,57.0,78.0,78.0,57.0,133.0,1,0.9082417488098145,None,,,,,0,0,0,0,0,101,101,114,300.6043884754181,,,,,,,,,,,,,,,,,,,,,,,,,,,,,,,,,,,,,,,,,,,,,,,,,,,,,,,,,,,,,,,,,,,,,,,,,,,,,,,,,133.0,57.0,78.0,78.0,57.0,133.0,1.0,1.3,316,-269,480,-266,682,-257,300.58776116371155,300.58787751197815,300.5912010669708,300.6043884754181,300.7495241165161,300.7495241165161,300.7495241165161,300.7495241165161,300.7495241165161,300.7495241165161,300.7495241165161,301.5212411880493,1,0.9082417488098145,None,,,,,,,,,,,,,,,,,,41,6,2025-02-19_12h08.23.329,comp,2024.2.4,55.954343284498016,2025-02-19 12h08.40.630013 -0500,
102,102,0,critical,wdh,20.0,2.1,lower,57.0,133.0,78.0,78.0,133.0,57.0,3,1.8426287174224854,None,,,,,0,0,0,0,0,102,102,34,301.5419867038727,,,,,,,,,,,,,,,,,,,,,,,,,,,,,,,,,,,,,,,,,,,,,,,,,,,,,,,,,,,,,,,,,,,,,,,,,,,,,,,,,57.0,133.0,78.0,78.0,133.0,57.0,2.1,2.12,-202,-266,0,-290,164,261,301.5229260921478,301.52302527427673,301.52627539634705,301.5419867038727,301.68552327156067,301.68552327156067,301.68552327156067,301.68552327156067,301.68552327156067,301.68552327156067,301.68552327156067,303.3924858570099,3,1.8426287174224854,None,,,,,,,,,,,,,,,,,,41,6,2025-02-19_12h08.23.329,comp,2024.2.4,55.954343284498016,2025-02-19 12h08.40.630013 -0500,
103,103,0,filler_square,None,None,None,None,None,None,None,None,None,None,2,0.9925806522369385,None,,,,,0,0,0,0,0,103,103,193,303.40809631347656,,,,,,,,,,,,,,,,,,,,,,,,,,,,,,,,,,,,,,,,,,,,,,,,,,,,,,,,,,,,,,,,,,,,,,,,,,,,,,,,,142.43082551577504,95.68424414752852,198.04245244340422,198.04245244340422,168.86113612125592,156.9076201311002,4.0,4.1,-243,-284,0,12,273,-272,303.3943109512329,303.39439058303833,303.397278547287,303.40809631347656,303.5515387058258,303.5515387058258,303.5515387058258,303.5515387058258,303.5515387058258,303.5515387058258,303.5515387058258,304.40286016464233,2,0.9925806522369385,None,,,,,,,,,,,,,,,,,,41,6,2025-02-19_12h08.23.329,comp,2024.2.4,55.954343284498016,2025-02-19 12h08.40.630013 -0500,
104,104,0,filler_random,None,None,None,None,None,None,None,None,None,None,1,0.9562985897064209,None,,,,,0,0,0,0,0,104,104,132,304.4198830127716,,,,,,,,,,,,,,,,,,,,,,,,,,,,,,,,,,,,,,,,,,,,,,,,,,,,,,,,,,,,,,,,,,,,,,,,,,,,,,,,,166.97118854911474,197.83067614869154,172.53712004942656,117.88486104965072,153.13935681677103,150.80697956335672,2.2,2.22,-254,276,0,-275,230,-282,304.4046850204468,304.4047632217407,304.4082067012787,304.4198830127716,304.56759119033813,304.56759119033813,304.56759119033813,304.56759119033813,304.56759119033813,304.56759119033813,304.56759119033813,305.3931384086609,1,0.9562985897064209,None,,,,,,,,,,,,,,,,,,41,6,2025-02-19_12h08.23.329,comp,2024.2.4,55.954343284498016,2025-02-19 12h08.40.630013 -0500,
105,105,0,critical,dwh,35.0,4.0,lower,70.0,70.0,57.0,133.0,133.0,57.0,2,1.0476479530334473,None,,,,,0,0,0,0,0,105,105,64,305.408278465271,,,,,,,,,,,,,,,,,,,,,,,,,,,,,,,,,,,,,,,,,,,,,,,,,,,,,,,,,,,,,,,,,,,,,,,,,,,,,,,,,70.0,70.0,57.0,133.0,133.0,57.0,4.0,4.2,-198,-9,0,-264,191,-17,305.39465713500977,305.394731760025,305.3976535797119,305.408278465271,305.5516903400421,305.5516903400421,305.5516903400421,305.5516903400421,305.5516903400421,305.5516903400421,305.5516903400421,306.46704387664795,2,1.0476479530334473,None,,,,,,,,,,,,,,,,,,41,6,2025-02-19_12h08.23.329,comp,2024.2.4,55.954343284498016,2025-02-19 12h08.40.630013 -0500,
106,106,0,catch,None,None,None,None,None,None,None,None,None,None,2,1.107076644897461,None,,,,,0,0,0,0,0,106,106,129,306.4844880104065,,,,,,,,,,,,,,,,,,,,,,,,,,,,,,,,,,,,,,,,,,,,,,,,,,,,,,,,,,,,,,,,,,,,,,,,,,,,,,,,,89,101,168,157,62,128,1.0,1.3,255,-272,480,-273,718,-254,306.46912932395935,306.4692096710205,306.4727785587311,306.4844880104065,306.63765716552734,306.63765716552734,306.63765716552734,306.63765716552734,306.63765716552734,306.63765716552734,306.63765716552734,307.6021251678467,2,1.107076644897461,None,,,,,,,,,,,,,,,,,,41,6,2025-02-19_12h08.23.329,comp,2024.2.4,55.954343284498016,2025-02-19 12h08.40.630013 -0500,
107,107,0,critical,dwh,35.0,2.1,upper,127.0,127.0,125.0,200.0,200.0,125.0,2,1.4262607097625732,None,,,,,0,0,0,0,0,107,107,5,307.61372995376587,,,,,,,,,,,,,,,,,,,,,,,,,,,,,,,,,,,,,,,,,,,,,,,,,,,,,,,,,,,,,,,,,,,,,,,,,,,,,,,,,127.0,127.0,125.0,200.0,200.0,125.0,2.1,2.12,-260,-251,0,-261,258,284,307.60295605659485,307.60299849510193,307.6047613620758,307.61372995376587,307.76856207847595,307.76856207847595,307.76856207847595,307.76856207847595,307.76856207847595,307.76856207847595,307.76856207847595,309.0530722141266,2,1.4262607097625732,None,,,,,,,,,,,,,,,,,,41,6,2025-02-19_12h08.23.329,comp,2024.2.4,55.954343284498016,2025-02-19 12h08.40.630013 -0500,
108,108,0,critical,wdh,35.0,4.0,upper,125.0,200.0,127.0,127.0,200.0,125.0,1,2.7041144371032715,None,,,,,0,0,0,0,0,108,108,77,309.07289385795593,,,,,,,,,,,,,,,,,,,,,,,,,,,,,,,,,,,,,,,,,,,,,,,,,,,,,,,,,,,,,,,,,,,,,,,,,,,,,,,,,125.0,200.0,127.0,127.0,200.0,125.0,4.0,4.2,-260,9,0,-272,222,11,309.05473613739014,309.0548610687256,309.05815076828003,309.07289385795593,309.22036600112915,309.22036600112915,309.22036600112915,309.22036600112915,309.22036600112915,309.22036600112915,309.22036600112915,311.78885102272034,1,2.7041144371032715,None,,,,,,,,,,,,,,,,,,41,6,2025-02-19_12h08.23.329,comp,2024.2.4,55.954343284498016,2025-02-19 12h08.40.630013 -0500,
109,109,0,filler_random,None,None,None,None,None,None,None,None,None,None,2,0.9531352519989014,None,,,,,0,0,0,0,0,109,109,161,311.8069667816162,,,,,,,,,,,,,,,,,,,,,,,,,,,,,,,,,,,,,,,,,,,,,,,,,,,,,,,,,,,,,,,,,,,,,,,,,,,,,,,,,75.98026916622632,57.50772901313005,199.8375322517328,92.96219451066781,70.11298951925534,76.70586655976972,4.0,4.1,-171,-275,0,-2,181,-286,311.79100918769836,311.7910912036896,311.7950966358185,311.8069667816162,311.95338439941406,311.95338439941406,311.95338439941406,311.95338439941406,311.95338439941406,311.95338439941406,311.95338439941406,312.77282071113586,2,0.9531352519989014,None,,,,,,,,,,,,,,,,,,41,6,2025-02-19_12h08.23.329,comp,2024.2.4,55.954343284498016,2025-02-19 12h08.40.630013 -0500,
110,110,0,critical,wdh,35.0,4.0,lower,57.0,133.0,70.0,70.0,133.0,57.0,1,1.5394556522369385,None,,,,,0,0,0,0,0,110,110,76,312.789137840271,,,,,,,,,,,,,,,,,,,,,,,,,,,,,,,,,,,,,,,,,,,,,,,,,,,,,,,,,,,,,,,,,,,,,,,,,,,,,,,,,57.0,133.0,70.0,70.0,133.0,57.0,4.0,4.1,-198,-285,0,-4,160,-281,312.7745406627655,312.7746739387512,312.7779469490051,312.789137840271,312.9375762939453,312.9375762939453,312.9375762939453,312.9375762939453,312.9375762939453,312.9375762939453,312.9375762939453,314.33799171447754,1,1.5394556522369385,None,,,,,,,,,,,,,,,,,,41,6,2025-02-19_12h08.23.329,comp,2024.2.4,55.954343284498016,2025-02-19 12h08.40.630013 -0500,
111,111,0,catch,None,None,None,None,None,None,None,None,None,None,2,0.8834049701690674,None,,,,,0,0,0,0,0,111,111,124,314.3565354347229,,,,,,,,,,,,,,,,,,,,,,,,,,,,,,,,,,,,,,,,,,,,,,,,,,,,,,,,,,,,,,,,,,,,,,,,,,,,,,,,,113,77,171,154,106,84,4.0,4.1,-212,-280,0,10,215,-279,314.33992099761963,314.3400020599365,314.3431508541107,314.3565354347229,314.5041627883911,314.5041627883911,314.5041627883911,314.5041627883911,314.5041627883911,314.5041627883911,314.5041627883911,315.25368547439575,2,0.8834049701690674,None,,,,,,,,,,,,,,,,,,41,6,2025-02-19_12h08.23.329,comp,2024.2.4,55.954343284498016,2025-02-19 12h08.40.630013 -0500,
112,112,0,filler_square,None,None,None,None,None,None,None,None,None,None,1,1.3358540534973145,None,,,,,0,0,0,0,0,112,112,201,315.27220821380615,,,,,,,,,,,,,,,,,,,,,,,,,,,,,,,,,,,,,,,,,,,,,,,,,,,,,,,,,,,,,,,,,,,,,,,,,,,,,,,,,171.383571475695,171.383571475695,81.55720191388222,98.19434830077051,166.7744818167351,113.2560131889824,4.0,4.2,-231,-20,0,-280,202,-11,315.25544452667236,315.25552201271057,315.2586317062378,315.27220821380615,315.4098274707794,315.4098274707794,315.4098274707794,315.4098274707794,315.4098274707794,315.4098274707794,315.4098274707794,316.6414315700531,1,1.3358540534973145,None,,,,,,,,,,,,,,,,,,41,6,2025-02-19_12h08.23.329,comp,2024.2.4,55.954343284498016,2025-02-19 12h08.40.630013 -0500,
113,113,0,critical,whd,35.0,2.1,upper,125.0,200.0,200.0,125.0,127.0,127.0,2,1.6509971618652344,None,,,,,0,0,0,0,0,113,113,37,316.6615836620331,,,,,,,,,,,,,,,,,,,,,,,,,,,,,,,,,,,,,,,,,,,,,,,,,,,,,,,,,,,,,,,,,,,,,,,,,,,,,,,,,125.0,200.0,200.0,125.0,127.0,127.0,2.1,2.11,-258,271,0,253,222,-273,316.6432263851166,316.6433563232422,316.64682483673096,316.6615836620331,316.8043735027313,316.8043735027313,316.8043735027313,316.8043735027313,316.8043735027313,316.8043735027313,316.8043735027313,318.31893944740295,2,1.6509971618652344,None,,,,,,,,,,,,,,,,,,41,6,2025-02-19_12h08.23.329,comp,2024.2.4,55.954343284498016,2025-02-19 12h08.40.630013 -0500,
114,114,0,filler_random,None,None,None,None,None,None,None,None,None,None,2,0.8809504508972168,None,,,,,0,0,0,0,0,114,114,143,318.3356285095215,,,,,,,,,,,,,,,,,,,,,,,,,,,,,,,,,,,,,,,,,,,,,,,,,,,,,,,,,,,,,,,,,,,,,,,,,,,,,,,,,104.64052849884277,89.60905617178224,161.08392929695697,120.59079709916097,148.4335962891022,87.76924818341479,3.0,3.2,-201,-266,0,-3,200,267,318.32073736190796,318.32081747055054,318.32379627227783,318.3356285095215,318.47378849983215,318.47378849983215,318.47378849983215,318.47378849983215,318.47378849983215,318.47378849983215,318.47378849983215,319.22189688682556,2,0.8809504508972168,None,,,,,,,,,,,,,,,,,,41,6,2025-02-19_12h08.23.329,comp,2024.2.4,55.954343284498016,2025-02-19 12h08.40.630013 -0500,
115,115,0,critical,dwh,20.0,4.0,upper,141.0,141.0,125.0,200.0,200.0,125.0,2,1.1619884967803955,None,,,,,0,0,0,0,0,115,115,71,319.2384350299835,,,,,,,,,,,,,,,,,,,,,,,,,,,,,,,,,,,,,,,,,,,,,,,,,,,,,,,,,,,,,,,,,,,,,,,,,,,,,,,,,141.0,141.0,125.0,200.0,200.0,125.0,4.0,4.2,-266,16,0,-259,258,17,319.22347807884216,319.22355461120605,319.22683668136597,319.2384350299835,319.3918263912201,319.3918263912201,319.3918263912201,319.3918263912201,319.3918263912201,319.3918263912201,319.3918263912201,320.40464997291565,2,1.1619884967803955,None,,,,,,,,,,,,,,,,,,41,6,2025-02-19_12h08.23.329,comp,2024.2.4,55.954343284498016,2025-02-19 12h08.40.630013 -0500,
116,116,0,critical,wdh,35.0,2.1,lower,57.0,133.0,70.0,70.0,133.0,57.0,1,1.3872642517089844,None,,,,,0,0,0,0,0,116,116,8,320.4207532405853,,,,,,,,,,,,,,,,,,,,,,,,,,,,,,,,,,,,,,,,,,,,,,,,,,,,,,,,,,,,,,,,,,,,,,,,,,,,,,,,,57.0,133.0,70.0,70.0,133.0,57.0,2.1,2.12,-198,-258,0,-275,160,261,320.4061336517334,320.4062089920044,320.40911293029785,320.4207532405853,320.5565538406372,320.5565538406372,320.5565538406372,320.5565538406372,320.5565538406372,320.5565538406372,320.5565538406372,321.8258628845215,1,1.3872642517089844,None,,,,,,,,,,,,,,,,,,41,6,2025-02-19_12h08.23.329,comp,2024.2.4,55.954343284498016,2025-02-19 12h08.40.630013 -0500,
117,117,0,critical,hwd,35.0,3.0,lower,133.0,57.0,57.0,133.0,70.0,70.0,2,1.4225800037384033,None,,,,,0,0,0,0,0,117,117,98,321.8412811756134,,,,,,,,,,,,,,,,,,,,,,,,,,,,,,,,,,,,,,,,,,,,,,,,,,,,,,,,,,,,,,,,,,,,,,,,,,,,,,,,,133.0,57.0,57.0,133.0,70.0,70.0,3.0,3.2,-191,-281,0,8,198,289,321.8274550437927,321.8275327682495,321.8309383392334,321.8412811756134,321.99201488494873,321.99201488494873,321.99201488494873,321.99201488494873,321.99201488494873,321.99201488494873,321.99201488494873,323.2760980129242,2,1.4225800037384033,None,,,,,,,,,,,,,,,,,,41,6,2025-02-19_12h08.23.329,comp,2024.2.4,55.954343284498016,2025-02-19 12h08.40.630013 -0500,
118,118,0,catch,None,None,None,None,None,None,None,None,None,None,3,1.5292160511016846,None,,,,,0,0,0,0,0,118,118,126,323.29524517059326,,,,,,,,,,,,,,,,,,,,,,,,,,,,,,,,,,,,,,,,,,,,,,,,,,,,,,,,,,,,,,,,,,,,,,,,,,,,,,,,,64,126,127,63,159,166,1.0,1.2,-190,2,0,-17,210,6,323.2783172130585,323.27842926979065,323.2818217277527,323.29524517059326,323.4397885799408,323.4397885799408,323.4397885799408,323.4397885799408,323.4397885799408,323.4397885799408,323.4397885799408,324.83938574790955,3,1.5292160511016846,None,,,,,,,,,,,,,,,,,,41,6,2025-02-19_12h08.23.329,comp,2024.2.4,55.954343284498016,2025-02-19 12h08.40.630013 -0500,
119,119,0,critical,wdh,20.0,2.1,lower,57.0,133.0,78.0,78.0,133.0,57.0,1,2.120122194290161,None,,,,,0,0,0,0,0,119,119,10,324.8557834625244,,,,,,,,,,,,,,,,,,,,,,,,,,,,,,,,,,,,,,,,,,,,,,,,,,,,,,,,,,,,,,,,,,,,,,,,,,,,,,,,,57.0,133.0,78.0,78.0,133.0,57.0,2.1,2.12,-202,-280,0,-273,164,256,324.841059923172,324.84113693237305,324.84443044662476,324.8557834625244,325.00766110420227,325.00766110420227,325.00766110420227,325.00766110420227,325.00766110420227,325.00766110420227,325.00766110420227,326.9926133155823,1,2.120122194290161,None,,,,,,,,,,,,,,,,,,41,6,2025-02-19_12h08.23.329,comp,2024.2.4,55.954343284498016,2025-02-19 12h08.40.630013 -0500,
120,120,0,critical,dhw,20.0,1.0,upper,141.0,141.0,200.0,125.0,125.0,200.0,2,1.7993826866149902,None,,,,,0,0,0,0,0,120,120,55,327.00861978530884,,,,,,,,,,,,,,,,,,,,,,,,,,,,,,,,,,,,,,,,,,,,,,,,,,,,,,,,,,,,,,,,,,,,,,,,,,,,,,,,,141.0,141.0,200.0,125.0,125.0,200.0,1.0,1.2,-229,11,0,-13,258,10,326.99422788619995,326.99430894851685,326.99791049957275,327.00861978530884,327.1598243713379,327.1598243713379,327.1598243713379,327.1598243713379,327.1598243713379,327.1598243713379,327.1598243713379,328.82652044296265,2,1.7993826866149902,None,,,,,,,,,,,,,,,,,,41,6,2025-02-19_12h08.23.329,comp,2024.2.4,55.954343284498016,2025-02-19 12h08.40.630013 -0500,
121,121,0,critical,hwd,35.0,4.0,lower,133.0,57.0,57.0,133.0,70.0,70.0,2,1.102435827255249,None,,,,,0,0,0,0,0,121,121,100,328.8415484428406,,,,,,,,,,,,,,,,,,,,,,,,,,,,,,,,,,,,,,,,,,,,,,,,,,,,,,,,,,,,,,,,,,,,,,,,,,,,,,,,,133.0,57.0,57.0,133.0,70.0,70.0,4.0,4.2,-191,8,0,-286,198,11,328.82806301116943,328.8281400203705,328.83120489120483,328.8415484428406,328.9905741214752,328.9905741214752,328.9905741214752,328.9905741214752,328.9905741214752,328.9905741214752,328.9905741214752,329.9574680328369,2,1.102435827255249,None,,,,,,,,,,,,,,,,,,41,6,2025-02-19_12h08.23.329,comp,2024.2.4,55.954343284498016,2025-02-19 12h08.40.630013 -0500,
122,122,0,catch,None,None,None,None,None,None,None,None,None,None,2,1.2908196449279785,None,,,,,0,0,0,0,0,122,122,128,329.97307085990906,,,,,,,,,,,,,,,,,,,,,,,,,,,,,,,,,,,,,,,,,,,,,,,,,,,,,,,,,,,,,,,,,,,,,,,,,,,,,,,,,117,73,132,193,64,126,4.0,4.1,-229,-255,0,13,256,-260,329.95967054367065,329.9597499370575,329.9630320072174,329.97307085990906,330.1297414302826,330.1297414302826,330.1297414302826,330.1297414302826,330.1297414302826,330.1297414302826,330.1297414302826,331.2765016555786,2,1.2908196449279785,None,,,,,,,,,,,,,,,,,,41,6,2025-02-19_12h08.23.329,comp,2024.2.4,55.954343284498016,2025-02-19 12h08.40.630013 -0500,
123,123,0,critical,dhw,20.0,2.1,upper,141.0,141.0,200.0,125.0,125.0,200.0,2,1.6166400909423828,None,,,,,0,0,0,0,0,123,123,3,331.2957384586334,,,,,,,,,,,,,,,,,,,,,,,,,,,,,,,,,,,,,,,,,,,,,,,,,,,,,,,,,,,,,,,,,,,,,,,,,,,,,,,,,141.0,141.0,200.0,125.0,125.0,200.0,2.1,2.12,-229,-288,0,-282,258,273,331.2780466079712,331.2781229019165,331.28155040740967,331.2957384586334,331.4328989982605,331.4328989982605,331.4328989982605,331.4328989982605,331.4328989982605,331.4328989982605,331.4328989982605,332.93130016326904,2,1.6166400909423828,None,,,,,,,,,,,,,,,,,,41,6,2025-02-19_12h08.23.329,comp,2024.2.4,55.954343284498016,2025-02-19 12h08.40.630013 -0500,
124,124,0,critical,hwd,20.0,2.1,lower,133.0,57.0,57.0,133.0,78.0,78.0,2,1.3066892623901367,None,,,,,0,0,0,0,0,124,124,18,332.9492390155792,,,,,,,,,,,,,,,,,,,,,,,,,,,,,,,,,,,,,,,,,,,,,,,,,,,,,,,,,,,,,,,,,,,,,,,,,,,,,,,,,133.0,57.0,57.0,133.0,78.0,78.0,2.1,2.11,-191,286,0,290,202,-257,332.9330177307129,332.9331500530243,332.9365005493164,332.9492390155792,333.0935776233673,333.0935776233673,333.0935776233673,333.0935776233673,333.0935776233673,333.0935776233673,333.0935776233673,334.26007056236267,2,1.3066892623901367,None,,,,,,,,,,,,,,,,,,41,6,2025-02-19_12h08.23.329,comp,2024.2.4,55.954343284498016,2025-02-19 12h08.40.630013 -0500,
125,125,0,critical,whd,35.0,1.0,lower,57.0,133.0,133.0,57.0,70.0,70.0,2,0.7804882526397705,None,,,,,0,0,0,0,0,125,125,84,334.2759802341461,,,,,,,,,,,,,,,,,,,,,,,,,,,,,,,,,,,,,,,,,,,,,,,,,,,,,,,,,,,,,,,,,,,,,,,,,,,,,,,,,57.0,133.0,133.0,57.0,70.0,70.0,1.0,1.2,-191,-3,0,17,160,-3,334.2616562843323,334.26173520088196,334.2652144432068,334.2759802341461,334.427521944046,334.427521944046,334.427521944046,334.427521944046,334.427521944046,334.427521944046,334.427521944046,335.06708002090454,2,0.7804882526397705,None,,,,,,,,,,,,,,,,,,41,6,2025-02-19_12h08.23.329,comp,2024.2.4,55.954343284498016,2025-02-19 12h08.40.630013 -0500,
126,126,0,critical,wdh,35.0,3.0,upper,125.0,200.0,127.0,127.0,200.0,125.0,3,1.9374706745147705,None,,,,,0,0,0,0,0,126,126,75,335.08647537231445,,,,,,,,,,,,,,,,,,,,,,,,,,,,,,,,,,,,,,,,,,,,,,,,,,,,,,,,,,,,,,,,,,,,,,,,,,,,,,,,,125.0,200.0,127.0,127.0,200.0,125.0,3.0,3.2,-260,-276,0,3,222,268,335.0687153339386,335.06881380081177,335.0721597671509,335.08647537231445,335.2236166000366,335.2236166000366,335.2236166000366,335.2236166000366,335.2236166000366,335.2236166000366,335.2236166000366,337.0337038040161,3,1.9374706745147705,None,,,,,,,,,,,,,,,,,,41,6,2025-02-19_12h08.23.329,comp,2024.2.4,55.954343284498016,2025-02-19 12h08.40.630013 -0500,
127,127,0,filler_square,None,None,None,None,None,None,None,None,None,None,2,1.7922155857086182,None,,,,,0,0,0,0,0,127,127,205,337.04810214042664,,,,,,,,,,,,,,,,,,,,,,,,,,,,,,,,,,,,,,,,,,,,,,,,,,,,,,,,,,,,,,,,,,,,,,,,,,,,,,,,,93.2603036028912,89.29932601223261,120.03250966726699,120.03250966726699,90.86445668143395,109.51259240794697,3.0,3.1,-201,283,0,-20,211,-290,337.03551983833313,337.035596370697,337.038423538208,337.04810214042664,337.19582533836365,337.19582533836365,337.19582533836365,337.19582533836365,337.19582533836365,337.19582533836365,337.19582533836365,338.849689245224,2,1.7922155857086182,None,,,,,,,,,,,,,,,,,,41,6,2025-02-19_12h08.23.329,comp,2024.2.4,55.954343284498016,2025-02-19 12h08.40.630013 -0500,
128,128,0,filler_square,None,None,None,None,None,None,None,None,None,None,3,1.1032986640930176,None,,,,,0,0,0,0,0,128,128,188,338.8659625053406,,,,,,,,,,,,,,,,,,,,,,,,,,,,,,,,,,,,,,,,,,,,,,,,,,,,,,,,,,,,,,,,,,,,,,,,,,,,,,,,,60.16067549540402,109.06737889754748,121.53916333610705,112.35171884080505,152.67400872636398,152.67400872636398,2.1,2.12,-207,-251,0,-261,229,257,338.8515350818634,338.85161542892456,338.85449147224426,338.8659625053406,339.01154494285583,339.01154494285583,339.01154494285583,339.01154494285583,339.01154494285583,339.01154494285583,339.01154494285583,339.98029351234436,3,1.1032986640930176,None,,,,,,,,,,,,,,,,,,41,6,2025-02-19_12h08.23.329,comp,2024.2.4,55.954343284498016,2025-02-19 12h08.40.630013 -0500,
129,129,0,filler_random,None,None,None,None,None,None,None,None,None,None,3,1.2601141929626465,None,,,,,0,0,0,0,0,129,129,156,339.996369600296,,,,,,,,,,,,,,,,,,,,,,,,,,,,,,,,,,,,,,,,,,,,,,,,,,,,,,,,,,,,,,,,,,,,,,,,,,,,,,,,,75.77928881164328,117.89059335626357,164.45360967008165,93.18092285111344,196.00055014643894,198.9147869596865,1.0,1.3,278,-261,480,-261,722,-283,339.9821529388428,339.98223662376404,339.98548197746277,339.996369600296,340.1435511112213,340.1435511112213,340.1435511112213,340.1435511112213,340.1435511112213,340.1435511112213,340.1435511112213,341.2618260383606,3,1.2601141929626465,None,,,,,,,,,,,,,,,,,,41,6,2025-02-19_12h08.23.329,comp,2024.2.4,55.954343284498016,2025-02-19 12h08.40.630013 -0500,
130,130,0,critical,whd,20.0,3.0,lower,57.0,133.0,133.0,57.0,78.0,78.0,2,1.746443748474121,None,,,,,0,0,0,0,0,130,130,92,341.27813267707825,,,,,,,,,,,,,,,,,,,,,,,,,,,,,,,,,,,,,,,,,,,,,,,,,,,,,,,,,,,,,,,,,,,,,,,,,,,,,,,,,57.0,133.0,133.0,57.0,78.0,78.0,3.0,3.1,-191,258,0,17,164,-261,341.26329588890076,341.26337480545044,341.26656913757324,341.27813267707825,341.42992997169495,341.42992997169495,341.42992997169495,341.42992997169495,341.42992997169495,341.42992997169495,341.42992997169495,343.0306770801544,2,1.746443748474121,None,,,,,,,,,,,,,,,,,,41,6,2025-02-19_12h08.23.329,comp,2024.2.4,55.954343284498016,2025-02-19 12h08.40.630013 -0500,
131,131,0,filler_square,None,None,None,None,None,None,None,None,None,None,3,0.9367392063140869,None,,,,,0,0,0,0,0,131,131,208,343.04714703559875,,,,,,,,,,,,,,,,,,,,,,,,,,,,,,,,,,,,,,,,,,,,,,,,,,,,,,,,,,,,,,,,,,,,,,,,,,,,,,,,,137.83102929109518,89.06497311273773,124.85413859257778,88.47700330410285,171.40536878697827,171.40536878697827,3.0,3.2,-185,-265,0,-4,226,256,343.03272438049316,343.03283619880676,343.03625750541687,343.04714703559875,343.1971092224121,343.1971092224121,343.1971092224121,343.1971092224121,343.1971092224121,343.1971092224121,343.1971092224121,344.0005724430084,3,0.9367392063140869,None,,,,,,,,,,,,,,,,,,41,6,2025-02-19_12h08.23.329,comp,2024.2.4,55.954343284498016,2025-02-19 12h08.40.630013 -0500,
132,132,0,critical,dhw,20.0,4.0,lower,78.0,78.0,133.0,57.0,57.0,133.0,2,1.2559027671813965,None,,,,,0,0,0,0,0,132,132,58,344.0167725086212,,,,,,,,,,,,,,,,,,,,,,,,,,,,,,,,,,,,,,,,,,,,,,,,,,,,,,,,,,,,,,,,,,,,,,,,,,,,,,,,,78.0,78.0,133.0,57.0,57.0,133.0,4.0,4.1,-164,-257,0,11,191,-279,344.00230145454407,344.0024769306183,344.0058681964874,344.0167725086212,344.1640999317169,344.1640999317169,344.1640999317169,344.1640999317169,344.1640999317169,344.1640999317169,344.1640999317169,345.28181982040405,2,1.2559027671813965,None,,,,,,,,,,,,,,,,,,41,6,2025-02-19_12h08.23.329,comp,2024.2.4,55.954343284498016,2025-02-19 12h08.40.630013 -0500,
133,133,0,filler_random,None,None,None,None,None,None,None,None,None,None,3,1.4776146411895752,None,,,,,0,0,0,0,0,133,133,154,345.2984228134155,,,,,,,,,,,,,,,,,,,,,,,,,,,,,,,,,,,,,,,,,,,,,,,,,,,,,,,,,,,,,,,,,,,,,,,,,,,,,,,,,80.80024063514671,127.36460107087419,89.35445134039446,76.06794781283747,106.92547410661632,164.99269114921202,3.0,3.1,-198,275,0,0,217,-282,345.2837965488434,345.2838773727417,345.28736758232117,345.2984228134155,345.44976139068604,345.44976139068604,345.44976139068604,345.44976139068604,345.44976139068604,345.44976139068604,345.44976139068604,346.78261709213257,3,1.4776146411895752,None,,,,,,,,,,,,,,,,,,41,6,2025-02-19_12h08.23.329,comp,2024.2.4,55.954343284498016,2025-02-19 12h08.40.630013 -0500,
134,134,0,critical,hwd,20.0,4.0,upper,200.0,125.0,125.0,200.0,141.0,141.0,2,2.0798816680908203,None,,,,,0,0,0,0,0,134,134,107,346.80020451545715,,,,,,,,,,,,,,,,,,,,,,,,,,,,,,,,,,,,,,,,,,,,,,,,,,,,,,,,,,,,,,,,,,,,,,,,,,,,,,,,,200.0,125.0,125.0,200.0,141.0,141.0,4.0,4.2,-258,-16,0,-286,266,7,346.7841124534607,346.78419280052185,346.7870771884918,346.80020451545715,346.9476661682129,346.9476661682129,346.9476661682129,346.9476661682129,346.9476661682129,346.9476661682129,346.9476661682129,348.89317202568054,2,2.0798816680908203,None,,,,,,,,,,,,,,,,,,41,6,2025-02-19_12h08.23.329,comp,2024.2.4,55.954343284498016,2025-02-19 12h08.40.630013 -0500,
135,135,0,critical,hdw,20.0,2.1,upper,200.0,125.0,141.0,141.0,125.0,200.0,3,1.1072821617126465,None,,,,,0,0,0,0,0,135,135,23,348.9090487957001,,,,,,,,,,,,,,,,,,,,,,,,,,,,,,,,,,,,,,,,,,,,,,,,,,,,,,,,,,,,,,,,,,,,,,,,,,,,,,,,,200.0,125.0,141.0,141.0,125.0,200.0,2.1,2.11,-229,285,0,281,266,-284,348.89473366737366,348.89480900764465,348.89807629585266,348.9090487957001,349.0505666732788,349.0505666732788,349.0505666732788,349.0505666732788,349.0505666732788,349.0505666732788,349.0505666732788,350.02473998069763,3,1.1072821617126465,None,,,,,,,,,,,,,,,,,,41,6,2025-02-19_12h08.23.329,comp,2024.2.4,55.954343284498016,2025-02-19 12h08.40.630013 -0500,
136,136,0,critical,dhw,35.0,1.0,upper,127.0,127.0,200.0,125.0,125.0,200.0,2,0.9304218292236328,None,,,,,0,0,0,0,0,136,136,49,350.04558777809143,,,,,,,,,,,,,,,,,,,,,,,,,,,,,,,,,,,,,,,,,,,,,,,,,,,,,,,,,,,,,,,,,,,,,,,,,,,,,,,,,127.0,127.0,200.0,125.0,125.0,200.0,1.0,1.2,-222,13,0,10,258,-6,350.0263888835907,350.02650117874146,350.0298042297363,350.04558777809143,350.1826672554016,350.1826672554016,350.1826672554016,350.1826672554016,350.1826672554016,350.1826672554016,350.1826672554016,350.9912176132202,2,0.9304218292236328,None,,,,,,,,,,,,,,,,,,41,6,2025-02-19_12h08.23.329,comp,2024.2.4,55.954343284498016,2025-02-19 12h08.40.630013 -0500,
137,137,0,critical,wdh,35.0,2.1,upper,125.0,200.0,127.0,127.0,200.0,125.0,3,1.9611916542053223,None,,,,,0,0,0,0,0,137,137,33,351.0075306892395,,,,,,,,,,,,,,,,,,,,,,,,,,,,,,,,,,,,,,,,,,,,,,,,,,,,,,,,,,,,,,,,,,,,,,,,,,,,,,,,,125.0,200.0,127.0,127.0,200.0,125.0,2.1,2.11,-260,269,0,274,222,-272,350.99285364151,350.99292755126953,350.9962341785431,351.0075306892395,351.14758348464966,351.14758348464966,351.14758348464966,351.14758348464966,351.14758348464966,351.14758348464966,351.14758348464966,352.9725980758667,3,1.9611916542053223,None,,,,,,,,,,,,,,,,,,41,6,2025-02-19_12h08.23.329,comp,2024.2.4,55.954343284498016,2025-02-19 12h08.40.630013 -0500,
138,138,0,critical,dhw,20.0,2.1,lower,78.0,78.0,133.0,57.0,57.0,133.0,2,1.514864444732666,None,,,,,0,0,0,0,0,138,138,2,352.98921394348145,,,,,,,,,,,,,,,,,,,,,,,,,,,,,,,,,,,,,,,,,,,,,,,,,,,,,,,,,,,,,,,,,,,,,,,,,,,,,,,,,78.0,78.0,133.0,57.0,57.0,133.0,2.1,2.12,-164,-255,0,-286,191,251,352.97423100471497,352.974308013916,352.97755908966064,352.98921394348145,353.1361041069031,353.1361041069031,353.1361041069031,353.1361041069031,353.1361041069031,353.1361041069031,353.1361041069031,354.51778769493103,2,1.514864444732666,None,,,,,,,,,,,,,,,,,,41,6,2025-02-19_12h08.23.329,comp,2024.2.4,55.954343284498016,2025-02-19 12h08.40.630013 -0500,
139,139,0,filler_square,None,None,None,None,None,None,None,None,None,None,2,2.267038583755493,None,,,,,0,0,0,0,0,139,139,206,354.53301668167114,,,,,,,,,,,,,,,,,,,,,,,,,,,,,,,,,,,,,,,,,,,,,,,,,,,,,,,,,,,,,,,,,,,,,,,,,,,,,,,,,61.01715901552275,60.552959498646096,59.6277699865,59.678105142774214,61.70305279235069,61.70305279235069,3.0,3.1,-156,256,0,-3,157,-254,354.5195415019989,354.5196797847748,354.52275228500366,354.53301668167114,354.68404960632324,354.68404960632324,354.68404960632324,354.68404960632324,354.68404960632324,354.68404960632324,354.68404960632324,356.8020203113556,2,2.267038583755493,None,,,,,,,,,,,,,,,,,,41,6,2025-02-19_12h08.23.329,comp,2024.2.4,55.954343284498016,2025-02-19 12h08.40.630013 -0500,
140,140,0,critical,whd,35.0,3.0,upper,125.0,200.0,200.0,125.0,127.0,127.0,2,2.801070213317871,None,,,,,0,0,0,0,0,140,140,87,356.82289958000183,,,,,,,,,,,,,,,,,,,,,,,,,,,,,,,,,,,,,,,,,,,,,,,,,,,,,,,,,,,,,,,,,,,,,,,,,,,,,,,,,125.0,200.0,200.0,125.0,127.0,127.0,3.0,3.1,-258,287,0,-17,222,-255,356.80368876457214,356.80378222465515,356.8070924282074,356.82289958000183,356.9671218395233,356.9671218395233,356.9671218395233,356.9671218395233,356.9671218395233,356.9671218395233,356.9671218395233,359.6341550350189,2,2.801070213317871,None,,,,,,,,,,,,,,,,,,41,6,2025-02-19_12h08.23.329,comp,2024.2.4,55.954343284498016,2025-02-19 12h08.40.630013 -0500,
