thisN,thisTrialN,thisRepN,effect,order,distance,config,diag,h_1,w_1,h_2,w_2,h_3,w_3,rect_choice.keys,rect_choice.rt,rect_choice.duration,instructions_loop.thisRepN,instructions_loop.thisTrialN,instructions_loop.thisN,instructions_loop.thisIndex,blocks.thisRepN,blocks.thisTrialN,blocks.thisN,blocks.thisIndex,trials.thisRepN,trials.thisTrialN,trials.thisN,trials.thisIndex,thisRow.t,notes,consent.started,agree_button.started,decline_button.started,consent_img.started,mouse.started,consent.stopped,agree_button.numClicks,agree_button.timesOn,agree_button.timesOff,decline_button.numClicks,decline_button.timesOn,decline_button.timesOff,mouse.x,mouse.y,mouse.leftButton,mouse.midButton,mouse.rightButton,mouse.time,mouse.clicked_name,exp_params.started,exp_params.stopped,welcome.started,welcome_text.started,welcome.stopped,instructions_1.started,instructions_1_text_1.started,instructions_1_text_2.started,key_resp.started,instructions_1.stopped,instructions_loop.key_resp.keys,instructions_loop.key_resp.rt,instructions_loop.key_resp.duration,instructions_2.started,instructions_2_text_1.started,instructions_2_text_2.started,key_resp_2.started,instructions_2.stopped,instructions_loop.key_resp_2.keys,instructions_loop.key_resp_2.rt,instructions_loop.key_resp_2.duration,instructions_3.started,instructions_3_text_1.started,r1_instr3.started,r2_instr3.started,r3_instr3.started,r1_instr3_label.started,r2_instr3_label.started,r3_instr3_label.started,instructions_3_text_3.started,instructions_3_text_4.started,key_resp_3.started,instructions_3.stopped,instructions_loop.key_resp_3.keys,instructions_loop.key_resp_3.rt,instructions_loop.key_resp_3.duration,instructions_4.started,instructions_4_text_1.started,instructions_4_text_3.started,instructions_4_text_2.started,key_resp_4.started,instructions_4.stopped,instructions_loop.key_resp_4.keys,instructions_loop.key_resp_4.rt,instructions_loop.key_resp_4.duration,instructions_5.started,instructions_5_text_1.started,instructions_5_text_2.started,key_resp_5.started,instructions_5.stopped,instructions_loop.key_resp_5.keys,instructions_loop.key_resp_5.rt,instructions_loop.key_resp_5.duration,start_exp.started,start_exp_text.started,key_resp_6.started,start_exp.stopped,key_resp_6.keys,key_resp_6.rt,key_resp_6.duration,h_1_tmp,w_1_tmp,h_2_tmp,w_2_tmp,h_3_tmp,w_3_tmp,config_tmp,config_tmp_1,r_1_x,r_1_y,r_2_x,r_2_y,r_3_x,r_3_y,pre_trial.started,pre_trial.stopped,choice_trial.started,rect_choice.started,r_1.started,r_2.started,r_3.started,r_1_label.started,r_2_label.started,r_3_label.started,prompt.started,choice_trial.stopped,trials.rect_choice.keys,trials.rect_choice.rt,trials.rect_choice.duration,end_block.started,end_block_text.started,end_block.stopped,end.started,end_text.started,key_resp_7.started,end.stopped,key_resp_7.keys,key_resp_7.rt,key_resp_7.duration,debriefing.started,debrief_form.started,end_debrief.started,debriefing.stopped,end_debrief.keys,end_debrief.rt,end_debrief.duration,participant,computer,date,expName,psychopyVersion,frameRate,expStart,
,,,,,,,,,,,,,,,,,,,,,,,,,,,,,,,0.014450311660766602,0.035276174545288086,0.035276174545288086,0.035276174545288086,0.014246225357055664,96.95015740394592,1,[96.91205286979675],[96.91207575798035],0,,,[-85.0],[-499.0],[1],[0],[0],[96.93527579307556],['agree_button'],,,,,,,,,,,,,,,,,,,,,,,,,,,,,,,,,,,,,,,,,,,,,,,,,,,,,,,,,,,,,,,,,,,,,,,,,,,,,,,,,,,,,,,,,,,,,,,,,,,,,,,,,,,42,1,2025-02-19_12h27.09.450,comp,2024.2.4,None,2025-02-19 12h27.20.652136 -0500,
,,,,,,,,,,,,,,,,,,,,,,,,,,,,,,,,,,,,,,,,,,,,,,,,,,96.95084762573242,96.95091509819031,,,,,,,,,,,,,,,,,,,,,,,,,,,,,,,,,,,,,,,,,,,,,,,,,,,,,,,,,,,,,,,,,,,,,,,,,,,,,,,,,,,,,,,,,,,,,,,,,,,,,,,,,42,1,2025-02-19_12h27.09.450,comp,2024.2.4,None,2025-02-19 12h27.20.652136 -0500,
,,,,,,,,,,,,,,,,,,,,,,,,,,,,,,,,,,,,,,,,,,,,,,,,,,,,96.95096063613892,96.96831798553467,98.96458268165588,,,,,,,,,,,,,,,,,,,,,,,,,,,,,,,,,,,,,,,,,,,,,,,,,,,,,,,,,,,,,,,,,,,,,,,,,,,,,,,,,,,,,,,,,,,,,,,,,,,,,,42,1,2025-02-19_12h27.09.450,comp,2024.2.4,None,2025-02-19 12h27.20.652136 -0500,
0,0,0,,,,,,,,,,,,,,,0,0,0,0,,,,,,,,,98.98088836669922,,,,,,,,,,,,,,,,,,,,,,,,,,98.96542954444885,98.98088836669922,98.98088836669922,100.46498703956604,103.28432059288025,space,2.80088210105896,None,103.2844705581665,103.2975823879242,103.2975823879242,104.80401754379272,110.03575015068054,space,5.214099884033203,None,110.03590178489685,110.06484341621399,110.06484341621399,110.06484341621399,110.06484341621399,110.06484341621399,110.06484341621399,110.06484341621399,110.06484341621399,110.06484341621399,111.55092763900757,116.0211250782013,space,4.459072113037109,None,116.02128291130066,116.03898596763611,116.03898596763611,116.03898596763611,117.53710412979126,123.5316572189331,space,5.976724863052368,None,123.53182339668274,123.5488212108612,123.5488212108612,125.03732919692993,125.57286071777344,space,0.53302001953125,None,125.57305455207825,125.59207940101624,125.59207940101624,126.69073414802551,space,1.0818634033203125,None,,,,,,,,,,,,,,,,,,,,,,,,,,,,,,,,,,,,,,,,,,,,,,,42,1,2025-02-19_12h27.09.450,comp,2024.2.4,None,2025-02-19 12h27.20.652136 -0500,
0,0,0,critical,hdw,35.0,1.0,lower,133.0,57.0,70.0,70.0,57.0,133.0,1,7.423760890960693,None,,,,,0,0,0,0,0,0,0,108,126.77012991905212,,,,,,,,,,,,,,,,,,,,,,,,,,,,,,,,,,,,,,,,,,,,,,,,,,,,,,,,,,,,,,,,,,,,,,,,,,,,,,,,,133.0,57.0,70.0,70.0,57.0,133.0,1.0,1.2,-160,2,0,17,198,-20,126.75334692001343,126.7533950805664,126.75521850585938,126.77012991905212,126.91219449043274,126.91219449043274,126.91219449043274,126.91219449043274,126.91219449043274,126.91219449043274,126.91219449043274,134.2082188129425,1,7.423760890960693,None,,,,,,,,,,,,,,,,,,42,1,2025-02-19_12h27.09.450,comp,2024.2.4,None,2025-02-19 12h27.20.652136 -0500,
1,1,0,critical,hdw,20.0,3.0,lower,133.0,57.0,78.0,78.0,57.0,133.0,1,6.717751502990723,None,,,,,0,0,0,0,0,1,1,116,134.22820401191711,,,,,,,,,,,,,,,,,,,,,,,,,,,,,,,,,,,,,,,,,,,,,,,,,,,,,,,,,,,,,,,,,,,,,,,,,,,,,,,,,133.0,57.0,78.0,78.0,57.0,133.0,3.0,3.1,-164,280,0,19,202,-273,134.20974016189575,134.20981287956238,134.21237921714783,134.22820401191711,134.37733244895935,134.37733244895935,134.37733244895935,134.37733244895935,134.37733244895935,134.37733244895935,134.37733244895935,140.96231174468994,1,6.717751502990723,None,,,,,,,,,,,,,,,,,,42,1,2025-02-19_12h27.09.450,comp,2024.2.4,None,2025-02-19 12h27.20.652136 -0500,
2,2,0,filler_random,None,None,None,None,None,None,None,None,None,None,2,5.192292213439941,None,,,,,0,0,0,0,0,2,2,130,140.9784450531006,,,,,,,,,,,,,,,,,,,,,,,,,,,,,,,,,,,,,,,,,,,,,,,,,,,,,,,,,,,,,,,,,,,,,,,,,,,,,,,,,119.0165541492314,77.08531540745108,162.8190353053301,186.2324677286178,124.52695568331221,189.60324928941398,1.0,1.3,252,-254,480,-252,764,-284,140.96401023864746,140.96408939361572,140.9681100845337,140.9784450531006,141.12959599494934,141.12959599494934,141.12959599494934,141.12959599494934,141.12959599494934,141.12959599494934,141.12959599494934,146.18085765838623,2,5.192292213439941,None,,,,,,,,,,,,,,,,,,42,1,2025-02-19_12h27.09.450,comp,2024.2.4,None,2025-02-19 12h27.20.652136 -0500,
3,3,0,critical,hwd,35.0,2.1,upper,200.0,125.0,125.0,200.0,127.0,127.0,1,8.711032152175903,None,,,,,0,0,0,0,0,3,3,17,146.1967203617096,,,,,,,,,,,,,,,,,,,,,,,,,,,,,,,,,,,,,,,,,,,,,,,,,,,,,,,,,,,,,,,,,,,,,,,,,,,,,,,,,200.0,125.0,125.0,200.0,127.0,127.0,2.1,2.12,-258,-273,0,-251,260,257,146.1824119091034,146.1824905872345,146.18591046333313,146.1967203617096,146.34569239616394,146.34569239616394,146.34569239616394,146.34569239616394,146.34569239616394,146.34569239616394,146.34569239616394,154.91810536384583,1,8.711032152175903,None,,,,,,,,,,,,,,,,,,42,1,2025-02-19_12h27.09.450,comp,2024.2.4,None,2025-02-19 12h27.20.652136 -0500,
4,4,0,filler_square,None,None,None,None,None,None,None,None,None,None,2,2.5712966918945312,None,,,,,0,0,0,0,0,4,4,175,154.93466758728027,,,,,,,,,,,,,,,,,,,,,,,,,,,,,,,,,,,,,,,,,,,,,,,,,,,,,,,,,,,,,,,,,,,,,,,,,,,,,,,,,74.13751923775607,76.58894531673093,96.70951838735435,96.70951838735435,62.50170567912408,57.655846405340874,2.1,2.12,-183,-279,0,-284,173,251,154.92007327079773,154.92015480995178,154.923602104187,154.93466758728027,155.08390498161316,155.08390498161316,155.08390498161316,155.08390498161316,155.08390498161316,155.08390498161316,155.08390498161316,157.51563715934753,2,2.5712966918945312,None,,,,,,,,,,,,,,,,,,42,1,2025-02-19_12h27.09.450,comp,2024.2.4,None,2025-02-19 12h27.20.652136 -0500,
5,5,0,critical,whd,35.0,3.0,upper,125.0,200.0,200.0,125.0,127.0,127.0,1,4.431622743606567,None,,,,,0,0,0,0,0,5,5,87,157.53130722045898,,,,,,,,,,,,,,,,,,,,,,,,,,,,,,,,,,,,,,,,,,,,,,,,,,,,,,,,,,,,,,,,,,,,,,,,,,,,,,,,,125.0,200.0,200.0,125.0,127.0,127.0,3.0,3.2,-258,-255,0,20,222,285,157.5171253681183,157.51720595359802,157.5200936794281,157.53130722045898,157.67356157302856,157.67356157302856,157.67356157302856,157.67356157302856,157.67356157302856,157.67356157302856,157.67356157302856,161.97148299217224,1,4.431622743606567,None,,,,,,,,,,,,,,,,,,42,1,2025-02-19_12h27.09.450,comp,2024.2.4,None,2025-02-19 12h27.20.652136 -0500,
6,6,0,critical,hwd,35.0,3.0,upper,200.0,125.0,125.0,200.0,127.0,127.0,1,7.230184555053711,None,,,,,0,0,0,0,0,6,6,99,161.9877791404724,,,,,,,,,,,,,,,,,,,,,,,,,,,,,,,,,,,,,,,,,,,,,,,,,,,,,,,,,,,,,,,,,,,,,,,,,,,,,,,,,200.0,125.0,125.0,200.0,127.0,127.0,3.0,3.1,-258,256,0,7,260,-267,161.97324872016907,161.97339487075806,161.9768533706665,161.9877791404724,162.1335871219635,162.1335871219635,162.1335871219635,162.1335871219635,162.1335871219635,162.1335871219635,162.1335871219635,169.2306890487671,1,7.230184555053711,None,,,,,,,,,,,,,,,,,,42,1,2025-02-19_12h27.09.450,comp,2024.2.4,None,2025-02-19 12h27.20.652136 -0500,
7,7,0,critical,wdh,20.0,4.0,upper,125.0,200.0,141.0,141.0,200.0,125.0,3,2.739598035812378,None,,,,,0,0,0,0,0,7,7,83,169.24648189544678,,,,,,,,,,,,,,,,,,,,,,,,,,,,,,,,,,,,,,,,,,,,,,,,,,,,,,,,,,,,,,,,,,,,,,,,,,,,,,,,,125.0,200.0,141.0,141.0,200.0,125.0,4.0,4.1,-266,-289,0,4,229,-288,169.23222064971924,169.2323021888733,169.23517751693726,169.24648189544678,169.3879153728485,169.3879153728485,169.3879153728485,169.3879153728485,169.3879153728485,169.3879153728485,169.3879153728485,172.0046489238739,3,2.739598035812378,None,,,,,,,,,,,,,,,,,,42,1,2025-02-19_12h27.09.450,comp,2024.2.4,None,2025-02-19 12h27.20.652136 -0500,
8,8,0,filler_random,None,None,None,None,None,None,None,None,None,None,3,1.7105200290679932,None,,,,,0,0,0,0,0,8,8,150,172.02034878730774,,,,,,,,,,,,,,,,,,,,,,,,,,,,,,,,,,,,,,,,,,,,,,,,,,,,,,,,,,,,,,,,,,,,,,,,,,,,,,,,,153.81824207840435,147.3495133388672,134.47128945958403,187.97422568063922,199.50840309288878,170.48858410435327,4.0,4.1,-264,-255,0,4,275,-262,172.0064661502838,172.00663089752197,172.0099172592163,172.02034878730774,172.17381501197815,172.17381501197815,172.17381501197815,172.17381501197815,172.17381501197815,172.17381501197815,172.17381501197815,173.7411789894104,3,1.7105200290679932,None,,,,,,,,,,,,,,,,,,42,1,2025-02-19_12h27.09.450,comp,2024.2.4,None,2025-02-19 12h27.20.652136 -0500,
9,9,0,critical,hwd,20.0,1.0,upper,200.0,125.0,125.0,200.0,141.0,141.0,2,3.204259157180786,None,,,,,0,0,0,0,0,9,9,103,173.75861024856567,,,,,,,,,,,,,,,,,,,,,,,,,,,,,,,,,,,,,,,,,,,,,,,,,,,,,,,,,,,,,,,,,,,,,,,,,,,,,,,,,200.0,125.0,125.0,200.0,141.0,141.0,1.0,1.3,222,-261,480,-259,746,-277,173.7428057193756,173.7428901195526,173.74585247039795,173.75861024856567,173.90831851959229,173.90831851959229,173.90831851959229,173.90831851959229,173.90831851959229,173.90831851959229,173.90831851959229,176.9765133857727,2,3.204259157180786,None,,,,,,,,,,,,,,,,,,42,1,2025-02-19_12h27.09.450,comp,2024.2.4,None,2025-02-19 12h27.20.652136 -0500,
10,10,0,filler_random,None,None,None,None,None,None,None,None,None,None,1,1.7207434177398682,None,,,,,0,0,0,0,0,10,10,136,176.99318671226501,,,,,,,,,,,,,,,,,,,,,,,,,,,,,,,,,,,,,,,,,,,,,,,,,,,,,,,,,,,,,,,,,,,,,,,,,,,,,,,,,127.47985503890325,171.26602939075298,89.98204880268665,76.44616621300457,125.3642119987358,153.03106752199153,4.0,4.1,-220,-259,0,10,211,-259,176.9786570072174,176.97874546051025,176.9819483757019,176.99318671226501,177.14014196395874,177.14014196395874,177.14014196395874,177.14014196395874,177.14014196395874,177.14014196395874,177.14014196395874,178.72402667999268,1,1.7207434177398682,None,,,,,,,,,,,,,,,,,,42,1,2025-02-19_12h27.09.450,comp,2024.2.4,None,2025-02-19 12h27.20.652136 -0500,
11,11,0,critical,wdh,35.0,2.1,lower,57.0,133.0,70.0,70.0,133.0,57.0,3,3.7422678470611572,None,,,,,0,0,0,0,0,11,11,8,178.7406656742096,,,,,,,,,,,,,,,,,,,,,,,,,,,,,,,,,,,,,,,,,,,,,,,,,,,,,,,,,,,,,,,,,,,,,,,,,,,,,,,,,57.0,133.0,70.0,70.0,133.0,57.0,2.1,2.12,-198,-265,0,-274,160,287,178.72575402259827,178.72588753700256,178.72927260398865,178.7406656742096,178.89338636398315,178.89338636398315,178.89338636398315,178.89338636398315,178.89338636398315,178.89338636398315,178.89338636398315,182.49203062057495,3,3.7422678470611572,None,,,,,,,,,,,,,,,,,,42,1,2025-02-19_12h27.09.450,comp,2024.2.4,None,2025-02-19 12h27.20.652136 -0500,
12,12,0,critical,dwh,20.0,2.1,upper,141.0,141.0,125.0,200.0,200.0,125.0,3,4.543248414993286,None,,,,,0,0,0,0,0,12,12,31,182.5076241493225,,,,,,,,,,,,,,,,,,,,,,,,,,,,,,,,,,,,,,,,,,,,,,,,,,,,,,,,,,,,,,,,,,,,,,,,,,,,,,,,,141.0,141.0,125.0,200.0,200.0,125.0,2.1,2.11,-266,262,0,266,258,-273,182.4935610294342,182.4936408996582,182.49692249298096,182.5076241493225,182.65618205070496,182.65618205070496,182.65618205070496,182.65618205070496,182.65618205070496,182.65618205070496,182.65618205070496,187.06137228012085,3,4.543248414993286,None,,,,,,,,,,,,,,,,,,42,1,2025-02-19_12h27.09.450,comp,2024.2.4,None,2025-02-19 12h27.20.652136 -0500,
13,13,0,filler_random,None,None,None,None,None,None,None,None,None,None,3,5.325621604919434,None,,,,,0,0,0,0,0,13,13,144,187.07723569869995,,,,,,,,,,,,,,,,,,,,,,,,,,,,,,,,,,,,,,,,,,,,,,,,,,,,,,,,,,,,,,,,,,,,,,,,,,,,,,,,,166.0092043851767,85.41499742021877,128.68189098241578,160.33764023406928,163.83248620890913,171.6615772514817,2.1,2.11,-219,282,0,288,262,-260,187.06318712234497,187.06330919265747,187.0664348602295,187.07723569869995,187.22485971450806,187.22485971450806,187.22485971450806,187.22485971450806,187.22485971450806,187.22485971450806,187.22485971450806,192.41002655029297,3,5.325621604919434,None,,,,,,,,,,,,,,,,,,42,1,2025-02-19_12h27.09.450,comp,2024.2.4,None,2025-02-19 12h27.20.652136 -0500,
14,14,0,filler_square,None,None,None,None,None,None,None,None,None,None,2,5.872183799743652,None,,,,,0,0,0,0,0,14,14,206,192.4258964061737,,,,,,,,,,,,,,,,,,,,,,,,,,,,,,,,,,,,,,,,,,,,,,,,,,,,,,,,,,,,,,,,,,,,,,,,,,,,,,,,,108.61605506501024,57.06454133429514,182.3513655136529,182.3513655136529,157.15511775015898,135.12242857344006,1.0,1.2,-216,-17,0,-4,255,-15,192.41182708740234,192.41190767288208,192.41496300697327,192.4258964061737,192.5794734954834,192.5794734954834,192.5794734954834,192.5794734954834,192.5794734954834,192.5794734954834,192.5794734954834,198.31651258468628,2,5.872183799743652,None,,,,,,,,,,,,,,,,,,42,1,2025-02-19_12h27.09.450,comp,2024.2.4,None,2025-02-19 12h27.20.652136 -0500,
15,15,0,filler_random,None,None,None,None,None,None,None,None,None,None,2,2.9613680839538574,None,,,,,0,0,0,0,0,15,15,140,198.3366894721985,,,,,,,,,,,,,,,,,,,,,,,,,,,,,,,,,,,,,,,,,,,,,,,,,,,,,,,,,,,,,,,,,,,,,,,,,,,,,,,,,112.70629399040047,96.29894363335984,104.920439750878,158.56746953201326,70.81422028123471,191.58445549631648,1.0,1.3,257,-259,480,-286,751,-281,198.3187916278839,198.31891584396362,198.3218333721161,198.3366894721985,198.48146271705627,198.48146271705627,198.48146271705627,198.48146271705627,198.48146271705627,198.48146271705627,198.48146271705627,201.31448197364807,2,2.9613680839538574,None,,,,,,,,,,,,,,,,,,42,1,2025-02-19_12h27.09.450,comp,2024.2.4,None,2025-02-19 12h27.20.652136 -0500,
16,16,0,critical,wdh,35.0,3.0,lower,57.0,133.0,70.0,70.0,133.0,57.0,3,2.8944172859191895,None,,,,,0,0,0,0,0,16,16,74,201.3324010372162,,,,,,,,,,,,,,,,,,,,,,,,,,,,,,,,,,,,,,,,,,,,,,,,,,,,,,,,,,,,,,,,,,,,,,,,,,,,,,,,,57.0,133.0,70.0,70.0,133.0,57.0,3.0,3.1,-198,278,0,7,160,-257,201.3161919116974,201.31632494926453,201.31963205337524,201.3324010372162,201.48903369903564,201.48903369903564,201.48903369903564,201.48903369903564,201.48903369903564,201.48903369903564,201.48903369903564,204.23206567764282,3,2.8944172859191895,None,,,,,,,,,,,,,,,,,,42,1,2025-02-19_12h27.09.450,comp,2024.2.4,None,2025-02-19 12h27.20.652136 -0500,
17,17,0,critical,wdh,20.0,2.1,upper,125.0,200.0,141.0,141.0,200.0,125.0,3,4.569945573806763,None,,,,,0,0,0,0,0,17,17,35,204.24805188179016,,,,,,,,,,,,,,,,,,,,,,,,,,,,,,,,,,,,,,,,,,,,,,,,,,,,,,,,,,,,,,,,,,,,,,,,,,,,,,,,,125.0,200.0,141.0,141.0,200.0,125.0,2.1,2.11,-266,268,0,269,229,-252,204.2336232662201,204.23372554779053,204.23716378211975,204.24805188179016,204.4007649421692,204.4007649421692,204.4007649421692,204.4007649421692,204.4007649421692,204.4007649421692,204.4007649421692,208.8341031074524,3,4.569945573806763,None,,,,,,,,,,,,,,,,,,42,1,2025-02-19_12h27.09.450,comp,2024.2.4,None,2025-02-19 12h27.20.652136 -0500,
18,18,0,critical,wdh,35.0,2.1,upper,125.0,200.0,127.0,127.0,200.0,125.0,3,2.102651834487915,None,,,,,0,0,0,0,0,18,18,9,208.85140562057495,,,,,,,,,,,,,,,,,,,,,,,,,,,,,,,,,,,,,,,,,,,,,,,,,,,,,,,,,,,,,,,,,,,,,,,,,,,,,,,,,125.0,200.0,127.0,127.0,200.0,125.0,2.1,2.11,-260,276,0,270,222,-264,208.83558750152588,208.83566617965698,208.83877754211426,208.85140562057495,208.9964201450348,208.9964201450348,208.9964201450348,208.9964201450348,208.9964201450348,208.9964201450348,208.9964201450348,210.96841406822205,3,2.102651834487915,None,,,,,,,,,,,,,,,,,,42,1,2025-02-19_12h27.09.450,comp,2024.2.4,None,2025-02-19 12h27.20.652136 -0500,
19,19,0,filler_random,None,None,None,None,None,None,None,None,None,None,1,0.9854686260223389,None,,,,,0,0,0,0,0,19,19,131,210.98458671569824,,,,,,,,,,,,,,,,,,,,,,,,,,,,,,,,,,,,,,,,,,,,,,,,,,,,,,,,,,,,,,,,,,,,,,,,,,,,,,,,,194.37291693561122,191.42829760199248,68.7025411400632,86.33770608263667,188.61123564123068,63.98744076161246,3.0,3.1,-235,272,0,6,171,-289,210.97018313407898,210.97029662132263,210.97384881973267,210.98458671569824,211.1351408958435,211.1351408958435,211.1351408958435,211.1351408958435,211.1351408958435,211.1351408958435,211.1351408958435,211.986168384552,1,0.9854686260223389,None,,,,,,,,,,,,,,,,,,42,1,2025-02-19_12h27.09.450,comp,2024.2.4,None,2025-02-19 12h27.20.652136 -0500,
20,20,0,critical,dhw,20.0,1.0,lower,78.0,78.0,133.0,57.0,57.0,133.0,2,2.685798406600952,None,,,,,0,0,0,0,0,20,20,54,212.00373148918152,,,,,,,,,,,,,,,,,,,,,,,,,,,,,,,,,,,,,,,,,,,,,,,,,,,,,,,,,,,,,,,,,,,,,,,,,,,,,,,,,78.0,78.0,133.0,57.0,57.0,133.0,1.0,1.1,-644,259,-480,255,-289,269,211.9878695011139,211.98794603347778,211.99075436592102,212.00373148918152,212.15162110328674,212.15162110328674,212.15162110328674,212.15162110328674,212.15162110328674,212.15162110328674,212.15162110328674,214.70060300827026,2,2.685798406600952,None,,,,,,,,,,,,,,,,,,42,1,2025-02-19_12h27.09.450,comp,2024.2.4,None,2025-02-19 12h27.20.652136 -0500,
21,21,0,filler_square,None,None,None,None,None,None,None,None,None,None,3,1.701380729675293,None,,,,,0,0,0,0,0,21,21,185,214.71663641929626,,,,,,,,,,,,,,,,,,,,,,,,,,,,,,,,,,,,,,,,,,,,,,,,,,,,,,,,,,,,,,,,,,,,,,,,,,,,,,,,,116.66019699906478,60.120574789860754,80.81364667614663,59.42101919925762,125.59785524795402,125.59785524795402,4.0,4.2,-156,-17,0,-253,189,18,214.7023310661316,214.70246624946594,214.70576643943787,214.71663641929626,214.8686716556549,214.8686716556549,214.8686716556549,214.8686716556549,214.8686716556549,214.8686716556549,214.8686716556549,216.42014694213867,3,1.701380729675293,None,,,,,,,,,,,,,,,,,,42,1,2025-02-19_12h27.09.450,comp,2024.2.4,None,2025-02-19 12h27.20.652136 -0500,
22,22,0,filler_square,None,None,None,None,None,None,None,None,None,None,2,4.462469100952148,None,,,,,0,0,0,0,0,22,22,180,216.43604850769043,,,,,,,,,,,,,,,,,,,,,,,,,,,,,,,,,,,,,,,,,,,,,,,,,,,,,,,,,,,,,,,,,,,,,,,,,,,,,,,,,57.884300412982284,59.42233064314417,61.53179267191613,61.53179267191613,57.49575279003805,61.339342313263934,2.2,2.21,-156,-264,0,279,157,275,216.4219355583191,216.42202425003052,216.42529249191284,216.43604850769043,216.58404898643494,216.58404898643494,216.58404898643494,216.58404898643494,216.58404898643494,216.58404898643494,216.58404898643494,220.90712523460388,2,4.462469100952148,None,,,,,,,,,,,,,,,,,,42,1,2025-02-19_12h27.09.450,comp,2024.2.4,None,2025-02-19 12h27.20.652136 -0500,
23,23,0,critical,dhw,20.0,2.1,lower,78.0,78.0,133.0,57.0,57.0,133.0,2,4.53469705581665,None,,,,,0,0,0,0,0,23,23,2,220.92389035224915,,,,,,,,,,,,,,,,,,,,,,,,,,,,,,,,,,,,,,,,,,,,,,,,,,,,,,,,,,,,,,,,,,,,,,,,,,,,,,,,,78.0,78.0,133.0,57.0,57.0,133.0,2.1,2.12,-164,-260,0,-287,191,288,220.90886545181274,220.90900349617004,220.91219997406006,220.92389035224915,221.06904077529907,221.06904077529907,221.06904077529907,221.06904077529907,221.06904077529907,221.06904077529907,221.06904077529907,225.47857904434204,2,4.53469705581665,None,,,,,,,,,,,,,,,,,,42,1,2025-02-19_12h27.09.450,comp,2024.2.4,None,2025-02-19 12h27.20.652136 -0500,
24,24,0,critical,dwh,35.0,1.0,upper,127.0,127.0,125.0,200.0,200.0,125.0,2,2.12192440032959,None,,,,,0,0,0,0,0,24,24,61,225.49625706672668,,,,,,,,,,,,,,,,,,,,,,,,,,,,,,,,,,,,,,,,,,,,,,,,,,,,,,,,,,,,,,,,,,,,,,,,,,,,,,,,,127.0,127.0,125.0,200.0,200.0,125.0,1.0,1.1,-740,279,-480,257,-222,287,225.4801299571991,225.48020434379578,225.4834418296814,225.49625706672668,225.63869428634644,225.63869428634644,225.63869428634644,225.63869428634644,225.63869428634644,225.63869428634644,225.63869428634644,227.6234209537506,2,2.12192440032959,None,,,,,,,,,,,,,,,,,,42,1,2025-02-19_12h27.09.450,comp,2024.2.4,None,2025-02-19 12h27.20.652136 -0500,
25,25,0,critical,hwd,35.0,1.0,upper,200.0,125.0,125.0,200.0,127.0,127.0,2,2.3403024673461914,None,,,,,0,0,0,0,0,25,25,97,227.63869547843933,,,,,,,,,,,,,,,,,,,,,,,,,,,,,,,,,,,,,,,,,,,,,,,,,,,,,,,,,,,,,,,,,,,,,,,,,,,,,,,,,200.0,125.0,125.0,200.0,127.0,127.0,1.0,1.2,-258,-11,0,16,260,-16,227.62493777275085,227.62501549720764,227.62801313400269,227.63869547843933,227.7903151512146,227.7903151512146,227.7903151512146,227.7903151512146,227.7903151512146,227.7903151512146,227.7903151512146,229.9903166294098,2,2.3403024673461914,None,,,,,,,,,,,,,,,,,,42,1,2025-02-19_12h27.09.450,comp,2024.2.4,None,2025-02-19 12h27.20.652136 -0500,
26,26,0,filler_random,None,None,None,None,None,None,None,None,None,None,2,1.1881158351898193,None,,,,,0,0,0,0,0,26,26,139,230.00596022605896,,,,,,,,,,,,,,,,,,,,,,,,,,,,,,,,,,,,,,,,,,,,,,,,,,,,,,,,,,,,,,,,,,,,,,,,,,,,,,,,,83.96111657978476,67.02851963439322,171.79738755866427,157.70058515971022,79.59401944923245,146.0335379977007,4.0,4.2,-208,13,0,-251,248,-19,229.99199986457825,229.9920780658722,229.9952371120453,230.00596022605896,230.1575894355774,230.1575894355774,230.1575894355774,230.1575894355774,230.1575894355774,230.1575894355774,230.1575894355774,231.20683765411377,2,1.1881158351898193,None,,,,,,,,,,,,,,,,,,42,1,2025-02-19_12h27.09.450,comp,2024.2.4,None,2025-02-19 12h27.20.652136 -0500,
27,27,0,filler_square,None,None,None,None,None,None,None,None,None,None,2,1.4830858707427979,None,,,,,0,0,0,0,0,27,27,188,231.2233452796936,,,,,,,,,,,,,,,,,,,,,,,,,,,,,,,,,,,,,,,,,,,,,,,,,,,,,,,,,,,,,,,,,,,,,,,,,,,,,,,,,82.15059882912306,149.25259890212953,167.82620287270458,167.82620287270458,163.48603181106836,118.52974044188778,1.0,1.2,-255,4,0,-5,239,17,231.20846962928772,231.20857858657837,231.21196603775024,231.2233452796936,231.3769073486328,231.3769073486328,231.3769073486328,231.3769073486328,231.3769073486328,231.3769073486328,231.3769073486328,232.72385907173157,2,1.4830858707427979,None,,,,,,,,,,,,,,,,,,42,1,2025-02-19_12h27.09.450,comp,2024.2.4,None,2025-02-19 12h27.20.652136 -0500,
28,28,0,critical,dwh,20.0,4.0,upper,141.0,141.0,125.0,200.0,200.0,125.0,3,3.6825509071350098,None,,,,,0,0,0,0,0,28,28,71,232.74359345436096,,,,,,,,,,,,,,,,,,,,,,,,,,,,,,,,,,,,,,,,,,,,,,,,,,,,,,,,,,,,,,,,,,,,,,,,,,,,,,,,,141.0,141.0,125.0,200.0,200.0,125.0,4.0,4.2,-266,18,0,-260,258,2,232.7253725528717,232.7254536151886,232.72871565818787,232.74359345436096,232.89226818084717,232.89226818084717,232.89226818084717,232.89226818084717,232.89226818084717,232.89226818084717,232.89226818084717,236.44335317611694,3,3.6825509071350098,None,,,,,,,,,,,,,,,,,,42,1,2025-02-19_12h27.09.450,comp,2024.2.4,None,2025-02-19 12h27.20.652136 -0500,
29,29,0,critical,whd,20.0,2.1,lower,57.0,133.0,133.0,57.0,78.0,78.0,2,6.576732397079468,None,,,,,0,0,0,0,0,29,29,38,236.45775413513184,,,,,,,,,,,,,,,,,,,,,,,,,,,,,,,,,,,,,,,,,,,,,,,,,,,,,,,,,,,,,,,,,,,,,,,,,,,,,,,,,57.0,133.0,133.0,57.0,78.0,78.0,2.1,2.12,-191,-258,0,-265,164,254,236.444926738739,236.4450433254242,236.4482297897339,236.45775413513184,236.6060435771942,236.6060435771942,236.6060435771942,236.6060435771942,236.6060435771942,236.6060435771942,236.6060435771942,243.04902529716492,2,6.576732397079468,None,,,,,,,,,,,,,,,,,,42,1,2025-02-19_12h27.09.450,comp,2024.2.4,None,2025-02-19 12h27.20.652136 -0500,
30,30,0,critical,dhw,35.0,2.1,upper,127.0,127.0,200.0,125.0,125.0,200.0,2,3.9931821823120117,None,,,,,0,0,0,0,0,30,30,25,243.06537556648254,,,,,,,,,,,,,,,,,,,,,,,,,,,,,,,,,,,,,,,,,,,,,,,,,,,,,,,,,,,,,,,,,,,,,,,,,,,,,,,,,127.0,127.0,200.0,125.0,125.0,200.0,2.1,2.12,-222,-268,0,-264,258,288,243.0507037639618,243.05082082748413,243.0537986755371,243.06537556648254,243.21523690223694,243.21523690223694,243.21523690223694,243.21523690223694,243.21523690223694,243.21523690223694,243.21523690223694,247.06116557121277,2,3.9931821823120117,None,,,,,,,,,,,,,,,,,,42,1,2025-02-19_12h27.09.450,comp,2024.2.4,None,2025-02-19 12h27.20.652136 -0500,
31,31,0,critical,whd,20.0,3.0,lower,57.0,133.0,133.0,57.0,78.0,78.0,2,2.2845749855041504,None,,,,,0,0,0,0,0,31,31,92,247.07758593559265,,,,,,,,,,,,,,,,,,,,,,,,,,,,,,,,,,,,,,,,,,,,,,,,,,,,,,,,,,,,,,,,,,,,,,,,,,,,,,,,,57.0,133.0,133.0,57.0,78.0,78.0,3.0,3.2,-191,-282,0,11,164,250,247.06272292137146,247.06280040740967,247.06598544120789,247.07758593559265,247.2289764881134,247.2289764881134,247.2289764881134,247.2289764881134,247.2289764881134,247.2289764881134,247.2289764881134,249.36803197860718,2,2.2845749855041504,None,,,,,,,,,,,,,,,,,,42,1,2025-02-19_12h27.09.450,comp,2024.2.4,None,2025-02-19 12h27.20.652136 -0500,
32,32,0,filler_random,None,None,None,None,None,None,None,None,None,None,1,3.371616840362549,None,,,,,0,0,0,0,0,32,32,158,249.38317275047302,,,,,,,,,,,,,,,,,,,,,,,,,,,,,,,,,,,,,,,,,,,,,,,,,,,,,,,,,,,,,,,,,,,,,,,,,,,,,,,,,172.80302673664272,147.48649232963163,88.1743721156966,171.41647150000625,114.98660770293532,109.35964290747167,2.2,2.22,-255,287,0,-288,236,-283,249.3685324192047,249.368554353714,249.36930131912231,249.38317275047302,249.53024625778198,249.53024625778198,249.53024625778198,249.53024625778198,249.53024625778198,249.53024625778198,249.53024625778198,252.7640736103058,1,3.371616840362549,None,,,,,,,,,,,,,,,,,,42,1,2025-02-19_12h27.09.450,comp,2024.2.4,None,2025-02-19 12h27.20.652136 -0500,
33,33,0,filler_random,None,None,None,None,None,None,None,None,None,None,1,1.5899264812469482,None,,,,,0,0,0,0,0,33,33,145,252.7801592350006,,,,,,,,,,,,,,,,,,,,,,,,,,,,,,,,,,,,,,,,,,,,,,,,,,,,,,,,,,,,,,,,,,,,,,,,,,,,,,,,,126.74857768711358,199.31560171077882,161.30040619574402,69.77000671658195,173.22387091113916,96.33820940783434,2.2,2.21,-231,-271,0,263,179,286,252.76585221290588,252.7659330368042,252.76939225196838,252.7801592350006,252.9273190498352,252.9273190498352,252.9273190498352,252.9273190498352,252.9273190498352,252.9273190498352,252.9273190498352,254.3881995677948,1,1.5899264812469482,None,,,,,,,,,,,,,,,,,,42,1,2025-02-19_12h27.09.450,comp,2024.2.4,None,2025-02-19 12h27.20.652136 -0500,
34,34,0,critical,dhw,20.0,2.1,lower,78.0,78.0,133.0,57.0,57.0,133.0,2,3.8912200927734375,None,,,,,0,0,0,0,0,34,34,26,254.40802764892578,,,,,,,,,,,,,,,,,,,,,,,,,,,,,,,,,,,,,,,,,,,,,,,,,,,,,,,,,,,,,,,,,,,,,,,,,,,,,,,,,78.0,78.0,133.0,57.0,57.0,133.0,2.1,2.12,-164,-289,0,-266,191,288,254.3898012638092,254.38988041877747,254.3927357196808,254.40802764892578,254.54795026779175,254.54795026779175,254.54795026779175,254.54795026779175,254.54795026779175,254.54795026779175,254.54795026779175,258.3056757450104,2,3.8912200927734375,None,,,,,,,,,,,,,,,,,,42,1,2025-02-19_12h27.09.450,comp,2024.2.4,None,2025-02-19 12h27.20.652136 -0500,
35,35,0,critical,hwd,20.0,3.0,upper,200.0,125.0,125.0,200.0,141.0,141.0,2,2.9060468673706055,None,,,,,0,0,0,0,0,35,35,105,258.3207926750183,,,,,,,,,,,,,,,,,,,,,,,,,,,,,,,,,,,,,,,,,,,,,,,,,,,,,,,,,,,,,,,,,,,,,,,,,,,,,,,,,200.0,125.0,125.0,200.0,141.0,141.0,3.0,3.1,-258,281,0,10,266,-280,258.307169675827,258.30724906921387,258.3100965023041,258.3207926750183,258.4720129966736,258.4720129966736,258.4720129966736,258.4720129966736,258.4720129966736,258.4720129966736,258.4720129966736,261.23351645469666,2,2.9060468673706055,None,,,,,,,,,,,,,,,,,,42,1,2025-02-19_12h27.09.450,comp,2024.2.4,None,2025-02-19 12h27.20.652136 -0500,
36,36,0,critical,dhw,20.0,3.0,upper,141.0,141.0,200.0,125.0,125.0,200.0,3,2.527099370956421,None,,,,,0,0,0,0,0,36,36,57,261.2526550292969,,,,,,,,,,,,,,,,,,,,,,,,,,,,,,,,,,,,,,,,,,,,,,,,,,,,,,,,,,,,,,,,,,,,,,,,,,,,,,,,,141.0,141.0,200.0,125.0,125.0,200.0,3.0,3.1,-229,265,0,10,258,-251,261.2350912094116,261.23516941070557,261.23876428604126,261.2526550292969,261.40133452415466,261.40133452415466,261.40133452415466,261.40133452415466,261.40133452415466,261.40133452415466,261.40133452415466,263.784720659256,3,2.527099370956421,None,,,,,,,,,,,,,,,,,,42,1,2025-02-19_12h27.09.450,comp,2024.2.4,None,2025-02-19 12h27.20.652136 -0500,
37,37,0,catch,None,None,None,None,None,None,None,None,None,None,1,1.2234342098236084,None,,,,,0,0,0,0,0,37,37,124,263.80346035957336,,,,,,,,,,,,,,,,,,,,,,,,,,,,,,,,,,,,,,,,,,,,,,,,,,,,,,,,,,,,,,,,,,,,,,,,,,,,,,,,,134,191,97,93,70,120,2.1,2.12,-238,-281,0,-265,202,268,263.786851644516,263.78693556785583,263.7901782989502,263.80346035957336,263.9521095752716,263.9521095752716,263.9521095752716,263.9521095752716,263.9521095752716,263.9521095752716,263.9521095752716,265.03450870513916,1,1.2234342098236084,None,,,,,,,,,,,,,,,,,,42,1,2025-02-19_12h27.09.450,comp,2024.2.4,None,2025-02-19 12h27.20.652136 -0500,
38,38,0,critical,whd,35.0,2.1,lower,57.0,133.0,133.0,57.0,70.0,70.0,2,2.5279159545898438,None,,,,,0,0,0,0,0,38,38,12,265.0503513813019,,,,,,,,,,,,,,,,,,,,,,,,,,,,,,,,,,,,,,,,,,,,,,,,,,,,,,,,,,,,,,,,,,,,,,,,,,,,,,,,,57.0,133.0,133.0,57.0,70.0,70.0,2.1,2.11,-191,288,0,254,160,-288,265.0360653400421,265.0361397266388,265.0395984649658,265.0503513813019,265.20118379592896,265.20118379592896,265.20118379592896,265.20118379592896,265.20118379592896,265.20118379592896,265.20118379592896,267.5870156288147,2,2.5279159545898438,None,,,,,,,,,,,,,,,,,,42,1,2025-02-19_12h27.09.450,comp,2024.2.4,None,2025-02-19 12h27.20.652136 -0500,
39,39,0,filler_random,None,None,None,None,None,None,None,None,None,None,3,2.3434083461761475,None,,,,,0,0,0,0,0,39,39,155,267.6033043861389,,,,,,,,,,,,,,,,,,,,,,,,,,,,,,,,,,,,,,,,,,,,,,,,,,,,,,,,,,,,,,,,,,,,,,,,,,,,,,,,,158.90523677323878,148.71350796988781,112.69757784467599,66.98303963414685,123.53983357180668,179.9063721930096,3.0,3.2,-204,-281,0,-19,219,268,267.58912205696106,267.58926153182983,267.59245443344116,267.6033043861389,267.75211095809937,267.75211095809937,267.75211095809937,267.75211095809937,267.75211095809937,267.75211095809937,267.75211095809937,269.9528043270111,3,2.3434083461761475,None,,,,,,,,,,,,,,,,,,42,1,2025-02-19_12h27.09.450,comp,2024.2.4,None,2025-02-19 12h27.20.652136 -0500,
40,40,0,critical,hdw,35.0,4.0,upper,200.0,125.0,127.0,127.0,125.0,200.0,3,2.671158790588379,None,,,,,0,0,0,0,0,40,40,113,269.97300028800964,,,,,,,,,,,,,,,,,,,,,,,,,,,,,,,,,,,,,,,,,,,,,,,,,,,,,,,,,,,,,,,,,,,,,,,,,,,,,,,,,200.0,125.0,127.0,127.0,125.0,200.0,4.0,4.2,-222,2,0,-273,260,15,269.95425844192505,269.95433926582336,269.9577932357788,269.97300028800964,270.1203329563141,270.1203329563141,270.1203329563141,270.1203329563141,270.1203329563141,270.1203329563141,270.1203329563141,272.65585470199585,3,2.671158790588379,None,,,,,,,,,,,,,,,,,,42,1,2025-02-19_12h27.09.450,comp,2024.2.4,None,2025-02-19 12h27.20.652136 -0500,
41,41,0,critical,dwh,20.0,2.1,lower,78.0,78.0,57.0,133.0,133.0,57.0,3,1.6827449798583984,None,,,,,0,0,0,0,0,41,41,6,272.67212891578674,,,,,,,,,,,,,,,,,,,,,,,,,,,,,,,,,,,,,,,,,,,,,,,,,,,,,,,,,,,,,,,,,,,,,,,,,,,,,,,,,78.0,78.0,57.0,133.0,133.0,57.0,2.1,2.11,-202,285,0,276,191,-272,272.6576204299927,272.65770411491394,272.66120195388794,272.67212891578674,272.82008838653564,272.82008838653564,272.82008838653564,272.82008838653564,272.82008838653564,272.82008838653564,272.82008838653564,274.3616898059845,3,1.6827449798583984,None,,,,,,,,,,,,,,,,,,42,1,2025-02-19_12h27.09.450,comp,2024.2.4,None,2025-02-19 12h27.20.652136 -0500,
42,42,0,critical,hwd,35.0,2.1,lower,133.0,57.0,57.0,133.0,70.0,70.0,1,2.754216432571411,None,,,,,0,0,0,0,0,42,42,40,274.3770387172699,,,,,,,,,,,,,,,,,,,,,,,,,,,,,,,,,,,,,,,,,,,,,,,,,,,,,,,,,,,,,,,,,,,,,,,,,,,,,,,,,133.0,57.0,57.0,133.0,70.0,70.0,2.1,2.11,-191,255,0,266,198,-278,274.3632438182831,274.36332726478577,274.36622977256775,274.3770387172699,274.51825070381165,274.51825070381165,274.51825070381165,274.51825070381165,274.51825070381165,274.51825070381165,274.51825070381165,277.1384346485138,1,2.754216432571411,None,,,,,,,,,,,,,,,,,,42,1,2025-02-19_12h27.09.450,comp,2024.2.4,None,2025-02-19 12h27.20.652136 -0500,
43,43,0,critical,whd,35.0,2.1,lower,57.0,133.0,133.0,57.0,70.0,70.0,2,1.8871071338653564,None,,,,,0,0,0,0,0,43,43,36,277.1550350189209,,,,,,,,,,,,,,,,,,,,,,,,,,,,,,,,,,,,,,,,,,,,,,,,,,,,,,,,,,,,,,,,,,,,,,,,,,,,,,,,,57.0,133.0,133.0,57.0,70.0,70.0,2.1,2.11,-191,256,0,271,160,-272,277.1399919986725,277.14007115364075,277.1442472934723,277.1550350189209,277.3083231449127,277.3083231449127,277.3083231449127,277.3083231449127,277.3083231449127,277.3083231449127,277.3083231449127,279.0583965778351,2,1.8871071338653564,None,,,,,,,,,,,,,,,,,,42,1,2025-02-19_12h27.09.450,comp,2024.2.4,None,2025-02-19 12h27.20.652136 -0500,
44,44,0,filler_square,None,None,None,None,None,None,None,None,None,None,2,1.6069128513336182,None,,,,,0,0,0,0,0,44,44,184,279.0751402378082,,,,,,,,,,,,,,,,,,,,,,,,,,,,,,,,,,,,,,,,,,,,,,,,,,,,,,,,,,,,,,,,,,,,,,,,,,,,,,,,,164.350973213879,149.36889590532172,173.9535918320996,173.9535918320996,113.40489652680444,161.3984798970472,2.1,2.12,-258,-282,0,-284,264,268,279.0604956150055,279.0606164932251,279.0644495487213,279.0751402378082,279.22261571884155,279.22261571884155,279.22261571884155,279.22261571884155,279.22261571884155,279.22261571884155,279.22261571884155,280.69528126716614,2,1.6069128513336182,None,,,,,,,,,,,,,,,,,,42,1,2025-02-19_12h27.09.450,comp,2024.2.4,None,2025-02-19 12h27.20.652136 -0500,
45,45,0,filler_square,None,None,None,None,None,None,None,None,None,None,1,4.568018674850464,None,,,,,0,0,0,0,0,45,45,197,280.71411633491516,,,,,,,,,,,,,,,,,,,,,,,,,,,,,,,,,,,,,,,,,,,,,,,,,,,,,,,,,,,,,,,,,,,,,,,,,,,,,,,,,107.67604372737091,107.67604372737091,70.41821153151614,106.98812183236726,84.3508493038858,61.17035862550803,1.0,1.2,-203,13,0,16,180,8,280.69707465171814,280.69715642929077,280.70001125335693,280.71411633491516,280.8541679382324,280.8541679382324,280.8541679382324,280.8541679382324,280.8541679382324,280.8541679382324,280.8541679382324,285.2918300628662,1,4.568018674850464,None,,,,,,,,,,,,,,,,,,42,1,2025-02-19_12h27.09.450,comp,2024.2.4,None,2025-02-19 12h27.20.652136 -0500,
46,46,0,critical,dhw,20.0,2.1,upper,141.0,141.0,200.0,125.0,125.0,200.0,2,6.854100704193115,None,,,,,0,0,0,0,0,46,46,27,285.30856013298035,,,,,,,,,,,,,,,,,,,,,,,,,,,,,,,,,,,,,,,,,,,,,,,,,,,,,,,,,,,,,,,,,,,,,,,,,,,,,,,,,141.0,141.0,200.0,125.0,125.0,200.0,2.1,2.12,-229,-272,0,-288,258,251,285.29342126846313,285.2935004234314,285.29663848876953,285.30856013298035,285.4581639766693,285.4581639766693,285.4581639766693,285.4581639766693,285.4581639766693,285.4581639766693,285.4581639766693,292.1656229496002,2,6.854100704193115,None,,,,,,,,,,,,,,,,,,42,1,2025-02-19_12h27.09.450,comp,2024.2.4,None,2025-02-19 12h27.20.652136 -0500,
47,47,0,filler_random,None,None,None,None,None,None,None,None,None,None,1,2.9861679077148438,None,,,,,0,0,0,0,0,47,47,134,292.1847176551819,,,,,,,,,,,,,,,,,,,,,,,,,,,,,,,,,,,,,,,,,,,,,,,,,,,,,,,,,,,,,,,,,,,,,,,,,,,,,,,,,167.64241389428793,172.17405254515802,182.52441817667813,121.39000947505987,154.52860550346048,80.51617635038986,2.1,2.11,-243,288,0,288,197,-271,292.1673607826233,292.1674439907074,292.17029762268066,292.1847176551819,292.3259599208832,292.3259599208832,292.3259599208832,292.3259599208832,292.3259599208832,292.3259599208832,292.3259599208832,295.17922854423523,1,2.9861679077148438,None,,,,,,,,,,,,,,,,,,42,1,2025-02-19_12h27.09.450,comp,2024.2.4,None,2025-02-19 12h27.20.652136 -0500,
48,48,0,critical,dwh,20.0,3.0,lower,78.0,78.0,57.0,133.0,133.0,57.0,3,1.9591424465179443,None,,,,,0,0,0,0,0,48,48,68,295.19586062431335,,,,,,,,,,,,,,,,,,,,,,,,,,,,,,,,,,,,,,,,,,,,,,,,,,,,,,,,,,,,,,,,,,,,,,,,,,,,,,,,,78.0,78.0,57.0,133.0,133.0,57.0,3.0,3.1,-202,274,0,-14,191,-267,295.1809105873108,295.18099641799927,295.18481373786926,295.19586062431335,295.34087204933167,295.34087204933167,295.34087204933167,295.34087204933167,295.34087204933167,295.34087204933167,295.34087204933167,297.16293263435364,3,1.9591424465179443,None,,,,,,,,,,,,,,,,,,42,1,2025-02-19_12h27.09.450,comp,2024.2.4,None,2025-02-19 12h27.20.652136 -0500,
49,49,0,filler_random,None,None,None,None,None,None,None,None,None,None,2,1.7915153503417969,None,,,,,0,0,0,0,0,49,49,168,297.1786150932312,,,,,,,,,,,,,,,,,,,,,,,,,,,,,,,,,,,,,,,,,,,,,,,,,,,,,,,,,,,,,,,,,,,,,,,,,,,,,,,,,151.53371278453668,120.76258013705426,139.69489236113924,192.6895667248461,194.64410578618393,69.08218484967591,2.2,2.22,-253,266,0,-279,227,-256,297.1646902561188,297.1647756099701,297.1678602695465,297.1786150932312,297.3262631893158,297.3262631893158,297.3262631893158,297.3262631893158,297.3262631893158,297.3262631893158,297.3262631893158,298.98040294647217,2,1.7915153503417969,None,,,,,,,,,,,,,,,,,,42,1,2025-02-19_12h27.09.450,comp,2024.2.4,None,2025-02-19 12h27.20.652136 -0500,
50,50,0,filler_random,None,None,None,None,None,None,None,None,None,None,2,2.0623655319213867,None,,,,,0,0,0,0,0,50,50,142,298.99661684036255,,,,,,,,,,,,,,,,,,,,,,,,,,,,,,,,,,,,,,,,,,,,,,,,,,,,,,,,,,,,,,,,,,,,,,,,,,,,,,,,,70.61421402820085,195.25396076459407,110.01892778176025,182.92350086889695,63.04645429376407,100.9742913050369,2.2,2.21,-285,-282,0,274,238,285,298.98226618766785,298.98235392570496,298.98570799827576,298.99661684036255,299.1444339752197,299.1444339752197,299.1444339752197,299.1444339752197,299.1444339752197,299.1444339752197,299.1444339752197,301.0653295516968,2,2.0623655319213867,None,,,,,,,,,,,,,,,,,,42,1,2025-02-19_12h27.09.450,comp,2024.2.4,None,2025-02-19 12h27.20.652136 -0500,
51,51,0,catch,None,None,None,None,None,None,None,None,None,None,2,1.9436519145965576,None,,,,,0,0,0,0,0,51,51,122,301.0826036930084,,,,,,,,,,,,,,,,,,,,,,,,,,,,,,,,,,,,,,,,,,,,,,,,,,,,,,,,,,,,,,,,,,,,,,,,,,,,,,,,,72,118,148,177,60,130,2.1,2.11,-244,289,0,275,250,-272,301.0674855709076,301.0675983428955,301.0708677768707,301.0826036930084,301.22890543937683,301.22890543937683,301.22890543937683,301.22890543937683,301.22890543937683,301.22890543937683,301.22890543937683,303.0298373699188,2,1.9436519145965576,None,,,,,,,,,,,,,,,,,,42,1,2025-02-19_12h27.09.450,comp,2024.2.4,None,2025-02-19 12h27.20.652136 -0500,
52,52,0,filler_random,None,None,None,None,None,None,None,None,None,None,1,1.6594552993774414,None,,,,,0,0,0,0,0,52,52,152,303.0466549396515,,,,,,,,,,,,,,,,,,,,,,,,,,,,,,,,,,,,,,,,,,,,,,,,,,,,,,,,,,,,,,,,,,,,,,,,,,,,,,,,,154.67804856602038,89.97987320503097,92.53610282672116,84.9671250289382,99.60973310395966,100.58696462801942,2.1,2.11,-183,252,0,272,189,-265,303.0316390991211,303.03176188468933,303.03586173057556,303.0466549396515,303.1976625919342,303.1976625919342,303.1976625919342,303.1976625919342,303.1976625919342,303.1976625919342,303.1976625919342,304.7155089378357,1,1.6594552993774414,None,,,,,,,,,,,,,,,,,,42,1,2025-02-19_12h27.09.450,comp,2024.2.4,None,2025-02-19 12h27.20.652136 -0500,
53,53,0,filler_square,None,None,None,None,None,None,None,None,None,None,1,1.4058763980865479,None,,,,,0,0,0,0,0,53,53,178,304.7322611808777,,,,,,,,,,,,,,,,,,,,,,,,,,,,,,,,,,,,,,,,,,,,,,,,,,,,,,,,,,,,,,,,,,,,,,,,,,,,,,,,,138.63367043143967,138.63367043143967,121.87232135480953,123.18398905505197,62.023216113532214,129.87179298010986,4.0,4.1,-227,-273,0,-11,223,-284,304.71765637397766,304.7177653312683,304.72141551971436,304.7322611808777,304.886616230011,304.886616230011,304.886616230011,304.886616230011,304.886616230011,304.886616230011,304.886616230011,306.15199065208435,1,1.4058763980865479,None,,,,,,,,,,,,,,,,,,42,1,2025-02-19_12h27.09.450,comp,2024.2.4,None,2025-02-19 12h27.20.652136 -0500,
54,54,0,critical,whd,20.0,3.0,upper,125.0,200.0,200.0,125.0,141.0,141.0,1,6.626413822174072,None,,,,,0,0,0,0,0,54,54,93,306.16821122169495,,,,,,,,,,,,,,,,,,,,,,,,,,,,,,,,,,,,,,,,,,,,,,,,,,,,,,,,,,,,,,,,,,,,,,,,,,,,,,,,,125.0,200.0,200.0,125.0,141.0,141.0,3.0,3.2,-258,-257,0,5,229,279,306.15355134010315,306.15364360809326,306.1569209098816,306.16821122169495,306.31463718414307,306.31463718414307,306.31463718414307,306.31463718414307,306.31463718414307,306.31463718414307,306.31463718414307,312.8003828525543,1,6.626413822174072,None,,,,,,,,,,,,,,,,,,42,1,2025-02-19_12h27.09.450,comp,2024.2.4,None,2025-02-19 12h27.20.652136 -0500,
55,55,0,filler_random,None,None,None,None,None,None,None,None,None,None,3,2.033928632736206,None,,,,,0,0,0,0,0,55,55,160,312.8167805671692,,,,,,,,,,,,,,,,,,,,,,,,,,,,,,,,,,,,,,,,,,,,,,,,,,,,,,,,,,,,,,,,,,,,,,,,,,,,,,,,,87.8822654489914,183.10470703329042,163.42054175743334,164.94702981643687,187.96554373586548,169.37731053769772,4.0,4.1,-270,-287,0,-12,263,-286,312.80209827423096,312.80217838287354,312.80602860450745,312.8167805671692,312.9671697616577,312.9671697616577,312.9671697616577,312.9671697616577,312.9671697616577,312.9671697616577,312.9671697616577,314.85789728164673,3,2.033928632736206,None,,,,,,,,,,,,,,,,,,42,1,2025-02-19_12h27.09.450,comp,2024.2.4,None,2025-02-19 12h27.20.652136 -0500,
56,56,0,filler_square,None,None,None,None,None,None,None,None,None,None,1,2.358454465866089,None,,,,,0,0,0,0,0,56,56,205,314.87573885917664,,,,,,,,,,,,,,,,,,,,,,,,,,,,,,,,,,,,,,,,,,,,,,,,,,,,,,,,,,,,,,,,,,,,,,,,,,,,,,,,,127.73770635970838,127.73770635970838,120.13506714078352,107.54744349205052,116.28574167118988,99.32356271178584,2.1,2.11,-214,255,0,257,199,-262,314.8596622943878,314.8597469329834,314.86259746551514,314.87573885917664,315.01584339141846,315.01584339141846,315.01584339141846,315.01584339141846,315.01584339141846,315.01584339141846,315.01584339141846,317.250314950943,1,2.358454465866089,None,,,,,,,,,,,,,,,,,,42,1,2025-02-19_12h27.09.450,comp,2024.2.4,None,2025-02-19 12h27.20.652136 -0500,
57,57,0,critical,dwh,35.0,4.0,lower,70.0,70.0,57.0,133.0,133.0,57.0,3,3.0687665939331055,None,,,,,0,0,0,0,0,57,57,64,317.26955938339233,,,,,,,,,,,,,,,,,,,,,,,,,,,,,,,,,,,,,,,,,,,,,,,,,,,,,,,,,,,,,,,,,,,,,,,,,,,,,,,,,70.0,70.0,57.0,133.0,133.0,57.0,4.0,4.2,-198,13,0,-258,191,-5,317.2518994808197,317.25197768211365,317.2552981376648,317.26955938339233,317.4179265499115,317.4179265499115,317.4179265499115,317.4179265499115,317.4179265499115,317.4179265499115,317.4179265499115,320.3544673919678,3,3.0687665939331055,None,,,,,,,,,,,,,,,,,,42,1,2025-02-19_12h27.09.450,comp,2024.2.4,None,2025-02-19 12h27.20.652136 -0500,
58,58,0,critical,hwd,20.0,1.0,lower,133.0,57.0,57.0,133.0,78.0,78.0,1,2.552353620529175,None,,,,,0,0,0,0,0,58,58,102,320.36989760398865,,,,,,,,,,,,,,,,,,,,,,,,,,,,,,,,,,,,,,,,,,,,,,,,,,,,,,,,,,,,,,,,,,,,,,,,,,,,,,,,,133.0,57.0,57.0,133.0,78.0,78.0,1.0,1.1,-671,258,-480,289,-278,257,320.3566656112671,320.3567452430725,320.35963773727417,320.36989760398865,320.515474319458,320.515474319458,320.515474319458,320.515474319458,320.515474319458,320.515474319458,320.515474319458,322.93810534477234,1,2.552353620529175,None,,,,,,,,,,,,,,,,,,42,1,2025-02-19_12h27.09.450,comp,2024.2.4,None,2025-02-19 12h27.20.652136 -0500,
59,59,0,critical,hdw,35.0,2.1,upper,200.0,125.0,127.0,127.0,125.0,200.0,1,3.6090028285980225,None,,,,,0,0,0,0,0,59,59,21,322.9538540840149,,,,,,,,,,,,,,,,,,,,,,,,,,,,,,,,,,,,,,,,,,,,,,,,,,,,,,,,,,,,,,,,,,,,,,,,,,,,,,,,,200.0,125.0,127.0,127.0,125.0,200.0,2.1,2.12,-222,-263,0,-269,260,262,322.9397449493408,322.9398260116577,322.94268250465393,322.9538540840149,323.10191440582275,323.10191440582275,323.10191440582275,323.10191440582275,323.10191440582275,323.10191440582275,323.10191440582275,326.57186698913574,1,3.6090028285980225,None,,,,,,,,,,,,,,,,,,42,1,2025-02-19_12h27.09.450,comp,2024.2.4,None,2025-02-19 12h27.20.652136 -0500,
60,60,0,critical,hdw,20.0,3.0,upper,200.0,125.0,141.0,141.0,125.0,200.0,1,2.694857597351074,None,,,,,0,0,0,0,0,60,60,117,326.58782863616943,,,,,,,,,,,,,,,,,,,,,,,,,,,,,,,,,,,,,,,,,,,,,,,,,,,,,,,,,,,,,,,,,,,,,,,,,,,,,,,,,200.0,125.0,141.0,141.0,125.0,200.0,3.0,3.2,-229,-254,0,1,266,261,326.5735068321228,326.57362031936646,326.57702016830444,326.58782863616943,326.7363157272339,326.7363157272339,326.7363157272339,326.7363157272339,326.7363157272339,326.7363157272339,326.7363157272339,329.2880096435547,1,2.694857597351074,None,,,,,,,,,,,,,,,,,,42,1,2025-02-19_12h27.09.450,comp,2024.2.4,None,2025-02-19 12h27.20.652136 -0500,
61,61,0,critical,wdh,20.0,2.1,upper,125.0,200.0,141.0,141.0,200.0,125.0,1,5.114305257797241,None,,,,,0,0,0,0,0,61,61,11,329.3047471046448,,,,,,,,,,,,,,,,,,,,,,,,,,,,,,,,,,,,,,,,,,,,,,,,,,,,,,,,,,,,,,,,,,,,,,,,,,,,,,,,,125.0,200.0,141.0,141.0,200.0,125.0,2.1,2.12,-266,-283,0,-283,229,252,329.2895061969757,329.2896144390106,329.2929861545563,329.3047471046448,329.45346546173096,329.45346546173096,329.45346546173096,329.45346546173096,329.45346546173096,329.45346546173096,329.45346546173096,334.4238042831421,1,5.114305257797241,None,,,,,,,,,,,,,,,,,,42,1,2025-02-19_12h27.09.450,comp,2024.2.4,None,2025-02-19 12h27.20.652136 -0500,
62,62,0,filler_square,None,None,None,None,None,None,None,None,None,None,1,3.9139528274536133,None,,,,,0,0,0,0,0,62,62,177,334.440313577652,,,,,,,,,,,,,,,,,,,,,,,,,,,,,,,,,,,,,,,,,,,,,,,,,,,,,,,,,,,,,,,,,,,,,,,,,,,,,,,,,112.8412253707933,112.8412253707933,97.70224521337394,112.49556544678562,108.83639312630872,102.04325354734988,3.0,3.2,-209,-250,0,-16,203,259,334.42556715011597,334.42564821243286,334.4295825958252,334.440313577652,334.59107756614685,334.59107756614685,334.59107756614685,334.59107756614685,334.59107756614685,334.59107756614685,334.59107756614685,338.35713028907776,1,3.9139528274536133,None,,,,,,,,,,,,,,,,,,42,1,2025-02-19_12h27.09.450,comp,2024.2.4,None,2025-02-19 12h27.20.652136 -0500,
63,63,0,critical,dwh,20.0,2.1,upper,141.0,141.0,125.0,200.0,200.0,125.0,3,12.541538715362549,None,,,,,0,0,0,0,0,63,63,7,338.37278294563293,,,,,,,,,,,,,,,,,,,,,,,,,,,,,,,,,,,,,,,,,,,,,,,,,,,,,,,,,,,,,,,,,,,,,,,,,,,,,,,,,141.0,141.0,125.0,200.0,200.0,125.0,2.1,2.11,-266,264,0,259,258,-284,338.3586275577545,338.3587257862091,338.3620562553406,338.37278294563293,338.52247977256775,338.52247977256775,338.52247977256775,338.52247977256775,338.52247977256775,338.52247977256775,338.52247977256775,350.92914295196533,3,12.541538715362549,None,,,,,,,,,,,,,,,,,,42,1,2025-02-19_12h27.09.450,comp,2024.2.4,None,2025-02-19 12h27.20.652136 -0500,
64,64,0,filler_square,None,None,None,None,None,None,None,None,None,None,1,4.6089043617248535,None,,,,,0,0,0,0,0,64,64,189,350.9452941417694,,,,,,,,,,,,,,,,,,,,,,,,,,,,,,,,,,,,,,,,,,,,,,,,,,,,,,,,,,,,,,,,,,,,,,,,,,,,,,,,,71.05077765619954,71.05077765619954,70.98642001008483,68.3799565532998,62.54435940922591,69.65747029236246,2.2,2.21,-166,-276,0,286,165,256,350.9309649467468,350.9311044216156,350.93495059013367,350.9452941417694,351.0971360206604,351.0971360206604,351.0971360206604,351.0971360206604,351.0971360206604,351.0971360206604,351.0971360206604,355.56500697135925,1,4.6089043617248535,None,,,,,,,,,,,,,,,,,,42,1,2025-02-19_12h27.09.450,comp,2024.2.4,None,2025-02-19 12h27.20.652136 -0500,
65,65,0,filler_random,None,None,None,None,None,None,None,None,None,None,3,6.449547052383423,None,,,,,0,0,0,0,0,65,65,132,355.5848171710968,,,,,,,,,,,,,,,,,,,,,,,,,,,,,,,,,,,,,,,,,,,,,,,,,,,,,,,,,,,,,,,,,,,,,,,,,,,,,,,,,117.07654016093514,131.14430536973128,99.8567342703989,99.79930980458028,102.71883794778995,193.25049595040383,3.0,3.2,-211,-262,0,11,243,259,355.5672609806061,355.56740379333496,355.5703434944153,355.5848171710968,355.73260402679443,355.73260402679443,355.73260402679443,355.73260402679443,355.73260402679443,355.73260402679443,355.73260402679443,362.04829692840576,3,6.449547052383423,None,,,,,,,,,,,,,,,,,,42,1,2025-02-19_12h27.09.450,comp,2024.2.4,None,2025-02-19 12h27.20.652136 -0500,
66,66,0,filler_square,None,None,None,None,None,None,None,None,None,None,3,1.953679084777832,None,,,,,0,0,0,0,0,66,66,195,362.0645534992218,,,,,,,,,,,,,,,,,,,,,,,,,,,,,,,,,,,,,,,,,,,,,,,,,,,,,,,,,,,,,,,,,,,,,,,,,,,,,,,,,154.9764859460563,142.11558553822238,83.89839594382195,161.25723198031275,184.4341975877622,184.4341975877622,2.1,2.11,-248,266,0,280,269,-268,362.0500237941742,362.0500998497009,362.0541021823883,362.0645534992218,362.2131712436676,362.2131712436676,362.2131712436676,362.2131712436676,362.2131712436676,362.2131712436676,362.2131712436676,364.03487372398376,3,1.953679084777832,None,,,,,,,,,,,,,,,,,,42,1,2025-02-19_12h27.09.450,comp,2024.2.4,None,2025-02-19 12h27.20.652136 -0500,
67,67,0,critical,hdw,20.0,1.0,lower,133.0,57.0,78.0,78.0,57.0,133.0,1,3.9977974891662598,None,,,,,0,0,0,0,0,67,67,114,364.0524351596832,,,,,,,,,,,,,,,,,,,,,,,,,,,,,,,,,,,,,,,,,,,,,,,,,,,,,,,,,,,,,,,,,,,,,,,,,,,,,,,,,133.0,57.0,78.0,78.0,57.0,133.0,1.0,1.3,316,-283,480,-250,682,-259,364.03683376312256,364.0369703769684,364.0400230884552,364.0524351596832,364.1990878582001,364.1990878582001,364.1990878582001,364.1990878582001,364.1990878582001,364.1990878582001,364.1990878582001,368.06680560112,1,3.9977974891662598,None,,,,,,,,,,,,,,,,,,42,1,2025-02-19_12h27.09.450,comp,2024.2.4,None,2025-02-19 12h27.20.652136 -0500,
68,68,0,filler_square,None,None,None,None,None,None,None,None,None,None,3,2.7671899795532227,None,,,,,0,0,0,0,0,68,68,201,368.0830054283142,,,,,,,,,,,,,,,,,,,,,,,,,,,,,,,,,,,,,,,,,,,,,,,,,,,,,,,,,,,,,,,,,,,,,,,,,,,,,,,,,62.97243807665904,66.38760113612794,69.20234158972674,77.71589691511228,85.05228021300502,85.05228021300502,1.0,1.2,-168,-11,0,3,177,9,368.06858134269714,368.06866359710693,368.07269310951233,368.0830054283142,368.2405481338501,368.2405481338501,368.2405481338501,368.2405481338501,368.2405481338501,368.2405481338501,368.2405481338501,370.8679168224335,3,2.7671899795532227,None,,,,,,,,,,,,,,,,,,42,1,2025-02-19_12h27.09.450,comp,2024.2.4,None,2025-02-19 12h27.20.652136 -0500,
69,69,0,filler_square,None,None,None,None,None,None,None,None,None,None,3,4.173218727111816,None,,,,,0,0,0,0,0,69,69,196,370.8856210708618,,,,,,,,,,,,,,,,,,,,,,,,,,,,,,,,,,,,,,,,,,,,,,,,,,,,,,,,,,,,,,,,,,,,,,,,,,,,,,,,,57.523549435440266,58.599342273863485,57.32858771303728,58.71359270625643,59.14042525471419,59.14042525471419,4.0,4.2,-155,19,0,-269,155,-4,370.8697192668915,370.86979722976685,370.87288093566895,370.8856210708618,371.0352370738983,371.0352370738983,371.0352370738983,371.0352370738983,371.0352370738983,371.0352370738983,371.0352370738983,375.0673785209656,3,4.173218727111816,None,,,,,,,,,,,,,,,,,,42,1,2025-02-19_12h27.09.450,comp,2024.2.4,None,2025-02-19 12h27.20.652136 -0500,
70,70,0,critical,dhw,35.0,4.0,upper,127.0,127.0,200.0,125.0,125.0,200.0,2,8.783186912536621,None,,,,,0,0,0,0,0,70,70,53,375.0837154388428,,,,,,,,,,,,,,,,,,,,,,,,,,,,,,,,,,,,,,,,,,,,,,,,,,,,,,,,,,,,,,,,,,,,,,,,,,,,,,,,,127.0,127.0,200.0,125.0,125.0,200.0,4.0,4.2,-222,2,0,-271,258,-10,375.06891655921936,375.0689969062805,375.07188057899475,375.0837154388428,375.21893072128296,375.21893072128296,375.21893072128296,375.21893072128296,375.21893072128296,375.21893072128296,375.21893072128296,383.87694811820984,2,8.783186912536621,None,,,,,,,,,,,,,,,,,,42,1,2025-02-19_12h27.09.450,comp,2024.2.4,None,2025-02-19 12h27.20.652136 -0500,
71,71,0,filler_random,None,None,None,None,None,None,None,None,None,None,3,4.729279518127441,None,,,,,0,0,0,0,0,71,71,156,383.89703464508057,,,,,,,,,,,,,,,,,,,,,,,,,,,,,,,,,,,,,,,,,,,,,,,,,,,,,,,,,,,,,,,,,,,,,,,,,,,,,,,,,79.16637535150039,81.99052209724323,89.26067916784771,83.46865719730584,151.01075979873747,59.96286543237537,3.0,3.2,-179,-288,0,12,168,278,383.8787274360657,383.87881088256836,383.88165497779846,383.89703464508057,384.0391881465912,384.0391881465912,384.0391881465912,384.0391881465912,384.0391881465912,384.0391881465912,384.0391881465912,388.6394798755646,3,4.729279518127441,None,,,,,,,,,,,,,,,,,,42,1,2025-02-19_12h27.09.450,comp,2024.2.4,None,2025-02-19 12h27.20.652136 -0500,
72,72,0,critical,dwh,35.0,2.1,upper,127.0,127.0,125.0,200.0,200.0,125.0,3,14.098686933517456,None,,,,,0,0,0,0,0,72,72,5,388.65558648109436,,,,,,,,,,,,,,,,,,,,,,,,,,,,,,,,,,,,,,,,,,,,,,,,,,,,,,,,,,,,,,,,,,,,,,,,,,,,,,,,,127.0,127.0,125.0,200.0,200.0,125.0,2.1,2.12,-260,-266,0,-255,258,283,388.6410138607025,388.641090631485,388.6443238258362,388.65558648109436,388.8064298629761,388.8064298629761,388.8064298629761,388.8064298629761,388.8064298629761,388.8064298629761,388.8064298629761,402.77174043655396,3,14.098686933517456,None,,,,,,,,,,,,,,,,,,42,1,2025-02-19_12h27.09.450,comp,2024.2.4,None,2025-02-19 12h27.20.652136 -0500,
73,73,0,filler_square,None,None,None,None,None,None,None,None,None,None,2,1.0209543704986572,None,,,,,0,0,0,0,0,73,73,208,402.78990650177,,,,,,,,,,,,,,,,,,,,,,,,,,,,,,,,,,,,,,,,,,,,,,,,,,,,,,,,,,,,,,,,,,,,,,,,,,,,,,,,,80.38070393889527,95.61096343146974,130.42587868908862,130.42587868908862,119.771029622767,108.14064177799105,2.2,2.21,-209,-264,0,272,215,262,402.77368330955505,402.77376103401184,402.77702260017395,402.78990650177,402.9285855293274,402.9285855293274,402.9285855293274,402.9285855293274,402.9285855293274,402.9285855293274,402.9285855293274,403.81870126724243,2,1.0209543704986572,None,,,,,,,,,,,,,,,,,,42,1,2025-02-19_12h27.09.450,comp,2024.2.4,None,2025-02-19 12h27.20.652136 -0500,
74,74,0,critical,wdh,20.0,2.1,lower,57.0,133.0,78.0,78.0,133.0,57.0,3,6.627007007598877,None,,,,,0,0,0,0,0,74,74,10,403.8392584323883,,,,,,,,,,,,,,,,,,,,,,,,,,,,,,,,,,,,,,,,,,,,,,,,,,,,,,,,,,,,,,,,,,,,,,,,,,,,,,,,,57.0,133.0,78.0,78.0,133.0,57.0,2.1,2.12,-202,-258,0,-279,164,253,403.8202693462372,403.82035064697266,403.82358169555664,403.8392584323883,403.9781801700592,403.9781801700592,403.9781801700592,403.9781801700592,403.9781801700592,403.9781801700592,403.9781801700592,410.4823443889618,3,6.627007007598877,None,,,,,,,,,,,,,,,,,,42,1,2025-02-19_12h27.09.450,comp,2024.2.4,None,2025-02-19 12h27.20.652136 -0500,
75,75,0,filler_random,None,None,None,None,None,None,None,None,None,None,1,3.858081102371216,None,,,,,0,0,0,0,0,75,75,143,410.4974093437195,,,,,,,,,,,,,,,,,,,,,,,,,,,,,,,,,,,,,,,,,,,,,,,,,,,,,,,,,,,,,,,,,,,,,,,,,,,,,,,,,170.3456377903983,196.90764554278408,187.46103767371332,104.17855461795918,82.09838640211187,153.90244523225218,3.0,3.1,-247,287,0,16,225,-262,410.4841740131378,410.4842550754547,410.4871401786804,410.4974093437195,410.64671993255615,410.64671993255615,410.64671993255615,410.64671993255615,410.64671993255615,410.64671993255615,410.64671993255615,414.3614661693573,1,3.858081102371216,None,,,,,,,,,,,,,,,,,,42,1,2025-02-19_12h27.09.450,comp,2024.2.4,None,2025-02-19 12h27.20.652136 -0500,
76,76,0,critical,dwh,35.0,2.1,lower,70.0,70.0,57.0,133.0,133.0,57.0,3,3.7437820434570312,None,,,,,0,0,0,0,0,76,76,28,414.3785572052002,,,,,,,,,,,,,,,,,,,,,,,,,,,,,,,,,,,,,,,,,,,,,,,,,,,,,,,,,,,,,,,,,,,,,,,,,,,,,,,,,70.0,70.0,57.0,133.0,133.0,57.0,2.1,2.11,-198,274,0,283,191,-282,414.36299777030945,414.3630771636963,414.36587047576904,414.3785572052002,414.5228199958801,414.5228199958801,414.5228199958801,414.5228199958801,414.5228199958801,414.5228199958801,414.5228199958801,418.1336205005646,3,3.7437820434570312,None,,,,,,,,,,,,,,,,,,42,1,2025-02-19_12h27.09.450,comp,2024.2.4,None,2025-02-19 12h27.20.652136 -0500,
77,77,0,catch,None,None,None,None,None,None,None,None,None,None,1,3.8835296630859375,None,,,,,0,0,0,0,0,77,77,128,418.1514003276825,,,,,,,,,,,,,,,,,,,,,,,,,,,,,,,,,,,,,,,,,,,,,,,,,,,,,,,,,,,,,,,,,,,,,,,,,,,,,,,,,172,153,78,112,65,125,2.1,2.11,-228,275,0,289,214,-271,418.1357214450836,418.13586950302124,418.139790058136,418.1514003276825,418.29915261268616,418.29915261268616,418.29915261268616,418.29915261268616,418.29915261268616,418.29915261268616,418.29915261268616,422.0424768924713,1,3.8835296630859375,None,,,,,,,,,,,,,,,,,,42,1,2025-02-19_12h27.09.450,comp,2024.2.4,None,2025-02-19 12h27.20.652136 -0500,
78,78,0,filler_random,None,None,None,None,None,None,None,None,None,None,1,2.9744441509246826,None,,,,,0,0,0,0,0,78,78,138,422.06009912490845,,,,,,,,,,,,,,,,,,,,,,,,,,,,,,,,,,,,,,,,,,,,,,,,,,,,,,,,,,,,,,,,,,,,,,,,,,,,,,,,,88.33830265614236,194.76915372202183,111.96093730948569,143.35708322966042,85.58933995448211,189.74208189507706,2.2,2.21,-265,-268,0,290,263,274,422.04419684410095,422.0442798137665,422.0471396446228,422.06009912490845,422.2004702091217,422.2004702091217,422.2004702091217,422.2004702091217,422.2004702091217,422.2004702091217,422.2004702091217,425.05513763427734,1,2.9744441509246826,None,,,,,,,,,,,,,,,,,,42,1,2025-02-19_12h27.09.450,comp,2024.2.4,None,2025-02-19 12h27.20.652136 -0500,
79,79,0,filler_random,None,None,None,None,None,None,None,None,None,None,3,2.887209415435791,None,,,,,0,0,0,0,0,79,79,166,425.07571244239807,,,,,,,,,,,,,,,,,,,,,,,,,,,,,,,,,,,,,,,,,,,,,,,,,,,,,,,,,,,,,,,,,,,,,,,,,,,,,,,,,82.18125729214351,170.45410638000766,116.13380789476753,120.78130751359343,156.77961338154148,160.12852170798942,4.0,4.2,-242,19,0,-265,236,-8,425.0569338798523,425.05707359313965,425.0603575706482,425.07571244239807,425.2168312072754,425.2168312072754,425.2168312072754,425.2168312072754,425.2168312072754,425.2168312072754,425.2168312072754,427.9692921638489,3,2.887209415435791,None,,,,,,,,,,,,,,,,,,42,1,2025-02-19_12h27.09.450,comp,2024.2.4,None,2025-02-19 12h27.20.652136 -0500,
80,80,0,critical,hwd,35.0,2.1,lower,133.0,57.0,57.0,133.0,70.0,70.0,1,4.513746500015259,None,,,,,0,0,0,0,0,80,80,16,427.9851336479187,,,,,,,,,,,,,,,,,,,,,,,,,,,,,,,,,,,,,,,,,,,,,,,,,,,,,,,,,,,,,,,,,,,,,,,,,,,,,,,,,133.0,57.0,57.0,133.0,70.0,70.0,2.1,2.11,-191,260,0,257,198,-277,427.970819234848,427.9709002971649,427.9743592739105,427.9851336479187,428.1368236541748,428.1368236541748,428.1368236541748,428.1368236541748,428.1368236541748,428.1368236541748,428.1368236541748,432.50226879119873,1,4.513746500015259,None,,,,,,,,,,,,,,,,,,42,1,2025-02-19_12h27.09.450,comp,2024.2.4,None,2025-02-19 12h27.20.652136 -0500,
81,81,0,critical,hwd,35.0,1.0,lower,133.0,57.0,57.0,133.0,70.0,70.0,1,1.9478042125701904,None,,,,,0,0,0,0,0,81,81,96,432.5185778141022,,,,,,,,,,,,,,,,,,,,,,,,,,,,,,,,,,,,,,,,,,,,,,,,,,,,,,,,,,,,,,,,,,,,,,,,,,,,,,,,,133.0,57.0,57.0,133.0,70.0,70.0,1.0,1.2,-191,-12,0,9,198,15,432.5037908554077,432.5038685798645,432.5067443847656,432.5185778141022,432.67402482032776,432.67402482032776,432.67402482032776,432.67402482032776,432.67402482032776,432.67402482032776,432.67402482032776,434.480717420578,1,1.9478042125701904,None,,,,,,,,,,,,,,,,,,42,1,2025-02-19_12h27.09.450,comp,2024.2.4,None,2025-02-19 12h27.20.652136 -0500,
82,82,0,critical,dwh,35.0,3.0,upper,127.0,127.0,125.0,200.0,200.0,125.0,3,6.7214837074279785,None,,,,,0,0,0,0,0,82,82,63,434.4968914985657,,,,,,,,,,,,,,,,,,,,,,,,,,,,,,,,,,,,,,,,,,,,,,,,,,,,,,,,,,,,,,,,,,,,,,,,,,,,,,,,,127.0,127.0,125.0,200.0,200.0,125.0,3.0,3.1,-260,254,0,11,258,-279,434.48233008384705,434.48243951797485,434.4857246875763,434.4968914985657,434.63519167900085,434.63519167900085,434.63519167900085,434.63519167900085,434.63519167900085,434.63519167900085,434.63519167900085,441.2381558418274,3,6.7214837074279785,None,,,,,,,,,,,,,,,,,,42,1,2025-02-19_12h27.09.450,comp,2024.2.4,None,2025-02-19 12h27.20.652136 -0500,
83,83,0,filler_square,None,None,None,None,None,None,None,None,None,None,2,2.938683032989502,None,,,,,0,0,0,0,0,83,83,199,441.2562258243561,,,,,,,,,,,,,,,,,,,,,,,,,,,,,,,,,,,,,,,,,,,,,,,,,,,,,,,,,,,,,,,,,,,,,,,,,,,,,,,,,77.68183458776019,65.16049547482584,91.51458483669538,91.51458483669538,80.87924825823163,89.97845370378603,3.0,3.2,-174,-284,0,-1,187,276,441.24002599716187,441.24013590812683,441.2434604167938,441.2562258243561,441.404629945755,441.404629945755,441.404629945755,441.404629945755,441.404629945755,441.404629945755,441.404629945755,444.20760202407837,2,2.938683032989502,None,,,,,,,,,,,,,,,,,,42,1,2025-02-19_12h27.09.450,comp,2024.2.4,None,2025-02-19 12h27.20.652136 -0500,
84,84,0,critical,dhw,35.0,2.1,lower,70.0,70.0,133.0,57.0,57.0,133.0,2,2.3323442935943604,None,,,,,0,0,0,0,0,84,84,24,444.222856760025,,,,,,,,,,,,,,,,,,,,,,,,,,,,,,,,,,,,,,,,,,,,,,,,,,,,,,,,,,,,,,,,,,,,,,,,,,,,,,,,,70.0,70.0,133.0,57.0,57.0,133.0,2.1,2.11,-160,250,0,259,191,-265,444.2090814113617,444.20915961265564,444.21240162849426,444.222856760025,444.37258863449097,444.37258863449097,444.37258863449097,444.37258863449097,444.37258863449097,444.37258863449097,444.37258863449097,446.5581340789795,2,2.3323442935943604,None,,,,,,,,,,,,,,,,,,42,1,2025-02-19_12h27.09.450,comp,2024.2.4,None,2025-02-19 12h27.20.652136 -0500,
85,85,0,critical,wdh,20.0,2.1,lower,57.0,133.0,78.0,78.0,133.0,57.0,2,3.083293914794922,None,,,,,0,0,0,0,0,85,85,34,446.5750768184662,,,,,,,,,,,,,,,,,,,,,,,,,,,,,,,,,,,,,,,,,,,,,,,,,,,,,,,,,,,,,,,,,,,,,,,,,,,,,,,,,57.0,133.0,78.0,78.0,133.0,57.0,2.1,2.11,-202,278,0,274,164,-269,446.5597519874573,446.5598328113556,446.56330847740173,446.5750768184662,446.7245545387268,446.7245545387268,446.7245545387268,446.7245545387268,446.7245545387268,446.7245545387268,446.7245545387268,449.66041350364685,2,3.083293914794922,None,,,,,,,,,,,,,,,,,,42,1,2025-02-19_12h27.09.450,comp,2024.2.4,None,2025-02-19 12h27.20.652136 -0500,
86,86,0,catch,None,None,None,None,None,None,None,None,None,None,2,2.597332000732422,None,,,,,0,0,0,0,0,86,86,125,449.6771647930145,,,,,,,,,,,,,,,,,,,,,,,,,,,,,,,,,,,,,,,,,,,,,,,,,,,,,,,,,,,,,,,,,,,,,,,,,,,,,,,,,61,129,178,147,72,118,2.2,2.21,-234,-282,0,250,228,275,449.6627743244171,449.66286516189575,449.66631746292114,449.6771647930145,449.82608580589294,449.82608580589294,449.82608580589294,449.82608580589294,449.82608580589294,449.82608580589294,449.82608580589294,452.2765552997589,2,2.597332000732422,None,,,,,,,,,,,,,,,,,,42,1,2025-02-19_12h27.09.450,comp,2024.2.4,None,2025-02-19 12h27.20.652136 -0500,
87,87,0,filler_square,None,None,None,None,None,None,None,None,None,None,1,7.352808713912964,None,,,,,0,0,0,0,0,87,87,193,452.297691822052,,,,,,,,,,,,,,,,,,,,,,,,,,,,,,,,,,,,,,,,,,,,,,,,,,,,,,,,,,,,,,,,,,,,,,,,,,,,,,,,,95.72482657031523,95.72482657031523,94.62976598577819,72.9168535922862,86.30908628190647,87.3255338087412,4.0,4.1,-180,-283,0,13,176,-252,452.27845549583435,452.2786135673523,452.28217005729675,452.297691822052,452.4436151981354,452.4436151981354,452.4436151981354,452.4436151981354,452.4436151981354,452.4436151981354,452.4436151981354,459.6664617061615,1,7.352808713912964,None,,,,,,,,,,,,,,,,,,42,1,2025-02-19_12h27.09.450,comp,2024.2.4,None,2025-02-19 12h27.20.652136 -0500,
88,88,0,catch,None,None,None,None,None,None,None,None,None,None,3,2.095104932785034,None,,,,,0,0,0,0,0,88,88,120,459.6833882331848,,,,,,,,,,,,,,,,,,,,,,,,,,,,,,,,,,,,,,,,,,,,,,,,,,,,,,,,,,,,,,,,,,,,,,,,,,,,,,,,,76,114,73,117,160,165,2.2,2.21,-212,-254,0,274,237,281,459.66871094703674,459.66879439353943,459.6721246242523,459.6833882331848,459.82940649986267,459.82940649986267,459.82940649986267,459.82940649986267,459.82940649986267,459.82940649986267,459.82940649986267,461.7950839996338,3,2.095104932785034,None,,,,,,,,,,,,,,,,,,42,1,2025-02-19_12h27.09.450,comp,2024.2.4,None,2025-02-19 12h27.20.652136 -0500,
89,89,0,filler_random,None,None,None,None,None,None,None,None,None,None,2,1.8151826858520508,None,,,,,0,0,0,0,0,89,89,157,461.811158657074,,,,,,,,,,,,,,,,,,,,,,,,,,,,,,,,,,,,,,,,,,,,,,,,,,,,,,,,,,,,,,,,,,,,,,,,,,,,,,,,,80.28940761723713,198.84680222660884,143.89538527497098,157.8249428975098,75.97692355162431,159.2460088009409,2.1,2.11,-274,257,0,272,255,-284,461.7967813014984,461.79685854911804,461.7997827529907,461.811158657074,461.9507541656494,461.9507541656494,461.9507541656494,461.9507541656494,461.9507541656494,461.9507541656494,461.9507541656494,463.64051604270935,2,1.8151826858520508,None,,,,,,,,,,,,,,,,,,42,1,2025-02-19_12h27.09.450,comp,2024.2.4,None,2025-02-19 12h27.20.652136 -0500,
90,90,0,filler_square,None,None,None,None,None,None,None,None,None,None,1,3.420710563659668,None,,,,,0,0,0,0,0,90,90,202,463.66173791885376,,,,,,,,,,,,,,,,,,,,,,,,,,,,,,,,,,,,,,,,,,,,,,,,,,,,,,,,,,,,,,,,,,,,,,,,,,,,,,,,,85.03223032964164,85.03223032964164,71.99580066031282,66.5142683068897,65.80821161209329,69.46253962891464,3.0,3.2,-172,-251,0,-8,164,288,463.642573595047,463.6426582336426,463.6458730697632,463.66173791885376,463.7967972755432,463.7967972755432,463.7967972755432,463.7967972755432,463.7967972755432,463.7967972755432,463.7967972755432,467.0990102291107,1,3.420710563659668,None,,,,,,,,,,,,,,,,,,42,1,2025-02-19_12h27.09.450,comp,2024.2.4,None,2025-02-19 12h27.20.652136 -0500,
91,91,0,critical,dhw,35.0,1.0,lower,70.0,70.0,133.0,57.0,57.0,133.0,2,2.6663758754730225,None,,,,,0,0,0,0,0,91,91,48,467.1199834346771,,,,,,,,,,,,,,,,,,,,,,,,,,,,,,,,,,,,,,,,,,,,,,,,,,,,,,,,,,,,,,,,,,,,,,,,,,,,,,,,,70.0,70.0,133.0,57.0,57.0,133.0,1.0,1.2,-160,6,0,9,191,11,467.1004421710968,467.1005184650421,467.1035792827606,467.1199834346771,467.26398730278015,467.26398730278015,467.26398730278015,467.26398730278015,467.26398730278015,467.26398730278015,467.26398730278015,469.8009133338928,2,2.6663758754730225,None,,,,,,,,,,,,,,,,,,42,1,2025-02-19_12h27.09.450,comp,2024.2.4,None,2025-02-19 12h27.20.652136 -0500,
92,92,0,critical,whd,35.0,3.0,lower,57.0,133.0,133.0,57.0,70.0,70.0,2,1.1035490036010742,None,,,,,0,0,0,0,0,92,92,86,469.81884360313416,,,,,,,,,,,,,,,,,,,,,,,,,,,,,,,,,,,,,,,,,,,,,,,,,,,,,,,,,,,,,,,,,,,,,,,,,,,,,,,,,57.0,133.0,133.0,57.0,70.0,70.0,3.0,3.1,-191,279,0,7,160,-287,469.80259895324707,469.8026797771454,469.8059313297272,469.81884360313416,469.965158700943,469.965158700943,469.965158700943,469.965158700943,469.965158700943,469.965158700943,469.965158700943,470.93232679367065,2,1.1035490036010742,None,,,,,,,,,,,,,,,,,,42,1,2025-02-19_12h27.09.450,comp,2024.2.4,None,2025-02-19 12h27.20.652136 -0500,
93,93,0,critical,hwd,20.0,4.0,lower,133.0,57.0,57.0,133.0,78.0,78.0,1,1.1179957389831543,None,,,,,0,0,0,0,0,93,93,106,470.9483377933502,,,,,,,,,,,,,,,,,,,,,,,,,,,,,,,,,,,,,,,,,,,,,,,,,,,,,,,,,,,,,,,,,,,,,,,,,,,,,,,,,133.0,57.0,57.0,133.0,78.0,78.0,4.0,4.2,-191,8,0,-264,202,-10,470.93386483192444,470.93394327163696,470.9373219013214,470.9483377933502,471.09784388542175,471.09784388542175,471.09784388542175,471.09784388542175,471.09784388542175,471.09784388542175,471.09784388542175,472.08200240135193,1,1.1179957389831543,None,,,,,,,,,,,,,,,,,,42,1,2025-02-19_12h27.09.450,comp,2024.2.4,None,2025-02-19 12h27.20.652136 -0500,
94,94,0,critical,whd,35.0,2.1,upper,125.0,200.0,200.0,125.0,127.0,127.0,2,3.4973833560943604,None,,,,,0,0,0,0,0,94,94,37,472.09772300720215,,,,,,,,,,,,,,,,,,,,,,,,,,,,,,,,,,,,,,,,,,,,,,,,,,,,,,,,,,,,,,,,,,,,,,,,,,,,,,,,,125.0,200.0,200.0,125.0,127.0,127.0,2.1,2.12,-258,-273,0,-278,222,256,472.08347725868225,472.0835862159729,472.08656549453735,472.09772300720215,472.24967217445374,472.24967217445374,472.24967217445374,472.24967217445374,472.24967217445374,472.24967217445374,472.24967217445374,475.60080909729004,2,3.4973833560943604,None,,,,,,,,,,,,,,,,,,42,1,2025-02-19_12h27.09.450,comp,2024.2.4,None,2025-02-19 12h27.20.652136 -0500,
95,95,0,filler_square,None,None,None,None,None,None,None,None,None,None,2,1.12955641746521,None,,,,,0,0,0,0,0,95,95,209,475.6174190044403,,,,,,,,,,,,,,,,,,,,,,,,,,,,,,,,,,,,,,,,,,,,,,,,,,,,,,,,,,,,,,,,,,,,,,,,,,,,,,,,,95.09788366400826,176.69733253616747,188.97463420893908,188.97463420893908,185.6467230086196,100.09394058168108,4.0,4.2,-279,19,0,-255,241,16,475.60287165641785,475.6029567718506,475.606653213501,475.6174190044403,475.7660458087921,475.7660458087921,475.7660458087921,475.7660458087921,475.7660458087921,475.7660458087921,475.7660458087921,476.7532043457031,2,1.12955641746521,None,,,,,,,,,,,,,,,,,,42,1,2025-02-19_12h27.09.450,comp,2024.2.4,None,2025-02-19 12h27.20.652136 -0500,
96,96,0,critical,dwh,20.0,4.0,lower,78.0,78.0,57.0,133.0,133.0,57.0,3,2.009068727493286,None,,,,,0,0,0,0,0,96,96,70,476.76988077163696,,,,,,,,,,,,,,,,,,,,,,,,,,,,,,,,,,,,,,,,,,,,,,,,,,,,,,,,,,,,,,,,,,,,,,,,,,,,,,,,,78.0,78.0,57.0,133.0,133.0,57.0,4.0,4.1,-202,-254,0,-13,191,-252,476.75495290756226,476.7550539970398,476.7582221031189,476.76988077163696,476.9173367023468,476.9173367023468,476.9173367023468,476.9173367023468,476.9173367023468,476.9173367023468,476.9173367023468,478.7856020927429,3,2.009068727493286,None,,,,,,,,,,,,,,,,,,42,1,2025-02-19_12h27.09.450,comp,2024.2.4,None,2025-02-19 12h27.20.652136 -0500,
97,97,0,critical,hdw,35.0,1.0,upper,200.0,125.0,127.0,127.0,125.0,200.0,2,1.6416866779327393,None,,,,,0,0,0,0,0,97,97,109,478.8014407157898,,,,,,,,,,,,,,,,,,,,,,,,,,,,,,,,,,,,,,,,,,,,,,,,,,,,,,,,,,,,,,,,,,,,,,,,,,,,,,,,,200.0,125.0,127.0,127.0,125.0,200.0,1.0,1.2,-222,19,0,13,260,13,478.78714871406555,478.7872312068939,478.79067063331604,478.8014407157898,478.95523405075073,478.95523405075073,478.95523405075073,478.95523405075073,478.95523405075073,478.95523405075073,478.95523405075073,480.45038652420044,2,1.6416866779327393,None,,,,,,,,,,,,,,,,,,42,1,2025-02-19_12h27.09.450,comp,2024.2.4,None,2025-02-19 12h27.20.652136 -0500,
98,98,0,critical,dwh,20.0,1.0,lower,78.0,78.0,57.0,133.0,133.0,57.0,3,5.423979759216309,None,,,,,0,0,0,0,0,98,98,66,480.46639704704285,,,,,,,,,,,,,,,,,,,,,,,,,,,,,,,,,,,,,,,,,,,,,,,,,,,,,,,,,,,,,,,,,,,,,,,,,,,,,,,,,78.0,78.0,57.0,133.0,133.0,57.0,1.0,1.1,-682,269,-480,286,-289,263,480.4518609046936,480.45194125175476,480.4548146724701,480.46639704704285,480.60439562797546,480.60439562797546,480.60439562797546,480.60439562797546,480.60439562797546,480.60439562797546,480.60439562797546,485.9032323360443,3,5.423979759216309,None,,,,,,,,,,,,,,,,,,42,1,2025-02-19_12h27.09.450,comp,2024.2.4,None,2025-02-19 12h27.20.652136 -0500,
99,99,0,filler_square,None,None,None,None,None,None,None,None,None,None,2,1.35914945602417,None,,,,,0,0,0,0,0,99,99,203,485.92365312576294,,,,,,,,,,,,,,,,,,,,,,,,,,,,,,,,,,,,,,,,,,,,,,,,,,,,,,,,,,,,,,,,,,,,,,,,,,,,,,,,,68.11158094011493,88.96578925646948,91.85291980692047,91.85291980692047,85.66020753666614,62.841742244754485,4.0,4.1,-186,-277,0,6,173,-256,485.90521359443665,485.9052929878235,485.908638715744,485.92365312576294,486.0704610347748,486.0704610347748,486.0704610347748,486.0704610347748,486.0704610347748,486.0704610347748,486.0704610347748,487.28661942481995,2,1.35914945602417,None,,,,,,,,,,,,,,,,,,42,1,2025-02-19_12h27.09.450,comp,2024.2.4,None,2025-02-19 12h27.20.652136 -0500,
100,100,0,critical,dwh,35.0,2.1,lower,70.0,70.0,57.0,133.0,133.0,57.0,3,2.4084863662719727,None,,,,,0,0,0,0,0,100,100,4,487.3063631057739,,,,,,,,,,,,,,,,,,,,,,,,,,,,,,,,,,,,,,,,,,,,,,,,,,,,,,,,,,,,,,,,,,,,,,,,,,,,,,,,,70.0,70.0,57.0,133.0,133.0,57.0,2.1,2.12,-198,-265,0,-261,191,266,487.2881224155426,487.28820419311523,487.2912902832031,487.3063631057739,487.4548337459564,487.4548337459564,487.4548337459564,487.4548337459564,487.4548337459564,487.4548337459564,487.4548337459564,489.72322845458984,3,2.4084863662719727,None,,,,,,,,,,,,,,,,,,42,1,2025-02-19_12h27.09.450,comp,2024.2.4,None,2025-02-19 12h27.20.652136 -0500,
101,101,0,filler_random,None,None,None,None,None,None,None,None,None,None,2,3.414156675338745,None,,,,,0,0,0,0,0,101,101,147,489.74030232429504,,,,,,,,,,,,,,,,,,,,,,,,,,,,,,,,,,,,,,,,,,,,,,,,,,,,,,,,,,,,,,,,,,,,,,,,,,,,,,,,,173.93031288840376,82.93503125882604,197.81603777100693,120.47191678044166,150.131034925706,145.86621980558238,2.1,2.12,-198,-261,0,-271,229,250,489.72509241104126,489.7251703739166,489.72901582717896,489.74030232429504,489.88713455200195,489.88713455200195,489.88713455200195,489.88713455200195,489.88713455200195,489.88713455200195,489.88713455200195,493.1564869880676,2,3.414156675338745,None,,,,,,,,,,,,,,,,,,42,1,2025-02-19_12h27.09.450,comp,2024.2.4,None,2025-02-19 12h27.20.652136 -0500,
102,102,0,catch,None,None,None,None,None,None,None,None,None,None,1,2.446218967437744,None,,,,,0,0,0,0,0,102,102,127,493.1729121208191,,,,,,,,,,,,,,,,,,,,,,,,,,,,,,,,,,,,,,,,,,,,,,,,,,,,,,,,,,,,,,,,,,,,,,,,,,,,,,,,,140,185,126,64,99,91,2.1,2.12,-220,-287,0,-273,174,272,493.15843057632446,493.1585123538971,493.1619029045105,493.1729121208191,493.3248014450073,493.3248014450073,493.3248014450073,493.3248014450073,493.3248014450073,493.3248014450073,493.3248014450073,495.62516808509827,1,2.446218967437744,None,,,,,,,,,,,,,,,,,,42,1,2025-02-19_12h27.09.450,comp,2024.2.4,None,2025-02-19 12h27.20.652136 -0500,
103,103,0,filler_square,None,None,None,None,None,None,None,None,None,None,1,2.553581953048706,None,,,,,0,0,0,0,0,103,103,191,495.64110016822815,,,,,,,,,,,,,,,,,,,,,,,,,,,,,,,,,,,,,,,,,,,,,,,,,,,,,,,,,,,,,,,,,,,,,,,,,,,,,,,,,187.273069869576,187.273069869576,125.70067231785062,68.05718604404464,162.2420947350283,167.76960944471958,2.2,2.22,-224,256,0,-251,214,-257,495.62710523605347,495.6271893978119,495.63034892082214,495.64110016822815,495.78947854042053,495.78947854042053,495.78947854042053,495.78947854042053,495.78947854042053,495.78947854042053,495.78947854042053,498.1970405578613,1,2.553581953048706,None,,,,,,,,,,,,,,,,,,42,1,2025-02-19_12h27.09.450,comp,2024.2.4,None,2025-02-19 12h27.20.652136 -0500,
104,104,0,filler_random,None,None,None,None,None,None,None,None,None,None,3,1.3550572395324707,None,,,,,0,0,0,0,0,104,104,167,498.216046333313,,,,,,,,,,,,,,,,,,,,,,,,,,,,,,,,,,,,,,,,,,,,,,,,,,,,,,,,,,,,,,,,,,,,,,,,,,,,,,,,,95.095681034707,191.52553287512308,133.49578005239005,179.07415659363,164.98878341120655,168.31136017182877,2.1,2.11,-281,263,0,263,270,-269,498.1989858150482,498.199068069458,498.20231461524963,498.216046333313,498.3562889099121,498.3562889099121,498.3562889099121,498.3562889099121,498.3562889099121,498.3562889099121,498.3562889099121,499.5737555027008,3,1.3550572395324707,None,,,,,,,,,,,,,,,,,,42,1,2025-02-19_12h27.09.450,comp,2024.2.4,None,2025-02-19 12h27.20.652136 -0500,
105,105,0,critical,wdh,20.0,3.0,upper,125.0,200.0,141.0,141.0,200.0,125.0,3,3.388118267059326,None,,,,,0,0,0,0,0,105,105,81,499.5903367996216,,,,,,,,,,,,,,,,,,,,,,,,,,,,,,,,,,,,,,,,,,,,,,,,,,,,,,,,,,,,,,,,,,,,,,,,,,,,,,,,,125.0,200.0,141.0,141.0,200.0,125.0,3.0,3.2,-266,-278,0,15,229,263,499.5752172470093,499.5752959251404,499.57844257354736,499.5903367996216,499.74124670028687,499.74124670028687,499.74124670028687,499.74124670028687,499.74124670028687,499.74124670028687,499.74124670028687,502.980731010437,3,3.388118267059326,None,,,,,,,,,,,,,,,,,,42,1,2025-02-19_12h27.09.450,comp,2024.2.4,None,2025-02-19 12h27.20.652136 -0500,
106,106,0,filler_square,None,None,None,None,None,None,None,None,None,None,1,1.3178975582122803,None,,,,,0,0,0,0,0,106,106,190,502.99661231040955,,,,,,,,,,,,,,,,,,,,,,,,,,,,,,,,,,,,,,,,,,,,,,,,,,,,,,,,,,,,,,,,,,,,,,,,,,,,,,,,,152.01547729140248,152.01547729140248,57.241069636661805,129.16196783116092,134.2772287098196,123.62187006406775,2.2,2.21,-237,-259,0,250,222,272,502.9829087257385,502.98299264907837,502.98588252067566,502.99661231040955,503.14234828948975,503.14234828948975,503.14234828948975,503.14234828948975,503.14234828948975,503.14234828948975,503.14234828948975,504.32414984703064,1,1.3178975582122803,None,,,,,,,,,,,,,,,,,,42,1,2025-02-19_12h27.09.450,comp,2024.2.4,None,2025-02-19 12h27.20.652136 -0500,
107,107,0,critical,dhw,35.0,3.0,upper,127.0,127.0,200.0,125.0,125.0,200.0,3,1.8141365051269531,None,,,,,0,0,0,0,0,107,107,51,504.3402874469757,,,,,,,,,,,,,,,,,,,,,,,,,,,,,,,,,,,,,,,,,,,,,,,,,,,,,,,,,,,,,,,,,,,,,,,,,,,,,,,,,127.0,127.0,200.0,125.0,125.0,200.0,3.0,3.1,-222,280,0,-18,258,-277,504.325811624527,504.32595014572144,504.3292484283447,504.3402874469757,504.4815592765808,504.4815592765808,504.4815592765808,504.4815592765808,504.4815592765808,504.4815592765808,504.4815592765808,506.1671597957611,3,1.8141365051269531,None,,,,,,,,,,,,,,,,,,42,1,2025-02-19_12h27.09.450,comp,2024.2.4,None,2025-02-19 12h27.20.652136 -0500,
108,108,0,filler_square,None,None,None,None,None,None,None,None,None,None,3,1.4162688255310059,None,,,,,0,0,0,0,0,108,108,207,506.18626618385315,,,,,,,,,,,,,,,,,,,,,,,,,,,,,,,,,,,,,,,,,,,,,,,,,,,,,,,,,,,,,,,,,,,,,,,,,,,,,,,,,95.32413216163731,129.76349157069862,117.67846613987084,81.72663400703192,144.9312043102977,144.9312043102977,1.0,1.1,-682,255,-480,282,-271,267,506.16893124580383,506.1690137386322,506.17185640335083,506.18626618385315,506.32681822776794,506.32681822776794,506.32681822776794,506.32681822776794,506.32681822776794,506.32681822776794,506.32681822776794,507.6202485561371,3,1.4162688255310059,None,,,,,,,,,,,,,,,,,,42,1,2025-02-19_12h27.09.450,comp,2024.2.4,None,2025-02-19 12h27.20.652136 -0500,
109,109,0,filler_square,None,None,None,None,None,None,None,None,None,None,3,1.0710434913635254,None,,,,,0,0,0,0,0,109,109,192,507.6361756324768,,,,,,,,,,,,,,,,,,,,,,,,,,,,,,,,,,,,,,,,,,,,,,,,,,,,,,,,,,,,,,,,,,,,,,,,,,,,,,,,,57.95285697899169,81.71594438257138,84.54076554744223,72.59940769518523,149.06523957738244,149.06523957738244,1.0,1.3,307,-260,480,-258,687,-253,507.62203454971313,507.6221103668213,507.62493228912354,507.6361756324768,507.7806353569031,507.7806353569031,507.7806353569031,507.7806353569031,507.7806353569031,507.7806353569031,507.7806353569031,508.71431517601013,3,1.0710434913635254,None,,,,,,,,,,,,,,,,,,42,1,2025-02-19_12h27.09.450,comp,2024.2.4,None,2025-02-19 12h27.20.652136 -0500,
110,110,0,critical,dhw,35.0,3.0,lower,70.0,70.0,133.0,57.0,57.0,133.0,2,2.458750009536743,None,,,,,0,0,0,0,0,110,110,50,508.730060338974,,,,,,,,,,,,,,,,,,,,,,,,,,,,,,,,,,,,,,,,,,,,,,,,,,,,,,,,,,,,,,,,,,,,,,,,,,,,,,,,,70.0,70.0,133.0,57.0,57.0,133.0,3.0,3.2,-160,-282,0,-17,191,253,508.7159991264343,508.7161138057709,508.7193195819855,508.730060338974,508.877934217453,508.877934217453,508.877934217453,508.877934217453,508.877934217453,508.877934217453,508.877934217453,511.1918032169342,2,2.458750009536743,None,,,,,,,,,,,,,,,,,,42,1,2025-02-19_12h27.09.450,comp,2024.2.4,None,2025-02-19 12h27.20.652136 -0500,
111,111,0,filler_random,None,None,None,None,None,None,None,None,None,None,2,2.473003625869751,None,,,,,0,0,0,0,0,111,111,162,511.2097067832947,,,,,,,,,,,,,,,,,,,,,,,,,,,,,,,,,,,,,,,,,,,,,,,,,,,,,,,,,,,,,,,,,,,,,,,,,,,,,,,,,59.654366184226994,117.85142634499417,183.83545790114488,137.35701539841511,128.42655518085178,196.11956748755017,2.1,2.12,-224,-256,0,-277,263,256,511.1936800479889,511.19378566741943,511.1969983577728,511.2097067832947,511.358909368515,511.358909368515,511.358909368515,511.358909368515,511.358909368515,511.358909368515,511.358909368515,513.6959969997406,2,2.473003625869751,None,,,,,,,,,,,,,,,,,,42,1,2025-02-19_12h27.09.450,comp,2024.2.4,None,2025-02-19 12h27.20.652136 -0500,
112,112,0,filler_random,None,None,None,None,None,None,None,None,None,None,2,0.9712326526641846,None,,,,,0,0,0,0,0,112,112,151,513.7113018035889,,,,,,,,,,,,,,,,,,,,,,,,,,,,,,,,,,,,,,,,,,,,,,,,,,,,,,,,,,,,,,,,,,,,,,,,,,,,,,,,,98.77899180312627,60.61971083138022,166.61716304225078,187.4523011441834,186.82292219995514,81.56853959329926,2.1,2.12,-220,-258,0,-266,231,255,513.6975557804108,513.6976358890533,513.7009589672089,513.7113018035889,513.8643345832825,513.8643345832825,513.8643345832825,513.8643345832825,513.8643345832825,513.8643345832825,513.8643345832825,514.6977787017822,2,0.9712326526641846,None,,,,,,,,,,,,,,,,,,42,1,2025-02-19_12h27.09.450,comp,2024.2.4,None,2025-02-19 12h27.20.652136 -0500,
113,113,0,filler_square,None,None,None,None,None,None,None,None,None,None,3,0.9749832153320312,None,,,,,0,0,0,0,0,113,113,194,514.7158203125,,,,,,,,,,,,,,,,,,,,,,,,,,,,,,,,,,,,,,,,,,,,,,,,,,,,,,,,,,,,,,,,,,,,,,,,,,,,,,,,,185.347578761009,127.46225197718773,107.33871915006563,141.54614966109813,197.40471261375316,197.40471261375316,1.0,1.2,-231,-15,0,0,265,19,514.6997194290161,514.6998009681702,514.7028064727783,514.7158203125,514.8631899356842,514.8631899356842,514.8631899356842,514.8631899356842,514.8631899356842,514.8631899356842,514.8631899356842,515.6977822780609,3,0.9749832153320312,None,,,,,,,,,,,,,,,,,,42,1,2025-02-19_12h27.09.450,comp,2024.2.4,None,2025-02-19 12h27.20.652136 -0500,
114,114,0,filler_random,None,None,None,None,None,None,None,None,None,None,2,1.0251765251159668,None,,,,,0,0,0,0,0,114,114,159,515.7133247852325,,,,,,,,,,,,,,,,,,,,,,,,,,,,,,,,,,,,,,,,,,,,,,,,,,,,,,,,,,,,,,,,,,,,,,,,,,,,,,,,,149.7417714419285,72.5150324157872,165.21807221166583,185.42736189949025,83.93849663967013,144.15940556107404,4.0,4.2,-225,19,0,-280,261,-15,515.6994349956512,515.6995139122009,515.7026319503784,515.7133247852325,515.8722274303436,515.8722274303436,515.8722274303436,515.8722274303436,515.8722274303436,515.8722274303436,515.8722274303436,516.7491493225098,2,1.0251765251159668,None,,,,,,,,,,,,,,,,,,42,1,2025-02-19_12h27.09.450,comp,2024.2.4,None,2025-02-19 12h27.20.652136 -0500,
115,115,0,critical,hdw,35.0,4.0,lower,133.0,57.0,70.0,70.0,57.0,133.0,1,1.9116153717041016,None,,,,,0,0,0,0,0,115,115,112,516.763233423233,,,,,,,,,,,,,,,,,,,,,,,,,,,,,,,,,,,,,,,,,,,,,,,,,,,,,,,,,,,,,,,,,,,,,,,,,,,,,,,,,133.0,57.0,70.0,70.0,57.0,133.0,4.0,4.1,-160,-251,0,-10,198,-286,516.750764131546,516.7508451938629,516.7537407875061,516.763233423233,516.9017081260681,516.9017081260681,516.9017081260681,516.9017081260681,516.9017081260681,516.9017081260681,516.9017081260681,518.6816473007202,1,1.9116153717041016,None,,,,,,,,,,,,,,,,,,42,1,2025-02-19_12h27.09.450,comp,2024.2.4,None,2025-02-19 12h27.20.652136 -0500,
116,116,0,critical,dhw,20.0,1.0,upper,141.0,141.0,200.0,125.0,125.0,200.0,3,16.065601348876953,None,,,,,0,0,0,0,0,116,116,55,518.6974833011627,,,,,,,,,,,,,,,,,,,,,,,,,,,,,,,,,,,,,,,,,,,,,,,,,,,,,,,,,,,,,,,,,,,,,,,,,,,,,,,,,141.0,141.0,200.0,125.0,125.0,200.0,1.0,1.3,251,-289,480,-279,738,-254,518.6831905841827,518.6832737922668,518.6866679191589,518.6974833011627,518.8454756736755,518.8454756736755,518.8454756736755,518.8454756736755,518.8454756736755,518.8454756736755,518.8454756736755,534.7674491405487,3,16.065601348876953,None,,,,,,,,,,,,,,,,,,42,1,2025-02-19_12h27.09.450,comp,2024.2.4,None,2025-02-19 12h27.20.652136 -0500,
117,117,0,filler_square,None,None,None,None,None,None,None,None,None,None,3,2.0703182220458984,None,,,,,0,0,0,0,0,117,117,181,534.7882635593414,,,,,,,,,,,,,,,,,,,,,,,,,,,,,,,,,,,,,,,,,,,,,,,,,,,,,,,,,,,,,,,,,,,,,,,,,,,,,,,,,105.39445018862432,69.06253921692823,102.68839108391987,101.85143194734931,141.40993199108195,141.40993199108195,1.0,1.3,299,-284,480,-257,698,-277,534.7692601680756,534.7693452835083,534.7724871635437,534.7882635593414,534.922685623169,534.922685623169,534.922685623169,534.922685623169,534.922685623169,534.922685623169,534.922685623169,536.8737432956696,3,2.0703182220458984,None,,,,,,,,,,,,,,,,,,42,1,2025-02-19_12h27.09.450,comp,2024.2.4,None,2025-02-19 12h27.20.652136 -0500,
118,118,0,filler_square,None,None,None,None,None,None,None,None,None,None,2,0.9988596439361572,None,,,,,0,0,0,0,0,118,118,176,536.8917520046234,,,,,,,,,,,,,,,,,,,,,,,,,,,,,,,,,,,,,,,,,,,,,,,,,,,,,,,,,,,,,,,,,,,,,,,,,,,,,,,,,82.27678062610318,100.54327161276177,116.98973993626592,116.98973993626592,80.27994631508074,89.83350282973848,1.0,1.3,275,-260,480,-266,679,-285,536.8755660057068,536.8756539821625,536.8784236907959,536.8917520046234,537.0372426509857,537.0372426509857,537.0372426509857,537.0372426509857,537.0372426509857,537.0372426509857,537.0372426509857,537.8947710990906,2,0.9988596439361572,None,,,,,,,,,,,,,,,,,,42,1,2025-02-19_12h27.09.450,comp,2024.2.4,None,2025-02-19 12h27.20.652136 -0500,
119,119,0,critical,whd,20.0,2.1,upper,125.0,200.0,200.0,125.0,141.0,141.0,2,3.0895748138427734,None,,,,,0,0,0,0,0,119,119,39,537.9133305549622,,,,,,,,,,,,,,,,,,,,,,,,,,,,,,,,,,,,,,,,,,,,,,,,,,,,,,,,,,,,,,,,,,,,,,,,,,,,,,,,,125.0,200.0,200.0,125.0,141.0,141.0,2.1,2.12,-258,-269,0,-284,229,274,537.8963820934296,537.8964598178864,537.8997123241425,537.9133305549622,538.0571677684784,538.0571677684784,538.0571677684784,538.0571677684784,538.0571677684784,538.0571677684784,538.0571677684784,541.0204029083252,2,3.0895748138427734,None,,,,,,,,,,,,,,,,,,42,1,2025-02-19_12h27.09.450,comp,2024.2.4,None,2025-02-19 12h27.20.652136 -0500,
120,120,0,critical,whd,20.0,2.1,upper,125.0,200.0,200.0,125.0,141.0,141.0,2,2.7942309379577637,None,,,,,0,0,0,0,0,120,120,15,541.0407586097717,,,,,,,,,,,,,,,,,,,,,,,,,,,,,,,,,,,,,,,,,,,,,,,,,,,,,,,,,,,,,,,,,,,,,,,,,,,,,,,,,125.0,200.0,200.0,125.0,141.0,141.0,2.1,2.12,-258,-274,0,-253,229,286,541.0219659805298,541.0220427513123,541.0254292488098,541.0407586097717,541.1872549057007,541.1872549057007,541.1872549057007,541.1872549057007,541.1872549057007,541.1872549057007,541.1872549057007,543.837831735611,2,2.7942309379577637,None,,,,,,,,,,,,,,,,,,42,1,2025-02-19_12h27.09.450,comp,2024.2.4,None,2025-02-19 12h27.20.652136 -0500,
121,121,0,critical,wdh,35.0,1.0,upper,125.0,200.0,127.0,127.0,200.0,125.0,3,5.885528802871704,None,,,,,0,0,0,0,0,121,121,73,543.8533656597137,,,,,,,,,,,,,,,,,,,,,,,,,,,,,,,,,,,,,,,,,,,,,,,,,,,,,,,,,,,,,,,,,,,,,,,,,,,,,,,,,125.0,200.0,127.0,127.0,200.0,125.0,1.0,1.2,-260,13,0,-17,222,-6,543.839298248291,543.8393771648407,543.8422701358795,543.8533656597137,544.007651090622,544.007651090622,544.007651090622,544.007651090622,544.007651090622,544.007651090622,544.007651090622,549.7419383525848,3,5.885528802871704,None,,,,,,,,,,,,,,,,,,42,1,2025-02-19_12h27.09.450,comp,2024.2.4,None,2025-02-19 12h27.20.652136 -0500,
122,122,0,critical,dhw,20.0,4.0,upper,141.0,141.0,200.0,125.0,125.0,200.0,2,6.139683246612549,None,,,,,0,0,0,0,0,122,122,59,549.759553194046,,,,,,,,,,,,,,,,,,,,,,,,,,,,,,,,,,,,,,,,,,,,,,,,,,,,,,,,,,,,,,,,,,,,,,,,,,,,,,,,,141.0,141.0,200.0,125.0,125.0,200.0,4.0,4.1,-229,-273,0,13,258,-260,549.7435548305511,549.7436418533325,549.7465736865997,549.759553194046,549.9032261371613,549.9032261371613,549.9032261371613,549.9032261371613,549.9032261371613,549.9032261371613,549.9032261371613,555.9103412628174,2,6.139683246612549,None,,,,,,,,,,,,,,,,,,42,1,2025-02-19_12h27.09.450,comp,2024.2.4,None,2025-02-19 12h27.20.652136 -0500,
123,123,0,critical,hwd,20.0,2.1,lower,133.0,57.0,57.0,133.0,78.0,78.0,1,6.9163055419921875,None,,,,,0,0,0,0,0,123,123,18,555.9262790679932,,,,,,,,,,,,,,,,,,,,,,,,,,,,,,,,,,,,,,,,,,,,,,,,,,,,,,,,,,,,,,,,,,,,,,,,,,,,,,,,,133.0,57.0,57.0,133.0,78.0,78.0,2.1,2.12,-191,-287,0,-286,202,271,555.911942243576,555.9120197296143,555.9154026508331,555.9262790679932,556.074768781662,556.074768781662,556.074768781662,556.074768781662,556.074768781662,556.074768781662,556.074768781662,562.8607511520386,1,6.9163055419921875,None,,,,,,,,,,,,,,,,,,42,1,2025-02-19_12h27.09.450,comp,2024.2.4,None,2025-02-19 12h27.20.652136 -0500,
124,124,0,critical,hwd,20.0,4.0,upper,200.0,125.0,125.0,200.0,141.0,141.0,1,4.1143105030059814,None,,,,,0,0,0,0,0,124,124,107,562.8805959224701,,,,,,,,,,,,,,,,,,,,,,,,,,,,,,,,,,,,,,,,,,,,,,,,,,,,,,,,,,,,,,,,,,,,,,,,,,,,,,,,,200.0,125.0,125.0,200.0,141.0,141.0,4.0,4.1,-258,-286,0,-13,266,-288,562.8623278141022,562.8624098300934,562.8658797740936,562.8805959224701,563.0291035175323,563.0291035175323,563.0291035175323,563.0291035175323,563.0291035175323,563.0291035175323,563.0291035175323,567.012729883194,1,4.1143105030059814,None,,,,,,,,,,,,,,,,,,42,1,2025-02-19_12h27.09.450,comp,2024.2.4,None,2025-02-19 12h27.20.652136 -0500,
125,125,0,critical,wdh,35.0,3.0,upper,125.0,200.0,127.0,127.0,200.0,125.0,1,5.405784845352173,None,,,,,0,0,0,0,0,125,125,75,567.0289258956909,,,,,,,,,,,,,,,,,,,,,,,,,,,,,,,,,,,,,,,,,,,,,,,,,,,,,,,,,,,,,,,,,,,,,,,,,,,,,,,,,125.0,200.0,127.0,127.0,200.0,125.0,3.0,3.2,-260,-253,0,17,222,288,567.0143730640411,567.0144782066345,567.0177938938141,567.0289258956909,567.1802942752838,567.1802942752838,567.1802942752838,567.1802942752838,567.1802942752838,567.1802942752838,567.1802942752838,572.4486012458801,1,5.405784845352173,None,,,,,,,,,,,,,,,,,,42,1,2025-02-19_12h27.09.450,comp,2024.2.4,None,2025-02-19 12h27.20.652136 -0500,
126,126,0,critical,whd,35.0,1.0,upper,125.0,200.0,200.0,125.0,127.0,127.0,2,1.3540716171264648,None,,,,,0,0,0,0,0,126,126,85,572.4644582271576,,,,,,,,,,,,,,,,,,,,,,,,,,,,,,,,,,,,,,,,,,,,,,,,,,,,,,,,,,,,,,,,,,,,,,,,,,,,,,,,,125.0,200.0,200.0,125.0,127.0,127.0,1.0,1.2,-258,-7,0,-8,222,6,572.4500794410706,572.4501576423645,572.4541277885437,572.4644582271576,572.6005511283875,572.6005511283875,572.6005511283875,572.6005511283875,572.6005511283875,572.6005511283875,572.6005511283875,573.8335702419281,2,1.3540716171264648,None,,,,,,,,,,,,,,,,,,42,1,2025-02-19_12h27.09.450,comp,2024.2.4,None,2025-02-19 12h27.20.652136 -0500,
127,127,0,filler_square,None,None,None,None,None,None,None,None,None,None,2,1.5435054302215576,None,,,,,0,0,0,0,0,127,127,179,573.8517367839813,,,,,,,,,,,,,,,,,,,,,,,,,,,,,,,,,,,,,,,,,,,,,,,,,,,,,,,,,,,,,,,,,,,,,,,,,,,,,,,,,100.5035039788352,71.81563578720385,113.16044990256606,113.16044990256606,110.98456224497158,63.410029523504036,2.2,2.22,-188,254,0,-251,184,-289,573.8354740142822,573.8355920314789,573.8386726379395,573.8517367839813,573.9968268871307,573.9968268871307,573.9968268871307,573.9968268871307,573.9968268871307,573.9968268871307,573.9968268871307,575.4048452377319,2,1.5435054302215576,None,,,,,,,,,,,,,,,,,,42,1,2025-02-19_12h27.09.450,comp,2024.2.4,None,2025-02-19 12h27.20.652136 -0500,
128,128,0,filler_square,None,None,None,None,None,None,None,None,None,None,3,1.483935832977295,None,,,,,0,0,0,0,0,128,128,174,575.4226751327515,,,,,,,,,,,,,,,,,,,,,,,,,,,,,,,,,,,,,,,,,,,,,,,,,,,,,,,,,,,,,,,,,,,,,,,,,,,,,,,,,184.04684208376918,112.60006568455775,62.370140310625146,166.3874924299031,188.8547858032759,188.8547858032759,1.0,1.3,245,-278,480,-288,754,-290,575.4066293239594,575.4067106246948,575.4095442295074,575.4226751327515,575.5677404403687,575.5677404403687,575.5677404403687,575.5677404403687,575.5677404403687,575.5677404403687,575.5677404403687,576.9199948310852,3,1.483935832977295,None,,,,,,,,,,,,,,,,,,42,1,2025-02-19_12h27.09.450,comp,2024.2.4,None,2025-02-19 12h27.20.652136 -0500,
129,129,0,critical,hdw,20.0,4.0,lower,133.0,57.0,78.0,78.0,57.0,133.0,3,5.163816690444946,None,,,,,0,0,0,0,0,129,129,118,576.9353289604187,,,,,,,,,,,,,,,,,,,,,,,,,,,,,,,,,,,,,,,,,,,,,,,,,,,,,,,,,,,,,,,,,,,,,,,,,,,,,,,,,133.0,57.0,78.0,78.0,57.0,133.0,4.0,4.2,-164,-6,0,-257,202,-10,576.9215776920319,576.9216566085815,576.9249582290649,576.9353289604187,577.0824735164642,577.0824735164642,577.0824735164642,577.0824735164642,577.0824735164642,577.0824735164642,577.0824735164642,582.1163914203644,3,5.163816690444946,None,,,,,,,,,,,,,,,,,,42,1,2025-02-19_12h27.09.450,comp,2024.2.4,None,2025-02-19 12h27.20.652136 -0500,
130,130,0,critical,whd,20.0,4.0,upper,125.0,200.0,200.0,125.0,141.0,141.0,2,8.903084754943848,None,,,,,0,0,0,0,0,130,130,95,582.1322467327118,,,,,,,,,,,,,,,,,,,,,,,,,,,,,,,,,,,,,,,,,,,,,,,,,,,,,,,,,,,,,,,,,,,,,,,,,,,,,,,,,125.0,200.0,200.0,125.0,141.0,141.0,4.0,4.2,-258,-3,0,-260,229,2,582.1179187297821,582.117998123169,582.1210732460022,582.1322467327118,582.2836081981659,582.2836081981659,582.2836081981659,582.2836081981659,582.2836081981659,582.2836081981659,582.2836081981659,591.0383758544922,2,8.903084754943848,None,,,,,,,,,,,,,,,,,,42,1,2025-02-19_12h27.09.450,comp,2024.2.4,None,2025-02-19 12h27.20.652136 -0500,
131,131,0,critical,dwh,35.0,4.0,upper,127.0,127.0,125.0,200.0,200.0,125.0,3,1.4209001064300537,None,,,,,0,0,0,0,0,131,131,65,591.0547311306,,,,,,,,,,,,,,,,,,,,,,,,,,,,,,,,,,,,,,,,,,,,,,,,,,,,,,,,,,,,,,,,,,,,,,,,,,,,,,,,,127.0,127.0,125.0,200.0,200.0,125.0,4.0,4.2,-260,-18,0,-270,258,0,591.0401074886322,591.040225982666,591.0438530445099,591.0547311306,591.2039620876312,591.2039620876312,591.2039620876312,591.2039620876312,591.2039620876312,591.2039620876312,591.2039620876312,592.4909446239471,3,1.4209001064300537,None,,,,,,,,,,,,,,,,,,42,1,2025-02-19_12h27.09.450,comp,2024.2.4,None,2025-02-19 12h27.20.652136 -0500,
132,132,0,filler_random,None,None,None,None,None,None,None,None,None,None,1,1.7925786972045898,None,,,,,0,0,0,0,0,132,132,133,592.5065019130707,,,,,,,,,,,,,,,,,,,,,,,,,,,,,,,,,,,,,,,,,,,,,,,,,,,,,,,,,,,,,,,,,,,,,,,,,,,,,,,,,158.00790344760782,173.84886065463814,77.0619162473288,156.57209965833925,112.6672410907793,121.36269637282604,3.0,3.1,-261,260,0,20,235,-253,592.4932293891907,592.4933123588562,592.4962024688721,592.5065019130707,592.6535334587097,592.6535334587097,592.6535334587097,592.6535334587097,592.6535334587097,592.6535334587097,592.6535334587097,594.3058092594147,1,1.7925786972045898,None,,,,,,,,,,,,,,,,,,42,1,2025-02-19_12h27.09.450,comp,2024.2.4,None,2025-02-19 12h27.20.652136 -0500,
133,133,0,filler_square,None,None,None,None,None,None,None,None,None,None,3,2.6601996421813965,None,,,,,0,0,0,0,0,133,133,183,594.326497554779,,,,,,,,,,,,,,,,,,,,,,,,,,,,,,,,,,,,,,,,,,,,,,,,,,,,,,,,,,,,,,,,,,,,,,,,,,,,,,,,,64.77543185960118,59.66359973612474,87.9062499823467,87.9062499823467,82.60516464393345,87.81228983193715,4.0,4.1,-170,-273,0,15,184,-250,594.3075113296509,594.3076536655426,594.3109014034271,594.326497554779,594.4713797569275,594.4713797569275,594.4713797569275,594.4713797569275,594.4713797569275,594.4713797569275,594.4713797569275,596.9887506961823,3,2.6601996421813965,None,,,,,,,,,,,,,,,,,,42,1,2025-02-19_12h27.09.450,comp,2024.2.4,None,2025-02-19 12h27.20.652136 -0500,
134,134,0,filler_random,None,None,None,None,None,None,None,None,None,None,1,1.9014577865600586,None,,,,,0,0,0,0,0,134,134,135,597.005138874054,,,,,,,,,,,,,,,,,,,,,,,,,,,,,,,,,,,,,,,,,,,,,,,,,,,,,,,,,,,,,,,,,,,,,,,,,,,,,,,,,175.47312761848318,184.74679235390607,120.48261354093626,123.76038191294667,66.53948054516974,160.84425938320712,1.0,1.2,-250,-12,0,12,238,-13,596.9904277324677,596.9905979633331,596.9938788414001,597.005138874054,597.1586666107178,597.1586666107178,597.1586666107178,597.1586666107178,597.1586666107178,597.1586666107178,597.1586666107178,598.9281871318817,1,1.9014577865600586,None,,,,,,,,,,,,,,,,,,42,1,2025-02-19_12h27.09.450,comp,2024.2.4,None,2025-02-19 12h27.20.652136 -0500,
135,135,0,filler_random,None,None,None,None,None,None,None,None,None,None,1,1.4709515571594238,None,,,,,0,0,0,0,0,135,135,161,598.9476523399353,,,,,,,,,,,,,,,,,,,,,,,,,,,,,,,,,,,,,,,,,,,,,,,,,,,,,,,,,,,,,,,,,,,,,,,,,,,,,,,,,176.59940000371685,198.51396450279935,80.89511123204679,75.9072008492147,130.5900605803069,138.26453344578275,2.2,2.22,-233,289,0,-255,203,-263,598.9298739433289,598.9299545288086,598.932806968689,598.9476523399353,599.0896575450897,599.0896575450897,599.0896575450897,599.0896575450897,599.0896575450897,599.0896575450897,599.0896575450897,600.4344379901886,1,1.4709515571594238,None,,,,,,,,,,,,,,,,,,42,1,2025-02-19_12h27.09.450,comp,2024.2.4,None,2025-02-19 12h27.20.652136 -0500,
136,136,0,critical,whd,20.0,4.0,lower,57.0,133.0,133.0,57.0,78.0,78.0,2,2.8476932048797607,None,,,,,0,0,0,0,0,136,136,94,600.4535844326019,,,,,,,,,,,,,,,,,,,,,,,,,,,,,,,,,,,,,,,,,,,,,,,,,,,,,,,,,,,,,,,,,,,,,,,,,,,,,,,,,57.0,133.0,133.0,57.0,78.0,78.0,4.0,4.1,-191,-265,0,16,164,-272,600.4360680580139,600.4361438751221,600.4393479824066,600.4535844326019,600.5933794975281,600.5933794975281,600.5933794975281,600.5933794975281,600.5933794975281,600.5933794975281,600.5933794975281,603.3040308952332,2,2.8476932048797607,None,,,,,,,,,,,,,,,,,,42,1,2025-02-19_12h27.09.450,comp,2024.2.4,None,2025-02-19 12h27.20.652136 -0500,
137,137,0,critical,wdh,35.0,4.0,lower,57.0,133.0,70.0,70.0,133.0,57.0,3,1.7534656524658203,None,,,,,0,0,0,0,0,137,137,76,603.3219783306122,,,,,,,,,,,,,,,,,,,,,,,,,,,,,,,,,,,,,,,,,,,,,,,,,,,,,,,,,,,,,,,,,,,,,,,,,,,,,,,,,57.0,133.0,70.0,70.0,133.0,57.0,4.0,4.1,-198,-278,0,11,160,-287,603.3056228160858,603.3057005405426,603.3089389801025,603.3219783306122,603.463365316391,603.463365316391,603.463365316391,603.463365316391,603.463365316391,603.463365316391,603.463365316391,605.0820336341858,3,1.7534656524658203,None,,,,,,,,,,,,,,,,,,42,1,2025-02-19_12h27.09.450,comp,2024.2.4,None,2025-02-19 12h27.20.652136 -0500,
138,138,0,critical,hdw,20.0,2.1,upper,200.0,125.0,141.0,141.0,125.0,200.0,1,3.200518846511841,None,,,,,0,0,0,0,0,138,138,23,605.0980458259583,,,,,,,,,,,,,,,,,,,,,,,,,,,,,,,,,,,,,,,,,,,,,,,,,,,,,,,,,,,,,,,,,,,,,,,,,,,,,,,,,200.0,125.0,141.0,141.0,125.0,200.0,2.1,2.11,-229,288,0,289,266,-279,605.0835974216461,605.0836803913116,605.0864882469177,605.0980458259583,605.2393841743469,605.2393841743469,605.2393841743469,605.2393841743469,605.2393841743469,605.2393841743469,605.2393841743469,608.3087697029114,1,3.200518846511841,None,,,,,,,,,,,,,,,,,,42,1,2025-02-19_12h27.09.450,comp,2024.2.4,None,2025-02-19 12h27.20.652136 -0500,
139,139,0,critical,wdh,35.0,1.0,lower,57.0,133.0,70.0,70.0,133.0,57.0,3,6.125227928161621,None,,,,,0,0,0,0,0,139,139,72,608.3253977298737,,,,,,,,,,,,,,,,,,,,,,,,,,,,,,,,,,,,,,,,,,,,,,,,,,,,,,,,,,,,,,,,,,,,,,,,,,,,,,,,,57.0,133.0,70.0,70.0,133.0,57.0,1.0,1.1,-678,288,-480,271,-320,285,608.310310125351,608.3103950023651,608.3137879371643,608.3253977298737,608.4777915477753,608.4777915477753,608.4777915477753,608.4777915477753,608.4777915477753,608.4777915477753,608.4777915477753,614.4631540775299,3,6.125227928161621,None,,,,,,,,,,,,,,,,,,42,1,2025-02-19_12h27.09.450,comp,2024.2.4,None,2025-02-19 12h27.20.652136 -0500,
140,140,0,critical,dwh,35.0,2.1,upper,127.0,127.0,125.0,200.0,200.0,125.0,3,5.480947256088257,None,,,,,0,0,0,0,0,140,140,29,614.4816431999207,,,,,,,,,,,,,,,,,,,,,,,,,,,,,,,,,,,,,,,,,,,,,,,,,,,,,,,,,,,,,,,,,,,,,,,,,,,,,,,,,127.0,127.0,125.0,200.0,200.0,125.0,2.1,2.12,-260,-284,0,-277,258,260,614.4649424552917,614.4650931358337,614.4683752059937,614.4816431999207,614.6275820732117,614.6275820732117,614.6275820732117,614.6275820732117,614.6275820732117,614.6275820732117,614.6275820732117,619.9778234958649,3,5.480947256088257,None,,,,,,,,,,,,,,,,,,42,1,2025-02-19_12h27.09.450,comp,2024.2.4,None,2025-02-19 12h27.20.652136 -0500,
141,141,0,filler_random,None,None,None,None,None,None,None,None,None,None,1,13.148775339126587,None,,,,,0,0,0,0,0,141,141,146,619.9982161521912,,,,,,,,,,,,,,,,,,,,,,,,,,,,,,,,,,,,,,,,,,,,,,,,,,,,,,,,,,,,,,,,,,,,,,,,,,,,,,,,,163.02793933431232,149.58559338740514,141.86888505823734,161.73307006038925,178.64447109518318,125.61718900185296,4.0,4.1,-252,-266,0,20,240,-284,619.9795188903809,619.9796783924103,619.9829127788544,619.9982161521912,620.133781671524,620.133781671524,620.133781671524,620.133781671524,620.133781671524,620.133781671524,620.133781671524,633.1493172645569,1,13.148775339126587,None,,,,,,,,,,,,,,,,,,42,1,2025-02-19_12h27.09.450,comp,2024.2.4,None,2025-02-19 12h27.20.652136 -0500,
142,142,0,critical,dwh,20.0,2.1,lower,78.0,78.0,57.0,133.0,133.0,57.0,3,2.724456548690796,None,,,,,0,0,0,0,0,142,142,30,633.1661674976349,,,,,,,,,,,,,,,,,,,,,,,,,,,,,,,,,,,,,,,,,,,,,,,,,,,,,,,,,,,,,,,,,,,,,,,,,,,,,,,,,78.0,78.0,57.0,133.0,133.0,57.0,2.1,2.11,-202,284,0,256,191,-267,633.1510047912598,633.1510879993439,633.1543493270874,633.1661674976349,633.3190867900848,633.3190867900848,633.3190867900848,633.3190867900848,633.3190867900848,633.3190867900848,633.3190867900848,635.9022521972656,3,2.724456548690796,None,,,,,,,,,,,,,,,,,,42,1,2025-02-19_12h27.09.450,comp,2024.2.4,None,2025-02-19 12h27.20.652136 -0500,
