thisN,thisTrialN,thisRepN,effect,order,distance,config,diag,h_1,w_1,h_2,w_2,h_3,w_3,rect_choice.keys,rect_choice.rt,rect_choice.duration,instructions_loop.thisRepN,instructions_loop.thisTrialN,instructions_loop.thisN,instructions_loop.thisIndex,blocks.thisRepN,blocks.thisTrialN,blocks.thisN,blocks.thisIndex,trials.thisRepN,trials.thisTrialN,trials.thisN,trials.thisIndex,thisRow.t,notes,consent.started,agree_button.started,decline_button.started,consent_img.started,mouse.started,consent.stopped,agree_button.numClicks,agree_button.timesOn,agree_button.timesOff,decline_button.numClicks,decline_button.timesOn,decline_button.timesOff,mouse.x,mouse.y,mouse.leftButton,mouse.midButton,mouse.rightButton,mouse.time,mouse.clicked_name,exp_params.started,exp_params.stopped,welcome.started,welcome_text.started,welcome_text.stopped,welcome.stopped,instructions_1.started,instructions_1_text_1.started,instructions_1_text_2.started,key_resp.started,instructions_1.stopped,instructions_loop.key_resp.keys,instructions_loop.key_resp.rt,instructions_loop.key_resp.duration,instructions_2.started,instructions_2_text_1.started,instructions_2_text_2.started,key_resp_2.started,instructions_2.stopped,instructions_loop.key_resp_2.keys,instructions_loop.key_resp_2.rt,instructions_loop.key_resp_2.duration,instructions_3.started,instructions_3_text_1.started,r1_instr3.started,r2_instr3.started,r3_instr3.started,r1_instr3_label.started,r2_instr3_label.started,r3_instr3_label.started,instructions_3_text_3.started,instructions_3_text_4.started,key_resp_3.started,instructions_3.stopped,instructions_loop.key_resp_3.keys,instructions_loop.key_resp_3.rt,instructions_loop.key_resp_3.duration,instructions_4.started,instructions_4_text_1.started,instructions_4_text_3.started,instructions_4_text_2.started,key_resp_4.started,instructions_4.stopped,instructions_loop.key_resp_4.keys,instructions_loop.key_resp_4.rt,instructions_loop.key_resp_4.duration,instructions_5.started,instructions_5_text_1.started,instructions_5_text_2.started,key_resp_5.started,instructions_5.stopped,instructions_loop.key_resp_5.keys,instructions_loop.key_resp_5.rt,instructions_loop.key_resp_5.duration,start_exp.started,start_exp_text.started,key_resp_6.started,start_exp.stopped,key_resp_6.keys,key_resp_6.rt,key_resp_6.duration,h_1_tmp,w_1_tmp,h_2_tmp,w_2_tmp,h_3_tmp,w_3_tmp,config_tmp,config_tmp_1,r_1_x,r_1_y,r_2_x,r_2_y,r_3_x,r_3_y,pre_trial.started,pre_trial.stopped,choice_trial.started,rect_choice.started,r_1.started,r_2.started,r_3.started,r_1_label.started,r_2_label.started,r_3_label.started,prompt.started,choice_trial.stopped,trials.rect_choice.keys,trials.rect_choice.rt,trials.rect_choice.duration,end_block.started,end_block_text.started,end_block.stopped,end.started,end_text.started,key_resp_7.started,end.stopped,key_resp_7.keys,key_resp_7.rt,key_resp_7.duration,debriefing.started,debrief_form.started,end_debrief.started,debriefing.stopped,end_debrief.keys,end_debrief.rt,end_debrief.duration,participant,computer,date,expName,psychopyVersion,frameRate,expStart,
,,,,,,,,,,,,,,,,,,,,,,,,,,,,,,,0.015231132507324219,0.04136538505554199,0.04136538505554199,0.04136538505554199,0.014657735824584961,46.864474058151245,1,[46.821195125579834],[46.82120895385742],0,,,[-59.0],[-494.0],[1],[0],[0],[46.84867978096008],['agree_button'],,,,,,,,,,,,,,,,,,,,,,,,,,,,,,,,,,,,,,,,,,,,,,,,,,,,,,,,,,,,,,,,,,,,,,,,,,,,,,,,,,,,,,,,,,,,,,,,,,,,,,,,,,,,43,3,2025-02-19_12h57.09.816,comp,2024.2.4,60.02830886720164,2025-02-19 12h57.23.673216 -0500,
,,,,,,,,,,,,,,,,,,,,,,,,,,,,,,,,,,,,,,,,,,,,,,,,,,46.864800453186035,46.86484384536743,,,,,,,,,,,,,,,,,,,,,,,,,,,,,,,,,,,,,,,,,,,,,,,,,,,,,,,,,,,,,,,,,,,,,,,,,,,,,,,,,,,,,,,,,,,,,,,,,,,,,,,,,,43,3,2025-02-19_12h57.09.816,comp,2024.2.4,60.02830886720164,2025-02-19 12h57.23.673216 -0500,
,,,,,,,,,,,,,,,,,,,,,,,,,,,,,,,,,,,,,,,,,,,,,,,,,,,,46.86487293243408,46.878758668899536,48.88082528114319,48.86410403251648,,,,,,,,,,,,,,,,,,,,,,,,,,,,,,,,,,,,,,,,,,,,,,,,,,,,,,,,,,,,,,,,,,,,,,,,,,,,,,,,,,,,,,,,,,,,,,,,,,,,,,43,3,2025-02-19_12h57.09.816,comp,2024.2.4,60.02830886720164,2025-02-19 12h57.23.673216 -0500,
0,0,0,,,,,,,,,,,,,,,0,0,0,0,,,,,,,,,48.88082528114319,,,,,,,,,,,,,,,,,,,,,,,,,,,48.86466670036316,48.88082528114319,48.88082528114319,50.364012479782104,52.14876580238342,space,1.7687790393829346,None,52.148844957351685,52.16420078277588,52.16420078277588,53.66401171684265,55.86557340621948,space,2.1998636722564697,None,55.8656587600708,55.88750720024109,55.88750720024109,55.88750720024109,55.88750720024109,55.88750720024109,55.88750720024109,55.88750720024109,55.88750720024109,55.88750720024109,57.381126403808594,61.29905366897583,space,3.904438018798828,None,61.29915475845337,61.314311265945435,61.314311265945435,61.314311265945435,62.81401252746582,65.26512598991394,space,2.438600540161133,None,65.26522588729858,65.28071880340576,65.28071880340576,66.78077983856201,68.44839453697205,space,1.6500327587127686,None,68.44850873947144,68.46394729614258,68.46394729614258,69.83162212371826,space,1.3580560684204102,None,,,,,,,,,,,,,,,,,,,,,,,,,,,,,,,,,,,,,,,,,,,,,,,43,3,2025-02-19_12h57.09.816,comp,2024.2.4,60.02830886720164,2025-02-19 12h57.23.673216 -0500,
0,0,0,filler_square,None,None,None,None,None,None,None,None,None,None,3,2.0032260417938232,None,,,,,0,0,0,0,0,0,0,170,69.89128279685974,,,,,,,,,,,,,,,,,,,,,,,,,,,,,,,,,,,,,,,,,,,,,,,,,,,,,,,,,,,,,,,,,,,,,,,,,,,,,,,,,,74.82760841706985,79.00870949762395,105.00577581183745,121.66410373526988,161.74790673685408,161.74790673685408,4.0,4.1,-196,-280,0,19,238,-288,69.87735271453857,69.8773992061615,69.87937068939209,69.89128279685974,70.03774499893188,70.03774499893188,70.03774499893188,70.03774499893188,70.03774499893188,70.03774499893188,70.03774499893188,71.89867568016052,3,2.0032260417938232,None,,,,,,,,,,,,,,,,,,43,3,2025-02-19_12h57.09.816,comp,2024.2.4,60.02830886720164,2025-02-19 12h57.23.673216 -0500,
1,1,0,critical,dhw,35.0,1.0,upper,127.0,127.0,200.0,125.0,125.0,200.0,3,4.9866626262664795,None,,,,,0,0,0,0,0,1,1,49,71.91404581069946,,,,,,,,,,,,,,,,,,,,,,,,,,,,,,,,,,,,,,,,,,,,,,,,,,,,,,,,,,,,,,,,,,,,,,,,,,,,,,,,,,127.0,127.0,200.0,125.0,125.0,200.0,1.0,1.2,-222,-20,0,9,258,14,71.89946055412292,71.89950394630432,71.90156078338623,71.91404581069946,72.06430768966675,72.06430768966675,72.06430768966675,72.06430768966675,72.06430768966675,72.06430768966675,72.06430768966675,76.91522455215454,3,4.9866626262664795,None,,,,,,,,,,,,,,,,,,43,3,2025-02-19_12h57.09.816,comp,2024.2.4,60.02830886720164,2025-02-19 12h57.23.673216 -0500,
2,2,0,filler_random,None,None,None,None,None,None,None,None,None,None,3,2.074941873550415,None,,,,,0,0,0,0,0,2,2,146,76.93045258522034,,,,,,,,,,,,,,,,,,,,,,,,,,,,,,,,,,,,,,,,,,,,,,,,,,,,,,,,,,,,,,,,,,,,,,,,,,,,,,,,,,69.65270887819987,74.44364440454726,126.36314883843669,141.20538367728997,197.2674395174858,120.01305404882542,1.0,1.1,-684,282,-480,281,-253,277,76.91610622406006,76.91615915298462,76.91813659667969,76.93045258522034,77.08064603805542,77.08064603805542,77.08064603805542,77.08064603805542,77.08064603805542,77.08064603805542,77.08064603805542,79.01508617401123,3,2.074941873550415,None,,,,,,,,,,,,,,,,,,43,3,2025-02-19_12h57.09.816,comp,2024.2.4,60.02830886720164,2025-02-19 12h57.23.673216 -0500,
3,3,0,catch,None,None,None,None,None,None,None,None,None,None,3,1.816237449645996,None,,,,,0,0,0,0,0,3,3,121,79.03079652786255,,,,,,,,,,,,,,,,,,,,,,,,,,,,,,,,,,,,,,,,,,,,,,,,,,,,,,,,,,,,,,,,,,,,,,,,,,,,,,,,,,107,83,106,84,136,189,3.0,3.1,-180,276,0,5,232,-254,79.01616072654724,79.01620268821716,79.01846408843994,79.03079652786255,79.18062543869019,79.18062543869019,79.18062543869019,79.18062543869019,79.18062543869019,79.18062543869019,79.18062543869019,80.84858274459839,3,1.816237449645996,None,,,,,,,,,,,,,,,,,,43,3,2025-02-19_12h57.09.816,comp,2024.2.4,60.02830886720164,2025-02-19 12h57.23.673216 -0500,
4,4,0,catch,None,None,None,None,None,None,None,None,None,None,3,1.2531580924987793,None,,,,,0,0,0,0,0,4,4,123,80.86401891708374,,,,,,,,,,,,,,,,,,,,,,,,,,,,,,,,,,,,,,,,,,,,,,,,,,,,,,,,,,,,,,,,,,,,,,,,,,,,,,,,,,72,118,119,71,141,184,4.0,4.2,-190,-17,0,-253,224,3,80.84961605072021,80.84965777397156,80.85206770896912,80.86401891708374,81.01398396492004,81.01398396492004,81.01398396492004,81.01398396492004,81.01398396492004,81.01398396492004,81.01398396492004,82.13179445266724,3,1.2531580924987793,None,,,,,,,,,,,,,,,,,,43,3,2025-02-19_12h57.09.816,comp,2024.2.4,60.02830886720164,2025-02-19 12h57.23.673216 -0500,
5,5,0,critical,hwd,20.0,1.0,lower,133.0,57.0,57.0,133.0,78.0,78.0,1,3.226102113723755,None,,,,,0,0,0,0,0,5,5,102,82.1471643447876,,,,,,,,,,,,,,,,,,,,,,,,,,,,,,,,,,,,,,,,,,,,,,,,,,,,,,,,,,,,,,,,,,,,,,,,,,,,,,,,,,133.0,57.0,57.0,133.0,78.0,78.0,1.0,1.2,-191,-3,0,-20,202,-5,82.13257193565369,82.13261151313782,82.13500428199768,82.1471643447876,82.29724335670471,82.29724335670471,82.29724335670471,82.29724335670471,82.29724335670471,82.29724335670471,82.29724335670471,85.38167142868042,1,3.226102113723755,None,,,,,,,,,,,,,,,,,,43,3,2025-02-19_12h57.09.816,comp,2024.2.4,60.02830886720164,2025-02-19 12h57.23.673216 -0500,
6,6,0,catch,None,None,None,None,None,None,None,None,None,None,3,1.5033397674560547,None,,,,,0,0,0,0,0,6,6,129,85.39733743667603,,,,,,,,,,,,,,,,,,,,,,,,,,,,,,,,,,,,,,,,,,,,,,,,,,,,,,,,,,,,,,,,,,,,,,,,,,,,,,,,,,80,110,60,130,140,185,4.0,4.2,-216,17,0,-290,254,9,85.38274621963501,85.38278985023499,85.38532066345215,85.39733743667603,85.54730439186096,85.54730439186096,85.54730439186096,85.54730439186096,85.54730439186096,85.54730439186096,85.54730439186096,86.91515779495239,3,1.5033397674560547,None,,,,,,,,,,,,,,,,,,43,3,2025-02-19_12h57.09.816,comp,2024.2.4,60.02830886720164,2025-02-19 12h57.23.673216 -0500,
7,7,0,critical,dwh,35.0,2.1,lower,70.0,70.0,57.0,133.0,133.0,57.0,3,2.538111448287964,None,,,,,0,0,0,0,0,7,7,28,86.93042874336243,,,,,,,,,,,,,,,,,,,,,,,,,,,,,,,,,,,,,,,,,,,,,,,,,,,,,,,,,,,,,,,,,,,,,,,,,,,,,,,,,,70.0,70.0,57.0,133.0,133.0,57.0,2.1,2.12,-198,-279,0,-270,191,278,86.9159643650055,86.91600561141968,86.91925835609436,86.93042874336243,87.08055377006531,87.08055377006531,87.08055377006531,87.08055377006531,87.08055377006531,87.08055377006531,87.08055377006531,89.48165774345398,3,2.538111448287964,None,,,,,,,,,,,,,,,,,,43,3,2025-02-19_12h57.09.816,comp,2024.2.4,60.02830886720164,2025-02-19 12h57.23.673216 -0500,
8,8,0,critical,wdh,20.0,1.0,lower,57.0,133.0,78.0,78.0,133.0,57.0,1,2.9822962284088135,None,,,,,0,0,0,0,0,8,8,78,89.49696230888367,,,,,,,,,,,,,,,,,,,,,,,,,,,,,,,,,,,,,,,,,,,,,,,,,,,,,,,,,,,,,,,,,,,,,,,,,,,,,,,,,,57.0,133.0,78.0,78.0,133.0,57.0,1.0,1.1,-682,252,-480,284,-316,263,89.48245906829834,89.48249936103821,89.48493123054504,89.49696230888367,89.64728617668152,89.64728617668152,89.64728617668152,89.64728617668152,89.64728617668152,89.64728617668152,89.64728617668152,92.48172616958618,1,2.9822962284088135,None,,,,,,,,,,,,,,,,,,43,3,2025-02-19_12h57.09.816,comp,2024.2.4,60.02830886720164,2025-02-19 12h57.23.673216 -0500,
9,9,0,filler_random,None,None,None,None,None,None,None,None,None,None,1,2.924551486968994,None,,,,,0,0,0,0,0,9,9,142,92.4973783493042,,,,,,,,,,,,,,,,,,,,,,,,,,,,,,,,,,,,,,,,,,,,,,,,,,,,,,,,,,,,,,,,,,,,,,,,,,,,,,,,,,159.02135806845814,191.05138890839498,117.8155393074037,144.7281126645983,87.18738291330124,70.63982872066944,2.2,2.22,-264,259,0,-279,204,-289,92.48265385627747,92.48269414901733,92.48531341552734,92.4973783493042,92.64733362197876,92.64733362197876,92.64733362197876,92.64733362197876,92.64733362197876,92.64733362197876,92.64733362197876,95.43175029754639,1,2.924551486968994,None,,,,,,,,,,,,,,,,,,43,3,2025-02-19_12h57.09.816,comp,2024.2.4,60.02830886720164,2025-02-19 12h57.23.673216 -0500,
10,10,0,critical,dhw,20.0,4.0,upper,141.0,141.0,200.0,125.0,125.0,200.0,3,4.405118465423584,None,,,,,0,0,0,0,0,10,10,59,95.44726395606995,,,,,,,,,,,,,,,,,,,,,,,,,,,,,,,,,,,,,,,,,,,,,,,,,,,,,,,,,,,,,,,,,,,,,,,,,,,,,,,,,,141.0,141.0,200.0,125.0,125.0,200.0,4.0,4.1,-229,-267,0,-6,258,-261,95.43266701698303,95.4327073097229,95.43521642684937,95.44726395606995,95.59734606742859,95.59734606742859,95.59734606742859,95.59734606742859,95.59734606742859,95.59734606742859,95.59734606742859,99.86512088775635,3,4.405118465423584,None,,,,,,,,,,,,,,,,,,43,3,2025-02-19_12h57.09.816,comp,2024.2.4,60.02830886720164,2025-02-19 12h57.23.673216 -0500,
11,11,0,critical,hwd,20.0,2.1,lower,133.0,57.0,57.0,133.0,78.0,78.0,2,2.541334629058838,None,,,,,0,0,0,0,0,11,11,42,99.88038206100464,,,,,,,,,,,,,,,,,,,,,,,,,,,,,,,,,,,,,,,,,,,,,,,,,,,,,,,,,,,,,,,,,,,,,,,,,,,,,,,,,,133.0,57.0,57.0,133.0,78.0,78.0,2.1,2.12,-191,-256,0,-280,202,281,99.86592745780945,99.86597037315369,99.86919069290161,99.88038206100464,100.03059816360474,100.03059816360474,100.03059816360474,100.03059816360474,100.03059816360474,100.03059816360474,100.03059816360474,102.43167042732239,2,2.541334629058838,None,,,,,,,,,,,,,,,,,,43,3,2025-02-19_12h57.09.816,comp,2024.2.4,60.02830886720164,2025-02-19 12h57.23.673216 -0500,
12,12,0,filler_random,None,None,None,None,None,None,None,None,None,None,1,2.150190830230713,None,,,,,0,0,0,0,0,12,12,159,102.4472725391388,,,,,,,,,,,,,,,,,,,,,,,,,,,,,,,,,,,,,,,,,,,,,,,,,,,,,,,,,,,,,,,,,,,,,,,,,,,,,,,,,,143.99816200304858,91.55191496978901,94.56150070789012,116.48230854223354,96.0043520766207,87.34818800810356,3.0,3.1,-200,274,0,-5,198,-284,102.43259263038635,102.43263483047485,102.43497157096863,102.4472725391388,102.59722352027893,102.59722352027893,102.59722352027893,102.59722352027893,102.59722352027893,102.59722352027893,102.59722352027893,104.61487555503845,1,2.150190830230713,None,,,,,,,,,,,,,,,,,,43,3,2025-02-19_12h57.09.816,comp,2024.2.4,60.02830886720164,2025-02-19 12h57.23.673216 -0500,
13,13,0,critical,dwh,20.0,1.0,lower,78.0,78.0,57.0,133.0,133.0,57.0,2,4.158718824386597,None,,,,,0,0,0,0,0,13,13,66,104.63046264648438,,,,,,,,,,,,,,,,,,,,,,,,,,,,,,,,,,,,,,,,,,,,,,,,,,,,,,,,,,,,,,,,,,,,,,,,,,,,,,,,,,78.0,78.0,57.0,133.0,133.0,57.0,1.0,1.3,278,-276,480,-265,671,-267,104.6156554222107,104.61569595336914,104.61816191673279,104.63046264648438,104.78036689758301,104.78036689758301,104.78036689758301,104.78036689758301,104.78036689758301,104.78036689758301,104.78036689758301,108.79800581932068,2,4.158718824386597,None,,,,,,,,,,,,,,,,,,43,3,2025-02-19_12h57.09.816,comp,2024.2.4,60.02830886720164,2025-02-19 12h57.23.673216 -0500,
14,14,0,critical,dwh,35.0,2.1,lower,70.0,70.0,57.0,133.0,133.0,57.0,3,1.5913236141204834,None,,,,,0,0,0,0,0,14,14,4,108.81386303901672,,,,,,,,,,,,,,,,,,,,,,,,,,,,,,,,,,,,,,,,,,,,,,,,,,,,,,,,,,,,,,,,,,,,,,,,,,,,,,,,,,70.0,70.0,57.0,133.0,133.0,57.0,2.1,2.12,-198,-268,0,-252,191,272,108.79884338378906,108.7988862991333,108.80134558677673,108.81386303901672,108.96371912956238,108.96371912956238,108.96371912956238,108.96371912956238,108.96371912956238,108.96371912956238,108.96371912956238,110.41477823257446,3,1.5913236141204834,None,,,,,,,,,,,,,,,,,,43,3,2025-02-19_12h57.09.816,comp,2024.2.4,60.02830886720164,2025-02-19 12h57.23.673216 -0500,
15,15,0,critical,wdh,20.0,2.1,lower,57.0,133.0,78.0,78.0,133.0,57.0,1,1.374589204788208,None,,,,,0,0,0,0,0,15,15,10,110.43060564994812,,,,,,,,,,,,,,,,,,,,,,,,,,,,,,,,,,,,,,,,,,,,,,,,,,,,,,,,,,,,,,,,,,,,,,,,,,,,,,,,,,57.0,133.0,78.0,78.0,133.0,57.0,2.1,2.12,-202,-276,0,-265,164,276,110.41560173034668,110.41564416885376,110.41805720329285,110.43060564994812,110.5802493095398,110.5802493095398,110.5802493095398,110.5802493095398,110.5802493095398,110.5802493095398,110.5802493095398,111.814688205719,1,1.374589204788208,None,,,,,,,,,,,,,,,,,,43,3,2025-02-19_12h57.09.816,comp,2024.2.4,60.02830886720164,2025-02-19 12h57.23.673216 -0500,
16,16,0,critical,dwh,20.0,3.0,upper,141.0,141.0,125.0,200.0,200.0,125.0,2,2.0217716693878174,None,,,,,0,0,0,0,0,16,16,69,111.83048391342163,,,,,,,,,,,,,,,,,,,,,,,,,,,,,,,,,,,,,,,,,,,,,,,,,,,,,,,,,,,,,,,,,,,,,,,,,,,,,,,,,,141.0,141.0,125.0,200.0,200.0,125.0,3.0,3.2,-266,-251,0,11,258,265,111.81550598144531,111.81554818153381,111.81794333457947,111.83048391342163,111.98070979118347,111.98070979118347,111.98070979118347,111.98070979118347,111.98070979118347,111.98070979118347,111.98070979118347,113.8654043674469,2,2.0217716693878174,None,,,,,,,,,,,,,,,,,,43,3,2025-02-19_12h57.09.816,comp,2024.2.4,60.02830886720164,2025-02-19 12h57.23.673216 -0500,
17,17,0,critical,hwd,20.0,4.0,upper,200.0,125.0,125.0,200.0,141.0,141.0,1,1.9503397941589355,None,,,,,0,0,0,0,0,17,17,107,113.88026976585388,,,,,,,,,,,,,,,,,,,,,,,,,,,,,,,,,,,,,,,,,,,,,,,,,,,,,,,,,,,,,,,,,,,,,,,,,,,,,,,,,,200.0,125.0,125.0,200.0,141.0,141.0,4.0,4.1,-258,-280,0,-15,266,-270,113.86620163917542,113.8662428855896,113.86826777458191,113.88026976585388,114.03054332733154,114.03054332733154,114.03054332733154,114.03054332733154,114.03054332733154,114.03054332733154,114.03054332733154,115.84817361831665,1,1.9503397941589355,None,,,,,,,,,,,,,,,,,,43,3,2025-02-19_12h57.09.816,comp,2024.2.4,60.02830886720164,2025-02-19 12h57.23.673216 -0500,
18,18,0,critical,hdw,35.0,2.1,lower,133.0,57.0,70.0,70.0,57.0,133.0,3,1.999678373336792,None,,,,,0,0,0,0,0,18,18,44,115.86347913742065,,,,,,,,,,,,,,,,,,,,,,,,,,,,,,,,,,,,,,,,,,,,,,,,,,,,,,,,,,,,,,,,,,,,,,,,,,,,,,,,,,133.0,57.0,70.0,70.0,57.0,133.0,2.1,2.12,-160,-256,0,-276,198,276,115.84895539283752,115.84899640083313,115.85222578048706,115.86347913742065,116.01364994049072,116.01364994049072,116.01364994049072,116.01364994049072,116.01364994049072,116.01364994049072,116.01364994049072,117.88131356239319,3,1.999678373336792,None,,,,,,,,,,,,,,,,,,43,3,2025-02-19_12h57.09.816,comp,2024.2.4,60.02830886720164,2025-02-19 12h57.23.673216 -0500,
19,19,0,critical,hwd,35.0,3.0,lower,133.0,57.0,57.0,133.0,70.0,70.0,2,1.835651159286499,None,,,,,0,0,0,0,0,19,19,98,117.89675879478455,,,,,,,,,,,,,,,,,,,,,,,,,,,,,,,,,,,,,,,,,,,,,,,,,,,,,,,,,,,,,,,,,,,,,,,,,,,,,,,,,,133.0,57.0,57.0,133.0,70.0,70.0,3.0,3.2,-191,-255,0,-12,198,266,117.88208627700806,117.88212752342224,117.8843891620636,117.89675879478455,118.04688382148743,118.04688382148743,118.04688382148743,118.04688382148743,118.04688382148743,118.04688382148743,118.04688382148743,119.74788522720337,2,1.835651159286499,None,,,,,,,,,,,,,,,,,,43,3,2025-02-19_12h57.09.816,comp,2024.2.4,60.02830886720164,2025-02-19 12h57.23.673216 -0500,
20,20,0,critical,hwd,20.0,3.0,lower,133.0,57.0,57.0,133.0,78.0,78.0,1,1.4337108135223389,None,,,,,0,0,0,0,0,20,20,104,119.76345038414001,,,,,,,,,,,,,,,,,,,,,,,,,,,,,,,,,,,,,,,,,,,,,,,,,,,,,,,,,,,,,,,,,,,,,,,,,,,,,,,,,,133.0,57.0,57.0,133.0,78.0,78.0,3.0,3.1,-191,256,0,-19,202,-290,119.74868750572205,119.74872779846191,119.75124096870422,119.76345038414001,119.91361951828003,119.91361951828003,119.91361951828003,119.91361951828003,119.91361951828003,119.91361951828003,119.91361951828003,121.198322057724,1,1.4337108135223389,None,,,,,,,,,,,,,,,,,,43,3,2025-02-19_12h57.09.816,comp,2024.2.4,60.02830886720164,2025-02-19 12h57.23.673216 -0500,
21,21,0,filler_random,None,None,None,None,None,None,None,None,None,None,3,3.4492759704589844,None,,,,,0,0,0,0,0,21,21,137,121.21379375457764,,,,,,,,,,,,,,,,,,,,,,,,,,,,,,,,,,,,,,,,,,,,,,,,,,,,,,,,,,,,,,,,,,,,,,,,,,,,,,,,,,109.8582561087577,174.95777421019267,164.11109721676095,192.22089664343142,167.9959054530066,189.40896599430758,3.0,3.2,-280,-255,0,4,287,272,121.19919896125793,121.19924068450928,121.20148086547852,121.21379375457764,121.36401271820068,121.36401271820068,121.36401271820068,121.36401271820068,121.36401271820068,121.36401271820068,121.36401271820068,124.66528463363647,3,3.4492759704589844,None,,,,,,,,,,,,,,,,,,43,3,2025-02-19_12h57.09.816,comp,2024.2.4,60.02830886720164,2025-02-19 12h57.23.673216 -0500,
22,22,0,filler_square,None,None,None,None,None,None,None,None,None,None,2,1.5822968482971191,None,,,,,0,0,0,0,0,22,22,203,124.68045043945312,,,,,,,,,,,,,,,,,,,,,,,,,,,,,,,,,,,,,,,,,,,,,,,,,,,,,,,,,,,,,,,,,,,,,,,,,,,,,,,,,,79.10625000715758,67.60931686005176,81.87640636936746,81.87640636936746,75.7933422725813,64.6523016379255,2.2,2.22,-171,257,0,-288,169,-271,124.66627979278564,124.66632413864136,124.66858577728271,124.68045043945312,124.83019661903381,124.83019661903381,124.83019661903381,124.83019661903381,124.83019661903381,124.83019661903381,124.83019661903381,126.26506543159485,2,1.5822968482971191,None,,,,,,,,,,,,,,,,,,43,3,2025-02-19_12h57.09.816,comp,2024.2.4,60.02830886720164,2025-02-19 12h57.23.673216 -0500,
23,23,0,critical,hdw,20.0,2.1,lower,133.0,57.0,78.0,78.0,57.0,133.0,3,1.7004759311676025,None,,,,,0,0,0,0,0,23,23,46,126.28034043312073,,,,,,,,,,,,,,,,,,,,,,,,,,,,,,,,,,,,,,,,,,,,,,,,,,,,,,,,,,,,,,,,,,,,,,,,,,,,,,,,,,133.0,57.0,78.0,78.0,57.0,133.0,2.1,2.11,-164,262,0,280,202,-258,126.2658760547638,126.2659170627594,126.26798629760742,126.28034043312073,126.43021368980408,126.43021368980408,126.43021368980408,126.43021368980408,126.43021368980408,126.43021368980408,126.43021368980408,127.9980092048645,3,1.7004759311676025,None,,,,,,,,,,,,,,,,,,43,3,2025-02-19_12h57.09.816,comp,2024.2.4,60.02830886720164,2025-02-19 12h57.23.673216 -0500,
24,24,0,critical,hdw,35.0,2.1,lower,133.0,57.0,70.0,70.0,57.0,133.0,3,0.9917683601379395,None,,,,,0,0,0,0,0,24,24,20,128.01348757743835,,,,,,,,,,,,,,,,,,,,,,,,,,,,,,,,,,,,,,,,,,,,,,,,,,,,,,,,,,,,,,,,,,,,,,,,,,,,,,,,,,133.0,57.0,70.0,70.0,57.0,133.0,2.1,2.11,-160,269,0,257,198,-284,127.9988181591034,127.9988603591919,128.00085306167603,128.01348757743835,128.1636700630188,128.1636700630188,128.1636700630188,128.1636700630188,128.1636700630188,128.1636700630188,128.1636700630188,129.01465034484863,3,0.9917683601379395,None,,,,,,,,,,,,,,,,,,43,3,2025-02-19_12h57.09.816,comp,2024.2.4,60.02830886720164,2025-02-19 12h57.23.673216 -0500,
25,25,0,critical,dhw,20.0,1.0,upper,141.0,141.0,200.0,125.0,125.0,200.0,3,2.638078451156616,None,,,,,0,0,0,0,0,25,25,55,129.03031754493713,,,,,,,,,,,,,,,,,,,,,,,,,,,,,,,,,,,,,,,,,,,,,,,,,,,,,,,,,,,,,,,,,,,,,,,,,,,,,,,,,,141.0,141.0,200.0,125.0,125.0,200.0,1.0,1.2,-229,0,0,3,258,9,129.0154197216034,129.01546025276184,129.0177903175354,129.03031754493713,129.1803572177887,129.1803572177887,129.1803572177887,129.1803572177887,129.1803572177887,129.1803572177887,129.1803572177887,131.68169450759888,3,2.638078451156616,None,,,,,,,,,,,,,,,,,,43,3,2025-02-19_12h57.09.816,comp,2024.2.4,60.02830886720164,2025-02-19 12h57.23.673216 -0500,
26,26,0,filler_square,None,None,None,None,None,None,None,None,None,None,3,1.9880833625793457,None,,,,,0,0,0,0,0,26,26,198,131.6967990398407,,,,,,,,,,,,,,,,,,,,,,,,,,,,,,,,,,,,,,,,,,,,,,,,,,,,,,,,,,,,,,,,,,,,,,,,,,,,,,,,,,133.15311242973536,88.2724963322717,151.61893877502655,174.93928278402447,180.63683267591324,180.63683267591324,4.0,4.2,-228,0,0,-261,274,6,131.68265533447266,131.6826992034912,131.68508982658386,131.6967990398407,131.84710001945496,131.84710001945496,131.84710001945496,131.84710001945496,131.84710001945496,131.84710001945496,131.84710001945496,133.698415517807,3,1.9880833625793457,None,,,,,,,,,,,,,,,,,,43,3,2025-02-19_12h57.09.816,comp,2024.2.4,60.02830886720164,2025-02-19 12h57.23.673216 -0500,
27,27,0,critical,dwh,35.0,3.0,lower,70.0,70.0,57.0,133.0,133.0,57.0,2,2.333155870437622,None,,,,,0,0,0,0,0,27,27,62,133.71349453926086,,,,,,,,,,,,,,,,,,,,,,,,,,,,,,,,,,,,,,,,,,,,,,,,,,,,,,,,,,,,,,,,,,,,,,,,,,,,,,,,,,70.0,70.0,57.0,133.0,133.0,57.0,3.0,3.1,-198,270,0,-5,191,-271,133.69923996925354,133.69928336143494,133.70132637023926,133.71349453926086,133.86354660987854,133.86354660987854,133.86354660987854,133.86354660987854,133.86354660987854,133.86354660987854,133.86354660987854,136.04826045036316,2,2.333155870437622,None,,,,,,,,,,,,,,,,,,43,3,2025-02-19_12h57.09.816,comp,2024.2.4,60.02830886720164,2025-02-19 12h57.23.673216 -0500,
28,28,0,critical,wdh,20.0,2.1,lower,57.0,133.0,78.0,78.0,133.0,57.0,3,1.1831212043762207,None,,,,,0,0,0,0,0,28,28,34,136.06357669830322,,,,,,,,,,,,,,,,,,,,,,,,,,,,,,,,,,,,,,,,,,,,,,,,,,,,,,,,,,,,,,,,,,,,,,,,,,,,,,,,,,57.0,133.0,78.0,78.0,133.0,57.0,2.1,2.11,-202,259,0,278,164,-273,136.04903984069824,136.04908061027527,136.05158376693726,136.06357669830322,136.21354699134827,136.21354699134827,136.21354699134827,136.21354699134827,136.21354699134827,136.21354699134827,136.21354699134827,137.26457715034485,3,1.1831212043762207,None,,,,,,,,,,,,,,,,,,43,3,2025-02-19_12h57.09.816,comp,2024.2.4,60.02830886720164,2025-02-19 12h57.23.673216 -0500,
29,29,0,critical,wdh,35.0,3.0,upper,125.0,200.0,127.0,127.0,200.0,125.0,3,1.8522861003875732,None,,,,,0,0,0,0,0,29,29,75,137.28001427650452,,,,,,,,,,,,,,,,,,,,,,,,,,,,,,,,,,,,,,,,,,,,,,,,,,,,,,,,,,,,,,,,,,,,,,,,,,,,,,,,,,125.0,200.0,127.0,127.0,200.0,125.0,3.0,3.1,-260,251,0,9,222,-257,137.2653524875641,137.26539492607117,137.26777815818787,137.28001427650452,137.43042755126953,137.43042755126953,137.43042755126953,137.43042755126953,137.43042755126953,137.43042755126953,137.43042755126953,139.14810347557068,3,1.8522861003875732,None,,,,,,,,,,,,,,,,,,43,3,2025-02-19_12h57.09.816,comp,2024.2.4,60.02830886720164,2025-02-19 12h57.23.673216 -0500,
30,30,0,critical,dhw,20.0,2.1,upper,141.0,141.0,200.0,125.0,125.0,200.0,3,1.3687903881072998,None,,,,,0,0,0,0,0,30,30,3,139.16335558891296,,,,,,,,,,,,,,,,,,,,,,,,,,,,,,,,,,,,,,,,,,,,,,,,,,,,,,,,,,,,,,,,,,,,,,,,,,,,,,,,,,141.0,141.0,200.0,125.0,125.0,200.0,2.1,2.11,-229,282,0,284,258,-288,139.1489052772522,139.14894723892212,139.1509816646576,139.16335558891296,139.31365823745728,139.31365823745728,139.31365823745728,139.31365823745728,139.31365823745728,139.31365823745728,139.31365823745728,140.54802250862122,3,1.3687903881072998,None,,,,,,,,,,,,,,,,,,43,3,2025-02-19_12h57.09.816,comp,2024.2.4,60.02830886720164,2025-02-19 12h57.23.673216 -0500,
31,31,0,critical,hwd,20.0,1.0,upper,200.0,125.0,125.0,200.0,141.0,141.0,2,2.0008561611175537,None,,,,,0,0,0,0,0,31,31,103,140.56335616111755,,,,,,,,,,,,,,,,,,,,,,,,,,,,,,,,,,,,,,,,,,,,,,,,,,,,,,,,,,,,,,,,,,,,,,,,,,,,,,,,,,200.0,125.0,125.0,200.0,141.0,141.0,1.0,1.1,-738,262,-480,283,-214,254,140.5489580631256,140.54899978637695,140.55150270462036,140.56335616111755,140.71417331695557,140.71417331695557,140.71417331695557,140.71417331695557,140.71417331695557,140.71417331695557,140.71417331695557,142.58149075508118,2,2.0008561611175537,None,,,,,,,,,,,,,,,,,,43,3,2025-02-19_12h57.09.816,comp,2024.2.4,60.02830886720164,2025-02-19 12h57.23.673216 -0500,
32,32,0,filler_random,None,None,None,None,None,None,None,None,None,None,3,5.255408048629761,None,,,,,0,0,0,0,0,32,32,133,142.59662508964539,,,,,,,,,,,,,,,,,,,,,,,,,,,,,,,,,,,,,,,,,,,,,,,,,,,,,,,,,,,,,,,,,,,,,,,,,,,,,,,,,,150.1815486608042,117.57769010356836,166.97497442452342,73.73952912327108,128.95671548165467,146.89096215130385,4.0,4.2,-192,2,0,-270,206,16,142.58233642578125,142.58237600326538,142.58464360237122,142.59662508964539,142.74690675735474,142.74690675735474,142.74690675735474,142.74690675735474,142.74690675735474,142.74690675735474,142.74690675735474,147.86477732658386,3,5.255408048629761,None,,,,,,,,,,,,,,,,,,43,3,2025-02-19_12h57.09.816,comp,2024.2.4,60.02830886720164,2025-02-19 12h57.23.673216 -0500,
33,33,0,critical,hdw,35.0,2.1,upper,200.0,125.0,127.0,127.0,125.0,200.0,1,1.3173224925994873,None,,,,,0,0,0,0,0,33,33,45,147.88002157211304,,,,,,,,,,,,,,,,,,,,,,,,,,,,,,,,,,,,,,,,,,,,,,,,,,,,,,,,,,,,,,,,,,,,,,,,,,,,,,,,,,200.0,125.0,127.0,127.0,125.0,200.0,2.1,2.12,-222,-252,0,-281,260,267,147.86556434631348,147.86560463905334,147.86812591552734,147.88002157211304,148.03031730651855,148.03031730651855,148.03031730651855,148.03031730651855,148.03031730651855,148.03031730651855,148.03031730651855,149.2147033214569,1,1.3173224925994873,None,,,,,,,,,,,,,,,,,,43,3,2025-02-19_12h57.09.816,comp,2024.2.4,60.02830886720164,2025-02-19 12h57.23.673216 -0500,
34,34,0,critical,wdh,35.0,4.0,upper,125.0,200.0,127.0,127.0,200.0,125.0,1,1.5259525775909424,None,,,,,0,0,0,0,0,34,34,77,149.2468888759613,,,,,,,,,,,,,,,,,,,,,,,,,,,,,,,,,,,,,,,,,,,,,,,,,,,,,,,,,,,,,,,,,,,,,,,,,,,,,,,,,,125.0,200.0,127.0,127.0,200.0,125.0,4.0,4.2,-260,18,0,-257,222,16,149.21551752090454,149.21555852890015,149.21748971939087,149.2468888759613,149.38025951385498,149.38025951385498,149.38025951385498,149.38025951385498,149.38025951385498,149.38025951385498,149.38025951385498,150.78132724761963,1,1.5259525775909424,None,,,,,,,,,,,,,,,,,,43,3,2025-02-19_12h57.09.816,comp,2024.2.4,60.02830886720164,2025-02-19 12h57.23.673216 -0500,
35,35,0,critical,dwh,20.0,2.1,upper,141.0,141.0,125.0,200.0,200.0,125.0,2,2.3352150917053223,None,,,,,0,0,0,0,0,35,35,31,150.7968351840973,,,,,,,,,,,,,,,,,,,,,,,,,,,,,,,,,,,,,,,,,,,,,,,,,,,,,,,,,,,,,,,,,,,,,,,,,,,,,,,,,,141.0,141.0,125.0,200.0,200.0,125.0,2.1,2.11,-266,250,0,277,258,-281,150.7821638584137,150.78220748901367,150.78451943397522,150.7968351840973,150.94705080986023,150.94705080986023,150.94705080986023,150.94705080986023,150.94705080986023,150.94705080986023,150.94705080986023,153.14795184135437,2,2.3352150917053223,None,,,,,,,,,,,,,,,,,,43,3,2025-02-19_12h57.09.816,comp,2024.2.4,60.02830886720164,2025-02-19 12h57.23.673216 -0500,
36,36,0,critical,hdw,20.0,3.0,upper,200.0,125.0,141.0,141.0,125.0,200.0,1,2.3847813606262207,None,,,,,0,0,0,0,0,36,36,117,153.1633105278015,,,,,,,,,,,,,,,,,,,,,,,,,,,,,,,,,,,,,,,,,,,,,,,,,,,,,,,,,,,,,,,,,,,,,,,,,,,,,,,,,,200.0,125.0,141.0,141.0,125.0,200.0,3.0,3.2,-229,-254,0,4,266,258,153.14877700805664,153.1488173007965,153.15132093429565,153.1633105278015,153.31365203857422,153.31365203857422,153.31365203857422,153.31365203857422,153.31365203857422,153.31365203857422,153.31365203857422,155.564768075943,1,2.3847813606262207,None,,,,,,,,,,,,,,,,,,43,3,2025-02-19_12h57.09.816,comp,2024.2.4,60.02830886720164,2025-02-19 12h57.23.673216 -0500,
37,37,0,filler_random,None,None,None,None,None,None,None,None,None,None,3,1.7839345932006836,None,,,,,0,0,0,0,0,37,37,139,155.5800745487213,,,,,,,,,,,,,,,,,,,,,,,,,,,,,,,,,,,,,,,,,,,,,,,,,,,,,,,,,,,,,,,,,,,,,,,,,,,,,,,,,,74.78373704974658,80.61215634843455,119.40959710657128,140.6167989722063,190.38760190570133,104.07992447870186,2.2,2.22,-207,261,0,-282,218,-255,155.56570291519165,155.5657458305359,155.56819987297058,155.5800745487213,155.73038172721863,155.73038172721863,155.73038172721863,155.73038172721863,155.73038172721863,155.73038172721863,155.73038172721863,157.38104701042175,3,1.7839345932006836,None,,,,,,,,,,,,,,,,,,43,3,2025-02-19_12h57.09.816,comp,2024.2.4,60.02830886720164,2025-02-19 12h57.23.673216 -0500,
38,38,0,critical,dwh,35.0,2.1,upper,127.0,127.0,125.0,200.0,200.0,125.0,3,1.7843523025512695,None,,,,,0,0,0,0,0,38,38,29,157.39655900001526,,,,,,,,,,,,,,,,,,,,,,,,,,,,,,,,,,,,,,,,,,,,,,,,,,,,,,,,,,,,,,,,,,,,,,,,,,,,,,,,,,127.0,127.0,125.0,200.0,200.0,125.0,2.1,2.12,-260,-272,0,-272,258,271,157.38184523582458,157.3818850517273,157.38504266738892,157.39655900001526,157.5469000339508,157.5469000339508,157.5469000339508,157.5469000339508,157.5469000339508,157.5469000339508,157.5469000339508,159.19808959960938,3,1.7843523025512695,None,,,,,,,,,,,,,,,,,,43,3,2025-02-19_12h57.09.816,comp,2024.2.4,60.02830886720164,2025-02-19 12h57.23.673216 -0500,
39,39,0,critical,wdh,20.0,4.0,upper,125.0,200.0,141.0,141.0,200.0,125.0,3,3.343724489212036,None,,,,,0,0,0,0,0,39,39,83,159.21321153640747,,,,,,,,,,,,,,,,,,,,,,,,,,,,,,,,,,,,,,,,,,,,,,,,,,,,,,,,,,,,,,,,,,,,,,,,,,,,,,,,,,125.0,200.0,141.0,141.0,200.0,125.0,4.0,4.2,-266,0,0,-282,229,19,159.19887471199036,159.19891691207886,159.2011363506317,159.21321153640747,159.36352944374084,159.36352944374084,159.36352944374084,159.36352944374084,159.36352944374084,159.36352944374084,159.36352944374084,162.56476092338562,3,3.343724489212036,None,,,,,,,,,,,,,,,,,,43,3,2025-02-19_12h57.09.816,comp,2024.2.4,60.02830886720164,2025-02-19 12h57.23.673216 -0500,
40,40,0,critical,whd,35.0,2.1,lower,57.0,133.0,133.0,57.0,70.0,70.0,2,1.1357879638671875,None,,,,,0,0,0,0,0,40,40,12,162.58022499084473,,,,,,,,,,,,,,,,,,,,,,,,,,,,,,,,,,,,,,,,,,,,,,,,,,,,,,,,,,,,,,,,,,,,,,,,,,,,,,,,,,57.0,133.0,133.0,57.0,70.0,70.0,2.1,2.11,-191,256,0,253,160,-277,162.56557154655457,162.56561303138733,162.56797456741333,162.58022499084473,162.72987699508667,162.72987699508667,162.72987699508667,162.72987699508667,162.72987699508667,162.72987699508667,162.72987699508667,163.7309684753418,2,1.1357879638671875,None,,,,,,,,,,,,,,,,,,43,3,2025-02-19_12h57.09.816,comp,2024.2.4,60.02830886720164,2025-02-19 12h57.23.673216 -0500,
41,41,0,critical,whd,20.0,2.1,upper,125.0,200.0,200.0,125.0,141.0,141.0,2,1.7854537963867188,None,,,,,0,0,0,0,0,41,41,39,163.74650287628174,,,,,,,,,,,,,,,,,,,,,,,,,,,,,,,,,,,,,,,,,,,,,,,,,,,,,,,,,,,,,,,,,,,,,,,,,,,,,,,,,,125.0,200.0,200.0,125.0,141.0,141.0,2.1,2.11,-258,264,0,288,229,-266,163.73177123069763,163.73181056976318,163.73434853553772,163.74650287628174,163.8968608379364,163.8968608379364,163.8968608379364,163.8968608379364,163.8968608379364,163.8968608379364,163.8968608379364,165.54794478416443,2,1.7854537963867188,None,,,,,,,,,,,,,,,,,,43,3,2025-02-19_12h57.09.816,comp,2024.2.4,60.02830886720164,2025-02-19 12h57.23.673216 -0500,
42,42,0,critical,dwh,20.0,2.1,lower,78.0,78.0,57.0,133.0,133.0,57.0,3,1.1156139373779297,None,,,,,0,0,0,0,0,42,42,6,165.56317925453186,,,,,,,,,,,,,,,,,,,,,,,,,,,,,,,,,,,,,,,,,,,,,,,,,,,,,,,,,,,,,,,,,,,,,,,,,,,,,,,,,,78.0,78.0,57.0,133.0,133.0,57.0,2.1,2.12,-202,-279,0,-280,191,265,165.54875349998474,165.5487937927246,165.55125331878662,165.56317925453186,165.71329927444458,165.71329927444458,165.71329927444458,165.71329927444458,165.71329927444458,165.71329927444458,165.71329927444458,166.6811718940735,3,1.1156139373779297,None,,,,,,,,,,,,,,,,,,43,3,2025-02-19_12h57.09.816,comp,2024.2.4,60.02830886720164,2025-02-19 12h57.23.673216 -0500,
43,43,0,filler_random,None,None,None,None,None,None,None,None,None,None,2,1.333097219467163,None,,,,,0,0,0,0,0,43,43,150,166.69698905944824,,,,,,,,,,,,,,,,,,,,,,,,,,,,,,,,,,,,,,,,,,,,,,,,,,,,,,,,,,,,,,,,,,,,,,,,,,,,,,,,,,69.55724146037966,122.47214441414411,113.57609861003931,121.31360742592683,98.22511995881138,97.05967061366724,2.2,2.22,-218,256,0,-260,205,-263,166.6820604801178,166.68210196495056,166.68411779403687,166.69698905944824,166.84670281410217,166.84670281410217,166.84670281410217,166.84670281410217,166.84670281410217,166.84670281410217,166.84670281410217,168.03136444091797,2,1.333097219467163,None,,,,,,,,,,,,,,,,,,43,3,2025-02-19_12h57.09.816,comp,2024.2.4,60.02830886720164,2025-02-19 12h57.23.673216 -0500,
44,44,0,filler_square,None,None,None,None,None,None,None,None,None,None,3,1.805084228515625,None,,,,,0,0,0,0,0,44,44,179,168.04677844047546,,,,,,,,,,,,,,,,,,,,,,,,,,,,,,,,,,,,,,,,,,,,,,,,,,,,,,,,,,,,,,,,,,,,,,,,,,,,,,,,,,137.10418392769904,148.49621394033414,97.12299798989167,114.32227342747318,157.13549698222522,157.13549698222522,2.2,2.21,-227,-276,0,273,232,254,168.03232789039612,168.03237009048462,168.03439021110535,168.04677844047546,168.1967704296112,168.1967704296112,168.1967704296112,168.1967704296112,168.1967704296112,168.1967704296112,168.1967704296112,169.86467337608337,3,1.805084228515625,None,,,,,,,,,,,,,,,,,,43,3,2025-02-19_12h57.09.816,comp,2024.2.4,60.02830886720164,2025-02-19 12h57.23.673216 -0500,
45,45,0,critical,hdw,35.0,2.1,upper,200.0,125.0,127.0,127.0,125.0,200.0,3,1.220093011856079,None,,,,,0,0,0,0,0,45,45,21,169.8798863887787,,,,,,,,,,,,,,,,,,,,,,,,,,,,,,,,,,,,,,,,,,,,,,,,,,,,,,,,,,,,,,,,,,,,,,,,,,,,,,,,,,200.0,125.0,127.0,127.0,125.0,200.0,2.1,2.12,-222,-279,0,-279,260,283,169.86548256874084,169.86552333831787,169.86786437034607,169.8798863887787,170.0300953388214,170.0300953388214,170.0300953388214,170.0300953388214,170.0300953388214,170.0300953388214,170.0300953388214,171.11476707458496,3,1.220093011856079,None,,,,,,,,,,,,,,,,,,43,3,2025-02-19_12h57.09.816,comp,2024.2.4,60.02830886720164,2025-02-19 12h57.23.673216 -0500,
46,46,0,critical,whd,20.0,2.1,lower,57.0,133.0,133.0,57.0,78.0,78.0,1,1.1219098567962646,None,,,,,0,0,0,0,0,46,46,38,171.12996220588684,,,,,,,,,,,,,,,,,,,,,,,,,,,,,,,,,,,,,,,,,,,,,,,,,,,,,,,,,,,,,,,,,,,,,,,,,,,,,,,,,,57.0,133.0,133.0,57.0,78.0,78.0,2.1,2.11,-191,284,0,278,164,-280,171.11557507514954,171.1156144142151,171.11797499656677,171.12996220588684,171.27991437911987,171.27991437911987,171.27991437911987,171.27991437911987,171.27991437911987,171.27991437911987,171.27991437911987,172.26433849334717,1,1.1219098567962646,None,,,,,,,,,,,,,,,,,,43,3,2025-02-19_12h57.09.816,comp,2024.2.4,60.02830886720164,2025-02-19 12h57.23.673216 -0500,
47,47,0,critical,hwd,35.0,4.0,lower,133.0,57.0,57.0,133.0,70.0,70.0,1,1.7249345779418945,None,,,,,0,0,0,0,0,47,47,100,172.27977442741394,,,,,,,,,,,,,,,,,,,,,,,,,,,,,,,,,,,,,,,,,,,,,,,,,,,,,,,,,,,,,,,,,,,,,,,,,,,,,,,,,,133.0,57.0,57.0,133.0,70.0,70.0,4.0,4.1,-191,-265,0,-8,198,-272,172.26508116722107,172.26511931419373,172.2672839164734,172.27977442741394,172.4299578666687,172.4299578666687,172.4299578666687,172.4299578666687,172.4299578666687,172.4299578666687,172.4299578666687,174.0142993927002,1,1.7249345779418945,None,,,,,,,,,,,,,,,,,,43,3,2025-02-19_12h57.09.816,comp,2024.2.4,60.02830886720164,2025-02-19 12h57.23.673216 -0500,
48,48,0,catch,None,None,None,None,None,None,None,None,None,None,3,1.7338533401489258,None,,,,,0,0,0,0,0,48,48,125,174.03002214431763,,,,,,,,,,,,,,,,,,,,,,,,,,,,,,,,,,,,,,,,,,,,,,,,,,,,,,,,,,,,,,,,,,,,,,,,,,,,,,,,,,125,65,119,71,199,126,3.0,3.2,-164,-276,0,-15,194,258,174.01538181304932,174.01542401313782,174.01772737503052,174.03002214431763,174.17991733551025,174.17991733551025,174.17991733551025,174.17991733551025,174.17991733551025,174.17991733551025,174.17991733551025,175.78101563453674,3,1.7338533401489258,None,,,,,,,,,,,,,,,,,,43,3,2025-02-19_12h57.09.816,comp,2024.2.4,60.02830886720164,2025-02-19 12h57.23.673216 -0500,
49,49,0,critical,dhw,35.0,2.1,lower,70.0,70.0,133.0,57.0,57.0,133.0,3,2.512310743331909,None,,,,,0,0,0,0,0,49,49,24,175.79638028144836,,,,,,,,,,,,,,,,,,,,,,,,,,,,,,,,,,,,,,,,,,,,,,,,,,,,,,,,,,,,,,,,,,,,,,,,,,,,,,,,,,70.0,70.0,133.0,57.0,57.0,133.0,2.1,2.11,-160,262,0,266,191,-278,175.78182077407837,175.78186058998108,175.78376293182373,175.79638028144836,175.9465205669403,175.9465205669403,175.9465205669403,175.9465205669403,175.9465205669403,175.9465205669403,175.9465205669403,178.31434392929077,3,2.512310743331909,None,,,,,,,,,,,,,,,,,,43,3,2025-02-19_12h57.09.816,comp,2024.2.4,60.02830886720164,2025-02-19 12h57.23.673216 -0500,
50,50,0,critical,dhw,35.0,3.0,upper,127.0,127.0,200.0,125.0,125.0,200.0,2,1.4833385944366455,None,,,,,0,0,0,0,0,50,50,51,178.330304145813,,,,,,,,,,,,,,,,,,,,,,,,,,,,,,,,,,,,,,,,,,,,,,,,,,,,,,,,,,,,,,,,,,,,,,,,,,,,,,,,,,127.0,127.0,200.0,125.0,125.0,200.0,3.0,3.2,-222,-258,0,9,258,277,178.3150851726532,178.31512475013733,178.3170416355133,178.330304145813,178.48002529144287,178.48002529144287,178.48002529144287,178.48002529144287,178.48002529144287,178.48002529144287,178.48002529144287,179.83123636245728,2,1.4833385944366455,None,,,,,,,,,,,,,,,,,,43,3,2025-02-19_12h57.09.816,comp,2024.2.4,60.02830886720164,2025-02-19 12h57.23.673216 -0500,
51,51,0,critical,whd,35.0,4.0,lower,57.0,133.0,133.0,57.0,70.0,70.0,1,1.574537992477417,None,,,,,0,0,0,0,0,51,51,88,179.8464641571045,,,,,,,,,,,,,,,,,,,,,,,,,,,,,,,,,,,,,,,,,,,,,,,,,,,,,,,,,,,,,,,,,,,,,,,,,,,,,,,,,,57.0,133.0,133.0,57.0,70.0,70.0,4.0,4.1,-191,-280,0,-12,160,-279,179.8320188522339,179.83206009864807,179.8353033065796,179.8464641571045,179.99653935432434,179.99653935432434,179.99653935432434,179.99653935432434,179.99653935432434,179.99653935432434,179.99653935432434,181.43095993995667,1,1.574537992477417,None,,,,,,,,,,,,,,,,,,43,3,2025-02-19_12h57.09.816,comp,2024.2.4,60.02830886720164,2025-02-19 12h57.23.673216 -0500,
52,52,0,filler_square,None,None,None,None,None,None,None,None,None,None,1,1.0940518379211426,None,,,,,0,0,0,0,0,52,52,192,181.44657683372498,,,,,,,,,,,,,,,,,,,,,,,,,,,,,,,,,,,,,,,,,,,,,,,,,,,,,,,,,,,,,,,,,,,,,,,,,,,,,,,,,,155.4212793408292,155.4212793408292,62.086979177927844,140.62588054416253,94.7999365276588,110.2991378064967,3.0,3.1,-244,252,0,-6,221,-284,181.43193101882935,181.4319725036621,181.43456435203552,181.44657683372498,181.5966649055481,181.5966649055481,181.5966649055481,181.5966649055481,181.5966649055481,181.5966649055481,181.5966649055481,182.54773020744324,1,1.0940518379211426,None,,,,,,,,,,,,,,,,,,43,3,2025-02-19_12h57.09.816,comp,2024.2.4,60.02830886720164,2025-02-19 12h57.23.673216 -0500,
53,53,0,critical,dwh,35.0,2.1,upper,127.0,127.0,125.0,200.0,200.0,125.0,2,1.057936668395996,None,,,,,0,0,0,0,0,53,53,5,182.563570022583,,,,,,,,,,,,,,,,,,,,,,,,,,,,,,,,,,,,,,,,,,,,,,,,,,,,,,,,,,,,,,,,,,,,,,,,,,,,,,,,,,127.0,127.0,125.0,200.0,200.0,125.0,2.1,2.12,-260,-268,0,-256,258,255,182.54852676391602,182.54856729507446,182.55062246322632,182.563570022583,182.7134051322937,182.7134051322937,182.7134051322937,182.7134051322937,182.7134051322937,182.7134051322937,182.7134051322937,183.6311845779419,2,1.057936668395996,None,,,,,,,,,,,,,,,,,,43,3,2025-02-19_12h57.09.816,comp,2024.2.4,60.02830886720164,2025-02-19 12h57.23.673216 -0500,
54,54,0,catch,None,None,None,None,None,None,None,None,None,None,2,1.0618669986724854,None,,,,,0,0,0,0,0,54,54,120,183.64680433273315,,,,,,,,,,,,,,,,,,,,,,,,,,,,,,,,,,,,,,,,,,,,,,,,,,,,,,,,,,,,,,,,,,,,,,,,,,,,,,,,,,112,78,184,141,99,91,2.2,2.22,-206,265,0,-265,212,-280,183.6322422027588,183.6322841644287,183.63433146476746,183.64680433273315,183.7965841293335,183.7965841293335,183.7965841293335,183.7965841293335,183.7965841293335,183.7965841293335,183.7965841293335,184.71446752548218,2,1.0618669986724854,None,,,,,,,,,,,,,,,,,,43,3,2025-02-19_12h57.09.816,comp,2024.2.4,60.02830886720164,2025-02-19 12h57.23.673216 -0500,
55,55,0,critical,whd,35.0,3.0,lower,57.0,133.0,133.0,57.0,70.0,70.0,2,1.0668892860412598,None,,,,,0,0,0,0,0,55,55,86,184.73016476631165,,,,,,,,,,,,,,,,,,,,,,,,,,,,,,,,,,,,,,,,,,,,,,,,,,,,,,,,,,,,,,,,,,,,,,,,,,,,,,,,,,57.0,133.0,133.0,57.0,70.0,70.0,3.0,3.1,-191,288,0,-14,160,-252,184.71526646614075,184.7153091430664,184.7173833847046,184.73016476631165,184.8798897266388,184.8798897266388,184.8798897266388,184.8798897266388,184.8798897266388,184.8798897266388,184.8798897266388,185.81437969207764,2,1.0668892860412598,None,,,,,,,,,,,,,,,,,,43,3,2025-02-19_12h57.09.816,comp,2024.2.4,60.02830886720164,2025-02-19 12h57.23.673216 -0500,
56,56,0,filler_square,None,None,None,None,None,None,None,None,None,None,3,1.2864389419555664,None,,,,,0,0,0,0,0,56,56,174,185.82981300354004,,,,,,,,,,,,,,,,,,,,,,,,,,,,,,,,,,,,,,,,,,,,,,,,,,,,,,,,,,,,,,,,,,,,,,,,,,,,,,,,,,75.90180725204551,67.35948193404943,85.42808002302924,98.47992994809454,103.49041995111892,103.49041995111892,2.1,2.12,-179,-274,0,-263,197,266,185.81534957885742,185.81539154052734,185.81778955459595,185.82981300354004,185.97984766960144,185.97984766960144,185.97984766960144,185.97984766960144,185.97984766960144,185.97984766960144,185.97984766960144,187.13094854354858,3,1.2864389419555664,None,,,,,,,,,,,,,,,,,,43,3,2025-02-19_12h57.09.816,comp,2024.2.4,60.02830886720164,2025-02-19 12h57.23.673216 -0500,
57,57,0,critical,hdw,35.0,4.0,upper,200.0,125.0,127.0,127.0,125.0,200.0,3,1.2671666145324707,None,,,,,0,0,0,0,0,57,57,113,187.14639854431152,,,,,,,,,,,,,,,,,,,,,,,,,,,,,,,,,,,,,,,,,,,,,,,,,,,,,,,,,,,,,,,,,,,,,,,,,,,,,,,,,,200.0,125.0,127.0,127.0,125.0,200.0,4.0,4.2,-222,18,0,-274,260,-13,187.13176584243774,187.1318061351776,187.13387298583984,187.14639854431152,187.29664278030396,187.29664278030396,187.29664278030396,187.29664278030396,187.29664278030396,187.29664278030396,187.29664278030396,188.41482853889465,3,1.2671666145324707,None,,,,,,,,,,,,,,,,,,43,3,2025-02-19_12h57.09.816,comp,2024.2.4,60.02830886720164,2025-02-19 12h57.23.673216 -0500,
58,58,0,filler_square,None,None,None,None,None,None,None,None,None,None,3,4.016383409500122,None,,,,,0,0,0,0,0,58,58,181,188.43008613586426,,,,,,,,,,,,,,,,,,,,,,,,,,,,,,,,,,,,,,,,,,,,,,,,,,,,,,,,,,,,,,,,,,,,,,,,,,,,,,,,,,77.3268898645242,69.17324904612309,60.36738022252861,68.53815657397115,80.33654541632141,80.33654541632141,3.0,3.1,-165,284,0,-19,170,-289,188.41579151153564,188.41583371162415,188.41788578033447,188.43008613586426,188.5797598361969,188.5797598361969,188.5797598361969,188.5797598361969,188.5797598361969,188.5797598361969,188.5797598361969,192.44785714149475,3,4.016383409500122,None,,,,,,,,,,,,,,,,,,43,3,2025-02-19_12h57.09.816,comp,2024.2.4,60.02830886720164,2025-02-19 12h57.23.673216 -0500,
59,59,0,filler_square,None,None,None,None,None,None,None,None,None,None,3,10.100688934326172,None,,,,,0,0,0,0,0,59,59,208,192.46333146095276,,,,,,,,,,,,,,,,,,,,,,,,,,,,,,,,,,,,,,,,,,,,,,,,,,,,,,,,,,,,,,,,,,,,,,,,,,,,,,,,,,83.05345986526537,100.5705193973838,71.72129030984712,113.53602531308445,114.77088387068018,114.77088387068018,3.0,3.1,-203,279,0,9,210,-283,192.44882011413574,192.44886183738708,192.45146298408508,192.46333146095276,192.61316847801208,192.61316847801208,192.61316847801208,192.61316847801208,192.61316847801208,192.61316847801208,192.61316847801208,202.5810844898224,3,10.100688934326172,None,,,,,,,,,,,,,,,,,,43,3,2025-02-19_12h57.09.816,comp,2024.2.4,60.02830886720164,2025-02-19 12h57.23.673216 -0500,
60,60,0,critical,dhw,20.0,2.1,lower,78.0,78.0,133.0,57.0,57.0,133.0,3,1.3119547367095947,None,,,,,0,0,0,0,0,60,60,26,202.59658098220825,,,,,,,,,,,,,,,,,,,,,,,,,,,,,,,,,,,,,,,,,,,,,,,,,,,,,,,,,,,,,,,,,,,,,,,,,,,,,,,,,,78.0,78.0,133.0,57.0,57.0,133.0,2.1,2.11,-164,260,0,258,191,-269,202.58202695846558,202.58206844329834,202.58517122268677,202.59658098220825,202.7462887763977,202.7462887763977,202.7462887763977,202.7462887763977,202.7462887763977,202.7462887763977,202.7462887763977,203.91426038742065,3,1.3119547367095947,None,,,,,,,,,,,,,,,,,,43,3,2025-02-19_12h57.09.816,comp,2024.2.4,60.02830886720164,2025-02-19 12h57.23.673216 -0500,
61,61,0,filler_square,None,None,None,None,None,None,None,None,None,None,2,1.2106742858886719,None,,,,,0,0,0,0,0,61,61,195,203.9298655986786,,,,,,,,,,,,,,,,,,,,,,,,,,,,,,,,,,,,,,,,,,,,,,,,,,,,,,,,,,,,,,,,,,,,,,,,,,,,,,,,,,81.7125235154821,64.07752238717897,94.91426174221992,94.91426174221992,63.75634821318273,77.09566082239718,3.0,3.1,-175,258,0,17,182,-266,203.91517162322998,203.91521167755127,203.91743731498718,203.9298655986786,204.07983875274658,204.07983875274658,204.07983875274658,204.07983875274658,204.07983875274658,204.07983875274658,204.07983875274658,205.1475191116333,2,1.2106742858886719,None,,,,,,,,,,,,,,,,,,43,3,2025-02-19_12h57.09.816,comp,2024.2.4,60.02830886720164,2025-02-19 12h57.23.673216 -0500,
62,62,0,filler_square,None,None,None,None,None,None,None,None,None,None,3,0.833662748336792,None,,,,,0,0,0,0,0,62,62,196,205.16312646865845,,,,,,,,,,,,,,,,,,,,,,,,,,,,,,,,,,,,,,,,,,,,,,,,,,,,,,,,,,,,,,,,,,,,,,,,,,,,,,,,,,67.00815308731097,130.29499424248814,65.36368901924298,153.35668132269822,187.53957642605928,187.53957642605928,1.0,1.1,-718,276,-480,285,-214,253,205.14849305152893,205.14853477478027,205.15058398246765,205.16312646865845,205.31310939788818,205.31310939788818,205.31310939788818,205.31310939788818,205.31310939788818,205.31310939788818,205.31310939788818,206.01433491706848,3,0.833662748336792,None,,,,,,,,,,,,,,,,,,43,3,2025-02-19_12h57.09.816,comp,2024.2.4,60.02830886720164,2025-02-19 12h57.23.673216 -0500,
63,63,0,critical,whd,20.0,3.0,lower,57.0,133.0,133.0,57.0,78.0,78.0,2,1.206038475036621,None,,,,,0,0,0,0,0,63,63,92,206.02958798408508,,,,,,,,,,,,,,,,,,,,,,,,,,,,,,,,,,,,,,,,,,,,,,,,,,,,,,,,,,,,,,,,,,,,,,,,,,,,,,,,,,57.0,133.0,133.0,57.0,78.0,78.0,3.0,3.2,-191,-278,0,-13,164,282,206.01509404182434,206.01513504981995,206.01712894439697,206.02958798408508,206.17979955673218,206.17979955673218,206.17979955673218,206.17979955673218,206.17979955673218,206.17979955673218,206.17979955673218,207.2478528022766,2,1.206038475036621,None,,,,,,,,,,,,,,,,,,43,3,2025-02-19_12h57.09.816,comp,2024.2.4,60.02830886720164,2025-02-19 12h57.23.673216 -0500,
64,64,0,critical,hwd,35.0,2.1,upper,200.0,125.0,125.0,200.0,127.0,127.0,1,1.0302348136901855,None,,,,,0,0,0,0,0,64,64,41,207.262939453125,,,,,,,,,,,,,,,,,,,,,,,,,,,,,,,,,,,,,,,,,,,,,,,,,,,,,,,,,,,,,,,,,,,,,,,,,,,,,,,,,,200.0,125.0,125.0,200.0,127.0,127.0,2.1,2.11,-258,272,0,287,260,-285,207.24865436553955,207.2486970424652,207.2511692047119,207.262939453125,207.41328310966492,207.41328310966492,207.41328310966492,207.41328310966492,207.41328310966492,207.41328310966492,207.41328310966492,208.29792618751526,1,1.0302348136901855,None,,,,,,,,,,,,,,,,,,43,3,2025-02-19_12h57.09.816,comp,2024.2.4,60.02830886720164,2025-02-19 12h57.23.673216 -0500,
65,65,0,filler_square,None,None,None,None,None,None,None,None,None,None,2,1.243335247039795,None,,,,,0,0,0,0,0,65,65,186,208.31327843666077,,,,,,,,,,,,,,,,,,,,,,,,,,,,,,,,,,,,,,,,,,,,,,,,,,,,,,,,,,,,,,,,,,,,,,,,,,,,,,,,,,57.196655705836385,58.17547262996643,58.24037895585459,58.24037895585459,57.75335346829491,57.710084428442975,3.0,3.1,-154,286,0,4,154,-264,208.29890942573547,208.2989501953125,208.3010003566742,208.31327843666077,208.46302771568298,208.46302771568298,208.46302771568298,208.46302771568298,208.46302771568298,208.46302771568298,208.46302771568298,209.56411981582642,2,1.243335247039795,None,,,,,,,,,,,,,,,,,,43,3,2025-02-19_12h57.09.816,comp,2024.2.4,60.02830886720164,2025-02-19 12h57.23.673216 -0500,
66,66,0,filler_square,None,None,None,None,None,None,None,None,None,None,3,1.792635202407837,None,,,,,0,0,0,0,0,66,66,209,209.5798978805542,,,,,,,,,,,,,,,,,,,,,,,,,,,,,,,,,,,,,,,,,,,,,,,,,,,,,,,,,,,,,,,,,,,,,,,,,,,,,,,,,,100.45699800136117,100.45699800136117,70.28150548596406,77.25858327264224,95.1967864659089,95.0013079870323,2.2,2.21,-185,-282,0,254,182,257,209.56507873535156,209.56511974334717,209.56716108322144,209.5798978805542,209.72967219352722,209.72967219352722,209.72967219352722,209.72967219352722,209.72967219352722,209.72967219352722,209.72967219352722,211.3807988166809,3,1.792635202407837,None,,,,,,,,,,,,,,,,,,43,3,2025-02-19_12h57.09.816,comp,2024.2.4,60.02830886720164,2025-02-19 12h57.23.673216 -0500,
67,67,0,critical,dhw,35.0,4.0,upper,127.0,127.0,200.0,125.0,125.0,200.0,2,1.0712785720825195,None,,,,,0,0,0,0,0,67,67,53,211.3964684009552,,,,,,,,,,,,,,,,,,,,,,,,,,,,,,,,,,,,,,,,,,,,,,,,,,,,,,,,,,,,,,,,,,,,,,,,,,,,,,,,,,127.0,127.0,200.0,125.0,125.0,200.0,4.0,4.2,-222,-18,0,-270,258,19,211.38159561157227,211.3816375732422,211.38409900665283,211.3964684009552,211.54653692245483,211.54653692245483,211.54653692245483,211.54653692245483,211.54653692245483,211.54653692245483,211.54653692245483,212.4811191558838,2,1.0712785720825195,None,,,,,,,,,,,,,,,,,,43,3,2025-02-19_12h57.09.816,comp,2024.2.4,60.02830886720164,2025-02-19 12h57.23.673216 -0500,
68,68,0,critical,dwh,20.0,1.0,upper,141.0,141.0,125.0,200.0,200.0,125.0,3,0.8514101505279541,None,,,,,0,0,0,0,0,68,68,67,212.49622702598572,,,,,,,,,,,,,,,,,,,,,,,,,,,,,,,,,,,,,,,,,,,,,,,,,,,,,,,,,,,,,,,,,,,,,,,,,,,,,,,,,,141.0,141.0,125.0,200.0,200.0,125.0,1.0,1.1,-746,254,-480,265,-222,271,212.48192834854126,212.4819700717926,212.48426365852356,212.49622702598572,212.646546125412,212.646546125412,212.646546125412,212.646546125412,212.646546125412,212.646546125412,212.646546125412,213.36421251296997,3,0.8514101505279541,None,,,,,,,,,,,,,,,,,,43,3,2025-02-19_12h57.09.816,comp,2024.2.4,60.02830886720164,2025-02-19 12h57.23.673216 -0500,
69,69,0,critical,dhw,35.0,3.0,lower,70.0,70.0,133.0,57.0,57.0,133.0,3,2.1363322734832764,None,,,,,0,0,0,0,0,69,69,50,213.37962770462036,,,,,,,,,,,,,,,,,,,,,,,,,,,,,,,,,,,,,,,,,,,,,,,,,,,,,,,,,,,,,,,,,,,,,,,,,,,,,,,,,,70.0,70.0,133.0,57.0,57.0,133.0,3.0,3.2,-160,-273,0,11,191,262,213.36499333381653,213.36503386497498,213.36705803871155,213.37962770462036,213.52970123291016,213.52970123291016,213.52970123291016,213.52970123291016,213.52970123291016,213.52970123291016,213.52970123291016,215.53088212013245,3,2.1363322734832764,None,,,,,,,,,,,,,,,,,,43,3,2025-02-19_12h57.09.816,comp,2024.2.4,60.02830886720164,2025-02-19 12h57.23.673216 -0500,
70,70,0,critical,hdw,35.0,3.0,lower,133.0,57.0,70.0,70.0,57.0,133.0,3,1.4746453762054443,None,,,,,0,0,0,0,0,70,70,110,215.54616355895996,,,,,,,,,,,,,,,,,,,,,,,,,,,,,,,,,,,,,,,,,,,,,,,,,,,,,,,,,,,,,,,,,,,,,,,,,,,,,,,,,,133.0,57.0,70.0,70.0,57.0,133.0,3.0,3.1,-160,275,0,-16,198,-282,215.53165674209595,215.5316984653473,215.53419876098633,215.54616355895996,215.69634199142456,215.69634199142456,215.69634199142456,215.69634199142456,215.69634199142456,215.69634199142456,215.69634199142456,217.03073811531067,3,1.4746453762054443,None,,,,,,,,,,,,,,,,,,43,3,2025-02-19_12h57.09.816,comp,2024.2.4,60.02830886720164,2025-02-19 12h57.23.673216 -0500,
71,71,0,filler_random,None,None,None,None,None,None,None,None,None,None,2,0.8531789779663086,None,,,,,0,0,0,0,0,71,71,152,217.0464677810669,,,,,,,,,,,,,,,,,,,,,,,,,,,,,,,,,,,,,,,,,,,,,,,,,,,,,,,,,,,,,,,,,,,,,,,,,,,,,,,,,,65.37377493469106,62.7499252993483,181.62979715596595,187.2124414658806,82.68158942752956,115.43959985351817,2.2,2.22,-221,272,0,-282,247,-260,217.0316605567932,217.03170323371887,217.0341169834137,217.0464677810669,217.19630789756775,217.19630789756775,217.19630789756775,217.19630789756775,217.19630789756775,217.19630789756775,217.19630789756775,217.91411352157593,2,0.8531789779663086,None,,,,,,,,,,,,,,,,,,43,3,2025-02-19_12h57.09.816,comp,2024.2.4,60.02830886720164,2025-02-19 12h57.23.673216 -0500,
72,72,0,critical,wdh,20.0,2.1,upper,125.0,200.0,141.0,141.0,200.0,125.0,1,0.9789700508117676,None,,,,,0,0,0,0,0,72,72,35,217.92945313453674,,,,,,,,,,,,,,,,,,,,,,,,,,,,,,,,,,,,,,,,,,,,,,,,,,,,,,,,,,,,,,,,,,,,,,,,,,,,,,,,,,125.0,200.0,141.0,141.0,200.0,125.0,2.1,2.11,-266,284,0,259,229,-261,217.9148941040039,217.91493678092957,217.91697669029236,217.92945313453674,218.0799834728241,218.0799834728241,218.0799834728241,218.0799834728241,218.0799834728241,218.0799834728241,218.0799834728241,218.91428351402283,1,0.9789700508117676,None,,,,,,,,,,,,,,,,,,43,3,2025-02-19_12h57.09.816,comp,2024.2.4,60.02830886720164,2025-02-19 12h57.23.673216 -0500,
73,73,0,critical,whd,20.0,1.0,upper,125.0,200.0,200.0,125.0,141.0,141.0,2,2.842869520187378,None,,,,,0,0,0,0,0,73,73,91,218.92978763580322,,,,,,,,,,,,,,,,,,,,,,,,,,,,,,,,,,,,,,,,,,,,,,,,,,,,,,,,,,,,,,,,,,,,,,,,,,,,,,,,,,125.0,200.0,200.0,125.0,141.0,141.0,1.0,1.2,-258,-1,0,-5,229,-9,218.91501712799072,218.915057182312,218.91700720787048,218.92978763580322,219.07981848716736,219.07981848716736,219.07981848716736,219.07981848716736,219.07981848716736,219.07981848716736,219.07981848716736,221.7809772491455,2,2.842869520187378,None,,,,,,,,,,,,,,,,,,43,3,2025-02-19_12h57.09.816,comp,2024.2.4,60.02830886720164,2025-02-19 12h57.23.673216 -0500,
74,74,0,critical,dwh,20.0,4.0,upper,141.0,141.0,125.0,200.0,200.0,125.0,2,2.0336313247680664,None,,,,,0,0,0,0,0,74,74,71,221.79640007019043,,,,,,,,,,,,,,,,,,,,,,,,,,,,,,,,,,,,,,,,,,,,,,,,,,,,,,,,,,,,,,,,,,,,,,,,,,,,,,,,,,141.0,141.0,125.0,200.0,200.0,125.0,4.0,4.1,-266,-281,0,-7,258,-283,221.78177070617676,221.7818124294281,221.78433656692505,221.79640007019043,221.94644045829773,221.94644045829773,221.94644045829773,221.94644045829773,221.94644045829773,221.94644045829773,221.94644045829773,223.84763503074646,2,2.0336313247680664,None,,,,,,,,,,,,,,,,,,43,3,2025-02-19_12h57.09.816,comp,2024.2.4,60.02830886720164,2025-02-19 12h57.23.673216 -0500,
75,75,0,filler_random,None,None,None,None,None,None,None,None,None,None,3,0.845599889755249,None,,,,,0,0,0,0,0,75,75,134,223.86283826828003,,,,,,,,,,,,,,,,,,,,,,,,,,,,,,,,,,,,,,,,,,,,,,,,,,,,,,,,,,,,,,,,,,,,,,,,,,,,,,,,,,89.6695336711627,181.23318809195678,165.2023954913268,95.08412019712506,193.99823388164856,155.42512731493733,4.0,4.1,-234,-254,0,1,221,-282,223.84851932525635,223.84855961799622,223.85087776184082,223.86283826828003,224.01311683654785,224.01311683654785,224.01311683654785,224.01311683654785,224.01311683654785,224.01311683654785,224.01311683654785,224.71431136131287,3,0.845599889755249,None,,,,,,,,,,,,,,,,,,43,3,2025-02-19_12h57.09.816,comp,2024.2.4,60.02830886720164,2025-02-19 12h57.23.673216 -0500,
76,76,0,critical,wdh,35.0,2.1,upper,125.0,200.0,127.0,127.0,200.0,125.0,3,1.4748272895812988,None,,,,,0,0,0,0,0,76,76,33,224.73003721237183,,,,,,,,,,,,,,,,,,,,,,,,,,,,,,,,,,,,,,,,,,,,,,,,,,,,,,,,,,,,,,,,,,,,,,,,,,,,,,,,,,125.0,200.0,127.0,127.0,200.0,125.0,2.1,2.12,-260,-282,0,-254,222,290,224.71509742736816,224.71513772010803,224.7172110080719,224.73003721237183,224.8799855709076,224.8799855709076,224.8799855709076,224.8799855709076,224.8799855709076,224.8799855709076,224.8799855709076,226.2142629623413,3,1.4748272895812988,None,,,,,,,,,,,,,,,,,,43,3,2025-02-19_12h57.09.816,comp,2024.2.4,60.02830886720164,2025-02-19 12h57.23.673216 -0500,
77,77,0,critical,whd,20.0,4.0,lower,57.0,133.0,133.0,57.0,78.0,78.0,1,1.5909483432769775,None,,,,,0,0,0,0,0,77,77,94,226.22984170913696,,,,,,,,,,,,,,,,,,,,,,,,,,,,,,,,,,,,,,,,,,,,,,,,,,,,,,,,,,,,,,,,,,,,,,,,,,,,,,,,,,57.0,133.0,133.0,57.0,78.0,78.0,4.0,4.1,-191,-289,0,4,164,-266,226.21504306793213,226.21508288383484,226.21717262268066,226.22984170913696,226.37965941429138,226.37965941429138,226.37965941429138,226.37965941429138,226.37965941429138,226.37965941429138,226.37965941429138,227.83066511154175,1,1.5909483432769775,None,,,,,,,,,,,,,,,,,,43,3,2025-02-19_12h57.09.816,comp,2024.2.4,60.02830886720164,2025-02-19 12h57.23.673216 -0500,
78,78,0,critical,hdw,20.0,2.1,upper,200.0,125.0,141.0,141.0,125.0,200.0,3,1.6050801277160645,None,,,,,0,0,0,0,0,78,78,47,227.84637928009033,,,,,,,,,,,,,,,,,,,,,,,,,,,,,,,,,,,,,,,,,,,,,,,,,,,,,,,,,,,,,,,,,,,,,,,,,,,,,,,,,,200.0,125.0,141.0,141.0,125.0,200.0,2.1,2.12,-229,-277,0,-254,266,253,227.83147144317627,227.83151268959045,227.8335633277893,227.84637928009033,227.99632835388184,227.99632835388184,227.99632835388184,227.99632835388184,227.99632835388184,227.99632835388184,227.99632835388184,229.46430611610413,3,1.6050801277160645,None,,,,,,,,,,,,,,,,,,43,3,2025-02-19_12h57.09.816,comp,2024.2.4,60.02830886720164,2025-02-19 12h57.23.673216 -0500,
79,79,0,filler_random,None,None,None,None,None,None,None,None,None,None,2,3.428966999053955,None,,,,,0,0,0,0,0,79,79,163,229.4793701171875,,,,,,,,,,,,,,,,,,,,,,,,,,,,,,,,,,,,,,,,,,,,,,,,,,,,,,,,,,,,,,,,,,,,,,,,,,,,,,,,,,78.49572155250439,187.29553645401617,93.31782025201619,166.02133152456653,77.1969717201697,159.9148333847104,3.0,3.2,-273,-274,0,-7,259,280,229.46518874168396,229.465229511261,229.46715474128723,229.4793701171875,229.62983989715576,229.62983989715576,229.62983989715576,229.62983989715576,229.62983989715576,229.62983989715576,229.62983989715576,232.91412234306335,2,3.428966999053955,None,,,,,,,,,,,,,,,,,,43,3,2025-02-19_12h57.09.816,comp,2024.2.4,60.02830886720164,2025-02-19 12h57.23.673216 -0500,
80,80,0,critical,dwh,35.0,1.0,lower,70.0,70.0,57.0,133.0,133.0,57.0,3,1.1633491516113281,None,,,,,0,0,0,0,0,80,80,60,232.92964220046997,,,,,,,,,,,,,,,,,,,,,,,,,,,,,,,,,,,,,,,,,,,,,,,,,,,,,,,,,,,,,,,,,,,,,,,,,,,,,,,,,,70.0,70.0,57.0,133.0,133.0,57.0,1.0,1.1,-678,289,-480,260,-289,288,232.91490292549133,232.91494464874268,232.91717433929443,232.92964220046997,233.0794801712036,233.0794801712036,233.0794801712036,233.0794801712036,233.0794801712036,233.0794801712036,233.0794801712036,234.09734845161438,3,1.1633491516113281,None,,,,,,,,,,,,,,,,,,43,3,2025-02-19_12h57.09.816,comp,2024.2.4,60.02830886720164,2025-02-19 12h57.23.673216 -0500,
81,81,0,filler_random,None,None,None,None,None,None,None,None,None,None,2,0.9005224704742432,None,,,,,0,0,0,0,0,81,81,156,234.11291575431824,,,,,,,,,,,,,,,,,,,,,,,,,,,,,,,,,,,,,,,,,,,,,,,,,,,,,,,,,,,,,,,,,,,,,,,,,,,,,,,,,,116.85908881875764,155.76792539833875,196.21983275699847,178.5334870103908,179.70477069012895,119.52685950737595,2.2,2.21,-263,-288,0,257,245,262,234.09821486473083,234.09825444221497,234.1004774570465,234.11291575431824,234.26311945915222,234.26311945915222,234.26311945915222,234.26311945915222,234.26311945915222,234.26311945915222,234.26311945915222,235.030903339386,2,0.9005224704742432,None,,,,,,,,,,,,,,,,,,43,3,2025-02-19_12h57.09.816,comp,2024.2.4,60.02830886720164,2025-02-19 12h57.23.673216 -0500,
82,82,0,critical,whd,35.0,1.0,upper,125.0,200.0,200.0,125.0,127.0,127.0,2,1.3175475597381592,None,,,,,0,0,0,0,0,82,82,85,235.0460855960846,,,,,,,,,,,,,,,,,,,,,,,,,,,,,,,,,,,,,,,,,,,,,,,,,,,,,,,,,,,,,,,,,,,,,,,,,,,,,,,,,,125.0,200.0,200.0,125.0,127.0,127.0,1.0,1.3,222,-251,480,-282,702,-251,235.0316824913025,235.03172516822815,235.03412628173828,235.0460855960846,235.19641280174255,235.19641280174255,235.19641280174255,235.19641280174255,235.19641280174255,235.19641280174255,235.19641280174255,236.3649559020996,2,1.3175475597381592,None,,,,,,,,,,,,,,,,,,43,3,2025-02-19_12h57.09.816,comp,2024.2.4,60.02830886720164,2025-02-19 12h57.23.673216 -0500,
83,83,0,filler_random,None,None,None,None,None,None,None,None,None,None,2,0.7766575813293457,None,,,,,0,0,0,0,0,83,83,166,236.37982201576233,,,,,,,,,,,,,,,,,,,,,,,,,,,,,,,,,,,,,,,,,,,,,,,,,,,,,,,,,,,,,,,,,,,,,,,,,,,,,,,,,,138.58029659032974,70.34380621044292,192.11930362338737,142.97481677331945,67.86596456041217,60.60736419411311,4.0,4.1,-203,-286,0,-6,198,-255,236.36585474014282,236.36589789390564,236.36780881881714,236.37982201576233,236.52971482276917,236.52971482276917,236.52971482276917,236.52971482276917,236.52971482276917,236.52971482276917,236.52971482276917,237.1644480228424,2,0.7766575813293457,None,,,,,,,,,,,,,,,,,,43,3,2025-02-19_12h57.09.816,comp,2024.2.4,60.02830886720164,2025-02-19 12h57.23.673216 -0500,
84,84,0,critical,dwh,20.0,2.1,upper,141.0,141.0,125.0,200.0,200.0,125.0,3,1.0341613292694092,None,,,,,0,0,0,0,0,84,84,7,237.17965650558472,,,,,,,,,,,,,,,,,,,,,,,,,,,,,,,,,,,,,,,,,,,,,,,,,,,,,,,,,,,,,,,,,,,,,,,,,,,,,,,,,,141.0,141.0,125.0,200.0,200.0,125.0,2.1,2.12,-266,-277,0,-253,258,261,237.16522336006165,237.16526317596436,237.16728901863098,237.17965650558472,237.32976031303406,237.32976031303406,237.32976031303406,237.32976031303406,237.32976031303406,237.32976031303406,237.32976031303406,238.23082876205444,3,1.0341613292694092,None,,,,,,,,,,,,,,,,,,43,3,2025-02-19_12h57.09.816,comp,2024.2.4,60.02830886720164,2025-02-19 12h57.23.673216 -0500,
85,85,0,filler_square,None,None,None,None,None,None,None,None,None,None,3,1.5504505634307861,None,,,,,0,0,0,0,0,85,85,202,238.24606108665466,,,,,,,,,,,,,,,,,,,,,,,,,,,,,,,,,,,,,,,,,,,,,,,,,,,,,,,,,,,,,,,,,,,,,,,,,,,,,,,,,,74.57034919442422,67.92039541778774,111.7173519514104,111.7173519514104,74.3680836070813,102.2706080060664,2.2,2.21,-186,-283,0,266,203,263,238.2317976951599,238.2318398952484,238.23431372642517,238.24606108665466,238.39610719680786,238.39610719680786,238.39610719680786,238.39610719680786,238.39610719680786,238.39610719680786,238.39610719680786,239.8139407634735,3,1.5504505634307861,None,,,,,,,,,,,,,,,,,,43,3,2025-02-19_12h57.09.816,comp,2024.2.4,60.02830886720164,2025-02-19 12h57.23.673216 -0500,
86,86,0,critical,hwd,35.0,2.1,upper,200.0,125.0,125.0,200.0,127.0,127.0,1,1.0638842582702637,None,,,,,0,0,0,0,0,86,86,17,239.8293113708496,,,,,,,,,,,,,,,,,,,,,,,,,,,,,,,,,,,,,,,,,,,,,,,,,,,,,,,,,,,,,,,,,,,,,,,,,,,,,,,,,,200.0,125.0,125.0,200.0,127.0,127.0,2.1,2.12,-258,-287,0,-256,260,289,239.81475234031677,239.81479287147522,239.81682920455933,239.8293113708496,239.97963571548462,239.97963571548462,239.97963571548462,239.97963571548462,239.97963571548462,239.97963571548462,239.97963571548462,240.89754843711853,1,1.0638842582702637,None,,,,,,,,,,,,,,,,,,43,3,2025-02-19_12h57.09.816,comp,2024.2.4,60.02830886720164,2025-02-19 12h57.23.673216 -0500,
87,87,0,critical,whd,35.0,1.0,lower,57.0,133.0,133.0,57.0,70.0,70.0,2,1.1493890285491943,None,,,,,0,0,0,0,0,87,87,84,240.91287231445312,,,,,,,,,,,,,,,,,,,,,,,,,,,,,,,,,,,,,,,,,,,,,,,,,,,,,,,,,,,,,,,,,,,,,,,,,,,,,,,,,,57.0,133.0,133.0,57.0,70.0,70.0,1.0,1.2,-191,-1,0,-6,160,18,240.8983371257782,240.8983781337738,240.90046572685242,240.91287231445312,241.0627841949463,241.0627841949463,241.0627841949463,241.0627841949463,241.0627841949463,241.0627841949463,241.0627841949463,242.06394004821777,2,1.1493890285491943,None,,,,,,,,,,,,,,,,,,43,3,2025-02-19_12h57.09.816,comp,2024.2.4,60.02830886720164,2025-02-19 12h57.23.673216 -0500,
88,88,0,critical,hwd,20.0,2.1,lower,133.0,57.0,57.0,133.0,78.0,78.0,1,1.4926049709320068,None,,,,,0,0,0,0,0,88,88,18,242.07965517044067,,,,,,,,,,,,,,,,,,,,,,,,,,,,,,,,,,,,,,,,,,,,,,,,,,,,,,,,,,,,,,,,,,,,,,,,,,,,,,,,,,133.0,57.0,57.0,133.0,78.0,78.0,2.1,2.11,-191,258,0,252,202,-262,242.06474351882935,242.06478476524353,242.06733059883118,242.07965517044067,242.22941184043884,242.22941184043884,242.22941184043884,242.22941184043884,242.22941184043884,242.22941184043884,242.22941184043884,243.58047699928284,1,1.4926049709320068,None,,,,,,,,,,,,,,,,,,43,3,2025-02-19_12h57.09.816,comp,2024.2.4,60.02830886720164,2025-02-19 12h57.23.673216 -0500,
89,89,0,critical,whd,20.0,3.0,upper,125.0,200.0,200.0,125.0,141.0,141.0,2,1.1599414348602295,None,,,,,0,0,0,0,0,89,89,93,243.5962998867035,,,,,,,,,,,,,,,,,,,,,,,,,,,,,,,,,,,,,,,,,,,,,,,,,,,,,,,,,,,,,,,,,,,,,,,,,,,,,,,,,,125.0,200.0,200.0,125.0,141.0,141.0,3.0,3.2,-258,-258,0,-1,229,256,243.58125638961792,243.58129835128784,243.5836329460144,243.5962998867035,243.74645161628723,243.74645161628723,243.74645161628723,243.74645161628723,243.74645161628723,243.74645161628723,243.74645161628723,244.76421689987183,2,1.1599414348602295,None,,,,,,,,,,,,,,,,,,43,3,2025-02-19_12h57.09.816,comp,2024.2.4,60.02830886720164,2025-02-19 12h57.23.673216 -0500,
90,90,0,critical,dhw,20.0,1.0,lower,78.0,78.0,133.0,57.0,57.0,133.0,2,0.8827481269836426,None,,,,,0,0,0,0,0,90,90,54,244.77962350845337,,,,,,,,,,,,,,,,,,,,,,,,,,,,,,,,,,,,,,,,,,,,,,,,,,,,,,,,,,,,,,,,,,,,,,,,,,,,,,,,,,78.0,78.0,133.0,57.0,57.0,133.0,1.0,1.1,-644,278,-480,258,-289,252,244.7650122642517,244.76505327224731,244.767324924469,244.77962350845337,244.92948603630066,244.92948603630066,244.92948603630066,244.92948603630066,244.92948603630066,244.92948603630066,244.92948603630066,245.66406106948853,2,0.8827481269836426,None,,,,,,,,,,,,,,,,,,43,3,2025-02-19_12h57.09.816,comp,2024.2.4,60.02830886720164,2025-02-19 12h57.23.673216 -0500,
91,91,0,filler_random,None,None,None,None,None,None,None,None,None,None,2,0.9823207855224609,None,,,,,0,0,0,0,0,91,91,140,245.67955899238586,,,,,,,,,,,,,,,,,,,,,,,,,,,,,,,,,,,,,,,,,,,,,,,,,,,,,,,,,,,,,,,,,,,,,,,,,,,,,,,,,,114.94503208033836,64.76209844204905,198.36408419526583,122.47214612995971,70.74829216377493,189.6728640788153,3.0,3.2,-190,-251,0,18,252,269,245.66495180130005,245.66499400138855,245.66711568832397,245.67955899238586,245.82959485054016,245.82959485054016,245.82959485054016,245.82959485054016,245.82959485054016,245.82959485054016,245.82959485054016,246.66416883468628,2,0.9823207855224609,None,,,,,,,,,,,,,,,,,,43,3,2025-02-19_12h57.09.816,comp,2024.2.4,60.02830886720164,2025-02-19 12h57.23.673216 -0500,
92,92,0,filler_square,None,None,None,None,None,None,None,None,None,None,1,2.9003663063049316,None,,,,,0,0,0,0,0,92,92,176,246.67951345443726,,,,,,,,,,,,,,,,,,,,,,,,,,,,,,,,,,,,,,,,,,,,,,,,,,,,,,,,,,,,,,,,,,,,,,,,,,,,,,,,,,144.4001643941854,156.23928241458913,156.36684977367207,156.36684977367207,109.56898624426587,106.48724339845512,3.0,3.1,-252,281,0,16,227,-285,246.66511917114258,246.66518092155457,246.66724681854248,246.67951345443726,246.82960724830627,246.82960724830627,246.82960724830627,246.82960724830627,246.82960724830627,246.82960724830627,246.82960724830627,249.58105301856995,1,2.9003663063049316,None,,,,,,,,,,,,,,,,,,43,3,2025-02-19_12h57.09.816,comp,2024.2.4,60.02830886720164,2025-02-19 12h57.23.673216 -0500,
93,93,0,critical,hwd,35.0,2.1,lower,133.0,57.0,57.0,133.0,70.0,70.0,1,2.7672832012176514,None,,,,,0,0,0,0,0,93,93,16,249.59622621536255,,,,,,,,,,,,,,,,,,,,,,,,,,,,,,,,,,,,,,,,,,,,,,,,,,,,,,,,,,,,,,,,,,,,,,,,,,,,,,,,,,133.0,57.0,57.0,133.0,70.0,70.0,2.1,2.12,-191,-268,0,-285,198,275,249.58184695243835,249.58188724517822,249.58431577682495,249.59622621536255,249.7460880279541,249.7460880279541,249.7460880279541,249.7460880279541,249.7460880279541,249.7460880279541,249.7460880279541,252.38057255744934,1,2.7672832012176514,None,,,,,,,,,,,,,,,,,,43,3,2025-02-19_12h57.09.816,comp,2024.2.4,60.02830886720164,2025-02-19 12h57.23.673216 -0500,
94,94,0,critical,hdw,20.0,2.1,lower,133.0,57.0,78.0,78.0,57.0,133.0,1,1.3123700618743896,None,,,,,0,0,0,0,0,94,94,22,252.39584875106812,,,,,,,,,,,,,,,,,,,,,,,,,,,,,,,,,,,,,,,,,,,,,,,,,,,,,,,,,,,,,,,,,,,,,,,,,,,,,,,,,,133.0,57.0,78.0,78.0,57.0,133.0,2.1,2.11,-164,257,0,286,202,-275,252.38136053085327,252.38140225410461,252.383770942688,252.39584875106812,252.54612040519714,252.54612040519714,252.54612040519714,252.54612040519714,252.54612040519714,252.54612040519714,252.54612040519714,253.71396589279175,1,1.3123700618743896,None,,,,,,,,,,,,,,,,,,43,3,2025-02-19_12h57.09.816,comp,2024.2.4,60.02830886720164,2025-02-19 12h57.23.673216 -0500,
95,95,0,critical,wdh,20.0,3.0,upper,125.0,200.0,141.0,141.0,200.0,125.0,3,1.2750027179718018,None,,,,,0,0,0,0,0,95,95,81,253.72962498664856,,,,,,,,,,,,,,,,,,,,,,,,,,,,,,,,,,,,,,,,,,,,,,,,,,,,,,,,,,,,,,,,,,,,,,,,,,,,,,,,,,125.0,200.0,141.0,141.0,200.0,125.0,3.0,3.1,-266,274,0,0,229,-258,253.7147707939148,253.71481251716614,253.71725249290466,253.72962498664856,253.87972617149353,253.87972617149353,253.87972617149353,253.87972617149353,253.87972617149353,253.87972617149353,253.87972617149353,255.01405715942383,3,1.2750027179718018,None,,,,,,,,,,,,,,,,,,43,3,2025-02-19_12h57.09.816,comp,2024.2.4,60.02830886720164,2025-02-19 12h57.23.673216 -0500,
96,96,0,filler_random,None,None,None,None,None,None,None,None,None,None,3,0.9339354038238525,None,,,,,0,0,0,0,0,96,96,145,255.0295352935791,,,,,,,,,,,,,,,,,,,,,,,,,,,,,,,,,,,,,,,,,,,,,,,,,,,,,,,,,,,,,,,,,,,,,,,,,,,,,,,,,,136.89726957613442,175.12970129900492,140.82414592741046,131.07954438432492,84.69486023240344,182.0989320573441,2.2,2.22,-249,257,0,-264,253,-275,255.01499247550964,255.01503372192383,255.0171377658844,255.0295352935791,255.17961859703064,255.17961859703064,255.17961859703064,255.17961859703064,255.17961859703064,255.17961859703064,255.17961859703064,255.9807755947113,3,0.9339354038238525,None,,,,,,,,,,,,,,,,,,43,3,2025-02-19_12h57.09.816,comp,2024.2.4,60.02830886720164,2025-02-19 12h57.23.673216 -0500,
97,97,0,critical,hdw,35.0,1.0,lower,133.0,57.0,70.0,70.0,57.0,133.0,3,1.0822854042053223,None,,,,,0,0,0,0,0,97,97,108,255.9960160255432,,,,,,,,,,,,,,,,,,,,,,,,,,,,,,,,,,,,,,,,,,,,,,,,,,,,,,,,,,,,,,,,,,,,,,,,,,,,,,,,,,133.0,57.0,70.0,70.0,57.0,133.0,1.0,1.1,-640,253,-480,266,-282,283,255.9815685749054,255.9816083908081,255.98399543762207,255.9960160255432,256.14609122276306,256.14609122276306,256.14609122276306,256.14609122276306,256.14609122276306,256.14609122276306,256.14609122276306,257.0807945728302,3,1.0822854042053223,None,,,,,,,,,,,,,,,,,,43,3,2025-02-19_12h57.09.816,comp,2024.2.4,60.02830886720164,2025-02-19 12h57.23.673216 -0500,
98,98,0,filler_square,None,None,None,None,None,None,None,None,None,None,3,0.9711744785308838,None,,,,,0,0,0,0,0,98,98,207,257.0962104797363,,,,,,,,,,,,,,,,,,,,,,,,,,,,,,,,,,,,,,,,,,,,,,,,,,,,,,,,,,,,,,,,,,,,,,,,,,,,,,,,,,148.87282025638513,91.83203483560769,161.70458666813636,72.27277702434736,191.95832958973406,191.95832958973406,3.0,3.1,-178,278,0,-20,228,-250,257.0817799568176,257.0818223953247,257.08388924598694,257.0962104797363,257.2463045120239,257.2463045120239,257.2463045120239,257.2463045120239,257.2463045120239,257.2463045120239,257.2463045120239,258.0807020664215,3,0.9711744785308838,None,,,,,,,,,,,,,,,,,,43,3,2025-02-19_12h57.09.816,comp,2024.2.4,60.02830886720164,2025-02-19 12h57.23.673216 -0500,
99,99,0,critical,hdw,20.0,4.0,lower,133.0,57.0,78.0,78.0,57.0,133.0,3,1.8037679195404053,None,,,,,0,0,0,0,0,99,99,118,258.0958847999573,,,,,,,,,,,,,,,,,,,,,,,,,,,,,,,,,,,,,,,,,,,,,,,,,,,,,,,,,,,,,,,,,,,,,,,,,,,,,,,,,,133.0,57.0,78.0,78.0,57.0,133.0,4.0,4.2,-164,10,0,-253,202,-8,258.08158659935,258.081627368927,258.08409547805786,258.0958847999573,258.24600172042847,258.24600172042847,258.24600172042847,258.24600172042847,258.24600172042847,258.24600172042847,258.24600172042847,259.91395378112793,3,1.8037679195404053,None,,,,,,,,,,,,,,,,,,43,3,2025-02-19_12h57.09.816,comp,2024.2.4,60.02830886720164,2025-02-19 12h57.23.673216 -0500,
100,100,0,critical,dwh,35.0,3.0,upper,127.0,127.0,125.0,200.0,200.0,125.0,3,1.3633387088775635,None,,,,,0,0,0,0,0,100,100,63,259.9292631149292,,,,,,,,,,,,,,,,,,,,,,,,,,,,,,,,,,,,,,,,,,,,,,,,,,,,,,,,,,,,,,,,,,,,,,,,,,,,,,,,,,127.0,127.0,125.0,200.0,200.0,125.0,3.0,3.1,-260,279,0,-9,258,-271,259.91478157043457,259.9148223400116,259.9173035621643,259.9292631149292,260.0796184539795,260.0796184539795,260.0796184539795,260.0796184539795,260.0796184539795,260.0796184539795,260.0796184539795,261.2973988056183,3,1.3633387088775635,None,,,,,,,,,,,,,,,,,,43,3,2025-02-19_12h57.09.816,comp,2024.2.4,60.02830886720164,2025-02-19 12h57.23.673216 -0500,
101,101,0,critical,wdh,35.0,2.1,lower,57.0,133.0,70.0,70.0,133.0,57.0,3,1.7223970890045166,None,,,,,0,0,0,0,0,101,101,32,261.31285190582275,,,,,,,,,,,,,,,,,,,,,,,,,,,,,,,,,,,,,,,,,,,,,,,,,,,,,,,,,,,,,,,,,,,,,,,,,,,,,,,,,,57.0,133.0,70.0,70.0,133.0,57.0,2.1,2.11,-198,276,0,285,160,-276,261.2982351779938,261.2982771396637,261.30044412612915,261.31285190582275,261.4627294540405,261.4627294540405,261.4627294540405,261.4627294540405,261.4627294540405,261.4627294540405,261.4627294540405,263.0474736690521,3,1.7223970890045166,None,,,,,,,,,,,,,,,,,,43,3,2025-02-19_12h57.09.816,comp,2024.2.4,60.02830886720164,2025-02-19 12h57.23.673216 -0500,
102,102,0,critical,dwh,35.0,4.0,upper,127.0,127.0,125.0,200.0,200.0,125.0,2,1.0215835571289062,None,,,,,0,0,0,0,0,102,102,65,263.0624723434448,,,,,,,,,,,,,,,,,,,,,,,,,,,,,,,,,,,,,,,,,,,,,,,,,,,,,,,,,,,,,,,,,,,,,,,,,,,,,,,,,,127.0,127.0,125.0,200.0,200.0,125.0,4.0,4.2,-260,19,0,-269,258,-18,263.04822039604187,263.0482590198517,263.0505394935608,263.0624723434448,263.2128834724426,263.2128834724426,263.2128834724426,263.2128834724426,263.2128834724426,263.2128834724426,263.2128834724426,264.09728384017944,2,1.0215835571289062,None,,,,,,,,,,,,,,,,,,43,3,2025-02-19_12h57.09.816,comp,2024.2.4,60.02830886720164,2025-02-19 12h57.23.673216 -0500,
103,103,0,critical,hdw,20.0,1.0,lower,133.0,57.0,78.0,78.0,57.0,133.0,3,1.091609001159668,None,,,,,0,0,0,0,0,103,103,114,264.11253905296326,,,,,,,,,,,,,,,,,,,,,,,,,,,,,,,,,,,,,,,,,,,,,,,,,,,,,,,,,,,,,,,,,,,,,,,,,,,,,,,,,,133.0,57.0,78.0,78.0,57.0,133.0,1.0,1.1,-644,263,-480,283,-278,274,264.0980508327484,264.098091840744,264.1000876426697,264.11253905296326,264.2627000808716,264.2627000808716,264.2627000808716,264.2627000808716,264.2627000808716,264.2627000808716,264.2627000808716,265.2138133049011,3,1.091609001159668,None,,,,,,,,,,,,,,,,,,43,3,2025-02-19_12h57.09.816,comp,2024.2.4,60.02830886720164,2025-02-19 12h57.23.673216 -0500,
104,104,0,filler_random,None,None,None,None,None,None,None,None,None,None,1,0.8947019577026367,None,,,,,0,0,0,0,0,104,104,155,265.2294588088989,,,,,,,,,,,,,,,,,,,,,,,,,,,,,,,,,,,,,,,,,,,,,,,,,,,,,,,,,,,,,,,,,,,,,,,,,,,,,,,,,,99.7714172115518,189.09351493432146,83.18948259064298,162.2966421215766,59.87584546406686,130.61293904901166,1.0,1.2,-272,-18,0,-18,242,12,265.2147147655487,265.2147579193115,265.21721053123474,265.2294588088989,265.37950229644775,265.37950229644775,265.37950229644775,265.37950229644775,265.37950229644775,265.37950229644775,265.37950229644775,266.1308043003082,1,0.8947019577026367,None,,,,,,,,,,,,,,,,,,43,3,2025-02-19_12h57.09.816,comp,2024.2.4,60.02830886720164,2025-02-19 12h57.23.673216 -0500,
105,105,0,critical,whd,35.0,4.0,upper,125.0,200.0,200.0,125.0,127.0,127.0,2,1.153456687927246,None,,,,,0,0,0,0,0,105,105,89,266.1462092399597,,,,,,,,,,,,,,,,,,,,,,,,,,,,,,,,,,,,,,,,,,,,,,,,,,,,,,,,,,,,,,,,,,,,,,,,,,,,,,,,,,125.0,200.0,200.0,125.0,127.0,127.0,4.0,4.1,-258,-287,0,-13,222,-270,266.1315951347351,266.1316375732422,266.134024143219,266.1462092399597,266.2961015701294,266.2961015701294,266.2961015701294,266.2961015701294,266.2961015701294,266.2961015701294,266.2961015701294,267.3139719963074,2,1.153456687927246,None,,,,,,,,,,,,,,,,,,43,3,2025-02-19_12h57.09.816,comp,2024.2.4,60.02830886720164,2025-02-19 12h57.23.673216 -0500,
106,106,0,filler_random,None,None,None,None,None,None,None,None,None,None,2,0.7002682685852051,None,,,,,0,0,0,0,0,106,106,149,267.3291835784912,,,,,,,,,,,,,,,,,,,,,,,,,,,,,,,,,,,,,,,,,,,,,,,,,,,,,,,,,,,,,,,,,,,,,,,,,,,,,,,,,,73.97922071867173,76.02955010039422,93.7584295264834,178.32109630100115,102.05189921870546,74.91433551109571,3.0,3.1,-223,258,0,0,223,-257,267.31488060951233,267.3149223327637,267.317214012146,267.3291835784912,267.47938442230225,267.47938442230225,267.47938442230225,267.47938442230225,267.47938442230225,267.47938442230225,267.47938442230225,268.0306324958801,2,0.7002682685852051,None,,,,,,,,,,,,,,,,,,43,3,2025-02-19_12h57.09.816,comp,2024.2.4,60.02830886720164,2025-02-19 12h57.23.673216 -0500,
107,107,0,critical,hdw,20.0,4.0,upper,200.0,125.0,141.0,141.0,125.0,200.0,3,0.6855742931365967,None,,,,,0,0,0,0,0,107,107,119,268.0459871292114,,,,,,,,,,,,,,,,,,,,,,,,,,,,,,,,,,,,,,,,,,,,,,,,,,,,,,,,,,,,,,,,,,,,,,,,,,,,,,,,,,200.0,125.0,141.0,141.0,125.0,200.0,4.0,4.1,-229,-282,0,13,266,-278,268.0314390659332,268.03148198127747,268.03381633758545,268.0459871292114,268.1963138580322,268.1963138580322,268.1963138580322,268.1963138580322,268.1963138580322,268.1963138580322,268.1963138580322,268.74739503860474,3,0.6855742931365967,None,,,,,,,,,,,,,,,,,,43,3,2025-02-19_12h57.09.816,comp,2024.2.4,60.02830886720164,2025-02-19 12h57.23.673216 -0500,
108,108,0,filler_square,None,None,None,None,None,None,None,None,None,None,3,1.7367770671844482,None,,,,,0,0,0,0,0,108,108,200,268.7625949382782,,,,,,,,,,,,,,,,,,,,,,,,,,,,,,,,,,,,,,,,,,,,,,,,,,,,,,,,,,,,,,,,,,,,,,,,,,,,,,,,,,66.0277714465086,66.0277714465086,61.94525124423416,61.176619229248125,62.26878340806616,59.981233859600394,2.2,2.21,-160,-266,0,251,157,288,268.74835896492004,268.7484006881714,268.75068402290344,268.7625949382782,268.9126534461975,268.9126534461975,268.9126534461975,268.9126534461975,268.9126534461975,268.9126534461975,268.9126534461975,270.51363587379456,3,1.7367770671844482,None,,,,,,,,,,,,,,,,,,43,3,2025-02-19_12h57.09.816,comp,2024.2.4,60.02830886720164,2025-02-19 12h57.23.673216 -0500,
109,109,0,filler_random,None,None,None,None,None,None,None,None,None,None,1,1.0430560111999512,None,,,,,0,0,0,0,0,109,109,144,270.52913427352905,,,,,,,,,,,,,,,,,,,,,,,,,,,,,,,,,,,,,,,,,,,,,,,,,,,,,,,,,,,,,,,,,,,,,,,,,,,,,,,,,,196.57095465288998,154.24973890127163,95.70139202452586,102.36525099949708,197.18850947806135,155.6822808844703,2.2,2.21,-224,-257,0,273,225,259,270.51455330848694,270.51459527015686,270.5170261859894,270.52913427352905,270.679523229599,270.679523229599,270.679523229599,270.679523229599,270.679523229599,270.679523229599,270.679523229599,271.5807628631592,1,1.0430560111999512,None,,,,,,,,,,,,,,,,,,43,3,2025-02-19_12h57.09.816,comp,2024.2.4,60.02830886720164,2025-02-19 12h57.23.673216 -0500,
110,110,0,filler_square,None,None,None,None,None,None,None,None,None,None,3,2.5439958572387695,None,,,,,0,0,0,0,0,110,110,193,271.5961797237396,,,,,,,,,,,,,,,,,,,,,,,,,,,,,,,,,,,,,,,,,,,,,,,,,,,,,,,,,,,,,,,,,,,,,,,,,,,,,,,,,,72.15155481669207,64.68402001960155,58.08303436779922,64.87559591395099,79.84604632588164,79.84604632588164,3.0,3.2,-161,-259,0,-17,168,273,271.5817565917969,271.58179926872253,271.5843689441681,271.5961797237396,271.7457768917084,271.7457768917084,271.7457768917084,271.7457768917084,271.7457768917084,271.7457768917084,271.7457768917084,274.147020816803,3,2.5439958572387695,None,,,,,,,,,,,,,,,,,,43,3,2025-02-19_12h57.09.816,comp,2024.2.4,60.02830886720164,2025-02-19 12h57.23.673216 -0500,
111,111,0,critical,dwh,20.0,2.1,lower,78.0,78.0,57.0,133.0,133.0,57.0,3,1.3933420181274414,None,,,,,0,0,0,0,0,111,111,30,274.16277956962585,,,,,,,,,,,,,,,,,,,,,,,,,,,,,,,,,,,,,,,,,,,,,,,,,,,,,,,,,,,,,,,,,,,,,,,,,,,,,,,,,,78.0,78.0,57.0,133.0,133.0,57.0,2.1,2.12,-202,-262,0,-277,191,281,274.14782547950745,274.147869348526,274.15037083625793,274.16277956962585,274.312664270401,274.312664270401,274.312664270401,274.312664270401,274.312664270401,274.312664270401,274.312664270401,275.56363582611084,3,1.3933420181274414,None,,,,,,,,,,,,,,,,,,43,3,2025-02-19_12h57.09.816,comp,2024.2.4,60.02830886720164,2025-02-19 12h57.23.673216 -0500,
112,112,0,filler_square,None,None,None,None,None,None,None,None,None,None,3,0.735846757888794,None,,,,,0,0,0,0,0,112,112,197,275.5793583393097,,,,,,,,,,,,,,,,,,,,,,,,,,,,,,,,,,,,,,,,,,,,,,,,,,,,,,,,,,,,,,,,,,,,,,,,,,,,,,,,,,68.05067623976507,68.28791524835502,80.66549196449783,89.05858877581298,127.51095342005252,127.51095342005252,3.0,3.2,-175,-273,0,-4,204,257,275.5646142959595,275.5646572113037,275.5667541027069,275.5793583393097,275.7293949127197,275.7293949127197,275.7293949127197,275.7293949127197,275.7293949127197,275.7293949127197,275.7293949127197,276.3303015232086,3,0.735846757888794,None,,,,,,,,,,,,,,,,,,43,3,2025-02-19_12h57.09.816,comp,2024.2.4,60.02830886720164,2025-02-19 12h57.23.673216 -0500,
113,113,0,critical,hwd,35.0,1.0,upper,200.0,125.0,125.0,200.0,127.0,127.0,3,1.1779260635375977,None,,,,,0,0,0,0,0,113,113,97,276.34613156318665,,,,,,,,,,,,,,,,,,,,,,,,,,,,,,,,,,,,,,,,,,,,,,,,,,,,,,,,,,,,,,,,,,,,,,,,,,,,,,,,,,200.0,125.0,125.0,200.0,127.0,127.0,1.0,1.1,-738,252,-480,270,-220,280,276.3312268257141,276.33126759529114,276.3337047100067,276.34613156318665,276.4961974620819,276.4961974620819,276.4961974620819,276.4961974620819,276.4961974620819,276.4961974620819,276.4961974620819,277.53066325187683,3,1.1779260635375977,None,,,,,,,,,,,,,,,,,,43,3,2025-02-19_12h57.09.816,comp,2024.2.4,60.02830886720164,2025-02-19 12h57.23.673216 -0500,
114,114,0,filler_random,None,None,None,None,None,None,None,None,None,None,2,1.2996869087219238,None,,,,,0,0,0,0,0,114,114,136,277.54609084129333,,,,,,,,,,,,,,,,,,,,,,,,,,,,,,,,,,,,,,,,,,,,,,,,,,,,,,,,,,,,,,,,,,,,,,,,,,,,,,,,,,117.73267897756176,78.06616371852093,118.14129546334047,105.61885829466534,130.61793816869783,76.61071435518154,2.2,2.22,-188,277,0,-286,187,-281,277.53153705596924,277.5315783023834,277.5339663028717,277.54609084129333,277.69584441185,277.69584441185,277.69584441185,277.69584441185,277.69584441185,277.69584441185,277.69584441185,278.8472385406494,2,1.2996869087219238,None,,,,,,,,,,,,,,,,,,43,3,2025-02-19_12h57.09.816,comp,2024.2.4,60.02830886720164,2025-02-19 12h57.23.673216 -0500,
115,115,0,filler_square,None,None,None,None,None,None,None,None,None,None,2,0.7992758750915527,None,,,,,0,0,0,0,0,115,115,194,278.8626458644867,,,,,,,,,,,,,,,,,,,,,,,,,,,,,,,,,,,,,,,,,,,,,,,,,,,,,,,,,,,,,,,,,,,,,,,,,,,,,,,,,,150.6373639481987,150.6373639481987,110.23891448409724,121.61531993669756,115.89043620952367,82.93107549539579,3.0,3.2,-232,-260,0,5,198,254,278.8481340408325,278.84819054603577,278.85043263435364,278.8626458644867,279.0127685070038,279.0127685070038,279.0127685070038,279.0127685070038,279.0127685070038,279.0127685070038,279.0127685070038,279.6804461479187,2,0.7992758750915527,None,,,,,,,,,,,,,,,,,,43,3,2025-02-19_12h57.09.816,comp,2024.2.4,60.02830886720164,2025-02-19 12h57.23.673216 -0500,
116,116,0,filler_random,None,None,None,None,None,None,None,None,None,None,3,0.6842098236083984,None,,,,,0,0,0,0,0,116,116,141,279.6957542896271,,,,,,,,,,,,,,,,,,,,,,,,,,,,,,,,,,,,,,,,,,,,,,,,,,,,,,,,,,,,,,,,,,,,,,,,,,,,,,,,,,171.61589888996076,60.41994085885269,177.94365565104457,58.855164741917754,131.59380880590166,142.59235227549902,4.0,4.2,-156,16,0,-275,197,5,279.6813414096832,279.6813840866089,279.68370604515076,279.6957542896271,279.8459713459015,279.8459713459015,279.8459713459015,279.8459713459015,279.8459713459015,279.8459713459015,279.8459713459015,280.3971598148346,3,0.6842098236083984,None,,,,,,,,,,,,,,,,,,43,3,2025-02-19_12h57.09.816,comp,2024.2.4,60.02830886720164,2025-02-19 12h57.23.673216 -0500,
117,117,0,critical,hdw,35.0,4.0,lower,133.0,57.0,70.0,70.0,57.0,133.0,3,0.7435824871063232,None,,,,,0,0,0,0,0,117,117,112,280.41247725486755,,,,,,,,,,,,,,,,,,,,,,,,,,,,,,,,,,,,,,,,,,,,,,,,,,,,,,,,,,,,,,,,,,,,,,,,,,,,,,,,,,133.0,57.0,70.0,70.0,57.0,133.0,4.0,4.2,-160,-19,0,-267,198,12,280.3979480266571,280.39798855781555,280.4000778198242,280.41247725486755,280.56506848335266,280.56506848335266,280.56506848335266,280.56506848335266,280.56506848335266,280.56506848335266,280.56506848335266,281.1636612415314,3,0.7435824871063232,None,,,,,,,,,,,,,,,,,,43,3,2025-02-19_12h57.09.816,comp,2024.2.4,60.02830886720164,2025-02-19 12h57.23.673216 -0500,
118,118,0,critical,dwh,20.0,4.0,lower,78.0,78.0,57.0,133.0,133.0,57.0,3,0.7009024620056152,None,,,,,0,0,0,0,0,118,118,70,281.1793427467346,,,,,,,,,,,,,,,,,,,,,,,,,,,,,,,,,,,,,,,,,,,,,,,,,,,,,,,,,,,,,,,,,,,,,,,,,,,,,,,,,,78.0,78.0,57.0,133.0,133.0,57.0,4.0,4.2,-202,-6,0,-255,191,-15,281.1644675731659,281.1645097732544,281.166565656662,281.1793427467346,281.32925605773926,281.32925605773926,281.32925605773926,281.32925605773926,281.32925605773926,281.32925605773926,281.32925605773926,281.8983328342438,3,0.7009024620056152,None,,,,,,,,,,,,,,,,,,43,3,2025-02-19_12h57.09.816,comp,2024.2.4,60.02830886720164,2025-02-19 12h57.23.673216 -0500,
119,119,0,filler_square,None,None,None,None,None,None,None,None,None,None,3,1.1166799068450928,None,,,,,0,0,0,0,0,119,119,199,281.912743806839,,,,,,,,,,,,,,,,,,,,,,,,,,,,,,,,,,,,,,,,,,,,,,,,,,,,,,,,,,,,,,,,,,,,,,,,,,,,,,,,,,90.87854510012295,83.92043646495252,99.68505672591073,99.68505672591073,97.06639358855014,87.56481655678047,4.0,4.1,-188,-287,0,-17,190,-274,281.8991901874542,281.89922857284546,281.9011902809143,281.912743806839,282.0626976490021,282.0626976490021,282.0626976490021,282.0626976490021,282.0626976490021,282.0626976490021,282.0626976490021,283.0306034088135,3,1.1166799068450928,None,,,,,,,,,,,,,,,,,,43,3,2025-02-19_12h57.09.816,comp,2024.2.4,60.02830886720164,2025-02-19 12h57.23.673216 -0500,
120,120,0,critical,whd,35.0,3.0,upper,125.0,200.0,200.0,125.0,127.0,127.0,2,1.2620322704315186,None,,,,,0,0,0,0,0,120,120,87,283.04597187042236,,,,,,,,,,,,,,,,,,,,,,,,,,,,,,,,,,,,,,,,,,,,,,,,,,,,,,,,,,,,,,,,,,,,,,,,,,,,,,,,,,125.0,200.0,200.0,125.0,127.0,127.0,3.0,3.1,-258,270,0,7,222,-275,283.0314247608185,283.031466960907,283.03390097618103,283.04597187042236,283.1962306499481,283.1962306499481,283.1962306499481,283.1962306499481,283.1962306499481,283.1962306499481,283.1962306499481,284.3138928413391,2,1.2620322704315186,None,,,,,,,,,,,,,,,,,,43,3,2025-02-19_12h57.09.816,comp,2024.2.4,60.02830886720164,2025-02-19 12h57.23.673216 -0500,
121,121,0,critical,dwh,35.0,1.0,upper,127.0,127.0,125.0,200.0,200.0,125.0,3,0.7630910873413086,None,,,,,0,0,0,0,0,121,121,61,284.3292508125305,,,,,,,,,,,,,,,,,,,,,,,,,,,,,,,,,,,,,,,,,,,,,,,,,,,,,,,,,,,,,,,,,,,,,,,,,,,,,,,,,,127.0,127.0,125.0,200.0,200.0,125.0,1.0,1.1,-740,257,-480,258,-222,278,284.31468534469604,284.3147256374359,284.31709384918213,284.3292508125305,284.4793679714203,284.4793679714203,284.4793679714203,284.4793679714203,284.4793679714203,284.4793679714203,284.4793679714203,285.09726119041443,3,0.7630910873413086,None,,,,,,,,,,,,,,,,,,43,3,2025-02-19_12h57.09.816,comp,2024.2.4,60.02830886720164,2025-02-19 12h57.23.673216 -0500,
122,122,0,critical,dhw,35.0,4.0,lower,70.0,70.0,133.0,57.0,57.0,133.0,2,1.4186501502990723,None,,,,,0,0,0,0,0,122,122,52,285.11269330978394,,,,,,,,,,,,,,,,,,,,,,,,,,,,,,,,,,,,,,,,,,,,,,,,,,,,,,,,,,,,,,,,,,,,,,,,,,,,,,,,,,70.0,70.0,133.0,57.0,57.0,133.0,4.0,4.1,-160,-272,0,2,191,-289,285.0980443954468,285.09808683395386,285.10013461112976,285.11269330978394,285.2624502182007,285.2624502182007,285.2624502182007,285.2624502182007,285.2624502182007,285.2624502182007,285.2624502182007,286.54686641693115,2,1.4186501502990723,None,,,,,,,,,,,,,,,,,,43,3,2025-02-19_12h57.09.816,comp,2024.2.4,60.02830886720164,2025-02-19 12h57.23.673216 -0500,
123,123,0,filler_square,None,None,None,None,None,None,None,None,None,None,3,1.393585205078125,None,,,,,0,0,0,0,0,123,123,205,286.56237268447876,,,,,,,,,,,,,,,,,,,,,,,,,,,,,,,,,,,,,,,,,,,,,,,,,,,,,,,,,,,,,,,,,,,,,,,,,,,,,,,,,,139.9096517220694,125.85832328800885,134.55126057551195,173.3085457536275,178.0284497458023,178.0284497458023,2.1,2.12,-246,-285,0,-264,272,260,286.54782795906067,286.5478708744049,286.5503225326538,286.56237268447876,286.7127592563629,286.7127592563629,286.7127592563629,286.7127592563629,286.7127592563629,286.7127592563629,286.7127592563629,287.96381998062134,3,1.393585205078125,None,,,,,,,,,,,,,,,,,,43,3,2025-02-19_12h57.09.816,comp,2024.2.4,60.02830886720164,2025-02-19 12h57.23.673216 -0500,
124,124,0,filler_random,None,None,None,None,None,None,None,None,None,None,1,4.167894124984741,None,,,,,0,0,0,0,0,124,124,147,287.97931599617004,,,,,,,,,,,,,,,,,,,,,,,,,,,,,,,,,,,,,,,,,,,,,,,,,,,,,,,,,,,,,,,,,,,,,,,,,,,,,,,,,,71.1313453381722,121.78137331442035,65.34052589305479,86.42265932890146,94.57009142358473,82.42675080334241,1.0,1.1,-680,276,-480,267,-300,265,287.9647226333618,287.9647636413574,287.96680521965027,287.97931599617004,288.12919664382935,288.12919664382935,288.12919664382935,288.12919664382935,288.12919664382935,288.12919664382935,288.12919664382935,292.1636426448822,1,4.167894124984741,None,,,,,,,,,,,,,,,,,,43,3,2025-02-19_12h57.09.816,comp,2024.2.4,60.02830886720164,2025-02-19 12h57.23.673216 -0500,
125,125,0,filler_square,None,None,None,None,None,None,None,None,None,None,1,2.544883966445923,None,,,,,0,0,0,0,0,125,125,187,292.1790392398834,,,,,,,,,,,,,,,,,,,,,,,,,,,,,,,,,,,,,,,,,,,,,,,,,,,,,,,,,,,,,,,,,,,,,,,,,,,,,,,,,,66.00508906441706,57.19853628007979,68.71778447010676,68.71778447010676,61.934131166121105,64.68871335506371,3.0,3.2,-159,-267,0,-4,163,286,292.1645972728729,292.16464018821716,292.1670277118683,292.1790392398834,292.32919359207153,292.32919359207153,292.32919359207153,292.32919359207153,292.32919359207153,292.32919359207153,292.32919359207153,294.730251789093,1,2.544883966445923,None,,,,,,,,,,,,,,,,,,43,3,2025-02-19_12h57.09.816,comp,2024.2.4,60.02830886720164,2025-02-19 12h57.23.673216 -0500,
126,126,0,filler_random,None,None,None,None,None,None,None,None,None,None,3,3.777937650680542,None,,,,,0,0,0,0,0,126,126,138,294.74593019485474,,,,,,,,,,,,,,,,,,,,,,,,,,,,,,,,,,,,,,,,,,,,,,,,,,,,,,,,,,,,,,,,,,,,,,,,,,,,,,,,,,178.00283615325358,73.93538617930514,95.64804028140708,150.20417464950663,146.72631901959807,156.75437198750504,2.2,2.22,-208,284,0,-271,249,-258,294.73115158081055,294.7311952114105,294.7330777645111,294.74593019485474,294.8958764076233,294.8958764076233,294.8958764076233,294.8958764076233,294.8958764076233,294.8958764076233,294.8958764076233,298.5303590297699,3,3.777937650680542,None,,,,,,,,,,,,,,,,,,43,3,2025-02-19_12h57.09.816,comp,2024.2.4,60.02830886720164,2025-02-19 12h57.23.673216 -0500,
127,127,0,filler_square,None,None,None,None,None,None,None,None,None,None,2,1.4170587062835693,None,,,,,0,0,0,0,0,127,127,178,298.5459702014923,,,,,,,,,,,,,,,,,,,,,,,,,,,,,,,,,,,,,,,,,,,,,,,,,,,,,,,,,,,,,,,,,,,,,,,,,,,,,,,,,,101.42267089406599,80.4244193010671,95.60804995466509,83.34741940963232,103.74656417627716,103.74656417627716,2.1,2.11,-178,261,0,277,190,-284,298.53129863739014,298.53133845329285,298.53368377685547,298.5459702014923,298.6957354545593,298.6957354545593,298.6957354545593,298.6957354545593,298.6957354545593,298.6957354545593,298.6957354545593,299.98036074638367,2,1.4170587062835693,None,,,,,,,,,,,,,,,,,,43,3,2025-02-19_12h57.09.816,comp,2024.2.4,60.02830886720164,2025-02-19 12h57.23.673216 -0500,
128,128,0,filler_square,None,None,None,None,None,None,None,None,None,None,3,6.783962965011597,None,,,,,0,0,0,0,0,128,128,190,299.9956843852997,,,,,,,,,,,,,,,,,,,,,,,,,,,,,,,,,,,,,,,,,,,,,,,,,,,,,,,,,,,,,,,,,,,,,,,,,,,,,,,,,,114.75787903281292,59.35562126835036,110.19630257509625,111.4673591785511,114.76704784686906,114.76704784686906,4.0,4.1,-181,-274,0,-12,209,-284,299.9813094139099,299.9813508987427,299.9836449623108,299.9956843852997,300.1457841396332,300.1457841396332,300.1457841396332,300.1457841396332,300.1457841396332,300.1457841396332,300.1457841396332,306.7968792915344,3,6.783962965011597,None,,,,,,,,,,,,,,,,,,43,3,2025-02-19_12h57.09.816,comp,2024.2.4,60.02830886720164,2025-02-19 12h57.23.673216 -0500,
129,129,0,critical,hdw,20.0,3.0,lower,133.0,57.0,78.0,78.0,57.0,133.0,3,0.9115350246429443,None,,,,,0,0,0,0,0,129,129,116,306.81228590011597,,,,,,,,,,,,,,,,,,,,,,,,,,,,,,,,,,,,,,,,,,,,,,,,,,,,,,,,,,,,,,,,,,,,,,,,,,,,,,,,,,133.0,57.0,78.0,78.0,57.0,133.0,3.0,3.2,-164,-260,0,-10,202,285,306.7976529598236,306.7976920604706,306.8001308441162,306.81228590011597,306.9622995853424,306.9622995853424,306.9622995853424,306.9622995853424,306.9622995853424,306.9622995853424,306.9622995853424,307.7301104068756,3,0.9115350246429443,None,,,,,,,,,,,,,,,,,,43,3,2025-02-19_12h57.09.816,comp,2024.2.4,60.02830886720164,2025-02-19 12h57.23.673216 -0500,
130,130,0,critical,hwd,35.0,2.1,lower,133.0,57.0,57.0,133.0,70.0,70.0,1,1.401242733001709,None,,,,,0,0,0,0,0,130,130,40,307.7458212375641,,,,,,,,,,,,,,,,,,,,,,,,,,,,,,,,,,,,,,,,,,,,,,,,,,,,,,,,,,,,,,,,,,,,,,,,,,,,,,,,,,133.0,57.0,57.0,133.0,70.0,70.0,2.1,2.12,-191,-260,0,-268,198,256,307.73092246055603,307.7309606075287,307.7329297065735,307.7458212375641,307.89565563201904,307.89565563201904,307.89565563201904,307.89565563201904,307.89565563201904,307.89565563201904,307.89565563201904,309.1634020805359,1,1.401242733001709,None,,,,,,,,,,,,,,,,,,43,3,2025-02-19_12h57.09.816,comp,2024.2.4,60.02830886720164,2025-02-19 12h57.23.673216 -0500,
131,131,0,critical,whd,35.0,2.1,upper,125.0,200.0,200.0,125.0,127.0,127.0,2,1.5360321998596191,None,,,,,0,0,0,0,0,131,131,13,309.17893409729004,,,,,,,,,,,,,,,,,,,,,,,,,,,,,,,,,,,,,,,,,,,,,,,,,,,,,,,,,,,,,,,,,,,,,,,,,,,,,,,,,,125.0,200.0,200.0,125.0,127.0,127.0,2.1,2.12,-258,-287,0,-264,222,253,309.16420102119446,309.1642425060272,309.16658067703247,309.17893409729004,309.3291072845459,309.3291072845459,309.3291072845459,309.3291072845459,309.3291072845459,309.3291072845459,309.3291072845459,310.7304308414459,2,1.5360321998596191,None,,,,,,,,,,,,,,,,,,43,3,2025-02-19_12h57.09.816,comp,2024.2.4,60.02830886720164,2025-02-19 12h57.23.673216 -0500,
132,132,0,critical,hwd,35.0,4.0,upper,200.0,125.0,125.0,200.0,127.0,127.0,1,1.0014078617095947,None,,,,,0,0,0,0,0,132,132,101,310.74561762809753,,,,,,,,,,,,,,,,,,,,,,,,,,,,,,,,,,,,,,,,,,,,,,,,,,,,,,,,,,,,,,,,,,,,,,,,,,,,,,,,,,200.0,125.0,125.0,200.0,127.0,127.0,4.0,4.2,-258,20,0,-254,260,-10,310.73122239112854,310.73126339912415,310.7333016395569,310.74561762809753,310.89594316482544,310.89594316482544,310.89594316482544,310.89594316482544,310.89594316482544,310.89594316482544,310.89594316482544,311.76391410827637,1,1.0014078617095947,None,,,,,,,,,,,,,,,,,,43,3,2025-02-19_12h57.09.816,comp,2024.2.4,60.02830886720164,2025-02-19 12h57.23.673216 -0500,
133,133,0,filler_random,None,None,None,None,None,None,None,None,None,None,2,1.0339083671569824,None,,,,,0,0,0,0,0,133,133,161,311.79542088508606,,,,,,,,,,,,,,,,,,,,,,,,,,,,,,,,,,,,,,,,,,,,,,,,,,,,,,,,,,,,,,,,,,,,,,,,,,,,,,,,,,150.26651514772584,169.8935610891345,175.74673339210136,130.15865677846983,143.54879035120095,117.00309324258725,4.0,4.1,-246,-278,0,8,220,-270,311.76484203338623,311.7648847103119,311.76755952835083,311.79542088508606,311.92920780181885,311.92920780181885,311.92920780181885,311.92920780181885,311.92920780181885,311.92920780181885,311.92920780181885,312.83051204681396,2,1.0339083671569824,None,,,,,,,,,,,,,,,,,,43,3,2025-02-19_12h57.09.816,comp,2024.2.4,60.02830886720164,2025-02-19 12h57.23.673216 -0500,
134,134,0,filler_square,None,None,None,None,None,None,None,None,None,None,3,1.4690821170806885,None,,,,,0,0,0,0,0,134,134,184,312.845942735672,,,,,,,,,,,,,,,,,,,,,,,,,,,,,,,,,,,,,,,,,,,,,,,,,,,,,,,,,,,,,,,,,,,,,,,,,,,,,,,,,,76.12356534087735,71.36520950498483,60.48905205641468,75.11845523724526,77.4448348735809,77.4448348735809,2.2,2.21,-169,-265,0,273,172,262,312.83147072792053,312.8315131664276,312.8335425853729,312.845942735672,312.99561500549316,312.99561500549316,312.99561500549316,312.99561500549316,312.99561500549316,312.99561500549316,312.99561500549316,314.33006858825684,3,1.4690821170806885,None,,,,,,,,,,,,,,,,,,43,3,2025-02-19_12h57.09.816,comp,2024.2.4,60.02830886720164,2025-02-19 12h57.23.673216 -0500,
135,135,0,filler_square,None,None,None,None,None,None,None,None,None,None,1,1.0746252536773682,None,,,,,0,0,0,0,0,135,135,188,314.3455204963684,,,,,,,,,,,,,,,,,,,,,,,,,,,,,,,,,,,,,,,,,,,,,,,,,,,,,,,,,,,,,,,,,,,,,,,,,,,,,,,,,,138.78039314540013,138.78039314540013,65.42950612828815,89.8374539855802,62.62136450855952,65.8672843719099,2.2,2.21,-210,-268,0,260,174,275,314.33104634284973,314.33108830451965,314.3330988883972,314.3455204963684,314.4957318305969,314.4957318305969,314.4957318305969,314.4957318305969,314.4957318305969,314.4957318305969,314.4957318305969,315.430127620697,1,1.0746252536773682,None,,,,,,,,,,,,,,,,,,43,3,2025-02-19_12h57.09.816,comp,2024.2.4,60.02830886720164,2025-02-19 12h57.23.673216 -0500,
136,136,0,critical,wdh,35.0,3.0,lower,57.0,133.0,70.0,70.0,133.0,57.0,3,0.9012970924377441,None,,,,,0,0,0,0,0,136,136,74,315.4457061290741,,,,,,,,,,,,,,,,,,,,,,,,,,,,,,,,,,,,,,,,,,,,,,,,,,,,,,,,,,,,,,,,,,,,,,,,,,,,,,,,,,57.0,133.0,70.0,70.0,133.0,57.0,3.0,3.2,-198,-262,0,-10,160,269,315.4308934211731,315.43093276023865,315.4329741001129,315.4457061290741,315.5955910682678,315.5955910682678,315.5955910682678,315.5955910682678,315.5955910682678,315.5955910682678,315.5955910682678,316.3634400367737,3,0.9012970924377441,None,,,,,,,,,,,,,,,,,,43,3,2025-02-19_12h57.09.816,comp,2024.2.4,60.02830886720164,2025-02-19 12h57.23.673216 -0500,
137,137,0,critical,wdh,20.0,3.0,lower,57.0,133.0,78.0,78.0,133.0,57.0,3,0.9361457824707031,None,,,,,0,0,0,0,0,137,137,80,316.37879753112793,,,,,,,,,,,,,,,,,,,,,,,,,,,,,,,,,,,,,,,,,,,,,,,,,,,,,,,,,,,,,,,,,,,,,,,,,,,,,,,,,,57.0,133.0,78.0,78.0,133.0,57.0,3.0,3.1,-202,287,0,-18,164,-253,316.36420130729675,316.3642404079437,316.36651635169983,316.37879753112793,316.52895426750183,316.52895426750183,316.52895426750183,316.52895426750183,316.52895426750183,316.52895426750183,316.52895426750183,317.3300211429596,3,0.9361457824707031,None,,,,,,,,,,,,,,,,,,43,3,2025-02-19_12h57.09.816,comp,2024.2.4,60.02830886720164,2025-02-19 12h57.23.673216 -0500,
138,138,0,filler_random,None,None,None,None,None,None,None,None,None,None,1,1.153651475906372,None,,,,,0,0,0,0,0,138,138,165,317.34552097320557,,,,,,,,,,,,,,,,,,,,,,,,,,,,,,,,,,,,,,,,,,,,,,,,,,,,,,,,,,,,,,,,,,,,,,,,,,,,,,,,,,129.54039816471726,116.11937976576806,113.22650716648536,104.11588141572496,92.24227524552927,80.6468713249017,2.1,2.12,-206,-272,0,-287,188,279,317.33095121383667,317.3309941291809,317.3330500125885,317.34552097320557,317.4958026409149,317.4958026409149,317.4958026409149,317.4958026409149,317.4958026409149,317.4958026409149,317.4958026409149,318.51358222961426,1,1.153651475906372,None,,,,,,,,,,,,,,,,,,43,3,2025-02-19_12h57.09.816,comp,2024.2.4,60.02830886720164,2025-02-19 12h57.23.673216 -0500,
139,139,0,critical,hwd,20.0,2.1,upper,200.0,125.0,125.0,200.0,141.0,141.0,1,3.7325968742370605,None,,,,,0,0,0,0,0,139,139,19,318.52878880500793,,,,,,,,,,,,,,,,,,,,,,,,,,,,,,,,,,,,,,,,,,,,,,,,,,,,,,,,,,,,,,,,,,,,,,,,,,,,,,,,,,200.0,125.0,125.0,200.0,141.0,141.0,2.1,2.12,-258,-253,0,-259,266,250,318.5144009590149,318.51444125175476,318.5167832374573,318.52878880500793,318.6790728569031,318.6790728569031,318.6790728569031,318.6790728569031,318.6790728569031,318.6790728569031,318.6790728569031,322.2637367248535,1,3.7325968742370605,None,,,,,,,,,,,,,,,,,,43,3,2025-02-19_12h57.09.816,comp,2024.2.4,60.02830886720164,2025-02-19 12h57.23.673216 -0500,
