thisN,thisTrialN,thisRepN,effect,order,distance,config,diag,h_1,w_1,h_2,w_2,h_3,w_3,rect_choice.keys,rect_choice.rt,rect_choice.duration,instructions_loop.thisRepN,instructions_loop.thisTrialN,instructions_loop.thisN,instructions_loop.thisIndex,blocks.thisRepN,blocks.thisTrialN,blocks.thisN,blocks.thisIndex,trials.thisRepN,trials.thisTrialN,trials.thisN,trials.thisIndex,thisRow.t,notes,consent.started,agree_button.started,decline_button.started,consent_img.started,mouse.started,consent.stopped,agree_button.numClicks,agree_button.timesOn,agree_button.timesOff,decline_button.numClicks,decline_button.timesOn,decline_button.timesOff,mouse.x,mouse.y,mouse.leftButton,mouse.midButton,mouse.rightButton,mouse.time,mouse.clicked_name,exp_params.started,exp_params.stopped,welcome.started,welcome_text.started,welcome.stopped,instructions_1.started,instructions_1_text_1.started,instructions_1_text_2.started,key_resp.started,instructions_1.stopped,instructions_loop.key_resp.keys,instructions_loop.key_resp.rt,instructions_loop.key_resp.duration,instructions_2.started,instructions_2_text_1.started,instructions_2_text_2.started,key_resp_2.started,instructions_2.stopped,instructions_loop.key_resp_2.keys,instructions_loop.key_resp_2.rt,instructions_loop.key_resp_2.duration,instructions_3.started,instructions_3_text_1.started,r1_instr3.started,r2_instr3.started,r3_instr3.started,r1_instr3_label.started,r2_instr3_label.started,r3_instr3_label.started,instructions_3_text_3.started,instructions_3_text_4.started,key_resp_3.started,instructions_3.stopped,instructions_loop.key_resp_3.keys,instructions_loop.key_resp_3.rt,instructions_loop.key_resp_3.duration,instructions_4.started,instructions_4_text_1.started,instructions_4_text_3.started,instructions_4_text_2.started,key_resp_4.started,instructions_4.stopped,instructions_loop.key_resp_4.keys,instructions_loop.key_resp_4.rt,instructions_loop.key_resp_4.duration,instructions_5.started,instructions_5_text_1.started,instructions_5_text_2.started,key_resp_5.started,instructions_5.stopped,instructions_loop.key_resp_5.keys,instructions_loop.key_resp_5.rt,instructions_loop.key_resp_5.duration,start_exp.started,start_exp_text.started,key_resp_6.started,start_exp.stopped,key_resp_6.keys,key_resp_6.rt,key_resp_6.duration,h_1_tmp,w_1_tmp,h_2_tmp,w_2_tmp,h_3_tmp,w_3_tmp,config_tmp,config_tmp_1,r_1_x,r_1_y,r_2_x,r_2_y,r_3_x,r_3_y,pre_trial.started,pre_trial.stopped,choice_trial.started,rect_choice.started,r_1.started,r_2.started,r_3.started,r_1_label.started,r_2_label.started,r_3_label.started,prompt.started,choice_trial.stopped,trials.rect_choice.keys,trials.rect_choice.rt,trials.rect_choice.duration,end_block.started,end_block_text.started,end_block.stopped,end.started,end_text.started,key_resp_7.started,end.stopped,key_resp_7.keys,key_resp_7.rt,key_resp_7.duration,debriefing.started,debrief_form.started,end_debrief.started,debriefing.stopped,end_debrief.keys,end_debrief.rt,end_debrief.duration,participant,computer,date,expName,psychopyVersion,frameRate,expStart,
,,,,,,,,,,,,,,,,,,,,,,,,,,,,,,,0.014519691467285156,0.036921024322509766,0.036921024322509766,0.036921024322509766,0.014306068420410156,60.60523533821106,1,[60.56544089317322],[60.56546711921692],0,,,[-54.0],[-500.0],[1],[0],[0],[60.59029793739319],['agree_button'],,,,,,,,,,,,,,,,,,,,,,,,,,,,,,,,,,,,,,,,,,,,,,,,,,,,,,,,,,,,,,,,,,,,,,,,,,,,,,,,,,,,,,,,,,,,,,,,,,,,,,,,,,,44,4,2025-02-19_12h57.49.086,comp,2024.2.4,53.383361227957415,2025-02-19 12h58.01.184577 -0500,
,,,,,,,,,,,,,,,,,,,,,,,,,,,,,,,,,,,,,,,,,,,,,,,,,,60.60573935508728,60.60585427284241,,,,,,,,,,,,,,,,,,,,,,,,,,,,,,,,,,,,,,,,,,,,,,,,,,,,,,,,,,,,,,,,,,,,,,,,,,,,,,,,,,,,,,,,,,,,,,,,,,,,,,,,,44,4,2025-02-19_12h57.49.086,comp,2024.2.4,53.383361227957415,2025-02-19 12h58.01.184577 -0500,
,,,,,,,,,,,,,,,,,,,,,,,,,,,,,,,,,,,,,,,,,,,,,,,,,,,,60.60594058036804,60.621806383132935,62.60997819900513,,,,,,,,,,,,,,,,,,,,,,,,,,,,,,,,,,,,,,,,,,,,,,,,,,,,,,,,,,,,,,,,,,,,,,,,,,,,,,,,,,,,,,,,,,,,,,,,,,,,,,44,4,2025-02-19_12h57.49.086,comp,2024.2.4,53.383361227957415,2025-02-19 12h58.01.184577 -0500,
0,0,0,,,,,,,,,,,,,,,0,0,0,0,,,,,,,,,62.62778997421265,,,,,,,,,,,,,,,,,,,,,,,,,,62.61084222793579,62.62778997421265,62.62778997421265,64.11011028289795,67.11748623847961,space,2.998286247253418,None,67.1176438331604,67.13280510902405,67.13280510902405,68.6288731098175,77.31580758094788,space,8.67123007774353,None,77.31595587730408,77.35019874572754,77.35019874572754,77.35019874572754,77.35019874572754,77.35019874572754,77.35019874572754,77.35019874572754,77.35019874572754,77.35019874572754,78.82455110549927,85.07947540283203,space,6.236130952835083,None,85.07965350151062,85.0959587097168,85.0959587097168,85.0959587097168,86.5842387676239,91.40427207946777,space,4.812256336212158,None,91.40442681312561,91.41975450515747,91.41975450515747,92.91900372505188,94.77100920677185,space,1.837350606918335,None,94.77123284339905,94.7863392829895,94.7863392829895,96.0380711555481,space,1.2424209117889404,None,,,,,,,,,,,,,,,,,,,,,,,,,,,,,,,,,,,,,,,,,,,,,,,44,4,2025-02-19_12h57.49.086,comp,2024.2.4,53.383361227957415,2025-02-19 12h58.01.184577 -0500,
0,0,0,critical,wdh,20.0,4.0,upper,125.0,200.0,141.0,141.0,200.0,125.0,1,5.303296089172363,None,,,,,0,0,0,0,0,0,0,83,96.11716294288635,,,,,,,,,,,,,,,,,,,,,,,,,,,,,,,,,,,,,,,,,,,,,,,,,,,,,,,,,,,,,,,,,,,,,,,,,,,,,,,,,125.0,200.0,141.0,141.0,200.0,125.0,4.0,4.2,-266,-11,0,-281,229,-11,96.10015654563904,96.10020303726196,96.10196447372437,96.11716294288635,96.26676559448242,96.26676559448242,96.26676559448242,96.26676559448242,96.26676559448242,96.26676559448242,96.26676559448242,101.42236638069153,1,5.303296089172363,None,,,,,,,,,,,,,,,,,,44,4,2025-02-19_12h57.49.086,comp,2024.2.4,53.383361227957415,2025-02-19 12h58.01.184577 -0500,
1,1,0,critical,whd,20.0,4.0,lower,57.0,133.0,133.0,57.0,78.0,78.0,3,10.59841513633728,None,,,,,0,0,0,0,0,1,1,94,101.43842267990112,,,,,,,,,,,,,,,,,,,,,,,,,,,,,,,,,,,,,,,,,,,,,,,,,,,,,,,,,,,,,,,,,,,,,,,,,,,,,,,,,57.0,133.0,133.0,57.0,78.0,78.0,4.0,4.1,-191,-275,0,6,164,-280,101.42382264137268,101.42389416694641,101.42688393592834,101.43842267990112,101.59220719337463,101.59220719337463,101.59220719337463,101.59220719337463,101.59220719337463,101.59220719337463,101.59220719337463,112.04445886611938,3,10.59841513633728,None,,,,,,,,,,,,,,,,,,44,4,2025-02-19_12h57.49.086,comp,2024.2.4,53.383361227957415,2025-02-19 12h58.01.184577 -0500,
2,2,0,catch,None,None,None,None,None,None,None,None,None,None,2,2.824873208999634,None,,,,,0,0,0,0,0,2,2,124,112.06070351600647,,,,,,,,,,,,,,,,,,,,,,,,,,,,,,,,,,,,,,,,,,,,,,,,,,,,,,,,,,,,,,,,,,,,,,,,,,,,,,,,,68,122,191,134,92,98,3.0,3.2,-224,-281,0,3,212,289,112.04654455184937,112.04662656784058,112.04997110366821,112.06070351600647,112.21754050254822,112.21754050254822,112.21754050254822,112.21754050254822,112.21754050254822,112.21754050254822,112.21754050254822,114.892245054245,2,2.824873208999634,None,,,,,,,,,,,,,,,,,,44,4,2025-02-19_12h57.49.086,comp,2024.2.4,53.383361227957415,2025-02-19 12h58.01.184577 -0500,
3,3,0,filler_random,None,None,None,None,None,None,None,None,None,None,1,2.0633444786071777,None,,,,,0,0,0,0,0,3,3,143,114.90960812568665,,,,,,,,,,,,,,,,,,,,,,,,,,,,,,,,,,,,,,,,,,,,,,,,,,,,,,,,,,,,,,,,,,,,,,,,,,,,,,,,,160.17390837799638,186.72287226424004,85.62558266296504,139.2371688273293,148.7322033467517,81.20106330249206,1.0,1.3,221,-289,480,-250,686,-260,114.89404463768005,114.89412689208984,114.89756894111633,114.90960812568665,115.06398820877075,115.06398820877075,115.06398820877075,115.06398820877075,115.06398820877075,115.06398820877075,115.06398820877075,116.97792625427246,1,2.0633444786071777,None,,,,,,,,,,,,,,,,,,44,4,2025-02-19_12h57.49.086,comp,2024.2.4,53.383361227957415,2025-02-19 12h58.01.184577 -0500,
4,4,0,filler_square,None,None,None,None,None,None,None,None,None,None,3,1.6491239070892334,None,,,,,0,0,0,0,0,4,4,194,116.99499773979187,,,,,,,,,,,,,,,,,,,,,,,,,,,,,,,,,,,,,,,,,,,,,,,,,,,,,,,,,,,,,,,,,,,,,,,,,,,,,,,,,129.68851386722804,167.22798329941276,168.8291281595536,132.22869306825524,191.38764802424282,191.38764802424282,4.0,4.1,-246,-283,0,-4,258,-265,116.98004484176636,116.98012924194336,116.98398327827454,116.99499773979187,117.15288019180298,117.15288019180298,117.15288019180298,117.15288019180298,117.15288019180298,117.15288019180298,117.15288019180298,118.6609857082367,3,1.6491239070892334,None,,,,,,,,,,,,,,,,,,44,4,2025-02-19_12h57.49.086,comp,2024.2.4,53.383361227957415,2025-02-19 12h58.01.184577 -0500,
5,5,0,critical,hdw,35.0,3.0,upper,200.0,125.0,127.0,127.0,125.0,200.0,3,1.463432788848877,None,,,,,0,0,0,0,0,5,5,111,118.6770691871643,,,,,,,,,,,,,,,,,,,,,,,,,,,,,,,,,,,,,,,,,,,,,,,,,,,,,,,,,,,,,,,,,,,,,,,,,,,,,,,,,200.0,125.0,127.0,127.0,125.0,200.0,3.0,3.1,-222,266,0,17,260,-268,118.6625349521637,118.66261339187622,118.6658616065979,118.6770691871643,118.8277530670166,118.8277530670166,118.8277530670166,118.8277530670166,118.8277530670166,118.8277530670166,118.8277530670166,120.14413094520569,3,1.463432788848877,None,,,,,,,,,,,,,,,,,,44,4,2025-02-19_12h57.49.086,comp,2024.2.4,53.383361227957415,2025-02-19 12h58.01.184577 -0500,
6,6,0,critical,wdh,35.0,1.0,lower,57.0,133.0,70.0,70.0,133.0,57.0,1,4.3153977394104,None,,,,,0,0,0,0,0,6,6,72,120.16076016426086,,,,,,,,,,,,,,,,,,,,,,,,,,,,,,,,,,,,,,,,,,,,,,,,,,,,,,,,,,,,,,,,,,,,,,,,,,,,,,,,,57.0,133.0,70.0,70.0,133.0,57.0,1.0,1.1,-678,283,-480,287,-320,270,120.14564871788025,120.14572763442993,120.14894509315491,120.16076016426086,120.30047297477722,120.30047297477722,120.30047297477722,120.30047297477722,120.30047297477722,120.30047297477722,120.30047297477722,124.49506998062134,1,4.3153977394104,None,,,,,,,,,,,,,,,,,,44,4,2025-02-19_12h57.49.086,comp,2024.2.4,53.383361227957415,2025-02-19 12h58.01.184577 -0500,
7,7,0,critical,whd,35.0,2.1,lower,57.0,133.0,133.0,57.0,70.0,70.0,1,6.296616077423096,None,,,,,0,0,0,0,0,7,7,36,124.51560306549072,,,,,,,,,,,,,,,,,,,,,,,,,,,,,,,,,,,,,,,,,,,,,,,,,,,,,,,,,,,,,,,,,,,,,,,,,,,,,,,,,57.0,133.0,133.0,57.0,70.0,70.0,2.1,2.12,-191,-276,0,-273,160,266,124.49669432640076,124.49682235717773,124.5002875328064,124.51560306549072,124.66308259963989,124.66308259963989,124.66308259963989,124.66308259963989,124.66308259963989,124.66308259963989,124.66308259963989,130.82532572746277,1,6.296616077423096,None,,,,,,,,,,,,,,,,,,44,4,2025-02-19_12h57.49.086,comp,2024.2.4,53.383361227957415,2025-02-19 12h58.01.184577 -0500,
8,8,0,filler_square,None,None,None,None,None,None,None,None,None,None,1,1.8349523544311523,None,,,,,0,0,0,0,0,8,8,197,130.8419156074524,,,,,,,,,,,,,,,,,,,,,,,,,,,,,,,,,,,,,,,,,,,,,,,,,,,,,,,,,,,,,,,,,,,,,,,,,,,,,,,,,145.26270124148223,145.26270124148223,82.80673073570884,108.60911038065595,122.92360978743287,90.2569297853369,1.0,1.2,-223,-19,0,-20,195,16,130.82712125778198,130.8272020816803,130.83023762702942,130.8419156074524,130.98238253593445,130.98238253593445,130.98238253593445,130.98238253593445,130.98238253593445,130.98238253593445,130.98238253593445,132.6876826286316,1,1.8349523544311523,None,,,,,,,,,,,,,,,,,,44,4,2025-02-19_12h57.49.086,comp,2024.2.4,53.383361227957415,2025-02-19 12h58.01.184577 -0500,
9,9,0,filler_random,None,None,None,None,None,None,None,None,None,None,2,1.8198597431182861,None,,,,,0,0,0,0,0,9,9,133,132.70430302619934,,,,,,,,,,,,,,,,,,,,,,,,,,,,,,,,,,,,,,,,,,,,,,,,,,,,,,,,,,,,,,,,,,,,,,,,,,,,,,,,,58.38273761712599,102.32214518652867,145.18974892508396,162.29145759705727,133.89003604038874,165.47483691211818,4.0,4.2,-228,6,0,-251,260,-5,132.68951845169067,132.68960189819336,132.69269609451294,132.70430302619934,132.8503177165985,132.8503177165985,132.8503177165985,132.8503177165985,132.8503177165985,132.8503177165985,132.8503177165985,134.53696966171265,2,1.8198597431182861,None,,,,,,,,,,,,,,,,,,44,4,2025-02-19_12h57.49.086,comp,2024.2.4,53.383361227957415,2025-02-19 12h58.01.184577 -0500,
10,10,0,filler_square,None,None,None,None,None,None,None,None,None,None,3,2.4664573669433594,None,,,,,0,0,0,0,0,10,10,193,134.55388164520264,,,,,,,,,,,,,,,,,,,,,,,,,,,,,,,,,,,,,,,,,,,,,,,,,,,,,,,,,,,,,,,,,,,,,,,,,,,,,,,,,61.588997215641264,86.51731752367127,114.7352627587722,112.90665282164821,121.70260624014318,121.70260624014318,4.0,4.2,-196,15,0,-252,213,7,134.53909492492676,134.53917360305786,134.542724609375,134.55388164520264,134.69741916656494,134.69741916656494,134.69741916656494,134.69741916656494,134.69741916656494,134.69741916656494,134.69741916656494,137.02528524398804,3,2.4664573669433594,None,,,,,,,,,,,,,,,,,,44,4,2025-02-19_12h57.49.086,comp,2024.2.4,53.383361227957415,2025-02-19 12h58.01.184577 -0500,
11,11,0,critical,wdh,20.0,3.0,lower,57.0,133.0,78.0,78.0,133.0,57.0,1,5.310644626617432,None,,,,,0,0,0,0,0,11,11,80,137.0456030368805,,,,,,,,,,,,,,,,,,,,,,,,,,,,,,,,,,,,,,,,,,,,,,,,,,,,,,,,,,,,,,,,,,,,,,,,,,,,,,,,,57.0,133.0,78.0,78.0,133.0,57.0,3.0,3.2,-202,-267,0,0,164,288,137.0268430709839,137.0269205570221,137.02998185157776,137.0456030368805,137.18409538269043,137.18409538269043,137.18409538269043,137.18409538269043,137.18409538269043,137.18409538269043,137.18409538269043,142.36966276168823,1,5.310644626617432,None,,,,,,,,,,,,,,,,,,44,4,2025-02-19_12h57.49.086,comp,2024.2.4,53.383361227957415,2025-02-19 12h58.01.184577 -0500,
12,12,0,filler_random,None,None,None,None,None,None,None,None,None,None,1,1.4179823398590088,None,,,,,0,0,0,0,0,12,12,155,142.3857979774475,,,,,,,,,,,,,,,,,,,,,,,,,,,,,,,,,,,,,,,,,,,,,,,,,,,,,,,,,,,,,,,,,,,,,,,,,,,,,,,,,164.28986607792973,155.8647731910305,96.47170935397205,94.95046677672863,59.663940729896524,105.69819210006406,2.2,2.22,-221,254,0,-268,196,-288,142.37160396575928,142.3716802597046,142.37548398971558,142.3857979774475,142.53918290138245,142.53918290138245,142.53918290138245,142.53918290138245,142.53918290138245,142.53918290138245,142.53918290138245,143.81966853141785,1,1.4179823398590088,None,,,,,,,,,,,,,,,,,,44,4,2025-02-19_12h57.49.086,comp,2024.2.4,53.383361227957415,2025-02-19 12h58.01.184577 -0500,
13,13,0,filler_square,None,None,None,None,None,None,None,None,None,None,1,1.3062264919281006,None,,,,,0,0,0,0,0,13,13,198,143.83548712730408,,,,,,,,,,,,,,,,,,,,,,,,,,,,,,,,,,,,,,,,,,,,,,,,,,,,,,,,,,,,,,,,,,,,,,,,,,,,,,,,,136.0113010080447,136.0113010080447,87.14532942208629,104.37028099866683,92.85593950046398,64.47094004971595,4.0,4.1,-216,-253,0,-18,180,-259,143.8214876651764,143.82156372070312,143.82510948181152,143.83548712730408,143.9864273071289,143.9864273071289,143.9864273071289,143.9864273071289,143.9864273071289,143.9864273071289,143.9864273071289,145.15681266784668,1,1.3062264919281006,None,,,,,,,,,,,,,,,,,,44,4,2025-02-19_12h57.49.086,comp,2024.2.4,53.383361227957415,2025-02-19 12h58.01.184577 -0500,
14,14,0,critical,whd,20.0,3.0,upper,125.0,200.0,200.0,125.0,141.0,141.0,1,1.6418788433074951,None,,,,,0,0,0,0,0,14,14,93,145.17832779884338,,,,,,,,,,,,,,,,,,,,,,,,,,,,,,,,,,,,,,,,,,,,,,,,,,,,,,,,,,,,,,,,,,,,,,,,,,,,,,,,,125.0,200.0,200.0,125.0,141.0,141.0,3.0,3.1,-258,284,0,-5,229,-285,145.15912675857544,145.15926790237427,145.16316556930542,145.17832779884338,145.32161664962769,145.32161664962769,145.32161664962769,145.32161664962769,145.32161664962769,145.32161664962769,145.32161664962769,146.838130235672,1,1.6418788433074951,None,,,,,,,,,,,,,,,,,,44,4,2025-02-19_12h57.49.086,comp,2024.2.4,53.383361227957415,2025-02-19 12h58.01.184577 -0500,
15,15,0,critical,hdw,20.0,2.1,lower,133.0,57.0,78.0,78.0,57.0,133.0,3,2.2226107120513916,None,,,,,0,0,0,0,0,15,15,22,146.85350847244263,,,,,,,,,,,,,,,,,,,,,,,,,,,,,,,,,,,,,,,,,,,,,,,,,,,,,,,,,,,,,,,,,,,,,,,,,,,,,,,,,133.0,57.0,78.0,78.0,57.0,133.0,2.1,2.11,-164,276,0,270,202,-260,146.8396759033203,146.83975267410278,146.843252658844,146.85350847244263,147.0073914527893,147.0073914527893,147.0073914527893,147.0073914527893,147.0073914527893,147.0073914527893,147.0073914527893,149.08667039871216,3,2.2226107120513916,None,,,,,,,,,,,,,,,,,,44,4,2025-02-19_12h57.49.086,comp,2024.2.4,53.383361227957415,2025-02-19 12h58.01.184577 -0500,
16,16,0,critical,hwd,35.0,4.0,lower,133.0,57.0,57.0,133.0,70.0,70.0,2,2.053095817565918,None,,,,,0,0,0,0,0,16,16,100,149.10312223434448,,,,,,,,,,,,,,,,,,,,,,,,,,,,,,,,,,,,,,,,,,,,,,,,,,,,,,,,,,,,,,,,,,,,,,,,,,,,,,,,,133.0,57.0,57.0,133.0,70.0,70.0,4.0,4.2,-191,5,0,-271,198,-3,149.08816957473755,149.08824348449707,149.09147024154663,149.10312223434448,149.24132680892944,149.24132680892944,149.24132680892944,149.24132680892944,149.24132680892944,149.24132680892944,149.24132680892944,151.1708414554596,2,2.053095817565918,None,,,,,,,,,,,,,,,,,,44,4,2025-02-19_12h57.49.086,comp,2024.2.4,53.383361227957415,2025-02-19 12h58.01.184577 -0500,
17,17,0,critical,whd,20.0,3.0,lower,57.0,133.0,133.0,57.0,78.0,78.0,1,1.4583158493041992,None,,,,,0,0,0,0,0,17,17,92,151.18693089485168,,,,,,,,,,,,,,,,,,,,,,,,,,,,,,,,,,,,,,,,,,,,,,,,,,,,,,,,,,,,,,,,,,,,,,,,,,,,,,,,,57.0,133.0,133.0,57.0,78.0,78.0,3.0,3.2,-191,-283,0,12,164,284,151.17238521575928,151.17246174812317,151.17565655708313,151.18693089485168,151.34544134140015,151.34544134140015,151.34544134140015,151.34544134140015,151.34544134140015,151.34544134140015,151.34544134140015,152.65776109695435,1,1.4583158493041992,None,,,,,,,,,,,,,,,,,,44,4,2025-02-19_12h57.49.086,comp,2024.2.4,53.383361227957415,2025-02-19 12h58.01.184577 -0500,
18,18,0,critical,hwd,35.0,2.1,upper,200.0,125.0,125.0,200.0,127.0,127.0,2,3.7306408882141113,None,,,,,0,0,0,0,0,18,18,17,152.6735897064209,,,,,,,,,,,,,,,,,,,,,,,,,,,,,,,,,,,,,,,,,,,,,,,,,,,,,,,,,,,,,,,,,,,,,,,,,,,,,,,,,200.0,125.0,125.0,200.0,127.0,127.0,2.1,2.11,-258,261,0,260,260,-290,152.65935277938843,152.65943241119385,152.6629831790924,152.6735897064209,152.8238959312439,152.8238959312439,152.8238959312439,152.8238959312439,152.8238959312439,152.8238959312439,152.8238959312439,156.41921997070312,2,3.7306408882141113,None,,,,,,,,,,,,,,,,,,44,4,2025-02-19_12h57.49.086,comp,2024.2.4,53.383361227957415,2025-02-19 12h58.01.184577 -0500,
19,19,0,critical,hwd,20.0,3.0,upper,200.0,125.0,125.0,200.0,141.0,141.0,1,1.6337013244628906,None,,,,,0,0,0,0,0,19,19,105,156.4346628189087,,,,,,,,,,,,,,,,,,,,,,,,,,,,,,,,,,,,,,,,,,,,,,,,,,,,,,,,,,,,,,,,,,,,,,,,,,,,,,,,,200.0,125.0,125.0,200.0,141.0,141.0,3.0,3.2,-258,-272,0,2,266,284,156.4207022190094,156.42077541351318,156.42379188537598,156.4346628189087,156.57316827774048,156.57316827774048,156.57316827774048,156.57316827774048,156.57316827774048,156.57316827774048,156.57316827774048,158.08047008514404,1,1.6337013244628906,None,,,,,,,,,,,,,,,,,,44,4,2025-02-19_12h57.49.086,comp,2024.2.4,53.383361227957415,2025-02-19 12h58.01.184577 -0500,
20,20,0,filler_square,None,None,None,None,None,None,None,None,None,None,3,1.8632020950317383,None,,,,,0,0,0,0,0,20,20,209,158.10092186927795,,,,,,,,,,,,,,,,,,,,,,,,,,,,,,,,,,,,,,,,,,,,,,,,,,,,,,,,,,,,,,,,,,,,,,,,,,,,,,,,,60.978602498164285,59.90623305636625,65.33700274012526,64.1286269906646,65.67378672731735,65.67378672731735,2.2,2.21,-158,-259,0,282,161,261,158.08225059509277,158.08232617378235,158.0853250026703,158.10092186927795,158.24013137817383,158.24013137817383,158.24013137817383,158.24013137817383,158.24013137817383,158.24013137817383,158.24013137817383,159.97719979286194,3,1.8632020950317383,None,,,,,,,,,,,,,,,,,,44,4,2025-02-19_12h57.49.086,comp,2024.2.4,53.383361227957415,2025-02-19 12h58.01.184577 -0500,
21,21,0,critical,wdh,35.0,4.0,lower,57.0,133.0,70.0,70.0,133.0,57.0,1,2.5451297760009766,None,,,,,0,0,0,0,0,21,21,76,159.9959135055542,,,,,,,,,,,,,,,,,,,,,,,,,,,,,,,,,,,,,,,,,,,,,,,,,,,,,,,,,,,,,,,,,,,,,,,,,,,,,,,,,57.0,133.0,70.0,70.0,133.0,57.0,4.0,4.2,-198,1,0,-266,160,-10,159.9787700176239,159.9788475036621,159.98240065574646,159.9959135055542,160.14126563072205,160.14126563072205,160.14126563072205,160.14126563072205,160.14126563072205,160.14126563072205,160.14126563072205,162.54721856117249,1,2.5451297760009766,None,,,,,,,,,,,,,,,,,,44,4,2025-02-19_12h57.49.086,comp,2024.2.4,53.383361227957415,2025-02-19 12h58.01.184577 -0500,
22,22,0,catch,None,None,None,None,None,None,None,None,None,None,1,1.1851580142974854,None,,,,,0,0,0,0,0,22,22,127,162.56309247016907,,,,,,,,,,,,,,,,,,,,,,,,,,,,,,,,,,,,,,,,,,,,,,,,,,,,,,,,,,,,,,,,,,,,,,,,,,,,,,,,,158,167,65,125,132,58,4.0,4.1,-242,-278,0,1,188,-277,162.54918503761292,162.54926419258118,162.55235958099365,162.56309247016907,162.70875930786133,162.70875930786133,162.70875930786133,162.70875930786133,162.70875930786133,162.70875930786133,162.70875930786133,163.76383447647095,1,1.1851580142974854,None,,,,,,,,,,,,,,,,,,44,4,2025-02-19_12h57.49.086,comp,2024.2.4,53.383361227957415,2025-02-19 12h58.01.184577 -0500,
23,23,0,critical,hwd,20.0,1.0,lower,133.0,57.0,57.0,133.0,78.0,78.0,2,9.040541410446167,None,,,,,0,0,0,0,0,23,23,102,163.77970457077026,,,,,,,,,,,,,,,,,,,,,,,,,,,,,,,,,,,,,,,,,,,,,,,,,,,,,,,,,,,,,,,,,,,,,,,,,,,,,,,,,133.0,57.0,57.0,133.0,78.0,78.0,1.0,1.3,289,-284,480,-275,682,-264,163.7653775215149,163.76545071601868,163.7685580253601,163.77970457077026,163.9233374595642,163.9233374595642,163.9233374595642,163.9233374595642,163.9233374595642,163.9233374595642,163.9233374595642,172.8354115486145,2,9.040541410446167,None,,,,,,,,,,,,,,,,,,44,4,2025-02-19_12h57.49.086,comp,2024.2.4,53.383361227957415,2025-02-19 12h58.01.184577 -0500,
24,24,0,critical,wdh,35.0,1.0,upper,125.0,200.0,127.0,127.0,200.0,125.0,3,5.33685564994812,None,,,,,0,0,0,0,0,24,24,73,172.85140109062195,,,,,,,,,,,,,,,,,,,,,,,,,,,,,,,,,,,,,,,,,,,,,,,,,,,,,,,,,,,,,,,,,,,,,,,,,,,,,,,,,125.0,200.0,127.0,127.0,200.0,125.0,1.0,1.1,-740,267,-480,270,-258,289,172.83699107170105,172.8371434211731,172.840229511261,172.85140109062195,172.99616932868958,172.99616932868958,172.99616932868958,172.99616932868958,172.99616932868958,172.99616932868958,172.99616932868958,178.19831824302673,3,5.33685564994812,None,,,,,,,,,,,,,,,,,,44,4,2025-02-19_12h57.49.086,comp,2024.2.4,53.383361227957415,2025-02-19 12h58.01.184577 -0500,
25,25,0,critical,wdh,35.0,2.1,lower,57.0,133.0,70.0,70.0,133.0,57.0,1,4.996426105499268,None,,,,,0,0,0,0,0,25,25,8,178.21580028533936,,,,,,,,,,,,,,,,,,,,,,,,,,,,,,,,,,,,,,,,,,,,,,,,,,,,,,,,,,,,,,,,,,,,,,,,,,,,,,,,,57.0,133.0,70.0,70.0,133.0,57.0,2.1,2.12,-198,-261,0,-256,160,280,178.19987440109253,178.19998502731323,178.20409631729126,178.21580028533936,178.36382293701172,178.36382293701172,178.36382293701172,178.36382293701172,178.36382293701172,178.36382293701172,178.36382293701172,183.21533179283142,1,4.996426105499268,None,,,,,,,,,,,,,,,,,,44,4,2025-02-19_12h57.49.086,comp,2024.2.4,53.383361227957415,2025-02-19 12h58.01.184577 -0500,
26,26,0,filler_square,None,None,None,None,None,None,None,None,None,None,3,2.826251983642578,None,,,,,0,0,0,0,0,26,26,201,183.23457884788513,,,,,,,,,,,,,,,,,,,,,,,,,,,,,,,,,,,,,,,,,,,,,,,,,,,,,,,,,,,,,,,,,,,,,,,,,,,,,,,,,68.74664360906948,61.80130662807752,59.36018182419187,66.9203286590745,68.84043240179433,68.84043240179433,2.2,2.22,-160,254,0,-253,164,-269,183.2174572944641,183.21753811836243,183.22155833244324,183.23457884788513,183.37999749183655,183.37999749183655,183.37999749183655,183.37999749183655,183.37999749183655,183.37999749183655,183.37999749183655,186.06683778762817,3,2.826251983642578,None,,,,,,,,,,,,,,,,,,44,4,2025-02-19_12h57.49.086,comp,2024.2.4,53.383361227957415,2025-02-19 12h58.01.184577 -0500,
27,27,0,filler_random,None,None,None,None,None,None,None,None,None,None,2,4.98396372795105,None,,,,,0,0,0,0,0,27,27,158,186.084299325943,,,,,,,,,,,,,,,,,,,,,,,,,,,,,,,,,,,,,,,,,,,,,,,,,,,,,,,,,,,,,,,,,,,,,,,,,,,,,,,,,188.4894356504373,109.77876059297719,151.3943084432641,156.9276004698897,181.23166818916496,74.0050453950567,2.2,2.21,-229,-273,0,271,211,274,186.0687096118927,186.06879782676697,186.07249331474304,186.084299325943,186.2330732345581,186.2330732345581,186.2330732345581,186.2330732345581,186.2330732345581,186.2330732345581,186.2330732345581,191.08391690254211,2,4.98396372795105,None,,,,,,,,,,,,,,,,,,44,4,2025-02-19_12h57.49.086,comp,2024.2.4,53.383361227957415,2025-02-19 12h58.01.184577 -0500,
28,28,0,filler_square,None,None,None,None,None,None,None,None,None,None,1,2.372607707977295,None,,,,,0,0,0,0,0,28,28,188,191.10467982292175,,,,,,,,,,,,,,,,,,,,,,,,,,,,,,,,,,,,,,,,,,,,,,,,,,,,,,,,,,,,,,,,,,,,,,,,,,,,,,,,,87.27650684779363,87.27650684779363,67.84340067880018,58.121817274646,85.78056880980648,60.86096041174943,2.2,2.22,-169,261,0,-289,155,-279,191.08588218688965,191.08595943450928,191.08931350708008,191.10467982292175,191.25216245651245,191.25216245651245,191.25216245651245,191.25216245651245,191.25216245651245,191.25216245651245,191.25216245651245,193.48439192771912,1,2.372607707977295,None,,,,,,,,,,,,,,,,,,44,4,2025-02-19_12h57.49.086,comp,2024.2.4,53.383361227957415,2025-02-19 12h58.01.184577 -0500,
29,29,0,critical,dhw,35.0,2.1,upper,127.0,127.0,200.0,125.0,125.0,200.0,3,4.548389196395874,None,,,,,0,0,0,0,0,29,29,1,193.50393986701965,,,,,,,,,,,,,,,,,,,,,,,,,,,,,,,,,,,,,,,,,,,,,,,,,,,,,,,,,,,,,,,,,,,,,,,,,,,,,,,,,127.0,127.0,200.0,125.0,125.0,200.0,2.1,2.11,-222,255,0,257,258,-258,193.48605370521545,193.48613381385803,193.48986101150513,193.50393986701965,193.6515440940857,193.6515440940857,193.6515440940857,193.6515440940857,193.6515440940857,193.6515440940857,193.6515440940857,198.0545585155487,3,4.548389196395874,None,,,,,,,,,,,,,,,,,,44,4,2025-02-19_12h57.49.086,comp,2024.2.4,53.383361227957415,2025-02-19 12h58.01.184577 -0500,
30,30,0,filler_random,None,None,None,None,None,None,None,None,None,None,1,3.310497283935547,None,,,,,0,0,0,0,0,30,30,130,198.07113885879517,,,,,,,,,,,,,,,,,,,,,,,,,,,,,,,,,,,,,,,,,,,,,,,,,,,,,,,,,,,,,,,,,,,,,,,,,,,,,,,,,99.78766280953329,135.77136281392012,163.85197408210928,62.403489911691224,76.28866162338694,62.64550670682133,2.2,2.22,-195,280,0,-274,159,-263,198.05639004707336,198.0565185546875,198.06041765213013,198.07113885879517,198.21693110466003,198.21693110466003,198.21693110466003,198.21693110466003,198.21693110466003,198.21693110466003,198.21693110466003,201.3860728740692,1,3.310497283935547,None,,,,,,,,,,,,,,,,,,44,4,2025-02-19_12h57.49.086,comp,2024.2.4,53.383361227957415,2025-02-19 12h58.01.184577 -0500,
31,31,0,filler_square,None,None,None,None,None,None,None,None,None,None,2,1.0807628631591797,None,,,,,0,0,0,0,0,31,31,192,201.40347528457642,,,,,,,,,,,,,,,,,,,,,,,,,,,,,,,,,,,,,,,,,,,,,,,,,,,,,,,,,,,,,,,,,,,,,,,,,,,,,,,,,133.73855941522072,80.63204889594414,161.35201763762947,161.35201763762947,129.30954990012373,152.03180053304322,1.0,1.1,-697,280,-480,287,-227,287,201.388014793396,201.38812136650085,201.3918125629425,201.40347528457642,201.5549967288971,201.5549967288971,201.5549967288971,201.5549967288971,201.5549967288971,201.5549967288971,201.5549967288971,202.49669432640076,2,1.0807628631591797,None,,,,,,,,,,,,,,,,,,44,4,2025-02-19_12h57.49.086,comp,2024.2.4,53.383361227957415,2025-02-19 12h58.01.184577 -0500,
32,32,0,critical,dwh,20.0,3.0,lower,78.0,78.0,57.0,133.0,133.0,57.0,2,3.283505916595459,None,,,,,0,0,0,0,0,32,32,68,202.5132200717926,,,,,,,,,,,,,,,,,,,,,,,,,,,,,,,,,,,,,,,,,,,,,,,,,,,,,,,,,,,,,,,,,,,,,,,,,,,,,,,,,78.0,78.0,57.0,133.0,133.0,57.0,3.0,3.1,-202,274,0,-8,191,-278,202.49828577041626,202.4983639717102,202.50188326835632,202.5132200717926,202.65660667419434,202.65660667419434,202.65660667419434,202.65660667419434,202.65660667419434,202.65660667419434,202.65660667419434,205.80742979049683,2,3.283505916595459,None,,,,,,,,,,,,,,,,,,44,4,2025-02-19_12h57.49.086,comp,2024.2.4,53.383361227957415,2025-02-19 12h58.01.184577 -0500,
33,33,0,filler_random,None,None,None,None,None,None,None,None,None,None,3,3.3176989555358887,None,,,,,0,0,0,0,0,33,33,146,205.82325053215027,,,,,,,,,,,,,,,,,,,,,,,,,,,,,,,,,,,,,,,,,,,,,,,,,,,,,,,,,,,,,,,,,,,,,,,,,,,,,,,,,115.75331868132909,85.56285372091338,130.3783083107405,147.40176093254286,106.0220958207264,161.5380219843073,3.0,3.1,-212,250,0,12,250,-252,205.8092541694641,205.80933690071106,205.81255102157593,205.82325053215027,205.97329115867615,205.97329115867615,205.97329115867615,205.97329115867615,205.97329115867615,205.97329115867615,205.97329115867615,209.14784121513367,3,3.3176989555358887,None,,,,,,,,,,,,,,,,,,44,4,2025-02-19_12h57.49.086,comp,2024.2.4,53.383361227957415,2025-02-19 12h58.01.184577 -0500,
34,34,0,critical,whd,35.0,4.0,upper,125.0,200.0,200.0,125.0,127.0,127.0,1,1.5509307384490967,None,,,,,0,0,0,0,0,34,34,89,209.1661536693573,,,,,,,,,,,,,,,,,,,,,,,,,,,,,,,,,,,,,,,,,,,,,,,,,,,,,,,,,,,,,,,,,,,,,,,,,,,,,,,,,125.0,200.0,200.0,125.0,127.0,127.0,4.0,4.1,-258,-269,0,13,222,-272,209.14944648742676,209.14952111244202,209.15296411514282,209.1661536693573,209.31006336212158,209.31006336212158,209.31006336212158,209.31006336212158,209.31006336212158,209.31006336212158,209.31006336212158,210.72432351112366,1,1.5509307384490967,None,,,,,,,,,,,,,,,,,,44,4,2025-02-19_12h57.49.086,comp,2024.2.4,53.383361227957415,2025-02-19 12h58.01.184577 -0500,
35,35,0,filler_random,None,None,None,None,None,None,None,None,None,None,2,0.8411123752593994,None,,,,,0,0,0,0,0,35,35,156,210.74009895324707,,,,,,,,,,,,,,,,,,,,,,,,,,,,,,,,,,,,,,,,,,,,,,,,,,,,,,,,,,,,,,,,,,,,,,,,,,,,,,,,,106.02554134920788,74.88667178181262,180.3994342201783,113.436752087532,192.27854496157119,65.5636760088444,1.0,1.2,-190,-17,0,-15,186,-13,210.72608065605164,210.72615933418274,210.72951745986938,210.74009895324707,210.89093947410583,210.89093947410583,210.89093947410583,210.89093947410583,210.89093947410583,210.89093947410583,210.89093947410583,211.5911705493927,2,0.8411123752593994,None,,,,,,,,,,,,,,,,,,44,4,2025-02-19_12h57.49.086,comp,2024.2.4,53.383361227957415,2025-02-19 12h58.01.184577 -0500,
36,36,0,filler_random,None,None,None,None,None,None,None,None,None,None,3,1.413348913192749,None,,,,,0,0,0,0,0,36,36,147,211.60707831382751,,,,,,,,,,,,,,,,,,,,,,,,,,,,,,,,,,,,,,,,,,,,,,,,,,,,,,,,,,,,,,,,,,,,,,,,,,,,,,,,,91.47515403196809,112.70692985743557,143.2139210446235,117.07101183033546,104.92070752571964,161.43310249185345,2.1,2.11,-211,277,0,255,235,-262,211.5929250717163,211.59300327301025,211.59638094902039,211.60707831382751,211.75906562805176,211.75906562805176,211.75906562805176,211.75906562805176,211.75906562805176,211.75906562805176,211.75906562805176,213.02309226989746,3,1.413348913192749,None,,,,,,,,,,,,,,,,,,44,4,2025-02-19_12h57.49.086,comp,2024.2.4,53.383361227957415,2025-02-19 12h58.01.184577 -0500,
37,37,0,critical,wdh,20.0,2.1,upper,125.0,200.0,141.0,141.0,200.0,125.0,3,1.6374900341033936,None,,,,,0,0,0,0,0,37,37,35,213.03885293006897,,,,,,,,,,,,,,,,,,,,,,,,,,,,,,,,,,,,,,,,,,,,,,,,,,,,,,,,,,,,,,,,,,,,,,,,,,,,,,,,,125.0,200.0,141.0,141.0,200.0,125.0,2.1,2.11,-266,265,0,250,229,-253,213.02465891838074,213.02473425865173,213.02819514274597,213.03885293006897,213.18970489501953,213.18970489501953,213.18970489501953,213.18970489501953,213.18970489501953,213.18970489501953,213.18970489501953,214.69036054611206,3,1.6374900341033936,None,,,,,,,,,,,,,,,,,,44,4,2025-02-19_12h57.49.086,comp,2024.2.4,53.383361227957415,2025-02-19 12h58.01.184577 -0500,
38,38,0,catch,None,None,None,None,None,None,None,None,None,None,1,1.0263285636901855,None,,,,,0,0,0,0,0,38,38,128,214.70671582221985,,,,,,,,,,,,,,,,,,,,,,,,,,,,,,,,,,,,,,,,,,,,,,,,,,,,,,,,,,,,,,,,,,,,,,,,,,,,,,,,,178,147,107,83,82,108,4.0,4.1,-211,-276,0,-12,192,-275,214.69231534004211,214.69239330291748,214.6956491470337,214.70671582221985,214.85819554328918,214.85819554328918,214.85819554328918,214.85819554328918,214.85819554328918,214.85819554328918,214.85819554328918,215.73942232131958,1,1.0263285636901855,None,,,,,,,,,,,,,,,,,,44,4,2025-02-19_12h57.49.086,comp,2024.2.4,53.383361227957415,2025-02-19 12h58.01.184577 -0500,
39,39,0,critical,hdw,35.0,2.1,upper,200.0,125.0,127.0,127.0,125.0,200.0,3,1.2330610752105713,None,,,,,0,0,0,0,0,39,39,21,215.75601077079773,,,,,,,,,,,,,,,,,,,,,,,,,,,,,,,,,,,,,,,,,,,,,,,,,,,,,,,,,,,,,,,,,,,,,,,,,,,,,,,,,200.0,125.0,127.0,127.0,125.0,200.0,2.1,2.12,-222,-255,0,-264,260,266,215.74104690551758,215.7411391735077,215.74455404281616,215.75601077079773,215.9074034690857,215.9074034690857,215.9074034690857,215.9074034690857,215.9074034690857,215.9074034690857,215.9074034690857,216.99416303634644,3,1.2330610752105713,None,,,,,,,,,,,,,,,,,,44,4,2025-02-19_12h57.49.086,comp,2024.2.4,53.383361227957415,2025-02-19 12h58.01.184577 -0500,
40,40,0,filler_square,None,None,None,None,None,None,None,None,None,None,2,1.0014710426330566,None,,,,,0,0,0,0,0,40,40,178,217.01138377189636,,,,,,,,,,,,,,,,,,,,,,,,,,,,,,,,,,,,,,,,,,,,,,,,,,,,,,,,,,,,,,,,,,,,,,,,,,,,,,,,,82.57655403318068,103.56349103051528,118.78787399060042,118.78787399060042,85.00287600854675,87.14008969652588,1.0,1.1,-687,282,-480,284,-281,253,216.99624609947205,216.99632692337036,217.00032210350037,217.01138377189636,217.15816974639893,217.15816974639893,217.15816974639893,217.15816974639893,217.15816974639893,217.15816974639893,217.15816974639893,218.01915049552917,2,1.0014710426330566,None,,,,,,,,,,,,,,,,,,44,4,2025-02-19_12h57.49.086,comp,2024.2.4,53.383361227957415,2025-02-19 12h58.01.184577 -0500,
41,41,0,critical,hwd,20.0,1.0,upper,200.0,125.0,125.0,200.0,141.0,141.0,1,0.990239143371582,None,,,,,0,0,0,0,0,41,41,103,218.03801035881042,,,,,,,,,,,,,,,,,,,,,,,,,,,,,,,,,,,,,,,,,,,,,,,,,,,,,,,,,,,,,,,,,,,,,,,,,,,,,,,,,200.0,125.0,125.0,200.0,141.0,141.0,1.0,1.1,-738,260,-480,261,-214,254,218.02065920829773,218.02073693275452,218.0239291191101,218.03801035881042,218.17608404159546,218.17608404159546,218.17608404159546,218.17608404159546,218.17608404159546,218.17608404159546,218.17608404159546,219.04149103164673,1,0.990239143371582,None,,,,,,,,,,,,,,,,,,44,4,2025-02-19_12h57.49.086,comp,2024.2.4,53.383361227957415,2025-02-19 12h58.01.184577 -0500,
42,42,0,filler_random,None,None,None,None,None,None,None,None,None,None,3,1.544646978378296,None,,,,,0,0,0,0,0,42,42,139,219.06023025512695,,,,,,,,,,,,,,,,,,,,,,,,,,,,,,,,,,,,,,,,,,,,,,,,,,,,,,,,,,,,,,,,,,,,,,,,,,,,,,,,,108.78712293142532,111.73619181630335,152.4355250084524,94.81028110538075,170.57198300689527,148.93940313744847,2.2,2.21,-199,-264,0,274,218,262,219.04329419136047,219.04340624809265,219.0468442440033,219.06023025512695,219.20896863937378,219.20896863937378,219.20896863937378,219.20896863937378,219.20896863937378,219.20896863937378,219.20896863937378,220.60892248153687,3,1.544646978378296,None,,,,,,,,,,,,,,,,,,44,4,2025-02-19_12h57.49.086,comp,2024.2.4,53.383361227957415,2025-02-19 12h58.01.184577 -0500,
43,43,0,filler_square,None,None,None,None,None,None,None,None,None,None,3,1.185755968093872,None,,,,,0,0,0,0,0,43,43,182,220.6265149116516,,,,,,,,,,,,,,,,,,,,,,,,,,,,,,,,,,,,,,,,,,,,,,,,,,,,,,,,,,,,,,,,,,,,,,,,,,,,,,,,,93.95508600160332,61.8578148663547,72.78480258880538,70.42065676119847,118.32642568675374,118.32642568675374,2.1,2.11,-162,261,0,288,190,-267,220.61107516288757,220.61115646362305,220.61461424827576,220.6265149116516,220.77611207962036,220.77611207962036,220.77611207962036,220.77611207962036,220.77611207962036,220.77611207962036,220.77611207962036,221.82772612571716,3,1.185755968093872,None,,,,,,,,,,,,,,,,,,44,4,2025-02-19_12h57.49.086,comp,2024.2.4,53.383361227957415,2025-02-19 12h58.01.184577 -0500,
44,44,0,critical,hwd,20.0,2.1,upper,200.0,125.0,125.0,200.0,141.0,141.0,3,19.800513744354248,None,,,,,0,0,0,0,0,44,44,19,221.84531569480896,,,,,,,,,,,,,,,,,,,,,,,,,,,,,,,,,,,,,,,,,,,,,,,,,,,,,,,,,,,,,,,,,,,,,,,,,,,,,,,,,200.0,125.0,125.0,200.0,141.0,141.0,2.1,2.11,-258,281,0,269,266,-255,221.82928442955017,221.82936191558838,221.8326678276062,221.84531569480896,221.99305486679077,221.99305486679077,221.99305486679077,221.99305486679077,221.99305486679077,221.99305486679077,221.99305486679077,241.64898562431335,3,19.800513744354248,None,,,,,,,,,,,,,,,,,,44,4,2025-02-19_12h57.49.086,comp,2024.2.4,53.383361227957415,2025-02-19 12h58.01.184577 -0500,
45,45,0,filler_random,None,None,None,None,None,None,None,None,None,None,2,1.369945764541626,None,,,,,0,0,0,0,0,45,45,138,241.66643261909485,,,,,,,,,,,,,,,,,,,,,,,,,,,,,,,,,,,,,,,,,,,,,,,,,,,,,,,,,,,,,,,,,,,,,,,,,,,,,,,,,80.42769432128338,141.12043256872457,179.28384235413614,183.82766575192954,123.73539475419079,153.03463590032078,4.0,4.2,-258,-14,0,-256,264,13,241.6508731842041,241.65100979804993,241.65445828437805,241.66643261909485,241.82016324996948,241.82016324996948,241.82016324996948,241.82016324996948,241.82016324996948,241.82016324996948,241.82016324996948,243.05069494247437,2,1.369945764541626,None,,,,,,,,,,,,,,,,,,44,4,2025-02-19_12h57.49.086,comp,2024.2.4,53.383361227957415,2025-02-19 12h58.01.184577 -0500,
46,46,0,critical,dwh,35.0,4.0,lower,70.0,70.0,57.0,133.0,133.0,57.0,2,3.275416612625122,None,,,,,0,0,0,0,0,46,46,64,243.06612634658813,,,,,,,,,,,,,,,,,,,,,,,,,,,,,,,,,,,,,,,,,,,,,,,,,,,,,,,,,,,,,,,,,,,,,,,,,,,,,,,,,70.0,70.0,57.0,133.0,133.0,57.0,4.0,4.2,-198,12,0,-277,191,-19,243.05224132537842,243.05232191085815,243.05584263801575,243.06612634658813,243.2147409915924,243.2147409915924,243.2147409915924,243.2147409915924,243.2147409915924,243.2147409915924,243.2147409915924,246.35300087928772,2,3.275416612625122,None,,,,,,,,,,,,,,,,,,44,4,2025-02-19_12h57.49.086,comp,2024.2.4,53.383361227957415,2025-02-19 12h58.01.184577 -0500,
47,47,0,filler_square,None,None,None,None,None,None,None,None,None,None,3,1.2175519466400146,None,,,,,0,0,0,0,0,47,47,176,246.3708152770996,,,,,,,,,,,,,,,,,,,,,,,,,,,,,,,,,,,,,,,,,,,,,,,,,,,,,,,,,,,,,,,,,,,,,,,,,,,,,,,,,154.6825744620519,108.7429980282296,57.29276414072501,62.196779608217184,199.9976308654546,199.9976308654546,1.0,1.3,299,-279,480,-285,707,-279,246.3551573753357,246.35523915290833,246.35924243927002,246.3708152770996,246.5186185836792,246.5186185836792,246.5186185836792,246.5186185836792,246.5186185836792,246.5186185836792,246.5186185836792,247.60756015777588,3,1.2175519466400146,None,,,,,,,,,,,,,,,,,,44,4,2025-02-19_12h57.49.086,comp,2024.2.4,53.383361227957415,2025-02-19 12h58.01.184577 -0500,
48,48,0,filler_random,None,None,None,None,None,None,None,None,None,None,2,3.8126723766326904,None,,,,,0,0,0,0,0,48,48,160,247.62362265586853,,,,,,,,,,,,,,,,,,,,,,,,,,,,,,,,,,,,,,,,,,,,,,,,,,,,,,,,,,,,,,,,,,,,,,,,,,,,,,,,,152.62310649044917,162.3792733173746,153.27446308536838,191.20136466816516,196.96406242334518,68.06662269812662,1.0,1.3,207,-288,480,-282,706,-287,247.60930585861206,247.60938572883606,247.61244750022888,247.62362265586853,247.7699282169342,247.7699282169342,247.7699282169342,247.7699282169342,247.7699282169342,247.7699282169342,247.7699282169342,251.45282649993896,2,3.8126723766326904,None,,,,,,,,,,,,,,,,,,44,4,2025-02-19_12h57.49.086,comp,2024.2.4,53.383361227957415,2025-02-19 12h58.01.184577 -0500,
49,49,0,critical,dhw,35.0,4.0,upper,127.0,127.0,200.0,125.0,125.0,200.0,2,3.310683250427246,None,,,,,0,0,0,0,0,49,49,53,251.4701874256134,,,,,,,,,,,,,,,,,,,,,,,,,,,,,,,,,,,,,,,,,,,,,,,,,,,,,,,,,,,,,,,,,,,,,,,,,,,,,,,,,127.0,127.0,200.0,125.0,125.0,200.0,4.0,4.2,-222,-14,0,-275,258,1,251.45438718795776,251.45446348190308,251.45814967155457,251.4701874256134,251.62105631828308,251.62105631828308,251.62105631828308,251.62105631828308,251.62105631828308,251.62105631828308,251.62105631828308,254.78541159629822,2,3.310683250427246,None,,,,,,,,,,,,,,,,,,44,4,2025-02-19_12h57.49.086,comp,2024.2.4,53.383361227957415,2025-02-19 12h58.01.184577 -0500,
50,50,0,critical,dhw,20.0,2.1,lower,78.0,78.0,133.0,57.0,57.0,133.0,2,2.5972254276275635,None,,,,,0,0,0,0,0,50,50,26,254.80133414268494,,,,,,,,,,,,,,,,,,,,,,,,,,,,,,,,,,,,,,,,,,,,,,,,,,,,,,,,,,,,,,,,,,,,,,,,,,,,,,,,,78.0,78.0,133.0,57.0,57.0,133.0,2.1,2.12,-164,-265,0,-283,191,259,254.78689432144165,254.7869691848755,254.78993773460388,254.80133414268494,254.9404649734497,254.9404649734497,254.9404649734497,254.9404649734497,254.9404649734497,254.9404649734497,254.9404649734497,257.40437412261963,2,2.5972254276275635,None,,,,,,,,,,,,,,,,,,44,4,2025-02-19_12h57.49.086,comp,2024.2.4,53.383361227957415,2025-02-19 12h58.01.184577 -0500,
51,51,0,critical,wdh,35.0,2.1,upper,125.0,200.0,127.0,127.0,200.0,125.0,1,1.3738818168640137,None,,,,,0,0,0,0,0,51,51,9,257.4245250225067,,,,,,,,,,,,,,,,,,,,,,,,,,,,,,,,,,,,,,,,,,,,,,,,,,,,,,,,,,,,,,,,,,,,,,,,,,,,,,,,,125.0,200.0,127.0,127.0,200.0,125.0,2.1,2.12,-260,-254,0,-287,222,280,257.4058458805084,257.4059236049652,257.40917444229126,257.4245250225067,257.57177233695984,257.57177233695984,257.57177233695984,257.57177233695984,257.57177233695984,257.57177233695984,257.57177233695984,258.8047664165497,1,1.3738818168640137,None,,,,,,,,,,,,,,,,,,44,4,2025-02-19_12h57.49.086,comp,2024.2.4,53.383361227957415,2025-02-19 12h58.01.184577 -0500,
52,52,0,critical,dwh,20.0,1.0,upper,141.0,141.0,125.0,200.0,200.0,125.0,3,2.1760787963867188,None,,,,,0,0,0,0,0,52,52,67,258.8211078643799,,,,,,,,,,,,,,,,,,,,,,,,,,,,,,,,,,,,,,,,,,,,,,,,,,,,,,,,,,,,,,,,,,,,,,,,,,,,,,,,,141.0,141.0,125.0,200.0,200.0,125.0,1.0,1.1,-746,267,-480,260,-222,276,258.80628991127014,258.8063669204712,258.80963468551636,258.8211078643799,258.9731647968292,258.9731647968292,258.9731647968292,258.9731647968292,258.9731647968292,258.9731647968292,258.9731647968292,261.0101828575134,3,2.1760787963867188,None,,,,,,,,,,,,,,,,,,44,4,2025-02-19_12h57.49.086,comp,2024.2.4,53.383361227957415,2025-02-19 12h58.01.184577 -0500,
53,53,0,critical,hdw,20.0,4.0,upper,200.0,125.0,141.0,141.0,125.0,200.0,1,2.649735927581787,None,,,,,0,0,0,0,0,53,53,119,261.02662348747253,,,,,,,,,,,,,,,,,,,,,,,,,,,,,,,,,,,,,,,,,,,,,,,,,,,,,,,,,,,,,,,,,,,,,,,,,,,,,,,,,200.0,125.0,141.0,141.0,125.0,200.0,4.0,4.1,-229,-265,0,-20,266,-254,261.0117452144623,261.0118191242218,261.0153841972351,261.02662348747253,261.17366003990173,261.17366003990173,261.17366003990173,261.17366003990173,261.17366003990173,261.17366003990173,261.17366003990173,263.69427251815796,1,2.649735927581787,None,,,,,,,,,,,,,,,,,,44,4,2025-02-19_12h57.49.086,comp,2024.2.4,53.383361227957415,2025-02-19 12h58.01.184577 -0500,
54,54,0,filler_square,None,None,None,None,None,None,None,None,None,None,2,2.0622687339782715,None,,,,,0,0,0,0,0,54,54,195,263.7104871273041,,,,,,,,,,,,,,,,,,,,,,,,,,,,,,,,,,,,,,,,,,,,,,,,,,,,,,,,,,,,,,,,,,,,,,,,,,,,,,,,,59.847908869290386,59.847908869290386,59.35411921017551,57.650049021283415,59.74164057162029,58.23022208380419,4.0,4.2,-155,-13,0,-266,154,12,263.69635796546936,263.6964349746704,263.69964504241943,263.7104871273041,263.8596625328064,263.8596625328064,263.8596625328064,263.8596625328064,263.8596625328064,263.8596625328064,263.8596625328064,265.77712512016296,2,2.0622687339782715,None,,,,,,,,,,,,,,,,,,44,4,2025-02-19_12h57.49.086,comp,2024.2.4,53.383361227957415,2025-02-19 12h58.01.184577 -0500,
55,55,0,filler_square,None,None,None,None,None,None,None,None,None,None,2,0.7918593883514404,None,,,,,0,0,0,0,0,55,55,187,265.79709100723267,,,,,,,,,,,,,,,,,,,,,,,,,,,,,,,,,,,,,,,,,,,,,,,,,,,,,,,,,,,,,,,,,,,,,,,,,,,,,,,,,82.49713764771253,143.6110523512182,194.59820167081406,194.59820167081406,125.4681856993759,120.33776970148833,1.0,1.2,-265,18,0,6,253,6,265.7790684700012,265.7791669368744,265.78257489204407,265.79709100723267,265.95132780075073,265.95132780075073,265.95132780075073,265.95132780075073,265.95132780075073,265.95132780075073,265.95132780075073,266.5958616733551,2,0.7918593883514404,None,,,,,,,,,,,,,,,,,,44,4,2025-02-19_12h57.49.086,comp,2024.2.4,53.383361227957415,2025-02-19 12h58.01.184577 -0500,
56,56,0,critical,dhw,35.0,3.0,lower,70.0,70.0,133.0,57.0,57.0,133.0,3,2.2159368991851807,None,,,,,0,0,0,0,0,56,56,50,266.61239671707153,,,,,,,,,,,,,,,,,,,,,,,,,,,,,,,,,,,,,,,,,,,,,,,,,,,,,,,,,,,,,,,,,,,,,,,,,,,,,,,,,70.0,70.0,133.0,57.0,57.0,133.0,3.0,3.2,-160,-285,0,0,191,279,266.5973696708679,266.5974485874176,266.6017129421234,266.61239671707153,266.7652111053467,266.7652111053467,266.7652111053467,266.7652111053467,266.7652111053467,266.7652111053467,266.7652111053467,268.8416585922241,3,2.2159368991851807,None,,,,,,,,,,,,,,,,,,44,4,2025-02-19_12h57.49.086,comp,2024.2.4,53.383361227957415,2025-02-19 12h58.01.184577 -0500,
57,57,0,filler_random,None,None,None,None,None,None,None,None,None,None,1,1.2010514736175537,None,,,,,0,0,0,0,0,57,57,165,268.85936856269836,,,,,,,,,,,,,,,,,,,,,,,,,,,,,,,,,,,,,,,,,,,,,,,,,,,,,,,,,,,,,,,,,,,,,,,,,,,,,,,,,152.45262246497413,174.04416571234776,130.56210297078002,190.8738413325154,169.86454114903142,76.70120129373677,3.0,3.2,-278,-275,0,-2,230,290,268.8433759212494,268.8434498310089,268.84674763679504,268.85936856269836,269.0101263523102,269.0101263523102,269.0101263523102,269.0101263523102,269.0101263523102,269.0101263523102,269.0101263523102,270.0766296386719,1,1.2010514736175537,None,,,,,,,,,,,,,,,,,,44,4,2025-02-19_12h57.49.086,comp,2024.2.4,53.383361227957415,2025-02-19 12h58.01.184577 -0500,
58,58,0,filler_random,None,None,None,None,None,None,None,None,None,None,3,1.1673555374145508,None,,,,,0,0,0,0,0,58,58,142,270.09306168556213,,,,,,,,,,,,,,,,,,,,,,,,,,,,,,,,,,,,,,,,,,,,,,,,,,,,,,,,,,,,,,,,,,,,,,,,,,,,,,,,,150.58829971176135,182.30115095769176,165.69456548223582,143.42637884032075,188.3763150780368,191.26898885553592,3.0,3.1,-259,284,0,17,263,-267,270.0785925388336,270.0786702632904,270.0826635360718,270.09306168556213,270.2421324253082,270.2421324253082,270.2421324253082,270.2421324253082,270.2421324253082,270.2421324253082,270.2421324253082,271.27560544013977,3,1.1673555374145508,None,,,,,,,,,,,,,,,,,,44,4,2025-02-19_12h57.49.086,comp,2024.2.4,53.383361227957415,2025-02-19 12h58.01.184577 -0500,
59,59,0,critical,wdh,35.0,2.1,lower,57.0,133.0,70.0,70.0,133.0,57.0,1,1.9102261066436768,None,,,,,0,0,0,0,0,59,59,32,271.2951054573059,,,,,,,,,,,,,,,,,,,,,,,,,,,,,,,,,,,,,,,,,,,,,,,,,,,,,,,,,,,,,,,,,,,,,,,,,,,,,,,,,57.0,133.0,70.0,70.0,133.0,57.0,2.1,2.11,-198,262,0,286,160,-260,271.27724862098694,271.27736711502075,271.28093910217285,271.2951054573059,271.44351840019226,271.44351840019226,271.44351840019226,271.44351840019226,271.44351840019226,271.44351840019226,271.44351840019226,273.20839071273804,1,1.9102261066436768,None,,,,,,,,,,,,,,,,,,44,4,2025-02-19_12h57.49.086,comp,2024.2.4,53.383361227957415,2025-02-19 12h58.01.184577 -0500,
60,60,0,critical,dwh,20.0,2.1,lower,78.0,78.0,57.0,133.0,133.0,57.0,2,1.6421546936035156,None,,,,,0,0,0,0,0,60,60,30,273.2271661758423,,,,,,,,,,,,,,,,,,,,,,,,,,,,,,,,,,,,,,,,,,,,,,,,,,,,,,,,,,,,,,,,,,,,,,,,,,,,,,,,,78.0,78.0,57.0,133.0,133.0,57.0,2.1,2.12,-202,-252,0,-266,191,263,273.2100489139557,273.21016001701355,273.21392488479614,273.2271661758423,273.3752086162567,273.3752086162567,273.3752086162567,273.3752086162567,273.3752086162567,273.3752086162567,273.3752086162567,274.87631583213806,2,1.6421546936035156,None,,,,,,,,,,,,,,,,,,44,4,2025-02-19_12h57.49.086,comp,2024.2.4,53.383361227957415,2025-02-19 12h58.01.184577 -0500,
61,61,0,critical,dhw,20.0,4.0,lower,78.0,78.0,133.0,57.0,57.0,133.0,3,2.230865478515625,None,,,,,0,0,0,0,0,61,61,58,274.89313292503357,,,,,,,,,,,,,,,,,,,,,,,,,,,,,,,,,,,,,,,,,,,,,,,,,,,,,,,,,,,,,,,,,,,,,,,,,,,,,,,,,78.0,78.0,133.0,57.0,57.0,133.0,4.0,4.1,-164,-258,0,-5,191,-279,274.87796115875244,274.87807750701904,274.88160705566406,274.89313292503357,275.044136762619,275.044136762619,275.044136762619,275.044136762619,275.044136762619,275.044136762619,275.044136762619,277.1365256309509,3,2.230865478515625,None,,,,,,,,,,,,,,,,,,44,4,2025-02-19_12h57.49.086,comp,2024.2.4,53.383361227957415,2025-02-19 12h58.01.184577 -0500,
62,62,0,filler_square,None,None,None,None,None,None,None,None,None,None,2,1.1064867973327637,None,,,,,0,0,0,0,0,62,62,204,277.14669013023376,,,,,,,,,,,,,,,,,,,,,,,,,,,,,,,,,,,,,,,,,,,,,,,,,,,,,,,,,,,,,,,,,,,,,,,,,,,,,,,,,59.08235037775819,68.68823584306273,81.13249871345667,81.13249871345667,65.71020507530395,77.02478932839341,2.1,2.11,-171,279,0,261,175,-267,277.1370539665222,277.13707542419434,277.1378643512726,277.14669013023376,277.3013970851898,277.3013970851898,277.3013970851898,277.3013970851898,277.3013970851898,277.3013970851898,277.3013970851898,278.26247572898865,2,1.1064867973327637,None,,,,,,,,,,,,,,,,,,44,4,2025-02-19_12h57.49.086,comp,2024.2.4,53.383361227957415,2025-02-19 12h58.01.184577 -0500,
63,63,0,critical,hwd,20.0,2.1,lower,133.0,57.0,57.0,133.0,78.0,78.0,2,18.00652551651001,None,,,,,0,0,0,0,0,63,63,42,278.2781910896301,,,,,,,,,,,,,,,,,,,,,,,,,,,,,,,,,,,,,,,,,,,,,,,,,,,,,,,,,,,,,,,,,,,,,,,,,,,,,,,,,133.0,57.0,57.0,133.0,78.0,78.0,2.1,2.12,-191,-258,0,-281,202,279,278.2640132904053,278.26413106918335,278.2676508426666,278.2781910896301,278.42645835876465,278.42645835876465,278.42645835876465,278.42645835876465,278.42645835876465,278.42645835876465,278.42645835876465,296.30081009864807,2,18.00652551651001,None,,,,,,,,,,,,,,,,,,44,4,2025-02-19_12h57.49.086,comp,2024.2.4,53.383361227957415,2025-02-19 12h58.01.184577 -0500,
64,64,0,critical,dhw,20.0,1.0,lower,78.0,78.0,133.0,57.0,57.0,133.0,1,1.7115931510925293,None,,,,,0,0,0,0,0,64,64,54,296.3168857097626,,,,,,,,,,,,,,,,,,,,,,,,,,,,,,,,,,,,,,,,,,,,,,,,,,,,,,,,,,,,,,,,,,,,,,,,,,,,,,,,,78.0,78.0,133.0,57.0,57.0,133.0,1.0,1.2,-164,-10,0,17,191,-4,296.30235481262207,296.3024311065674,296.3066098690033,296.3168857097626,296.455317735672,296.455317735672,296.455317735672,296.455317735672,296.455317735672,296.455317735672,296.455317735672,298.0343282222748,1,1.7115931510925293,None,,,,,,,,,,,,,,,,,,44,4,2025-02-19_12h57.49.086,comp,2024.2.4,53.383361227957415,2025-02-19 12h58.01.184577 -0500,
65,65,0,critical,dwh,35.0,1.0,upper,127.0,127.0,125.0,200.0,200.0,125.0,3,2.163926601409912,None,,,,,0,0,0,0,0,65,65,61,298.05053997039795,,,,,,,,,,,,,,,,,,,,,,,,,,,,,,,,,,,,,,,,,,,,,,,,,,,,,,,,,,,,,,,,,,,,,,,,,,,,,,,,,127.0,127.0,125.0,200.0,200.0,125.0,1.0,1.3,220,-280,480,-253,738,-262,298.0350503921509,298.03508615493774,298.0364773273468,298.05053997039795,298.20816946029663,298.20816946029663,298.20816946029663,298.20816946029663,298.20816946029663,298.20816946029663,298.20816946029663,300.2176721096039,3,2.163926601409912,None,,,,,,,,,,,,,,,,,,44,4,2025-02-19_12h57.49.086,comp,2024.2.4,53.383361227957415,2025-02-19 12h58.01.184577 -0500,
66,66,0,filler_random,None,None,None,None,None,None,None,None,None,None,3,1.3379108905792236,None,,,,,0,0,0,0,0,66,66,154,300.234482049942,,,,,,,,,,,,,,,,,,,,,,,,,,,,,,,,,,,,,,,,,,,,,,,,,,,,,,,,,,,,,,,,,,,,,,,,,,,,,,,,,152.05053871881478,124.97035375486075,152.22065759439795,127.33362450019078,180.53772445026289,182.1591992023889,2.2,2.21,-222,-263,0,281,251,283,300.21940636634827,300.21948742866516,300.22272634506226,300.234482049942,300.38358640670776,300.38358640670776,300.38358640670776,300.38358640670776,300.38358640670776,300.38358640670776,300.38358640670776,301.5851228237152,3,1.3379108905792236,None,,,,,,,,,,,,,,,,,,44,4,2025-02-19_12h57.49.086,comp,2024.2.4,53.383361227957415,2025-02-19 12h58.01.184577 -0500,
67,67,0,critical,wdh,20.0,3.0,upper,125.0,200.0,141.0,141.0,200.0,125.0,1,1.3233916759490967,None,,,,,0,0,0,0,0,67,67,81,301.601047039032,,,,,,,,,,,,,,,,,,,,,,,,,,,,,,,,,,,,,,,,,,,,,,,,,,,,,,,,,,,,,,,,,,,,,,,,,,,,,,,,,125.0,200.0,141.0,141.0,200.0,125.0,3.0,3.1,-266,261,0,2,229,-264,301.58655524253845,301.58662939071655,301.58991265296936,301.601047039032,301.7538194656372,301.7538194656372,301.7538194656372,301.7538194656372,301.7538194656372,301.7538194656372,301.7538194656372,302.9376709461212,1,1.3233916759490967,None,,,,,,,,,,,,,,,,,,44,4,2025-02-19_12h57.49.086,comp,2024.2.4,53.383361227957415,2025-02-19 12h58.01.184577 -0500,
68,68,0,filler_random,None,None,None,None,None,None,None,None,None,None,2,1.4823105335235596,None,,,,,0,0,0,0,0,68,68,168,302.9539816379547,,,,,,,,,,,,,,,,,,,,,,,,,,,,,,,,,,,,,,,,,,,,,,,,,,,,,,,,,,,,,,,,,,,,,,,,,,,,,,,,,79.27369053524049,107.29159443249755,154.94309830756276,85.69383360265839,119.28141275043967,136.5405528854058,2.2,2.21,-192,-259,0,289,207,289,302.939532995224,302.9396126270294,302.94361567497253,302.9539816379547,303.10159826278687,303.10159826278687,303.10159826278687,303.10159826278687,303.10159826278687,303.10159826278687,303.10159826278687,304.43853664398193,2,1.4823105335235596,None,,,,,,,,,,,,,,,,,,44,4,2025-02-19_12h57.49.086,comp,2024.2.4,53.383361227957415,2025-02-19 12h58.01.184577 -0500,
69,69,0,critical,dhw,20.0,2.1,upper,141.0,141.0,200.0,125.0,125.0,200.0,3,1.9895915985107422,None,,,,,0,0,0,0,0,69,69,27,304.4548439979553,,,,,,,,,,,,,,,,,,,,,,,,,,,,,,,,,,,,,,,,,,,,,,,,,,,,,,,,,,,,,,,,,,,,,,,,,,,,,,,,,141.0,141.0,200.0,125.0,125.0,200.0,2.1,2.12,-229,-260,0,-267,258,289,304.44025015830994,304.44037413597107,304.443966627121,304.4548439979553,304.6046574115753,304.6046574115753,304.6046574115753,304.6046574115753,304.6046574115753,304.6046574115753,304.6046574115753,306.4544532299042,3,1.9895915985107422,None,,,,,,,,,,,,,,,,,,44,4,2025-02-19_12h57.49.086,comp,2024.2.4,53.383361227957415,2025-02-19 12h58.01.184577 -0500,
70,70,0,critical,hdw,35.0,4.0,lower,133.0,57.0,70.0,70.0,57.0,133.0,1,2.5267391204833984,None,,,,,0,0,0,0,0,70,70,112,306.4706802368164,,,,,,,,,,,,,,,,,,,,,,,,,,,,,,,,,,,,,,,,,,,,,,,,,,,,,,,,,,,,,,,,,,,,,,,,,,,,,,,,,133.0,57.0,70.0,70.0,57.0,133.0,4.0,4.1,-160,-277,0,-3,198,-256,306.4560737609863,306.4561541080475,306.4597647190094,306.4706802368164,306.62146854400635,306.62146854400635,306.62146854400635,306.62146854400635,306.62146854400635,306.62146854400635,306.62146854400635,309.0080180168152,1,2.5267391204833984,None,,,,,,,,,,,,,,,,,,44,4,2025-02-19_12h57.49.086,comp,2024.2.4,53.383361227957415,2025-02-19 12h58.01.184577 -0500,
71,71,0,critical,whd,35.0,3.0,lower,57.0,133.0,133.0,57.0,70.0,70.0,1,1.3400559425354004,None,,,,,0,0,0,0,0,71,71,86,309.024493932724,,,,,,,,,,,,,,,,,,,,,,,,,,,,,,,,,,,,,,,,,,,,,,,,,,,,,,,,,,,,,,,,,,,,,,,,,,,,,,,,,57.0,133.0,133.0,57.0,70.0,70.0,3.0,3.1,-191,286,0,-12,160,-257,309.00951957702637,309.0095977783203,309.0131688117981,309.024493932724,309.1746928691864,309.1746928691864,309.1746928691864,309.1746928691864,309.1746928691864,309.1746928691864,309.1746928691864,310.38234853744507,1,1.3400559425354004,None,,,,,,,,,,,,,,,,,,44,4,2025-02-19_12h57.49.086,comp,2024.2.4,53.383361227957415,2025-02-19 12h58.01.184577 -0500,
72,72,0,critical,dhw,35.0,2.1,lower,70.0,70.0,133.0,57.0,57.0,133.0,3,1.5409200191497803,None,,,,,0,0,0,0,0,72,72,24,310.40025186538696,,,,,,,,,,,,,,,,,,,,,,,,,,,,,,,,,,,,,,,,,,,,,,,,,,,,,,,,,,,,,,,,,,,,,,,,,,,,,,,,,70.0,70.0,133.0,57.0,57.0,133.0,2.1,2.11,-160,263,0,266,191,-254,310.38389444351196,310.38396978378296,310.38752818107605,310.40025186538696,310.5399262905121,310.5399262905121,310.5399262905121,310.5399262905121,310.5399262905121,310.5399262905121,310.5399262905121,311.9501357078552,3,1.5409200191497803,None,,,,,,,,,,,,,,,,,,44,4,2025-02-19_12h57.49.086,comp,2024.2.4,53.383361227957415,2025-02-19 12h58.01.184577 -0500,
73,73,0,critical,whd,35.0,2.1,lower,57.0,133.0,133.0,57.0,70.0,70.0,2,4.185757637023926,None,,,,,0,0,0,0,0,73,73,12,311.9709949493408,,,,,,,,,,,,,,,,,,,,,,,,,,,,,,,,,,,,,,,,,,,,,,,,,,,,,,,,,,,,,,,,,,,,,,,,,,,,,,,,,57.0,133.0,133.0,57.0,70.0,70.0,2.1,2.12,-191,-270,0,-262,160,285,311.951776266098,311.951851606369,311.95535826683044,311.9709949493408,312.107134103775,312.107134103775,312.107134103775,312.107134103775,312.107134103775,312.107134103775,312.107134103775,316.1617865562439,2,4.185757637023926,None,,,,,,,,,,,,,,,,,,44,4,2025-02-19_12h57.49.086,comp,2024.2.4,53.383361227957415,2025-02-19 12h58.01.184577 -0500,
74,74,0,catch,None,None,None,None,None,None,None,None,None,None,1,1.0386772155761719,None,,,,,0,0,0,0,0,74,74,121,316.1826202869415,,,,,,,,,,,,,,,,,,,,,,,,,,,,,,,,,,,,,,,,,,,,,,,,,,,,,,,,,,,,,,,,,,,,,,,,,,,,,,,,,155,170,131,59,83,107,2.2,2.21,-210,-267,0,283,179,255,316.1637210845947,316.1638014316559,316.1668815612793,316.1826202869415,316.32604241371155,316.32604241371155,316.32604241371155,316.32604241371155,316.32604241371155,316.32604241371155,316.32604241371155,317.2286729812622,1,1.0386772155761719,None,,,,,,,,,,,,,,,,,,44,4,2025-02-19_12h57.49.086,comp,2024.2.4,53.383361227957415,2025-02-19 12h58.01.184577 -0500,
75,75,0,filler_random,None,None,None,None,None,None,None,None,None,None,3,0.9868903160095215,None,,,,,0,0,0,0,0,75,75,152,317.24401021003723,,,,,,,,,,,,,,,,,,,,,,,,,,,,,,,,,,,,,,,,,,,,,,,,,,,,,,,,,,,,,,,,,,,,,,,,,,,,,,,,,166.27049111711827,75.35976063810718,184.12310792140224,113.6896102707185,172.17765839329786,166.458111673687,2.2,2.22,-191,278,0,-271,236,-289,317.2303521633148,317.230427980423,317.233446598053,317.24401021003723,317.39012694358826,317.39012694358826,317.39012694358826,317.39012694358826,317.39012694358826,317.39012694358826,317.39012694358826,318.24137806892395,3,0.9868903160095215,None,,,,,,,,,,,,,,,,,,44,4,2025-02-19_12h57.49.086,comp,2024.2.4,53.383361227957415,2025-02-19 12h58.01.184577 -0500,
76,76,0,critical,hdw,35.0,1.0,upper,200.0,125.0,127.0,127.0,125.0,200.0,3,1.2912321090698242,None,,,,,0,0,0,0,0,76,76,109,318.2578287124634,,,,,,,,,,,,,,,,,,,,,,,,,,,,,,,,,,,,,,,,,,,,,,,,,,,,,,,,,,,,,,,,,,,,,,,,,,,,,,,,,200.0,125.0,127.0,127.0,125.0,200.0,1.0,1.2,-222,19,0,-10,260,-13,318.24288511276245,318.24296402931213,318.2471923828125,318.2578287124634,318.4144194126129,318.4144194126129,318.4144194126129,318.4144194126129,318.4144194126129,318.4144194126129,318.4144194126129,319.558185338974,3,1.2912321090698242,None,,,,,,,,,,,,,,,,,,44,4,2025-02-19_12h57.49.086,comp,2024.2.4,53.383361227957415,2025-02-19 12h58.01.184577 -0500,
77,77,0,filler_random,None,None,None,None,None,None,None,None,None,None,1,0.7819538116455078,None,,,,,0,0,0,0,0,77,77,151,319.5743975639343,,,,,,,,,,,,,,,,,,,,,,,,,,,,,,,,,,,,,,,,,,,,,,,,,,,,,,,,,,,,,,,,,,,,,,,,,,,,,,,,,183.37848709428937,198.05224103625113,79.34173823552705,175.9239949694271,130.01444591765272,91.6260355352988,2.2,2.22,-283,283,0,-258,230,-269,319.56000447273254,319.5601644515991,319.56370544433594,319.5743975639343,319.7318572998047,319.7318572998047,319.7318572998047,319.7318572998047,319.7318572998047,319.7318572998047,319.7318572998047,320.365690946579,1,0.7819538116455078,None,,,,,,,,,,,,,,,,,,44,4,2025-02-19_12h57.49.086,comp,2024.2.4,53.383361227957415,2025-02-19 12h58.01.184577 -0500,
78,78,0,critical,dhw,20.0,3.0,lower,78.0,78.0,133.0,57.0,57.0,133.0,2,1.5510883331298828,None,,,,,0,0,0,0,0,78,78,56,320.38265800476074,,,,,,,,,,,,,,,,,,,,,,,,,,,,,,,,,,,,,,,,,,,,,,,,,,,,,,,,,,,,,,,,,,,,,,,,,,,,,,,,,78.0,78.0,133.0,57.0,57.0,133.0,3.0,3.1,-164,260,0,7,191,-259,320.3673496246338,320.36745977401733,320.37099504470825,320.38265800476074,320.52579712867737,320.52579712867737,320.52579712867737,320.52579712867737,320.52579712867737,320.52579712867737,320.52579712867737,321.9452631473541,2,1.5510883331298828,None,,,,,,,,,,,,,,,,,,44,4,2025-02-19_12h57.49.086,comp,2024.2.4,53.383361227957415,2025-02-19 12h58.01.184577 -0500,
79,79,0,critical,dhw,35.0,2.1,lower,70.0,70.0,133.0,57.0,57.0,133.0,3,1.467069387435913,None,,,,,0,0,0,0,0,79,79,0,321.96128249168396,,,,,,,,,,,,,,,,,,,,,,,,,,,,,,,,,,,,,,,,,,,,,,,,,,,,,,,,,,,,,,,,,,,,,,,,,,,,,,,,,70.0,70.0,133.0,57.0,57.0,133.0,2.1,2.11,-160,280,0,269,191,-268,321.94689106941223,321.9469723701477,321.95062613487244,321.96128249168396,322.1137535572052,322.1137535572052,322.1137535572052,322.1137535572052,322.1137535572052,322.1137535572052,322.1137535572052,323.44335651397705,3,1.467069387435913,None,,,,,,,,,,,,,,,,,,44,4,2025-02-19_12h57.49.086,comp,2024.2.4,53.383361227957415,2025-02-19 12h58.01.184577 -0500,
80,80,0,filler_square,None,None,None,None,None,None,None,None,None,None,3,0.9458258152008057,None,,,,,0,0,0,0,0,80,80,206,323.4593493938446,,,,,,,,,,,,,,,,,,,,,,,,,,,,,,,,,,,,,,,,,,,,,,,,,,,,,,,,,,,,,,,,,,,,,,,,,,,,,,,,,60.63256049875733,64.91929655443255,71.23151678838673,74.22399990333025,83.39522332064986,83.39522332064986,3.0,3.2,-166,-280,0,14,175,259,323.4452714920044,323.4453511238098,323.44906663894653,323.4593493938446,323.60984206199646,323.60984206199646,323.60984206199646,323.60984206199646,323.60984206199646,323.60984206199646,323.60984206199646,324.4148600101471,3,0.9458258152008057,None,,,,,,,,,,,,,,,,,,44,4,2025-02-19_12h57.49.086,comp,2024.2.4,53.383361227957415,2025-02-19 12h58.01.184577 -0500,
81,81,0,filler_square,None,None,None,None,None,None,None,None,None,None,2,7.987656116485596,None,,,,,0,0,0,0,0,81,81,177,324.4352774620056,,,,,,,,,,,,,,,,,,,,,,,,,,,,,,,,,,,,,,,,,,,,,,,,,,,,,,,,,,,,,,,,,,,,,,,,,,,,,,,,,57.3084339465128,57.081000513055024,57.61597925327575,57.61597925327575,57.39358808345917,57.07418971748748,1.0,1.1,-633,263,-480,262,-327,255,324.4166178703308,324.4166958332062,324.4197027683258,324.4352774620056,324.57540345191956,324.57540345191956,324.57540345191956,324.57540345191956,324.57540345191956,324.57540345191956,324.57540345191956,332.42770552635193,2,7.987656116485596,None,,,,,,,,,,,,,,,,,,44,4,2025-02-19_12h57.49.086,comp,2024.2.4,53.383361227957415,2025-02-19 12h58.01.184577 -0500,
82,82,0,critical,dhw,35.0,3.0,upper,127.0,127.0,200.0,125.0,125.0,200.0,2,1.968585729598999,None,,,,,0,0,0,0,0,82,82,51,332.4438819885254,,,,,,,,,,,,,,,,,,,,,,,,,,,,,,,,,,,,,,,,,,,,,,,,,,,,,,,,,,,,,,,,,,,,,,,,,,,,,,,,,127.0,127.0,200.0,125.0,125.0,200.0,3.0,3.2,-222,-278,0,11,258,282,332.4292528629303,332.42933106422424,332.43256664276123,332.4438819885254,332.59510135650635,332.59510135650635,332.59510135650635,332.59510135650635,332.59510135650635,332.59510135650635,332.59510135650635,334.42900919914246,2,1.968585729598999,None,,,,,,,,,,,,,,,,,,44,4,2025-02-19_12h57.49.086,comp,2024.2.4,53.383361227957415,2025-02-19 12h58.01.184577 -0500,
83,83,0,critical,dhw,20.0,3.0,upper,141.0,141.0,200.0,125.0,125.0,200.0,2,1.4805350303649902,None,,,,,0,0,0,0,0,83,83,57,334.44464087486267,,,,,,,,,,,,,,,,,,,,,,,,,,,,,,,,,,,,,,,,,,,,,,,,,,,,,,,,,,,,,,,,,,,,,,,,,,,,,,,,,141.0,141.0,200.0,125.0,125.0,200.0,3.0,3.2,-229,-275,0,-9,258,256,334.43063735961914,334.4307277202606,334.43433928489685,334.44464087486267,334.6035032272339,334.6035032272339,334.6035032272339,334.6035032272339,334.6035032272339,334.6035032272339,334.6035032272339,335.92999839782715,2,1.4805350303649902,None,,,,,,,,,,,,,,,,,,44,4,2025-02-19_12h57.49.086,comp,2024.2.4,53.383361227957415,2025-02-19 12h58.01.184577 -0500,
84,84,0,filler_random,None,None,None,None,None,None,None,None,None,None,3,2.1307241916656494,None,,,,,0,0,0,0,0,84,84,134,335.94658637046814,,,,,,,,,,,,,,,,,,,,,,,,,,,,,,,,,,,,,,,,,,,,,,,,,,,,,,,,,,,,,,,,,,,,,,,,,,,,,,,,,193.5077195266474,89.55033258198684,85.58292325938089,82.22198538509213,94.46721037188107,177.34027908660042,2.2,2.21,-182,-274,0,270,226,269,335.9317076206207,335.9317898750305,335.93536734580994,335.94658637046814,336.0969727039337,336.0969727039337,336.0969727039337,336.0969727039337,336.0969727039337,336.0969727039337,336.0969727039337,338.08340883255005,3,2.1307241916656494,None,,,,,,,,,,,,,,,,,,44,4,2025-02-19_12h57.49.086,comp,2024.2.4,53.383361227957415,2025-02-19 12h58.01.184577 -0500,
85,85,0,critical,hdw,35.0,2.1,lower,133.0,57.0,70.0,70.0,57.0,133.0,3,2.3372652530670166,None,,,,,0,0,0,0,0,85,85,44,338.0998616218567,,,,,,,,,,,,,,,,,,,,,,,,,,,,,,,,,,,,,,,,,,,,,,,,,,,,,,,,,,,,,,,,,,,,,,,,,,,,,,,,,133.0,57.0,70.0,70.0,57.0,133.0,2.1,2.12,-160,-267,0,-273,198,272,338.0850148200989,338.0851163864136,338.0883071422577,338.0998616218567,338.2464370727539,338.2464370727539,338.2464370727539,338.2464370727539,338.2464370727539,338.2464370727539,338.2464370727539,340.44667172431946,3,2.3372652530670166,None,,,,,,,,,,,,,,,,,,44,4,2025-02-19_12h57.49.086,comp,2024.2.4,53.383361227957415,2025-02-19 12h58.01.184577 -0500,
86,86,0,critical,wdh,20.0,2.1,upper,125.0,200.0,141.0,141.0,200.0,125.0,3,1.6054790019989014,None,,,,,0,0,0,0,0,86,86,11,340.4631850719452,,,,,,,,,,,,,,,,,,,,,,,,,,,,,,,,,,,,,,,,,,,,,,,,,,,,,,,,,,,,,,,,,,,,,,,,,,,,,,,,,125.0,200.0,141.0,141.0,200.0,125.0,2.1,2.11,-266,281,0,262,229,-267,340.44821977615356,340.44829964637756,340.45159912109375,340.4631850719452,340.61401748657227,340.61401748657227,340.61401748657227,340.61401748657227,340.61401748657227,340.61401748657227,340.61401748657227,342.08398270606995,3,1.6054790019989014,None,,,,,,,,,,,,,,,,,,44,4,2025-02-19_12h57.49.086,comp,2024.2.4,53.383361227957415,2025-02-19 12h58.01.184577 -0500,
87,87,0,critical,dhw,20.0,2.1,lower,78.0,78.0,133.0,57.0,57.0,133.0,3,1.4919593334197998,None,,,,,0,0,0,0,0,87,87,2,342.104576587677,,,,,,,,,,,,,,,,,,,,,,,,,,,,,,,,,,,,,,,,,,,,,,,,,,,,,,,,,,,,,,,,,,,,,,,,,,,,,,,,,78.0,78.0,133.0,57.0,57.0,133.0,2.1,2.12,-164,-285,0,-288,191,271,342.08562779426575,342.0857536792755,342.08929109573364,342.104576587677,342.24837589263916,342.24837589263916,342.24837589263916,342.24837589263916,342.24837589263916,342.24837589263916,342.24837589263916,343.6009690761566,3,1.4919593334197998,None,,,,,,,,,,,,,,,,,,44,4,2025-02-19_12h57.49.086,comp,2024.2.4,53.383361227957415,2025-02-19 12h58.01.184577 -0500,
88,88,0,filler_square,None,None,None,None,None,None,None,None,None,None,1,1.170389175415039,None,,,,,0,0,0,0,0,88,88,190,343.6179766654968,,,,,,,,,,,,,,,,,,,,,,,,,,,,,,,,,,,,,,,,,,,,,,,,,,,,,,,,,,,,,,,,,,,,,,,,,,,,,,,,,111.34644954286964,111.34644954286964,77.51296294681515,62.07499358601486,78.9033334077321,97.41295006878644,1.0,1.1,-663,281,-480,253,-304,276,343.60307097435,343.6031560897827,343.6069447994232,343.6179766654968,343.7645733356476,343.7645733356476,343.7645733356476,343.7645733356476,343.7645733356476,343.7645733356476,343.7645733356476,344.7991099357605,1,1.170389175415039,None,,,,,,,,,,,,,,,,,,44,4,2025-02-19_12h57.49.086,comp,2024.2.4,53.383361227957415,2025-02-19 12h58.01.184577 -0500,
89,89,0,critical,wdh,35.0,3.0,upper,125.0,200.0,127.0,127.0,200.0,125.0,3,1.573655128479004,None,,,,,0,0,0,0,0,89,89,75,344.8147523403168,,,,,,,,,,,,,,,,,,,,,,,,,,,,,,,,,,,,,,,,,,,,,,,,,,,,,,,,,,,,,,,,,,,,,,,,,,,,,,,,,125.0,200.0,127.0,127.0,200.0,125.0,3.0,3.1,-260,283,0,-20,222,-283,344.80070972442627,344.8007900714874,344.8041663169861,344.8147523403168,344.96588349342346,344.96588349342346,344.96588349342346,344.96588349342346,344.96588349342346,344.96588349342346,344.96588349342346,346.3987498283386,3,1.573655128479004,None,,,,,,,,,,,,,,,,,,44,4,2025-02-19_12h57.49.086,comp,2024.2.4,53.383361227957415,2025-02-19 12h58.01.184577 -0500,
90,90,0,filler_random,None,None,None,None,None,None,None,None,None,None,2,1.0265443325042725,None,,,,,0,0,0,0,0,90,90,131,346.41839146614075,,,,,,,,,,,,,,,,,,,,,,,,,,,,,,,,,,,,,,,,,,,,,,,,,,,,,,,,,,,,,,,,,,,,,,,,,,,,,,,,,181.08893456287214,91.70294074577023,62.01642692108276,159.18607774764553,133.9029799671938,66.95368101424332,2.2,2.22,-221,279,0,-251,209,-258,346.4006760120392,346.4008135795593,346.4042465686798,346.41839146614075,346.5676476955414,346.5676476955414,346.5676476955414,346.5676476955414,346.5676476955414,346.5676476955414,346.5676476955414,347.4470672607422,2,1.0265443325042725,None,,,,,,,,,,,,,,,,,,44,4,2025-02-19_12h57.49.086,comp,2024.2.4,53.383361227957415,2025-02-19 12h58.01.184577 -0500,
91,91,0,filler_random,None,None,None,None,None,None,None,None,None,None,3,0.48427295684814453,None,,,,,0,0,0,0,0,91,91,150,347.46448254585266,,,,,,,,,,,,,,,,,,,,,,,,,,,,,,,,,,,,,,,,,,,,,,,,,,,,,,,,,,,,,,,,,,,,,,,,,,,,,,,,,138.57978173506547,145.61717740326162,61.50254380779907,124.68545465526024,65.32074069175184,171.65509286177394,2.1,2.12,-231,-282,0,-263,244,263,347.44896507263184,347.44907307624817,347.45238876342773,347.46448254585266,347.59962701797485,347.59962701797485,347.59962701797485,347.59962701797485,347.59962701797485,347.59962701797485,347.59962701797485,347.95436811447144,3,0.48427295684814453,None,,,,,,,,,,,,,,,,,,44,4,2025-02-19_12h57.49.086,comp,2024.2.4,53.383361227957415,2025-02-19 12h58.01.184577 -0500,
92,92,0,critical,hdw,35.0,4.0,upper,200.0,125.0,127.0,127.0,125.0,200.0,1,2.842961072921753,None,,,,,0,0,0,0,0,92,92,113,347.9698634147644,,,,,,,,,,,,,,,,,,,,,,,,,,,,,,,,,,,,,,,,,,,,,,,,,,,,,,,,,,,,,,,,,,,,,,,,,,,,,,,,,200.0,125.0,127.0,127.0,125.0,200.0,4.0,4.2,-222,16,0,-273,260,7,347.95608019828796,347.9561605453491,347.95921421051025,347.9698634147644,348.11693000793457,348.11693000793457,348.11693000793457,348.11693000793457,348.11693000793457,348.11693000793457,348.11693000793457,350.8183147907257,1,2.842961072921753,None,,,,,,,,,,,,,,,,,,44,4,2025-02-19_12h57.49.086,comp,2024.2.4,53.383361227957415,2025-02-19 12h58.01.184577 -0500,
93,93,0,critical,hdw,20.0,1.0,lower,133.0,57.0,78.0,78.0,57.0,133.0,3,6.810177803039551,None,,,,,0,0,0,0,0,93,93,114,350.8342237472534,,,,,,,,,,,,,,,,,,,,,,,,,,,,,,,,,,,,,,,,,,,,,,,,,,,,,,,,,,,,,,,,,,,,,,,,,,,,,,,,,133.0,57.0,78.0,78.0,57.0,133.0,1.0,1.1,-644,287,-480,289,-278,265,350.8198742866516,350.819952249527,350.8235430717468,350.8342237472534,350.98318815231323,350.98318815231323,350.98318815231323,350.98318815231323,350.98318815231323,350.98318815231323,350.98318815231323,357.6535556316376,3,6.810177803039551,None,,,,,,,,,,,,,,,,,,44,4,2025-02-19_12h57.49.086,comp,2024.2.4,53.383361227957415,2025-02-19 12h58.01.184577 -0500,
94,94,0,filler_random,None,None,None,None,None,None,None,None,None,None,3,0.7912907600402832,None,,,,,0,0,0,0,0,94,94,145,357.66963243484497,,,,,,,,,,,,,,,,,,,,,,,,,,,,,,,,,,,,,,,,,,,,,,,,,,,,,,,,,,,,,,,,,,,,,,,,,,,,,,,,,91.94097878625291,70.20066259872212,132.54101734606775,75.36677226698532,86.07147734423246,165.78807369811085,2.1,2.12,-169,-277,0,-272,217,274,357.6552400588989,357.6553177833557,357.65879249572754,357.66963243484497,357.81891560554504,357.81891560554504,357.81891560554504,357.81891560554504,357.81891560554504,357.81891560554504,357.81891560554504,358.47246837615967,3,0.7912907600402832,None,,,,,,,,,,,,,,,,,,44,4,2025-02-19_12h57.49.086,comp,2024.2.4,53.383361227957415,2025-02-19 12h58.01.184577 -0500,
95,95,0,critical,hwd,35.0,2.1,upper,200.0,125.0,125.0,200.0,127.0,127.0,1,0.985257625579834,None,,,,,0,0,0,0,0,95,95,41,358.4913101196289,,,,,,,,,,,,,,,,,,,,,,,,,,,,,,,,,,,,,,,,,,,,,,,,,,,,,,,,,,,,,,,,,,,,,,,,,,,,,,,,,200.0,125.0,125.0,200.0,127.0,127.0,2.1,2.11,-258,251,0,275,260,-261,358.47410893440247,358.47418785095215,358.4773979187012,358.4913101196289,358.63705110549927,358.63705110549927,358.63705110549927,358.63705110549927,358.63705110549927,358.63705110549927,358.63705110549927,359.4943468570709,1,0.985257625579834,None,,,,,,,,,,,,,,,,,,44,4,2025-02-19_12h57.49.086,comp,2024.2.4,53.383361227957415,2025-02-19 12h58.01.184577 -0500,
96,96,0,critical,hwd,35.0,2.1,lower,133.0,57.0,57.0,133.0,70.0,70.0,3,0.903064489364624,None,,,,,0,0,0,0,0,96,96,16,359.511607170105,,,,,,,,,,,,,,,,,,,,,,,,,,,,,,,,,,,,,,,,,,,,,,,,,,,,,,,,,,,,,,,,,,,,,,,,,,,,,,,,,133.0,57.0,57.0,133.0,70.0,70.0,2.1,2.12,-191,-264,0,-266,198,253,359.49584794044495,359.4959247112274,359.49897861480713,359.511607170105,359.65420174598694,359.65420174598694,359.65420174598694,359.65420174598694,359.65420174598694,359.65420174598694,359.65420174598694,360.42043590545654,3,0.903064489364624,None,,,,,,,,,,,,,,,,,,44,4,2025-02-19_12h57.49.086,comp,2024.2.4,53.383361227957415,2025-02-19 12h58.01.184577 -0500,
97,97,0,critical,dhw,35.0,4.0,lower,70.0,70.0,133.0,57.0,57.0,133.0,2,0.8232269287109375,None,,,,,0,0,0,0,0,97,97,52,360.4372944831848,,,,,,,,,,,,,,,,,,,,,,,,,,,,,,,,,,,,,,,,,,,,,,,,,,,,,,,,,,,,,,,,,,,,,,,,,,,,,,,,,70.0,70.0,133.0,57.0,57.0,133.0,4.0,4.1,-160,-264,0,-3,191,-261,360.4220416545868,360.4221394062042,360.4256076812744,360.4372944831848,360.5894467830658,360.5894467830658,360.5894467830658,360.5894467830658,360.5894467830658,360.5894467830658,360.5894467830658,361.2701458930969,2,0.8232269287109375,None,,,,,,,,,,,,,,,,,,44,4,2025-02-19_12h57.49.086,comp,2024.2.4,53.383361227957415,2025-02-19 12h58.01.184577 -0500,
98,98,0,filler_square,None,None,None,None,None,None,None,None,None,None,3,0.8931679725646973,None,,,,,0,0,0,0,0,98,98,181,361.28978633880615,,,,,,,,,,,,,,,,,,,,,,,,,,,,,,,,,,,,,,,,,,,,,,,,,,,,,,,,,,,,,,,,,,,,,,,,,,,,,,,,,100.57663621533624,120.54964887919235,76.50638104636698,75.77028200780079,165.14219260291543,165.14219260291543,4.0,4.1,-194,-271,0,18,216,-286,361.272123336792,361.2722043991089,361.2756006717682,361.28978633880615,361.43911957740784,361.43911957740784,361.43911957740784,361.43911957740784,361.43911957740784,361.43911957740784,361.43911957740784,362.18738746643066,3,0.8931679725646973,None,,,,,,,,,,,,,,,,,,44,4,2025-02-19_12h57.49.086,comp,2024.2.4,53.383361227957415,2025-02-19 12h58.01.184577 -0500,
99,99,0,critical,hwd,35.0,1.0,upper,200.0,125.0,125.0,200.0,127.0,127.0,1,0.8558921813964844,None,,,,,0,0,0,0,0,99,99,97,362.20450615882874,,,,,,,,,,,,,,,,,,,,,,,,,,,,,,,,,,,,,,,,,,,,,,,,,,,,,,,,,,,,,,,,,,,,,,,,,,,,,,,,,200.0,125.0,125.0,200.0,127.0,127.0,1.0,1.2,-258,19,0,4,260,2,362.1889798641205,362.1891107559204,362.19259548187256,362.20450615882874,362.3535625934601,362.3535625934601,362.3535625934601,362.3535625934601,362.3535625934601,362.3535625934601,362.3535625934601,363.0714921951294,1,0.8558921813964844,None,,,,,,,,,,,,,,,,,,44,4,2025-02-19_12h57.49.086,comp,2024.2.4,53.383361227957415,2025-02-19 12h58.01.184577 -0500,
100,100,0,filler_random,None,None,None,None,None,None,None,None,None,None,3,1.0442895889282227,None,,,,,0,0,0,0,0,100,100,153,363.08877968788147,,,,,,,,,,,,,,,,,,,,,,,,,,,,,,,,,,,,,,,,,,,,,,,,,,,,,,,,,,,,,,,,,,,,,,,,,,,,,,,,,114.04569456033133,197.3355931481582,117.7029379298584,135.12607247721252,197.44767301972254,163.09688712805863,1.0,1.3,218,-254,480,-268,725,-285,363.07324481010437,363.0733857154846,363.0773389339447,363.08877968788147,363.24400758743286,363.24400758743286,363.24400758743286,363.24400758743286,363.24400758743286,363.24400758743286,363.24400758743286,364.1389226913452,3,1.0442895889282227,None,,,,,,,,,,,,,,,,,,44,4,2025-02-19_12h57.49.086,comp,2024.2.4,53.383361227957415,2025-02-19 12h58.01.184577 -0500,
101,101,0,critical,hdw,35.0,3.0,lower,133.0,57.0,70.0,70.0,57.0,133.0,1,1.0978412628173828,None,,,,,0,0,0,0,0,101,101,110,364.15469312667847,,,,,,,,,,,,,,,,,,,,,,,,,,,,,,,,,,,,,,,,,,,,,,,,,,,,,,,,,,,,,,,,,,,,,,,,,,,,,,,,,133.0,57.0,70.0,70.0,57.0,133.0,3.0,3.2,-160,-273,0,2,198,268,364.14048743247986,364.1405682563782,364.1441082954407,364.15469312667847,364.30538296699524,364.30538296699524,364.30538296699524,364.30538296699524,364.30538296699524,364.30538296699524,364.30538296699524,365.262877702713,1,1.0978412628173828,None,,,,,,,,,,,,,,,,,,44,4,2025-02-19_12h57.49.086,comp,2024.2.4,53.383361227957415,2025-02-19 12h58.01.184577 -0500,
102,102,0,critical,whd,20.0,1.0,upper,125.0,200.0,200.0,125.0,141.0,141.0,2,1.196202278137207,None,,,,,0,0,0,0,0,102,102,91,365.2810068130493,,,,,,,,,,,,,,,,,,,,,,,,,,,,,,,,,,,,,,,,,,,,,,,,,,,,,,,,,,,,,,,,,,,,,,,,,,,,,,,,,125.0,200.0,200.0,125.0,141.0,141.0,1.0,1.3,222,-271,480,-278,709,-289,365.2644577026367,365.26453256607056,365.26794600486755,365.2810068130493,365.42265129089355,365.42265129089355,365.42265129089355,365.42265129089355,365.42265129089355,365.42265129089355,365.42265129089355,366.4830095767975,2,1.196202278137207,None,,,,,,,,,,,,,,,,,,44,4,2025-02-19_12h57.49.086,comp,2024.2.4,53.383361227957415,2025-02-19 12h58.01.184577 -0500,
103,103,0,critical,wdh,20.0,1.0,lower,57.0,133.0,78.0,78.0,133.0,57.0,1,1.2093112468719482,None,,,,,0,0,0,0,0,103,103,78,366.49936604499817,,,,,,,,,,,,,,,,,,,,,,,,,,,,,,,,,,,,,,,,,,,,,,,,,,,,,,,,,,,,,,,,,,,,,,,,,,,,,,,,,57.0,133.0,78.0,78.0,133.0,57.0,1.0,1.3,278,-265,480,-253,644,-261,366.48467206954956,366.4847888946533,366.4883449077606,366.49936604499817,366.6416220664978,366.6416220664978,366.6416220664978,366.6416220664978,366.6416220664978,366.6416220664978,366.6416220664978,367.72285199165344,1,1.2093112468719482,None,,,,,,,,,,,,,,,,,,44,4,2025-02-19_12h57.49.086,comp,2024.2.4,53.383361227957415,2025-02-19 12h58.01.184577 -0500,
104,104,0,critical,dwh,35.0,3.0,upper,127.0,127.0,125.0,200.0,200.0,125.0,3,1.945734977722168,None,,,,,0,0,0,0,0,104,104,63,367.73879170417786,,,,,,,,,,,,,,,,,,,,,,,,,,,,,,,,,,,,,,,,,,,,,,,,,,,,,,,,,,,,,,,,,,,,,,,,,,,,,,,,,127.0,127.0,125.0,200.0,200.0,125.0,3.0,3.1,-260,272,0,1,258,-261,367.72446370124817,367.7245364189148,367.7282679080963,367.73879170417786,367.8971607685089,367.8971607685089,367.8971607685089,367.8971607685089,367.8971607685089,367.8971607685089,367.8971607685089,369.70056438446045,3,1.945734977722168,None,,,,,,,,,,,,,,,,,,44,4,2025-02-19_12h57.49.086,comp,2024.2.4,53.383361227957415,2025-02-19 12h58.01.184577 -0500,
105,105,0,critical,hdw,20.0,2.1,lower,133.0,57.0,78.0,78.0,57.0,133.0,3,1.7190563678741455,None,,,,,0,0,0,0,0,105,105,46,369.7178957462311,,,,,,,,,,,,,,,,,,,,,,,,,,,,,,,,,,,,,,,,,,,,,,,,,,,,,,,,,,,,,,,,,,,,,,,,,,,,,,,,,133.0,57.0,78.0,78.0,57.0,133.0,2.1,2.12,-164,-267,0,-278,202,284,369.70205569267273,369.70215916633606,369.70519852638245,369.7178957462311,369.8571889400482,369.8571889400482,369.8571889400482,369.8571889400482,369.8571889400482,369.8571889400482,369.8571889400482,371.4396936893463,3,1.7190563678741455,None,,,,,,,,,,,,,,,,,,44,4,2025-02-19_12h57.49.086,comp,2024.2.4,53.383361227957415,2025-02-19 12h58.01.184577 -0500,
106,106,0,critical,hwd,35.0,2.1,lower,133.0,57.0,57.0,133.0,70.0,70.0,2,2.3399126529693604,None,,,,,0,0,0,0,0,106,106,40,371.4566156864166,,,,,,,,,,,,,,,,,,,,,,,,,,,,,,,,,,,,,,,,,,,,,,,,,,,,,,,,,,,,,,,,,,,,,,,,,,,,,,,,,133.0,57.0,57.0,133.0,70.0,70.0,2.1,2.11,-191,263,0,259,198,-280,371.4412887096405,371.44136595726013,371.4448640346527,371.4566156864166,371.606454372406,371.606454372406,371.606454372406,371.606454372406,371.606454372406,371.606454372406,371.606454372406,373.8145101070404,2,2.3399126529693604,None,,,,,,,,,,,,,,,,,,44,4,2025-02-19_12h57.49.086,comp,2024.2.4,53.383361227957415,2025-02-19 12h58.01.184577 -0500,
107,107,0,critical,hdw,20.0,3.0,upper,200.0,125.0,141.0,141.0,125.0,200.0,1,1.3706974983215332,None,,,,,0,0,0,0,0,107,107,117,373.83448481559753,,,,,,,,,,,,,,,,,,,,,,,,,,,,,,,,,,,,,,,,,,,,,,,,,,,,,,,,,,,,,,,,,,,,,,,,,,,,,,,,,200.0,125.0,141.0,141.0,125.0,200.0,3.0,3.1,-229,273,0,-15,266,-287,373.81606221199036,373.81614327430725,373.8192529678345,373.83448481559753,373.97532653808594,373.97532653808594,373.97532653808594,373.97532653808594,373.97532653808594,373.97532653808594,373.97532653808594,375.20885610580444,1,1.3706974983215332,None,,,,,,,,,,,,,,,,,,44,4,2025-02-19_12h57.49.086,comp,2024.2.4,53.383361227957415,2025-02-19 12h58.01.184577 -0500,
108,108,0,critical,dwh,35.0,2.1,lower,70.0,70.0,57.0,133.0,133.0,57.0,2,2.35518217086792,None,,,,,0,0,0,0,0,108,108,28,375.2255346775055,,,,,,,,,,,,,,,,,,,,,,,,,,,,,,,,,,,,,,,,,,,,,,,,,,,,,,,,,,,,,,,,,,,,,,,,,,,,,,,,,70.0,70.0,57.0,133.0,133.0,57.0,2.1,2.12,-198,-257,0,-265,191,271,375.21039366722107,375.21047163009644,375.2142233848572,375.2255346775055,375.38013911247253,375.38013911247253,375.38013911247253,375.38013911247253,375.38013911247253,375.38013911247253,375.38013911247253,377.5967390537262,2,2.35518217086792,None,,,,,,,,,,,,,,,,,,44,4,2025-02-19_12h57.49.086,comp,2024.2.4,53.383361227957415,2025-02-19 12h58.01.184577 -0500,
109,109,0,critical,wdh,20.0,4.0,lower,57.0,133.0,78.0,78.0,133.0,57.0,3,1.2706682682037354,None,,,,,0,0,0,0,0,109,109,82,377.6147606372833,,,,,,,,,,,,,,,,,,,,,,,,,,,,,,,,,,,,,,,,,,,,,,,,,,,,,,,,,,,,,,,,,,,,,,,,,,,,,,,,,57.0,133.0,78.0,78.0,133.0,57.0,4.0,4.1,-202,-266,0,3,164,-279,377.5984196662903,377.5985219478607,377.60199189186096,377.6147606372833,377.7505774497986,377.7505774497986,377.7505774497986,377.7505774497986,377.7505774497986,377.7505774497986,377.7505774497986,378.8935356140137,3,1.2706682682037354,None,,,,,,,,,,,,,,,,,,44,4,2025-02-19_12h57.49.086,comp,2024.2.4,53.383361227957415,2025-02-19 12h58.01.184577 -0500,
110,110,0,catch,None,None,None,None,None,None,None,None,None,None,1,0.7902698516845703,None,,,,,0,0,0,0,0,110,110,120,378.91015100479126,,,,,,,,,,,,,,,,,,,,,,,,,,,,,,,,,,,,,,,,,,,,,,,,,,,,,,,,,,,,,,,,,,,,,,,,,,,,,,,,,169,156,107,83,120,70,2.2,2.22,-216,261,0,-269,172,-261,378.89556550979614,378.89564204216003,378.89936423301697,378.91015100479126,379.0603494644165,379.0603494644165,379.0603494644165,379.0603494644165,379.0603494644165,379.0603494644165,379.0603494644165,379.7125418186188,1,0.7902698516845703,None,,,,,,,,,,,,,,,,,,44,4,2025-02-19_12h57.49.086,comp,2024.2.4,53.383361227957415,2025-02-19 12h58.01.184577 -0500,
111,111,0,filler_square,None,None,None,None,None,None,None,None,None,None,2,1.0191171169281006,None,,,,,0,0,0,0,0,111,111,196,379.72945618629456,,,,,,,,,,,,,,,,,,,,,,,,,,,,,,,,,,,,,,,,,,,,,,,,,,,,,,,,,,,,,,,,,,,,,,,,,,,,,,,,,103.31169863724301,94.62878588536171,110.35919138743162,128.752932028442,141.28853329330224,141.28853329330224,2.1,2.12,-208,-256,0,-260,231,269,379.7147464752197,379.71482515335083,379.7182834148407,379.72945618629456,379.8765892982483,379.8765892982483,379.8765892982483,379.8765892982483,379.8765892982483,379.8765892982483,379.8765892982483,380.7614257335663,2,1.0191171169281006,None,,,,,,,,,,,,,,,,,,44,4,2025-02-19_12h57.49.086,comp,2024.2.4,53.383361227957415,2025-02-19 12h58.01.184577 -0500,
112,112,0,filler_square,None,None,None,None,None,None,None,None,None,None,3,1.2034878730773926,None,,,,,0,0,0,0,0,112,112,186,380.77695083618164,,,,,,,,,,,,,,,,,,,,,,,,,,,,,,,,,,,,,,,,,,,,,,,,,,,,,,,,,,,,,,,,,,,,,,,,,,,,,,,,,134.7998569336487,123.4530117935826,157.2245236225416,157.2245236225416,72.88331268068164,88.59868007406779,1.0,1.2,-236,12,0,-14,219,6,380.7630567550659,380.76313281059265,380.7666184902191,380.77695083618164,380.92973709106445,380.92973709106445,380.92973709106445,380.92973709106445,380.92973709106445,380.92973709106445,380.92973709106445,381.9936537742615,3,1.2034878730773926,None,,,,,,,,,,,,,,,,,,44,4,2025-02-19_12h57.49.086,comp,2024.2.4,53.383361227957415,2025-02-19 12h58.01.184577 -0500,
113,113,0,filler_random,None,None,None,None,None,None,None,None,None,None,3,1.9435803890228271,None,,,,,0,0,0,0,0,113,113,167,382.01325726509094,,,,,,,,,,,,,,,,,,,,,,,,,,,,,,,,,,,,,,,,,,,,,,,,,,,,,,,,,,,,,,,,,,,,,,,,,,,,,,,,,166.82474419378343,134.08486227823113,96.51339063234248,111.2488594589128,175.10223395338778,179.48131769400212,1.0,1.1,-699,267,-480,288,-239,263,381.9953258037567,381.9954037666321,381.9987094402313,382.01325726509094,382.16114377975464,382.16114377975464,382.16114377975464,382.16114377975464,382.16114377975464,382.16114377975464,382.16114377975464,383.96008014678955,3,1.9435803890228271,None,,,,,,,,,,,,,,,,,,44,4,2025-02-19_12h57.49.086,comp,2024.2.4,53.383361227957415,2025-02-19 12h58.01.184577 -0500,
114,114,0,critical,dwh,20.0,2.1,lower,78.0,78.0,57.0,133.0,133.0,57.0,2,2.003972291946411,None,,,,,0,0,0,0,0,114,114,6,383.9765763282776,,,,,,,,,,,,,,,,,,,,,,,,,,,,,,,,,,,,,,,,,,,,,,,,,,,,,,,,,,,,,,,,,,,,,,,,,,,,,,,,,78.0,78.0,57.0,133.0,133.0,57.0,2.1,2.12,-202,-269,0,-286,191,255,383.9615831375122,383.96166253089905,383.96497631073,383.9765763282776,384.11258721351624,384.11258721351624,384.11258721351624,384.11258721351624,384.11258721351624,384.11258721351624,384.11258721351624,385.9925971031189,2,2.003972291946411,None,,,,,,,,,,,,,,,,,,44,4,2025-02-19_12h57.49.086,comp,2024.2.4,53.383361227957415,2025-02-19 12h58.01.184577 -0500,
115,115,0,catch,None,None,None,None,None,None,None,None,None,None,2,1.0765717029571533,None,,,,,0,0,0,0,0,115,115,129,386.0087859630585,,,,,,,,,,,,,,,,,,,,,,,,,,,,,,,,,,,,,,,,,,,,,,,,,,,,,,,,,,,,,,,,,,,,,,,,,,,,,,,,,63,127,163,162,82,108,2.2,2.22,-240,255,0,-287,231,-259,385.9944705963135,385.99454402923584,385.9975552558899,386.0087859630585,386.1466555595398,386.1466555595398,386.1466555595398,386.1466555595398,386.1466555595398,386.1466555595398,386.1466555595398,387.0985174179077,2,1.0765717029571533,None,,,,,,,,,,,,,,,,,,44,4,2025-02-19_12h57.49.086,comp,2024.2.4,53.383361227957415,2025-02-19 12h58.01.184577 -0500,
116,116,0,critical,hdw,20.0,1.0,upper,200.0,125.0,141.0,141.0,125.0,200.0,3,3.145857810974121,None,,,,,0,0,0,0,0,116,116,115,387.1151473522186,,,,,,,,,,,,,,,,,,,,,,,,,,,,,,,,,,,,,,,,,,,,,,,,,,,,,,,,,,,,,,,,,,,,,,,,,,,,,,,,,200.0,125.0,141.0,141.0,125.0,200.0,1.0,1.3,251,-282,480,-258,746,-285,387.10014033317566,387.10023856163025,387.1039378643036,387.1151473522186,387.26260137557983,387.26260137557983,387.26260137557983,387.26260137557983,387.26260137557983,387.26260137557983,387.26260137557983,390.2635154724121,3,3.145857810974121,None,,,,,,,,,,,,,,,,,,44,4,2025-02-19_12h57.49.086,comp,2024.2.4,53.383361227957415,2025-02-19 12h58.01.184577 -0500,
117,117,0,filler_square,None,None,None,None,None,None,None,None,None,None,3,1.4844582080841064,None,,,,,0,0,0,0,0,117,117,174,390.28006744384766,,,,,,,,,,,,,,,,,,,,,,,,,,,,,,,,,,,,,,,,,,,,,,,,,,,,,,,,,,,,,,,,,,,,,,,,,,,,,,,,,58.64194017884483,112.85648683362203,68.84106326346969,113.42102231108754,120.67708621210218,120.67708621210218,2.1,2.12,-209,-269,0,-269,213,290,390.26542949676514,390.265567779541,390.2692334651947,390.28006744384766,390.43310713768005,390.43310713768005,390.43310713768005,390.43310713768005,390.43310713768005,390.43310713768005,390.43310713768005,391.7800717353821,3,1.4844582080841064,None,,,,,,,,,,,,,,,,,,44,4,2025-02-19_12h57.49.086,comp,2024.2.4,53.383361227957415,2025-02-19 12h58.01.184577 -0500,
118,118,0,critical,dwh,20.0,2.1,upper,141.0,141.0,125.0,200.0,200.0,125.0,3,0.5829896926879883,None,,,,,0,0,0,0,0,118,118,31,391.79770255088806,,,,,,,,,,,,,,,,,,,,,,,,,,,,,,,,,,,,,,,,,,,,,,,,,,,,,,,,,,,,,,,,,,,,,,,,,,,,,,,,,141.0,141.0,125.0,200.0,200.0,125.0,2.1,2.12,-266,-251,0,-257,258,281,391.7815611362457,391.7816369533539,391.78501319885254,391.79770255088806,391.95086145401,391.95086145401,391.95086145401,391.95086145401,391.95086145401,391.95086145401,391.95086145401,392.38277196884155,3,0.5829896926879883,None,,,,,,,,,,,,,,,,,,44,4,2025-02-19_12h57.49.086,comp,2024.2.4,53.383361227957415,2025-02-19 12h58.01.184577 -0500,
119,119,0,filler_square,None,None,None,None,None,None,None,None,None,None,2,2.2122557163238525,None,,,,,0,0,0,0,0,119,119,170,392.4011216163635,,,,,,,,,,,,,,,,,,,,,,,,,,,,,,,,,,,,,,,,,,,,,,,,,,,,,,,,,,,,,,,,,,,,,,,,,,,,,,,,,127.19792358428562,106.97574456148965,161.14658945698255,161.14658945698255,59.345938532604166,61.34531039713917,3.0,3.1,-230,269,0,14,207,-263,392.3849813938141,392.38514614105225,392.38842391967773,392.4011216163635,392.5478241443634,392.5478241443634,392.5478241443634,392.5478241443634,392.5478241443634,392.5478241443634,392.5478241443634,394.6223292350769,2,2.2122557163238525,None,,,,,,,,,,,,,,,,,,44,4,2025-02-19_12h57.49.086,comp,2024.2.4,53.383361227957415,2025-02-19 12h58.01.184577 -0500,
120,120,0,filler_square,None,None,None,None,None,None,None,None,None,None,1,2.8366408348083496,None,,,,,0,0,0,0,0,120,120,185,394.6399276256561,,,,,,,,,,,,,,,,,,,,,,,,,,,,,,,,,,,,,,,,,,,,,,,,,,,,,,,,,,,,,,,,,,,,,,,,,,,,,,,,,90.03153865524456,90.03153865524456,73.43977570248961,81.7277650079376,65.07653379551725,72.32110653812654,4.0,4.2,-182,15,0,-271,173,2,394.62410259246826,394.6241788864136,394.62716150283813,394.6399276256561,394.7824938297272,394.7824938297272,394.7824938297272,394.7824938297272,394.7824938297272,394.7824938297272,394.7824938297272,397.49322485923767,1,2.8366408348083496,None,,,,,,,,,,,,,,,,,,44,4,2025-02-19_12h57.49.086,comp,2024.2.4,53.383361227957415,2025-02-19 12h58.01.184577 -0500,
121,121,0,critical,dhw,20.0,1.0,upper,141.0,141.0,200.0,125.0,125.0,200.0,2,9.767473459243774,None,,,,,0,0,0,0,0,121,121,55,397.5097086429596,,,,,,,,,,,,,,,,,,,,,,,,,,,,,,,,,,,,,,,,,,,,,,,,,,,,,,,,,,,,,,,,,,,,,,,,,,,,,,,,,141.0,141.0,200.0,125.0,125.0,200.0,1.0,1.2,-229,-15,0,-5,258,-6,397.49472165107727,397.4947941303253,397.4982545375824,397.5097086429596,397.6509299278259,397.6509299278259,397.6509299278259,397.6509299278259,397.6509299278259,397.6509299278259,397.6509299278259,407.2845652103424,2,9.767473459243774,None,,,,,,,,,,,,,,,,,,44,4,2025-02-19_12h57.49.086,comp,2024.2.4,53.383361227957415,2025-02-19 12h58.01.184577 -0500,
122,122,0,filler_square,None,None,None,None,None,None,None,None,None,None,2,1.0869112014770508,None,,,,,0,0,0,0,0,122,122,191,407.30210161209106,,,,,,,,,,,,,,,,,,,,,,,,,,,,,,,,,,,,,,,,,,,,,,,,,,,,,,,,,,,,,,,,,,,,,,,,,,,,,,,,,189.33870957480306,123.51229954344839,194.88135206809963,194.88135206809963,58.75726317481246,170.32370641391142,4.0,4.1,-255,-276,0,-4,279,-257,407.2866516113281,407.286732673645,407.2903425693512,407.30210161209106,407.4425621032715,407.4425621032715,407.4425621032715,407.4425621032715,407.4425621032715,407.4425621032715,407.4425621032715,408.39869499206543,2,1.0869112014770508,None,,,,,,,,,,,,,,,,,,44,4,2025-02-19_12h57.49.086,comp,2024.2.4,53.383361227957415,2025-02-19 12h58.01.184577 -0500,
123,123,0,critical,whd,20.0,2.1,upper,125.0,200.0,200.0,125.0,141.0,141.0,1,2.2514703273773193,None,,,,,0,0,0,0,0,123,123,39,408.4171223640442,,,,,,,,,,,,,,,,,,,,,,,,,,,,,,,,,,,,,,,,,,,,,,,,,,,,,,,,,,,,,,,,,,,,,,,,,,,,,,,,,125.0,200.0,200.0,125.0,141.0,141.0,2.1,2.12,-258,-261,0,-287,229,287,408.40032935142517,408.40043544769287,408.40387296676636,408.4171223640442,408.5523657798767,408.5523657798767,408.5523657798767,408.5523657798767,408.5523657798767,408.5523657798767,408.5523657798767,410.6740462779999,1,2.2514703273773193,None,,,,,,,,,,,,,,,,,,44,4,2025-02-19_12h57.49.086,comp,2024.2.4,53.383361227957415,2025-02-19 12h58.01.184577 -0500,
124,124,0,filler_square,None,None,None,None,None,None,None,None,None,None,2,1.80818772315979,None,,,,,0,0,0,0,0,124,124,179,410.69282937049866,,,,,,,,,,,,,,,,,,,,,,,,,,,,,,,,,,,,,,,,,,,,,,,,,,,,,,,,,,,,,,,,,,,,,,,,,,,,,,,,,117.85452131913456,62.549921822217826,154.7748600476587,154.7748600476587,96.3578066373848,105.73616202573857,4.0,4.2,-205,18,0,-266,226,-1,410.6760883331299,410.67617106437683,410.67958879470825,410.69282937049866,410.8361084461212,410.8361084461212,410.8361084461212,410.8361084461212,410.8361084461212,410.8361084461212,410.8361084461212,412.52391600608826,2,1.80818772315979,None,,,,,,,,,,,,,,,,,,44,4,2025-02-19_12h57.49.086,comp,2024.2.4,53.383361227957415,2025-02-19 12h58.01.184577 -0500,
125,125,0,critical,hwd,35.0,3.0,lower,133.0,57.0,57.0,133.0,70.0,70.0,2,1.7170734405517578,None,,,,,0,0,0,0,0,125,125,98,412.5438640117645,,,,,,,,,,,,,,,,,,,,,,,,,,,,,,,,,,,,,,,,,,,,,,,,,,,,,,,,,,,,,,,,,,,,,,,,,,,,,,,,,133.0,57.0,57.0,133.0,70.0,70.0,3.0,3.1,-191,283,0,-13,198,-277,412.52541732788086,412.52549171447754,412.52860283851624,412.5438640117645,412.6865544319153,412.6865544319153,412.6865544319153,412.6865544319153,412.6865544319153,412.6865544319153,412.6865544319153,414.2694330215454,2,1.7170734405517578,None,,,,,,,,,,,,,,,,,,44,4,2025-02-19_12h57.49.086,comp,2024.2.4,53.383361227957415,2025-02-19 12h58.01.184577 -0500,
126,126,0,critical,dwh,35.0,2.1,lower,70.0,70.0,57.0,133.0,133.0,57.0,3,2.007427215576172,None,,,,,0,0,0,0,0,126,126,4,414.28500866889954,,,,,,,,,,,,,,,,,,,,,,,,,,,,,,,,,,,,,,,,,,,,,,,,,,,,,,,,,,,,,,,,,,,,,,,,,,,,,,,,,70.0,70.0,57.0,133.0,133.0,57.0,2.1,2.11,-198,276,0,286,191,-269,414.27094435691833,414.2710394859314,414.2740788459778,414.28500866889954,414.443452835083,414.443452835083,414.443452835083,414.443452835083,414.443452835083,414.443452835083,414.443452835083,416.3033230304718,3,2.007427215576172,None,,,,,,,,,,,,,,,,,,44,4,2025-02-19_12h57.49.086,comp,2024.2.4,53.383361227957415,2025-02-19 12h58.01.184577 -0500,
127,127,0,critical,wdh,20.0,1.0,upper,125.0,200.0,141.0,141.0,200.0,125.0,3,1.0610277652740479,None,,,,,0,0,0,0,0,127,127,79,416.31948041915894,,,,,,,,,,,,,,,,,,,,,,,,,,,,,,,,,,,,,,,,,,,,,,,,,,,,,,,,,,,,,,,,,,,,,,,,,,,,,,,,,125.0,200.0,141.0,141.0,200.0,125.0,1.0,1.1,-746,285,-480,278,-251,251,416.30483508110046,416.30490899086,416.3079209327698,416.31948041915894,416.47377610206604,416.47377610206604,416.47377610206604,416.47377610206604,416.47377610206604,416.47377610206604,416.47377610206604,417.3921775817871,3,1.0610277652740479,None,,,,,,,,,,,,,,,,,,44,4,2025-02-19_12h57.49.086,comp,2024.2.4,53.383361227957415,2025-02-19 12h58.01.184577 -0500,
128,128,0,filler_random,None,None,None,None,None,None,None,None,None,None,3,1.844414234161377,None,,,,,0,0,0,0,0,128,128,148,417.40807938575745,,,,,,,,,,,,,,,,,,,,,,,,,,,,,,,,,,,,,,,,,,,,,,,,,,,,,,,,,,,,,,,,,,,,,,,,,,,,,,,,,190.0496062670621,78.4212926497541,149.17177328865967,192.57619048839865,197.54395254508717,194.06179638876708,1.0,1.2,-231,-16,0,12,289,9,417.3944799900055,417.39461398124695,417.3977930545807,417.40807938575745,417.55529856681824,417.55529856681824,417.55529856681824,417.55529856681824,417.55529856681824,417.55529856681824,417.55529856681824,419.2565357685089,3,1.844414234161377,None,,,,,,,,,,,,,,,,,,44,4,2025-02-19_12h57.49.086,comp,2024.2.4,53.383361227957415,2025-02-19 12h58.01.184577 -0500,
129,129,0,filler_square,None,None,None,None,None,None,None,None,None,None,3,1.0273759365081787,None,,,,,0,0,0,0,0,129,129,189,419.27346110343933,,,,,,,,,,,,,,,,,,,,,,,,,,,,,,,,,,,,,,,,,,,,,,,,,,,,,,,,,,,,,,,,,,,,,,,,,,,,,,,,,67.75501054989807,102.399087707044,107.13038733256678,126.77603393996836,146.18343809095364,146.18343809095364,3.0,3.1,-211,256,0,-12,232,-277,419.2584834098816,419.2585632801056,419.2625880241394,419.27346110343933,419.4219403266907,419.4219403266907,419.4219403266907,419.4219403266907,419.4219403266907,419.4219403266907,419.4219403266907,420.30539655685425,3,1.0273759365081787,None,,,,,,,,,,,,,,,,,,44,4,2025-02-19_12h57.49.086,comp,2024.2.4,53.383361227957415,2025-02-19 12h58.01.184577 -0500,
130,130,0,filler_square,None,None,None,None,None,None,None,None,None,None,2,1.0499119758605957,None,,,,,0,0,0,0,0,130,130,202,420.32260394096375,,,,,,,,,,,,,,,,,,,,,,,,,,,,,,,,,,,,,,,,,,,,,,,,,,,,,,,,,,,,,,,,,,,,,,,,,,,,,,,,,130.02611121198706,79.54693329005677,181.30959479543014,181.30959479543014,124.91697922415213,173.71973501690894,2.2,2.21,-226,-265,0,262,274,273,420.30740761756897,420.3074872493744,420.3110158443451,420.32260394096375,420.4732737541199,420.4732737541199,420.4732737541199,420.4732737541199,420.4732737541199,420.4732737541199,420.4732737541199,421.38979411125183,2,1.0499119758605957,None,,,,,,,,,,,,,,,,,,44,4,2025-02-19_12h57.49.086,comp,2024.2.4,53.383361227957415,2025-02-19 12h58.01.184577 -0500,
131,131,0,filler_random,None,None,None,None,None,None,None,None,None,None,2,1.1990840435028076,None,,,,,0,0,0,0,0,131,131,141,421.40597438812256,,,,,,,,,,,,,,,,,,,,,,,,,,,,,,,,,,,,,,,,,,,,,,,,,,,,,,,,,,,,,,,,,,,,,,,,,,,,,,,,,176.18407510573974,144.80577165595042,180.97254152623393,162.09124526718682,162.49913956579704,116.31923782609229,3.0,3.1,-249,267,0,14,235,-258,421.39168667793274,421.3918242454529,421.3955101966858,421.40597438812256,421.5556252002716,421.5556252002716,421.5556252002716,421.5556252002716,421.5556252002716,421.5556252002716,421.5556252002716,422.6082363128662,2,1.1990840435028076,None,,,,,,,,,,,,,,,,,,44,4,2025-02-19_12h57.49.086,comp,2024.2.4,53.383361227957415,2025-02-19 12h58.01.184577 -0500,
132,132,0,critical,hwd,20.0,4.0,lower,133.0,57.0,57.0,133.0,78.0,78.0,1,2.3244965076446533,None,,,,,0,0,0,0,0,132,132,106,422.6247789859772,,,,,,,,,,,,,,,,,,,,,,,,,,,,,,,,,,,,,,,,,,,,,,,,,,,,,,,,,,,,,,,,,,,,,,,,,,,,,,,,,133.0,57.0,57.0,133.0,78.0,78.0,4.0,4.1,-191,-275,0,17,202,-288,422.60976338386536,422.609867811203,422.6141583919525,422.6247789859772,422.7768089771271,422.7768089771271,422.7768089771271,422.7768089771271,422.7768089771271,422.7768089771271,422.7768089771271,424.95688247680664,1,2.3244965076446533,None,,,,,,,,,,,,,,,,,,44,4,2025-02-19_12h57.49.086,comp,2024.2.4,53.383361227957415,2025-02-19 12h58.01.184577 -0500,
133,133,0,critical,hwd,35.0,4.0,upper,200.0,125.0,125.0,200.0,127.0,127.0,1,1.341064453125,None,,,,,0,0,0,0,0,133,133,101,424.9754695892334,,,,,,,,,,,,,,,,,,,,,,,,,,,,,,,,,,,,,,,,,,,,,,,,,,,,,,,,,,,,,,,,,,,,,,,,,,,,,,,,,200.0,125.0,125.0,200.0,127.0,127.0,4.0,4.1,-258,-275,0,-12,260,-269,424.95844054222107,424.9585201740265,424.961797952652,424.9754695892334,425.126362323761,425.126362323761,425.126362323761,425.126362323761,425.126362323761,425.126362323761,425.126362323761,426.33794593811035,1,1.341064453125,None,,,,,,,,,,,,,,,,,,44,4,2025-02-19_12h57.49.086,comp,2024.2.4,53.383361227957415,2025-02-19 12h58.01.184577 -0500,
134,134,0,filler_random,None,None,None,None,None,None,None,None,None,None,1,2.598797082901001,None,,,,,0,0,0,0,0,134,134,162,426.3580467700958,,,,,,,,,,,,,,,,,,,,,,,,,,,,,,,,,,,,,,,,,,,,,,,,,,,,,,,,,,,,,,,,,,,,,,,,,,,,,,,,,100.57968509871165,170.64967036378306,80.6284934737036,82.41756082488942,84.41977559429412,124.40518990934453,3.0,3.2,-223,-267,0,1,199,289,426.33966541290283,426.33974146842957,426.342826128006,426.3580467700958,426.49543261528015,426.49543261528015,426.49543261528015,426.49543261528015,426.49543261528015,426.49543261528015,426.49543261528015,428.9593060016632,1,2.598797082901001,None,,,,,,,,,,,,,,,,,,44,4,2025-02-19_12h57.49.086,comp,2024.2.4,53.383361227957415,2025-02-19 12h58.01.184577 -0500,
135,135,0,filler_random,None,None,None,None,None,None,None,None,None,None,1,0.9730508327484131,None,,,,,0,0,0,0,0,135,135,132,428.9754226207733,,,,,,,,,,,,,,,,,,,,,,,,,,,,,,,,,,,,,,,,,,,,,,,,,,,,,,,,,,,,,,,,,,,,,,,,,,,,,,,,,161.06734674001012,138.92246268094652,142.73095082942092,65.76073820838859,65.02918724500546,160.55893401795663,3.0,3.1,-198,277,0,-1,209,-273,428.96099376678467,428.96110463142395,428.9645962715149,428.9754226207733,429.1233344078064,429.1233344078064,429.1233344078064,429.1233344078064,429.1233344078064,429.1233344078064,429.1233344078064,429.9614357948303,1,0.9730508327484131,None,,,,,,,,,,,,,,,,,,44,4,2025-02-19_12h57.49.086,comp,2024.2.4,53.383361227957415,2025-02-19 12h58.01.184577 -0500,
136,136,0,critical,dhw,35.0,1.0,lower,70.0,70.0,133.0,57.0,57.0,133.0,3,2.4599990844726562,None,,,,,0,0,0,0,0,136,136,48,429.97721672058105,,,,,,,,,,,,,,,,,,,,,,,,,,,,,,,,,,,,,,,,,,,,,,,,,,,,,,,,,,,,,,,,,,,,,,,,,,,,,,,,,70.0,70.0,133.0,57.0,57.0,133.0,1.0,1.1,-640,277,-480,257,-289,285,429.96314692497253,429.9632887840271,429.96686148643494,429.97721672058105,430.12596440315247,430.12596440315247,430.12596440315247,430.12596440315247,430.12596440315247,430.12596440315247,430.12596440315247,432.4424080848694,3,2.4599990844726562,None,,,,,,,,,,,,,,,,,,44,4,2025-02-19_12h57.49.086,comp,2024.2.4,53.383361227957415,2025-02-19 12h58.01.184577 -0500,
137,137,0,filler_square,None,None,None,None,None,None,None,None,None,None,1,1.7362685203552246,None,,,,,0,0,0,0,0,137,137,207,432.46096205711365,,,,,,,,,,,,,,,,,,,,,,,,,,,,,,,,,,,,,,,,,,,,,,,,,,,,,,,,,,,,,,,,,,,,,,,,,,,,,,,,,152.0205385627342,152.0205385627342,133.73893468193927,144.69140067490412,125.57787869730481,68.2837932547747,4.0,4.1,-244,-258,0,6,202,-256,432.44418692588806,432.44426465034485,432.4474263191223,432.46096205711365,432.60936975479126,432.60936975479126,432.60936975479126,432.60936975479126,432.60936975479126,432.60936975479126,432.60936975479126,434.20263671875,1,1.7362685203552246,None,,,,,,,,,,,,,,,,,,44,4,2025-02-19_12h57.49.086,comp,2024.2.4,53.383361227957415,2025-02-19 12h58.01.184577 -0500,
138,138,0,critical,dwh,20.0,4.0,upper,141.0,141.0,125.0,200.0,200.0,125.0,2,2.971020460128784,None,,,,,0,0,0,0,0,138,138,71,434.21824741363525,,,,,,,,,,,,,,,,,,,,,,,,,,,,,,,,,,,,,,,,,,,,,,,,,,,,,,,,,,,,,,,,,,,,,,,,,,,,,,,,,141.0,141.0,125.0,200.0,200.0,125.0,4.0,4.2,-266,5,0,-286,258,6,434.2041711807251,434.20424938201904,434.2073221206665,434.21824741363525,434.36232233047485,434.36232233047485,434.36232233047485,434.36232233047485,434.36232233047485,434.36232233047485,434.36232233047485,437.19534277915955,2,2.971020460128784,None,,,,,,,,,,,,,,,,,,44,4,2025-02-19_12h57.49.086,comp,2024.2.4,53.383361227957415,2025-02-19 12h58.01.184577 -0500,
139,139,0,critical,whd,35.0,1.0,lower,57.0,133.0,133.0,57.0,70.0,70.0,2,2.7439815998077393,None,,,,,0,0,0,0,0,139,139,84,437.2125155925751,,,,,,,,,,,,,,,,,,,,,,,,,,,,,,,,,,,,,,,,,,,,,,,,,,,,,,,,,,,,,,,,,,,,,,,,,,,,,,,,,57.0,133.0,133.0,57.0,70.0,70.0,1.0,1.1,-671,269,-480,284,-320,283,437.1969699859619,437.19711208343506,437.20137906074524,437.2125155925751,437.3605751991272,437.3605751991272,437.3605751991272,437.3605751991272,437.3605751991272,437.3605751991272,437.3605751991272,439.9733304977417,2,2.7439815998077393,None,,,,,,,,,,,,,,,,,,44,4,2025-02-19_12h57.49.086,comp,2024.2.4,53.383361227957415,2025-02-19 12h58.01.184577 -0500,
