thisN,thisTrialN,thisRepN,effect,order,distance,config,diag,h_1,w_1,h_2,w_2,h_3,w_3,rect_choice.keys,rect_choice.rt,rect_choice.duration,instructions_loop.thisRepN,instructions_loop.thisTrialN,instructions_loop.thisN,instructions_loop.thisIndex,blocks.thisRepN,blocks.thisTrialN,blocks.thisN,blocks.thisIndex,trials.thisRepN,trials.thisTrialN,trials.thisN,trials.thisIndex,thisRow.t,notes,consent.started,agree_button.started,decline_button.started,consent_img.started,mouse.started,consent.stopped,agree_button.numClicks,agree_button.timesOn,agree_button.timesOff,decline_button.numClicks,decline_button.timesOn,decline_button.timesOff,mouse.x,mouse.y,mouse.leftButton,mouse.midButton,mouse.rightButton,mouse.time,mouse.clicked_name,exp_params.started,exp_params.stopped,welcome.started,welcome_text.started,welcome.stopped,instructions_1.started,instructions_1_text_1.started,instructions_1_text_2.started,key_resp.started,instructions_1.stopped,instructions_loop.key_resp.keys,instructions_loop.key_resp.rt,instructions_loop.key_resp.duration,instructions_2.started,instructions_2_text_1.started,instructions_2_text_2.started,key_resp_2.started,instructions_2.stopped,instructions_loop.key_resp_2.keys,instructions_loop.key_resp_2.rt,instructions_loop.key_resp_2.duration,instructions_3.started,instructions_3_text_1.started,r1_instr3.started,r2_instr3.started,r3_instr3.started,r1_instr3_label.started,r2_instr3_label.started,r3_instr3_label.started,instructions_3_text_3.started,instructions_3_text_4.started,key_resp_3.started,instructions_3.stopped,instructions_loop.key_resp_3.keys,instructions_loop.key_resp_3.rt,instructions_loop.key_resp_3.duration,instructions_4.started,instructions_4_text_1.started,instructions_4_text_3.started,instructions_4_text_2.started,key_resp_4.started,instructions_4.stopped,instructions_loop.key_resp_4.keys,instructions_loop.key_resp_4.rt,instructions_loop.key_resp_4.duration,instructions_5.started,instructions_5_text_1.started,instructions_5_text_2.started,key_resp_5.started,instructions_5.stopped,instructions_loop.key_resp_5.keys,instructions_loop.key_resp_5.rt,instructions_loop.key_resp_5.duration,start_exp.started,start_exp_text.started,key_resp_6.started,start_exp.stopped,key_resp_6.keys,key_resp_6.rt,key_resp_6.duration,h_1_tmp,w_1_tmp,h_2_tmp,w_2_tmp,h_3_tmp,w_3_tmp,config_tmp,config_tmp_1,r_1_x,r_1_y,r_2_x,r_2_y,r_3_x,r_3_y,pre_trial.started,pre_trial.stopped,choice_trial.started,rect_choice.started,r_1.started,r_2.started,r_3.started,r_1_label.started,r_2_label.started,r_3_label.started,prompt.started,choice_trial.stopped,trials.rect_choice.keys,trials.rect_choice.rt,trials.rect_choice.duration,end_block.started,end_block_text.started,end_block.stopped,end.started,end_text.started,key_resp_7.started,end.stopped,key_resp_7.keys,key_resp_7.rt,key_resp_7.duration,debriefing.started,debrief_form.started,end_debrief.started,debriefing.stopped,end_debrief.keys,end_debrief.rt,end_debrief.duration,participant,computer,date,expName,psychopyVersion,frameRate,expStart,
,,,,,,,,,,,,,,,,,,,,,,,,,,,,,,,0.014606952667236328,0.03444981575012207,0.03444981575012207,0.03444981575012207,0.014400959014892578,3.084139347076416,1,[3.0476300716400146],[3.047666072845459],0,,,[-57.0],[-491.0],[1],[0],[0],[3.0691115856170654],['agree_button'],,,,,,,,,,,,,,,,,,,,,,,,,,,,,,,,,,,,,,,,,,,,,,,,,,,,,,,,,,,,,,,,,,,,,,,,,,,,,,,,,,,,,,,,,,,,,,,,,,,,,,,,,,,45,2,2025-02-19_13h00.56.268,comp,2024.2.4,54.83847096216629,2025-02-19 13h01.02.341065 -0500,
,,,,,,,,,,,,,,,,,,,,,,,,,,,,,,,,,,,,,,,,,,,,,,,,,,3.084594488143921,3.084657907485962,,,,,,,,,,,,,,,,,,,,,,,,,,,,,,,,,,,,,,,,,,,,,,,,,,,,,,,,,,,,,,,,,,,,,,,,,,,,,,,,,,,,,,,,,,,,,,,,,,,,,,,,,45,2,2025-02-19_13h00.56.268,comp,2024.2.4,54.83847096216629,2025-02-19 13h01.02.341065 -0500,
,,,,,,,,,,,,,,,,,,,,,,,,,,,,,,,,,,,,,,,,,,,,,,,,,,,,3.0846972465515137,3.1015636920928955,5.0849714279174805,,,,,,,,,,,,,,,,,,,,,,,,,,,,,,,,,,,,,,,,,,,,,,,,,,,,,,,,,,,,,,,,,,,,,,,,,,,,,,,,,,,,,,,,,,,,,,,,,,,,,,45,2,2025-02-19_13h00.56.268,comp,2024.2.4,54.83847096216629,2025-02-19 13h01.02.341065 -0500,
0,0,0,,,,,,,,,,,,,,,0,0,0,0,,,,,,,,,5.101974725723267,,,,,,,,,,,,,,,,,,,,,,,,,,5.0858893394470215,5.101974725723267,5.101974725723267,6.584361791610718,9.256037950515747,space,2.6526830196380615,None,9.256220817565918,9.270999193191528,9.270999193191528,10.758391857147217,16.775773763656616,space,6.014794826507568,None,16.775928497314453,16.805934190750122,16.805934190750122,16.805934190750122,16.805934190750122,16.805934190750122,16.805934190750122,16.805934190750122,16.805934190750122,16.805934190750122,18.278077602386475,26.503344297409058,space,8.2230806350708,None,26.50351119041443,26.52489686012268,26.52489686012268,26.52489686012268,28.01036500930786,38.78046441078186,space,10.763604640960693,None,38.780619621276855,38.796326637268066,38.796326637268066,40.28131437301636,41.51502752304077,space,1.2198233604431152,None,41.515257358551025,41.530437707901,41.530437707901,43.05091619491577,space,1.5066754817962646,None,,,,,,,,,,,,,,,,,,,,,,,,,,,,,,,,,,,,,,,,,,,,,,,45,2,2025-02-19_13h00.56.268,comp,2024.2.4,54.83847096216629,2025-02-19 13h01.02.341065 -0500,
0,0,0,critical,whd,20.0,1.0,upper,125.0,200.0,200.0,125.0,141.0,141.0,2,2.8430025577545166,None,,,,,0,0,0,0,0,0,0,91,43.130184173583984,,,,,,,,,,,,,,,,,,,,,,,,,,,,,,,,,,,,,,,,,,,,,,,,,,,,,,,,,,,,,,,,,,,,,,,,,,,,,,,,,125.0,200.0,200.0,125.0,141.0,141.0,1.0,1.1,-738,282,-480,286,-251,279,43.1133017539978,43.113351345062256,43.11527228355408,43.130184173583984,43.278103828430176,43.278103828430176,43.278103828430176,43.278103828430176,43.278103828430176,43.278103828430176,43.278103828430176,45.98993468284607,2,2.8430025577545166,None,,,,,,,,,,,,,,,,,,45,2,2025-02-19_13h00.56.268,comp,2024.2.4,54.83847096216629,2025-02-19 13h01.02.341065 -0500,
1,1,0,critical,hdw,35.0,3.0,lower,133.0,57.0,70.0,70.0,57.0,133.0,3,3.6600451469421387,None,,,,,0,0,0,0,0,1,1,110,46.009888887405396,,,,,,,,,,,,,,,,,,,,,,,,,,,,,,,,,,,,,,,,,,,,,,,,,,,,,,,,,,,,,,,,,,,,,,,,,,,,,,,,,133.0,57.0,70.0,70.0,57.0,133.0,3.0,3.1,-160,251,0,-3,198,-258,45.991506814956665,45.991583585739136,45.99464416503906,46.009888887405396,46.14981937408447,46.14981937408447,46.14981937408447,46.14981937408447,46.14981937408447,46.14981937408447,46.14981937408447,49.67389130592346,3,3.6600451469421387,None,,,,,,,,,,,,,,,,,,45,2,2025-02-19_13h00.56.268,comp,2024.2.4,54.83847096216629,2025-02-19 13h01.02.341065 -0500,
2,2,0,filler_square,None,None,None,None,None,None,None,None,None,None,1,2.1395769119262695,None,,,,,0,0,0,0,0,2,2,179,49.69036245346069,,,,,,,,,,,,,,,,,,,,,,,,,,,,,,,,,,,,,,,,,,,,,,,,,,,,,,,,,,,,,,,,,,,,,,,,,,,,,,,,,124.80182069877519,124.80182069877519,67.35040707637508,78.56523132863505,90.41309692263157,106.06886824611526,2.1,2.11,-198,262,0,278,188,-253,49.67579007148743,49.675923347473145,49.67935228347778,49.69036245346069,49.83560132980347,49.83560132980347,49.83560132980347,49.83560132980347,49.83560132980347,49.83560132980347,49.83560132980347,51.83482575416565,1,2.1395769119262695,None,,,,,,,,,,,,,,,,,,45,2,2025-02-19_13h00.56.268,comp,2024.2.4,54.83847096216629,2025-02-19 13h01.02.341065 -0500,
3,3,0,critical,dwh,35.0,1.0,upper,127.0,127.0,125.0,200.0,200.0,125.0,2,3.1382126808166504,None,,,,,0,0,0,0,0,3,3,61,51.85129141807556,,,,,,,,,,,,,,,,,,,,,,,,,,,,,,,,,,,,,,,,,,,,,,,,,,,,,,,,,,,,,,,,,,,,,,,,,,,,,,,,,127.0,127.0,125.0,200.0,200.0,125.0,1.0,1.3,220,-263,480,-253,738,-290,51.836430072784424,51.83650517463684,51.83964538574219,51.85129141807556,52.00125336647034,52.00125336647034,52.00125336647034,52.00125336647034,52.00125336647034,52.00125336647034,52.00125336647034,54.99389028549194,2,3.1382126808166504,None,,,,,,,,,,,,,,,,,,45,2,2025-02-19_13h00.56.268,comp,2024.2.4,54.83847096216629,2025-02-19 13h01.02.341065 -0500,
4,4,0,critical,whd,35.0,2.1,lower,57.0,133.0,133.0,57.0,70.0,70.0,2,6.88458776473999,None,,,,,0,0,0,0,0,4,4,36,55.00921940803528,,,,,,,,,,,,,,,,,,,,,,,,,,,,,,,,,,,,,,,,,,,,,,,,,,,,,,,,,,,,,,,,,,,,,,,,,,,,,,,,,57.0,133.0,133.0,57.0,70.0,70.0,2.1,2.11,-191,280,0,265,160,-286,54.995405197143555,54.99547982215881,54.99839925765991,55.00921940803528,55.153783082962036,55.153783082962036,55.153783082962036,55.153783082962036,55.153783082962036,55.153783082962036,55.153783082962036,61.91038942337036,2,6.88458776473999,None,,,,,,,,,,,,,,,,,,45,2,2025-02-19_13h00.56.268,comp,2024.2.4,54.83847096216629,2025-02-19 13h01.02.341065 -0500,
5,5,0,filler_square,None,None,None,None,None,None,None,None,None,None,1,1.8996477127075195,None,,,,,0,0,0,0,0,5,5,188,61.92951726913452,,,,,,,,,,,,,,,,,,,,,,,,,,,,,,,,,,,,,,,,,,,,,,,,,,,,,,,,,,,,,,,,,,,,,,,,,,,,,,,,,124.38033514763369,124.38033514763369,98.47155410002955,68.88615951528078,115.58651409733113,91.04930732624561,2.1,2.12,-193,-284,0,-263,176,265,61.91233539581299,61.91241478919983,61.915804624557495,61.92951726913452,62.07356929779053,62.07356929779053,62.07356929779053,62.07356929779053,62.07356929779053,62.07356929779053,62.07356929779053,63.84000277519226,1,1.8996477127075195,None,,,,,,,,,,,,,,,,,,45,2,2025-02-19_13h00.56.268,comp,2024.2.4,54.83847096216629,2025-02-19 13h01.02.341065 -0500,
6,6,0,filler_random,None,None,None,None,None,None,None,None,None,None,3,2.289572238922119,None,,,,,0,0,0,0,0,6,6,133,63.86027264595032,,,,,,,,,,,,,,,,,,,,,,,,,,,,,,,,,,,,,,,,,,,,,,,,,,,,,,,,,,,,,,,,,,,,,,,,,,,,,,,,,100.9280919774433,91.65371114179032,110.91709612963574,135.11364259569604,119.8242962102234,176.69817150983278,1.0,1.3,271,-255,480,-254,732,-272,63.84174680709839,63.84182548522949,63.845165491104126,63.86027264595032,63.99713969230652,63.99713969230652,63.99713969230652,63.99713969230652,63.99713969230652,63.99713969230652,63.99713969230652,66.15806245803833,3,2.289572238922119,None,,,,,,,,,,,,,,,,,,45,2,2025-02-19_13h00.56.268,comp,2024.2.4,54.83847096216629,2025-02-19 13h01.02.341065 -0500,
7,7,0,filler_random,None,None,None,None,None,None,None,None,None,None,3,1.8296921253204346,None,,,,,0,0,0,0,0,7,7,136,66.17551326751709,,,,,,,,,,,,,,,,,,,,,,,,,,,,,,,,,,,,,,,,,,,,,,,,,,,,,,,,,,,,,,,,,,,,,,,,,,,,,,,,,74.20005337636536,186.15066552002028,68.68101897266078,57.98042377984958,173.951405175731,91.19378268873432,2.2,2.22,-218,271,0,-260,171,-277,66.1600399017334,66.16014885902405,66.16381859779358,66.17551326751709,66.32348799705505,66.32348799705505,66.32348799705505,66.32348799705505,66.32348799705505,66.32348799705505,66.32348799705505,68.02278208732605,3,1.8296921253204346,None,,,,,,,,,,,,,,,,,,45,2,2025-02-19_13h00.56.268,comp,2024.2.4,54.83847096216629,2025-02-19 13h01.02.341065 -0500,
8,8,0,critical,dhw,35.0,2.1,upper,127.0,127.0,200.0,125.0,125.0,200.0,3,5.933533668518066,None,,,,,0,0,0,0,0,8,8,25,68.03971433639526,,,,,,,,,,,,,,,,,,,,,,,,,,,,,,,,,,,,,,,,,,,,,,,,,,,,,,,,,,,,,,,,,,,,,,,,,,,,,,,,,127.0,127.0,200.0,125.0,125.0,200.0,2.1,2.11,-222,284,0,264,258,-261,68.02452731132507,68.0246365070343,68.0283534526825,68.03971433639526,68.19198560714722,68.19198560714722,68.19198560714722,68.19198560714722,68.19198560714722,68.19198560714722,68.19198560714722,73.97700762748718,3,5.933533668518066,None,,,,,,,,,,,,,,,,,,45,2,2025-02-19_13h00.56.268,comp,2024.2.4,54.83847096216629,2025-02-19 13h01.02.341065 -0500,
9,9,0,critical,hwd,35.0,1.0,lower,133.0,57.0,57.0,133.0,70.0,70.0,2,1.410919427871704,None,,,,,0,0,0,0,0,9,9,96,73.99461245536804,,,,,,,,,,,,,,,,,,,,,,,,,,,,,,,,,,,,,,,,,,,,,,,,,,,,,,,,,,,,,,,,,,,,,,,,,,,,,,,,,133.0,57.0,57.0,133.0,70.0,70.0,1.0,1.1,-671,278,-480,289,-282,262,73.97854971885681,73.97862601280212,73.98154306411743,73.99461245536804,74.14294981956482,74.14294981956482,74.14294981956482,74.14294981956482,74.14294981956482,74.14294981956482,74.14294981956482,75.40897178649902,2,1.410919427871704,None,,,,,,,,,,,,,,,,,,45,2,2025-02-19_13h00.56.268,comp,2024.2.4,54.83847096216629,2025-02-19 13h01.02.341065 -0500,
10,10,0,catch,None,None,None,None,None,None,None,None,None,None,1,1.2125115394592285,None,,,,,0,0,0,0,0,10,10,120,75.42575979232788,,,,,,,,,,,,,,,,,,,,,,,,,,,,,,,,,,,,,,,,,,,,,,,,,,,,,,,,,,,,,,,,,,,,,,,,,,,,,,,,,153,172,64,126,90,100,2.1,2.12,-245,-269,0,-271,209,277,75.41085505485535,75.41093182563782,75.41406536102295,75.42575979232788,75.57442712783813,75.57442712783813,75.57442712783813,75.57442712783813,75.57442712783813,75.57442712783813,75.57442712783813,76.64497137069702,1,1.2125115394592285,None,,,,,,,,,,,,,,,,,,45,2,2025-02-19_13h00.56.268,comp,2024.2.4,54.83847096216629,2025-02-19 13h01.02.341065 -0500,
11,11,0,critical,wdh,20.0,2.1,lower,57.0,133.0,78.0,78.0,133.0,57.0,3,2.184509515762329,None,,,,,0,0,0,0,0,11,11,34,76.66096830368042,,,,,,,,,,,,,,,,,,,,,,,,,,,,,,,,,,,,,,,,,,,,,,,,,,,,,,,,,,,,,,,,,,,,,,,,,,,,,,,,,57.0,133.0,78.0,78.0,133.0,57.0,2.1,2.12,-202,-283,0,-254,164,278,76.64662265777588,76.64670038223267,76.65020155906677,76.66096830368042,76.8108217716217,76.8108217716217,76.8108217716217,76.8108217716217,76.8108217716217,76.8108217716217,76.8108217716217,78.84814262390137,3,2.184509515762329,None,,,,,,,,,,,,,,,,,,45,2,2025-02-19_13h00.56.268,comp,2024.2.4,54.83847096216629,2025-02-19 13h01.02.341065 -0500,
12,12,0,filler_square,None,None,None,None,None,None,None,None,None,None,3,1.1167676448822021,None,,,,,0,0,0,0,0,12,12,206,78.86484503746033,,,,,,,,,,,,,,,,,,,,,,,,,,,,,,,,,,,,,,,,,,,,,,,,,,,,,,,,,,,,,,,,,,,,,,,,,,,,,,,,,76.88274976422304,58.99644484308987,87.21019102902062,124.20248138003528,171.52593626764326,171.52593626764326,4.0,4.1,-188,-280,0,18,244,-259,78.85009336471558,78.85020732879639,78.85394263267517,78.86484503746033,79.01116991043091,79.01116991043091,79.01116991043091,79.01116991043091,79.01116991043091,79.01116991043091,79.01116991043091,79.98400378227234,3,1.1167676448822021,None,,,,,,,,,,,,,,,,,,45,2,2025-02-19_13h00.56.268,comp,2024.2.4,54.83847096216629,2025-02-19 13h01.02.341065 -0500,
13,13,0,critical,hdw,20.0,3.0,lower,133.0,57.0,78.0,78.0,57.0,133.0,1,2.1215898990631104,None,,,,,0,0,0,0,0,13,13,116,80.00435185432434,,,,,,,,,,,,,,,,,,,,,,,,,,,,,,,,,,,,,,,,,,,,,,,,,,,,,,,,,,,,,,,,,,,,,,,,,,,,,,,,,133.0,57.0,78.0,78.0,57.0,133.0,3.0,3.2,-164,-262,0,-18,202,259,79.98558783531189,79.9856698513031,79.98870706558228,80.00435185432434,80.14481902122498,80.14481902122498,80.14481902122498,80.14481902122498,80.14481902122498,80.14481902122498,80.14481902122498,82.13034915924072,1,2.1215898990631104,None,,,,,,,,,,,,,,,,,,45,2,2025-02-19_13h00.56.268,comp,2024.2.4,54.83847096216629,2025-02-19 13h01.02.341065 -0500,
14,14,0,critical,dhw,35.0,2.1,upper,127.0,127.0,200.0,125.0,125.0,200.0,2,2.0182981491088867,None,,,,,0,0,0,0,0,14,14,1,82.14697527885437,,,,,,,,,,,,,,,,,,,,,,,,,,,,,,,,,,,,,,,,,,,,,,,,,,,,,,,,,,,,,,,,,,,,,,,,,,,,,,,,,127.0,127.0,200.0,125.0,125.0,200.0,2.1,2.12,-222,-286,0,-263,258,267,82.1322226524353,82.13230443000793,82.13623428344727,82.14697527885437,82.29618811607361,82.29618811607361,82.29618811607361,82.29618811607361,82.29618811607361,82.29618811607361,82.29618811607361,84.17939138412476,2,2.0182981491088867,None,,,,,,,,,,,,,,,,,,45,2,2025-02-19_13h00.56.268,comp,2024.2.4,54.83847096216629,2025-02-19 13h01.02.341065 -0500,
15,15,0,filler_square,None,None,None,None,None,None,None,None,None,None,2,0.8263213634490967,None,,,,,0,0,0,0,0,15,15,203,84.19490170478821,,,,,,,,,,,,,,,,,,,,,,,,,,,,,,,,,,,,,,,,,,,,,,,,,,,,,,,,,,,,,,,,,,,,,,,,,,,,,,,,,69.77276019787077,124.08092709050258,175.19443772814145,175.19443772814145,73.1623739301597,121.61948296510498,3.0,3.2,-246,-272,0,-6,244,254,84.18121838569641,84.18129301071167,84.1847071647644,84.19490170478821,84.34597516059875,84.34597516059875,84.34597516059875,84.34597516059875,84.34597516059875,84.34597516059875,84.34597516059875,85.03131151199341,2,0.8263213634490967,None,,,,,,,,,,,,,,,,,,45,2,2025-02-19_13h00.56.268,comp,2024.2.4,54.83847096216629,2025-02-19 13h01.02.341065 -0500,
16,16,0,filler_random,None,None,None,None,None,None,None,None,None,None,2,0.9659531116485596,None,,,,,0,0,0,0,0,16,16,167,85.04776263237,,,,,,,,,,,,,,,,,,,,,,,,,,,,,,,,,,,,,,,,,,,,,,,,,,,,,,,,,,,,,,,,,,,,,,,,,,,,,,,,,89.58478426300945,178.25079567169283,168.37861216270903,182.98536336995545,66.93066990503401,132.9821821256453,2.2,2.22,-277,260,0,-268,254,-278,85.03323817253113,85.03336763381958,85.03692197799683,85.04776263237,85.19723701477051,85.19723701477051,85.19723701477051,85.19723701477051,85.19723701477051,85.19723701477051,85.19723701477051,86.02367329597473,2,0.9659531116485596,None,,,,,,,,,,,,,,,,,,45,2,2025-02-19_13h00.56.268,comp,2024.2.4,54.83847096216629,2025-02-19 13h01.02.341065 -0500,
17,17,0,filler_square,None,None,None,None,None,None,None,None,None,None,2,0.9043712615966797,None,,,,,0,0,0,0,0,17,17,189,86.04490542411804,,,,,,,,,,,,,,,,,,,,,,,,,,,,,,,,,,,,,,,,,,,,,,,,,,,,,,,,,,,,,,,,,,,,,,,,,,,,,,,,,132.54866967386585,99.24415072876033,172.72364359057877,172.72364359057877,141.17816769331756,138.5109701898526,1.0,1.3,248,-254,480,-257,732,-266,86.02566313743591,86.02574944496155,86.0290687084198,86.04490542411804,86.17997074127197,86.17997074127197,86.17997074127197,86.17997074127197,86.17997074127197,86.17997074127197,86.17997074127197,86.96301507949829,2,0.9043712615966797,None,,,,,,,,,,,,,,,,,,45,2,2025-02-19_13h00.56.268,comp,2024.2.4,54.83847096216629,2025-02-19 13h01.02.341065 -0500,
18,18,0,filler_square,None,None,None,None,None,None,None,None,None,None,1,1.361034631729126,None,,,,,0,0,0,0,0,18,18,184,86.9813392162323,,,,,,,,,,,,,,,,,,,,,,,,,,,,,,,,,,,,,,,,,,,,,,,,,,,,,,,,,,,,,,,,,,,,,,,,,,,,,,,,,147.84524665239513,147.84524665239513,145.86684358211804,130.03903588818747,102.32066761991231,72.31011157629835,1.0,1.3,245,-256,480,-288,677,-266,86.96504974365234,86.9651563167572,86.9687876701355,86.9813392162323,87.13288307189941,87.13288307189941,87.13288307189941,87.13288307189941,87.13288307189941,87.13288307189941,87.13288307189941,88.34973788261414,1,1.361034631729126,None,,,,,,,,,,,,,,,,,,45,2,2025-02-19_13h00.56.268,comp,2024.2.4,54.83847096216629,2025-02-19 13h01.02.341065 -0500,
19,19,0,filler_square,None,None,None,None,None,None,None,None,None,None,3,1.592193365097046,None,,,,,0,0,0,0,0,19,19,181,88.36659288406372,,,,,,,,,,,,,,,,,,,,,,,,,,,,,,,,,,,,,,,,,,,,,,,,,,,,,,,,,,,,,,,,,,,,,,,,,,,,,,,,,102.3787929708448,130.84381265589718,81.19638338086594,102.26621570360737,145.74298593980768,145.74298593980768,1.0,1.3,267,-253,480,-252,700,-262,88.35171890258789,88.35179948806763,88.35514879226685,88.36659288406372,88.51866269111633,88.51866269111633,88.51866269111633,88.51866269111633,88.51866269111633,88.51866269111633,88.51866269111633,89.96125769615173,3,1.592193365097046,None,,,,,,,,,,,,,,,,,,45,2,2025-02-19_13h00.56.268,comp,2024.2.4,54.83847096216629,2025-02-19 13h01.02.341065 -0500,
20,20,0,filler_square,None,None,None,None,None,None,None,None,None,None,2,1.242746353149414,None,,,,,0,0,0,0,0,20,20,180,89.97922039031982,,,,,,,,,,,,,,,,,,,,,,,,,,,,,,,,,,,,,,,,,,,,,,,,,,,,,,,,,,,,,,,,,,,,,,,,,,,,,,,,,58.5344561026497,67.60684054923142,135.97922915666345,135.97922915666345,81.2588892266825,90.30212479303583,4.0,4.1,-198,-280,0,-3,209,-285,89.96337175369263,89.96345329284668,89.96677327156067,89.97922039031982,90.13426399230957,90.13426399230957,90.13426399230957,90.13426399230957,90.13426399230957,90.13426399230957,90.13426399230957,91.23187828063965,2,1.242746353149414,None,,,,,,,,,,,,,,,,,,45,2,2025-02-19_13h00.56.268,comp,2024.2.4,54.83847096216629,2025-02-19 13h01.02.341065 -0500,
21,21,0,filler_square,None,None,None,None,None,None,None,None,None,None,3,1.0280122756958008,None,,,,,0,0,0,0,0,21,21,170,91.24925804138184,,,,,,,,,,,,,,,,,,,,,,,,,,,,,,,,,,,,,,,,,,,,,,,,,,,,,,,,,,,,,,,,,,,,,,,,,,,,,,,,,93.46290459014315,93.78935918715577,67.23922379904252,96.01246510287538,137.49135148235155,137.49135148235155,1.0,1.2,-191,0,0,2,213,17,91.23390316963196,91.23398208618164,91.23804998397827,91.24925804138184,91.39884972572327,91.39884972572327,91.39884972572327,91.39884972572327,91.39884972572327,91.39884972572327,91.39884972572327,92.28261947631836,3,1.0280122756958008,None,,,,,,,,,,,,,,,,,,45,2,2025-02-19_13h00.56.268,comp,2024.2.4,54.83847096216629,2025-02-19 13h01.02.341065 -0500,
22,22,0,filler_random,None,None,None,None,None,None,None,None,None,None,2,1.5497682094573975,None,,,,,0,0,0,0,0,22,22,160,92.30346369743347,,,,,,,,,,,,,,,,,,,,,,,,,,,,,,,,,,,,,,,,,,,,,,,,,,,,,,,,,,,,,,,,,,,,,,,,,,,,,,,,,88.65826850389024,113.87601287188724,120.10595618950633,101.92689912300456,106.82961320606509,123.17741881638037,1.0,1.2,-204,-7,0,17,209,2,92.28436064720154,92.28443670272827,92.28775000572205,92.30346369743347,92.44925117492676,92.44925117492676,92.44925117492676,92.44925117492676,92.44925117492676,92.44925117492676,92.44925117492676,93.86486649513245,2,1.5497682094573975,None,,,,,,,,,,,,,,,,,,45,2,2025-02-19_13h00.56.268,comp,2024.2.4,54.83847096216629,2025-02-19 13h01.02.341065 -0500,
23,23,0,critical,wdh,35.0,2.1,lower,57.0,133.0,70.0,70.0,133.0,57.0,1,2.07651686668396,None,,,,,0,0,0,0,0,23,23,8,93.88126730918884,,,,,,,,,,,,,,,,,,,,,,,,,,,,,,,,,,,,,,,,,,,,,,,,,,,,,,,,,,,,,,,,,,,,,,,,,,,,,,,,,57.0,133.0,70.0,70.0,133.0,57.0,2.1,2.11,-198,251,0,255,160,-262,93.86640071868896,93.86647605895996,93.86968755722046,93.88126730918884,94.03074955940247,94.03074955940247,94.03074955940247,94.03074955940247,94.03074955940247,94.03074955940247,94.03074955940247,95.96763825416565,1,2.07651686668396,None,,,,,,,,,,,,,,,,,,45,2,2025-02-19_13h00.56.268,comp,2024.2.4,54.83847096216629,2025-02-19 13h01.02.341065 -0500,
24,24,0,filler_random,None,None,None,None,None,None,None,None,None,None,1,2.7474231719970703,None,,,,,0,0,0,0,0,24,24,144,95.98596382141113,,,,,,,,,,,,,,,,,,,,,,,,,,,,,,,,,,,,,,,,,,,,,,,,,,,,,,,,,,,,,,,,,,,,,,,,,,,,,,,,,104.4046980914006,136.59851373273023,60.49416907398967,182.0878477740955,119.85024323673963,130.93165272580984,1.0,1.2,-255,-18,0,9,253,-19,95.96942281723022,95.96950173377991,95.97316336631775,95.98596382141113,96.13838195800781,96.13838195800781,96.13838195800781,96.13838195800781,96.13838195800781,96.13838195800781,96.13838195800781,98.73790550231934,1,2.7474231719970703,None,,,,,,,,,,,,,,,,,,45,2,2025-02-19_13h00.56.268,comp,2024.2.4,54.83847096216629,2025-02-19 13h01.02.341065 -0500,
25,25,0,critical,dwh,20.0,4.0,upper,141.0,141.0,125.0,200.0,200.0,125.0,2,2.713649034500122,None,,,,,0,0,0,0,0,25,25,71,98.75581812858582,,,,,,,,,,,,,,,,,,,,,,,,,,,,,,,,,,,,,,,,,,,,,,,,,,,,,,,,,,,,,,,,,,,,,,,,,,,,,,,,,141.0,141.0,125.0,200.0,200.0,125.0,4.0,4.2,-266,17,0,-286,258,10,98.73963928222656,98.73971939086914,98.74272656440735,98.75581812858582,98.90187215805054,98.90187215805054,98.90187215805054,98.90187215805054,98.90187215805054,98.90187215805054,98.90187215805054,101.48576998710632,2,2.713649034500122,None,,,,,,,,,,,,,,,,,,45,2,2025-02-19_13h00.56.268,comp,2024.2.4,54.83847096216629,2025-02-19 13h01.02.341065 -0500,
26,26,0,filler_square,None,None,None,None,None,None,None,None,None,None,2,1.247286319732666,None,,,,,0,0,0,0,0,26,26,196,101.50231218338013,,,,,,,,,,,,,,,,,,,,,,,,,,,,,,,,,,,,,,,,,,,,,,,,,,,,,,,,,,,,,,,,,,,,,,,,,,,,,,,,,77.3401923453848,64.80610165284003,92.11591963474109,92.11591963474109,89.65416805501766,80.86150531685693,1.0,1.2,-174,-5,0,1,182,-16,101.48765134811401,101.48778343200684,101.49135971069336,101.50231218338013,101.65624809265137,101.65624809265137,101.65624809265137,101.65624809265137,101.65624809265137,101.65624809265137,101.65624809265137,102.7679352760315,2,1.247286319732666,None,,,,,,,,,,,,,,,,,,45,2,2025-02-19_13h00.56.268,comp,2024.2.4,54.83847096216629,2025-02-19 13h01.02.341065 -0500,
27,27,0,critical,dhw,20.0,3.0,lower,78.0,78.0,133.0,57.0,57.0,133.0,2,1.6773178577423096,None,,,,,0,0,0,0,0,27,27,56,102.78401827812195,,,,,,,,,,,,,,,,,,,,,,,,,,,,,,,,,,,,,,,,,,,,,,,,,,,,,,,,,,,,,,,,,,,,,,,,,,,,,,,,,78.0,78.0,133.0,57.0,57.0,133.0,3.0,3.2,-164,-281,0,7,191,252,102.76958560943604,102.76970744132996,102.77310180664062,102.78401827812195,102.93727397918701,102.93727397918701,102.93727397918701,102.93727397918701,102.93727397918701,102.93727397918701,102.93727397918701,104.47883319854736,2,1.6773178577423096,None,,,,,,,,,,,,,,,,,,45,2,2025-02-19_13h00.56.268,comp,2024.2.4,54.83847096216629,2025-02-19 13h01.02.341065 -0500,
28,28,0,filler_square,None,None,None,None,None,None,None,None,None,None,1,1.0555834770202637,None,,,,,0,0,0,0,0,28,28,177,104.49396514892578,,,,,,,,,,,,,,,,,,,,,,,,,,,,,,,,,,,,,,,,,,,,,,,,,,,,,,,,,,,,,,,,,,,,,,,,,,,,,,,,,79.12702681284487,79.12702681284487,62.981046335642844,71.57750794254468,57.83848528989453,65.10202547057703,1.0,1.2,-171,5,0,-10,164,-16,104.48057126998901,104.48064613342285,104.483553647995,104.49396514892578,104.63669013977051,104.63669013977051,104.63669013977051,104.63669013977051,104.63669013977051,104.63669013977051,104.63669013977051,105.55459928512573,1,1.0555834770202637,None,,,,,,,,,,,,,,,,,,45,2,2025-02-19_13h00.56.268,comp,2024.2.4,54.83847096216629,2025-02-19 13h01.02.341065 -0500,
29,29,0,critical,wdh,35.0,3.0,lower,57.0,133.0,70.0,70.0,133.0,57.0,3,1.4986610412597656,None,,,,,0,0,0,0,0,29,29,74,105.57086396217346,,,,,,,,,,,,,,,,,,,,,,,,,,,,,,,,,,,,,,,,,,,,,,,,,,,,,,,,,,,,,,,,,,,,,,,,,,,,,,,,,57.0,133.0,70.0,70.0,133.0,57.0,3.0,3.1,-198,274,0,1,160,-265,105.55630946159363,105.5564513206482,105.5600414276123,105.57086396217346,105.71896648406982,105.71896648406982,105.71896648406982,105.71896648406982,105.71896648406982,105.71896648406982,105.71896648406982,107.08710551261902,3,1.4986610412597656,None,,,,,,,,,,,,,,,,,,45,2,2025-02-19_13h00.56.268,comp,2024.2.4,54.83847096216629,2025-02-19 13h01.02.341065 -0500,
30,30,0,filler_random,None,None,None,None,None,None,None,None,None,None,2,3.1988489627838135,None,,,,,0,0,0,0,0,30,30,149,107.10348463058472,,,,,,,,,,,,,,,,,,,,,,,,,,,,,,,,,,,,,,,,,,,,,,,,,,,,,,,,,,,,,,,,,,,,,,,,,,,,,,,,,135.753903386936,189.44509421695477,174.3716035235277,165.5242236872587,187.72318204106293,75.05329838929403,3.0,3.2,-273,-270,0,13,216,273,107.08907437324524,107.08917999267578,107.0931441783905,107.10348463058472,107.25053668022156,107.25053668022156,107.25053668022156,107.25053668022156,107.25053668022156,107.25053668022156,107.25053668022156,110.30825757980347,2,3.1988489627838135,None,,,,,,,,,,,,,,,,,,45,2,2025-02-19_13h00.56.268,comp,2024.2.4,54.83847096216629,2025-02-19 13h01.02.341065 -0500,
31,31,0,critical,hdw,35.0,3.0,upper,200.0,125.0,127.0,127.0,125.0,200.0,3,1.1772491931915283,None,,,,,0,0,0,0,0,31,31,111,110.32418274879456,,,,,,,,,,,,,,,,,,,,,,,,,,,,,,,,,,,,,,,,,,,,,,,,,,,,,,,,,,,,,,,,,,,,,,,,,,,,,,,,,200.0,125.0,127.0,127.0,125.0,200.0,3.0,3.1,-222,285,0,19,260,-282,110.30985355377197,110.30992984771729,110.31338119506836,110.32418274879456,110.47079038619995,110.47079038619995,110.47079038619995,110.47079038619995,110.47079038619995,110.47079038619995,110.47079038619995,111.52034711837769,3,1.1772491931915283,None,,,,,,,,,,,,,,,,,,45,2,2025-02-19_13h00.56.268,comp,2024.2.4,54.83847096216629,2025-02-19 13h01.02.341065 -0500,
32,32,0,filler_random,None,None,None,None,None,None,None,None,None,None,3,0.7975409030914307,None,,,,,0,0,0,0,0,32,32,151,111.53641295433044,,,,,,,,,,,,,,,,,,,,,,,,,,,,,,,,,,,,,,,,,,,,,,,,,,,,,,,,,,,,,,,,,,,,,,,,,,,,,,,,,60.38487114427982,157.6058599242713,111.3536414779775,142.13298108645304,197.0322509225376,182.33707350990085,3.0,3.1,-246,265,0,-7,258,-268,111.52229118347168,111.52236914634705,111.52579402923584,111.53641295433044,111.6923143863678,111.6923143863678,111.6923143863678,111.6923143863678,111.6923143863678,111.6923143863678,111.6923143863678,112.34315514564514,3,0.7975409030914307,None,,,,,,,,,,,,,,,,,,45,2,2025-02-19_13h00.56.268,comp,2024.2.4,54.83847096216629,2025-02-19 13h01.02.341065 -0500,
33,33,0,critical,wdh,20.0,1.0,upper,125.0,200.0,141.0,141.0,200.0,125.0,3,1.7545912265777588,None,,,,,0,0,0,0,0,33,33,79,112.36300587654114,,,,,,,,,,,,,,,,,,,,,,,,,,,,,,,,,,,,,,,,,,,,,,,,,,,,,,,,,,,,,,,,,,,,,,,,,,,,,,,,,125.0,200.0,141.0,141.0,200.0,125.0,1.0,1.2,-266,-16,0,19,229,-19,112.34460234642029,112.3446798324585,112.34764313697815,112.36300587654114,112.50502800941467,112.50502800941467,112.50502800941467,112.50502800941467,112.50502800941467,112.50502800941467,112.50502800941467,114.1232898235321,3,1.7545912265777588,None,,,,,,,,,,,,,,,,,,45,2,2025-02-19_13h00.56.268,comp,2024.2.4,54.83847096216629,2025-02-19 13h01.02.341065 -0500,
34,34,0,critical,dhw,35.0,1.0,lower,70.0,70.0,133.0,57.0,57.0,133.0,2,4.633611679077148,None,,,,,0,0,0,0,0,34,34,48,114.13980436325073,,,,,,,,,,,,,,,,,,,,,,,,,,,,,,,,,,,,,,,,,,,,,,,,,,,,,,,,,,,,,,,,,,,,,,,,,,,,,,,,,70.0,70.0,133.0,57.0,57.0,133.0,1.0,1.3,320,-290,480,-263,671,-254,114.12499475479126,114.12513446807861,114.12896490097046,114.13980436325073,114.29378986358643,114.29378986358643,114.29378986358643,114.29378986358643,114.29378986358643,114.29378986358643,114.29378986358643,118.79330563545227,2,4.633611679077148,None,,,,,,,,,,,,,,,,,,45,2,2025-02-19_13h00.56.268,comp,2024.2.4,54.83847096216629,2025-02-19 13h01.02.341065 -0500,
35,35,0,filler_random,None,None,None,None,None,None,None,None,None,None,3,1.0165305137634277,None,,,,,0,0,0,0,0,35,35,156,118.81278610229492,,,,,,,,,,,,,,,,,,,,,,,,,,,,,,,,,,,,,,,,,,,,,,,,,,,,,,,,,,,,,,,,,,,,,,,,,,,,,,,,,160.6414781530835,169.3889316863192,121.56454673786416,155.35429393586503,145.19793717142807,171.2086513887449,4.0,4.1,-258,-255,0,-7,259,-282,118.79539823532104,118.79548048973083,118.79899096488953,118.81278610229492,118.95799827575684,118.95799827575684,118.95799827575684,118.95799827575684,118.95799827575684,118.95799827575684,118.95799827575684,119.84201192855835,3,1.0165305137634277,None,,,,,,,,,,,,,,,,,,45,2,2025-02-19_13h00.56.268,comp,2024.2.4,54.83847096216629,2025-02-19 13h01.02.341065 -0500,
36,36,0,filler_square,None,None,None,None,None,None,None,None,None,None,3,1.219416618347168,None,,,,,0,0,0,0,0,36,36,209,119.85807752609253,,,,,,,,,,,,,,,,,,,,,,,,,,,,,,,,,,,,,,,,,,,,,,,,,,,,,,,,,,,,,,,,,,,,,,,,,,,,,,,,,105.52285845938292,79.0049205004955,57.074139486194966,135.30668096290208,153.34090668897778,153.34090668897778,2.1,2.11,-203,283,0,274,240,-259,119.84406661987305,119.84422278404236,119.84783101081848,119.85807752609253,120.00715851783752,120.00715851783752,120.00715851783752,120.00715851783752,120.00715851783752,120.00715851783752,120.00715851783752,121.09837889671326,3,1.219416618347168,None,,,,,,,,,,,,,,,,,,45,2,2025-02-19_13h00.56.268,comp,2024.2.4,54.83847096216629,2025-02-19 13h01.02.341065 -0500,
37,37,0,filler_square,None,None,None,None,None,None,None,None,None,None,1,1.3661561012268066,None,,,,,0,0,0,0,0,37,37,187,121.11930751800537,,,,,,,,,,,,,,,,,,,,,,,,,,,,,,,,,,,,,,,,,,,,,,,,,,,,,,,,,,,,,,,,,,,,,,,,,,,,,,,,,136.00722941810565,136.00722941810565,91.55093508934343,105.38924852671963,82.22090886121235,96.32745646531279,4.0,4.2,-217,-19,0,-256,197,-2,121.10034203529358,121.10041761398315,121.10401725769043,121.11930751800537,121.25843715667725,121.25843715667725,121.25843715667725,121.25843715667725,121.25843715667725,121.25843715667725,121.25843715667725,122.49405360221863,1,1.3661561012268066,None,,,,,,,,,,,,,,,,,,45,2,2025-02-19_13h00.56.268,comp,2024.2.4,54.83847096216629,2025-02-19 13h01.02.341065 -0500,
38,38,0,critical,whd,35.0,3.0,lower,57.0,133.0,133.0,57.0,70.0,70.0,2,1.14247465133667,None,,,,,0,0,0,0,0,38,38,86,122.51094484329224,,,,,,,,,,,,,,,,,,,,,,,,,,,,,,,,,,,,,,,,,,,,,,,,,,,,,,,,,,,,,,,,,,,,,,,,,,,,,,,,,57.0,133.0,133.0,57.0,70.0,70.0,3.0,3.2,-191,-259,0,-12,160,258,122.49626612663269,122.49636483192444,122.49935793876648,122.51094484329224,122.65520000457764,122.65520000457764,122.65520000457764,122.65520000457764,122.65520000457764,122.65520000457764,122.65520000457764,123.66700959205627,2,1.14247465133667,None,,,,,,,,,,,,,,,,,,45,2,2025-02-19_13h00.56.268,comp,2024.2.4,54.83847096216629,2025-02-19 13h01.02.341065 -0500,
39,39,0,critical,dwh,20.0,1.0,upper,141.0,141.0,125.0,200.0,200.0,125.0,3,1.249877691268921,None,,,,,0,0,0,0,0,39,39,67,123.68344807624817,,,,,,,,,,,,,,,,,,,,,,,,,,,,,,,,,,,,,,,,,,,,,,,,,,,,,,,,,,,,,,,,,,,,,,,,,,,,,,,,,141.0,141.0,125.0,200.0,200.0,125.0,1.0,1.1,-746,264,-480,280,-222,254,123.66865253448486,123.6687285900116,123.67207837104797,123.68344807624817,123.82629156112671,123.82629156112671,123.82629156112671,123.82629156112671,123.82629156112671,123.82629156112671,123.82629156112671,124.94718885421753,3,1.249877691268921,None,,,,,,,,,,,,,,,,,,45,2,2025-02-19_13h00.56.268,comp,2024.2.4,54.83847096216629,2025-02-19 13h01.02.341065 -0500,
40,40,0,critical,wdh,35.0,3.0,upper,125.0,200.0,127.0,127.0,200.0,125.0,1,1.5261244773864746,None,,,,,0,0,0,0,0,40,40,75,124.96741485595703,,,,,,,,,,,,,,,,,,,,,,,,,,,,,,,,,,,,,,,,,,,,,,,,,,,,,,,,,,,,,,,,,,,,,,,,,,,,,,,,,125.0,200.0,127.0,127.0,200.0,125.0,3.0,3.2,-260,-265,0,6,222,258,124.94868016242981,124.94875741004944,124.95168733596802,124.96741485595703,125.1094274520874,125.1094274520874,125.1094274520874,125.1094274520874,125.1094274520874,125.1094274520874,125.1094274520874,126.49633836746216,1,1.5261244773864746,None,,,,,,,,,,,,,,,,,,45,2,2025-02-19_13h00.56.268,comp,2024.2.4,54.83847096216629,2025-02-19 13h01.02.341065 -0500,
41,41,0,critical,dwh,35.0,1.0,lower,70.0,70.0,57.0,133.0,133.0,57.0,3,1.5067346096038818,None,,,,,0,0,0,0,0,41,41,60,126.51455879211426,,,,,,,,,,,,,,,,,,,,,,,,,,,,,,,,,,,,,,,,,,,,,,,,,,,,,,,,,,,,,,,,,,,,,,,,,,,,,,,,,70.0,70.0,57.0,133.0,133.0,57.0,1.0,1.3,282,-287,480,-273,671,-276,126.49797129631042,126.49804902076721,126.50146508216858,126.51455879211426,126.65969038009644,126.65969038009644,126.65969038009644,126.65969038009644,126.65969038009644,126.65969038009644,126.65969038009644,128.03313541412354,3,1.5067346096038818,None,,,,,,,,,,,,,,,,,,45,2,2025-02-19_13h00.56.268,comp,2024.2.4,54.83847096216629,2025-02-19 13h01.02.341065 -0500,
42,42,0,critical,hwd,20.0,2.1,upper,200.0,125.0,125.0,200.0,141.0,141.0,2,1.4292888641357422,None,,,,,0,0,0,0,0,42,42,43,128.0484471321106,,,,,,,,,,,,,,,,,,,,,,,,,,,,,,,,,,,,,,,,,,,,,,,,,,,,,,,,,,,,,,,,,,,,,,,,,,,,,,,,,200.0,125.0,125.0,200.0,141.0,141.0,2.1,2.11,-258,253,0,250,266,-264,128.0346281528473,128.03470373153687,128.03763794898987,128.0484471321106,128.19390416145325,128.19390416145325,128.19390416145325,128.19390416145325,128.19390416145325,128.19390416145325,128.19390416145325,129.4808008670807,2,1.4292888641357422,None,,,,,,,,,,,,,,,,,,45,2,2025-02-19_13h00.56.268,comp,2024.2.4,54.83847096216629,2025-02-19 13h01.02.341065 -0500,
43,43,0,filler_square,None,None,None,None,None,None,None,None,None,None,1,1.6363756656646729,None,,,,,0,0,0,0,0,43,43,195,129.4970579147339,,,,,,,,,,,,,,,,,,,,,,,,,,,,,,,,,,,,,,,,,,,,,,,,,,,,,,,,,,,,,,,,,,,,,,,,,,,,,,,,,122.3255070406902,122.3255070406902,112.04115330021854,79.73251102323559,118.86384946111116,82.91243595935083,2.2,2.21,-197,-273,0,284,177,261,129.4827389717102,129.48286390304565,129.4863781929016,129.4970579147339,129.64794206619263,129.64794206619263,129.64794206619263,129.64794206619263,129.64794206619263,129.64794206619263,129.64794206619263,131.14400935173035,1,1.6363756656646729,None,,,,,,,,,,,,,,,,,,45,2,2025-02-19_13h00.56.268,comp,2024.2.4,54.83847096216629,2025-02-19 13h01.02.341065 -0500,
44,44,0,critical,dhw,20.0,2.1,upper,141.0,141.0,200.0,125.0,125.0,200.0,2,1.1316981315612793,None,,,,,0,0,0,0,0,44,44,27,131.16170382499695,,,,,,,,,,,,,,,,,,,,,,,,,,,,,,,,,,,,,,,,,,,,,,,,,,,,,,,,,,,,,,,,,,,,,,,,,,,,,,,,,141.0,141.0,200.0,125.0,125.0,200.0,2.1,2.11,-229,251,0,286,258,-263,131.14547181129456,131.14554834365845,131.1486735343933,131.16170382499695,131.3110294342041,131.3110294342041,131.3110294342041,131.3110294342041,131.3110294342041,131.3110294342041,131.3110294342041,132.3111560344696,2,1.1316981315612793,None,,,,,,,,,,,,,,,,,,45,2,2025-02-19_13h00.56.268,comp,2024.2.4,54.83847096216629,2025-02-19 13h01.02.341065 -0500,
45,45,0,filler_random,None,None,None,None,None,None,None,None,None,None,3,1.1671192646026611,None,,,,,0,0,0,0,0,45,45,153,132.32696771621704,,,,,,,,,,,,,,,,,,,,,,,,,,,,,,,,,,,,,,,,,,,,,,,,,,,,,,,,,,,,,,,,,,,,,,,,,,,,,,,,,172.48762344594203,65.86054837651267,78.03356190052125,130.63896691737745,193.6940174881113,165.94003646477347,4.0,4.1,-194,-256,0,7,244,-274,132.31306171417236,132.31320214271545,132.31663823127747,132.32696771621704,132.47582626342773,132.47582626342773,132.47582626342773,132.47582626342773,132.47582626342773,132.47582626342773,132.47582626342773,133.4962682723999,3,1.1671192646026611,None,,,,,,,,,,,,,,,,,,45,2,2025-02-19_13h00.56.268,comp,2024.2.4,54.83847096216629,2025-02-19 13h01.02.341065 -0500,
46,46,0,critical,dhw,20.0,4.0,lower,78.0,78.0,133.0,57.0,57.0,133.0,2,1.0940990447998047,None,,,,,0,0,0,0,0,46,46,58,133.5120108127594,,,,,,,,,,,,,,,,,,,,,,,,,,,,,,,,,,,,,,,,,,,,,,,,,,,,,,,,,,,,,,,,,,,,,,,,,,,,,,,,,78.0,78.0,133.0,57.0,57.0,133.0,4.0,4.2,-164,-15,0,-250,191,15,133.49785041809082,133.49794340133667,133.501305103302,133.5120108127594,133.6653847694397,133.6653847694397,133.6653847694397,133.6653847694397,133.6653847694397,133.6653847694397,133.6653847694397,134.6125259399414,2,1.0940990447998047,None,,,,,,,,,,,,,,,,,,45,2,2025-02-19_13h00.56.268,comp,2024.2.4,54.83847096216629,2025-02-19 13h01.02.341065 -0500,
47,47,0,filler_random,None,None,None,None,None,None,None,None,None,None,2,1.0647122859954834,None,,,,,0,0,0,0,0,47,47,145,134.62874794006348,,,,,,,,,,,,,,,,,,,,,,,,,,,,,,,,,,,,,,,,,,,,,,,,,,,,,,,,,,,,,,,,,,,,,,,,,,,,,,,,,101.7971033777517,92.87163835331557,139.72408269433515,156.42623094247836,137.06134251250631,121.34350853047839,2.1,2.12,-221,-260,0,-267,235,290,134.61443734169006,134.61457347869873,134.61799883842468,134.62874794006348,134.7828164100647,134.7828164100647,134.7828164100647,134.7828164100647,134.7828164100647,134.7828164100647,134.7828164100647,135.71587824821472,2,1.0647122859954834,None,,,,,,,,,,,,,,,,,,45,2,2025-02-19_13h00.56.268,comp,2024.2.4,54.83847096216629,2025-02-19 13h01.02.341065 -0500,
48,48,0,critical,wdh,20.0,1.0,lower,57.0,133.0,78.0,78.0,133.0,57.0,3,1.3591210842132568,None,,,,,0,0,0,0,0,48,48,78,135.73398804664612,,,,,,,,,,,,,,,,,,,,,,,,,,,,,,,,,,,,,,,,,,,,,,,,,,,,,,,,,,,,,,,,,,,,,,,,,,,,,,,,,57.0,133.0,78.0,78.0,133.0,57.0,1.0,1.2,-202,-3,0,1,164,-18,135.7176854610443,135.7178144454956,135.7210590839386,135.73398804664612,135.8785297870636,135.8785297870636,135.8785297870636,135.8785297870636,135.8785297870636,135.8785297870636,135.8785297870636,137.09530758857727,3,1.3591210842132568,None,,,,,,,,,,,,,,,,,,45,2,2025-02-19_13h00.56.268,comp,2024.2.4,54.83847096216629,2025-02-19 13h01.02.341065 -0500,
49,49,0,critical,wdh,35.0,2.1,upper,125.0,200.0,127.0,127.0,200.0,125.0,1,1.9917349815368652,None,,,,,0,0,0,0,0,49,49,9,137.11079740524292,,,,,,,,,,,,,,,,,,,,,,,,,,,,,,,,,,,,,,,,,,,,,,,,,,,,,,,,,,,,,,,,,,,,,,,,,,,,,,,,,125.0,200.0,127.0,127.0,200.0,125.0,2.1,2.11,-260,268,0,282,222,-252,137.09616351127625,137.09620475769043,137.09783363342285,137.11079740524292,137.26039028167725,137.26039028167725,137.26039028167725,137.26039028167725,137.26039028167725,137.26039028167725,137.26039028167725,139.11072754859924,1,1.9917349815368652,None,,,,,,,,,,,,,,,,,,45,2,2025-02-19_13h00.56.268,comp,2024.2.4,54.83847096216629,2025-02-19 13h01.02.341065 -0500,
50,50,0,critical,hdw,35.0,4.0,upper,200.0,125.0,127.0,127.0,125.0,200.0,3,2.157808780670166,None,,,,,0,0,0,0,0,50,50,113,139.12759447097778,,,,,,,,,,,,,,,,,,,,,,,,,,,,,,,,,,,,,,,,,,,,,,,,,,,,,,,,,,,,,,,,,,,,,,,,,,,,,,,,,200.0,125.0,127.0,127.0,125.0,200.0,4.0,4.1,-222,-288,0,-14,260,-251,139.11238169670105,139.11245822906494,139.1158058643341,139.12759447097778,139.26825380325317,139.26825380325317,139.26825380325317,139.26825380325317,139.26825380325317,139.26825380325317,139.26825380325317,141.30073165893555,3,2.157808780670166,None,,,,,,,,,,,,,,,,,,45,2,2025-02-19_13h00.56.268,comp,2024.2.4,54.83847096216629,2025-02-19 13h01.02.341065 -0500,
51,51,0,filler_random,None,None,None,None,None,None,None,None,None,None,2,0.9500679969787598,None,,,,,0,0,0,0,0,51,51,163,141.3217213153839,,,,,,,,,,,,,,,,,,,,,,,,,,,,,,,,,,,,,,,,,,,,,,,,,,,,,,,,,,,,,,,,,,,,,,,,,,,,,,,,,155.69813212350044,64.02685963341358,165.45332825233265,104.35664363048163,58.32237296923726,116.58790408330786,2.2,2.22,-180,278,0,-259,206,-260,141.302672624588,141.30275440216064,141.30592894554138,141.3217213153839,141.46322774887085,141.46322774887085,141.46322774887085,141.46322774887085,141.46322774887085,141.46322774887085,141.46322774887085,142.2823348045349,2,0.9500679969787598,None,,,,,,,,,,,,,,,,,,45,2,2025-02-19_13h00.56.268,comp,2024.2.4,54.83847096216629,2025-02-19 13h01.02.341065 -0500,
52,52,0,critical,dwh,35.0,2.1,lower,70.0,70.0,57.0,133.0,133.0,57.0,2,1.203186273574829,None,,,,,0,0,0,0,0,52,52,4,142.29828763008118,,,,,,,,,,,,,,,,,,,,,,,,,,,,,,,,,,,,,,,,,,,,,,,,,,,,,,,,,,,,,,,,,,,,,,,,,,,,,,,,,70.0,70.0,57.0,133.0,133.0,57.0,2.1,2.12,-198,-263,0,-271,191,284,142.28395342826843,142.28403043746948,142.28755235671997,142.29828763008118,142.44724130630493,142.44724130630493,142.44724130630493,142.44724130630493,142.44724130630493,142.44724130630493,142.44724130630493,143.517098903656,2,1.203186273574829,None,,,,,,,,,,,,,,,,,,45,2,2025-02-19_13h00.56.268,comp,2024.2.4,54.83847096216629,2025-02-19 13h01.02.341065 -0500,
53,53,0,critical,hwd,35.0,3.0,lower,133.0,57.0,57.0,133.0,70.0,70.0,1,4.864557504653931,None,,,,,0,0,0,0,0,53,53,98,143.53374028205872,,,,,,,,,,,,,,,,,,,,,,,,,,,,,,,,,,,,,,,,,,,,,,,,,,,,,,,,,,,,,,,,,,,,,,,,,,,,,,,,,133.0,57.0,57.0,133.0,70.0,70.0,3.0,3.2,-191,-288,0,3,198,276,143.51877737045288,143.5188524723053,143.52262997627258,143.53374028205872,143.68121695518494,143.68121695518494,143.68121695518494,143.68121695518494,143.68121695518494,143.68121695518494,143.68121695518494,148.40100693702698,1,4.864557504653931,None,,,,,,,,,,,,,,,,,,45,2,2025-02-19_13h00.56.268,comp,2024.2.4,54.83847096216629,2025-02-19 13h01.02.341065 -0500,
54,54,0,catch,None,None,None,None,None,None,None,None,None,None,2,1.012641191482544,None,,,,,0,0,0,0,0,54,54,127,148.41730189323425,,,,,,,,,,,,,,,,,,,,,,,,,,,,,,,,,,,,,,,,,,,,,,,,,,,,,,,,,,,,,,,,,,,,,,,,,,,,,,,,,68,122,193,132,79,111,2.1,2.12,-223,-288,0,-271,218,278,148.40323758125305,148.40331768989563,148.4066264629364,148.41730189323425,148.56620001792908,148.56620001792908,148.56620001792908,148.56620001792908,148.56620001792908,148.56620001792908,148.56620001792908,149.44836950302124,2,1.012641191482544,None,,,,,,,,,,,,,,,,,,45,2,2025-02-19_13h00.56.268,comp,2024.2.4,54.83847096216629,2025-02-19 13h01.02.341065 -0500,
55,55,0,critical,dwh,20.0,2.1,lower,78.0,78.0,57.0,133.0,133.0,57.0,3,3.413257360458374,None,,,,,0,0,0,0,0,55,55,6,149.46416759490967,,,,,,,,,,,,,,,,,,,,,,,,,,,,,,,,,,,,,,,,,,,,,,,,,,,,,,,,,,,,,,,,,,,,,,,,,,,,,,,,,78.0,78.0,57.0,133.0,133.0,57.0,2.1,2.11,-202,266,0,272,191,-282,149.44984674453735,149.44992089271545,149.4529459476471,149.46416759490967,149.61652970314026,149.61652970314026,149.61652970314026,149.61652970314026,149.61652970314026,149.61652970314026,149.61652970314026,152.89066863059998,3,3.413257360458374,None,,,,,,,,,,,,,,,,,,45,2,2025-02-19_13h00.56.268,comp,2024.2.4,54.83847096216629,2025-02-19 13h01.02.341065 -0500,
56,56,0,filler_random,None,None,None,None,None,None,None,None,None,None,3,1.608994722366333,None,,,,,0,0,0,0,0,56,56,130,152.90837335586548,,,,,,,,,,,,,,,,,,,,,,,,,,,,,,,,,,,,,,,,,,,,,,,,,,,,,,,,,,,,,,,,,,,,,,,,,,,,,,,,,96.30091360214122,78.16678571308891,133.2974066231891,117.99153561817482,192.37289135516502,176.29694497888005,3.0,3.1,-194,259,0,-15,243,-260,152.89233374595642,152.8924081325531,152.89533185958862,152.90837335586548,153.05181336402893,153.05181336402893,153.05181336402893,153.05181336402893,153.05181336402893,153.05181336402893,153.05181336402893,154.5350878238678,3,1.608994722366333,None,,,,,,,,,,,,,,,,,,45,2,2025-02-19_13h00.56.268,comp,2024.2.4,54.83847096216629,2025-02-19 13h01.02.341065 -0500,
57,57,0,filler_random,None,None,None,None,None,None,None,None,None,None,3,1.7109947204589844,None,,,,,0,0,0,0,0,57,57,132,154.55127239227295,,,,,,,,,,,,,,,,,,,,,,,,,,,,,,,,,,,,,,,,,,,,,,,,,,,,,,,,,,,,,,,,,,,,,,,,,,,,,,,,,74.6657608127885,57.8001548881629,162.38153982942822,63.722314684875286,178.44938450011023,130.06185284243463,1.0,1.3,323,-287,480,-283,673,-252,154.53683185577393,154.53690814971924,154.54099869728088,154.55127239227295,154.7020628452301,154.7020628452301,154.7020628452301,154.7020628452301,154.7020628452301,154.7020628452301,154.7020628452301,156.27043962478638,3,1.7109947204589844,None,,,,,,,,,,,,,,,,,,45,2,2025-02-19_13h00.56.268,comp,2024.2.4,54.83847096216629,2025-02-19 13h01.02.341065 -0500,
58,58,0,filler_square,None,None,None,None,None,None,None,None,None,None,1,1.8873956203460693,None,,,,,0,0,0,0,0,58,58,200,156.28761792182922,,,,,,,,,,,,,,,,,,,,,,,,,,,,,,,,,,,,,,,,,,,,,,,,,,,,,,,,,,,,,,,,,,,,,,,,,,,,,,,,,92.18808060470994,92.18808060470994,59.60486523538412,90.804332331256,83.67165666521501,61.10604274774158,4.0,4.1,-187,-268,0,11,172,-269,156.2725851535797,156.27266430854797,156.27672672271729,156.28761792182922,156.43178343772888,156.43178343772888,156.43178343772888,156.43178343772888,156.43178343772888,156.43178343772888,156.43178343772888,158.19343376159668,1,1.8873956203460693,None,,,,,,,,,,,,,,,,,,45,2,2025-02-19_13h00.56.268,comp,2024.2.4,54.83847096216629,2025-02-19 13h01.02.341065 -0500,
59,59,0,critical,dwh,20.0,4.0,lower,78.0,78.0,57.0,133.0,133.0,57.0,2,1.2480435371398926,None,,,,,0,0,0,0,0,59,59,70,158.21335887908936,,,,,,,,,,,,,,,,,,,,,,,,,,,,,,,,,,,,,,,,,,,,,,,,,,,,,,,,,,,,,,,,,,,,,,,,,,,,,,,,,78.0,78.0,57.0,133.0,133.0,57.0,4.0,4.2,-202,5,0,-272,191,17,158.19499611854553,158.19507336616516,158.19813013076782,158.21335887908936,158.3527958393097,158.3527958393097,158.3527958393097,158.3527958393097,158.3527958393097,158.3527958393097,158.3527958393097,159.47733211517334,2,1.2480435371398926,None,,,,,,,,,,,,,,,,,,45,2,2025-02-19_13h00.56.268,comp,2024.2.4,54.83847096216629,2025-02-19 13h01.02.341065 -0500,
60,60,0,filler_random,None,None,None,None,None,None,None,None,None,None,3,1.0148448944091797,None,,,,,0,0,0,0,0,60,60,141,159.49452376365662,,,,,,,,,,,,,,,,,,,,,,,,,,,,,,,,,,,,,,,,,,,,,,,,,,,,,,,,,,,,,,,,,,,,,,,,,,,,,,,,,94.94032119630859,68.93718477685579,180.2023382796171,65.16179623673179,191.16371489001716,134.6475283981511,4.0,4.2,-163,6,0,-290,196,-16,159.4789538383484,159.4790277481079,159.48193049430847,159.49452376365662,159.63637399673462,159.63637399673462,159.63637399673462,159.63637399673462,159.63637399673462,159.63637399673462,159.63637399673462,160.52080965042114,3,1.0148448944091797,None,,,,,,,,,,,,,,,,,,45,2,2025-02-19_13h00.56.268,comp,2024.2.4,54.83847096216629,2025-02-19 13h01.02.341065 -0500,
61,61,0,critical,whd,35.0,4.0,lower,57.0,133.0,133.0,57.0,70.0,70.0,2,1.464327335357666,None,,,,,0,0,0,0,0,61,61,88,160.54105377197266,,,,,,,,,,,,,,,,,,,,,,,,,,,,,,,,,,,,,,,,,,,,,,,,,,,,,,,,,,,,,,,,,,,,,,,,,,,,,,,,,57.0,133.0,133.0,57.0,70.0,70.0,4.0,4.2,-191,4,0,-260,160,15,160.5223217010498,160.5223970413208,160.52553057670593,160.54105377197266,160.68633699417114,160.68633699417114,160.68633699417114,160.68633699417114,160.68633699417114,160.68633699417114,160.68633699417114,162.01969933509827,2,1.464327335357666,None,,,,,,,,,,,,,,,,,,45,2,2025-02-19_13h00.56.268,comp,2024.2.4,54.83847096216629,2025-02-19 13h01.02.341065 -0500,
62,62,0,critical,wdh,20.0,3.0,upper,125.0,200.0,141.0,141.0,200.0,125.0,3,1.2444779872894287,None,,,,,0,0,0,0,0,62,62,81,162.04117894172668,,,,,,,,,,,,,,,,,,,,,,,,,,,,,,,,,,,,,,,,,,,,,,,,,,,,,,,,,,,,,,,,,,,,,,,,,,,,,,,,,125.0,200.0,141.0,141.0,200.0,125.0,3.0,3.2,-266,-276,0,-5,229,266,162.02125573158264,162.02133131027222,162.0245087146759,162.04117894172668,162.17872953414917,162.17872953414917,162.17872953414917,162.17872953414917,162.17872953414917,162.17872953414917,162.17872953414917,163.2909379005432,3,1.2444779872894287,None,,,,,,,,,,,,,,,,,,45,2,2025-02-19_13h00.56.268,comp,2024.2.4,54.83847096216629,2025-02-19 13h01.02.341065 -0500,
63,63,0,critical,hdw,35.0,2.1,lower,133.0,57.0,70.0,70.0,57.0,133.0,1,2.0322365760803223,None,,,,,0,0,0,0,0,63,63,20,163.3092713356018,,,,,,,,,,,,,,,,,,,,,,,,,,,,,,,,,,,,,,,,,,,,,,,,,,,,,,,,,,,,,,,,,,,,,,,,,,,,,,,,,133.0,57.0,70.0,70.0,57.0,133.0,2.1,2.12,-160,-270,0,-278,198,261,163.29265642166138,163.29277896881104,163.29609942436218,163.3092713356018,163.45479655265808,163.45479655265808,163.45479655265808,163.45479655265808,163.45479655265808,163.45479655265808,163.45479655265808,165.35782670974731,1,2.0322365760803223,None,,,,,,,,,,,,,,,,,,45,2,2025-02-19_13h00.56.268,comp,2024.2.4,54.83847096216629,2025-02-19 13h01.02.341065 -0500,
64,64,0,critical,hwd,20.0,4.0,upper,200.0,125.0,125.0,200.0,141.0,141.0,2,2.413905620574951,None,,,,,0,0,0,0,0,64,64,107,165.3754813671112,,,,,,,,,,,,,,,,,,,,,,,,,,,,,,,,,,,,,,,,,,,,,,,,,,,,,,,,,,,,,,,,,,,,,,,,,,,,,,,,,200.0,125.0,125.0,200.0,141.0,141.0,4.0,4.2,-258,4,0,-286,266,13,165.3595974445343,165.3597252368927,165.36295795440674,165.3754813671112,165.52078771591187,165.52078771591187,165.52078771591187,165.52078771591187,165.52078771591187,165.52078771591187,165.52078771591187,167.80557084083557,2,2.413905620574951,None,,,,,,,,,,,,,,,,,,45,2,2025-02-19_13h00.56.268,comp,2024.2.4,54.83847096216629,2025-02-19 13h01.02.341065 -0500,
65,65,0,critical,whd,35.0,1.0,lower,57.0,133.0,133.0,57.0,70.0,70.0,2,1.7037081718444824,None,,,,,0,0,0,0,0,65,65,84,167.82221698760986,,,,,,,,,,,,,,,,,,,,,,,,,,,,,,,,,,,,,,,,,,,,,,,,,,,,,,,,,,,,,,,,,,,,,,,,,,,,,,,,,57.0,133.0,133.0,57.0,70.0,70.0,1.0,1.1,-671,288,-480,277,-320,270,167.80717658996582,167.80725169181824,167.81079697608948,167.82221698760986,167.97125434875488,167.97125434875488,167.97125434875488,167.97125434875488,167.97125434875488,167.97125434875488,167.97125434875488,169.53594207763672,2,1.7037081718444824,None,,,,,,,,,,,,,,,,,,45,2,2025-02-19_13h00.56.268,comp,2024.2.4,54.83847096216629,2025-02-19 13h01.02.341065 -0500,
66,66,0,filler_random,None,None,None,None,None,None,None,None,None,None,3,2.0189623832702637,None,,,,,0,0,0,0,0,66,66,142,169.55484652519226,,,,,,,,,,,,,,,,,,,,,,,,,,,,,,,,,,,,,,,,,,,,,,,,,,,,,,,,,,,,,,,,,,,,,,,,,,,,,,,,,144.43090198340388,57.96007491437265,57.91891442219762,115.10496107601682,102.77758653376176,127.76048780334928,1.0,1.3,297,-252,480,-277,697,-266,169.53764510154724,169.5377218723297,169.54115200042725,169.55484652519226,169.70797085762024,169.70797085762024,169.70797085762024,169.70797085762024,169.70797085762024,169.70797085762024,169.70797085762024,171.5792739391327,3,2.0189623832702637,None,,,,,,,,,,,,,,,,,,45,2,2025-02-19_13h00.56.268,comp,2024.2.4,54.83847096216629,2025-02-19 13h01.02.341065 -0500,
67,67,0,critical,dwh,20.0,3.0,lower,78.0,78.0,57.0,133.0,133.0,57.0,1,8.304718732833862,None,,,,,0,0,0,0,0,67,67,68,171.59690475463867,,,,,,,,,,,,,,,,,,,,,,,,,,,,,,,,,,,,,,,,,,,,,,,,,,,,,,,,,,,,,,,,,,,,,,,,,,,,,,,,,78.0,78.0,57.0,133.0,133.0,57.0,3.0,3.2,-202,-269,0,-18,191,254,171.58082795143127,171.5809028148651,171.5838372707367,171.59690475463867,171.73987746238708,171.73987746238708,171.73987746238708,171.73987746238708,171.73987746238708,171.73987746238708,171.73987746238708,179.91814637184143,1,8.304718732833862,None,,,,,,,,,,,,,,,,,,45,2,2025-02-19_13h00.56.268,comp,2024.2.4,54.83847096216629,2025-02-19 13h01.02.341065 -0500,
68,68,0,critical,hdw,35.0,2.1,upper,200.0,125.0,127.0,127.0,125.0,200.0,3,3.023777961730957,None,,,,,0,0,0,0,0,68,68,21,179.9335913658142,,,,,,,,,,,,,,,,,,,,,,,,,,,,,,,,,,,,,,,,,,,,,,,,,,,,,,,,,,,,,,,,,,,,,,,,,,,,,,,,,200.0,125.0,127.0,127.0,125.0,200.0,2.1,2.11,-222,273,0,285,260,-267,179.9197072982788,179.9197850227356,179.92280459403992,179.9335913658142,180.07860112190247,180.07860112190247,180.07860112190247,180.07860112190247,180.07860112190247,180.07860112190247,180.07860112190247,182.96028804779053,3,3.023777961730957,None,,,,,,,,,,,,,,,,,,45,2,2025-02-19_13h00.56.268,comp,2024.2.4,54.83847096216629,2025-02-19 13h01.02.341065 -0500,
69,69,0,filler_random,None,None,None,None,None,None,None,None,None,None,1,1.3569180965423584,None,,,,,0,0,0,0,0,69,69,131,182.97737574577332,,,,,,,,,,,,,,,,,,,,,,,,,,,,,,,,,,,,,,,,,,,,,,,,,,,,,,,,,,,,,,,,,,,,,,,,,,,,,,,,,88.74275064853,171.79214718654137,89.31795283433516,81.35663405608338,64.76989680035975,106.79882976427444,4.0,4.1,-223,-262,0,-10,190,-279,182.9620840549469,182.96224451065063,182.9657325744629,182.97737574577332,183.1279685497284,183.1279685497284,183.1279685497284,183.1279685497284,183.1279685497284,183.1279685497284,183.1279685497284,184.34456872940063,1,1.3569180965423584,None,,,,,,,,,,,,,,,,,,45,2,2025-02-19_13h00.56.268,comp,2024.2.4,54.83847096216629,2025-02-19 13h01.02.341065 -0500,
70,70,0,filler_square,None,None,None,None,None,None,None,None,None,None,1,1.3245747089385986,None,,,,,0,0,0,0,0,70,70,191,184.36088013648987,,,,,,,,,,,,,,,,,,,,,,,,,,,,,,,,,,,,,,,,,,,,,,,,,,,,,,,,,,,,,,,,,,,,,,,,,,,,,,,,,134.5220376322016,134.5220376322016,131.48149024272482,98.57759621409195,74.94900214608823,67.82890610041036,2.2,2.21,-213,-271,0,278,179,257,184.34646797180176,184.34659337997437,184.3500108718872,184.36088013648987,184.50958681106567,184.50958681106567,184.50958681106567,184.50958681106567,184.50958681106567,184.50958681106567,184.50958681106567,185.69890117645264,1,1.3245747089385986,None,,,,,,,,,,,,,,,,,,45,2,2025-02-19_13h00.56.268,comp,2024.2.4,54.83847096216629,2025-02-19 13h01.02.341065 -0500,
71,71,0,filler_square,None,None,None,None,None,None,None,None,None,None,1,0.8910589218139648,None,,,,,0,0,0,0,0,71,71,197,185.7144260406494,,,,,,,,,,,,,,,,,,,,,,,,,,,,,,,,,,,,,,,,,,,,,,,,,,,,,,,,,,,,,,,,,,,,,,,,,,,,,,,,,146.22047255255427,146.22047255255427,131.5859830523097,80.48454433790823,65.660435627282,107.38074956273303,2.1,2.12,-209,-268,0,-261,190,279,185.70074772834778,185.70082306861877,185.7037637233734,185.7144260406494,185.86173701286316,185.86173701286316,185.86173701286316,185.86173701286316,185.86173701286316,185.86173701286316,185.86173701286316,186.61931085586548,1,0.8910589218139648,None,,,,,,,,,,,,,,,,,,45,2,2025-02-19_13h00.56.268,comp,2024.2.4,54.83847096216629,2025-02-19 13h01.02.341065 -0500,
72,72,0,critical,dwh,35.0,2.1,upper,127.0,127.0,125.0,200.0,200.0,125.0,2,2.2560675144195557,None,,,,,0,0,0,0,0,72,72,5,186.6374912261963,,,,,,,,,,,,,,,,,,,,,,,,,,,,,,,,,,,,,,,,,,,,,,,,,,,,,,,,,,,,,,,,,,,,,,,,,,,,,,,,,127.0,127.0,125.0,200.0,200.0,125.0,2.1,2.12,-260,-259,0,-269,258,277,186.62095522880554,186.62103176116943,186.62445044517517,186.6374912261963,186.7816779613495,186.7816779613495,186.7816779613495,186.7816779613495,186.7816779613495,186.7816779613495,186.7816779613495,188.89786863327026,2,2.2560675144195557,None,,,,,,,,,,,,,,,,,,45,2,2025-02-19_13h00.56.268,comp,2024.2.4,54.83847096216629,2025-02-19 13h01.02.341065 -0500,
73,73,0,filler_square,None,None,None,None,None,None,None,None,None,None,3,2.9112203121185303,None,,,,,0,0,0,0,0,73,73,201,188.91849660873413,,,,,,,,,,,,,,,,,,,,,,,,,,,,,,,,,,,,,,,,,,,,,,,,,,,,,,,,,,,,,,,,,,,,,,,,,,,,,,,,,60.0887400548283,87.61280683798799,88.65790894670924,97.77710634697888,101.35320200267199,101.35320200267199,3.0,3.2,-189,-283,0,-19,196,253,188.899640083313,188.89974451065063,188.90280556678772,188.91849660873413,189.06224942207336,189.06224942207336,189.06224942207336,189.06224942207336,189.06224942207336,189.06224942207336,189.06224942207336,191.84651064872742,3,2.9112203121185303,None,,,,,,,,,,,,,,,,,,45,2,2025-02-19_13h00.56.268,comp,2024.2.4,54.83847096216629,2025-02-19 13h01.02.341065 -0500,
74,74,0,critical,whd,20.0,4.0,upper,125.0,200.0,200.0,125.0,141.0,141.0,1,3.7592339515686035,None,,,,,0,0,0,0,0,74,74,95,191.8622853755951,,,,,,,,,,,,,,,,,,,,,,,,,,,,,,,,,,,,,,,,,,,,,,,,,,,,,,,,,,,,,,,,,,,,,,,,,,,,,,,,,125.0,200.0,200.0,125.0,141.0,141.0,4.0,4.2,-258,-3,0,-285,229,-18,191.84816527366638,191.84830784797668,191.85182881355286,191.8622853755951,192.0164737701416,192.0164737701416,192.0164737701416,192.0164737701416,192.0164737701416,192.0164737701416,192.0164737701416,195.62522745132446,1,3.7592339515686035,None,,,,,,,,,,,,,,,,,,45,2,2025-02-19_13h00.56.268,comp,2024.2.4,54.83847096216629,2025-02-19 13h01.02.341065 -0500,
75,75,0,critical,whd,20.0,3.0,upper,125.0,200.0,200.0,125.0,141.0,141.0,2,1.9997525215148926,None,,,,,0,0,0,0,0,75,75,93,195.64598727226257,,,,,,,,,,,,,,,,,,,,,,,,,,,,,,,,,,,,,,,,,,,,,,,,,,,,,,,,,,,,,,,,,,,,,,,,,,,,,,,,,125.0,200.0,200.0,125.0,141.0,141.0,3.0,3.1,-258,254,0,-11,229,-265,195.62676358222961,195.62684178352356,195.6298553943634,195.64598727226257,195.78371834754944,195.78371834754944,195.78371834754944,195.78371834754944,195.78371834754944,195.78371834754944,195.78371834754944,197.65576553344727,2,1.9997525215148926,None,,,,,,,,,,,,,,,,,,45,2,2025-02-19_13h00.56.268,comp,2024.2.4,54.83847096216629,2025-02-19 13h01.02.341065 -0500,
76,76,0,critical,hdw,20.0,2.1,upper,200.0,125.0,141.0,141.0,125.0,200.0,1,1.468214511871338,None,,,,,0,0,0,0,0,76,76,47,197.67407512664795,,,,,,,,,,,,,,,,,,,,,,,,,,,,,,,,,,,,,,,,,,,,,,,,,,,,,,,,,,,,,,,,,,,,,,,,,,,,,,,,,200.0,125.0,141.0,141.0,125.0,200.0,2.1,2.12,-229,-265,0,-265,266,251,197.65752911567688,197.65763998031616,197.6609435081482,197.67407512664795,197.81478023529053,197.81478023529053,197.81478023529053,197.81478023529053,197.81478023529053,197.81478023529053,197.81478023529053,199.14898443222046,1,1.468214511871338,None,,,,,,,,,,,,,,,,,,45,2,2025-02-19_13h00.56.268,comp,2024.2.4,54.83847096216629,2025-02-19 13h01.02.341065 -0500,
77,77,0,critical,hdw,20.0,4.0,upper,200.0,125.0,141.0,141.0,125.0,200.0,1,0.8964877128601074,None,,,,,0,0,0,0,0,77,77,119,199.16498041152954,,,,,,,,,,,,,,,,,,,,,,,,,,,,,,,,,,,,,,,,,,,,,,,,,,,,,,,,,,,,,,,,,,,,,,,,,,,,,,,,,200.0,125.0,141.0,141.0,125.0,200.0,4.0,4.1,-229,-256,0,-18,266,-281,199.15053486824036,199.15060925483704,199.15422248840332,199.16498041152954,199.31486678123474,199.31486678123474,199.31486678123474,199.31486678123474,199.31486678123474,199.31486678123474,199.31486678123474,200.06565046310425,1,0.8964877128601074,None,,,,,,,,,,,,,,,,,,45,2,2025-02-19_13h00.56.268,comp,2024.2.4,54.83847096216629,2025-02-19 13h01.02.341065 -0500,
78,78,0,critical,hdw,35.0,2.1,lower,133.0,57.0,70.0,70.0,57.0,133.0,1,1.235863208770752,None,,,,,0,0,0,0,0,78,78,44,200.08178997039795,,,,,,,,,,,,,,,,,,,,,,,,,,,,,,,,,,,,,,,,,,,,,,,,,,,,,,,,,,,,,,,,,,,,,,,,,,,,,,,,,133.0,57.0,70.0,70.0,57.0,133.0,2.1,2.12,-160,-268,0,-284,198,271,200.06721138954163,200.06728720664978,200.07087469100952,200.08178997039795,200.23166847229004,200.23166847229004,200.23166847229004,200.23166847229004,200.23166847229004,200.23166847229004,200.23166847229004,201.33260083198547,1,1.235863208770752,None,,,,,,,,,,,,,,,,,,45,2,2025-02-19_13h00.56.268,comp,2024.2.4,54.83847096216629,2025-02-19 13h01.02.341065 -0500,
79,79,0,filler_square,None,None,None,None,None,None,None,None,None,None,1,3.1774544715881348,None,,,,,0,0,0,0,0,79,79,199,201.3486726284027,,,,,,,,,,,,,,,,,,,,,,,,,,,,,,,,,,,,,,,,,,,,,,,,,,,,,,,,,,,,,,,,,,,,,,,,,,,,,,,,,106.48668717378783,106.48668717378783,99.7709854616287,70.03141617504768,93.00512439856834,103.18545783282528,1.0,1.1,-664,271,-480,254,-297,266,201.3346242904663,201.3347029685974,201.3383810520172,201.3486726284027,201.50047421455383,201.50047421455383,201.50047421455383,201.50047421455383,201.50047421455383,201.50047421455383,201.50047421455383,204.53409433364868,1,3.1774544715881348,None,,,,,,,,,,,,,,,,,,45,2,2025-02-19_13h00.56.268,comp,2024.2.4,54.83847096216629,2025-02-19 13h01.02.341065 -0500,
80,80,0,filler_random,None,None,None,None,None,None,None,None,None,None,2,2.7277441024780273,None,,,,,0,0,0,0,0,80,80,168,204.5507791042328,,,,,,,,,,,,,,,,,,,,,,,,,,,,,,,,,,,,,,,,,,,,,,,,,,,,,,,,,,,,,,,,,,,,,,,,,,,,,,,,,180.71278818535205,85.17826073809138,130.9238447168353,159.77488720621358,158.60573330847663,85.2597110332199,3.0,3.1,-218,275,0,9,219,-272,204.53588151931763,204.5359592437744,204.54005980491638,204.5507791042328,204.70121097564697,204.70121097564697,204.70121097564697,204.70121097564697,204.70121097564697,204.70121097564697,204.70121097564697,207.28314423561096,2,2.7277441024780273,None,,,,,,,,,,,,,,,,,,45,2,2025-02-19_13h00.56.268,comp,2024.2.4,54.83847096216629,2025-02-19 13h01.02.341065 -0500,
81,81,0,critical,dwh,35.0,4.0,lower,70.0,70.0,57.0,133.0,133.0,57.0,3,2.1142947673797607,None,,,,,0,0,0,0,0,81,81,64,207.2992503643036,,,,,,,,,,,,,,,,,,,,,,,,,,,,,,,,,,,,,,,,,,,,,,,,,,,,,,,,,,,,,,,,,,,,,,,,,,,,,,,,,70.0,70.0,57.0,133.0,133.0,57.0,4.0,4.1,-198,-269,0,20,191,-255,207.2846395969391,207.28471732139587,207.28771090507507,207.2992503643036,207.4510018825531,207.4510018825531,207.4510018825531,207.4510018825531,207.4510018825531,207.4510018825531,207.4510018825531,209.41933226585388,3,2.1142947673797607,None,,,,,,,,,,,,,,,,,,45,2,2025-02-19_13h00.56.268,comp,2024.2.4,54.83847096216629,2025-02-19 13h01.02.341065 -0500,
82,82,0,critical,dwh,20.0,2.1,upper,141.0,141.0,125.0,200.0,200.0,125.0,3,2.0726120471954346,None,,,,,0,0,0,0,0,82,82,7,209.4377043247223,,,,,,,,,,,,,,,,,,,,,,,,,,,,,,,,,,,,,,,,,,,,,,,,,,,,,,,,,,,,,,,,,,,,,,,,,,,,,,,,,141.0,141.0,125.0,200.0,200.0,125.0,2.1,2.12,-266,-290,0,-271,258,261,209.420996427536,209.42116284370422,209.42452216148376,209.4377043247223,209.58526349067688,209.58526349067688,209.58526349067688,209.58526349067688,209.58526349067688,209.58526349067688,209.58526349067688,211.5166175365448,3,2.0726120471954346,None,,,,,,,,,,,,,,,,,,45,2,2025-02-19_13h00.56.268,comp,2024.2.4,54.83847096216629,2025-02-19 13h01.02.341065 -0500,
83,83,0,filler_random,None,None,None,None,None,None,None,None,None,None,3,1.3847072124481201,None,,,,,0,0,0,0,0,83,83,135,211.5329031944275,,,,,,,,,,,,,,,,,,,,,,,,,,,,,,,,,,,,,,,,,,,,,,,,,,,,,,,,,,,,,,,,,,,,,,,,,,,,,,,,,185.62814322205696,73.40986943654794,78.7036444954269,123.50162151627141,175.16284098350144,182.84590455285377,2.2,2.21,-194,-265,0,252,249,258,211.5183982849121,211.5184772014618,211.5214765071869,211.5329031944275,211.67432045936584,211.67432045936584,211.67432045936584,211.67432045936584,211.67432045936584,211.67432045936584,211.67432045936584,212.92756581306458,3,1.3847072124481201,None,,,,,,,,,,,,,,,,,,45,2,2025-02-19_13h00.56.268,comp,2024.2.4,54.83847096216629,2025-02-19 13h01.02.341065 -0500,
84,84,0,filler_random,None,None,None,None,None,None,None,None,None,None,3,0.9824345111846924,None,,,,,0,0,0,0,0,84,84,150,212.94302082061768,,,,,,,,,,,,,,,,,,,,,,,,,,,,,,,,,,,,,,,,,,,,,,,,,,,,,,,,,,,,,,,,,,,,,,,,,,,,,,,,,130.04165401252487,60.92617943185589,58.694845042257974,109.31900559621216,112.23450894414688,192.5797553642185,3.0,3.1,-181,280,0,-2,247,-263,212.92927646636963,212.92935276031494,212.9322633743286,212.94302082061768,213.08417177200317,213.08417177200317,213.08417177200317,213.08417177200317,213.08417177200317,213.08417177200317,213.08417177200317,213.93825483322144,3,0.9824345111846924,None,,,,,,,,,,,,,,,,,,45,2,2025-02-19_13h00.56.268,comp,2024.2.4,54.83847096216629,2025-02-19 13h01.02.341065 -0500,
85,85,0,critical,hdw,20.0,1.0,lower,133.0,57.0,78.0,78.0,57.0,133.0,3,3.387434482574463,None,,,,,0,0,0,0,0,85,85,114,213.9542109966278,,,,,,,,,,,,,,,,,,,,,,,,,,,,,,,,,,,,,,,,,,,,,,,,,,,,,,,,,,,,,,,,,,,,,,,,,,,,,,,,,133.0,57.0,78.0,78.0,57.0,133.0,1.0,1.1,-644,271,-480,251,-278,260,213.93987035751343,213.9399492740631,213.94344329833984,213.9542109966278,214.10923957824707,214.10923957824707,214.10923957824707,214.10923957824707,214.10923957824707,214.10923957824707,214.10923957824707,217.35553121566772,3,3.387434482574463,None,,,,,,,,,,,,,,,,,,45,2,2025-02-19_13h00.56.268,comp,2024.2.4,54.83847096216629,2025-02-19 13h01.02.341065 -0500,
86,86,0,critical,hwd,35.0,2.1,lower,133.0,57.0,57.0,133.0,70.0,70.0,1,3.963305950164795,None,,,,,0,0,0,0,0,86,86,16,217.37067317962646,,,,,,,,,,,,,,,,,,,,,,,,,,,,,,,,,,,,,,,,,,,,,,,,,,,,,,,,,,,,,,,,,,,,,,,,,,,,,,,,,133.0,57.0,57.0,133.0,70.0,70.0,2.1,2.12,-191,-256,0,-259,198,254,217.3570795059204,217.35719108581543,217.36047053337097,217.37067317962646,217.5200901031494,217.5200901031494,217.5200901031494,217.5200901031494,217.5200901031494,217.5200901031494,217.5200901031494,221.3403925895691,1,3.963305950164795,None,,,,,,,,,,,,,,,,,,45,2,2025-02-19_13h00.56.268,comp,2024.2.4,54.83847096216629,2025-02-19 13h01.02.341065 -0500,
87,87,0,filler_square,None,None,None,None,None,None,None,None,None,None,2,2.9129629135131836,None,,,,,0,0,0,0,0,87,87,198,221.3568708896637,,,,,,,,,,,,,,,,,,,,,,,,,,,,,,,,,,,,,,,,,,,,,,,,,,,,,,,,,,,,,,,,,,,,,,,,,,,,,,,,,142.82768774317861,146.4757113517573,150.33966837635606,150.33966837635606,128.18620747218665,97.58334284412862,4.0,4.2,-244,8,0,-280,220,-15,221.3421859741211,221.34231424331665,221.3461549282074,221.3568708896637,221.50549864768982,221.50549864768982,221.50549864768982,221.50549864768982,221.50549864768982,221.50549864768982,221.50549864768982,224.28919792175293,2,2.9129629135131836,None,,,,,,,,,,,,,,,,,,45,2,2025-02-19_13h00.56.268,comp,2024.2.4,54.83847096216629,2025-02-19 13h01.02.341065 -0500,
88,88,0,critical,whd,35.0,2.1,upper,125.0,200.0,200.0,125.0,127.0,127.0,2,1.0523288249969482,None,,,,,0,0,0,0,0,88,88,13,224.30520868301392,,,,,,,,,,,,,,,,,,,,,,,,,,,,,,,,,,,,,,,,,,,,,,,,,,,,,,,,,,,,,,,,,,,,,,,,,,,,,,,,,125.0,200.0,200.0,125.0,127.0,127.0,2.1,2.12,-258,-254,0,-286,222,253,224.29065895080566,224.2907326221466,224.29395031929016,224.30520868301392,224.45942783355713,224.45942783355713,224.45942783355713,224.45942783355713,224.45942783355713,224.45942783355713,224.45942783355713,225.37345814704895,2,1.0523288249969482,None,,,,,,,,,,,,,,,,,,45,2,2025-02-19_13h00.56.268,comp,2024.2.4,54.83847096216629,2025-02-19 13h01.02.341065 -0500,
89,89,0,critical,dhw,20.0,2.1,lower,78.0,78.0,133.0,57.0,57.0,133.0,3,1.4158055782318115,None,,,,,0,0,0,0,0,89,89,26,225.38991904258728,,,,,,,,,,,,,,,,,,,,,,,,,,,,,,,,,,,,,,,,,,,,,,,,,,,,,,,,,,,,,,,,,,,,,,,,,,,,,,,,,78.0,78.0,133.0,57.0,57.0,133.0,2.1,2.11,-164,279,0,258,191,-269,225.3750262260437,225.37510514259338,225.3786141872406,225.38991904258728,225.54073548316956,225.54073548316956,225.54073548316956,225.54073548316956,225.54073548316956,225.54073548316956,225.54073548316956,226.80786752700806,3,1.4158055782318115,None,,,,,,,,,,,,,,,,,,45,2,2025-02-19_13h00.56.268,comp,2024.2.4,54.83847096216629,2025-02-19 13h01.02.341065 -0500,
90,90,0,critical,wdh,35.0,2.1,upper,125.0,200.0,127.0,127.0,200.0,125.0,1,1.454195261001587,None,,,,,0,0,0,0,0,90,90,33,226.82344579696655,,,,,,,,,,,,,,,,,,,,,,,,,,,,,,,,,,,,,,,,,,,,,,,,,,,,,,,,,,,,,,,,,,,,,,,,,,,,,,,,,125.0,200.0,127.0,127.0,200.0,125.0,2.1,2.12,-260,-253,0,-279,222,288,226.80935978889465,226.8094358444214,226.81252551078796,226.82344579696655,226.97566843032837,226.97566843032837,226.97566843032837,226.97566843032837,226.97566843032837,226.97566843032837,226.97566843032837,228.29145002365112,1,1.454195261001587,None,,,,,,,,,,,,,,,,,,45,2,2025-02-19_13h00.56.268,comp,2024.2.4,54.83847096216629,2025-02-19 13h01.02.341065 -0500,
91,91,0,filler_random,None,None,None,None,None,None,None,None,None,None,2,0.9856250286102295,None,,,,,0,0,0,0,0,91,91,158,228.30831694602966,,,,,,,,,,,,,,,,,,,,,,,,,,,,,,,,,,,,,,,,,,,,,,,,,,,,,,,,,,,,,,,,,,,,,,,,,,,,,,,,,82.3602601085266,103.81689560974672,119.1961383253121,171.5641320290921,110.95400544959423,126.62826266095186,1.0,1.2,-234,6,0,-11,245,4,228.2933144569397,228.2934467792511,228.29716277122498,228.30831694602966,228.4589626789093,228.4589626789093,228.4589626789093,228.4589626789093,228.4589626789093,228.4589626789093,228.4589626789093,229.31061553955078,2,0.9856250286102295,None,,,,,,,,,,,,,,,,,,45,2,2025-02-19_13h00.56.268,comp,2024.2.4,54.83847096216629,2025-02-19 13h01.02.341065 -0500,
92,92,0,critical,hdw,20.0,2.1,lower,133.0,57.0,78.0,78.0,57.0,133.0,1,1.1277902126312256,None,,,,,0,0,0,0,0,92,92,22,229.326096534729,,,,,,,,,,,,,,,,,,,,,,,,,,,,,,,,,,,,,,,,,,,,,,,,,,,,,,,,,,,,,,,,,,,,,,,,,,,,,,,,,133.0,57.0,78.0,78.0,57.0,133.0,2.1,2.12,-164,-274,0,-288,202,262,229.31227207183838,229.3123698234558,229.3156852722168,229.326096534729,229.47377753257751,229.47377753257751,229.47377753257751,229.47377753257751,229.47377753257751,229.47377753257751,229.47377753257751,230.46069860458374,1,1.1277902126312256,None,,,,,,,,,,,,,,,,,,45,2,2025-02-19_13h00.56.268,comp,2024.2.4,54.83847096216629,2025-02-19 13h01.02.341065 -0500,
93,93,0,filler_square,None,None,None,None,None,None,None,None,None,None,3,1.921365737915039,None,,,,,0,0,0,0,0,93,93,178,230.47663712501526,,,,,,,,,,,,,,,,,,,,,,,,,,,,,,,,,,,,,,,,,,,,,,,,,,,,,,,,,,,,,,,,,,,,,,,,,,,,,,,,,72.1195603233482,59.373112312748894,57.8408592363774,67.72281113274025,72.69417324189105,72.69417324189105,2.1,2.11,-160,266,0,263,166,-279,230.46268248558044,230.46276473999023,230.46596813201904,230.47663712501526,230.62470507621765,230.62470507621765,230.62470507621765,230.62470507621765,230.62470507621765,230.62470507621765,230.62470507621765,232.41089367866516,3,1.921365737915039,None,,,,,,,,,,,,,,,,,,45,2,2025-02-19_13h00.56.268,comp,2024.2.4,54.83847096216629,2025-02-19 13h01.02.341065 -0500,
94,94,0,critical,wdh,35.0,2.1,lower,57.0,133.0,70.0,70.0,133.0,57.0,3,1.0665793418884277,None,,,,,0,0,0,0,0,94,94,32,232.42696952819824,,,,,,,,,,,,,,,,,,,,,,,,,,,,,,,,,,,,,,,,,,,,,,,,,,,,,,,,,,,,,,,,,,,,,,,,,,,,,,,,,57.0,133.0,70.0,70.0,133.0,57.0,2.1,2.11,-198,279,0,269,160,-277,232.4126033782959,232.41271901130676,232.41668963432312,232.42696952819824,232.57456636428833,232.57456636428833,232.57456636428833,232.57456636428833,232.57456636428833,232.57456636428833,232.57456636428833,233.5119297504425,3,1.0665793418884277,None,,,,,,,,,,,,,,,,,,45,2,2025-02-19_13h00.56.268,comp,2024.2.4,54.83847096216629,2025-02-19 13h01.02.341065 -0500,
95,95,0,filler_random,None,None,None,None,None,None,None,None,None,None,2,1.043647050857544,None,,,,,0,0,0,0,0,95,95,157,233.52993750572205,,,,,,,,,,,,,,,,,,,,,,,,,,,,,,,,,,,,,,,,,,,,,,,,,,,,,,,,,,,,,,,,,,,,,,,,,,,,,,,,,171.85970068018543,117.7966559569542,122.42199549444211,77.55125138407077,69.22352444389689,155.7234065065745,2.2,2.22,-194,278,0,-284,213,-274,233.5137014389038,233.5138339996338,233.51719188690186,233.52993750572205,233.67976427078247,233.67976427078247,233.67976427078247,233.67976427078247,233.67976427078247,233.67976427078247,233.67976427078247,234.57661509513855,2,1.043647050857544,None,,,,,,,,,,,,,,,,,,45,2,2025-02-19_13h00.56.268,comp,2024.2.4,54.83847096216629,2025-02-19 13h01.02.341065 -0500,
96,96,0,critical,whd,35.0,4.0,upper,125.0,200.0,200.0,125.0,127.0,127.0,1,1.1732842922210693,None,,,,,0,0,0,0,0,96,96,89,234.5922658443451,,,,,,,,,,,,,,,,,,,,,,,,,,,,,,,,,,,,,,,,,,,,,,,,,,,,,,,,,,,,,,,,,,,,,,,,,,,,,,,,,125.0,200.0,200.0,125.0,127.0,127.0,4.0,4.1,-258,-267,0,-19,222,-267,234.57807397842407,234.57816767692566,234.581618309021,234.5922658443451,234.74180674552917,234.74180674552917,234.74180674552917,234.74180674552917,234.74180674552917,234.74180674552917,234.74180674552917,235.77523589134216,1,1.1732842922210693,None,,,,,,,,,,,,,,,,,,45,2,2025-02-19_13h00.56.268,comp,2024.2.4,54.83847096216629,2025-02-19 13h01.02.341065 -0500,
97,97,0,critical,dhw,20.0,1.0,lower,78.0,78.0,133.0,57.0,57.0,133.0,2,1.022704839706421,None,,,,,0,0,0,0,0,97,97,54,235.79162645339966,,,,,,,,,,,,,,,,,,,,,,,,,,,,,,,,,,,,,,,,,,,,,,,,,,,,,,,,,,,,,,,,,,,,,,,,,,,,,,,,,78.0,78.0,133.0,57.0,57.0,133.0,1.0,1.2,-164,10,0,-19,191,16,235.7767312526703,235.7768120765686,235.77978515625,235.79162645339966,235.9504656791687,235.9504656791687,235.9504656791687,235.9504656791687,235.9504656791687,235.9504656791687,235.9504656791687,236.81775426864624,2,1.022704839706421,None,,,,,,,,,,,,,,,,,,45,2,2025-02-19_13h00.56.268,comp,2024.2.4,54.83847096216629,2025-02-19 13h01.02.341065 -0500,
98,98,0,critical,wdh,35.0,1.0,upper,125.0,200.0,127.0,127.0,200.0,125.0,3,0.8280375003814697,None,,,,,0,0,0,0,0,98,98,73,236.8336582183838,,,,,,,,,,,,,,,,,,,,,,,,,,,,,,,,,,,,,,,,,,,,,,,,,,,,,,,,,,,,,,,,,,,,,,,,,,,,,,,,,125.0,200.0,127.0,127.0,200.0,125.0,1.0,1.2,-260,-9,0,-14,222,-13,236.81917023658752,236.81924653053284,236.82214164733887,236.8336582183838,236.97476744651794,236.97476744651794,236.97476744651794,236.97476744651794,236.97476744651794,236.97476744651794,236.97476744651794,237.67768263816833,3,0.8280375003814697,None,,,,,,,,,,,,,,,,,,45,2,2025-02-19_13h00.56.268,comp,2024.2.4,54.83847096216629,2025-02-19 13h01.02.341065 -0500,
99,99,0,catch,None,None,None,None,None,None,None,None,None,None,3,1.216477870941162,None,,,,,0,0,0,0,0,99,99,129,237.69326210021973,,,,,,,,,,,,,,,,,,,,,,,,,,,,,,,,,,,,,,,,,,,,,,,,,,,,,,,,,,,,,,,,,,,,,,,,,,,,,,,,,131,59,66,124,189,136,1.0,1.3,292,-263,480,-260,706,-282,237.67955327033997,237.67963290214539,237.6830234527588,237.69326210021973,237.84604239463806,237.84604239463806,237.84604239463806,237.84604239463806,237.84604239463806,237.84604239463806,237.84604239463806,238.9140660762787,3,1.216477870941162,None,,,,,,,,,,,,,,,,,,45,2,2025-02-19_13h00.56.268,comp,2024.2.4,54.83847096216629,2025-02-19 13h01.02.341065 -0500,
100,100,0,filler_square,None,None,None,None,None,None,None,None,None,None,1,1.1534175872802734,None,,,,,0,0,0,0,0,100,100,202,238.93304538726807,,,,,,,,,,,,,,,,,,,,,,,,,,,,,,,,,,,,,,,,,,,,,,,,,,,,,,,,,,,,,,,,,,,,,,,,,,,,,,,,,193.98869525339026,193.98869525339026,83.13687883700008,159.94355083843357,173.80176371524567,104.12832206535658,2.2,2.21,-273,-276,0,256,228,277,238.91630816459656,238.916437625885,238.9194929599762,238.93304538726807,239.07876634597778,239.07876634597778,239.07876634597778,239.07876634597778,239.07876634597778,239.07876634597778,239.07876634597778,240.09646773338318,1,1.1534175872802734,None,,,,,,,,,,,,,,,,,,45,2,2025-02-19_13h00.56.268,comp,2024.2.4,54.83847096216629,2025-02-19 13h01.02.341065 -0500,
101,101,0,critical,hdw,20.0,2.1,upper,200.0,125.0,141.0,141.0,125.0,200.0,1,0.8377554416656494,None,,,,,0,0,0,0,0,101,101,23,240.11275839805603,,,,,,,,,,,,,,,,,,,,,,,,,,,,,,,,,,,,,,,,,,,,,,,,,,,,,,,,,,,,,,,,,,,,,,,,,,,,,,,,,200.0,125.0,141.0,141.0,125.0,200.0,2.1,2.12,-229,-254,0,-269,266,277,240.0980110168457,240.0981616973877,240.10206508636475,240.11275839805603,240.2600736618042,240.2600736618042,240.2600736618042,240.2600736618042,240.2600736618042,240.2600736618042,240.2600736618042,240.95431065559387,1,0.8377554416656494,None,,,,,,,,,,,,,,,,,,45,2,2025-02-19_13h00.56.268,comp,2024.2.4,54.83847096216629,2025-02-19 13h01.02.341065 -0500,
102,102,0,filler_square,None,None,None,None,None,None,None,None,None,None,3,1.1794428825378418,None,,,,,0,0,0,0,0,102,102,208,240.9700267314911,,,,,,,,,,,,,,,,,,,,,,,,,,,,,,,,,,,,,,,,,,,,,,,,,,,,,,,,,,,,,,,,,,,,,,,,,,,,,,,,,124.32940747409661,84.18891607168074,58.1190028503838,141.3465709407764,150.93677040139255,150.93677040139255,2.1,2.12,-209,-281,0,-259,242,281,240.956157207489,240.95623922348022,240.95926570892334,240.9700267314911,241.11131930351257,241.11131930351257,241.11131930351257,241.11131930351257,241.11131930351257,241.11131930351257,241.11131930351257,242.16204166412354,3,1.1794428825378418,None,,,,,,,,,,,,,,,,,,45,2,2025-02-19_13h00.56.268,comp,2024.2.4,54.83847096216629,2025-02-19 13h01.02.341065 -0500,
103,103,0,filler_random,None,None,None,None,None,None,None,None,None,None,1,1.3938024044036865,None,,,,,0,0,0,0,0,103,103,138,242.18037366867065,,,,,,,,,,,,,,,,,,,,,,,,,,,,,,,,,,,,,,,,,,,,,,,,,,,,,,,,,,,,,,,,,,,,,,,,,,,,,,,,,149.49694763815347,104.09426061305652,85.60971634626094,167.0069407476391,61.92959120808276,126.13872498380213,2.1,2.12,-232,-253,0,-255,243,262,242.16381216049194,242.1638903617859,242.16705799102783,242.18037366867065,242.31702613830566,242.31702613830566,242.31702613830566,242.31702613830566,242.31702613830566,242.31702613830566,242.31702613830566,243.5810742378235,1,1.3938024044036865,None,,,,,,,,,,,,,,,,,,45,2,2025-02-19_13h00.56.268,comp,2024.2.4,54.83847096216629,2025-02-19 13h01.02.341065 -0500,
104,104,0,critical,dwh,20.0,2.1,lower,78.0,78.0,57.0,133.0,133.0,57.0,2,1.136343240737915,None,,,,,0,0,0,0,0,104,104,30,243.59732103347778,,,,,,,,,,,,,,,,,,,,,,,,,,,,,,,,,,,,,,,,,,,,,,,,,,,,,,,,,,,,,,,,,,,,,,,,,,,,,,,,,78.0,78.0,57.0,133.0,133.0,57.0,2.1,2.12,-202,-285,0,-281,191,281,243.58260107040405,243.58270263671875,243.58575701713562,243.59732103347778,243.74745082855225,243.74745082855225,243.74745082855225,243.74745082855225,243.74745082855225,243.74745082855225,243.74745082855225,244.7482647895813,2,1.136343240737915,None,,,,,,,,,,,,,,,,,,45,2,2025-02-19_13h00.56.268,comp,2024.2.4,54.83847096216629,2025-02-19 13h01.02.341065 -0500,
105,105,0,critical,dhw,35.0,4.0,lower,70.0,70.0,133.0,57.0,57.0,133.0,2,1.0260910987854004,None,,,,,0,0,0,0,0,105,105,52,244.76416277885437,,,,,,,,,,,,,,,,,,,,,,,,,,,,,,,,,,,,,,,,,,,,,,,,,,,,,,,,,,,,,,,,,,,,,,,,,,,,,,,,,70.0,70.0,133.0,57.0,57.0,133.0,4.0,4.2,-160,-7,0,-283,191,-8,244.74982738494873,244.74996089935303,244.753643989563,244.76416277885437,244.9182162284851,244.9182162284851,244.9182162284851,244.9182162284851,244.9182162284851,244.9182162284851,244.9182162284851,245.79697704315186,2,1.0260910987854004,None,,,,,,,,,,,,,,,,,,45,2,2025-02-19_13h00.56.268,comp,2024.2.4,54.83847096216629,2025-02-19 13h01.02.341065 -0500,
106,106,0,filler_square,None,None,None,None,None,None,None,None,None,None,1,1.207338571548462,None,,,,,0,0,0,0,0,106,106,176,245.81436944007874,,,,,,,,,,,,,,,,,,,,,,,,,,,,,,,,,,,,,,,,,,,,,,,,,,,,,,,,,,,,,,,,,,,,,,,,,,,,,,,,,91.58881852454142,96.66068438444134,96.92539761344639,96.92539761344639,71.88058725020859,83.29602235660106,2.1,2.12,-193,-282,0,-277,186,270,245.79908728599548,245.79919624328613,245.80272459983826,245.81436944007874,245.96347880363464,245.96347880363464,245.96347880363464,245.96347880363464,245.96347880363464,245.96347880363464,245.96347880363464,247.03479933738708,1,1.207338571548462,None,,,,,,,,,,,,,,,,,,45,2,2025-02-19_13h00.56.268,comp,2024.2.4,54.83847096216629,2025-02-19 13h01.02.341065 -0500,
107,107,0,critical,dhw,35.0,3.0,upper,127.0,127.0,200.0,125.0,125.0,200.0,3,0.8355152606964111,None,,,,,0,0,0,0,0,107,107,51,247.05060815811157,,,,,,,,,,,,,,,,,,,,,,,,,,,,,,,,,,,,,,,,,,,,,,,,,,,,,,,,,,,,,,,,,,,,,,,,,,,,,,,,,127.0,127.0,200.0,125.0,125.0,200.0,3.0,3.1,-222,260,0,19,258,-279,247.03631353378296,247.03639197349548,247.0403072834015,247.05060815811157,247.19717931747437,247.19717931747437,247.19717931747437,247.19717931747437,247.19717931747437,247.19717931747437,247.19717931747437,247.91372990608215,3,0.8355152606964111,None,,,,,,,,,,,,,,,,,,45,2,2025-02-19_13h00.56.268,comp,2024.2.4,54.83847096216629,2025-02-19 13h01.02.341065 -0500,
108,108,0,filler_random,None,None,None,None,None,None,None,None,None,None,1,0.9677770137786865,None,,,,,0,0,0,0,0,108,108,139,247.9338083267212,,,,,,,,,,,,,,,,,,,,,,,,,,,,,,,,,,,,,,,,,,,,,,,,,,,,,,,,,,,,,,,,,,,,,,,,,,,,,,,,,165.43223683943796,124.75280165439192,91.91723765565428,65.75908633092321,97.03177667692037,171.8279089343023,2.2,2.21,-191,-290,0,281,215,274,247.91558456420898,247.915696144104,247.9193992614746,247.9338083267212,248.08056592941284,248.08056592941284,248.08056592941284,248.08056592941284,248.08056592941284,248.08056592941284,248.08056592941284,248.91307759284973,1,0.9677770137786865,None,,,,,,,,,,,,,,,,,,45,2,2025-02-19_13h00.56.268,comp,2024.2.4,54.83847096216629,2025-02-19 13h01.02.341065 -0500,
109,109,0,filler_square,None,None,None,None,None,None,None,None,None,None,3,1.1004977226257324,None,,,,,0,0,0,0,0,109,109,182,248.92918419837952,,,,,,,,,,,,,,,,,,,,,,,,,,,,,,,,,,,,,,,,,,,,,,,,,,,,,,,,,,,,,,,,,,,,,,,,,,,,,,,,,57.15893259922961,61.7255665489861,59.38345614566971,67.38182214907864,69.79295978917618,69.79295978917618,1.0,1.3,319,-261,480,-286,645,-281,248.91526222229004,248.91533851623535,248.91866898536682,248.92918419837952,249.08142399787903,249.08142399787903,249.08142399787903,249.08142399787903,249.08142399787903,249.08142399787903,249.08142399787903,250.03432941436768,3,1.1004977226257324,None,,,,,,,,,,,,,,,,,,45,2,2025-02-19_13h00.56.268,comp,2024.2.4,54.83847096216629,2025-02-19 13h01.02.341065 -0500,
110,110,0,catch,None,None,None,None,None,None,None,None,None,None,3,1.1352367401123047,None,,,,,0,0,0,0,0,110,110,126,250.0550675392151,,,,,,,,,,,,,,,,,,,,,,,,,,,,,,,,,,,,,,,,,,,,,,,,,,,,,,,,,,,,,,,,,,,,,,,,,,,,,,,,,83,107,94,96,184,141,3.0,3.2,-198,-262,0,-7,214,281,250.03641414642334,250.03649258613586,250.03992629051208,250.0550675392151,250.19736456871033,250.19736456871033,250.19736456871033,250.19736456871033,250.19736456871033,250.19736456871033,250.19736456871033,251.1968765258789,3,1.1352367401123047,None,,,,,,,,,,,,,,,,,,45,2,2025-02-19_13h00.56.268,comp,2024.2.4,54.83847096216629,2025-02-19 13h01.02.341065 -0500,
111,111,0,filler_square,None,None,None,None,None,None,None,None,None,None,2,1.1677584648132324,None,,,,,0,0,0,0,0,111,111,173,251.213791847229,,,,,,,,,,,,,,,,,,,,,,,,,,,,,,,,,,,,,,,,,,,,,,,,,,,,,,,,,,,,,,,,,,,,,,,,,,,,,,,,,183.136137081239,88.84249066122314,199.8660955682098,199.8660955682098,176.47779571504788,163.06129081833623,3.0,3.2,-240,-252,0,1,277,286,251.19878506660461,251.19890999794006,251.2022647857666,251.213791847229,251.3531379699707,251.3531379699707,251.3531379699707,251.3531379699707,251.3531379699707,251.3531379699707,251.3531379699707,252.39863109588623,2,1.1677584648132324,None,,,,,,,,,,,,,,,,,,45,2,2025-02-19_13h00.56.268,comp,2024.2.4,54.83847096216629,2025-02-19 13h01.02.341065 -0500,
112,112,0,filler_random,None,None,None,None,None,None,None,None,None,None,2,0.9432196617126465,None,,,,,0,0,0,0,0,112,112,147,252.4150676727295,,,,,,,,,,,,,,,,,,,,,,,,,,,,,,,,,,,,,,,,,,,,,,,,,,,,,,,,,,,,,,,,,,,,,,,,,,,,,,,,,185.6075445290333,152.8005113824428,129.71280096698558,192.5113143253627,133.21463574985754,108.91021189453392,3.0,3.1,-269,256,0,1,247,-287,252.40050530433655,252.40061163902283,252.40386819839478,252.4150676727295,252.5674843788147,252.5674843788147,252.5674843788147,252.5674843788147,252.5674843788147,252.5674843788147,252.5674843788147,253.3664059638977,2,0.9432196617126465,None,,,,,,,,,,,,,,,,,,45,2,2025-02-19_13h00.56.268,comp,2024.2.4,54.83847096216629,2025-02-19 13h01.02.341065 -0500,
113,113,0,critical,dhw,20.0,3.0,upper,141.0,141.0,200.0,125.0,125.0,200.0,2,0.9999830722808838,None,,,,,0,0,0,0,0,113,113,57,253.382066488266,,,,,,,,,,,,,,,,,,,,,,,,,,,,,,,,,,,,,,,,,,,,,,,,,,,,,,,,,,,,,,,,,,,,,,,,,,,,,,,,,141.0,141.0,200.0,125.0,125.0,200.0,3.0,3.2,-229,-288,0,5,258,290,253.3679394721985,253.36801624298096,253.37132716178894,253.382066488266,253.53339910507202,253.53339910507202,253.53339910507202,253.53339910507202,253.53339910507202,253.53339910507202,253.53339910507202,254.389155626297,2,0.9999830722808838,None,,,,,,,,,,,,,,,,,,45,2,2025-02-19_13h00.56.268,comp,2024.2.4,54.83847096216629,2025-02-19 13h01.02.341065 -0500,
114,114,0,filler_square,None,None,None,None,None,None,None,None,None,None,3,0.9830987453460693,None,,,,,0,0,0,0,0,114,114,207,254.40699768066406,,,,,,,,,,,,,,,,,,,,,,,,,,,,,,,,,,,,,,,,,,,,,,,,,,,,,,,,,,,,,,,,,,,,,,,,,,,,,,,,,57.259363261557304,57.31682510226913,58.253809815696194,58.253809815696194,57.96642083552734,57.49885804829896,2.1,2.11,-154,251,0,265,154,-256,254.3909556865692,254.39103507995605,254.3940200805664,254.40699768066406,254.5505530834198,254.5505530834198,254.5505530834198,254.5505530834198,254.5505530834198,254.5505530834198,254.5505530834198,255.39901542663574,3,0.9830987453460693,None,,,,,,,,,,,,,,,,,,45,2,2025-02-19_13h00.56.268,comp,2024.2.4,54.83847096216629,2025-02-19 13h01.02.341065 -0500,
115,115,0,critical,whd,35.0,3.0,upper,125.0,200.0,200.0,125.0,127.0,127.0,2,0.8240330219268799,None,,,,,0,0,0,0,0,115,115,87,255.41580629348755,,,,,,,,,,,,,,,,,,,,,,,,,,,,,,,,,,,,,,,,,,,,,,,,,,,,,,,,,,,,,,,,,,,,,,,,,,,,,,,,,125.0,200.0,200.0,125.0,127.0,127.0,3.0,3.1,-258,275,0,14,222,-268,255.4006679058075,255.40074920654297,255.40416741371155,255.41580629348755,255.56273102760315,255.56273102760315,255.56273102760315,255.56273102760315,255.56273102760315,255.56273102760315,255.56273102760315,256.25130558013916,2,0.8240330219268799,None,,,,,,,,,,,,,,,,,,45,2,2025-02-19_13h00.56.268,comp,2024.2.4,54.83847096216629,2025-02-19 13h01.02.341065 -0500,
116,116,0,critical,dhw,35.0,3.0,lower,70.0,70.0,133.0,57.0,57.0,133.0,3,0.8823785781860352,None,,,,,0,0,0,0,0,116,116,50,256.26734924316406,,,,,,,,,,,,,,,,,,,,,,,,,,,,,,,,,,,,,,,,,,,,,,,,,,,,,,,,,,,,,,,,,,,,,,,,,,,,,,,,,70.0,70.0,133.0,57.0,57.0,133.0,3.0,3.1,-160,261,0,14,191,-251,256.2529709339142,256.2531068325043,256.25668144226074,256.26734924316406,256.4267599582672,256.4267599582672,256.4267599582672,256.4267599582672,256.4267599582672,256.4267599582672,256.4267599582672,257.1517825126648,3,0.8823785781860352,None,,,,,,,,,,,,,,,,,,45,2,2025-02-19_13h00.56.268,comp,2024.2.4,54.83847096216629,2025-02-19 13h01.02.341065 -0500,
117,117,0,critical,hdw,20.0,1.0,upper,200.0,125.0,141.0,141.0,125.0,200.0,3,0.9593367576599121,None,,,,,0,0,0,0,0,117,117,115,257.16726779937744,,,,,,,,,,,,,,,,,,,,,,,,,,,,,,,,,,,,,,,,,,,,,,,,,,,,,,,,,,,,,,,,,,,,,,,,,,,,,,,,,200.0,125.0,141.0,141.0,125.0,200.0,1.0,1.2,-229,20,0,-10,266,-16,257.15333795547485,257.15344524383545,257.15672302246094,257.16726779937744,257.31690406799316,257.31690406799316,257.31690406799316,257.31690406799316,257.31690406799316,257.31690406799316,257.31690406799316,258.13437128067017,3,0.9593367576599121,None,,,,,,,,,,,,,,,,,,45,2,2025-02-19_13h00.56.268,comp,2024.2.4,54.83847096216629,2025-02-19 13h01.02.341065 -0500,
118,118,0,critical,hwd,20.0,3.0,upper,200.0,125.0,125.0,200.0,141.0,141.0,2,1.0228002071380615,None,,,,,0,0,0,0,0,118,118,105,258.1509394645691,,,,,,,,,,,,,,,,,,,,,,,,,,,,,,,,,,,,,,,,,,,,,,,,,,,,,,,,,,,,,,,,,,,,,,,,,,,,,,,,,200.0,125.0,125.0,200.0,141.0,141.0,3.0,3.2,-258,-265,0,-15,266,267,258.1360008716583,258.1360774040222,258.14033818244934,258.1509394645691,258.30081820487976,258.30081820487976,258.30081820487976,258.30081820487976,258.30081820487976,258.30081820487976,258.30081820487976,259.1917097568512,2,1.0228002071380615,None,,,,,,,,,,,,,,,,,,45,2,2025-02-19_13h00.56.268,comp,2024.2.4,54.83847096216629,2025-02-19 13h01.02.341065 -0500,
119,119,0,critical,whd,35.0,1.0,upper,125.0,200.0,200.0,125.0,127.0,127.0,1,0.9896163940429688,None,,,,,0,0,0,0,0,119,119,85,259.20805835723877,,,,,,,,,,,,,,,,,,,,,,,,,,,,,,,,,,,,,,,,,,,,,,,,,,,,,,,,,,,,,,,,,,,,,,,,,,,,,,,,,125.0,200.0,200.0,125.0,127.0,127.0,1.0,1.3,222,-259,480,-280,702,-270,259.1933128833771,259.1933901309967,259.1968014240265,259.20805835723877,259.3522777557373,259.3522777557373,259.3522777557373,259.3522777557373,259.3522777557373,259.3522777557373,259.3522777557373,260.2024052143097,1,0.9896163940429688,None,,,,,,,,,,,,,,,,,,45,2,2025-02-19_13h00.56.268,comp,2024.2.4,54.83847096216629,2025-02-19 13h01.02.341065 -0500,
120,120,0,critical,whd,20.0,2.1,upper,125.0,200.0,200.0,125.0,141.0,141.0,2,1.316131830215454,None,,,,,0,0,0,0,0,120,120,15,260.2180666923523,,,,,,,,,,,,,,,,,,,,,,,,,,,,,,,,,,,,,,,,,,,,,,,,,,,,,,,,,,,,,,,,,,,,,,,,,,,,,,,,,125.0,200.0,200.0,125.0,141.0,141.0,2.1,2.12,-258,-281,0,-268,229,259,260.20395135879517,260.20402693748474,260.2074611186981,260.2180666923523,260.36763048171997,260.36763048171997,260.36763048171997,260.36763048171997,260.36763048171997,260.36763048171997,260.36763048171997,261.53638219833374,2,1.316131830215454,None,,,,,,,,,,,,,,,,,,45,2,2025-02-19_13h00.56.268,comp,2024.2.4,54.83847096216629,2025-02-19 13h01.02.341065 -0500,
121,121,0,filler_random,None,None,None,None,None,None,None,None,None,None,2,0.8935155868530273,None,,,,,0,0,0,0,0,121,121,143,261.5528197288513,,,,,,,,,,,,,,,,,,,,,,,,,,,,,,,,,,,,,,,,,,,,,,,,,,,,,,,,,,,,,,,,,,,,,,,,,,,,,,,,,63.610279776369936,98.74296777561916,100.73378896793147,166.40248659130282,119.76871391969192,99.17243501508159,4.0,4.2,-229,-8,0,-277,229,10,261.5383331775665,261.53841638565063,261.54187178611755,261.5528197288513,261.69783759117126,261.69783759117126,261.69783759117126,261.69783759117126,261.69783759117126,261.69783759117126,261.69783759117126,262.4548234939575,2,0.8935155868530273,None,,,,,,,,,,,,,,,,,,45,2,2025-02-19_13h00.56.268,comp,2024.2.4,54.83847096216629,2025-02-19 13h01.02.341065 -0500,
122,122,0,critical,wdh,35.0,4.0,upper,125.0,200.0,127.0,127.0,200.0,125.0,1,1.9189822673797607,None,,,,,0,0,0,0,0,122,122,77,262.4718568325043,,,,,,,,,,,,,,,,,,,,,,,,,,,,,,,,,,,,,,,,,,,,,,,,,,,,,,,,,,,,,,,,,,,,,,,,,,,,,,,,,125.0,200.0,127.0,127.0,200.0,125.0,4.0,4.2,-260,-4,0,-271,222,10,262.45653438568115,262.4566683769226,262.45998430252075,262.4718568325043,262.6190779209137,262.6190779209137,262.6190779209137,262.6190779209137,262.6190779209137,262.6190779209137,262.6190779209137,264.4086787700653,1,1.9189822673797607,None,,,,,,,,,,,,,,,,,,45,2,2025-02-19_13h00.56.268,comp,2024.2.4,54.83847096216629,2025-02-19 13h01.02.341065 -0500,
123,123,0,critical,hwd,35.0,4.0,lower,133.0,57.0,57.0,133.0,70.0,70.0,2,1.6758880615234375,None,,,,,0,0,0,0,0,123,123,100,264.4257621765137,,,,,,,,,,,,,,,,,,,,,,,,,,,,,,,,,,,,,,,,,,,,,,,,,,,,,,,,,,,,,,,,,,,,,,,,,,,,,,,,,133.0,57.0,57.0,133.0,70.0,70.0,4.0,4.2,-191,-14,0,-275,198,-11,264.4101793766022,264.4102554321289,264.41316413879395,264.4257621765137,264.5706775188446,264.5706775188446,264.5706775188446,264.5706775188446,264.5706775188446,264.5706775188446,264.5706775188446,266.10378432273865,2,1.6758880615234375,None,,,,,,,,,,,,,,,,,,45,2,2025-02-19_13h00.56.268,comp,2024.2.4,54.83847096216629,2025-02-19 13h01.02.341065 -0500,
124,124,0,filler_random,None,None,None,None,None,None,None,None,None,None,3,1.0381107330322266,None,,,,,0,0,0,0,0,124,124,165,266.1196458339691,,,,,,,,,,,,,,,,,,,,,,,,,,,,,,,,,,,,,,,,,,,,,,,,,,,,,,,,,,,,,,,,,,,,,,,,,,,,,,,,,68.54839078172017,77.2232077351614,141.40094212290404,104.21148923977199,191.99689276136027,85.63043186952889,1.0,1.3,293,-254,480,-259,671,-270,266.10559129714966,266.10566782951355,266.1089563369751,266.1196458339691,266.2709848880768,266.2709848880768,266.2709848880768,266.2709848880768,266.2709848880768,266.2709848880768,266.2709848880768,267.16742396354675,3,1.0381107330322266,None,,,,,,,,,,,,,,,,,,45,2,2025-02-19_13h00.56.268,comp,2024.2.4,54.83847096216629,2025-02-19 13h01.02.341065 -0500,
125,125,0,critical,dwh,35.0,2.1,upper,127.0,127.0,125.0,200.0,200.0,125.0,2,1.3098969459533691,None,,,,,0,0,0,0,0,125,125,29,267.1840991973877,,,,,,,,,,,,,,,,,,,,,,,,,,,,,,,,,,,,,,,,,,,,,,,,,,,,,,,,,,,,,,,,,,,,,,,,,,,,,,,,,127.0,127.0,125.0,200.0,200.0,125.0,2.1,2.12,-260,-251,0,-284,258,263,267.1690483093262,267.1692454814911,267.1722619533539,267.1840991973877,267.3211908340454,267.3211908340454,267.3211908340454,267.3211908340454,267.3211908340454,267.3211908340454,267.3211908340454,268.5024275779724,2,1.3098969459533691,None,,,,,,,,,,,,,,,,,,45,2,2025-02-19_13h00.56.268,comp,2024.2.4,54.83847096216629,2025-02-19 13h01.02.341065 -0500,
126,126,0,critical,dwh,20.0,3.0,upper,141.0,141.0,125.0,200.0,200.0,125.0,2,1.1823856830596924,None,,,,,0,0,0,0,0,126,126,69,268.5192584991455,,,,,,,,,,,,,,,,,,,,,,,,,,,,,,,,,,,,,,,,,,,,,,,,,,,,,,,,,,,,,,,,,,,,,,,,,,,,,,,,,141.0,141.0,125.0,200.0,200.0,125.0,3.0,3.1,-266,286,0,-17,258,-258,268.5040011405945,268.50407695770264,268.50766611099243,268.5192584991455,268.6542823314667,268.6542823314667,268.6542823314667,268.6542823314667,268.6542823314667,268.6542823314667,268.6542823314667,269.7050597667694,2,1.1823856830596924,None,,,,,,,,,,,,,,,,,,45,2,2025-02-19_13h00.56.268,comp,2024.2.4,54.83847096216629,2025-02-19 13h01.02.341065 -0500,
127,127,0,critical,dwh,35.0,3.0,upper,127.0,127.0,125.0,200.0,200.0,125.0,2,0.8617546558380127,None,,,,,0,0,0,0,0,127,127,63,269.7209429740906,,,,,,,,,,,,,,,,,,,,,,,,,,,,,,,,,,,,,,,,,,,,,,,,,,,,,,,,,,,,,,,,,,,,,,,,,,,,,,,,,127.0,127.0,125.0,200.0,200.0,125.0,3.0,3.2,-260,-256,0,-2,258,280,269.70659017562866,269.70666432380676,269.710072517395,269.7209429740906,269.8699281215668,269.8699281215668,269.8699281215668,269.8699281215668,269.8699281215668,269.8699281215668,269.8699281215668,270.58636498451233,2,0.8617546558380127,None,,,,,,,,,,,,,,,,,,45,2,2025-02-19_13h00.56.268,comp,2024.2.4,54.83847096216629,2025-02-19 13h01.02.341065 -0500,
128,128,0,critical,wdh,20.0,4.0,lower,57.0,133.0,78.0,78.0,133.0,57.0,3,0.9811398983001709,None,,,,,0,0,0,0,0,128,128,82,270.60203218460083,,,,,,,,,,,,,,,,,,,,,,,,,,,,,,,,,,,,,,,,,,,,,,,,,,,,,,,,,,,,,,,,,,,,,,,,,,,,,,,,,57.0,133.0,78.0,78.0,133.0,57.0,4.0,4.1,-202,-254,0,0,164,-286,270.5878450870514,270.5879201889038,270.59081387519836,270.60203218460083,270.75401639938354,270.75401639938354,270.75401639938354,270.75401639938354,270.75401639938354,270.75401639938354,270.75401639938354,271.5937807559967,3,0.9811398983001709,None,,,,,,,,,,,,,,,,,,45,2,2025-02-19_13h00.56.268,comp,2024.2.4,54.83847096216629,2025-02-19 13h01.02.341065 -0500,
129,129,0,critical,hwd,35.0,1.0,upper,200.0,125.0,125.0,200.0,127.0,127.0,1,1.1640231609344482,None,,,,,0,0,0,0,0,129,129,97,271.60971426963806,,,,,,,,,,,,,,,,,,,,,,,,,,,,,,,,,,,,,,,,,,,,,,,,,,,,,,,,,,,,,,,,,,,,,,,,,,,,,,,,,200.0,125.0,125.0,200.0,127.0,127.0,1.0,1.1,-738,267,-480,282,-220,268,271.59545612335205,271.5955877304077,271.59898710250854,271.60971426963806,271.75702261924744,271.75702261924744,271.75702261924744,271.75702261924744,271.75702261924744,271.75702261924744,271.75702261924744,272.7884533405304,1,1.1640231609344482,None,,,,,,,,,,,,,,,,,,45,2,2025-02-19_13h00.56.268,comp,2024.2.4,54.83847096216629,2025-02-19 13h01.02.341065 -0500,
130,130,0,critical,dhw,20.0,1.0,upper,141.0,141.0,200.0,125.0,125.0,200.0,2,1.144984483718872,None,,,,,0,0,0,0,0,130,130,55,272.8048138618469,,,,,,,,,,,,,,,,,,,,,,,,,,,,,,,,,,,,,,,,,,,,,,,,,,,,,,,,,,,,,,,,,,,,,,,,,,,,,,,,,141.0,141.0,200.0,125.0,125.0,200.0,1.0,1.2,-229,2,0,-8,258,-18,272.7899475097656,272.79002571105957,272.79351258277893,272.8048138618469,272.9585380554199,272.9585380554199,272.9585380554199,272.9585380554199,272.9585380554199,272.9585380554199,272.9585380554199,273.9625151157379,2,1.144984483718872,None,,,,,,,,,,,,,,,,,,45,2,2025-02-19_13h00.56.268,comp,2024.2.4,54.83847096216629,2025-02-19 13h01.02.341065 -0500,
131,131,0,critical,wdh,20.0,3.0,lower,57.0,133.0,78.0,78.0,133.0,57.0,1,1.9555327892303467,None,,,,,0,0,0,0,0,131,131,80,273.9787211418152,,,,,,,,,,,,,,,,,,,,,,,,,,,,,,,,,,,,,,,,,,,,,,,,,,,,,,,,,,,,,,,,,,,,,,,,,,,,,,,,,57.0,133.0,78.0,78.0,133.0,57.0,3.0,3.2,-202,-279,0,-20,164,263,273.964075088501,273.9641799926758,273.9675714969635,273.9787211418152,274.1192443370819,274.1192443370819,274.1192443370819,274.1192443370819,274.1192443370819,274.1192443370819,274.1192443370819,275.9393689632416,1,1.9555327892303467,None,,,,,,,,,,,,,,,,,,45,2,2025-02-19_13h00.56.268,comp,2024.2.4,54.83847096216629,2025-02-19 13h01.02.341065 -0500,
132,132,0,filler_square,None,None,None,None,None,None,None,None,None,None,2,1.026268482208252,None,,,,,0,0,0,0,0,132,132,204,275.9560112953186,,,,,,,,,,,,,,,,,,,,,,,,,,,,,,,,,,,,,,,,,,,,,,,,,,,,,,,,,,,,,,,,,,,,,,,,,,,,,,,,,94.79402236829512,94.79402236829512,91.72347913485794,89.88200872766731,81.34299721004915,81.92268141825684,2.2,2.22,-188,255,0,-259,182,-287,275.9412262439728,275.94130849838257,275.9444065093994,275.9560112953186,276.11561942100525,276.11561942100525,276.11561942100525,276.11561942100525,276.11561942100525,276.11561942100525,276.11561942100525,276.98925518989563,2,1.026268482208252,None,,,,,,,,,,,,,,,,,,45,2,2025-02-19_13h00.56.268,comp,2024.2.4,54.83847096216629,2025-02-19 13h01.02.341065 -0500,
133,133,0,critical,hdw,35.0,4.0,lower,133.0,57.0,70.0,70.0,57.0,133.0,1,1.056060791015625,None,,,,,0,0,0,0,0,133,133,112,277.00698733329773,,,,,,,,,,,,,,,,,,,,,,,,,,,,,,,,,,,,,,,,,,,,,,,,,,,,,,,,,,,,,,,,,,,,,,,,,,,,,,,,,133.0,57.0,70.0,70.0,57.0,133.0,4.0,4.1,-160,-285,0,16,198,-256,276.9906795024872,276.9907555580139,276.9938621520996,277.00698733329773,277.15695977211,277.15695977211,277.15695977211,277.15695977211,277.15695977211,277.15695977211,277.15695977211,278.0675699710846,1,1.056060791015625,None,,,,,,,,,,,,,,,,,,45,2,2025-02-19_13h00.56.268,comp,2024.2.4,54.83847096216629,2025-02-19 13h01.02.341065 -0500,
134,134,0,critical,wdh,35.0,4.0,lower,57.0,133.0,70.0,70.0,133.0,57.0,1,1.0479257106781006,None,,,,,0,0,0,0,0,134,134,76,278.08570551872253,,,,,,,,,,,,,,,,,,,,,,,,,,,,,,,,,,,,,,,,,,,,,,,,,,,,,,,,,,,,,,,,,,,,,,,,,,,,,,,,,57.0,133.0,70.0,70.0,133.0,57.0,4.0,4.1,-198,-250,0,15,160,-275,278.0690588951111,278.06916403770447,278.0725839138031,278.08570551872253,278.2221477031708,278.2221477031708,278.2221477031708,278.2221477031708,278.2221477031708,278.2221477031708,278.2221477031708,279.14317631721497,1,1.0479257106781006,None,,,,,,,,,,,,,,,,,,45,2,2025-02-19_13h00.56.268,comp,2024.2.4,54.83847096216629,2025-02-19 13h01.02.341065 -0500,
135,135,0,filler_square,None,None,None,None,None,None,None,None,None,None,3,1.0221138000488281,None,,,,,0,0,0,0,0,135,135,186,279.1595735549927,,,,,,,,,,,,,,,,,,,,,,,,,,,,,,,,,,,,,,,,,,,,,,,,,,,,,,,,,,,,,,,,,,,,,,,,,,,,,,,,,63.60517633071149,85.64159771143046,91.30867008240331,91.30867008240331,89.21946401368274,72.09643695759128,1.0,1.3,296,-262,480,-259,658,-270,279.1450717449188,279.1452145576477,279.1486761569977,279.1595735549927,279.3151478767395,279.3151478767395,279.3151478767395,279.3151478767395,279.3151478767395,279.3151478767395,279.3151478767395,280.1942024230957,3,1.0221138000488281,None,,,,,,,,,,,,,,,,,,45,2,2025-02-19_13h00.56.268,comp,2024.2.4,54.83847096216629,2025-02-19 13h01.02.341065 -0500,
136,136,0,filler_random,None,None,None,None,None,None,None,None,None,None,2,1.247514247894287,None,,,,,0,0,0,0,0,136,136,164,280.21424651145935,,,,,,,,,,,,,,,,,,,,,,,,,,,,,,,,,,,,,,,,,,,,,,,,,,,,,,,,,,,,,,,,,,,,,,,,,,,,,,,,,137.38939449635606,134.43335323293542,178.73010111630592,153.49849136842434,188.29419333734313,88.2014548801389,1.0,1.3,240,-272,480,-260,697,-260,280.1960003376007,280.19607734680176,280.1990439891815,280.21424651145935,280.35710430145264,280.35710430145264,280.35710430145264,280.35710430145264,280.35710430145264,280.35710430145264,280.35710430145264,281.47804832458496,2,1.247514247894287,None,,,,,,,,,,,,,,,,,,45,2,2025-02-19_13h00.56.268,comp,2024.2.4,54.83847096216629,2025-02-19 13h01.02.341065 -0500,
137,137,0,catch,None,None,None,None,None,None,None,None,None,None,1,0.988471508026123,None,,,,,0,0,0,0,0,137,137,124,281.49782538414,,,,,,,,,,,,,,,,,,,,,,,,,,,,,,,,,,,,,,,,,,,,,,,,,,,,,,,,,,,,,,,,,,,,,,,,,,,,,,,,,178,147,102,88,99,91,3.0,3.1,-214,261,0,4,186,-276,281.4800136089325,281.4801070690155,281.4832317829132,281.49782538414,281.64029479026794,281.64029479026794,281.64029479026794,281.64029479026794,281.64029479026794,281.64029479026794,281.64029479026794,282.4937160015106,1,0.988471508026123,None,,,,,,,,,,,,,,,,,,45,2,2025-02-19_13h00.56.268,comp,2024.2.4,54.83847096216629,2025-02-19 13h01.02.341065 -0500,
138,138,0,filler_random,None,None,None,None,None,None,None,None,None,None,1,1.0964818000793457,None,,,,,0,0,0,0,0,138,138,137,282.50916147232056,,,,,,,,,,,,,,,,,,,,,,,,,,,,,,,,,,,,,,,,,,,,,,,,,,,,,,,,,,,,,,,,,,,,,,,,,,,,,,,,,189.3063198162248,170.04358869564214,152.61182272278808,155.61405189863012,115.82961329840869,138.91667279922422,2.2,2.21,-259,-270,0,265,243,285,282.4954273700714,282.495507478714,282.4986023902893,282.50916147232056,282.6578962802887,282.6578962802887,282.6578962802887,282.6578962802887,282.6578962802887,282.6578962802887,282.6578962802887,283.60928869247437,1,1.0964818000793457,None,,,,,,,,,,,,,,,,,,45,2,2025-02-19_13h00.56.268,comp,2024.2.4,54.83847096216629,2025-02-19 13h01.02.341065 -0500,
139,139,0,filler_random,None,None,None,None,None,None,None,None,None,None,1,0.9975488185882568,None,,,,,0,0,0,0,0,139,139,154,283.62407660484314,,,,,,,,,,,,,,,,,,,,,,,,,,,,,,,,,,,,,,,,,,,,,,,,,,,,,,,,,,,,,,,,,,,,,,,,,,,,,,,,,189.37858088322704,165.72189957877882,142.91077551548088,142.41979817961368,132.43464195256405,153.69285465270616,4.0,4.1,-250,-276,0,-7,244,-265,283.611083984375,283.6111879348755,283.6145634651184,283.62407660484314,283.7816483974457,283.7816483974457,283.7816483974457,283.7816483974457,283.7816483974457,283.7816483974457,283.7816483974457,284.632559299469,1,0.9975488185882568,None,,,,,,,,,,,,,,,,,,45,2,2025-02-19_13h00.56.268,comp,2024.2.4,54.83847096216629,2025-02-19 13h01.02.341065 -0500,
