thisN,thisTrialN,thisRepN,effect,order,distance,config,diag,h_1,w_1,h_2,w_2,h_3,w_3,rect_choice.keys,rect_choice.rt,rect_choice.duration,instructions_loop.thisRepN,instructions_loop.thisTrialN,instructions_loop.thisN,instructions_loop.thisIndex,blocks.thisRepN,blocks.thisTrialN,blocks.thisN,blocks.thisIndex,trials.thisRepN,trials.thisTrialN,trials.thisN,trials.thisIndex,thisRow.t,notes,consent.started,agree_button.started,decline_button.started,consent_img.started,mouse.started,consent.stopped,agree_button.numClicks,agree_button.timesOn,agree_button.timesOff,decline_button.numClicks,decline_button.timesOn,decline_button.timesOff,mouse.x,mouse.y,mouse.leftButton,mouse.midButton,mouse.rightButton,mouse.time,mouse.clicked_name,exp_params.started,exp_params.stopped,welcome.started,welcome_text.started,welcome.stopped,instructions_1.started,instructions_1_text_1.started,instructions_1_text_2.started,key_resp.started,instructions_1.stopped,instructions_loop.key_resp.keys,instructions_loop.key_resp.rt,instructions_loop.key_resp.duration,instructions_2.started,instructions_2_text_1.started,instructions_2_text_2.started,key_resp_2.started,instructions_2.stopped,instructions_loop.key_resp_2.keys,instructions_loop.key_resp_2.rt,instructions_loop.key_resp_2.duration,instructions_3.started,instructions_3_text_1.started,r1_instr3.started,r2_instr3.started,r3_instr3.started,r1_instr3_label.started,r2_instr3_label.started,r3_instr3_label.started,instructions_3_text_3.started,instructions_3_text_4.started,key_resp_3.started,instructions_3.stopped,instructions_loop.key_resp_3.keys,instructions_loop.key_resp_3.rt,instructions_loop.key_resp_3.duration,instructions_4.started,instructions_4_text_1.started,instructions_4_text_3.started,instructions_4_text_2.started,key_resp_4.started,instructions_4.stopped,instructions_loop.key_resp_4.keys,instructions_loop.key_resp_4.rt,instructions_loop.key_resp_4.duration,instructions_5.started,instructions_5_text_1.started,instructions_5_text_2.started,key_resp_5.started,instructions_5.stopped,instructions_loop.key_resp_5.keys,instructions_loop.key_resp_5.rt,instructions_loop.key_resp_5.duration,start_exp.started,start_exp_text.started,key_resp_6.started,start_exp.stopped,key_resp_6.keys,key_resp_6.rt,key_resp_6.duration,h_1_tmp,w_1_tmp,h_2_tmp,w_2_tmp,h_3_tmp,w_3_tmp,config_tmp,config_tmp_1,r_1_x,r_1_y,r_2_x,r_2_y,r_3_x,r_3_y,pre_trial.started,pre_trial.stopped,choice_trial.started,rect_choice.started,r_1.started,r_2.started,r_3.started,r_1_label.started,r_2_label.started,r_3_label.started,prompt.started,choice_trial.stopped,trials.rect_choice.keys,trials.rect_choice.rt,trials.rect_choice.duration,end_block.started,end_block_text.started,end_block.stopped,end.started,end_text.started,key_resp_7.started,end.stopped,key_resp_7.keys,key_resp_7.rt,key_resp_7.duration,debriefing.started,debrief_form.started,end_debrief.started,debriefing.stopped,end_debrief.keys,end_debrief.rt,end_debrief.duration,participant,computer,date,expName,psychopyVersion,frameRate,expStart,
,,,,,,,,,,,,,,,,,,,,,,,,,,,,,,,0.04122519493103027,0.13351678848266602,0.13351678848266602,0.13351678848266602,0.04062366485595703,18.613449335098267,1,[18.478641986846924],[18.478652477264404],0,,,[-57.0],[-492.0],[1],[0],[0],[18.560282230377197],['agree_button'],,,,,,,,,,,,,,,,,,,,,,,,,,,,,,,,,,,,,,,,,,,,,,,,,,,,,,,,,,,,,,,,,,,,,,,,,,,,,,,,,,,,,,,,,,,,,,,,,,,,,,,,,,,46,5,2025-02-19_12h44.25.750,comp,2024.2.4,60.08136323527727,2025-02-19 13h00.23.460722 -0500,
,,,,,,,,,,,,,,,,,,,,,,,,,,,,,,,,,,,,,,,,,,,,,,,,,,18.613739252090454,18.613773822784424,,,,,,,,,,,,,,,,,,,,,,,,,,,,,,,,,,,,,,,,,,,,,,,,,,,,,,,,,,,,,,,,,,,,,,,,,,,,,,,,,,,,,,,,,,,,,,,,,,,,,,,,,46,5,2025-02-19_12h44.25.750,comp,2024.2.4,60.08136323527727,2025-02-19 13h00.23.460722 -0500,
,,,,,,,,,,,,,,,,,,,,,,,,,,,,,,,,,,,,,,,,,,,,,,,,,,,,18.613797426223755,18.659220933914185,20.615413665771484,,,,,,,,,,,,,,,,,,,,,,,,,,,,,,,,,,,,,,,,,,,,,,,,,,,,,,,,,,,,,,,,,,,,,,,,,,,,,,,,,,,,,,,,,,,,,,,,,,,,,,46,5,2025-02-19_12h44.25.750,comp,2024.2.4,60.08136323527727,2025-02-19 13h00.23.460722 -0500,
0,0,0,,,,,,,,,,,,,,,0,0,0,0,,,,,,,,,20.632184743881226,,,,,,,,,,,,,,,,,,,,,,,,,,20.615949869155884,20.632184743881226,20.632184743881226,22.115325927734375,27.00154137611389,space,4.869296312332153,None,27.001651763916016,27.016271114349365,27.016271114349365,28.515347480773926,34.49978256225586,space,5.966813802719116,None,34.49986934661865,34.542810916900635,34.542810916900635,34.542810916900635,34.542810916900635,34.542810916900635,34.542810916900635,34.542810916900635,34.542810916900635,34.542810916900635,35.99907064437866,49.73347616195679,space,13.721152544021606,None,49.73356652259827,49.74892544746399,49.74892544746399,49.74892544746399,51.24882411956787,55.88307213783264,space,4.624220132827759,None,55.8831787109375,55.898855686187744,55.898855686187744,57.398624658584595,58.533002853393555,space,1.1319785118103027,None,58.53311061859131,58.548712730407715,58.548712730407715,60.86609888076782,space,2.3080222606658936,None,,,,,,,,,,,,,,,,,,,,,,,,,,,,,,,,,,,,,,,,,,,,,,,46,5,2025-02-19_12h44.25.750,comp,2024.2.4,60.08136323527727,2025-02-19 13h00.23.460722 -0500,
0,0,0,filler_random,None,None,None,None,None,None,None,None,None,None,2,7.983080625534058,None,,,,,0,0,0,0,0,0,0,135,61.02557444572449,,,,,,,,,,,,,,,,,,,,,,,,,,,,,,,,,,,,,,,,,,,,,,,,,,,,,,,,,,,,,,,,,,,,,,,,,,,,,,,,,100.16269088544654,122.90206254695117,82.67948722528695,199.64331424678036,137.80800734356035,105.22935419379675,2.2,2.21,-257,-286,0,253,248,256,61.0117027759552,61.011749505996704,61.01389122009277,61.02557444572449,61.17194318771362,61.17194318771362,61.17194318771362,61.17194318771362,61.17194318771362,61.17194318771362,61.17194318771362,69.01646828651428,2,7.983080625534058,None,,,,,,,,,,,,,,,,,,46,5,2025-02-19_12h44.25.750,comp,2024.2.4,60.08136323527727,2025-02-19 13h00.23.460722 -0500,
1,1,0,critical,wdh,35.0,4.0,upper,125.0,200.0,127.0,127.0,200.0,125.0,1,2.551389694213867,None,,,,,0,0,0,0,0,1,1,77,69.03231859207153,,,,,,,,,,,,,,,,,,,,,,,,,,,,,,,,,,,,,,,,,,,,,,,,,,,,,,,,,,,,,,,,,,,,,,,,,,,,,,,,,125.0,200.0,127.0,127.0,200.0,125.0,4.0,4.2,-260,-12,0,-269,222,16,69.0172712802887,69.01731204986572,69.01938486099243,69.03231859207153,69.18209338188171,69.18209338188171,69.18209338188171,69.18209338188171,69.18209338188171,69.18209338188171,69.18209338188171,71.60006546974182,1,2.551389694213867,None,,,,,,,,,,,,,,,,,,46,5,2025-02-19_12h44.25.750,comp,2024.2.4,60.08136323527727,2025-02-19 13h00.23.460722 -0500,
2,2,0,filler_random,None,None,None,None,None,None,None,None,None,None,3,2.0005311965942383,None,,,,,0,0,0,0,0,2,2,144,71.61517572402954,,,,,,,,,,,,,,,,,,,,,,,,,,,,,,,,,,,,,,,,,,,,,,,,,,,,,,,,,,,,,,,,,,,,,,,,,,,,,,,,,121.93757987728789,159.21201382184992,135.3658301565282,99.6814098755871,161.83616548018725,140.86344879130712,4.0,4.2,-225,20,0,-257,216,-7,71.60099291801453,71.60103249549866,71.60362601280212,71.61517572402954,71.80333209037781,71.80333209037781,71.80333209037781,71.80333209037781,71.80333209037781,71.80333209037781,71.80333209037781,73.63305258750916,3,2.0005311965942383,None,,,,,,,,,,,,,,,,,,46,5,2025-02-19_12h44.25.750,comp,2024.2.4,60.08136323527727,2025-02-19 13h00.23.460722 -0500,
3,3,0,filler_random,None,None,None,None,None,None,None,None,None,None,3,5.881248712539673,None,,,,,0,0,0,0,0,3,3,137,73.64864993095398,,,,,,,,,,,,,,,,,,,,,,,,,,,,,,,,,,,,,,,,,,,,,,,,,,,,,,,,,,,,,,,,,,,,,,,,,,,,,,,,,61.525721979899444,194.85930633047587,65.80689194898068,199.43471768459816,96.63160269869817,152.21044415001188,2.2,2.21,-293,-271,0,283,272,285,73.63399910926819,73.63403916358948,73.63757157325745,73.64864993095398,73.79860186576843,73.79860186576843,73.79860186576843,73.79860186576843,73.79860186576843,73.79860186576843,73.79860186576843,79.53320527076721,3,5.881248712539673,None,,,,,,,,,,,,,,,,,,46,5,2025-02-19_12h44.25.750,comp,2024.2.4,60.08136323527727,2025-02-19 13h00.23.460722 -0500,
4,4,0,critical,wdh,35.0,3.0,lower,57.0,133.0,70.0,70.0,133.0,57.0,1,4.700078248977661,None,,,,,0,0,0,0,0,4,4,74,79.54864692687988,,,,,,,,,,,,,,,,,,,,,,,,,,,,,,,,,,,,,,,,,,,,,,,,,,,,,,,,,,,,,,,,,,,,,,,,,,,,,,,,,57.0,133.0,70.0,70.0,133.0,57.0,3.0,3.2,-198,-258,0,2,160,269,79.53403449058533,79.5340747833252,79.5363438129425,79.54864692687988,79.69832181930542,79.69832181930542,79.69832181930542,79.69832181930542,79.69832181930542,79.69832181930542,79.69832181930542,84.266916513443,1,4.700078248977661,None,,,,,,,,,,,,,,,,,,46,5,2025-02-19_12h44.25.750,comp,2024.2.4,60.08136323527727,2025-02-19 13h00.23.460722 -0500,
5,5,0,filler_square,None,None,None,None,None,None,None,None,None,None,3,1.5910470485687256,None,,,,,0,0,0,0,0,5,5,183,84.28174662590027,,,,,,,,,,,,,,,,,,,,,,,,,,,,,,,,,,,,,,,,,,,,,,,,,,,,,,,,,,,,,,,,,,,,,,,,,,,,,,,,,81.84147338600997,102.11604040727576,92.85440492856385,70.06095990146993,132.61210486701282,132.61210486701282,3.0,3.1,-182,257,0,18,197,-276,84.26790809631348,84.26794791221619,84.27039980888367,84.28174662590027,84.43207454681396,84.43207454681396,84.43207454681396,84.43207454681396,84.43207454681396,84.43207454681396,84.43207454681396,85.88281607627869,3,1.5910470485687256,None,,,,,,,,,,,,,,,,,,46,5,2025-02-19_12h44.25.750,comp,2024.2.4,60.08136323527727,2025-02-19 13h00.23.460722 -0500,
6,6,0,filler_square,None,None,None,None,None,None,None,None,None,None,3,1.7997846603393555,None,,,,,0,0,0,0,0,6,6,175,85.89838194847107,,,,,,,,,,,,,,,,,,,,,,,,,,,,,,,,,,,,,,,,,,,,,,,,,,,,,,,,,,,,,,,,,,,,,,,,,,,,,,,,,88.94314319753664,103.26347506607195,95.2150909800993,57.92565855970262,106.55355493490231,106.55355493490231,2.2,2.21,-177,-269,0,254,178,286,85.88375902175903,85.88379859924316,85.886403799057,85.89838194847107,86.04846715927124,86.04846715927124,86.04846715927124,86.04846715927124,86.04846715927124,86.04846715927124,86.04846715927124,87.71610569953918,3,1.7997846603393555,None,,,,,,,,,,,,,,,,,,46,5,2025-02-19_12h44.25.750,comp,2024.2.4,60.08136323527727,2025-02-19 13h00.23.460722 -0500,
7,7,0,critical,wdh,20.0,3.0,lower,57.0,133.0,78.0,78.0,133.0,57.0,3,2.4839582443237305,None,,,,,0,0,0,0,0,7,7,80,87.7317168712616,,,,,,,,,,,,,,,,,,,,,,,,,,,,,,,,,,,,,,,,,,,,,,,,,,,,,,,,,,,,,,,,,,,,,,,,,,,,,,,,,57.0,133.0,78.0,78.0,133.0,57.0,3.0,3.2,-202,-276,0,2,164,285,87.71700286865234,87.71704053878784,87.720458984375,87.7317168712616,87.88182711601257,87.88182711601257,87.88182711601257,87.88182711601257,87.88182711601257,87.88182711601257,87.88182711601257,90.23288702964783,3,2.4839582443237305,None,,,,,,,,,,,,,,,,,,46,5,2025-02-19_12h44.25.750,comp,2024.2.4,60.08136323527727,2025-02-19 13h00.23.460722 -0500,
8,8,0,critical,wdh,20.0,2.1,lower,57.0,133.0,78.0,78.0,133.0,57.0,1,2.8818368911743164,None,,,,,0,0,0,0,0,8,8,10,90.24819874763489,,,,,,,,,,,,,,,,,,,,,,,,,,,,,,,,,,,,,,,,,,,,,,,,,,,,,,,,,,,,,,,,,,,,,,,,,,,,,,,,,57.0,133.0,78.0,78.0,133.0,57.0,2.1,2.12,-202,-259,0,-270,164,262,90.2337052822113,90.2337441444397,90.23631262779236,90.24819874763489,90.3982744216919,90.3982744216919,90.3982744216919,90.3982744216919,90.3982744216919,90.3982744216919,90.3982744216919,93.13285541534424,1,2.8818368911743164,None,,,,,,,,,,,,,,,,,,46,5,2025-02-19_12h44.25.750,comp,2024.2.4,60.08136323527727,2025-02-19 13h00.23.460722 -0500,
9,9,0,catch,None,None,None,None,None,None,None,None,None,None,3,1.32429838180542,None,,,,,0,0,0,0,0,9,9,123,93.14851450920105,,,,,,,,,,,,,,,,,,,,,,,,,,,,,,,,,,,,,,,,,,,,,,,,,,,,,,,,,,,,,,,,,,,,,,,,,,,,,,,,,103,87,77,113,154,171,4.0,4.1,-196,-273,0,-13,238,-256,93.13389539718628,93.13393497467041,93.13646793365479,93.14851450920105,93.29854130744934,93.29854130744934,93.29854130744934,93.29854130744934,93.29854130744934,93.29854130744934,93.29854130744934,94.48286962509155,3,1.32429838180542,None,,,,,,,,,,,,,,,,,,46,5,2025-02-19_12h44.25.750,comp,2024.2.4,60.08136323527727,2025-02-19 13h00.23.460722 -0500,
10,10,0,critical,whd,20.0,1.0,upper,125.0,200.0,200.0,125.0,141.0,141.0,1,2.9836535453796387,None,,,,,0,0,0,0,0,10,10,91,94.49842143058777,,,,,,,,,,,,,,,,,,,,,,,,,,,,,,,,,,,,,,,,,,,,,,,,,,,,,,,,,,,,,,,,,,,,,,,,,,,,,,,,,125.0,200.0,200.0,125.0,141.0,141.0,1.0,1.3,222,-274,480,-276,709,-286,94.483722448349,94.48376488685608,94.48591804504395,94.49842143058777,94.6485207080841,94.6485207080841,94.6485207080841,94.6485207080841,94.6485207080841,94.6485207080841,94.6485207080841,97.49977898597717,1,2.9836535453796387,None,,,,,,,,,,,,,,,,,,46,5,2025-02-19_12h44.25.750,comp,2024.2.4,60.08136323527727,2025-02-19 13h00.23.460722 -0500,
11,11,0,critical,hdw,20.0,2.1,lower,133.0,57.0,78.0,78.0,57.0,133.0,1,3.1992509365081787,None,,,,,0,0,0,0,0,11,11,22,97.51495718955994,,,,,,,,,,,,,,,,,,,,,,,,,,,,,,,,,,,,,,,,,,,,,,,,,,,,,,,,,,,,,,,,,,,,,,,,,,,,,,,,,133.0,57.0,78.0,78.0,57.0,133.0,2.1,2.11,-164,252,0,254,202,-284,97.50059700012207,97.50063633918762,97.50325775146484,97.51495718955994,97.66498470306396,97.66498470306396,97.66498470306396,97.66498470306396,97.66498470306396,97.66498470306396,97.66498470306396,100.71604943275452,1,3.1992509365081787,None,,,,,,,,,,,,,,,,,,46,5,2025-02-19_12h44.25.750,comp,2024.2.4,60.08136323527727,2025-02-19 13h00.23.460722 -0500,
12,12,0,critical,dhw,20.0,2.1,upper,141.0,141.0,200.0,125.0,125.0,200.0,3,3.1718170642852783,None,,,,,0,0,0,0,0,12,12,27,100.7317488193512,,,,,,,,,,,,,,,,,,,,,,,,,,,,,,,,,,,,,,,,,,,,,,,,,,,,,,,,,,,,,,,,,,,,,,,,,,,,,,,,,141.0,141.0,200.0,125.0,125.0,200.0,2.1,2.12,-229,-285,0,-261,258,252,100.71685910224915,100.71690154075623,100.71910309791565,100.7317488193512,100.88195896148682,100.88195896148682,100.88195896148682,100.88195896148682,100.88195896148682,100.88195896148682,100.88195896148682,103.91634559631348,3,3.1718170642852783,None,,,,,,,,,,,,,,,,,,46,5,2025-02-19_12h44.25.750,comp,2024.2.4,60.08136323527727,2025-02-19 13h00.23.460722 -0500,
13,13,0,critical,wdh,35.0,2.1,lower,57.0,133.0,70.0,70.0,133.0,57.0,3,1.3088312149047852,None,,,,,0,0,0,0,0,13,13,32,103.93152832984924,,,,,,,,,,,,,,,,,,,,,,,,,,,,,,,,,,,,,,,,,,,,,,,,,,,,,,,,,,,,,,,,,,,,,,,,,,,,,,,,,57.0,133.0,70.0,70.0,133.0,57.0,2.1,2.12,-198,-278,0,-250,160,283,103.91715693473816,103.91719675064087,103.91934943199158,103.93152832984924,104.08175539970398,104.08175539970398,104.08175539970398,104.08175539970398,104.08175539970398,104.08175539970398,104.08175539970398,105.24924182891846,3,1.3088312149047852,None,,,,,,,,,,,,,,,,,,46,5,2025-02-19_12h44.25.750,comp,2024.2.4,60.08136323527727,2025-02-19 13h00.23.460722 -0500,
14,14,0,filler_square,None,None,None,None,None,None,None,None,None,None,1,1.6384050846099854,None,,,,,0,0,0,0,0,14,14,193,105.26503610610962,,,,,,,,,,,,,,,,,,,,,,,,,,,,,,,,,,,,,,,,,,,,,,,,,,,,,,,,,,,,,,,,,,,,,,,,,,,,,,,,,143.32579608409714,143.32579608409714,84.43003783288782,121.45241956592616,87.24044412572331,141.53561372794775,1.0,1.1,-708,258,-480,273,-253,255,105.25021052360535,105.25025248527527,105.25238609313965,105.26503610610962,105.41501951217651,105.41501951217651,105.41501951217651,105.41501951217651,105.41501951217651,105.41501951217651,105.41501951217651,106.91603899002075,1,1.6384050846099854,None,,,,,,,,,,,,,,,,,,46,5,2025-02-19_12h44.25.750,comp,2024.2.4,60.08136323527727,2025-02-19 13h00.23.460722 -0500,
15,15,0,filler_random,None,None,None,None,None,None,None,None,None,None,2,1.2680566310882568,None,,,,,0,0,0,0,0,15,15,147,106.93150591850281,,,,,,,,,,,,,,,,,,,,,,,,,,,,,,,,,,,,,,,,,,,,,,,,,,,,,,,,,,,,,,,,,,,,,,,,,,,,,,,,,108.0852129759265,90.86915580910505,141.65487510531733,109.41796097617014,60.19935250138265,117.61781805297848,4.0,4.1,-196,-279,0,10,210,-268,106.91698050498962,106.91702127456665,106.9192259311676,106.93150591850281,107.08169341087341,107.08169341087341,107.08169341087341,107.08169341087341,107.08169341087341,107.08169341087341,107.08169341087341,108.21606922149658,2,1.2680566310882568,None,,,,,,,,,,,,,,,,,,46,5,2025-02-19_12h44.25.750,comp,2024.2.4,60.08136323527727,2025-02-19 13h00.23.460722 -0500,
16,16,0,critical,dhw,20.0,2.1,upper,141.0,141.0,200.0,125.0,125.0,200.0,3,1.129136085510254,None,,,,,0,0,0,0,0,16,16,3,108.23150658607483,,,,,,,,,,,,,,,,,,,,,,,,,,,,,,,,,,,,,,,,,,,,,,,,,,,,,,,,,,,,,,,,,,,,,,,,,,,,,,,,,141.0,141.0,200.0,125.0,125.0,200.0,2.1,2.12,-229,-287,0,-257,258,255,108.2169017791748,108.21694207191467,108.2190330028534,108.23150658607483,108.38181471824646,108.38181471824646,108.38181471824646,108.38181471824646,108.38181471824646,108.38181471824646,108.38181471824646,109.36638689041138,3,1.129136085510254,None,,,,,,,,,,,,,,,,,,46,5,2025-02-19_12h44.25.750,comp,2024.2.4,60.08136323527727,2025-02-19 13h00.23.460722 -0500,
17,17,0,filler_square,None,None,None,None,None,None,None,None,None,None,2,1.2177143096923828,None,,,,,0,0,0,0,0,17,17,180,109.3818666934967,,,,,,,,,,,,,,,,,,,,,,,,,,,,,,,,,,,,,,,,,,,,,,,,,,,,,,,,,,,,,,,,,,,,,,,,,,,,,,,,,85.67480125559818,85.67480125559818,68.38140788365007,71.59511227756101,58.94614261021319,68.13018368109839,4.0,4.1,-175,-285,0,20,166,-262,109.36736845970154,109.36740970611572,109.36954808235168,109.3818666934967,109.53147983551025,109.53147983551025,109.53147983551025,109.53147983551025,109.53147983551025,109.53147983551025,109.53147983551025,110.61596846580505,2,1.2177143096923828,None,,,,,,,,,,,,,,,,,,46,5,2025-02-19_12h44.25.750,comp,2024.2.4,60.08136323527727,2025-02-19 13h00.23.460722 -0500,
18,18,0,critical,hdw,20.0,3.0,upper,200.0,125.0,141.0,141.0,125.0,200.0,1,1.5448851585388184,None,,,,,0,0,0,0,0,18,18,117,110.63143110275269,,,,,,,,,,,,,,,,,,,,,,,,,,,,,,,,,,,,,,,,,,,,,,,,,,,,,,,,,,,,,,,,,,,,,,,,,,,,,,,,,200.0,125.0,141.0,141.0,125.0,200.0,3.0,3.1,-229,273,0,-9,266,-275,110.61677169799805,110.61681056022644,110.61887907981873,110.63143110275269,110.78172612190247,110.78172612190247,110.78172612190247,110.78172612190247,110.78172612190247,110.78172612190247,110.78172612190247,112.18291974067688,1,1.5448851585388184,None,,,,,,,,,,,,,,,,,,46,5,2025-02-19_12h44.25.750,comp,2024.2.4,60.08136323527727,2025-02-19 13h00.23.460722 -0500,
19,19,0,critical,dhw,20.0,3.0,lower,78.0,78.0,133.0,57.0,57.0,133.0,3,1.3466408252716064,None,,,,,0,0,0,0,0,19,19,56,112.19832181930542,,,,,,,,,,,,,,,,,,,,,,,,,,,,,,,,,,,,,,,,,,,,,,,,,,,,,,,,,,,,,,,,,,,,,,,,,,,,,,,,,78.0,78.0,133.0,57.0,57.0,133.0,3.0,3.2,-164,-281,0,15,191,265,112.18372082710266,112.18376064300537,112.18635177612305,112.19832181930542,112.34819102287292,112.34819102287292,112.34819102287292,112.34819102287292,112.34819102287292,112.34819102287292,112.34819102287292,113.54936647415161,3,1.3466408252716064,None,,,,,,,,,,,,,,,,,,46,5,2025-02-19_12h44.25.750,comp,2024.2.4,60.08136323527727,2025-02-19 13h00.23.460722 -0500,
20,20,0,filler_random,None,None,None,None,None,None,None,None,None,None,1,1.0666909217834473,None,,,,,0,0,0,0,0,20,20,145,113.56522345542908,,,,,,,,,,,,,,,,,,,,,,,,,,,,,,,,,,,,,,,,,,,,,,,,,,,,,,,,,,,,,,,,,,,,,,,,,,,,,,,,,120.89783412901556,66.25309389866685,162.90716187822895,117.18082446765253,169.91894571739826,58.714587274079264,3.0,3.1,-188,288,0,-15,184,-269,113.55030846595764,113.55035090446472,113.55251693725586,113.56522345542908,113.71497631072998,113.71497631072998,113.71497631072998,113.71497631072998,113.71497631072998,113.71497631072998,113.71497631072998,114.63306641578674,1,1.0666909217834473,None,,,,,,,,,,,,,,,,,,46,5,2025-02-19_12h44.25.750,comp,2024.2.4,60.08136323527727,2025-02-19 13h00.23.460722 -0500,
21,21,0,critical,dwh,20.0,2.1,upper,141.0,141.0,125.0,200.0,200.0,125.0,1,6.144001245498657,None,,,,,0,0,0,0,0,21,21,31,114.64828562736511,,,,,,,,,,,,,,,,,,,,,,,,,,,,,,,,,,,,,,,,,,,,,,,,,,,,,,,,,,,,,,,,,,,,,,,,,,,,,,,,,141.0,141.0,125.0,200.0,200.0,125.0,2.1,2.11,-266,284,0,271,258,-284,114.63388419151306,114.63392472267151,114.63636302947998,114.64828562736511,114.79845643043518,114.79845643043518,114.79845643043518,114.79845643043518,114.79845643043518,114.79845643043518,114.79845643043518,120.79950189590454,1,6.144001245498657,None,,,,,,,,,,,,,,,,,,46,5,2025-02-19_12h44.25.750,comp,2024.2.4,60.08136323527727,2025-02-19 13h00.23.460722 -0500,
22,22,0,critical,dwh,35.0,1.0,lower,70.0,70.0,57.0,133.0,133.0,57.0,2,4.15267014503479,None,,,,,0,0,0,0,0,22,22,60,120.8148934841156,,,,,,,,,,,,,,,,,,,,,,,,,,,,,,,,,,,,,,,,,,,,,,,,,,,,,,,,,,,,,,,,,,,,,,,,,,,,,,,,,70.0,70.0,57.0,133.0,133.0,57.0,1.0,1.1,-678,270,-480,280,-289,271,120.8003396987915,120.8003797531128,120.80285263061523,120.8148934841156,120.96486353874207,120.96486353874207,120.96486353874207,120.96486353874207,120.96486353874207,120.96486353874207,120.96486353874207,124.98268580436707,2,4.15267014503479,None,,,,,,,,,,,,,,,,,,46,5,2025-02-19_12h44.25.750,comp,2024.2.4,60.08136323527727,2025-02-19 13h00.23.460722 -0500,
23,23,0,critical,hdw,35.0,3.0,lower,133.0,57.0,70.0,70.0,57.0,133.0,1,2.6584603786468506,None,,,,,0,0,0,0,0,23,23,110,124.99788904190063,,,,,,,,,,,,,,,,,,,,,,,,,,,,,,,,,,,,,,,,,,,,,,,,,,,,,,,,,,,,,,,,,,,,,,,,,,,,,,,,,133.0,57.0,70.0,70.0,57.0,133.0,3.0,3.1,-160,287,0,0,198,-277,124.98347592353821,124.98351454734802,124.98595404624939,124.99788904190063,125.14817070960999,125.14817070960999,125.14817070960999,125.14817070960999,125.14817070960999,125.14817070960999,125.14817070960999,127.66586685180664,1,2.6584603786468506,None,,,,,,,,,,,,,,,,,,46,5,2025-02-19_12h44.25.750,comp,2024.2.4,60.08136323527727,2025-02-19 13h00.23.460722 -0500,
24,24,0,filler_square,None,None,None,None,None,None,None,None,None,None,1,2.117790937423706,None,,,,,0,0,0,0,0,24,24,198,127.68166875839233,,,,,,,,,,,,,,,,,,,,,,,,,,,,,,,,,,,,,,,,,,,,,,,,,,,,,,,,,,,,,,,,,,,,,,,,,,,,,,,,,108.14145717468354,108.14145717468354,90.67480902295395,107.59836098887848,87.02104692088379,76.33940727138285,3.0,3.2,-204,-274,0,8,188,267,127.66685581207275,127.6668975353241,127.6693925857544,127.68166875839233,127.83176159858704,127.83176159858704,127.83176159858704,127.83176159858704,127.83176159858704,127.83176159858704,127.83176159858704,129.81586718559265,1,2.117790937423706,None,,,,,,,,,,,,,,,,,,46,5,2025-02-19_12h44.25.750,comp,2024.2.4,60.08136323527727,2025-02-19 13h00.23.460722 -0500,
25,25,0,critical,hdw,20.0,4.0,upper,200.0,125.0,141.0,141.0,125.0,200.0,3,2.633920431137085,None,,,,,0,0,0,0,0,25,25,119,129.8312909603119,,,,,,,,,,,,,,,,,,,,,,,,,,,,,,,,,,,,,,,,,,,,,,,,,,,,,,,,,,,,,,,,,,,,,,,,,,,,,,,,,200.0,125.0,141.0,141.0,125.0,200.0,4.0,4.1,-229,-289,0,-10,266,-265,129.81666684150696,129.81670713424683,129.8192594051361,129.8312909603119,129.98165488243103,129.98165488243103,129.98165488243103,129.98165488243103,129.98165488243103,129.98165488243103,129.98165488243103,132.4827892780304,3,2.633920431137085,None,,,,,,,,,,,,,,,,,,46,5,2025-02-19_12h44.25.750,comp,2024.2.4,60.08136323527727,2025-02-19 13h00.23.460722 -0500,
26,26,0,filler_random,None,None,None,None,None,None,None,None,None,None,3,1.2943007946014404,None,,,,,0,0,0,0,0,26,26,169,132.49807047843933,,,,,,,,,,,,,,,,,,,,,,,,,,,,,,,,,,,,,,,,,,,,,,,,,,,,,,,,,,,,,,,,,,,,,,,,,,,,,,,,,77.95206054744048,86.28967631916989,81.12114174736978,104.74744987683485,107.810365944621,146.12167088735774,3.0,3.2,-192,-276,0,12,221,283,132.4836802482605,132.48371744155884,132.48619437217712,132.49807047843933,132.6480393409729,132.6480393409729,132.6480393409729,132.6480393409729,132.6480393409729,132.6480393409729,132.6480393409729,133.7994349002838,3,1.2943007946014404,None,,,,,,,,,,,,,,,,,,46,5,2025-02-19_12h44.25.750,comp,2024.2.4,60.08136323527727,2025-02-19 13h00.23.460722 -0500,
27,27,0,filler_square,None,None,None,None,None,None,None,None,None,None,3,4.536439895629883,None,,,,,0,0,0,0,0,27,27,192,133.8149049282074,,,,,,,,,,,,,,,,,,,,,,,,,,,,,,,,,,,,,,,,,,,,,,,,,,,,,,,,,,,,,,,,,,,,,,,,,,,,,,,,,67.545538933983,58.84512387218073,64.01212244406533,78.48419782259874,86.42906584521786,86.42906584521786,3.0,3.2,-165,-260,0,19,178,269,133.80037355422974,133.80041432380676,133.80248403549194,133.8149049282074,133.96471524238586,133.96471524238586,133.96471524238586,133.96471524238586,133.96471524238586,133.96471524238586,133.96471524238586,138.36580753326416,3,4.536439895629883,None,,,,,,,,,,,,,,,,,,46,5,2025-02-19_12h44.25.750,comp,2024.2.4,60.08136323527727,2025-02-19 13h00.23.460722 -0500,
28,28,0,filler_square,None,None,None,None,None,None,None,None,None,None,2,2.3323259353637695,None,,,,,0,0,0,0,0,28,28,197,138.381281375885,,,,,,,,,,,,,,,,,,,,,,,,,,,,,,,,,,,,,,,,,,,,,,,,,,,,,,,,,,,,,,,,,,,,,,,,,,,,,,,,,114.22989981631397,156.78357810571288,157.12010958882988,157.12010958882988,73.31514796977658,125.13853024012614,4.0,4.2,-253,-4,0,-255,237,-17,138.36678409576416,138.36682534217834,138.36940002441406,138.381281375885,138.53161311149597,138.53161311149597,138.53161311149597,138.53161311149597,138.53161311149597,138.53161311149597,138.53161311149597,140.71604466438293,2,2.3323259353637695,None,,,,,,,,,,,,,,,,,,46,5,2025-02-19_12h44.25.750,comp,2024.2.4,60.08136323527727,2025-02-19 13h00.23.460722 -0500,
29,29,0,critical,whd,35.0,3.0,lower,57.0,133.0,133.0,57.0,70.0,70.0,3,1.3169105052947998,None,,,,,0,0,0,0,0,29,29,86,140.73147416114807,,,,,,,,,,,,,,,,,,,,,,,,,,,,,,,,,,,,,,,,,,,,,,,,,,,,,,,,,,,,,,,,,,,,,,,,,,,,,,,,,57.0,133.0,133.0,57.0,70.0,70.0,3.0,3.2,-191,-268,0,-3,160,270,140.71682047843933,140.71685910224915,140.71903276443481,140.73147416114807,140.88124227523804,140.88124227523804,140.88124227523804,140.88124227523804,140.88124227523804,140.88124227523804,140.88124227523804,142.0495309829712,3,1.3169105052947998,None,,,,,,,,,,,,,,,,,,46,5,2025-02-19_12h44.25.750,comp,2024.2.4,60.08136323527727,2025-02-19 13h00.23.460722 -0500,
30,30,0,filler_random,None,None,None,None,None,None,None,None,None,None,1,1.4077274799346924,None,,,,,0,0,0,0,0,30,30,168,142.06489038467407,,,,,,,,,,,,,,,,,,,,,,,,,,,,,,,,,,,,,,,,,,,,,,,,,,,,,,,,,,,,,,,,,,,,,,,,,,,,,,,,,127.79550501753612,70.43123078579787,129.35883611539592,60.89101805433145,158.75593374121647,129.5325404180206,2.2,2.22,-162,256,0,-269,191,-262,142.0504789352417,142.050518989563,142.05301141738892,142.06489038467407,142.21478915214539,142.21478915214539,142.21478915214539,142.21478915214539,142.21478915214539,142.21478915214539,142.21478915214539,143.48256158828735,1,1.4077274799346924,None,,,,,,,,,,,,,,,,,,46,5,2025-02-19_12h44.25.750,comp,2024.2.4,60.08136323527727,2025-02-19 13h00.23.460722 -0500,
31,31,0,critical,whd,35.0,2.1,upper,125.0,200.0,200.0,125.0,127.0,127.0,3,1.3501956462860107,None,,,,,0,0,0,0,0,31,31,37,143.49820160865784,,,,,,,,,,,,,,,,,,,,,,,,,,,,,,,,,,,,,,,,,,,,,,,,,,,,,,,,,,,,,,,,,,,,,,,,,,,,,,,,,125.0,200.0,200.0,125.0,127.0,127.0,2.1,2.12,-258,-264,0,-288,222,287,143.48339128494263,143.48343133926392,143.48556566238403,143.49820160865784,143.64823055267334,143.64823055267334,143.64823055267334,143.64823055267334,143.64823055267334,143.64823055267334,143.64823055267334,144.8659861087799,3,1.3501956462860107,None,,,,,,,,,,,,,,,,,,46,5,2025-02-19_12h44.25.750,comp,2024.2.4,60.08136323527727,2025-02-19 13h00.23.460722 -0500,
32,32,0,critical,wdh,20.0,3.0,upper,125.0,200.0,141.0,141.0,200.0,125.0,1,1.832334280014038,None,,,,,0,0,0,0,0,32,32,81,144.88118696212769,,,,,,,,,,,,,,,,,,,,,,,,,,,,,,,,,,,,,,,,,,,,,,,,,,,,,,,,,,,,,,,,,,,,,,,,,,,,,,,,,125.0,200.0,141.0,141.0,200.0,125.0,3.0,3.1,-266,258,0,8,229,-254,144.86680102348328,144.86684203147888,144.869375705719,144.88118696212769,145.03146862983704,145.03146862983704,145.03146862983704,145.03146862983704,145.03146862983704,145.03146862983704,145.03146862983704,146.7163999080658,1,1.832334280014038,None,,,,,,,,,,,,,,,,,,46,5,2025-02-19_12h44.25.750,comp,2024.2.4,60.08136323527727,2025-02-19 13h00.23.460722 -0500,
33,33,0,critical,hwd,20.0,3.0,upper,200.0,125.0,125.0,200.0,141.0,141.0,1,1.1557369232177734,None,,,,,0,0,0,0,0,33,33,105,146.73144602775574,,,,,,,,,,,,,,,,,,,,,,,,,,,,,,,,,,,,,,,,,,,,,,,,,,,,,,,,,,,,,,,,,,,,,,,,,,,,,,,,,200.0,125.0,125.0,200.0,141.0,141.0,3.0,3.1,-258,268,0,19,266,-275,146.7172224521637,146.71726322174072,146.71937322616577,146.73144602775574,146.88169646263123,146.88169646263123,146.88169646263123,146.88169646263123,146.88169646263123,146.88169646263123,146.88169646263123,147.8996124267578,1,1.1557369232177734,None,,,,,,,,,,,,,,,,,,46,5,2025-02-19_12h44.25.750,comp,2024.2.4,60.08136323527727,2025-02-19 13h00.23.460722 -0500,
34,34,0,critical,hwd,35.0,2.1,upper,200.0,125.0,125.0,200.0,127.0,127.0,1,1.533883810043335,None,,,,,0,0,0,0,0,34,34,17,147.914617061615,,,,,,,,,,,,,,,,,,,,,,,,,,,,,,,,,,,,,,,,,,,,,,,,,,,,,,,,,,,,,,,,,,,,,,,,,,,,,,,,,200.0,125.0,125.0,200.0,127.0,127.0,2.1,2.11,-258,259,0,266,260,-275,147.90054774284363,147.90058779716492,147.90278816223145,147.914617061615,148.06486058235168,148.06486058235168,148.06486058235168,148.06486058235168,148.06486058235168,148.06486058235168,148.06486058235168,149.46606945991516,1,1.533883810043335,None,,,,,,,,,,,,,,,,,,46,5,2025-02-19_12h44.25.750,comp,2024.2.4,60.08136323527727,2025-02-19 13h00.23.460722 -0500,
35,35,0,critical,dwh,35.0,4.0,upper,127.0,127.0,125.0,200.0,200.0,125.0,2,4.534179925918579,None,,,,,0,0,0,0,0,35,35,65,149.48126530647278,,,,,,,,,,,,,,,,,,,,,,,,,,,,,,,,,,,,,,,,,,,,,,,,,,,,,,,,,,,,,,,,,,,,,,,,,,,,,,,,,127.0,127.0,125.0,200.0,200.0,125.0,4.0,4.1,-260,-287,0,3,258,-266,149.46689081192017,149.46693110466003,149.46953105926514,149.48126530647278,149.63157105445862,149.63157105445862,149.63157105445862,149.63157105445862,149.63157105445862,149.63157105445862,149.63157105445862,154.03267788887024,2,4.534179925918579,None,,,,,,,,,,,,,,,,,,46,5,2025-02-19_12h44.25.750,comp,2024.2.4,60.08136323527727,2025-02-19 13h00.23.460722 -0500,
36,36,0,critical,wdh,35.0,3.0,upper,125.0,200.0,127.0,127.0,200.0,125.0,3,5.4391772747039795,None,,,,,0,0,0,0,0,36,36,75,154.04783391952515,,,,,,,,,,,,,,,,,,,,,,,,,,,,,,,,,,,,,,,,,,,,,,,,,,,,,,,,,,,,,,,,,,,,,,,,,,,,,,,,,125.0,200.0,127.0,127.0,200.0,125.0,3.0,3.1,-260,276,0,-6,222,-272,154.0334973335266,154.03353786468506,154.0359799861908,154.04783391952515,154.19816136360168,154.19816136360168,154.19816136360168,154.19816136360168,154.19816136360168,154.19816136360168,154.19816136360168,159.49937868118286,3,5.4391772747039795,None,,,,,,,,,,,,,,,,,,46,5,2025-02-19_12h44.25.750,comp,2024.2.4,60.08136323527727,2025-02-19 13h00.23.460722 -0500,
37,37,0,critical,hdw,20.0,2.1,upper,200.0,125.0,141.0,141.0,125.0,200.0,1,2.725454092025757,None,,,,,0,0,0,0,0,37,37,23,159.51446795463562,,,,,,,,,,,,,,,,,,,,,,,,,,,,,,,,,,,,,,,,,,,,,,,,,,,,,,,,,,,,,,,,,,,,,,,,,,,,,,,,,200.0,125.0,141.0,141.0,125.0,200.0,2.1,2.11,-229,277,0,281,266,-277,159.50021743774414,159.50025725364685,159.50238156318665,159.51446795463562,159.6647539138794,159.6647539138794,159.6647539138794,159.6647539138794,159.6647539138794,159.6647539138794,159.6647539138794,162.2492094039917,1,2.725454092025757,None,,,,,,,,,,,,,,,,,,46,5,2025-02-19_12h44.25.750,comp,2024.2.4,60.08136323527727,2025-02-19 13h00.23.460722 -0500,
38,38,0,filler_square,None,None,None,None,None,None,None,None,None,None,3,2.6544902324676514,None,,,,,0,0,0,0,0,38,38,208,162.2647054195404,,,,,,,,,,,,,,,,,,,,,,,,,,,,,,,,,,,,,,,,,,,,,,,,,,,,,,,,,,,,,,,,,,,,,,,,,,,,,,,,,57.46926209319986,98.22369645801132,77.46634898281974,93.70844548645047,102.43787365543074,102.43787365543074,1.0,1.3,288,-254,480,-265,674,-254,162.2501871585846,162.25022840499878,162.25279474258423,162.2647054195404,162.4144744873047,162.4144744873047,162.4144744873047,162.4144744873047,162.4144744873047,162.4144744873047,162.4144744873047,164.93233728408813,3,2.6544902324676514,None,,,,,,,,,,,,,,,,,,46,5,2025-02-19_12h44.25.750,comp,2024.2.4,60.08136323527727,2025-02-19 13h00.23.460722 -0500,
39,39,0,filler_random,None,None,None,None,None,None,None,None,None,None,2,2.4121570587158203,None,,,,,0,0,0,0,0,39,39,134,164.94774055480957,,,,,,,,,,,,,,,,,,,,,,,,,,,,,,,,,,,,,,,,,,,,,,,,,,,,,,,,,,,,,,,,,,,,,,,,,,,,,,,,,68.87833383964013,199.74582114864344,124.95372439259032,127.7136743781071,165.16464991154433,119.45938229169812,4.0,4.2,-260,13,0,-267,220,13,164.93324851989746,164.93328857421875,164.9356632232666,164.94774055480957,165.09807634353638,165.09807634353638,165.09807634353638,165.09807634353638,165.09807634353638,165.09807634353638,165.09807634353638,167.36580562591553,2,2.4121570587158203,None,,,,,,,,,,,,,,,,,,46,5,2025-02-19_12h44.25.750,comp,2024.2.4,60.08136323527727,2025-02-19 13h00.23.460722 -0500,
40,40,0,filler_random,None,None,None,None,None,None,None,None,None,None,3,1.8834147453308105,None,,,,,0,0,0,0,0,40,40,162,167.38139009475708,,,,,,,,,,,,,,,,,,,,,,,,,,,,,,,,,,,,,,,,,,,,,,,,,,,,,,,,,,,,,,,,,,,,,,,,,,,,,,,,,187.83383924383287,95.65519496494048,70.83376111001716,95.63927054162718,186.54700010142997,169.9322067542097,3.0,3.1,-192,262,0,15,229,-283,167.36675119400024,167.36679124832153,167.36924362182617,167.38139009475708,167.5317051410675,167.5317051410675,167.5317051410675,167.5317051410675,167.5317051410675,167.5317051410675,167.5317051410675,169.28236508369446,3,1.8834147453308105,None,,,,,,,,,,,,,,,,,,46,5,2025-02-19_12h44.25.750,comp,2024.2.4,60.08136323527727,2025-02-19 13h00.23.460722 -0500,
41,41,0,filler_square,None,None,None,None,None,None,None,None,None,None,3,1.8534657955169678,None,,,,,0,0,0,0,0,41,41,194,169.29768800735474,,,,,,,,,,,,,,,,,,,,,,,,,,,,,,,,,,,,,,,,,,,,,,,,,,,,,,,,,,,,,,,,,,,,,,,,,,,,,,,,,115.96767319369602,91.83859244654842,91.89041047602242,120.561002626989,132.48777756488803,132.48777756488803,1.0,1.1,-682,263,-480,270,-257,250,169.28333592414856,169.28337597846985,169.2857551574707,169.29768800735474,169.44798922538757,169.44798922538757,169.44798922538757,169.44798922538757,169.44798922538757,169.44798922538757,169.44798922538757,171.16563272476196,3,1.8534657955169678,None,,,,,,,,,,,,,,,,,,46,5,2025-02-19_12h44.25.750,comp,2024.2.4,60.08136323527727,2025-02-19 13h00.23.460722 -0500,
42,42,0,critical,dhw,35.0,2.1,lower,70.0,70.0,133.0,57.0,57.0,133.0,2,2.586019277572632,None,,,,,0,0,0,0,0,42,42,0,171.18107724189758,,,,,,,,,,,,,,,,,,,,,,,,,,,,,,,,,,,,,,,,,,,,,,,,,,,,,,,,,,,,,,,,,,,,,,,,,,,,,,,,,70.0,70.0,133.0,57.0,57.0,133.0,2.1,2.12,-160,-284,0,-268,191,270,171.16646075248718,171.16650104522705,171.16897463798523,171.18107724189758,171.33128237724304,171.33128237724304,171.33128237724304,171.33128237724304,171.33128237724304,171.33128237724304,171.33128237724304,173.78252148628235,2,2.586019277572632,None,,,,,,,,,,,,,,,,,,46,5,2025-02-19_12h44.25.750,comp,2024.2.4,60.08136323527727,2025-02-19 13h00.23.460722 -0500,
43,43,0,critical,hdw,20.0,1.0,upper,200.0,125.0,141.0,141.0,125.0,200.0,1,1.8839807510375977,None,,,,,0,0,0,0,0,43,43,115,173.79759764671326,,,,,,,,,,,,,,,,,,,,,,,,,,,,,,,,,,,,,,,,,,,,,,,,,,,,,,,,,,,,,,,,,,,,,,,,,,,,,,,,,200.0,125.0,141.0,141.0,125.0,200.0,1.0,1.1,-709,272,-480,279,-214,275,173.78331899642944,173.78335785865784,173.7857949733734,173.79759764671326,173.94847583770752,173.94847583770752,173.94847583770752,173.94847583770752,173.94847583770752,173.94847583770752,173.94847583770752,175.6989974975586,1,1.8839807510375977,None,,,,,,,,,,,,,,,,,,46,5,2025-02-19_12h44.25.750,comp,2024.2.4,60.08136323527727,2025-02-19 13h00.23.460722 -0500,
44,44,0,filler_square,None,None,None,None,None,None,None,None,None,None,1,1.0776305198669434,None,,,,,0,0,0,0,0,44,44,189,175.71439743041992,,,,,,,,,,,,,,,,,,,,,,,,,,,,,,,,,,,,,,,,,,,,,,,,,,,,,,,,,,,,,,,,,,,,,,,,,,,,,,,,,193.84202076218122,193.84202076218122,161.62647688905412,111.32542542198394,145.53680915978202,176.51503293957774,1.0,1.1,-729,271,-480,281,-240,277,175.69997191429138,175.70001006126404,175.70260906219482,175.71439743041992,175.86473846435547,175.86473846435547,175.86473846435547,175.86473846435547,175.86473846435547,175.86473846435547,175.86473846435547,176.79914927482605,1,1.0776305198669434,None,,,,,,,,,,,,,,,,,,46,5,2025-02-19_12h44.25.750,comp,2024.2.4,60.08136323527727,2025-02-19 13h00.23.460722 -0500,
45,45,0,critical,dwh,35.0,4.0,lower,70.0,70.0,57.0,133.0,133.0,57.0,3,2.5844521522521973,None,,,,,0,0,0,0,0,45,45,64,176.81459426879883,,,,,,,,,,,,,,,,,,,,,,,,,,,,,,,,,,,,,,,,,,,,,,,,,,,,,,,,,,,,,,,,,,,,,,,,,,,,,,,,,70.0,70.0,57.0,133.0,133.0,57.0,4.0,4.2,-198,-8,0,-254,191,2,176.79995703697205,176.79999613761902,176.80206036567688,176.81459426879883,176.96450757980347,176.96450757980347,176.96450757980347,176.96450757980347,176.96450757980347,176.96450757980347,176.96450757980347,179.41546058654785,3,2.5844521522521973,None,,,,,,,,,,,,,,,,,,46,5,2025-02-19_12h44.25.750,comp,2024.2.4,60.08136323527727,2025-02-19 13h00.23.460722 -0500,
46,46,0,critical,wdh,35.0,2.1,upper,125.0,200.0,127.0,127.0,200.0,125.0,1,2.7447776794433594,None,,,,,0,0,0,0,0,46,46,9,179.43105959892273,,,,,,,,,,,,,,,,,,,,,,,,,,,,,,,,,,,,,,,,,,,,,,,,,,,,,,,,,,,,,,,,,,,,,,,,,,,,,,,,,125.0,200.0,127.0,127.0,200.0,125.0,2.1,2.11,-260,254,0,260,222,-287,179.41639971733093,179.41643857955933,179.41889572143555,179.43105959892273,179.5813524723053,179.5813524723053,179.5813524723053,179.5813524723053,179.5813524723053,179.5813524723053,179.5813524723053,182.1825475692749,1,2.7447776794433594,None,,,,,,,,,,,,,,,,,,46,5,2025-02-19_12h44.25.750,comp,2024.2.4,60.08136323527727,2025-02-19 13h00.23.460722 -0500,
47,47,0,critical,dwh,35.0,2.1,lower,70.0,70.0,57.0,133.0,133.0,57.0,3,3.0832459926605225,None,,,,,0,0,0,0,0,47,47,4,182.19792008399963,,,,,,,,,,,,,,,,,,,,,,,,,,,,,,,,,,,,,,,,,,,,,,,,,,,,,,,,,,,,,,,,,,,,,,,,,,,,,,,,,70.0,70.0,57.0,133.0,133.0,57.0,2.1,2.12,-198,-283,0,-256,191,290,182.18335247039795,182.18339347839355,182.18580603599548,182.19792008399963,182.34775805473328,182.34775805473328,182.34775805473328,182.34775805473328,182.34775805473328,182.34775805473328,182.34775805473328,185.29884719848633,3,3.0832459926605225,None,,,,,,,,,,,,,,,,,,46,5,2025-02-19_12h44.25.750,comp,2024.2.4,60.08136323527727,2025-02-19 13h00.23.460722 -0500,
48,48,0,critical,whd,20.0,4.0,upper,125.0,200.0,200.0,125.0,141.0,141.0,2,1.2213971614837646,None,,,,,0,0,0,0,0,48,48,95,185.31431078910828,,,,,,,,,,,,,,,,,,,,,,,,,,,,,,,,,,,,,,,,,,,,,,,,,,,,,,,,,,,,,,,,,,,,,,,,,,,,,,,,,125.0,200.0,200.0,125.0,141.0,141.0,4.0,4.1,-258,-280,0,9,229,-271,185.2996530532837,185.29969263076782,185.30228400230408,185.31431078910828,185.46462154388428,185.46462154388428,185.46462154388428,185.46462154388428,185.46462154388428,185.46462154388428,185.46462154388428,186.5490128993988,2,1.2213971614837646,None,,,,,,,,,,,,,,,,,,46,5,2025-02-19_12h44.25.750,comp,2024.2.4,60.08136323527727,2025-02-19 13h00.23.460722 -0500,
49,49,0,critical,hwd,20.0,3.0,lower,133.0,57.0,57.0,133.0,78.0,78.0,3,1.2188982963562012,None,,,,,0,0,0,0,0,49,49,104,186.5642294883728,,,,,,,,,,,,,,,,,,,,,,,,,,,,,,,,,,,,,,,,,,,,,,,,,,,,,,,,,,,,,,,,,,,,,,,,,,,,,,,,,133.0,57.0,57.0,133.0,78.0,78.0,3.0,3.2,-191,-275,0,19,202,258,186.54982662200928,186.5498673915863,186.55199718475342,186.5642294883728,186.71475076675415,186.71475076675415,186.71475076675415,186.71475076675415,186.71475076675415,186.71475076675415,186.71475076675415,187.79884386062622,3,1.2188982963562012,None,,,,,,,,,,,,,,,,,,46,5,2025-02-19_12h44.25.750,comp,2024.2.4,60.08136323527727,2025-02-19 13h00.23.460722 -0500,
50,50,0,critical,wdh,35.0,4.0,lower,57.0,133.0,70.0,70.0,133.0,57.0,1,4.504741907119751,None,,,,,0,0,0,0,0,50,50,76,187.81427836418152,,,,,,,,,,,,,,,,,,,,,,,,,,,,,,,,,,,,,,,,,,,,,,,,,,,,,,,,,,,,,,,,,,,,,,,,,,,,,,,,,57.0,133.0,70.0,70.0,133.0,57.0,4.0,4.1,-198,-279,0,14,160,-267,187.7996861934662,187.79972577095032,187.80229091644287,187.81427836418152,187.96441888809204,187.96441888809204,187.96441888809204,187.96441888809204,187.96441888809204,187.96441888809204,187.96441888809204,192.33214211463928,1,4.504741907119751,None,,,,,,,,,,,,,,,,,,46,5,2025-02-19_12h44.25.750,comp,2024.2.4,60.08136323527727,2025-02-19 13h00.23.460722 -0500,
51,51,0,critical,hdw,35.0,4.0,upper,200.0,125.0,127.0,127.0,125.0,200.0,3,2.171381950378418,None,,,,,0,0,0,0,0,51,51,113,192.3476107120514,,,,,,,,,,,,,,,,,,,,,,,,,,,,,,,,,,,,,,,,,,,,,,,,,,,,,,,,,,,,,,,,,,,,,,,,,,,,,,,,,200.0,125.0,127.0,127.0,125.0,200.0,4.0,4.1,-222,-274,0,-3,260,-278,192.33293437957764,192.33297514915466,192.33534860610962,192.3476107120514,192.49803042411804,192.49803042411804,192.49803042411804,192.49803042411804,192.49803042411804,192.49803042411804,192.49803042411804,194.53252482414246,3,2.171381950378418,None,,,,,,,,,,,,,,,,,,46,5,2025-02-19_12h44.25.750,comp,2024.2.4,60.08136323527727,2025-02-19 13h00.23.460722 -0500,
52,52,0,critical,dhw,35.0,1.0,upper,127.0,127.0,200.0,125.0,125.0,200.0,2,1.2759995460510254,None,,,,,0,0,0,0,0,52,52,49,194.5477478504181,,,,,,,,,,,,,,,,,,,,,,,,,,,,,,,,,,,,,,,,,,,,,,,,,,,,,,,,,,,,,,,,,,,,,,,,,,,,,,,,,127.0,127.0,200.0,125.0,125.0,200.0,1.0,1.3,258,-262,480,-277,738,-258,194.5333354473114,194.53337383270264,194.53672575950623,194.5477478504181,194.6980230808258,194.6980230808258,194.6980230808258,194.6980230808258,194.6980230808258,194.6980230808258,194.6980230808258,195.83217597007751,2,1.2759995460510254,None,,,,,,,,,,,,,,,,,,46,5,2025-02-19_12h44.25.750,comp,2024.2.4,60.08136323527727,2025-02-19 13h00.23.460722 -0500,
53,53,0,filler_square,None,None,None,None,None,None,None,None,None,None,3,1.5512335300445557,None,,,,,0,0,0,0,0,53,53,205,195.8477702140808,,,,,,,,,,,,,,,,,,,,,,,,,,,,,,,,,,,,,,,,,,,,,,,,,,,,,,,,,,,,,,,,,,,,,,,,,,,,,,,,,142.70131736699994,118.36075273013796,156.37181474316304,112.1474505741702,157.09218791013038,157.09218791013038,1.0,1.2,-211,13,0,-5,231,14,195.83313417434692,195.83317518234253,195.8355679512024,195.8477702140808,195.99804091453552,195.99804091453552,195.99804091453552,195.99804091453552,195.99804091453552,195.99804091453552,195.99804091453552,197.41568112373352,3,1.5512335300445557,None,,,,,,,,,,,,,,,,,,46,5,2025-02-19_12h44.25.750,comp,2024.2.4,60.08136323527727,2025-02-19 13h00.23.460722 -0500,
54,54,0,critical,dwh,35.0,2.1,upper,127.0,127.0,125.0,200.0,200.0,125.0,3,1.1199045181274414,None,,,,,0,0,0,0,0,54,54,29,197.43106818199158,,,,,,,,,,,,,,,,,,,,,,,,,,,,,,,,,,,,,,,,,,,,,,,,,,,,,,,,,,,,,,,,,,,,,,,,,,,,,,,,,127.0,127.0,125.0,200.0,200.0,125.0,2.1,2.12,-260,-282,0,-268,258,281,197.41652393341064,197.41656398773193,197.41905975341797,197.43106818199158,197.5811426639557,197.5811426639557,197.5811426639557,197.5811426639557,197.5811426639557,197.5811426639557,197.5811426639557,198.56551957130432,3,1.1199045181274414,None,,,,,,,,,,,,,,,,,,46,5,2025-02-19_12h44.25.750,comp,2024.2.4,60.08136323527727,2025-02-19 13h00.23.460722 -0500,
55,55,0,filler_square,None,None,None,None,None,None,None,None,None,None,1,1.500373363494873,None,,,,,0,0,0,0,0,55,55,172,198.58080339431763,,,,,,,,,,,,,,,,,,,,,,,,,,,,,,,,,,,,,,,,,,,,,,,,,,,,,,,,,,,,,,,,,,,,,,,,,,,,,,,,,146.5793778275717,146.5793778275717,108.51593771298984,105.37627780370444,100.747430515042,84.1170420707122,2.2,2.22,-222,280,0,-259,191,-260,198.56650185585022,198.56654262542725,198.56901741027832,198.58080339431763,198.73109483718872,198.73109483718872,198.73109483718872,198.73109483718872,198.73109483718872,198.73109483718872,198.73109483718872,200.0987765789032,1,1.500373363494873,None,,,,,,,,,,,,,,,,,,46,5,2025-02-19_12h44.25.750,comp,2024.2.4,60.08136323527727,2025-02-19 13h00.23.460722 -0500,
56,56,0,critical,dwh,20.0,2.1,lower,78.0,78.0,57.0,133.0,133.0,57.0,2,2.988558053970337,None,,,,,0,0,0,0,0,56,56,6,200.11420583724976,,,,,,,,,,,,,,,,,,,,,,,,,,,,,,,,,,,,,,,,,,,,,,,,,,,,,,,,,,,,,,,,,,,,,,,,,,,,,,,,,78.0,78.0,57.0,133.0,133.0,57.0,2.1,2.12,-202,-261,0,-290,191,275,200.09958696365356,200.0996253490448,200.10221004486084,200.11420583724976,200.2642228603363,200.2642228603363,200.2642228603363,200.2642228603363,200.2642228603363,200.2642228603363,200.2642228603363,203.11557936668396,2,2.988558053970337,None,,,,,,,,,,,,,,,,,,46,5,2025-02-19_12h44.25.750,comp,2024.2.4,60.08136323527727,2025-02-19 13h00.23.460722 -0500,
57,57,0,filler_random,None,None,None,None,None,None,None,None,None,None,1,1.7174429893493652,None,,,,,0,0,0,0,0,57,57,138,203.1308467388153,,,,,,,,,,,,,,,,,,,,,,,,,,,,,,,,,,,,,,,,,,,,,,,,,,,,,,,,,,,,,,,,,,,,,,,,,,,,,,,,,150.76399722301912,150.7947595499537,96.82866612319638,131.81263027772854,170.11761719284496,145.94753008705374,2.1,2.11,-237,289,0,254,235,-262,203.11649894714355,203.1165373325348,203.11916041374207,203.1308467388153,203.28120040893555,203.28120040893555,203.28120040893555,203.28120040893555,203.28120040893555,203.28120040893555,203.28120040893555,204.86580991744995,1,1.7174429893493652,None,,,,,,,,,,,,,,,,,,46,5,2025-02-19_12h44.25.750,comp,2024.2.4,60.08136323527727,2025-02-19 13h00.23.460722 -0500,
58,58,0,filler_square,None,None,None,None,None,None,None,None,None,None,3,1.6858954429626465,None,,,,,0,0,0,0,0,58,58,191,204.88091468811035,,,,,,,,,,,,,,,,,,,,,,,,,,,,,,,,,,,,,,,,,,,,,,,,,,,,,,,,,,,,,,,,,,,,,,,,,,,,,,,,,59.63786896161291,100.42462038346093,118.38487297992936,117.02180345817382,121.05156856355396,121.05156856355396,2.2,2.22,-205,279,0,-270,215,-260,204.86684226989746,204.86688089370728,204.86936450004578,204.88091468811035,205.03120303153992,205.03120303153992,205.03120303153992,205.03120303153992,205.03120303153992,205.03120303153992,205.03120303153992,206.58206939697266,3,1.6858954429626465,None,,,,,,,,,,,,,,,,,,46,5,2025-02-19_12h44.25.750,comp,2024.2.4,60.08136323527727,2025-02-19 13h00.23.460722 -0500,
59,59,0,catch,None,None,None,None,None,None,None,None,None,None,1,15.866930961608887,None,,,,,0,0,0,0,0,59,59,126,206.59754967689514,,,,,,,,,,,,,,,,,,,,,,,,,,,,,,,,,,,,,,,,,,,,,,,,,,,,,,,,,,,,,,,,,,,,,,,,,,,,,,,,,183,142,76,114,62,128,2.1,2.12,-224,-257,0,-272,217,281,206.5831925868988,206.58323454856873,206.58587336540222,206.59754967689514,206.7476875782013,206.7476875782013,206.7476875782013,206.7476875782013,206.7476875782013,206.7476875782013,206.7476875782013,222.48209071159363,1,15.866930961608887,None,,,,,,,,,,,,,,,,,,46,5,2025-02-19_12h44.25.750,comp,2024.2.4,60.08136323527727,2025-02-19 13h00.23.460722 -0500,
60,60,0,filler_random,None,None,None,None,None,None,None,None,None,None,1,1.7013695240020752,None,,,,,0,0,0,0,0,60,60,167,222.49737811088562,,,,,,,,,,,,,,,,,,,,,,,,,,,,,,,,,,,,,,,,,,,,,,,,,,,,,,,,,,,,,,,,,,,,,,,,,,,,,,,,,147.16522365376957,154.39324809853048,168.19833782361525,68.4244945343014,87.10734918757682,191.97101217943433,3.0,3.2,-207,-253,0,-2,226,270,222.4830150604248,222.48305463790894,222.4856424331665,222.49737811088562,222.64760851860046,222.64760851860046,222.64760851860046,222.64760851860046,222.64760851860046,222.64760851860046,222.64760851860046,224.21544075012207,1,1.7013695240020752,None,,,,,,,,,,,,,,,,,,46,5,2025-02-19_12h44.25.750,comp,2024.2.4,60.08136323527727,2025-02-19 13h00.23.460722 -0500,
61,61,0,critical,dwh,20.0,1.0,upper,141.0,141.0,125.0,200.0,200.0,125.0,3,2.271949052810669,None,,,,,0,0,0,0,0,61,61,67,224.23066234588623,,,,,,,,,,,,,,,,,,,,,,,,,,,,,,,,,,,,,,,,,,,,,,,,,,,,,,,,,,,,,,,,,,,,,,,,,,,,,,,,,141.0,141.0,125.0,200.0,200.0,125.0,1.0,1.3,214,-261,480,-255,738,-250,224.21623873710632,224.21627807617188,224.21866250038147,224.23066234588623,224.38100218772888,224.38100218772888,224.38100218772888,224.38100218772888,224.38100218772888,224.38100218772888,224.38100218772888,226.51561379432678,3,2.271949052810669,None,,,,,,,,,,,,,,,,,,46,5,2025-02-19_12h44.25.750,comp,2024.2.4,60.08136323527727,2025-02-19 13h00.23.460722 -0500,
62,62,0,filler_square,None,None,None,None,None,None,None,None,None,None,1,1.5501468181610107,None,,,,,0,0,0,0,0,62,62,201,226.53073143959045,,,,,,,,,,,,,,,,,,,,,,,,,,,,,,,,,,,,,,,,,,,,,,,,,,,,,,,,,,,,,,,,,,,,,,,,,,,,,,,,,104.62005747518164,104.62005747518164,75.94927287480118,84.23013723682112,88.27548685451532,60.35856224281897,4.0,4.1,-190,-260,0,-4,168,-277,226.51660346984863,226.5166425704956,226.5190942287445,226.53073143959045,226.680969953537,226.680969953537,226.680969953537,226.680969953537,226.680969953537,226.680969953537,226.680969953537,228.0985803604126,1,1.5501468181610107,None,,,,,,,,,,,,,,,,,,46,5,2025-02-19_12h44.25.750,comp,2024.2.4,60.08136323527727,2025-02-19 13h00.23.460722 -0500,
63,63,0,filler_random,None,None,None,None,None,None,None,None,None,None,1,1.557793140411377,None,,,,,0,0,0,0,0,63,63,142,228.11403584480286,,,,,,,,,,,,,,,,,,,,,,,,,,,,,,,,,,,,,,,,,,,,,,,,,,,,,,,,,,,,,,,,,,,,,,,,,,,,,,,,,157.26313987134552,106.15473108582634,199.55172177214286,76.0982862029791,71.84569038097908,58.867711677309245,4.0,4.2,-187,13,0,-276,163,-11,228.0994894504547,228.09952998161316,228.10207343101501,228.11403584480286,228.26422214508057,228.26422214508057,228.26422214508057,228.26422214508057,228.26422214508057,228.26422214508057,228.26422214508057,229.68217015266418,1,1.557793140411377,None,,,,,,,,,,,,,,,,,,46,5,2025-02-19_12h44.25.750,comp,2024.2.4,60.08136323527727,2025-02-19 13h00.23.460722 -0500,
64,64,0,filler_square,None,None,None,None,None,None,None,None,None,None,1,0.9258809089660645,None,,,,,0,0,0,0,0,64,64,199,229.6975793838501,,,,,,,,,,,,,,,,,,,,,,,,,,,,,,,,,,,,,,,,,,,,,,,,,,,,,,,,,,,,,,,,,,,,,,,,,,,,,,,,,159.1101479893053,159.1101479893053,136.2700534092246,77.90317631390948,96.87072046032245,72.80515067035239,2.1,2.11,-215,286,0,272,171,-284,229.68315052986145,229.68319368362427,229.68533611297607,229.6975793838501,229.8478536605835,229.8478536605835,229.8478536605835,229.8478536605835,229.8478536605835,229.8478536605835,229.8478536605835,230.63196229934692,1,0.9258809089660645,None,,,,,,,,,,,,,,,,,,46,5,2025-02-19_12h44.25.750,comp,2024.2.4,60.08136323527727,2025-02-19 13h00.23.460722 -0500,
65,65,0,critical,hdw,35.0,1.0,upper,200.0,125.0,127.0,127.0,125.0,200.0,3,1.7442224025726318,None,,,,,0,0,0,0,0,65,65,109,230.64744353294373,,,,,,,,,,,,,,,,,,,,,,,,,,,,,,,,,,,,,,,,,,,,,,,,,,,,,,,,,,,,,,,,,,,,,,,,,,,,,,,,,200.0,125.0,127.0,127.0,125.0,200.0,1.0,1.2,-222,18,0,16,260,9,230.63278007507324,230.63282108306885,230.63541865348816,230.64744353294373,230.79767298698425,230.79767298698425,230.79767298698425,230.79767298698425,230.79767298698425,230.79767298698425,230.79767298698425,232.39868140220642,3,1.7442224025726318,None,,,,,,,,,,,,,,,,,,46,5,2025-02-19_12h44.25.750,comp,2024.2.4,60.08136323527727,2025-02-19 13h00.23.460722 -0500,
66,66,0,filler_square,None,None,None,None,None,None,None,None,None,None,2,1.0988240242004395,None,,,,,0,0,0,0,0,66,66,202,232.4141857624054,,,,,,,,,,,,,,,,,,,,,,,,,,,,,,,,,,,,,,,,,,,,,,,,,,,,,,,,,,,,,,,,,,,,,,,,,,,,,,,,,118.80293281171261,74.46713423919793,128.64903321324803,128.64903321324803,119.63476227160957,110.17245990946263,1.0,1.1,-678,251,-480,277,-265,274,232.3996729850769,232.39971256256104,232.40231132507324,232.4141857624054,232.56422019004822,232.56422019004822,232.56422019004822,232.56422019004822,232.56422019004822,232.56422019004822,232.56422019004822,233.5154368877411,2,1.0988240242004395,None,,,,,,,,,,,,,,,,,,46,5,2025-02-19_12h44.25.750,comp,2024.2.4,60.08136323527727,2025-02-19 13h00.23.460722 -0500,
67,67,0,filler_square,None,None,None,None,None,None,None,None,None,None,1,1.0200474262237549,None,,,,,0,0,0,0,0,67,67,188,233.53080582618713,,,,,,,,,,,,,,,,,,,,,,,,,,,,,,,,,,,,,,,,,,,,,,,,,,,,,,,,,,,,,,,,,,,,,,,,,,,,,,,,,121.04031913708229,121.04031913708229,72.57456525969059,80.94382738456574,95.89742320526713,73.46019795162485,1.0,1.1,-677,280,-480,271,-307,270,233.51660537719727,233.5166473388672,233.51898574829102,233.53080582618713,233.68088293075562,233.68088293075562,233.68088293075562,233.68088293075562,233.68088293075562,233.68088293075562,233.68088293075562,234.5653305053711,1,1.0200474262237549,None,,,,,,,,,,,,,,,,,,46,5,2025-02-19_12h44.25.750,comp,2024.2.4,60.08136323527727,2025-02-19 13h00.23.460722 -0500,
68,68,0,filler_square,None,None,None,None,None,None,None,None,None,None,2,0.8587770462036133,None,,,,,0,0,0,0,0,68,68,207,234.58066153526306,,,,,,,,,,,,,,,,,,,,,,,,,,,,,,,,,,,,,,,,,,,,,,,,,,,,,,,,,,,,,,,,,,,,,,,,,,,,,,,,,83.42706055528873,62.8880952863915,138.46630331625812,138.46630331625812,103.22370498570817,65.21923743980415,1.0,1.1,-677,269,-480,288,-282,267,234.5663514137268,234.5663914680481,234.56891226768494,234.58066153526306,234.73079919815063,234.73079919815063,234.73079919815063,234.73079919815063,234.73079919815063,234.73079919815063,234.73079919815063,235.44847917556763,2,0.8587770462036133,None,,,,,,,,,,,,,,,,,,46,5,2025-02-19_12h44.25.750,comp,2024.2.4,60.08136323527727,2025-02-19 13h00.23.460722 -0500,
69,69,0,filler_random,None,None,None,None,None,None,None,None,None,None,2,1.111379861831665,None,,,,,0,0,0,0,0,69,69,151,235.46408677101135,,,,,,,,,,,,,,,,,,,,,,,,,,,,,,,,,,,,,,,,,,,,,,,,,,,,,,,,,,,,,,,,,,,,,,,,,,,,,,,,,126.64054716474806,87.36707146497095,150.55105212687891,186.38511355740857,91.96451331188375,159.60268295001072,2.2,2.21,-233,-284,0,276,269,260,235.44939994812012,235.44943976402283,235.4515721797943,235.46408677101135,235.61420512199402,235.61420512199402,235.61420512199402,235.61420512199402,235.61420512199402,235.61420512199402,235.61420512199402,236.58208417892456,2,1.111379861831665,None,,,,,,,,,,,,,,,,,,46,5,2025-02-19_12h44.25.750,comp,2024.2.4,60.08136323527727,2025-02-19 13h00.23.460722 -0500,
70,70,0,critical,dwh,35.0,3.0,lower,70.0,70.0,57.0,133.0,133.0,57.0,2,3.7940573692321777,None,,,,,0,0,0,0,0,70,70,62,236.59761142730713,,,,,,,,,,,,,,,,,,,,,,,,,,,,,,,,,,,,,,,,,,,,,,,,,,,,,,,,,,,,,,,,,,,,,,,,,,,,,,,,,70.0,70.0,57.0,133.0,133.0,57.0,3.0,3.1,-198,271,0,-17,191,-251,236.58285808563232,236.58289766311646,236.58555221557617,236.59761142730713,236.74754166603088,236.74754166603088,236.74754166603088,236.74754166603088,236.74754166603088,236.74754166603088,236.74754166603088,240.39867734909058,2,3.7940573692321777,None,,,,,,,,,,,,,,,,,,46,5,2025-02-19_12h44.25.750,comp,2024.2.4,60.08136323527727,2025-02-19 13h00.23.460722 -0500,
71,71,0,filler_square,None,None,None,None,None,None,None,None,None,None,2,1.0092782974243164,None,,,,,0,0,0,0,0,71,71,190,240.41423225402832,,,,,,,,,,,,,,,,,,,,,,,,,,,,,,,,,,,,,,,,,,,,,,,,,,,,,,,,,,,,,,,,,,,,,,,,,,,,,,,,,146.801132804145,80.74927347535325,196.40353725454017,196.40353725454017,68.66194218423796,67.91869912463831,3.0,3.2,-235,-283,0,9,228,286,240.39968967437744,240.39973068237305,240.40248608589172,240.41423225402832,240.564227104187,240.564227104187,240.564227104187,240.564227104187,240.564227104187,240.564227104187,240.564227104187,241.43200540542603,2,1.0092782974243164,None,,,,,,,,,,,,,,,,,,46,5,2025-02-19_12h44.25.750,comp,2024.2.4,60.08136323527727,2025-02-19 13h00.23.460722 -0500,
72,72,0,filler_random,None,None,None,None,None,None,None,None,None,None,1,1.7762105464935303,None,,,,,0,0,0,0,0,72,72,140,241.4474275112152,,,,,,,,,,,,,,,,,,,,,,,,,,,,,,,,,,,,,,,,,,,,,,,,,,,,,,,,,,,,,,,,,,,,,,,,,,,,,,,,,182.0135976420609,141.8504293538748,119.74883425214671,138.93925694209656,101.11628138054296,166.79580881301092,4.0,4.2,-236,-12,0,-279,249,2,241.4329206943512,241.43295979499817,241.4356849193573,241.4474275112152,241.59755778312683,241.59755778312683,241.59755778312683,241.59755778312683,241.59755778312683,241.59755778312683,241.59755778312683,243.23192143440247,1,1.7762105464935303,None,,,,,,,,,,,,,,,,,,46,5,2025-02-19_12h44.25.750,comp,2024.2.4,60.08136323527727,2025-02-19 13h00.23.460722 -0500,
73,73,0,critical,hdw,20.0,2.1,lower,133.0,57.0,78.0,78.0,57.0,133.0,1,1.959968090057373,None,,,,,0,0,0,0,0,73,73,46,243.24742317199707,,,,,,,,,,,,,,,,,,,,,,,,,,,,,,,,,,,,,,,,,,,,,,,,,,,,,,,,,,,,,,,,,,,,,,,,,,,,,,,,,133.0,57.0,78.0,78.0,57.0,133.0,2.1,2.11,-164,253,0,272,202,-257,243.23274540901184,243.2327845096588,243.23531770706177,243.24742317199707,243.39739179611206,243.39739179611206,243.39739179611206,243.39739179611206,243.39739179611206,243.39739179611206,243.39739179611206,245.2150251865387,1,1.959968090057373,None,,,,,,,,,,,,,,,,,,46,5,2025-02-19_12h44.25.750,comp,2024.2.4,60.08136323527727,2025-02-19 13h00.23.460722 -0500,
74,74,0,critical,dwh,35.0,3.0,upper,127.0,127.0,125.0,200.0,200.0,125.0,2,3.266079902648926,None,,,,,0,0,0,0,0,74,74,63,245.2307689189911,,,,,,,,,,,,,,,,,,,,,,,,,,,,,,,,,,,,,,,,,,,,,,,,,,,,,,,,,,,,,,,,,,,,,,,,,,,,,,,,,127.0,127.0,125.0,200.0,200.0,125.0,3.0,3.1,-260,274,0,4,258,-281,245.21580147743225,245.21584033966064,245.2180290222168,245.2307689189911,245.38080501556396,245.38080501556396,245.38080501556396,245.38080501556396,245.38080501556396,245.38080501556396,245.38080501556396,248.5153112411499,2,3.266079902648926,None,,,,,,,,,,,,,,,,,,46,5,2025-02-19_12h44.25.750,comp,2024.2.4,60.08136323527727,2025-02-19 13h00.23.460722 -0500,
75,75,0,critical,dhw,20.0,2.1,lower,78.0,78.0,133.0,57.0,57.0,133.0,3,1.1880407333374023,None,,,,,0,0,0,0,0,75,75,2,248.53058528900146,,,,,,,,,,,,,,,,,,,,,,,,,,,,,,,,,,,,,,,,,,,,,,,,,,,,,,,,,,,,,,,,,,,,,,,,,,,,,,,,,78.0,78.0,133.0,57.0,57.0,133.0,2.1,2.12,-164,-280,0,-252,191,253,248.51625609397888,248.5162968635559,248.5184144973755,248.53058528900146,248.68102478981018,248.68102478981018,248.68102478981018,248.68102478981018,248.68102478981018,248.68102478981018,248.68102478981018,249.7317509651184,3,1.1880407333374023,None,,,,,,,,,,,,,,,,,,46,5,2025-02-19_12h44.25.750,comp,2024.2.4,60.08136323527727,2025-02-19 13h00.23.460722 -0500,
76,76,0,critical,dhw,35.0,3.0,lower,70.0,70.0,133.0,57.0,57.0,133.0,1,0.8354396820068359,None,,,,,0,0,0,0,0,76,76,50,249.74713444709778,,,,,,,,,,,,,,,,,,,,,,,,,,,,,,,,,,,,,,,,,,,,,,,,,,,,,,,,,,,,,,,,,,,,,,,,,,,,,,,,,70.0,70.0,133.0,57.0,57.0,133.0,3.0,3.1,-160,250,0,1,191,-274,249.73259806632996,249.7326376438141,249.73529863357544,249.74713444709778,249.89719009399414,249.89719009399414,249.89719009399414,249.89719009399414,249.89719009399414,249.89719009399414,249.89719009399414,250.5983760356903,1,0.8354396820068359,None,,,,,,,,,,,,,,,,,,46,5,2025-02-19_12h44.25.750,comp,2024.2.4,60.08136323527727,2025-02-19 13h00.23.460722 -0500,
77,77,0,filler_square,None,None,None,None,None,None,None,None,None,None,2,1.0009169578552246,None,,,,,0,0,0,0,0,77,77,181,250.61385083198547,,,,,,,,,,,,,,,,,,,,,,,,,,,,,,,,,,,,,,,,,,,,,,,,,,,,,,,,,,,,,,,,,,,,,,,,,,,,,,,,,134.19151690264258,155.20223494044103,186.84656034795938,186.84656034795938,164.11583989726913,106.4235411035125,1.0,1.2,-267,-19,0,-4,243,13,250.59932374954224,250.59936380386353,250.60182404518127,250.61385083198547,250.76437783241272,250.76437783241272,250.76437783241272,250.76437783241272,250.76437783241272,250.76437783241272,250.76437783241272,251.6319124698639,2,1.0009169578552246,None,,,,,,,,,,,,,,,,,,46,5,2025-02-19_12h44.25.750,comp,2024.2.4,60.08136323527727,2025-02-19 13h00.23.460722 -0500,
78,78,0,critical,whd,20.0,2.1,upper,125.0,200.0,200.0,125.0,141.0,141.0,3,1.6005816459655762,None,,,,,0,0,0,0,0,78,78,39,251.64714431762695,,,,,,,,,,,,,,,,,,,,,,,,,,,,,,,,,,,,,,,,,,,,,,,,,,,,,,,,,,,,,,,,,,,,,,,,,,,,,,,,,125.0,200.0,200.0,125.0,141.0,141.0,2.1,2.12,-258,-268,0,-282,229,281,251.63271474838257,251.63275241851807,251.63493275642395,251.64714431762695,251.79748439788818,251.79748439788818,251.79748439788818,251.79748439788818,251.79748439788818,251.79748439788818,251.79748439788818,253.26519393920898,3,1.6005816459655762,None,,,,,,,,,,,,,,,,,,46,5,2025-02-19_12h44.25.750,comp,2024.2.4,60.08136323527727,2025-02-19 13h00.23.460722 -0500,
79,79,0,critical,dhw,35.0,2.1,lower,70.0,70.0,133.0,57.0,57.0,133.0,2,2.8060407638549805,None,,,,,0,0,0,0,0,79,79,24,253.28043746948242,,,,,,,,,,,,,,,,,,,,,,,,,,,,,,,,,,,,,,,,,,,,,,,,,,,,,,,,,,,,,,,,,,,,,,,,,,,,,,,,,70.0,70.0,133.0,57.0,57.0,133.0,2.1,2.12,-160,-283,0,-255,191,253,253.26598691940308,253.26602792739868,253.2684109210968,253.28043746948242,253.43073153495789,253.43073153495789,253.43073153495789,253.43073153495789,253.43073153495789,253.43073153495789,253.43073153495789,256.09840750694275,2,2.8060407638549805,None,,,,,,,,,,,,,,,,,,46,5,2025-02-19_12h44.25.750,comp,2024.2.4,60.08136323527727,2025-02-19 13h00.23.460722 -0500,
80,80,0,critical,hwd,20.0,2.1,upper,200.0,125.0,125.0,200.0,141.0,141.0,2,1.9256064891815186,None,,,,,0,0,0,0,0,80,80,43,256.1137812137604,,,,,,,,,,,,,,,,,,,,,,,,,,,,,,,,,,,,,,,,,,,,,,,,,,,,,,,,,,,,,,,,,,,,,,,,,,,,,,,,,200.0,125.0,125.0,200.0,141.0,141.0,2.1,2.11,-258,280,0,280,266,-283,256.09919142723083,256.0992283821106,256.10164165496826,256.1137812137604,256.26408791542053,256.26408791542053,256.26408791542053,256.26408791542053,256.26408791542053,256.26408791542053,256.26408791542053,258.0486137866974,2,1.9256064891815186,None,,,,,,,,,,,,,,,,,,46,5,2025-02-19_12h44.25.750,comp,2024.2.4,60.08136323527727,2025-02-19 13h00.23.460722 -0500,
81,81,0,critical,hdw,35.0,2.1,lower,133.0,57.0,70.0,70.0,57.0,133.0,1,0.9752657413482666,None,,,,,0,0,0,0,0,81,81,44,258.06407928466797,,,,,,,,,,,,,,,,,,,,,,,,,,,,,,,,,,,,,,,,,,,,,,,,,,,,,,,,,,,,,,,,,,,,,,,,,,,,,,,,,133.0,57.0,70.0,70.0,57.0,133.0,2.1,2.11,-160,271,0,276,198,-276,258.04941868782043,258.0494577884674,258.0516119003296,258.06407928466797,258.21389150619507,258.21389150619507,258.21389150619507,258.21389150619507,258.21389150619507,258.21389150619507,258.21389150619507,259.04836678504944,1,0.9752657413482666,None,,,,,,,,,,,,,,,,,,46,5,2025-02-19_12h44.25.750,comp,2024.2.4,60.08136323527727,2025-02-19 13h00.23.460722 -0500,
82,82,0,critical,hdw,35.0,3.0,upper,200.0,125.0,127.0,127.0,125.0,200.0,1,0.9113478660583496,None,,,,,0,0,0,0,0,82,82,111,259.0639989376068,,,,,,,,,,,,,,,,,,,,,,,,,,,,,,,,,,,,,,,,,,,,,,,,,,,,,,,,,,,,,,,,,,,,,,,,,,,,,,,,,200.0,125.0,127.0,127.0,125.0,200.0,3.0,3.1,-222,268,0,-17,260,-271,259.04916620254517,259.0492069721222,259.05136132240295,259.0639989376068,259.21407890319824,259.21407890319824,259.21407890319824,259.21407890319824,259.21407890319824,259.21407890319824,259.21407890319824,259.9818079471588,1,0.9113478660583496,None,,,,,,,,,,,,,,,,,,46,5,2025-02-19_12h44.25.750,comp,2024.2.4,60.08136323527727,2025-02-19 13h00.23.460722 -0500,
83,83,0,critical,dhw,35.0,2.1,upper,127.0,127.0,200.0,125.0,125.0,200.0,3,0.9384145736694336,None,,,,,0,0,0,0,0,83,83,1,259.99729108810425,,,,,,,,,,,,,,,,,,,,,,,,,,,,,,,,,,,,,,,,,,,,,,,,,,,,,,,,,,,,,,,,,,,,,,,,,,,,,,,,,127.0,127.0,200.0,125.0,125.0,200.0,2.1,2.12,-222,-274,0,-277,258,279,259.98260283470154,259.98264026641846,259.98510932922363,259.99729108810425,260.1473753452301,260.1473753452301,260.1473753452301,260.1473753452301,260.1473753452301,260.1473753452301,260.1473753452301,260.9502799510956,3,0.9384145736694336,None,,,,,,,,,,,,,,,,,,46,5,2025-02-19_12h44.25.750,comp,2024.2.4,60.08136323527727,2025-02-19 13h00.23.460722 -0500,
84,84,0,critical,wdh,20.0,1.0,lower,57.0,133.0,78.0,78.0,133.0,57.0,3,3.721842050552368,None,,,,,0,0,0,0,0,84,84,78,260.96459579467773,,,,,,,,,,,,,,,,,,,,,,,,,,,,,,,,,,,,,,,,,,,,,,,,,,,,,,,,,,,,,,,,,,,,,,,,,,,,,,,,,57.0,133.0,78.0,78.0,133.0,57.0,1.0,1.2,-202,4,0,15,164,12,260.95127868652344,260.95131754875183,260.95339608192444,260.96459579467773,261.1142165660858,261.1142165660858,261.1142165660858,261.1142165660858,261.1142165660858,261.1142165660858,261.1142165660858,264.69848465919495,3,3.721842050552368,None,,,,,,,,,,,,,,,,,,46,5,2025-02-19_12h44.25.750,comp,2024.2.4,60.08136323527727,2025-02-19 13h00.23.460722 -0500,
85,85,0,critical,dhw,35.0,4.0,lower,70.0,70.0,133.0,57.0,57.0,133.0,3,2.2047247886657715,None,,,,,0,0,0,0,0,85,85,52,264.71380972862244,,,,,,,,,,,,,,,,,,,,,,,,,,,,,,,,,,,,,,,,,,,,,,,,,,,,,,,,,,,,,,,,,,,,,,,,,,,,,,,,,70.0,70.0,133.0,57.0,57.0,133.0,4.0,4.2,-160,2,0,-267,191,18,264.6992881298065,264.6993336677551,264.70210099220276,264.71380972862244,264.86382031440735,264.86382031440735,264.86382031440735,264.86382031440735,264.86382031440735,264.86382031440735,264.86382031440735,266.93188548088074,3,2.2047247886657715,None,,,,,,,,,,,,,,,,,,46,5,2025-02-19_12h44.25.750,comp,2024.2.4,60.08136323527727,2025-02-19 13h00.23.460722 -0500,
86,86,0,critical,dhw,20.0,1.0,upper,141.0,141.0,200.0,125.0,125.0,200.0,2,1.06013822555542,None,,,,,0,0,0,0,0,86,86,55,266.9470705986023,,,,,,,,,,,,,,,,,,,,,,,,,,,,,,,,,,,,,,,,,,,,,,,,,,,,,,,,,,,,,,,,,,,,,,,,,,,,,,,,,141.0,141.0,200.0,125.0,125.0,200.0,1.0,1.1,-709,282,-480,267,-222,274,266.9326927661896,266.9327323436737,266.93527245521545,266.9470705986023,267.09740018844604,267.09740018844604,267.09740018844604,267.09740018844604,267.09740018844604,267.09740018844604,267.09740018844604,268.0151536464691,2,1.06013822555542,None,,,,,,,,,,,,,,,,,,46,5,2025-02-19_12h44.25.750,comp,2024.2.4,60.08136323527727,2025-02-19 13h00.23.460722 -0500,
87,87,0,critical,hwd,20.0,2.1,lower,133.0,57.0,57.0,133.0,78.0,78.0,3,1.0002739429473877,None,,,,,0,0,0,0,0,87,87,42,268.03064608573914,,,,,,,,,,,,,,,,,,,,,,,,,,,,,,,,,,,,,,,,,,,,,,,,,,,,,,,,,,,,,,,,,,,,,,,,,,,,,,,,,133.0,57.0,57.0,133.0,78.0,78.0,2.1,2.12,-191,-250,0,-266,202,284,268.01591753959656,268.0159568786621,268.01811122894287,268.03064608573914,268.18063974380493,268.18063974380493,268.18063974380493,268.18063974380493,268.18063974380493,268.18063974380493,268.18063974380493,269.04834365844727,3,1.0002739429473877,None,,,,,,,,,,,,,,,,,,46,5,2025-02-19_12h44.25.750,comp,2024.2.4,60.08136323527727,2025-02-19 13h00.23.460722 -0500,
88,88,0,filler_square,None,None,None,None,None,None,None,None,None,None,2,0.8330862522125244,None,,,,,0,0,0,0,0,88,88,203,269.06368708610535,,,,,,,,,,,,,,,,,,,,,,,,,,,,,,,,,,,,,,,,,,,,,,,,,,,,,,,,,,,,,,,,,,,,,,,,,,,,,,,,,57.24075056587736,63.07235391328663,170.92256829439464,170.92256829439464,73.49162735143082,156.24960170899604,1.0,1.2,-213,-15,0,5,260,20,269.04927802085876,269.0493178367615,269.05172085762024,269.06368708610535,269.21398758888245,269.21398758888245,269.21398758888245,269.21398758888245,269.21398758888245,269.21398758888245,269.21398758888245,269.9150023460388,2,0.8330862522125244,None,,,,,,,,,,,,,,,,,,46,5,2025-02-19_12h44.25.750,comp,2024.2.4,60.08136323527727,2025-02-19 13h00.23.460722 -0500,
89,89,0,critical,hwd,35.0,4.0,upper,200.0,125.0,125.0,200.0,127.0,127.0,2,0.9338345527648926,None,,,,,0,0,0,0,0,89,89,101,269.93045353889465,,,,,,,,,,,,,,,,,,,,,,,,,,,,,,,,,,,,,,,,,,,,,,,,,,,,,,,,,,,,,,,,,,,,,,,,,,,,,,,,,200.0,125.0,125.0,200.0,127.0,127.0,4.0,4.1,-258,-273,0,17,260,-256,269.9158432483673,269.91588377952576,269.91845750808716,269.93045353889465,270.0809738636017,270.0809738636017,270.0809738636017,270.0809738636017,270.0809738636017,270.0809738636017,270.0809738636017,270.88180470466614,2,0.9338345527648926,None,,,,,,,,,,,,,,,,,,46,5,2025-02-19_12h44.25.750,comp,2024.2.4,60.08136323527727,2025-02-19 13h00.23.460722 -0500,
90,90,0,filler_random,None,None,None,None,None,None,None,None,None,None,3,1.183488368988037,None,,,,,0,0,0,0,0,90,90,149,270.89714527130127,,,,,,,,,,,,,,,,,,,,,,,,,,,,,,,,,,,,,,,,,,,,,,,,,,,,,,,,,,,,,,,,,,,,,,,,,,,,,,,,,112.46929676244463,139.88540141053977,65.90886714253224,80.90933961436312,106.80741802163277,140.2791039170142,2.1,2.12,-206,-266,0,-289,207,284,270.8827283382416,270.88276863098145,270.88531851768494,270.89714527130127,271.0472323894501,271.0472323894501,271.0472323894501,271.0472323894501,271.0472323894501,271.0472323894501,271.0472323894501,272.0819444656372,3,1.183488368988037,None,,,,,,,,,,,,,,,,,,46,5,2025-02-19_12h44.25.750,comp,2024.2.4,60.08136323527727,2025-02-19 13h00.23.460722 -0500,
91,91,0,filler_random,None,None,None,None,None,None,None,None,None,None,1,0.8378310203552246,None,,,,,0,0,0,0,0,91,91,163,272.0973379611969,,,,,,,,,,,,,,,,,,,,,,,,,,,,,,,,,,,,,,,,,,,,,,,,,,,,,,,,,,,,,,,,,,,,,,,,,,,,,,,,,136.01510951754366,149.060327778866,168.23240885789386,82.63607090252715,117.25123343426823,174.76241874843691,2.2,2.22,-212,276,0,-282,225,-276,272.082852602005,272.0828938484192,272.0854420661926,272.0973379611969,272.2472186088562,272.2472186088562,272.2472186088562,272.2472186088562,272.2472186088562,272.2472186088562,272.2472186088562,272.94839215278625,1,0.8378310203552246,None,,,,,,,,,,,,,,,,,,46,5,2025-02-19_12h44.25.750,comp,2024.2.4,60.08136323527727,2025-02-19 13h00.23.460722 -0500,
92,92,0,catch,None,None,None,None,None,None,None,None,None,None,3,0.9956700801849365,None,,,,,0,0,0,0,0,92,92,125,272.9637770652771,,,,,,,,,,,,,,,,,,,,,,,,,,,,,,,,,,,,,,,,,,,,,,,,,,,,,,,,,,,,,,,,,,,,,,,,,,,,,,,,,194,131,129,61,112,78,2.1,2.12,-192,-254,0,-283,166,286,272.9494242668152,272.94946217536926,272.9527838230133,272.9637770652771,273.1142816543579,273.1142816543579,273.1142816543579,273.1142816543579,273.1142816543579,273.1142816543579,273.1142816543579,273.9652421474457,3,0.9956700801849365,None,,,,,,,,,,,,,,,,,,46,5,2025-02-19_12h44.25.750,comp,2024.2.4,60.08136323527727,2025-02-19 13h00.23.460722 -0500,
93,93,0,filler_random,None,None,None,None,None,None,None,None,None,None,2,1.0108134746551514,None,,,,,0,0,0,0,0,93,93,130,273.9806821346283,,,,,,,,,,,,,,,,,,,,,,,,,,,,,,,,,,,,,,,,,,,,,,,,,,,,,,,,,,,,,,,,,,,,,,,,,,,,,,,,,141.82367949999303,109.34170832177458,117.42440419869483,164.06651304386912,138.91126466598777,151.64748845800239,2.1,2.11,-233,266,0,288,254,-271,273.9661786556244,273.96621894836426,273.96850633621216,273.9806821346283,274.13062262535095,274.13062262535095,274.13062262535095,274.13062262535095,274.13062262535095,274.13062262535095,274.13062262535095,274.9984166622162,2,1.0108134746551514,None,,,,,,,,,,,,,,,,,,46,5,2025-02-19_12h44.25.750,comp,2024.2.4,60.08136323527727,2025-02-19 13h00.23.460722 -0500,
94,94,0,critical,dhw,20.0,2.1,lower,78.0,78.0,133.0,57.0,57.0,133.0,2,1.1212539672851562,None,,,,,0,0,0,0,0,94,94,26,275.0138969421387,,,,,,,,,,,,,,,,,,,,,,,,,,,,,,,,,,,,,,,,,,,,,,,,,,,,,,,,,,,,,,,,,,,,,,,,,,,,,,,,,78.0,78.0,133.0,57.0,57.0,133.0,2.1,2.11,-164,254,0,265,191,-273,274.99918127059937,274.99921917915344,275.0012671947479,275.0138969421387,275.16374921798706,275.16374921798706,275.16374921798706,275.16374921798706,275.16374921798706,275.16374921798706,275.16374921798706,276.1482355594635,2,1.1212539672851562,None,,,,,,,,,,,,,,,,,,46,5,2025-02-19_12h44.25.750,comp,2024.2.4,60.08136323527727,2025-02-19 13h00.23.460722 -0500,
95,95,0,critical,hwd,35.0,4.0,lower,133.0,57.0,57.0,133.0,70.0,70.0,2,4.011578798294067,None,,,,,0,0,0,0,0,95,95,100,276.1636905670166,,,,,,,,,,,,,,,,,,,,,,,,,,,,,,,,,,,,,,,,,,,,,,,,,,,,,,,,,,,,,,,,,,,,,,,,,,,,,,,,,133.0,57.0,57.0,133.0,70.0,70.0,4.0,4.2,-191,-9,0,-255,198,0,276.1489944458008,276.14903378486633,276.15136981010437,276.1636905670166,276.31381368637085,276.31381368637085,276.31381368637085,276.31381368637085,276.31381368637085,276.31381368637085,276.31381368637085,280.18159437179565,2,4.011578798294067,None,,,,,,,,,,,,,,,,,,46,5,2025-02-19_12h44.25.750,comp,2024.2.4,60.08136323527727,2025-02-19 13h00.23.460722 -0500,
96,96,0,critical,dhw,20.0,4.0,lower,78.0,78.0,133.0,57.0,57.0,133.0,3,2.0261714458465576,None,,,,,0,0,0,0,0,96,96,58,280.19719910621643,,,,,,,,,,,,,,,,,,,,,,,,,,,,,,,,,,,,,,,,,,,,,,,,,,,,,,,,,,,,,,,,,,,,,,,,,,,,,,,,,78.0,78.0,133.0,57.0,57.0,133.0,4.0,4.2,-164,0,0,-263,191,8,280.18241357803345,280.18245458602905,280.18494510650635,280.19719910621643,280.3472104072571,280.3472104072571,280.3472104072571,280.3472104072571,280.3472104072571,280.3472104072571,280.3472104072571,282.2316086292267,3,2.0261714458465576,None,,,,,,,,,,,,,,,,,,46,5,2025-02-19_12h44.25.750,comp,2024.2.4,60.08136323527727,2025-02-19 13h00.23.460722 -0500,
97,97,0,critical,whd,35.0,4.0,lower,57.0,133.0,133.0,57.0,70.0,70.0,3,0.9836175441741943,None,,,,,0,0,0,0,0,97,97,88,282.24728536605835,,,,,,,,,,,,,,,,,,,,,,,,,,,,,,,,,,,,,,,,,,,,,,,,,,,,,,,,,,,,,,,,,,,,,,,,,,,,,,,,,57.0,133.0,133.0,57.0,70.0,70.0,4.0,4.1,-191,-257,0,-3,160,-286,282.23243045806885,282.23247027397156,282.23495864868164,282.24728536605835,282.3971486091614,282.3971486091614,282.3971486091614,282.3971486091614,282.3971486091614,282.3971486091614,282.3971486091614,283.24955224990845,3,0.9836175441741943,None,,,,,,,,,,,,,,,,,,46,5,2025-02-19_12h44.25.750,comp,2024.2.4,60.08136323527727,2025-02-19 13h00.23.460722 -0500,
98,98,0,critical,whd,35.0,2.1,upper,125.0,200.0,200.0,125.0,127.0,127.0,1,1.315338134765625,None,,,,,0,0,0,0,0,98,98,13,283.267208814621,,,,,,,,,,,,,,,,,,,,,,,,,,,,,,,,,,,,,,,,,,,,,,,,,,,,,,,,,,,,,,,,,,,,,,,,,,,,,,,,,125.0,200.0,200.0,125.0,127.0,127.0,2.1,2.11,-258,261,0,262,222,-288,283.2523581981659,283.2524046897888,283.2546203136444,283.267208814621,283.4139668941498,283.4139668941498,283.4139668941498,283.4139668941498,283.4139668941498,283.4139668941498,283.4139668941498,284.5983741283417,1,1.315338134765625,None,,,,,,,,,,,,,,,,,,46,5,2025-02-19_12h44.25.750,comp,2024.2.4,60.08136323527727,2025-02-19 13h00.23.460722 -0500,
99,99,0,critical,hdw,35.0,4.0,lower,133.0,57.0,70.0,70.0,57.0,133.0,3,1.504788875579834,None,,,,,0,0,0,0,0,99,99,112,284.61359667778015,,,,,,,,,,,,,,,,,,,,,,,,,,,,,,,,,,,,,,,,,,,,,,,,,,,,,,,,,,,,,,,,,,,,,,,,,,,,,,,,,133.0,57.0,70.0,70.0,57.0,133.0,4.0,4.2,-160,13,0,-264,198,12,284.599157333374,284.59919714927673,284.6015524864197,284.61359667778015,284.76376581192017,284.76376581192017,284.76376581192017,284.76376581192017,284.76376581192017,284.76376581192017,284.76376581192017,286.1315233707428,3,1.504788875579834,None,,,,,,,,,,,,,,,,,,46,5,2025-02-19_12h44.25.750,comp,2024.2.4,60.08136323527727,2025-02-19 13h00.23.460722 -0500,
100,100,0,critical,wdh,35.0,2.1,upper,125.0,200.0,127.0,127.0,200.0,125.0,3,1.2035109996795654,None,,,,,0,0,0,0,0,100,100,33,286.14695405960083,,,,,,,,,,,,,,,,,,,,,,,,,,,,,,,,,,,,,,,,,,,,,,,,,,,,,,,,,,,,,,,,,,,,,,,,,,,,,,,,,125.0,200.0,127.0,127.0,200.0,125.0,2.1,2.12,-260,-272,0,-257,222,265,286.1323027610779,286.13234066963196,286.1347246170044,286.14695405960083,286.2973082065582,286.2973082065582,286.2973082065582,286.2973082065582,286.2973082065582,286.2973082065582,286.2973082065582,287.3652365207672,3,1.2035109996795654,None,,,,,,,,,,,,,,,,,,46,5,2025-02-19_12h44.25.750,comp,2024.2.4,60.08136323527727,2025-02-19 13h00.23.460722 -0500,
101,101,0,critical,whd,20.0,3.0,upper,125.0,200.0,200.0,125.0,141.0,141.0,1,2.570228099822998,None,,,,,0,0,0,0,0,101,101,93,287.3803176879883,,,,,,,,,,,,,,,,,,,,,,,,,,,,,,,,,,,,,,,,,,,,,,,,,,,,,,,,,,,,,,,,,,,,,,,,,,,,,,,,,125.0,200.0,200.0,125.0,141.0,141.0,3.0,3.1,-258,285,0,0,229,-274,287.36601758003235,287.3660554885864,287.3682076931,287.3803176879883,287.53067278862,287.53067278862,287.53067278862,287.53067278862,287.53067278862,287.53067278862,287.53067278862,289.9651086330414,1,2.570228099822998,None,,,,,,,,,,,,,,,,,,46,5,2025-02-19_12h44.25.750,comp,2024.2.4,60.08136323527727,2025-02-19 13h00.23.460722 -0500,
102,102,0,filler_square,None,None,None,None,None,None,None,None,None,None,1,1.6019725799560547,None,,,,,0,0,0,0,0,102,102,204,289.98029685020447,,,,,,,,,,,,,,,,,,,,,,,,,,,,,,,,,,,,,,,,,,,,,,,,,,,,,,,,,,,,,,,,,,,,,,,,,,,,,,,,,176.72024466999636,176.72024466999636,94.87836685404244,137.88807417619745,120.71936100615864,88.84224688943479,2.2,2.21,-253,-254,0,280,209,274,289.966103553772,289.9661602973938,289.96829748153687,289.98029685020447,290.1307005882263,290.1307005882263,290.1307005882263,290.1307005882263,290.1307005882263,290.1307005882263,290.1307005882263,291.5982301235199,1,1.6019725799560547,None,,,,,,,,,,,,,,,,,,46,5,2025-02-19_12h44.25.750,comp,2024.2.4,60.08136323527727,2025-02-19 13h00.23.460722 -0500,
103,103,0,critical,hwd,35.0,3.0,upper,200.0,125.0,125.0,200.0,127.0,127.0,1,0.8506219387054443,None,,,,,0,0,0,0,0,103,103,99,291.6134903430939,,,,,,,,,,,,,,,,,,,,,,,,,,,,,,,,,,,,,,,,,,,,,,,,,,,,,,,,,,,,,,,,,,,,,,,,,,,,,,,,,200.0,125.0,125.0,200.0,127.0,127.0,3.0,3.1,-258,279,0,1,260,-289,291.59898614883423,291.59902453422546,291.6013503074646,291.6134903430939,291.76382207870483,291.76382207870483,291.76382207870483,291.76382207870483,291.76382207870483,291.76382207870483,291.76382207870483,292.48199367523193,1,0.8506219387054443,None,,,,,,,,,,,,,,,,,,46,5,2025-02-19_12h44.25.750,comp,2024.2.4,60.08136323527727,2025-02-19 13h00.23.460722 -0500,
104,104,0,critical,wdh,20.0,4.0,lower,57.0,133.0,78.0,78.0,133.0,57.0,2,5.5100719928741455,None,,,,,0,0,0,0,0,104,104,82,292.49700140953064,,,,,,,,,,,,,,,,,,,,,,,,,,,,,,,,,,,,,,,,,,,,,,,,,,,,,,,,,,,,,,,,,,,,,,,,,,,,,,,,,57.0,133.0,78.0,78.0,133.0,57.0,4.0,4.1,-202,-282,0,1,164,-252,292.48279666900635,292.4828350543976,292.4853506088257,292.49700140953064,292.647198677063,292.647198677063,292.647198677063,292.647198677063,292.647198677063,292.647198677063,292.647198677063,298.0147318840027,2,5.5100719928741455,None,,,,,,,,,,,,,,,,,,46,5,2025-02-19_12h44.25.750,comp,2024.2.4,60.08136323527727,2025-02-19 13h00.23.460722 -0500,
105,105,0,filler_random,None,None,None,None,None,None,None,None,None,None,3,1.00032377243042,None,,,,,0,0,0,0,0,105,105,155,298.03052282333374,,,,,,,,,,,,,,,,,,,,,,,,,,,,,,,,,,,,,,,,,,,,,,,,,,,,,,,,,,,,,,,,,,,,,,,,,,,,,,,,,84.2443132073492,132.71506253477017,116.0691917730865,179.72509742003223,174.03946870238008,147.10315652194961,3.0,3.1,-252,274,0,9,259,-286,298.01572585105896,298.01576495170593,298.0183048248291,298.03052282333374,298.1804802417755,298.1804802417755,298.1804802417755,298.1804802417755,298.1804802417755,298.1804802417755,298.1804802417755,299.048228263855,3,1.00032377243042,None,,,,,,,,,,,,,,,,,,46,5,2025-02-19_12h44.25.750,comp,2024.2.4,60.08136323527727,2025-02-19 13h00.23.460722 -0500,
106,106,0,critical,hwd,35.0,1.0,upper,200.0,125.0,125.0,200.0,127.0,127.0,1,1.8004910945892334,None,,,,,0,0,0,0,0,106,106,97,299.0635325908661,,,,,,,,,,,,,,,,,,,,,,,,,,,,,,,,,,,,,,,,,,,,,,,,,,,,,,,,,,,,,,,,,,,,,,,,,,,,,,,,,200.0,125.0,125.0,200.0,127.0,127.0,1.0,1.3,222,-269,480,-282,740,-250,299.0490243434906,299.04906153678894,299.051082611084,299.0635325908661,299.2138969898224,299.2138969898224,299.2138969898224,299.2138969898224,299.2138969898224,299.2138969898224,299.2138969898224,300.8816089630127,1,1.8004910945892334,None,,,,,,,,,,,,,,,,,,46,5,2025-02-19_12h44.25.750,comp,2024.2.4,60.08136323527727,2025-02-19 13h00.23.460722 -0500,
107,107,0,filler_square,None,None,None,None,None,None,None,None,None,None,3,2.7892799377441406,None,,,,,0,0,0,0,0,107,107,176,300.8968462944031,,,,,,,,,,,,,,,,,,,,,,,,,,,,,,,,,,,,,,,,,,,,,,,,,,,,,,,,,,,,,,,,,,,,,,,,,,,,,,,,,57.03483522361386,117.22757462220021,69.7443658720662,89.62854987267278,118.18238503441654,118.18238503441654,2.1,2.11,-199,269,0,256,200,-264,300.8827049732208,300.8827452659607,300.88498091697693,300.8968462944031,301.047189950943,301.047189950943,301.047189950943,301.047189950943,301.047189950943,301.047189950943,301.047189950943,303.69837403297424,3,2.7892799377441406,None,,,,,,,,,,,,,,,,,,46,5,2025-02-19_12h44.25.750,comp,2024.2.4,60.08136323527727,2025-02-19 13h00.23.460722 -0500,
108,108,0,filler_random,None,None,None,None,None,None,None,None,None,None,2,1.029853343963623,None,,,,,0,0,0,0,0,108,108,158,303.71354961395264,,,,,,,,,,,,,,,,,,,,,,,,,,,,,,,,,,,,,,,,,,,,,,,,,,,,,,,,,,,,,,,,,,,,,,,,,,,,,,,,,90.72239627934073,139.20759634278795,175.88367755660659,163.66354417098538,91.4828333160562,144.81725262044867,1.0,1.1,-727,257,-480,255,-230,254,303.6993055343628,303.69934463500977,303.70147490501404,303.71354961395264,303.8640224933624,303.8640224933624,303.8640224933624,303.8640224933624,303.8640224933624,303.8640224933624,303.8640224933624,304.7482702732086,2,1.029853343963623,None,,,,,,,,,,,,,,,,,,46,5,2025-02-19_12h44.25.750,comp,2024.2.4,60.08136323527727,2025-02-19 13h00.23.460722 -0500,
109,109,0,critical,hwd,20.0,1.0,upper,200.0,125.0,125.0,200.0,141.0,141.0,1,1.307929515838623,None,,,,,0,0,0,0,0,109,109,103,304.76371574401855,,,,,,,,,,,,,,,,,,,,,,,,,,,,,,,,,,,,,,,,,,,,,,,,,,,,,,,,,,,,,,,,,,,,,,,,,,,,,,,,,200.0,125.0,125.0,200.0,141.0,141.0,1.0,1.1,-738,258,-480,287,-214,273,304.7490563392639,304.74909591674805,304.75125765800476,304.76371574401855,304.91380548477173,304.91380548477173,304.91380548477173,304.91380548477173,304.91380548477173,304.91380548477173,304.91380548477173,306.0817084312439,1,1.307929515838623,None,,,,,,,,,,,,,,,,,,46,5,2025-02-19_12h44.25.750,comp,2024.2.4,60.08136323527727,2025-02-19 13h00.23.460722 -0500,
110,110,0,critical,hwd,35.0,3.0,lower,133.0,57.0,57.0,133.0,70.0,70.0,1,1.3580663204193115,None,,,,,0,0,0,0,0,110,110,98,306.0970845222473,,,,,,,,,,,,,,,,,,,,,,,,,,,,,,,,,,,,,,,,,,,,,,,,,,,,,,,,,,,,,,,,,,,,,,,,,,,,,,,,,133.0,57.0,57.0,133.0,70.0,70.0,3.0,3.1,-191,290,0,-5,198,-261,306.0825207233429,306.08256220817566,306.0846993923187,306.0970845222473,306.2468292713165,306.2468292713165,306.2468292713165,306.2468292713165,306.2468292713165,306.2468292713165,306.2468292713165,307.464617729187,1,1.3580663204193115,None,,,,,,,,,,,,,,,,,,46,5,2025-02-19_12h44.25.750,comp,2024.2.4,60.08136323527727,2025-02-19 13h00.23.460722 -0500,
111,111,0,critical,whd,35.0,1.0,lower,57.0,133.0,133.0,57.0,70.0,70.0,1,4.510571241378784,None,,,,,0,0,0,0,0,111,111,84,307.4803366661072,,,,,,,,,,,,,,,,,,,,,,,,,,,,,,,,,,,,,,,,,,,,,,,,,,,,,,,,,,,,,,,,,,,,,,,,,,,,,,,,,57.0,133.0,133.0,57.0,70.0,70.0,1.0,1.3,289,-279,480,-281,640,-266,307.46542835235596,307.46546745300293,307.467933177948,307.4803366661072,307.63009309768677,307.63009309768677,307.63009309768677,307.63009309768677,307.63009309768677,307.63009309768677,307.63009309768677,311.99803280830383,1,4.510571241378784,None,,,,,,,,,,,,,,,,,,46,5,2025-02-19_12h44.25.750,comp,2024.2.4,60.08136323527727,2025-02-19 13h00.23.460722 -0500,
112,112,0,critical,dhw,35.0,3.0,upper,127.0,127.0,200.0,125.0,125.0,200.0,3,1.0988125801086426,None,,,,,0,0,0,0,0,112,112,51,312.0136857032776,,,,,,,,,,,,,,,,,,,,,,,,,,,,,,,,,,,,,,,,,,,,,,,,,,,,,,,,,,,,,,,,,,,,,,,,,,,,,,,,,127.0,127.0,200.0,125.0,125.0,200.0,3.0,3.2,-222,-287,0,6,258,284,311.9988420009613,311.998881816864,312.0015959739685,312.0136857032776,312.16378259658813,312.16378259658813,312.16378259658813,312.16378259658813,312.16378259658813,312.16378259658813,312.16378259658813,313.11495065689087,3,1.0988125801086426,None,,,,,,,,,,,,,,,,,,46,5,2025-02-19_12h44.25.750,comp,2024.2.4,60.08136323527727,2025-02-19 13h00.23.460722 -0500,
113,113,0,critical,whd,20.0,4.0,lower,57.0,133.0,133.0,57.0,78.0,78.0,1,1.3336188793182373,None,,,,,0,0,0,0,0,113,113,94,313.1302263736725,,,,,,,,,,,,,,,,,,,,,,,,,,,,,,,,,,,,,,,,,,,,,,,,,,,,,,,,,,,,,,,,,,,,,,,,,,,,,,,,,57.0,133.0,133.0,57.0,78.0,78.0,4.0,4.1,-191,-283,0,-7,164,-260,313.11576104164124,313.11580061912537,313.11799788475037,313.1302263736725,313.28038358688354,313.28038358688354,313.28038358688354,313.28038358688354,313.28038358688354,313.28038358688354,313.28038358688354,314.48141264915466,1,1.3336188793182373,None,,,,,,,,,,,,,,,,,,46,5,2025-02-19_12h44.25.750,comp,2024.2.4,60.08136323527727,2025-02-19 13h00.23.460722 -0500,
114,114,0,critical,hdw,35.0,1.0,lower,133.0,57.0,70.0,70.0,57.0,133.0,1,1.3891854286193848,None,,,,,0,0,0,0,0,114,114,108,314.4967656135559,,,,,,,,,,,,,,,,,,,,,,,,,,,,,,,,,,,,,,,,,,,,,,,,,,,,,,,,,,,,,,,,,,,,,,,,,,,,,,,,,133.0,57.0,70.0,70.0,57.0,133.0,1.0,1.2,-160,14,0,9,198,9,314.4822075366974,314.4822459220886,314.48467206954956,314.4967656135559,314.6470744609833,314.6470744609833,314.6470744609833,314.6470744609833,314.6470744609833,314.6470744609833,314.6470744609833,315.8980691432953,1,1.3891854286193848,None,,,,,,,,,,,,,,,,,,46,5,2025-02-19_12h44.25.750,comp,2024.2.4,60.08136323527727,2025-02-19 13h00.23.460722 -0500,
115,115,0,critical,dwh,20.0,4.0,upper,141.0,141.0,125.0,200.0,200.0,125.0,2,2.925553798675537,None,,,,,0,0,0,0,0,115,115,71,315.9133687019348,,,,,,,,,,,,,,,,,,,,,,,,,,,,,,,,,,,,,,,,,,,,,,,,,,,,,,,,,,,,,,,,,,,,,,,,,,,,,,,,,141.0,141.0,125.0,200.0,200.0,125.0,4.0,4.2,-266,2,0,-263,258,5,315.89889883995056,315.89893889427185,315.90106439590454,315.9133687019348,316.06372356414795,316.06372356414795,316.06372356414795,316.06372356414795,316.06372356414795,316.06372356414795,316.06372356414795,318.8482012748718,2,2.925553798675537,None,,,,,,,,,,,,,,,,,,46,5,2025-02-19_12h44.25.750,comp,2024.2.4,60.08136323527727,2025-02-19 13h00.23.460722 -0500,
116,116,0,catch,None,None,None,None,None,None,None,None,None,None,3,1.0078485012054443,None,,,,,0,0,0,0,0,116,116,121,318.86372232437134,,,,,,,,,,,,,,,,,,,,,,,,,,,,,,,,,,,,,,,,,,,,,,,,,,,,,,,,,,,,,,,,,,,,,,,,,,,,,,,,,88,102,62,128,130,195,2.2,2.21,-211,-266,0,284,258,287,318.84927225112915,318.8493118286133,318.8514642715454,318.86372232437134,319.013653755188,319.013653755188,319.013653755188,319.013653755188,319.013653755188,319.013653755188,319.013653755188,319.88146138191223,3,1.0078485012054443,None,,,,,,,,,,,,,,,,,,46,5,2025-02-19_12h44.25.750,comp,2024.2.4,60.08136323527727,2025-02-19 13h00.23.460722 -0500,
117,117,0,filler_random,None,None,None,None,None,None,None,None,None,None,3,1.2313752174377441,None,,,,,0,0,0,0,0,117,117,160,319.89702343940735,,,,,,,,,,,,,,,,,,,,,,,,,,,,,,,,,,,,,,,,,,,,,,,,,,,,,,,,,,,,,,,,,,,,,,,,,,,,,,,,,89.22568554128796,67.43419384443165,170.56923302371956,58.13364754393255,95.66859495458039,151.49171866685742,4.0,4.2,-159,-1,0,-270,201,-10,319.88238883018494,319.8824303150177,319.8845639228821,319.89702343940735,320.04693055152893,320.04693055152893,320.04693055152893,320.04693055152893,320.04693055152893,320.04693055152893,320.04693055152893,321.13143134117126,3,1.2313752174377441,None,,,,,,,,,,,,,,,,,,46,5,2025-02-19_12h44.25.750,comp,2024.2.4,60.08136323527727,2025-02-19 13h00.23.460722 -0500,
118,118,0,critical,whd,35.0,1.0,upper,125.0,200.0,200.0,125.0,127.0,127.0,1,1.924191951751709,None,,,,,0,0,0,0,0,118,118,85,321.14688444137573,,,,,,,,,,,,,,,,,,,,,,,,,,,,,,,,,,,,,,,,,,,,,,,,,,,,,,,,,,,,,,,,,,,,,,,,,,,,,,,,,125.0,200.0,200.0,125.0,127.0,127.0,1.0,1.1,-738,287,-480,276,-258,270,321.1322293281555,321.13226890563965,321.13439106941223,321.14688444137573,321.2968888282776,321.2968888282776,321.2968888282776,321.2968888282776,321.2968888282776,321.2968888282776,321.2968888282776,323.08147740364075,1,1.924191951751709,None,,,,,,,,,,,,,,,,,,46,5,2025-02-19_12h44.25.750,comp,2024.2.4,60.08136323527727,2025-02-19 13h00.23.460722 -0500,
119,119,0,filler_random,None,None,None,None,None,None,None,None,None,None,3,2.0153400897979736,None,,,,,0,0,0,0,0,119,119,143,323.09698510169983,,,,,,,,,,,,,,,,,,,,,,,,,,,,,,,,,,,,,,,,,,,,,,,,,,,,,,,,,,,,,,,,,,,,,,,,,,,,,,,,,110.2172676662959,142.8073060135543,74.79405727986969,194.02241402458955,115.93920781349189,184.55387914730017,1.0,1.2,-264,7,0,-16,285,1,323.082364320755,323.08240389823914,323.08482909202576,323.09698510169983,323.2468104362488,323.2468104362488,323.2468104362488,323.2468104362488,323.2468104362488,323.2468104362488,323.2468104362488,325.1148145198822,3,2.0153400897979736,None,,,,,,,,,,,,,,,,,,46,5,2025-02-19_12h44.25.750,comp,2024.2.4,60.08136323527727,2025-02-19 13h00.23.460722 -0500,
120,120,0,filler_square,None,None,None,None,None,None,None,None,None,None,3,1.1826956272125244,None,,,,,0,0,0,0,0,120,120,182,325.13029885292053,,,,,,,,,,,,,,,,,,,,,,,,,,,,,,,,,,,,,,,,,,,,,,,,,,,,,,,,,,,,,,,,,,,,,,,,,,,,,,,,,79.55856180964858,72.98536368779548,67.59376884745853,75.87184285285724,81.76164864922201,81.76164864922201,4.0,4.2,-170,-15,0,-254,175,-15,325.1158730983734,325.1159157752991,325.1184742450714,325.13029885292053,325.28031039237976,325.28031039237976,325.28031039237976,325.28031039237976,325.28031039237976,325.28031039237976,325.28031039237976,326.331200838089,3,1.1826956272125244,None,,,,,,,,,,,,,,,,,,46,5,2025-02-19_12h44.25.750,comp,2024.2.4,60.08136323527727,2025-02-19 13h00.23.460722 -0500,
121,121,0,filler_square,None,None,None,None,None,None,None,None,None,None,3,1.64412260055542,None,,,,,0,0,0,0,0,121,121,178,326.346622467041,,,,,,,,,,,,,,,,,,,,,,,,,,,,,,,,,,,,,,,,,,,,,,,,,,,,,,,,,,,,,,,,,,,,,,,,,,,,,,,,,64.80569566780534,73.16083316950397,63.716758240131895,63.43123248503685,73.51863992513495,73.51863992513495,3.0,3.1,-164,282,0,2,164,-262,326.3321611881256,326.3322024345398,326.33457016944885,326.346622467041,326.49683237075806,326.49683237075806,326.49683237075806,326.49683237075806,326.49683237075806,326.49683237075806,326.49683237075806,327.99774408340454,3,1.64412260055542,None,,,,,,,,,,,,,,,,,,46,5,2025-02-19_12h44.25.750,comp,2024.2.4,60.08136323527727,2025-02-19 13h00.23.460722 -0500,
122,122,0,catch,None,None,None,None,None,None,None,None,None,None,1,0.777374267578125,None,,,,,0,0,0,0,0,122,122,124,328.0135340690613,,,,,,,,,,,,,,,,,,,,,,,,,,,,,,,,,,,,,,,,,,,,,,,,,,,,,,,,,,,,,,,,,,,,,,,,,,,,,,,,,188,137,102,88,91,99,2.1,2.11,-208,253,0,261,190,-288,327.99879813194275,327.99883794784546,328.0015215873718,328.0135340690613,328.16347646713257,328.16347646713257,328.16347646713257,328.16347646713257,328.16347646713257,328.16347646713257,328.16347646713257,328.79792404174805,1,0.777374267578125,None,,,,,,,,,,,,,,,,,,46,5,2025-02-19_12h44.25.750,comp,2024.2.4,60.08136323527727,2025-02-19 13h00.23.460722 -0500,
123,123,0,filler_random,None,None,None,None,None,None,None,None,None,None,3,1.05820894241333,None,,,,,0,0,0,0,0,123,123,157,328.8133850097656,,,,,,,,,,,,,,,,,,,,,,,,,,,,,,,,,,,,,,,,,,,,,,,,,,,,,,,,,,,,,,,,,,,,,,,,,,,,,,,,,190.05150787738043,95.3394055225101,180.9418035215806,82.55713989571075,178.72143567584732,173.91214381241608,2.1,2.12,-185,-287,0,-282,224,279,328.7988667488098,328.7989065647125,328.80157995224,328.8133850097656,328.9636583328247,328.9636583328247,328.9636583328247,328.9636583328247,328.9636583328247,328.9636583328247,328.9636583328247,329.8814752101898,3,1.05820894241333,None,,,,,,,,,,,,,,,,,,46,5,2025-02-19_12h44.25.750,comp,2024.2.4,60.08136323527727,2025-02-19 13h00.23.460722 -0500,
124,124,0,critical,wdh,20.0,1.0,upper,125.0,200.0,141.0,141.0,200.0,125.0,3,1.421100378036499,None,,,,,0,0,0,0,0,124,124,79,329.8969302177429,,,,,,,,,,,,,,,,,,,,,,,,,,,,,,,,,,,,,,,,,,,,,,,,,,,,,,,,,,,,,,,,,,,,,,,,,,,,,,,,,125.0,200.0,141.0,141.0,200.0,125.0,1.0,1.2,-266,0,0,0,229,-2,329.88224720954895,329.8822867870331,329.88441824913025,329.8969302177429,330.0471770763397,330.0471770763397,330.0471770763397,330.0471770763397,330.0471770763397,330.0471770763397,330.0471770763397,331.3314199447632,3,1.421100378036499,None,,,,,,,,,,,,,,,,,,46,5,2025-02-19_12h44.25.750,comp,2024.2.4,60.08136323527727,2025-02-19 13h00.23.460722 -0500,
125,125,0,critical,hwd,35.0,2.1,upper,200.0,125.0,125.0,200.0,127.0,127.0,3,1.3814363479614258,None,,,,,0,0,0,0,0,125,125,41,331.3466022014618,,,,,,,,,,,,,,,,,,,,,,,,,,,,,,,,,,,,,,,,,,,,,,,,,,,,,,,,,,,,,,,,,,,,,,,,,,,,,,,,,200.0,125.0,125.0,200.0,127.0,127.0,2.1,2.12,-258,-283,0,-255,260,267,331.3322207927704,331.3322594165802,331.3346800804138,331.3466022014618,331.4972143173218,331.4972143173218,331.4972143173218,331.4972143173218,331.4972143173218,331.4972143173218,331.4972143173218,332.7316462993622,3,1.3814363479614258,None,,,,,,,,,,,,,,,,,,46,5,2025-02-19_12h44.25.750,comp,2024.2.4,60.08136323527727,2025-02-19 13h00.23.460722 -0500,
126,126,0,critical,wdh,35.0,1.0,upper,125.0,200.0,127.0,127.0,200.0,125.0,1,1.1007330417633057,None,,,,,0,0,0,0,0,126,126,73,332.74692463874817,,,,,,,,,,,,,,,,,,,,,,,,,,,,,,,,,,,,,,,,,,,,,,,,,,,,,,,,,,,,,,,,,,,,,,,,,,,,,,,,,125.0,200.0,127.0,127.0,200.0,125.0,1.0,1.1,-740,262,-480,286,-258,269,332.73245000839233,332.7324900627136,332.73481822013855,332.74692463874817,332.8969180583954,332.8969180583954,332.8969180583954,332.8969180583954,332.8969180583954,332.8969180583954,332.8969180583954,333.86466693878174,1,1.1007330417633057,None,,,,,,,,,,,,,,,,,,46,5,2025-02-19_12h44.25.750,comp,2024.2.4,60.08136323527727,2025-02-19 13h00.23.460722 -0500,
127,127,0,critical,whd,35.0,2.1,lower,57.0,133.0,133.0,57.0,70.0,70.0,3,1.6482136249542236,None,,,,,0,0,0,0,0,127,127,12,333.8800172805786,,,,,,,,,,,,,,,,,,,,,,,,,,,,,,,,,,,,,,,,,,,,,,,,,,,,,,,,,,,,,,,,,,,,,,,,,,,,,,,,,57.0,133.0,133.0,57.0,70.0,70.0,2.1,2.12,-191,-258,0,-289,160,261,333.8654522895813,333.8654897212982,333.86790108680725,333.8800172805786,334.0302059650421,334.0302059650421,334.0302059650421,334.0302059650421,334.0302059650421,334.0302059650421,334.0302059650421,335.53131103515625,3,1.6482136249542236,None,,,,,,,,,,,,,,,,,,46,5,2025-02-19_12h44.25.750,comp,2024.2.4,60.08136323527727,2025-02-19 13h00.23.460722 -0500,
128,128,0,critical,dwh,35.0,2.1,lower,70.0,70.0,57.0,133.0,133.0,57.0,3,1.150041103363037,None,,,,,0,0,0,0,0,128,128,28,335.54681420326233,,,,,,,,,,,,,,,,,,,,,,,,,,,,,,,,,,,,,,,,,,,,,,,,,,,,,,,,,,,,,,,,,,,,,,,,,,,,,,,,,70.0,70.0,57.0,133.0,133.0,57.0,2.1,2.12,-198,-277,0,-275,191,250,335.5320556163788,335.53209161758423,335.53410172462463,335.54681420326233,335.6970224380493,335.6970224380493,335.6970224380493,335.6970224380493,335.6970224380493,335.6970224380493,335.6970224380493,336.71464347839355,3,1.150041103363037,None,,,,,,,,,,,,,,,,,,46,5,2025-02-19_12h44.25.750,comp,2024.2.4,60.08136323527727,2025-02-19 13h00.23.460722 -0500,
129,129,0,filler_square,None,None,None,None,None,None,None,None,None,None,1,1.166426420211792,None,,,,,0,0,0,0,0,129,129,209,336.7301070690155,,,,,,,,,,,,,,,,,,,,,,,,,,,,,,,,,,,,,,,,,,,,,,,,,,,,,,,,,,,,,,,,,,,,,,,,,,,,,,,,,195.57240741583135,195.57240741583135,192.61336685800043,139.7043166156944,107.13673623220234,106.155710546804,2.2,2.22,-264,267,0,-251,219,-272,336.7156517505646,336.7156927585602,336.7179410457611,336.7301070690155,336.8804383277893,336.8804383277893,336.8804383277893,336.8804383277893,336.8804383277893,336.8804383277893,336.8804383277893,337.8983130455017,1,1.166426420211792,None,,,,,,,,,,,,,,,,,,46,5,2025-02-19_12h44.25.750,comp,2024.2.4,60.08136323527727,2025-02-19 13h00.23.460722 -0500,
130,130,0,filler_random,None,None,None,None,None,None,None,None,None,None,3,1.117133617401123,None,,,,,0,0,0,0,0,130,130,139,337.9134793281555,,,,,,,,,,,,,,,,,,,,,,,,,,,,,,,,,,,,,,,,,,,,,,,,,,,,,,,,,,,,,,,,,,,,,,,,,,,,,,,,,95.44149297907995,177.330311727612,59.82850158317617,183.87870919616847,129.31804922379752,102.15234355732949,1.0,1.2,-277,-14,0,-3,239,5,337.89919900894165,337.8992383480072,337.9014346599579,337.9134793281555,338.0633764266968,338.0633764266968,338.0633764266968,338.0633764266968,338.0633764266968,338.0633764266968,338.0633764266968,339.0479619503021,3,1.117133617401123,None,,,,,,,,,,,,,,,,,,46,5,2025-02-19_12h44.25.750,comp,2024.2.4,60.08136323527727,2025-02-19 13h00.23.460722 -0500,
131,131,0,critical,dwh,35.0,1.0,upper,127.0,127.0,125.0,200.0,200.0,125.0,3,1.7434477806091309,None,,,,,0,0,0,0,0,131,131,61,339.06325030326843,,,,,,,,,,,,,,,,,,,,,,,,,,,,,,,,,,,,,,,,,,,,,,,,,,,,,,,,,,,,,,,,,,,,,,,,,,,,,,,,,127.0,127.0,125.0,200.0,200.0,125.0,1.0,1.3,220,-278,480,-283,738,-255,339.04877281188965,339.04881167411804,339.0509886741638,339.06325030326843,339.21347403526306,339.21347403526306,339.21347403526306,339.21347403526306,339.21347403526306,339.21347403526306,339.21347403526306,340.8145866394043,3,1.7434477806091309,None,,,,,,,,,,,,,,,,,,46,5,2025-02-19_12h44.25.750,comp,2024.2.4,60.08136323527727,2025-02-19 13h00.23.460722 -0500,
132,132,0,critical,whd,20.0,1.0,lower,57.0,133.0,133.0,57.0,78.0,78.0,1,1.3519577980041504,None,,,,,0,0,0,0,0,132,132,90,340.83016633987427,,,,,,,,,,,,,,,,,,,,,,,,,,,,,,,,,,,,,,,,,,,,,,,,,,,,,,,,,,,,,,,,,,,,,,,,,,,,,,,,,57.0,133.0,133.0,57.0,78.0,78.0,1.0,1.3,289,-289,480,-263,644,-269,340.81538939476013,340.8154294490814,340.8177888393402,340.83016633987427,340.980144739151,340.980144739151,340.980144739151,340.980144739151,340.980144739151,340.980144739151,340.980144739151,342.197767496109,1,1.3519577980041504,None,,,,,,,,,,,,,,,,,,46,5,2025-02-19_12h44.25.750,comp,2024.2.4,60.08136323527727,2025-02-19 13h00.23.460722 -0500,
133,133,0,critical,hdw,35.0,2.1,upper,200.0,125.0,127.0,127.0,125.0,200.0,1,0.9368057250976562,None,,,,,0,0,0,0,0,133,133,45,342.2131805419922,,,,,,,,,,,,,,,,,,,,,,,,,,,,,,,,,,,,,,,,,,,,,,,,,,,,,,,,,,,,,,,,,,,,,,,,,,,,,,,,,200.0,125.0,127.0,127.0,125.0,200.0,2.1,2.11,-222,271,0,288,260,-285,342.19857263565063,342.19861340522766,342.20111179351807,342.2131805419922,342.3634388446808,342.3634388446808,342.3634388446808,342.3634388446808,342.3634388446808,342.3634388446808,342.3634388446808,343.1647410392761,1,0.9368057250976562,None,,,,,,,,,,,,,,,,,,46,5,2025-02-19_12h44.25.750,comp,2024.2.4,60.08136323527727,2025-02-19 13h00.23.460722 -0500,
134,134,0,filler_random,None,None,None,None,None,None,None,None,None,None,1,0.9858090877532959,None,,,,,0,0,0,0,0,134,134,164,343.18007040023804,,,,,,,,,,,,,,,,,,,,,,,,,,,,,,,,,,,,,,,,,,,,,,,,,,,,,,,,,,,,,,,,,,,,,,,,,,,,,,,,,158.33291326191252,169.57780298534226,113.15567886216132,102.69128708198862,68.3303430938135,123.46327188177551,4.0,4.2,-232,8,0,-260,209,-13,343.1656804084778,343.16572070121765,343.16785883903503,343.18007040023804,343.3301923274994,343.3301923274994,343.3301923274994,343.3301923274994,343.3301923274994,343.3301923274994,343.3301923274994,344.18126463890076,1,0.9858090877532959,None,,,,,,,,,,,,,,,,,,46,5,2025-02-19_12h44.25.750,comp,2024.2.4,60.08136323527727,2025-02-19 13h00.23.460722 -0500,
135,135,0,critical,wdh,20.0,2.1,lower,57.0,133.0,78.0,78.0,133.0,57.0,1,0.6342141628265381,None,,,,,0,0,0,0,0,135,135,34,344.196496963501,,,,,,,,,,,,,,,,,,,,,,,,,,,,,,,,,,,,,,,,,,,,,,,,,,,,,,,,,,,,,,,,,,,,,,,,,,,,,,,,,57.0,133.0,78.0,78.0,133.0,57.0,2.1,2.11,-202,274,0,264,164,-269,344.18203830718994,344.18207716941833,344.18410181999207,344.196496963501,344.3467216491699,344.3467216491699,344.3467216491699,344.3467216491699,344.3467216491699,344.3467216491699,344.3467216491699,344.84794878959656,1,0.6342141628265381,None,,,,,,,,,,,,,,,,,,46,5,2025-02-19_12h44.25.750,comp,2024.2.4,60.08136323527727,2025-02-19 13h00.23.460722 -0500,
136,136,0,critical,dhw,20.0,4.0,upper,141.0,141.0,200.0,125.0,125.0,200.0,3,0.7915401458740234,None,,,,,0,0,0,0,0,136,136,59,344.8631901741028,,,,,,,,,,,,,,,,,,,,,,,,,,,,,,,,,,,,,,,,,,,,,,,,,,,,,,,,,,,,,,,,,,,,,,,,,,,,,,,,,141.0,141.0,200.0,125.0,125.0,200.0,4.0,4.2,-229,-1,0,-277,258,6,344.84875988960266,344.8487982749939,344.8513844013214,344.8631901741028,345.0137412548065,345.0137412548065,345.0137412548065,345.0137412548065,345.0137412548065,345.0137412548065,345.0137412548065,345.6646955013275,3,0.7915401458740234,None,,,,,,,,,,,,,,,,,,46,5,2025-02-19_12h44.25.750,comp,2024.2.4,60.08136323527727,2025-02-19 13h00.23.460722 -0500,
137,137,0,critical,hdw,20.0,1.0,lower,133.0,57.0,78.0,78.0,57.0,133.0,2,2.399653434753418,None,,,,,0,0,0,0,0,137,137,114,345.68048620224,,,,,,,,,,,,,,,,,,,,,,,,,,,,,,,,,,,,,,,,,,,,,,,,,,,,,,,,,,,,,,,,,,,,,,,,,,,,,,,,,133.0,57.0,78.0,78.0,57.0,133.0,1.0,1.2,-164,0,0,14,202,-14,345.6654829978943,345.6655249595642,345.6676924228668,345.68048620224,345.8301992416382,345.8301992416382,345.8301992416382,345.8301992416382,345.8301992416382,345.8301992416382,345.8301992416382,348.09788513183594,2,2.399653434753418,None,,,,,,,,,,,,,,,,,,46,5,2025-02-19_12h44.25.750,comp,2024.2.4,60.08136323527727,2025-02-19 13h00.23.460722 -0500,
138,138,0,critical,whd,35.0,3.0,upper,125.0,200.0,200.0,125.0,127.0,127.0,1,3.645223617553711,None,,,,,0,0,0,0,0,138,138,87,348.1135241985321,,,,,,,,,,,,,,,,,,,,,,,,,,,,,,,,,,,,,,,,,,,,,,,,,,,,,,,,,,,,,,,,,,,,,,,,,,,,,,,,,125.0,200.0,200.0,125.0,127.0,127.0,3.0,3.2,-258,-270,0,14,222,254,348.0986850261688,348.0987253189087,348.10254645347595,348.1135241985321,348.2636249065399,348.2636249065399,348.2636249065399,348.2636249065399,348.2636249065399,348.2636249065399,348.2636249065399,351.7646429538727,1,3.645223617553711,None,,,,,,,,,,,,,,,,,,46,5,2025-02-19_12h44.25.750,comp,2024.2.4,60.08136323527727,2025-02-19 13h00.23.460722 -0500,
139,139,0,filler_random,None,None,None,None,None,None,None,None,None,None,2,1.4668042659759521,None,,,,,0,0,0,0,0,139,139,148,351.7801375389099,,,,,,,,,,,,,,,,,,,,,,,,,,,,,,,,,,,,,,,,,,,,,,,,,,,,,,,,,,,,,,,,,,,,,,,,,,,,,,,,,158.468203366914,69.70056425317637,131.62835152724415,149.35600693278502,60.93328879959917,93.13335727338271,4.0,4.2,-206,-11,0,-271,217,20,351.76557183265686,351.76561212539673,351.7680003643036,351.7801375389099,351.93005442619324,351.93005442619324,351.93005442619324,351.93005442619324,351.93005442619324,351.93005442619324,351.93005442619324,353.26442527770996,2,1.4668042659759521,None,,,,,,,,,,,,,,,,,,46,5,2025-02-19_12h44.25.750,comp,2024.2.4,60.08136323527727,2025-02-19 13h00.23.460722 -0500,
