thisN,thisTrialN,thisRepN,effect,order,distance,config,diag,h_1,w_1,h_2,w_2,h_3,w_3,rect_choice.keys,rect_choice.rt,rect_choice.duration,instructions_loop.thisRepN,instructions_loop.thisTrialN,instructions_loop.thisN,instructions_loop.thisIndex,blocks.thisRepN,blocks.thisTrialN,blocks.thisN,blocks.thisIndex,trials.thisRepN,trials.thisTrialN,trials.thisN,trials.thisIndex,thisRow.t,notes,consent.started,agree_button.started,decline_button.started,consent_img.started,mouse.started,consent.stopped,agree_button.numClicks,agree_button.timesOn,agree_button.timesOff,decline_button.numClicks,decline_button.timesOn,decline_button.timesOff,mouse.x,mouse.y,mouse.leftButton,mouse.midButton,mouse.rightButton,mouse.time,mouse.clicked_name,exp_params.started,exp_params.stopped,welcome.started,welcome_text.started,welcome.stopped,instructions_1.started,instructions_1_text_1.started,instructions_1_text_2.started,key_resp.started,instructions_1.stopped,instructions_loop.key_resp.keys,instructions_loop.key_resp.rt,instructions_loop.key_resp.duration,instructions_2.started,instructions_2_text_1.started,instructions_2_text_2.started,key_resp_2.started,instructions_2.stopped,instructions_loop.key_resp_2.keys,instructions_loop.key_resp_2.rt,instructions_loop.key_resp_2.duration,instructions_3.started,instructions_3_text_1.started,r1_instr3.started,r2_instr3.started,r3_instr3.started,r1_instr3_label.started,r2_instr3_label.started,r3_instr3_label.started,instructions_3_text_3.started,instructions_3_text_4.started,key_resp_3.started,instructions_3.stopped,instructions_loop.key_resp_3.keys,instructions_loop.key_resp_3.rt,instructions_loop.key_resp_3.duration,instructions_4.started,instructions_4_text_1.started,instructions_4_text_3.started,instructions_4_text_2.started,key_resp_4.started,instructions_4.stopped,instructions_loop.key_resp_4.keys,instructions_loop.key_resp_4.rt,instructions_loop.key_resp_4.duration,instructions_5.started,instructions_5_text_1.started,instructions_5_text_2.started,key_resp_5.started,instructions_5.stopped,instructions_loop.key_resp_5.keys,instructions_loop.key_resp_5.rt,instructions_loop.key_resp_5.duration,start_exp.started,start_exp_text.started,key_resp_6.started,start_exp.stopped,key_resp_6.keys,key_resp_6.rt,key_resp_6.duration,h_1_tmp,w_1_tmp,h_2_tmp,w_2_tmp,h_3_tmp,w_3_tmp,config_tmp,config_tmp_1,r_1_x,r_1_y,r_2_x,r_2_y,r_3_x,r_3_y,pre_trial.started,pre_trial.stopped,choice_trial.started,rect_choice.started,r_1.started,r_2.started,r_3.started,r_1_label.started,r_2_label.started,r_3_label.started,prompt.started,choice_trial.stopped,trials.rect_choice.keys,trials.rect_choice.rt,trials.rect_choice.duration,end_block.started,end_block_text.started,end_block.stopped,end.started,end_text.started,key_resp_7.started,end.stopped,key_resp_7.keys,key_resp_7.rt,key_resp_7.duration,debriefing.started,debrief_form.started,end_debrief.started,debriefing.stopped,end_debrief.keys,end_debrief.rt,end_debrief.duration,participant,computer,date,expName,psychopyVersion,frameRate,expStart,
,,,,,,,,,,,,,,,,,,,,,,,,,,,,,,,0.014624357223510742,0.03539109230041504,0.03539109230041504,0.03539109230041504,0.014425039291381836,7.777958393096924,1,[7.740195989608765],[7.740217208862305],0,,,[-38.0],[-510.0],[1],[0],[0],[7.762775659561157],['agree_button'],,,,,,,,,,,,,,,,,,,,,,,,,,,,,,,,,,,,,,,,,,,,,,,,,,,,,,,,,,,,,,,,,,,,,,,,,,,,,,,,,,,,,,,,,,,,,,,,,,,,,,,,,,,47,6,2025-02-19_13h00.42.127,comp,2024.2.4,57.63124447809306,2025-02-19 13h00.49.188697 -0500,
,,,,,,,,,,,,,,,,,,,,,,,,,,,,,,,,,,,,,,,,,,,,,,,,,,7.778462171554565,7.778562307357788,,,,,,,,,,,,,,,,,,,,,,,,,,,,,,,,,,,,,,,,,,,,,,,,,,,,,,,,,,,,,,,,,,,,,,,,,,,,,,,,,,,,,,,,,,,,,,,,,,,,,,,,,47,6,2025-02-19_13h00.42.127,comp,2024.2.4,57.63124447809306,2025-02-19 13h00.49.188697 -0500,
,,,,,,,,,,,,,,,,,,,,,,,,,,,,,,,,,,,,,,,,,,,,,,,,,,,,7.778605937957764,7.792596340179443,9.780109167098999,,,,,,,,,,,,,,,,,,,,,,,,,,,,,,,,,,,,,,,,,,,,,,,,,,,,,,,,,,,,,,,,,,,,,,,,,,,,,,,,,,,,,,,,,,,,,,,,,,,,,,47,6,2025-02-19_13h00.42.127,comp,2024.2.4,57.63124447809306,2025-02-19 13h00.49.188697 -0500,
0,0,0,,,,,,,,,,,,,,,0,0,0,0,,,,,,,,,9.796817302703857,,,,,,,,,,,,,,,,,,,,,,,,,,9.780964374542236,9.796817302703857,9.796817302703857,11.278752088546753,11.869021892547607,space,0.5667672157287598,None,11.869165658950806,11.884673833847046,11.884673833847046,13.381309032440186,15.050277948379517,space,1.6583349704742432,None,15.050426483154297,15.079541683197021,15.079541683197021,15.079541683197021,15.079541683197021,15.079541683197021,15.079541683197021,15.079541683197021,15.079541683197021,15.079541683197021,16.56811833381653,18.33713173866272,space,1.765103816986084,None,18.33730459213257,18.35945439338684,18.35945439338684,18.35945439338684,19.847781896591187,23.0186824798584,space,3.1574833393096924,None,23.01883316040039,23.03483557701111,23.03483557701111,24.51812481880188,24.96825361251831,space,0.4391140937805176,None,24.968446731567383,24.984111309051514,24.984111309051514,25.73777413368225,space,0.7420556545257568,None,,,,,,,,,,,,,,,,,,,,,,,,,,,,,,,,,,,,,,,,,,,,,,,47,6,2025-02-19_13h00.42.127,comp,2024.2.4,57.63124447809306,2025-02-19 13h00.49.188697 -0500,
0,0,0,critical,whd,20.0,2.1,upper,125.0,200.0,200.0,125.0,141.0,141.0,1,6.656375169754028,None,,,,,0,0,0,0,0,0,0,15,25.78883147239685,,,,,,,,,,,,,,,,,,,,,,,,,,,,,,,,,,,,,,,,,,,,,,,,,,,,,,,,,,,,,,,,,,,,,,,,,,,,,,,,,125.0,200.0,200.0,125.0,141.0,141.0,2.1,2.12,-258,-265,0,-288,229,262,25.776353359222412,25.77639675140381,25.777958869934082,25.78883147239685,25.944146633148193,25.944146633148193,25.944146633148193,25.944146633148193,25.944146633148193,25.944146633148193,25.944146633148193,32.46093964576721,1,6.656375169754028,None,,,,,,,,,,,,,,,,,,47,6,2025-02-19_13h00.42.127,comp,2024.2.4,57.63124447809306,2025-02-19 13h00.49.188697 -0500,
1,1,0,filler_random,None,None,None,None,None,None,None,None,None,None,2,1.3921656608581543,None,,,,,0,0,0,0,0,1,1,158,32.47761344909668,,,,,,,,,,,,,,,,,,,,,,,,,,,,,,,,,,,,,,,,,,,,,,,,,,,,,,,,,,,,,,,,,,,,,,,,,,,,,,,,,87.6539031262439,125.39172322183838,151.84338423609063,137.70902781434523,123.25812657772481,106.01674865571303,1.0,1.2,-228,20,0,-11,218,15,32.46258497238159,32.46265959739685,32.46659564971924,32.47761344909668,32.620062828063965,32.620062828063965,32.620062828063965,32.620062828063965,32.620062828063965,32.620062828063965,32.620062828063965,33.876335859298706,2,1.3921656608581543,None,,,,,,,,,,,,,,,,,,47,6,2025-02-19_13h00.42.127,comp,2024.2.4,57.63124447809306,2025-02-19 13h00.49.188697 -0500,
2,2,0,critical,dhw,20.0,2.1,upper,141.0,141.0,200.0,125.0,125.0,200.0,3,1.2327394485473633,None,,,,,0,0,0,0,0,2,2,3,33.89256715774536,,,,,,,,,,,,,,,,,,,,,,,,,,,,,,,,,,,,,,,,,,,,,,,,,,,,,,,,,,,,,,,,,,,,,,,,,,,,,,,,,141.0,141.0,200.0,125.0,125.0,200.0,2.1,2.11,-229,279,0,284,258,-290,33.877960443496704,33.878037452697754,33.88136291503906,33.89256715774536,34.03994631767273,34.03994631767273,34.03994631767273,34.03994631767273,34.03994631767273,34.03994631767273,34.03994631767273,35.13951659202576,3,1.2327394485473633,None,,,,,,,,,,,,,,,,,,47,6,2025-02-19_13h00.42.127,comp,2024.2.4,57.63124447809306,2025-02-19 13h00.49.188697 -0500,
3,3,0,filler_square,None,None,None,None,None,None,None,None,None,None,1,0.9300463199615479,None,,,,,0,0,0,0,0,3,3,205,35.15530753135681,,,,,,,,,,,,,,,,,,,,,,,,,,,,,,,,,,,,,,,,,,,,,,,,,,,,,,,,,,,,,,,,,,,,,,,,,,,,,,,,,185.86209341157596,185.86209341157596,117.70192045433151,65.16605029355482,184.13357263352177,138.6541065318052,2.1,2.11,-222,283,0,264,198,-267,35.141568422317505,35.14164996147156,35.14500617980957,35.15530753135681,35.31304311752319,35.31304311752319,35.31304311752319,35.31304311752319,35.31304311752319,35.31304311752319,35.31304311752319,36.089850664138794,1,0.9300463199615479,None,,,,,,,,,,,,,,,,,,47,6,2025-02-19_13h00.42.127,comp,2024.2.4,57.63124447809306,2025-02-19 13h00.49.188697 -0500,
4,4,0,filler_random,None,None,None,None,None,None,None,None,None,None,3,1.1233313083648682,None,,,,,0,0,0,0,0,4,4,136,36.10587406158447,,,,,,,,,,,,,,,,,,,,,,,,,,,,,,,,,,,,,,,,,,,,,,,,,,,,,,,,,,,,,,,,,,,,,,,,,,,,,,,,,137.89142814522995,169.08693735907877,170.72805379975682,119.40942505084024,129.52985576634083,167.7862982860173,4.0,4.1,-240,-255,0,-10,240,-275,36.09155201911926,36.09164261817932,36.09500288963318,36.10587406158447,36.25333285331726,36.25333285331726,36.25333285331726,36.25333285331726,36.25333285331726,36.25333285331726,36.25333285331726,37.2402446269989,3,1.1233313083648682,None,,,,,,,,,,,,,,,,,,47,6,2025-02-19_13h00.42.127,comp,2024.2.4,57.63124447809306,2025-02-19 13h00.49.188697 -0500,
5,5,0,critical,dhw,35.0,3.0,lower,70.0,70.0,133.0,57.0,57.0,133.0,2,2.0449295043945312,None,,,,,0,0,0,0,0,5,5,50,37.25623345375061,,,,,,,,,,,,,,,,,,,,,,,,,,,,,,,,,,,,,,,,,,,,,,,,,,,,,,,,,,,,,,,,,,,,,,,,,,,,,,,,,70.0,70.0,133.0,57.0,57.0,133.0,3.0,3.1,-160,279,0,8,191,-285,37.24187970161438,37.2419536113739,37.245426654815674,37.25623345375061,37.40740489959717,37.40740489959717,37.40740489959717,37.40740489959717,37.40740489959717,37.40740489959717,37.40740489959717,39.313085317611694,2,2.0449295043945312,None,,,,,,,,,,,,,,,,,,47,6,2025-02-19_13h00.42.127,comp,2024.2.4,57.63124447809306,2025-02-19 13h00.49.188697 -0500,
6,6,0,critical,hdw,20.0,4.0,lower,133.0,57.0,78.0,78.0,57.0,133.0,1,1.4439406394958496,None,,,,,0,0,0,0,0,6,6,118,39.32927966117859,,,,,,,,,,,,,,,,,,,,,,,,,,,,,,,,,,,,,,,,,,,,,,,,,,,,,,,,,,,,,,,,,,,,,,,,,,,,,,,,,133.0,57.0,78.0,78.0,57.0,133.0,4.0,4.2,-164,1,0,-250,202,2,39.314703941345215,39.31480574607849,39.3180775642395,39.32927966117859,39.47408413887024,39.47408413887024,39.47408413887024,39.47408413887024,39.47408413887024,39.47408413887024,39.47408413887024,40.790706157684326,1,1.4439406394958496,None,,,,,,,,,,,,,,,,,,47,6,2025-02-19_13h00.42.127,comp,2024.2.4,57.63124447809306,2025-02-19 13h00.49.188697 -0500,
7,7,0,critical,whd,35.0,2.1,lower,57.0,133.0,133.0,57.0,70.0,70.0,2,1.434997320175171,None,,,,,0,0,0,0,0,7,7,36,40.81020474433899,,,,,,,,,,,,,,,,,,,,,,,,,,,,,,,,,,,,,,,,,,,,,,,,,,,,,,,,,,,,,,,,,,,,,,,,,,,,,,,,,57.0,133.0,133.0,57.0,70.0,70.0,2.1,2.11,-191,269,0,266,160,-253,40.79221177101135,40.79228496551514,40.79528093338013,40.81020474433899,40.958149909973145,40.958149909973145,40.958149909973145,40.958149909973145,40.958149909973145,40.958149909973145,40.958149909973145,42.25787806510925,2,1.434997320175171,None,,,,,,,,,,,,,,,,,,47,6,2025-02-19_13h00.42.127,comp,2024.2.4,57.63124447809306,2025-02-19 13h00.49.188697 -0500,
8,8,0,critical,wdh,20.0,2.1,upper,125.0,200.0,141.0,141.0,200.0,125.0,1,2.089846134185791,None,,,,,0,0,0,0,0,8,8,35,42.275803327560425,,,,,,,,,,,,,,,,,,,,,,,,,,,,,,,,,,,,,,,,,,,,,,,,,,,,,,,,,,,,,,,,,,,,,,,,,,,,,,,,,125.0,200.0,141.0,141.0,200.0,125.0,2.1,2.11,-266,273,0,274,229,-278,42.259334564208984,42.25940799713135,42.262439250946045,42.275803327560425,42.429723501205444,42.429723501205444,42.429723501205444,42.429723501205444,42.429723501205444,42.429723501205444,42.429723501205444,44.38102126121521,1,2.089846134185791,None,,,,,,,,,,,,,,,,,,47,6,2025-02-19_13h00.42.127,comp,2024.2.4,57.63124447809306,2025-02-19 13h00.49.188697 -0500,
9,9,0,critical,hwd,20.0,4.0,lower,133.0,57.0,57.0,133.0,78.0,78.0,2,1.192704200744629,None,,,,,0,0,0,0,0,9,9,106,44.39649748802185,,,,,,,,,,,,,,,,,,,,,,,,,,,,,,,,,,,,,,,,,,,,,,,,,,,,,,,,,,,,,,,,,,,,,,,,,,,,,,,,,133.0,57.0,57.0,133.0,78.0,78.0,4.0,4.1,-191,-290,0,-20,202,-271,44.38257122039795,44.38264608383179,44.3855254650116,44.39649748802185,44.54346489906311,44.54346489906311,44.54346489906311,44.54346489906311,44.54346489906311,44.54346489906311,44.54346489906311,45.59287166595459,2,1.192704200744629,None,,,,,,,,,,,,,,,,,,47,6,2025-02-19_13h00.42.127,comp,2024.2.4,57.63124447809306,2025-02-19 13h00.49.188697 -0500,
10,10,0,critical,dhw,20.0,1.0,lower,78.0,78.0,133.0,57.0,57.0,133.0,3,2.3090062141418457,None,,,,,0,0,0,0,0,10,10,54,45.6087532043457,,,,,,,,,,,,,,,,,,,,,,,,,,,,,,,,,,,,,,,,,,,,,,,,,,,,,,,,,,,,,,,,,,,,,,,,,,,,,,,,,78.0,78.0,133.0,57.0,57.0,133.0,1.0,1.2,-164,-13,0,-16,191,-6,45.594340562820435,45.59441661834717,45.59791612625122,45.6087532043457,45.758201360702515,45.758201360702515,45.758201360702515,45.758201360702515,45.758201360702515,45.758201360702515,45.758201360702515,47.928266763687134,3,2.3090062141418457,None,,,,,,,,,,,,,,,,,,47,6,2025-02-19_13h00.42.127,comp,2024.2.4,57.63124447809306,2025-02-19 13h00.49.188697 -0500,
11,11,0,critical,dwh,20.0,1.0,lower,78.0,78.0,57.0,133.0,133.0,57.0,3,3.221277952194214,None,,,,,0,0,0,0,0,11,11,66,47.94403791427612,,,,,,,,,,,,,,,,,,,,,,,,,,,,,,,,,,,,,,,,,,,,,,,,,,,,,,,,,,,,,,,,,,,,,,,,,,,,,,,,,78.0,78.0,57.0,133.0,133.0,57.0,1.0,1.2,-202,16,0,1,191,-19,47.92975687980652,47.929831981658936,47.93324017524719,47.94403791427612,48.09323310852051,48.09323310852051,48.09323310852051,48.09323310852051,48.09323310852051,48.09323310852051,48.09323310852051,51.176761865615845,3,3.221277952194214,None,,,,,,,,,,,,,,,,,,47,6,2025-02-19_13h00.42.127,comp,2024.2.4,57.63124447809306,2025-02-19 13h00.49.188697 -0500,
12,12,0,critical,hwd,20.0,1.0,lower,133.0,57.0,57.0,133.0,78.0,78.0,3,1.2483699321746826,None,,,,,0,0,0,0,0,12,12,102,51.19699192047119,,,,,,,,,,,,,,,,,,,,,,,,,,,,,,,,,,,,,,,,,,,,,,,,,,,,,,,,,,,,,,,,,,,,,,,,,,,,,,,,,133.0,57.0,57.0,133.0,78.0,78.0,1.0,1.1,-671,252,-480,277,-278,253,51.17826700210571,51.178340435028076,51.18131995201111,51.19699192047119,51.344621419906616,51.344621419906616,51.344621419906616,51.344621419906616,51.344621419906616,51.344621419906616,51.344621419906616,52.447550535202026,3,1.2483699321746826,None,,,,,,,,,,,,,,,,,,47,6,2025-02-19_13h00.42.127,comp,2024.2.4,57.63124447809306,2025-02-19 13h00.49.188697 -0500,
13,13,0,critical,dhw,35.0,1.0,lower,70.0,70.0,133.0,57.0,57.0,133.0,3,1.8998823165893555,None,,,,,0,0,0,0,0,13,13,48,52.46530723571777,,,,,,,,,,,,,,,,,,,,,,,,,,,,,,,,,,,,,,,,,,,,,,,,,,,,,,,,,,,,,,,,,,,,,,,,,,,,,,,,,70.0,70.0,133.0,57.0,57.0,133.0,1.0,1.3,320,-289,480,-290,671,-289,52.449312686920166,52.44941544532776,52.45236921310425,52.46530723571777,52.61101198196411,52.61101198196411,52.61101198196411,52.61101198196411,52.61101198196411,52.61101198196411,52.61101198196411,54.383824586868286,3,1.8998823165893555,None,,,,,,,,,,,,,,,,,,47,6,2025-02-19_13h00.42.127,comp,2024.2.4,57.63124447809306,2025-02-19 13h00.49.188697 -0500,
14,14,0,critical,hwd,20.0,3.0,lower,133.0,57.0,57.0,133.0,78.0,78.0,1,2.0372636318206787,None,,,,,0,0,0,0,0,14,14,104,54.40090370178223,,,,,,,,,,,,,,,,,,,,,,,,,,,,,,,,,,,,,,,,,,,,,,,,,,,,,,,,,,,,,,,,,,,,,,,,,,,,,,,,,133.0,57.0,57.0,133.0,78.0,78.0,3.0,3.2,-191,-250,0,3,202,258,54.38535475730896,54.38543081283569,54.38826894760132,54.40090370178223,54.54684662818909,54.54684662818909,54.54684662818909,54.54684662818909,54.54684662818909,54.54684662818909,54.54684662818909,56.444267988204956,1,2.0372636318206787,None,,,,,,,,,,,,,,,,,,47,6,2025-02-19_13h00.42.127,comp,2024.2.4,57.63124447809306,2025-02-19 13h00.49.188697 -0500,
15,15,0,filler_random,None,None,None,None,None,None,None,None,None,None,2,0.7774803638458252,None,,,,,0,0,0,0,0,15,15,150,56.46031713485718,,,,,,,,,,,,,,,,,,,,,,,,,,,,,,,,,,,,,,,,,,,,,,,,,,,,,,,,,,,,,,,,,,,,,,,,,,,,,,,,,66.6970574908542,98.72600419417624,193.55661581852902,195.2582213718383,196.86531451220716,74.20503694764831,1.0,1.2,-243,15,0,-14,231,-18,56.445990324020386,56.44611668586731,56.44945216178894,56.46031713485718,56.61877632141113,56.61877632141113,56.61877632141113,56.61877632141113,56.61877632141113,56.61877632141113,56.61877632141113,57.248737812042236,2,0.7774803638458252,None,,,,,,,,,,,,,,,,,,47,6,2025-02-19_13h00.42.127,comp,2024.2.4,57.63124447809306,2025-02-19 13h00.49.188697 -0500,
16,16,0,filler_square,None,None,None,None,None,None,None,None,None,None,1,0.7627973556518555,None,,,,,0,0,0,0,0,16,16,170,57.26703381538391,,,,,,,,,,,,,,,,,,,,,,,,,,,,,,,,,,,,,,,,,,,,,,,,,,,,,,,,,,,,,,,,,,,,,,,,,,,,,,,,,141.02066960605856,141.02066960605856,125.19577913788034,117.41660994835146,99.001993840391,123.99389780388174,3.0,3.1,-225,269,0,-8,217,-276,57.25067758560181,57.250770568847656,57.25407838821411,57.26703381538391,57.41833567619324,57.41833567619324,57.41833567619324,57.41833567619324,57.41833567619324,57.41833567619324,57.41833567619324,58.031917572021484,1,0.7627973556518555,None,,,,,,,,,,,,,,,,,,47,6,2025-02-19_13h00.42.127,comp,2024.2.4,57.63124447809306,2025-02-19 13h00.49.188697 -0500,
17,17,0,critical,wdh,20.0,2.1,upper,125.0,200.0,141.0,141.0,200.0,125.0,3,0.9886257648468018,None,,,,,0,0,0,0,0,17,17,11,58.04861116409302,,,,,,,,,,,,,,,,,,,,,,,,,,,,,,,,,,,,,,,,,,,,,,,,,,,,,,,,,,,,,,,,,,,,,,,,,,,,,,,,,125.0,200.0,141.0,141.0,200.0,125.0,2.1,2.12,-266,-252,0,-277,229,256,58.03357243537903,58.03368020057678,58.03708839416504,58.04861116409302,58.19481301307678,58.19481301307678,58.19481301307678,58.19481301307678,58.19481301307678,58.19481301307678,58.19481301307678,59.043298959732056,3,0.9886257648468018,None,,,,,,,,,,,,,,,,,,47,6,2025-02-19_13h00.42.127,comp,2024.2.4,57.63124447809306,2025-02-19 13h00.49.188697 -0500,
18,18,0,filler_square,None,None,None,None,None,None,None,None,None,None,3,0.7923734188079834,None,,,,,0,0,0,0,0,18,18,185,59.06096863746643,,,,,,,,,,,,,,,,,,,,,,,,,,,,,,,,,,,,,,,,,,,,,,,,,,,,,,,,,,,,,,,,,,,,,,,,,,,,,,,,,144.62141089253515,141.90678363382042,76.35162347003276,93.62511836838542,157.75016820783742,157.75016820783742,3.0,3.2,-214,-286,0,10,222,267,59.04390811920166,59.04392862319946,59.04482340812683,59.06096863746643,59.1970329284668,59.1970329284668,59.1970329284668,59.1970329284668,59.1970329284668,59.1970329284668,59.1970329284668,59.85595178604126,3,0.7923734188079834,None,,,,,,,,,,,,,,,,,,47,6,2025-02-19_13h00.42.127,comp,2024.2.4,57.63124447809306,2025-02-19 13h00.49.188697 -0500,
19,19,0,critical,wdh,35.0,1.0,upper,125.0,200.0,127.0,127.0,200.0,125.0,1,1.0741667747497559,None,,,,,0,0,0,0,0,19,19,73,59.875041246414185,,,,,,,,,,,,,,,,,,,,,,,,,,,,,,,,,,,,,,,,,,,,,,,,,,,,,,,,,,,,,,,,,,,,,,,,,,,,,,,,,125.0,200.0,127.0,127.0,200.0,125.0,1.0,1.3,220,-276,480,-253,702,-279,59.857566595077515,59.85764193534851,59.86089873313904,59.875041246414185,60.01208782196045,60.01208782196045,60.01208782196045,60.01208782196045,60.01208782196045,60.01208782196045,60.01208782196045,60.966795444488525,1,1.0741667747497559,None,,,,,,,,,,,,,,,,,,47,6,2025-02-19_13h00.42.127,comp,2024.2.4,57.63124447809306,2025-02-19 13h00.49.188697 -0500,
20,20,0,filler_random,None,None,None,None,None,None,None,None,None,None,3,0.6944365501403809,None,,,,,0,0,0,0,0,20,20,157,60.982818603515625,,,,,,,,,,,,,,,,,,,,,,,,,,,,,,,,,,,,,,,,,,,,,,,,,,,,,,,,,,,,,,,,,,,,,,,,,,,,,,,,,76.55403731196846,199.38491577896048,99.59185084959691,140.1874756177939,192.49132236269685,188.1558731672084,3.0,3.2,-266,-271,0,19,260,276,60.968669414520264,60.96874642372131,60.97260236740112,60.982818603515625,61.13008952140808,61.13008952140808,61.13008952140808,61.13008952140808,61.13008952140808,61.13008952140808,61.13008952140808,61.68159556388855,3,0.6944365501403809,None,,,,,,,,,,,,,,,,,,47,6,2025-02-19_13h00.42.127,comp,2024.2.4,57.63124447809306,2025-02-19 13h00.49.188697 -0500,
21,21,0,critical,dhw,35.0,2.1,lower,70.0,70.0,133.0,57.0,57.0,133.0,3,1.8799469470977783,None,,,,,0,0,0,0,0,21,21,24,61.70158839225769,,,,,,,,,,,,,,,,,,,,,,,,,,,,,,,,,,,,,,,,,,,,,,,,,,,,,,,,,,,,,,,,,,,,,,,,,,,,,,,,,70.0,70.0,133.0,57.0,57.0,133.0,2.1,2.12,-160,-289,0,-273,191,277,61.68305730819702,61.683133363723755,61.68599557876587,61.70158839225769,61.84839630126953,61.84839630126953,61.84839630126953,61.84839630126953,61.84839630126953,61.84839630126953,61.84839630126953,63.58365082740784,3,1.8799469470977783,None,,,,,,,,,,,,,,,,,,47,6,2025-02-19_13h00.42.127,comp,2024.2.4,57.63124447809306,2025-02-19 13h00.49.188697 -0500,
22,22,0,critical,dwh,20.0,4.0,lower,78.0,78.0,57.0,133.0,133.0,57.0,1,1.6294043064117432,None,,,,,0,0,0,0,0,22,22,70,63.599889516830444,,,,,,,,,,,,,,,,,,,,,,,,,,,,,,,,,,,,,,,,,,,,,,,,,,,,,,,,,,,,,,,,,,,,,,,,,,,,,,,,,78.0,78.0,57.0,133.0,133.0,57.0,4.0,4.2,-202,-3,0,-267,191,-10,63.585625886917114,63.58575940132141,63.58911871910095,63.599889516830444,63.74786925315857,63.74786925315857,63.74786925315857,63.74786925315857,63.74786925315857,63.74786925315857,63.74786925315857,65.23207187652588,1,1.6294043064117432,None,,,,,,,,,,,,,,,,,,47,6,2025-02-19_13h00.42.127,comp,2024.2.4,57.63124447809306,2025-02-19 13h00.49.188697 -0500,
23,23,0,filler_random,None,None,None,None,None,None,None,None,None,None,2,1.4694104194641113,None,,,,,0,0,0,0,0,23,23,152,65.2478015422821,,,,,,,,,,,,,,,,,,,,,,,,,,,,,,,,,,,,,,,,,,,,,,,,,,,,,,,,,,,,,,,,,,,,,,,,,,,,,,,,,146.05985808546401,105.04847766711008,128.24665143062975,175.83727361007652,109.92886609757178,195.1440688759895,4.0,4.2,-236,-13,0,-253,281,-7,65.23372793197632,65.23380422592163,65.23727083206177,65.2478015422821,65.39907789230347,65.39907789230347,65.39907789230347,65.39907789230347,65.39907789230347,65.39907789230347,65.39907789230347,66.73385787010193,2,1.4694104194641113,None,,,,,,,,,,,,,,,,,,47,6,2025-02-19_13h00.42.127,comp,2024.2.4,57.63124447809306,2025-02-19 13h00.49.188697 -0500,
24,24,0,critical,hwd,35.0,2.1,lower,133.0,57.0,57.0,133.0,70.0,70.0,1,1.960172414779663,None,,,,,0,0,0,0,0,24,24,16,66.74930453300476,,,,,,,,,,,,,,,,,,,,,,,,,,,,,,,,,,,,,,,,,,,,,,,,,,,,,,,,,,,,,,,,,,,,,,,,,,,,,,,,,133.0,57.0,57.0,133.0,70.0,70.0,2.1,2.11,-191,263,0,260,198,-270,66.73542928695679,66.73553442955017,66.7385413646698,66.74930453300476,66.88992738723755,66.88992738723755,66.88992738723755,66.88992738723755,66.88992738723755,66.88992738723755,66.88992738723755,68.71927261352539,1,1.960172414779663,None,,,,,,,,,,,,,,,,,,47,6,2025-02-19_13h00.42.127,comp,2024.2.4,57.63124447809306,2025-02-19 13h00.49.188697 -0500,
25,25,0,critical,dwh,20.0,3.0,upper,141.0,141.0,125.0,200.0,200.0,125.0,3,2.124563694000244,None,,,,,0,0,0,0,0,25,25,69,68.73757433891296,,,,,,,,,,,,,,,,,,,,,,,,,,,,,,,,,,,,,,,,,,,,,,,,,,,,,,,,,,,,,,,,,,,,,,,,,,,,,,,,,141.0,141.0,125.0,200.0,200.0,125.0,3.0,3.1,-266,260,0,-16,258,-289,68.72092390060425,68.7210009098053,68.72410845756531,68.73757433891296,68.88320064544678,68.88320064544678,68.88320064544678,68.88320064544678,68.88320064544678,68.88320064544678,68.88320064544678,70.86404728889465,3,2.124563694000244,None,,,,,,,,,,,,,,,,,,47,6,2025-02-19_13h00.42.127,comp,2024.2.4,57.63124447809306,2025-02-19 13h00.49.188697 -0500,
26,26,0,filler_square,None,None,None,None,None,None,None,None,None,None,1,0.9494881629943848,None,,,,,0,0,0,0,0,26,26,181,70.88025283813477,,,,,,,,,,,,,,,,,,,,,,,,,,,,,,,,,,,,,,,,,,,,,,,,,,,,,,,,,,,,,,,,,,,,,,,,,,,,,,,,,121.95614315716614,121.95614315716614,119.73519583227491,80.98563181822375,108.77751113882329,117.44828882355986,2.1,2.12,-197,-264,0,-283,195,276,70.86607217788696,70.86615419387817,70.8693356513977,70.88025283813477,71.03284764289856,71.03284764289856,71.03284764289856,71.03284764289856,71.03284764289856,71.03284764289856,71.03284764289856,71.83513355255127,1,0.9494881629943848,None,,,,,,,,,,,,,,,,,,47,6,2025-02-19_13h00.42.127,comp,2024.2.4,57.63124447809306,2025-02-19 13h00.49.188697 -0500,
27,27,0,critical,hwd,35.0,4.0,upper,200.0,125.0,125.0,200.0,127.0,127.0,2,1.4186573028564453,None,,,,,0,0,0,0,0,27,27,101,71.85069489479065,,,,,,,,,,,,,,,,,,,,,,,,,,,,,,,,,,,,,,,,,,,,,,,,,,,,,,,,,,,,,,,,,,,,,,,,,,,,,,,,,200.0,125.0,125.0,200.0,127.0,127.0,4.0,4.2,-258,-13,0,-255,260,-8,71.83663129806519,71.83672857284546,71.83992505073547,71.85069489479065,72.00016069412231,72.00016069412231,72.00016069412231,72.00016069412231,72.00016069412231,72.00016069412231,72.00016069412231,73.28468489646912,2,1.4186573028564453,None,,,,,,,,,,,,,,,,,,47,6,2025-02-19_13h00.42.127,comp,2024.2.4,57.63124447809306,2025-02-19 13h00.49.188697 -0500,
28,28,0,filler_square,None,None,None,None,None,None,None,None,None,None,3,0.6727721691131592,None,,,,,0,0,0,0,0,28,28,184,73.30050873756409,,,,,,,,,,,,,,,,,,,,,,,,,,,,,,,,,,,,,,,,,,,,,,,,,,,,,,,,,,,,,,,,,,,,,,,,,,,,,,,,,137.77590938488532,62.0107319947092,120.36595969126968,76.98517887384104,146.71161115021613,146.71161115021613,3.0,3.2,-165,-290,0,10,208,265,73.28640913963318,73.28650641441345,73.28986549377441,73.30050873756409,73.45612931251526,73.45612931251526,73.45612931251526,73.45612931251526,73.45612931251526,73.45612931251526,73.45612931251526,73.97900390625,3,0.6727721691131592,None,,,,,,,,,,,,,,,,,,47,6,2025-02-19_13h00.42.127,comp,2024.2.4,57.63124447809306,2025-02-19 13h00.49.188697 -0500,
29,29,0,critical,whd,20.0,4.0,upper,125.0,200.0,200.0,125.0,141.0,141.0,1,0.7781901359558105,None,,,,,0,0,0,0,0,29,29,95,73.99658942222595,,,,,,,,,,,,,,,,,,,,,,,,,,,,,,,,,,,,,,,,,,,,,,,,,,,,,,,,,,,,,,,,,,,,,,,,,,,,,,,,,125.0,200.0,200.0,125.0,141.0,141.0,4.0,4.2,-258,5,0,-263,229,20,73.98057055473328,73.98064923286438,73.98364901542664,73.99658942222595,74.13829469680786,74.13829469680786,74.13829469680786,74.13829469680786,74.13829469680786,74.13829469680786,74.13829469680786,74.78566336631775,1,0.7781901359558105,None,,,,,,,,,,,,,,,,,,47,6,2025-02-19_13h00.42.127,comp,2024.2.4,57.63124447809306,2025-02-19 13h00.49.188697 -0500,
30,30,0,critical,wdh,35.0,2.1,lower,57.0,133.0,70.0,70.0,133.0,57.0,3,1.3243653774261475,None,,,,,0,0,0,0,0,30,30,32,74.8012068271637,,,,,,,,,,,,,,,,,,,,,,,,,,,,,,,,,,,,,,,,,,,,,,,,,,,,,,,,,,,,,,,,,,,,,,,,,,,,,,,,,57.0,133.0,70.0,70.0,133.0,57.0,2.1,2.12,-198,-277,0,-261,160,282,74.78721690177917,74.78729319572449,74.79070496559143,74.8012068271637,74.94064283370972,74.94064283370972,74.94064283370972,74.94064283370972,74.94064283370972,74.94064283370972,74.94064283370972,76.13467502593994,3,1.3243653774261475,None,,,,,,,,,,,,,,,,,,47,6,2025-02-19_13h00.42.127,comp,2024.2.4,57.63124447809306,2025-02-19 13h00.49.188697 -0500,
31,31,0,critical,hdw,20.0,3.0,lower,133.0,57.0,78.0,78.0,57.0,133.0,1,1.1348752975463867,None,,,,,0,0,0,0,0,31,31,116,76.15030431747437,,,,,,,,,,,,,,,,,,,,,,,,,,,,,,,,,,,,,,,,,,,,,,,,,,,,,,,,,,,,,,,,,,,,,,,,,,,,,,,,,133.0,57.0,78.0,78.0,57.0,133.0,3.0,3.2,-164,-269,0,-14,202,285,76.1361951828003,76.13626956939697,76.13943696022034,76.15030431747437,76.30317378044128,76.30317378044128,76.30317378044128,76.30317378044128,76.30317378044128,76.30317378044128,76.30317378044128,77.30189490318298,1,1.1348752975463867,None,,,,,,,,,,,,,,,,,,47,6,2025-02-19_13h00.42.127,comp,2024.2.4,57.63124447809306,2025-02-19 13h00.49.188697 -0500,
32,32,0,critical,whd,35.0,2.1,upper,125.0,200.0,200.0,125.0,127.0,127.0,2,0.02136087417602539,None,,,,,0,0,0,0,0,32,32,13,77.3205726146698,,,,,,,,,,,,,,,,,,,,,,,,,,,,,,,,,,,,,,,,,,,,,,,,,,,,,,,,,,,,,,,,,,,,,,,,,,,,,,,,,125.0,200.0,200.0,125.0,127.0,127.0,2.1,2.12,-258,-261,0,-271,222,262,77.30337929725647,77.30345129966736,77.30653047561646,77.3205726146698,,,,,,,,77.35278654098511,2,0.02136087417602539,None,,,,,,,,,,,,,,,,,,47,6,2025-02-19_13h00.42.127,comp,2024.2.4,57.63124447809306,2025-02-19 13h00.49.188697 -0500,
33,33,0,critical,hdw,20.0,4.0,upper,200.0,125.0,141.0,141.0,125.0,200.0,3,1.4593524932861328,None,,,,,0,0,0,0,0,33,33,119,77.37058019638062,,,,,,,,,,,,,,,,,,,,,,,,,,,,,,,,,,,,,,,,,,,,,,,,,,,,,,,,,,,,,,,,,,,,,,,,,,,,,,,,,200.0,125.0,141.0,141.0,125.0,200.0,4.0,4.2,-229,-10,0,-286,266,2,77.35428142547607,77.35435724258423,77.35778498649597,77.37058019638062,77.51927900314331,77.51927900314331,77.51927900314331,77.51927900314331,77.51927900314331,77.51927900314331,77.51927900314331,78.8365249633789,3,1.4593524932861328,None,,,,,,,,,,,,,,,,,,47,6,2025-02-19_13h00.42.127,comp,2024.2.4,57.63124447809306,2025-02-19 13h00.49.188697 -0500,
34,34,0,filler_square,None,None,None,None,None,None,None,None,None,None,3,1.0572998523712158,None,,,,,0,0,0,0,0,34,34,188,78.8525493144989,,,,,,,,,,,,,,,,,,,,,,,,,,,,,,,,,,,,,,,,,,,,,,,,,,,,,,,,,,,,,,,,,,,,,,,,,,,,,,,,,61.65808010943498,60.75067684083921,104.61397761995988,102.29213860528657,106.91630527431084,106.91630527431084,4.0,4.2,-178,-15,0,-280,201,9,78.83831334114075,78.83839082717896,78.84173965454102,78.8525493144989,79.00555157661438,79.00555157661438,79.00555157661438,79.00555157661438,79.00555157661438,79.00555157661438,79.00555157661438,79.92108917236328,3,1.0572998523712158,None,,,,,,,,,,,,,,,,,,47,6,2025-02-19_13h00.42.127,comp,2024.2.4,57.63124447809306,2025-02-19 13h00.49.188697 -0500,
35,35,0,critical,hwd,20.0,2.1,upper,200.0,125.0,125.0,200.0,141.0,141.0,1,1.2525525093078613,None,,,,,0,0,0,0,0,35,35,43,79.93669533729553,,,,,,,,,,,,,,,,,,,,,,,,,,,,,,,,,,,,,,,,,,,,,,,,,,,,,,,,,,,,,,,,,,,,,,,,,,,,,,,,,200.0,125.0,125.0,200.0,141.0,141.0,2.1,2.12,-258,-274,0,-274,266,287,79.92263793945312,79.92273950576782,79.92617464065552,79.93669533729553,80.08624982833862,80.08624982833862,80.08624982833862,80.08624982833862,80.08624982833862,80.08624982833862,80.08624982833862,81.20426821708679,1,1.2525525093078613,None,,,,,,,,,,,,,,,,,,47,6,2025-02-19_13h00.42.127,comp,2024.2.4,57.63124447809306,2025-02-19 13h00.49.188697 -0500,
36,36,0,critical,dhw,20.0,2.1,lower,78.0,78.0,133.0,57.0,57.0,133.0,2,1.8009326457977295,None,,,,,0,0,0,0,0,36,36,2,81.22037696838379,,,,,,,,,,,,,,,,,,,,,,,,,,,,,,,,,,,,,,,,,,,,,,,,,,,,,,,,,,,,,,,,,,,,,,,,,,,,,,,,,78.0,78.0,133.0,57.0,57.0,133.0,2.1,2.12,-164,-275,0,-254,191,255,81.20586395263672,81.2059371471405,81.2092080116272,81.22037696838379,81.37055969238281,81.37055969238281,81.37055969238281,81.37055969238281,81.37055969238281,81.37055969238281,81.37055969238281,83.0390408039093,2,1.8009326457977295,None,,,,,,,,,,,,,,,,,,47,6,2025-02-19_13h00.42.127,comp,2024.2.4,57.63124447809306,2025-02-19 13h00.49.188697 -0500,
37,37,0,catch,None,None,None,None,None,None,None,None,None,None,2,0.7366633415222168,None,,,,,0,0,0,0,0,37,37,127,83.06184506416321,,,,,,,,,,,,,,,,,,,,,,,,,,,,,,,,,,,,,,,,,,,,,,,,,,,,,,,,,,,,,,,,,,,,,,,,,,,,,,,,,113,77,130,195,97,93,3.0,3.1,-232,289,0,2,240,-262,83.04096698760986,83.04104232788086,83.04400134086609,83.06184506416321,83.20384454727173,83.20384454727173,83.20384454727173,83.20384454727173,83.20384454727173,83.20384454727173,83.20384454727173,83.8031096458435,2,0.7366633415222168,None,,,,,,,,,,,,,,,,,,47,6,2025-02-19_13h00.42.127,comp,2024.2.4,57.63124447809306,2025-02-19 13h00.49.188697 -0500,
38,38,0,filler_square,None,None,None,None,None,None,None,None,None,None,1,1.4659593105316162,None,,,,,0,0,0,0,0,38,38,179,83.82003116607666,,,,,,,,,,,,,,,,,,,,,,,,,,,,,,,,,,,,,,,,,,,,,,,,,,,,,,,,,,,,,,,,,,,,,,,,,,,,,,,,,77.36035762671952,77.36035762671952,73.61172265261789,65.25613787711457,67.69104760328,60.93188389216143,3.0,3.2,-167,-272,0,12,159,250,83.80510139465332,83.80517768859863,83.80835723876953,83.82003116607666,83.97493076324463,83.97493076324463,83.97493076324463,83.97493076324463,83.97493076324463,83.97493076324463,83.97493076324463,85.2934353351593,1,1.4659593105316162,None,,,,,,,,,,,,,,,,,,47,6,2025-02-19_13h00.42.127,comp,2024.2.4,57.63124447809306,2025-02-19 13h00.49.188697 -0500,
39,39,0,critical,whd,35.0,3.0,lower,57.0,133.0,133.0,57.0,70.0,70.0,1,1.8962554931640625,None,,,,,0,0,0,0,0,39,39,86,85.30900883674622,,,,,,,,,,,,,,,,,,,,,,,,,,,,,,,,,,,,,,,,,,,,,,,,,,,,,,,,,,,,,,,,,,,,,,,,,,,,,,,,,57.0,133.0,133.0,57.0,70.0,70.0,3.0,3.2,-191,-255,0,-5,160,250,85.2953109741211,85.29538822174072,85.29823517799377,85.30900883674622,85.4548008441925,85.4548008441925,85.4548008441925,85.4548008441925,85.4548008441925,85.4548008441925,85.4548008441925,87.22383093833923,1,1.8962554931640625,None,,,,,,,,,,,,,,,,,,47,6,2025-02-19_13h00.42.127,comp,2024.2.4,57.63124447809306,2025-02-19 13h00.49.188697 -0500,
40,40,0,critical,dwh,35.0,3.0,lower,70.0,70.0,57.0,133.0,133.0,57.0,3,1.022787094116211,None,,,,,0,0,0,0,0,40,40,62,87.23968505859375,,,,,,,,,,,,,,,,,,,,,,,,,,,,,,,,,,,,,,,,,,,,,,,,,,,,,,,,,,,,,,,,,,,,,,,,,,,,,,,,,70.0,70.0,57.0,133.0,133.0,57.0,3.0,3.1,-198,252,0,0,191,-287,87.22543573379517,87.22556734085083,87.22898602485657,87.23968505859375,87.3926432132721,87.3926432132721,87.3926432132721,87.3926432132721,87.3926432132721,87.3926432132721,87.3926432132721,88.27382922172546,3,1.022787094116211,None,,,,,,,,,,,,,,,,,,47,6,2025-02-19_13h00.42.127,comp,2024.2.4,57.63124447809306,2025-02-19 13h00.49.188697 -0500,
41,41,0,filler_square,None,None,None,None,None,None,None,None,None,None,3,1.027881383895874,None,,,,,0,0,0,0,0,41,41,203,88.29007887840271,,,,,,,,,,,,,,,,,,,,,,,,,,,,,,,,,,,,,,,,,,,,,,,,,,,,,,,,,,,,,,,,,,,,,,,,,,,,,,,,,128.04394074450818,84.61551119515937,110.84594358939187,178.4105041729183,182.73728192651961,182.73728192651961,1.0,1.2,-228,3,0,15,277,-1,88.27562499046326,88.27575492858887,88.27933502197266,88.29007887840271,88.43929934501648,88.43929934501648,88.43929934501648,88.43929934501648,88.43929934501648,88.43929934501648,88.43929934501648,89.3212411403656,3,1.027881383895874,None,,,,,,,,,,,,,,,,,,47,6,2025-02-19_13h00.42.127,comp,2024.2.4,57.63124447809306,2025-02-19 13h00.49.188697 -0500,
42,42,0,critical,dwh,20.0,2.1,upper,141.0,141.0,125.0,200.0,200.0,125.0,2,2.1717991828918457,None,,,,,0,0,0,0,0,42,42,7,89.33752679824829,,,,,,,,,,,,,,,,,,,,,,,,,,,,,,,,,,,,,,,,,,,,,,,,,,,,,,,,,,,,,,,,,,,,,,,,,,,,,,,,,141.0,141.0,125.0,200.0,200.0,125.0,2.1,2.12,-266,-253,0,-254,258,289,89.32276320457458,89.32283973693848,89.32568645477295,89.33752679824829,89.47310018539429,89.47310018539429,89.47310018539429,89.47310018539429,89.47310018539429,89.47310018539429,89.47310018539429,91.52321934700012,2,2.1717991828918457,None,,,,,,,,,,,,,,,,,,47,6,2025-02-19_13h00.42.127,comp,2024.2.4,57.63124447809306,2025-02-19 13h00.49.188697 -0500,
43,43,0,critical,wdh,35.0,2.1,lower,57.0,133.0,70.0,70.0,133.0,57.0,3,2.13126540184021,None,,,,,0,0,0,0,0,43,43,8,91.53860759735107,,,,,,,,,,,,,,,,,,,,,,,,,,,,,,,,,,,,,,,,,,,,,,,,,,,,,,,,,,,,,,,,,,,,,,,,,,,,,,,,,57.0,133.0,70.0,70.0,133.0,57.0,2.1,2.12,-198,-268,0,-278,160,286,91.52483415603638,91.52490735054016,91.52822208404541,91.53860759735107,91.68923258781433,91.68923258781433,91.68923258781433,91.68923258781433,91.68923258781433,91.68923258781433,91.68923258781433,93.67217993736267,3,2.13126540184021,None,,,,,,,,,,,,,,,,,,47,6,2025-02-19_13h00.42.127,comp,2024.2.4,57.63124447809306,2025-02-19 13h00.49.188697 -0500,
44,44,0,critical,hdw,35.0,1.0,upper,200.0,125.0,127.0,127.0,125.0,200.0,1,1.501084327697754,None,,,,,0,0,0,0,0,44,44,109,93.68810772895813,,,,,,,,,,,,,,,,,,,,,,,,,,,,,,,,,,,,,,,,,,,,,,,,,,,,,,,,,,,,,,,,,,,,,,,,,,,,,,,,,200.0,125.0,127.0,127.0,125.0,200.0,1.0,1.3,258,-256,480,-275,740,-287,93.67380499839783,93.6738817691803,93.67711877822876,93.68810772895813,93.8330454826355,93.8330454826355,93.8330454826355,93.8330454826355,93.8330454826355,93.8330454826355,93.8330454826355,95.19184017181396,1,1.501084327697754,None,,,,,,,,,,,,,,,,,,47,6,2025-02-19_13h00.42.127,comp,2024.2.4,57.63124447809306,2025-02-19 13h00.49.188697 -0500,
45,45,0,filler_square,None,None,None,None,None,None,None,None,None,None,3,0.9725964069366455,None,,,,,0,0,0,0,0,45,45,193,95.20934343338013,,,,,,,,,,,,,,,,,,,,,,,,,,,,,,,,,,,,,,,,,,,,,,,,,,,,,,,,,,,,,,,,,,,,,,,,,,,,,,,,,118.02043752128804,73.50861960432597,108.89210317902678,119.8421148530839,131.50069373098242,131.50069373098242,3.0,3.1,-193,287,0,-2,222,-258,95.19398641586304,95.19406652450562,95.19767880439758,95.20934343338013,95.35744905471802,95.35744905471802,95.35744905471802,95.35744905471802,95.35744905471802,95.35744905471802,95.35744905471802,96.19212341308594,3,0.9725964069366455,None,,,,,,,,,,,,,,,,,,47,6,2025-02-19_13h00.42.127,comp,2024.2.4,57.63124447809306,2025-02-19 13h00.49.188697 -0500,
46,46,0,catch,None,None,None,None,None,None,None,None,None,None,3,0.8930048942565918,None,,,,,0,0,0,0,0,46,46,120,96.20861053466797,,,,,,,,,,,,,,,,,,,,,,,,,,,,,,,,,,,,,,,,,,,,,,,,,,,,,,,,,,,,,,,,,,,,,,,,,,,,,,,,,130,60,90,100,168,157,2.2,2.22,-176,282,0,-268,224,-267,96.19429683685303,96.19437432289124,96.19798135757446,96.20861053466797,96.36241936683655,96.36241936683655,96.36241936683655,96.36241936683655,96.36241936683655,96.36241936683655,96.36241936683655,97.10985445976257,3,0.8930048942565918,None,,,,,,,,,,,,,,,,,,47,6,2025-02-19_13h00.42.127,comp,2024.2.4,57.63124447809306,2025-02-19 13h00.49.188697 -0500,
47,47,0,critical,hdw,35.0,4.0,upper,200.0,125.0,127.0,127.0,125.0,200.0,3,1.66451096534729,None,,,,,0,0,0,0,0,47,47,113,97.12553691864014,,,,,,,,,,,,,,,,,,,,,,,,,,,,,,,,,,,,,,,,,,,,,,,,,,,,,,,,,,,,,,,,,,,,,,,,,,,,,,,,,200.0,125.0,127.0,127.0,125.0,200.0,4.0,4.2,-222,14,0,-290,260,-2,97.11130785942078,97.11138153076172,97.11477565765381,97.12553691864014,97.27523231506348,97.27523231506348,97.27523231506348,97.27523231506348,97.27523231506348,97.27523231506348,97.27523231506348,98.79614043235779,3,1.66451096534729,None,,,,,,,,,,,,,,,,,,47,6,2025-02-19_13h00.42.127,comp,2024.2.4,57.63124447809306,2025-02-19 13h00.49.188697 -0500,
48,48,0,critical,hwd,20.0,3.0,upper,200.0,125.0,125.0,200.0,141.0,141.0,3,1.0714094638824463,None,,,,,0,0,0,0,0,48,48,105,98.81432795524597,,,,,,,,,,,,,,,,,,,,,,,,,,,,,,,,,,,,,,,,,,,,,,,,,,,,,,,,,,,,,,,,,,,,,,,,,,,,,,,,,200.0,125.0,125.0,200.0,141.0,141.0,3.0,3.2,-258,-268,0,-4,266,253,98.79782247543335,98.79792356491089,98.80122661590576,98.81432795524597,98.95130753517151,98.95130753517151,98.95130753517151,98.95130753517151,98.95130753517151,98.95130753517151,98.95130753517151,99.8939995765686,3,1.0714094638824463,None,,,,,,,,,,,,,,,,,,47,6,2025-02-19_13h00.42.127,comp,2024.2.4,57.63124447809306,2025-02-19 13h00.49.188697 -0500,
49,49,0,critical,hdw,35.0,2.1,lower,133.0,57.0,70.0,70.0,57.0,133.0,3,2.8083653450012207,None,,,,,0,0,0,0,0,49,49,20,99.91010475158691,,,,,,,,,,,,,,,,,,,,,,,,,,,,,,,,,,,,,,,,,,,,,,,,,,,,,,,,,,,,,,,,,,,,,,,,,,,,,,,,,133.0,57.0,70.0,70.0,57.0,133.0,2.1,2.11,-160,276,0,281,198,-264,99.8954405784607,99.89553666114807,99.89953231811523,99.91010475158691,100.06324458122253,100.06324458122253,100.06324458122253,100.06324458122253,100.06324458122253,100.06324458122253,100.06324458122253,102.72632074356079,3,2.8083653450012207,None,,,,,,,,,,,,,,,,,,47,6,2025-02-19_13h00.42.127,comp,2024.2.4,57.63124447809306,2025-02-19 13h00.49.188697 -0500,
50,50,0,critical,hdw,20.0,2.1,upper,200.0,125.0,141.0,141.0,125.0,200.0,3,1.1747312545776367,None,,,,,0,0,0,0,0,50,50,23,102.74249982833862,,,,,,,,,,,,,,,,,,,,,,,,,,,,,,,,,,,,,,,,,,,,,,,,,,,,,,,,,,,,,,,,,,,,,,,,,,,,,,,,,200.0,125.0,141.0,141.0,125.0,200.0,2.1,2.12,-229,-250,0,-267,266,260,102.72782397270203,102.72789812088013,102.7308669090271,102.74249982833862,102.89435744285583,102.89435744285583,102.89435744285583,102.89435744285583,102.89435744285583,102.89435744285583,102.89435744285583,103.93114376068115,3,1.1747312545776367,None,,,,,,,,,,,,,,,,,,47,6,2025-02-19_13h00.42.127,comp,2024.2.4,57.63124447809306,2025-02-19 13h00.49.188697 -0500,
51,51,0,filler_square,None,None,None,None,None,None,None,None,None,None,2,0.9345371723175049,None,,,,,0,0,0,0,0,51,51,196,103.9514262676239,,,,,,,,,,,,,,,,,,,,,,,,,,,,,,,,,,,,,,,,,,,,,,,,,,,,,,,,,,,,,,,,,,,,,,,,,,,,,,,,,128.97660318284298,133.59330059715012,152.21850433672705,152.21850433672705,124.10972920599022,141.86666337654464,1.0,1.1,-719,264,-480,271,-237,256,103.93329691886902,103.93342733383179,103.93642902374268,103.9514262676239,104.09313535690308,104.09313535690308,104.09313535690308,104.09313535690308,104.09313535690308,104.09313535690308,104.09313535690308,104.89371752738953,2,0.9345371723175049,None,,,,,,,,,,,,,,,,,,47,6,2025-02-19_13h00.42.127,comp,2024.2.4,57.63124447809306,2025-02-19 13h00.49.188697 -0500,
52,52,0,critical,dhw,20.0,1.0,upper,141.0,141.0,200.0,125.0,125.0,200.0,3,1.263516902923584,None,,,,,0,0,0,0,0,52,52,55,104.91006374359131,,,,,,,,,,,,,,,,,,,,,,,,,,,,,,,,,,,,,,,,,,,,,,,,,,,,,,,,,,,,,,,,,,,,,,,,,,,,,,,,,141.0,141.0,200.0,125.0,125.0,200.0,1.0,1.2,-229,14,0,0,258,-1,104.89520382881165,104.89527821540833,104.89864826202393,104.91006374359131,105.06167984008789,105.06167984008789,105.06167984008789,105.06167984008789,105.06167984008789,105.06167984008789,105.06167984008789,106.17743587493896,3,1.263516902923584,None,,,,,,,,,,,,,,,,,,47,6,2025-02-19_13h00.42.127,comp,2024.2.4,57.63124447809306,2025-02-19 13h00.49.188697 -0500,
53,53,0,filler_square,None,None,None,None,None,None,None,None,None,None,1,1.108238935470581,None,,,,,0,0,0,0,0,53,53,192,106.19377493858337,,,,,,,,,,,,,,,,,,,,,,,,,,,,,,,,,,,,,,,,,,,,,,,,,,,,,,,,,,,,,,,,,,,,,,,,,,,,,,,,,105.15449205571664,105.15449205571664,102.95122978550225,94.6353505358517,69.37387062828326,99.69072890845055,1.0,1.2,-196,-6,0,-12,193,6,106.17916083335876,106.17923545837402,106.18227434158325,106.19377493858337,106.34513449668884,106.34513449668884,106.34513449668884,106.34513449668884,106.34513449668884,106.34513449668884,106.34513449668884,107.3129255771637,1,1.108238935470581,None,,,,,,,,,,,,,,,,,,47,6,2025-02-19_13h00.42.127,comp,2024.2.4,57.63124447809306,2025-02-19 13h00.49.188697 -0500,
54,54,0,critical,whd,35.0,2.1,upper,125.0,200.0,200.0,125.0,127.0,127.0,2,1.2768073081970215,None,,,,,0,0,0,0,0,54,54,37,107.32853174209595,,,,,,,,,,,,,,,,,,,,,,,,,,,,,,,,,,,,,,,,,,,,,,,,,,,,,,,,,,,,,,,,,,,,,,,,,,,,,,,,,125.0,200.0,200.0,125.0,127.0,127.0,2.1,2.12,-258,-266,0,-264,222,287,107.31436920166016,107.31444478034973,107.31783127784729,107.32853174209595,107.47289562225342,107.47289562225342,107.47289562225342,107.47289562225342,107.47289562225342,107.47289562225342,107.47289562225342,108.62021946907043,2,1.2768073081970215,None,,,,,,,,,,,,,,,,,,47,6,2025-02-19_13h00.42.127,comp,2024.2.4,57.63124447809306,2025-02-19 13h00.49.188697 -0500,
55,55,0,critical,dhw,35.0,2.1,upper,127.0,127.0,200.0,125.0,125.0,200.0,3,1.1655616760253906,None,,,,,0,0,0,0,0,55,55,1,108.64033317565918,,,,,,,,,,,,,,,,,,,,,,,,,,,,,,,,,,,,,,,,,,,,,,,,,,,,,,,,,,,,,,,,,,,,,,,,,,,,,,,,,127.0,127.0,200.0,125.0,125.0,200.0,2.1,2.12,-222,-258,0,-254,258,250,108.62176966667175,108.62184476852417,108.62481451034546,108.64033317565918,108.77951526641846,108.77951526641846,108.77951526641846,108.77951526641846,108.77951526641846,108.77951526641846,108.77951526641846,109.81509256362915,3,1.1655616760253906,None,,,,,,,,,,,,,,,,,,47,6,2025-02-19_13h00.42.127,comp,2024.2.4,57.63124447809306,2025-02-19 13h00.49.188697 -0500,
56,56,0,filler_random,None,None,None,None,None,None,None,None,None,None,1,1.0386600494384766,None,,,,,0,0,0,0,0,56,56,142,109.83058428764343,,,,,,,,,,,,,,,,,,,,,,,,,,,,,,,,,,,,,,,,,,,,,,,,,,,,,,,,,,,,,,,,,,,,,,,,,,,,,,,,,88.6187901178866,101.41769607636263,72.21657517703946,59.80472943124991,81.94408364877411,58.13861553966298,4.0,4.1,-177,-273,0,-13,155,-272,109.81691670417786,109.81699633598328,109.81997680664062,109.83058428764343,109.97922921180725,109.97922921180725,109.97922921180725,109.97922921180725,109.97922921180725,109.97922921180725,109.97922921180725,110.88315868377686,1,1.0386600494384766,None,,,,,,,,,,,,,,,,,,47,6,2025-02-19_13h00.42.127,comp,2024.2.4,57.63124447809306,2025-02-19 13h00.49.188697 -0500,
57,57,0,critical,hdw,35.0,4.0,lower,133.0,57.0,70.0,70.0,57.0,133.0,3,1.8679933547973633,None,,,,,0,0,0,0,0,57,57,112,110.89746403694153,,,,,,,,,,,,,,,,,,,,,,,,,,,,,,,,,,,,,,,,,,,,,,,,,,,,,,,,,,,,,,,,,,,,,,,,,,,,,,,,,133.0,57.0,70.0,70.0,57.0,133.0,4.0,4.1,-160,-252,0,12,198,-275,110.88511109352112,110.88518762588501,110.8881254196167,110.89746403694153,111.05494618415833,111.05494618415833,111.05494618415833,111.05494618415833,111.05494618415833,111.05494618415833,111.05494618415833,112.78244233131409,3,1.8679933547973633,None,,,,,,,,,,,,,,,,,,47,6,2025-02-19_13h00.42.127,comp,2024.2.4,57.63124447809306,2025-02-19 13h00.49.188697 -0500,
58,58,0,filler_random,None,None,None,None,None,None,None,None,None,None,3,0.7990274429321289,None,,,,,0,0,0,0,0,58,58,141,112.7982587814331,,,,,,,,,,,,,,,,,,,,,,,,,,,,,,,,,,,,,,,,,,,,,,,,,,,,,,,,,,,,,,,,,,,,,,,,,,,,,,,,,94.50780091954796,75.52874583229718,84.57638089563713,101.34408022019244,136.24452995223933,178.97430426387726,2.1,2.12,-184,-288,0,-257,236,283,112.78430819511414,112.78444027900696,112.78791379928589,112.7982587814331,112.94657063484192,112.94657063484192,112.94657063484192,112.94657063484192,112.94657063484192,112.94657063484192,112.94657063484192,113.61488628387451,3,0.7990274429321289,None,,,,,,,,,,,,,,,,,,47,6,2025-02-19_13h00.42.127,comp,2024.2.4,57.63124447809306,2025-02-19 13h00.49.188697 -0500,
59,59,0,filler_square,None,None,None,None,None,None,None,None,None,None,3,4.0870442390441895,None,,,,,0,0,0,0,0,59,59,190,113.63032484054565,,,,,,,,,,,,,,,,,,,,,,,,,,,,,,,,,,,,,,,,,,,,,,,,,,,,,,,,,,,,,,,,,,,,,,,,,,,,,,,,,62.05018334007431,62.05018334007431,59.0994434022673,59.185260222534296,59.463746520730766,60.730090699724094,4.0,4.2,-157,2,0,-282,156,-19,113.61671996116638,113.61679553985596,113.62010383605957,113.63032484054565,113.78356695175171,113.78356695175171,113.78356695175171,113.78356695175171,113.78356695175171,113.78356695175171,113.78356695175171,117.73181629180908,3,4.0870442390441895,None,,,,,,,,,,,,,,,,,,47,6,2025-02-19_13h00.42.127,comp,2024.2.4,57.63124447809306,2025-02-19 13h00.49.188697 -0500,
60,60,0,filler_random,None,None,None,None,None,None,None,None,None,None,2,1.490624189376831,None,,,,,0,0,0,0,0,60,60,169,117.74727058410645,,,,,,,,,,,,,,,,,,,,,,,,,,,,,,,,,,,,,,,,,,,,,,,,,,,,,,,,,,,,,,,,,,,,,,,,,,,,,,,,,72.7735562864847,198.07130701575684,135.7470023385041,106.4562654020577,87.8421792363757,178.86616786313857,2.2,2.21,-248,-270,0,268,239,276,117.73363590240479,117.73371148109436,117.73703646659851,117.74727058410645,117.9001886844635,117.9001886844635,117.9001886844635,117.9001886844635,117.9001886844635,117.9001886844635,117.9001886844635,119.25309300422668,2,1.490624189376831,None,,,,,,,,,,,,,,,,,,47,6,2025-02-19_13h00.42.127,comp,2024.2.4,57.63124447809306,2025-02-19 13h00.49.188697 -0500,
61,61,0,critical,dhw,20.0,2.1,lower,78.0,78.0,133.0,57.0,57.0,133.0,3,1.6485130786895752,None,,,,,0,0,0,0,0,61,61,26,119.26926755905151,,,,,,,,,,,,,,,,,,,,,,,,,,,,,,,,,,,,,,,,,,,,,,,,,,,,,,,,,,,,,,,,,,,,,,,,,,,,,,,,,78.0,78.0,133.0,57.0,57.0,133.0,2.1,2.12,-164,-265,0,-265,191,264,119.25470900535583,119.25480628013611,119.25808477401733,119.26926755905151,119.41389966011047,119.41389966011047,119.41389966011047,119.41389966011047,119.41389966011047,119.41389966011047,119.41389966011047,120.93595170974731,3,1.6485130786895752,None,,,,,,,,,,,,,,,,,,47,6,2025-02-19_13h00.42.127,comp,2024.2.4,57.63124447809306,2025-02-19 13h00.49.188697 -0500,
62,62,0,filler_random,None,None,None,None,None,None,None,None,None,None,1,0.9904334545135498,None,,,,,0,0,0,0,0,62,62,139,120.95128297805786,,,,,,,,,,,,,,,,,,,,,,,,,,,,,,,,,,,,,,,,,,,,,,,,,,,,,,,,,,,,,,,,,,,,,,,,,,,,,,,,,130.58427790434934,168.90732586099512,94.24376247831685,96.69072325087596,156.13302142452352,60.49428003316031,2.1,2.12,-229,-287,0,-264,175,255,120.93776988983154,120.93784642219543,120.94106554985046,120.95128297805786,121.10206747055054,121.10206747055054,121.10206747055054,121.10206747055054,121.10206747055054,121.10206747055054,121.10206747055054,121.95017981529236,1,0.9904334545135498,None,,,,,,,,,,,,,,,,,,47,6,2025-02-19_13h00.42.127,comp,2024.2.4,57.63124447809306,2025-02-19 13h00.49.188697 -0500,
63,63,0,filler_random,None,None,None,None,None,None,None,None,None,None,2,0.7993688583374023,None,,,,,0,0,0,0,0,63,63,143,121.96637487411499,,,,,,,,,,,,,,,,,,,,,,,,,,,,,,,,,,,,,,,,,,,,,,,,,,,,,,,,,,,,,,,,,,,,,,,,,,,,,,,,,77.8563140726139,189.76480543051778,181.6078857226535,178.65931687444385,106.29996965782271,178.12145500129748,1.0,1.3,200,-274,480,-260,754,-286,121.95209288597107,121.95219135284424,121.9555766582489,121.96637487411499,122.11902332305908,122.11902332305908,122.11902332305908,122.11902332305908,122.11902332305908,122.11902332305908,122.11902332305908,122.7698187828064,2,0.7993688583374023,None,,,,,,,,,,,,,,,,,,47,6,2025-02-19_13h00.42.127,comp,2024.2.4,57.63124447809306,2025-02-19 13h00.49.188697 -0500,
64,64,0,critical,dwh,35.0,3.0,upper,127.0,127.0,125.0,200.0,200.0,125.0,3,1.0840175151824951,None,,,,,0,0,0,0,0,64,64,63,122.78530645370483,,,,,,,,,,,,,,,,,,,,,,,,,,,,,,,,,,,,,,,,,,,,,,,,,,,,,,,,,,,,,,,,,,,,,,,,,,,,,,,,,127.0,127.0,125.0,200.0,200.0,125.0,3.0,3.1,-260,273,0,-12,258,-280,122.77171301841736,122.77179503440857,122.774742603302,122.78530645370483,122.93374228477478,122.93374228477478,122.93374228477478,122.93374228477478,122.93374228477478,122.93374228477478,122.93374228477478,123.88384747505188,3,1.0840175151824951,None,,,,,,,,,,,,,,,,,,47,6,2025-02-19_13h00.42.127,comp,2024.2.4,57.63124447809306,2025-02-19 13h00.49.188697 -0500,
65,65,0,critical,dhw,35.0,1.0,upper,127.0,127.0,200.0,125.0,125.0,200.0,3,1.4825685024261475,None,,,,,0,0,0,0,0,65,65,49,123.89938712120056,,,,,,,,,,,,,,,,,,,,,,,,,,,,,,,,,,,,,,,,,,,,,,,,,,,,,,,,,,,,,,,,,,,,,,,,,,,,,,,,,127.0,127.0,200.0,125.0,125.0,200.0,1.0,1.1,-702,284,-480,286,-222,261,123.88544297218323,123.88555264472961,123.88903498649597,123.89938712120056,124.05022239685059,124.05022239685059,124.05022239685059,124.05022239685059,124.05022239685059,124.05022239685059,124.05022239685059,125.38689613342285,3,1.4825685024261475,None,,,,,,,,,,,,,,,,,,47,6,2025-02-19_13h00.42.127,comp,2024.2.4,57.63124447809306,2025-02-19 13h00.49.188697 -0500,
66,66,0,critical,dwh,20.0,3.0,lower,78.0,78.0,57.0,133.0,133.0,57.0,2,1.3143010139465332,None,,,,,0,0,0,0,0,66,66,68,125.40300798416138,,,,,,,,,,,,,,,,,,,,,,,,,,,,,,,,,,,,,,,,,,,,,,,,,,,,,,,,,,,,,,,,,,,,,,,,,,,,,,,,,78.0,78.0,57.0,133.0,133.0,57.0,3.0,3.2,-202,-275,0,10,191,287,125.38845252990723,125.38855695724487,125.39159679412842,125.40300798416138,125.54982876777649,125.54982876777649,125.54982876777649,125.54982876777649,125.54982876777649,125.54982876777649,125.54982876777649,126.72025728225708,2,1.3143010139465332,None,,,,,,,,,,,,,,,,,,47,6,2025-02-19_13h00.42.127,comp,2024.2.4,57.63124447809306,2025-02-19 13h00.49.188697 -0500,
67,67,0,critical,whd,35.0,1.0,upper,125.0,200.0,200.0,125.0,127.0,127.0,1,1.624864101409912,None,,,,,0,0,0,0,0,67,67,85,126.74096393585205,,,,,,,,,,,,,,,,,,,,,,,,,,,,,,,,,,,,,,,,,,,,,,,,,,,,,,,,,,,,,,,,,,,,,,,,,,,,,,,,,125.0,200.0,200.0,125.0,127.0,127.0,1.0,1.1,-738,279,-480,264,-258,278,126.72176909446716,126.72186541557312,126.72527170181274,126.74096393585205,126.8848168849945,126.8848168849945,126.8848168849945,126.8848168849945,126.8848168849945,126.8848168849945,126.8848168849945,128.37261772155762,1,1.624864101409912,None,,,,,,,,,,,,,,,,,,47,6,2025-02-19_13h00.42.127,comp,2024.2.4,57.63124447809306,2025-02-19 13h00.49.188697 -0500,
68,68,0,filler_square,None,None,None,None,None,None,None,None,None,None,2,0.852370023727417,None,,,,,0,0,0,0,0,68,68,187,128.3933346271515,,,,,,,,,,,,,,,,,,,,,,,,,,,,,,,,,,,,,,,,,,,,,,,,,,,,,,,,,,,,,,,,,,,,,,,,,,,,,,,,,85.48239517037057,152.03248233157768,186.86597138585864,186.86597138585864,82.67657067061884,116.0744535304116,2.1,2.11,-265,260,0,273,247,-260,128.3744306564331,128.374582529068,128.37782526016235,128.3933346271515,128.53641033172607,128.53641033172607,128.53641033172607,128.53641033172607,128.53641033172607,128.53641033172607,128.53641033172607,129.2498016357422,2,0.852370023727417,None,,,,,,,,,,,,,,,,,,47,6,2025-02-19_13h00.42.127,comp,2024.2.4,57.63124447809306,2025-02-19 13h00.49.188697 -0500,
69,69,0,filler_square,None,None,None,None,None,None,None,None,None,None,1,1.2505860328674316,None,,,,,0,0,0,0,0,69,69,201,129.26666927337646,,,,,,,,,,,,,,,,,,,,,,,,,,,,,,,,,,,,,,,,,,,,,,,,,,,,,,,,,,,,,,,,,,,,,,,,,,,,,,,,,147.5118905607992,147.5118905607992,63.66826627414331,63.82084753308733,116.56982069525684,124.3396911228592,3.0,3.2,-202,-262,0,-6,190,268,129.25151801109314,129.25159358978271,129.25441598892212,129.26666927337646,129.41890120506287,129.41890120506287,129.41890120506287,129.41890120506287,129.41890120506287,129.41890120506287,129.41890120506287,130.51933193206787,1,1.2505860328674316,None,,,,,,,,,,,,,,,,,,47,6,2025-02-19_13h00.42.127,comp,2024.2.4,57.63124447809306,2025-02-19 13h00.49.188697 -0500,
70,70,0,filler_random,None,None,None,None,None,None,None,None,None,None,1,2.413828134536743,None,,,,,0,0,0,0,0,70,70,161,130.53553318977356,,,,,,,,,,,,,,,,,,,,,,,,,,,,,,,,,,,,,,,,,,,,,,,,,,,,,,,,,,,,,,,,,,,,,,,,,,,,,,,,,123.78841517405954,141.49877414282832,183.0666966552557,93.61176113180514,113.58835670513125,84.76658933813954,3.0,3.1,-214,279,0,-2,185,-283,130.52101063728333,130.52108907699585,130.52440881729126,130.53553318977356,130.68534231185913,130.68534231185913,130.68534231185913,130.68534231185913,130.68534231185913,130.68534231185913,130.68534231185913,132.9533703327179,1,2.413828134536743,None,,,,,,,,,,,,,,,,,,47,6,2025-02-19_13h00.42.127,comp,2024.2.4,57.63124447809306,2025-02-19 13h00.49.188697 -0500,
71,71,0,critical,whd,20.0,2.1,lower,57.0,133.0,133.0,57.0,78.0,78.0,2,0.028102397918701172,None,,,,,0,0,0,0,0,71,71,14,132.96968698501587,,,,,,,,,,,,,,,,,,,,,,,,,,,,,,,,,,,,,,,,,,,,,,,,,,,,,,,,,,,,,,,,,,,,,,,,,,,,,,,,,57.0,133.0,133.0,57.0,78.0,78.0,2.1,2.12,-191,-282,0,-256,164,251,132.9549798965454,132.9550576210022,132.9590449333191,132.96968698501587,,,,,,,,133.00357294082642,2,0.028102397918701172,None,,,,,,,,,,,,,,,,,,47,6,2025-02-19_13h00.42.127,comp,2024.2.4,57.63124447809306,2025-02-19 13h00.49.188697 -0500,
72,72,0,filler_square,None,None,None,None,None,None,None,None,None,None,3,0.9633958339691162,None,,,,,0,0,0,0,0,72,72,206,133.0180950164795,,,,,,,,,,,,,,,,,,,,,,,,,,,,,,,,,,,,,,,,,,,,,,,,,,,,,,,,,,,,,,,,,,,,,,,,,,,,,,,,,94.16180916153027,61.952536909265625,123.28510037180061,83.74141405137792,196.03419971437904,196.03419971437904,2.1,2.11,-169,280,0,281,236,-257,133.00532817840576,133.00540375709534,133.00879764556885,133.0180950164795,133.17219066619873,133.17219066619873,133.17219066619873,133.17219066619873,133.17219066619873,133.17219066619873,133.17219066619873,133.98750281333923,3,0.9633958339691162,None,,,,,,,,,,,,,,,,,,47,6,2025-02-19_13h00.42.127,comp,2024.2.4,57.63124447809306,2025-02-19 13h00.49.188697 -0500,
73,73,0,critical,hdw,20.0,1.0,lower,133.0,57.0,78.0,78.0,57.0,133.0,3,1.6129727363586426,None,,,,,0,0,0,0,0,73,73,114,134.00831127166748,,,,,,,,,,,,,,,,,,,,,,,,,,,,,,,,,,,,,,,,,,,,,,,,,,,,,,,,,,,,,,,,,,,,,,,,,,,,,,,,,133.0,57.0,78.0,78.0,57.0,133.0,1.0,1.3,316,-264,480,-288,682,-259,133.98911905288696,133.98919367790222,133.99276542663574,134.00831127166748,134.1545765399933,134.1545765399933,134.1545765399933,134.1545765399933,134.1545765399933,134.1545765399933,134.1545765399933,135.6376712322235,3,1.6129727363586426,None,,,,,,,,,,,,,,,,,,47,6,2025-02-19_13h00.42.127,comp,2024.2.4,57.63124447809306,2025-02-19 13h00.49.188697 -0500,
74,74,0,critical,wdh,20.0,2.1,lower,57.0,133.0,78.0,78.0,133.0,57.0,1,1.696826696395874,None,,,,,0,0,0,0,0,74,74,10,135.65283346176147,,,,,,,,,,,,,,,,,,,,,,,,,,,,,,,,,,,,,,,,,,,,,,,,,,,,,,,,,,,,,,,,,,,,,,,,,,,,,,,,,57.0,133.0,78.0,78.0,133.0,57.0,2.1,2.12,-202,-266,0,-269,164,259,135.6391773223877,135.6392514705658,135.64261150360107,135.65283346176147,135.80137991905212,135.80137991905212,135.80137991905212,135.80137991905212,135.80137991905212,135.80137991905212,135.80137991905212,137.35723209381104,1,1.696826696395874,None,,,,,,,,,,,,,,,,,,47,6,2025-02-19_13h00.42.127,comp,2024.2.4,57.63124447809306,2025-02-19 13h00.49.188697 -0500,
75,75,0,catch,None,None,None,None,None,None,None,None,None,None,3,0.8448207378387451,None,,,,,0,0,0,0,0,75,75,123,137.37641835212708,,,,,,,,,,,,,,,,,,,,,,,,,,,,,,,,,,,,,,,,,,,,,,,,,,,,,,,,,,,,,,,,,,,,,,,,,,,,,,,,,93,97,118,72,184,141,2.1,2.12,-180,-274,0,-281,202,264,137.35934948921204,137.35944771766663,137.36245703697205,137.37641835212708,137.5233256816864,137.5233256816864,137.5233256816864,137.5233256816864,137.5233256816864,137.5233256816864,137.5233256816864,138.2383131980896,3,0.8448207378387451,None,,,,,,,,,,,,,,,,,,47,6,2025-02-19_13h00.42.127,comp,2024.2.4,57.63124447809306,2025-02-19 13h00.49.188697 -0500,
76,76,0,critical,whd,35.0,4.0,lower,57.0,133.0,133.0,57.0,70.0,70.0,1,1.559736967086792,None,,,,,0,0,0,0,0,76,76,88,138.25357222557068,,,,,,,,,,,,,,,,,,,,,,,,,,,,,,,,,,,,,,,,,,,,,,,,,,,,,,,,,,,,,,,,,,,,,,,,,,,,,,,,,57.0,133.0,133.0,57.0,70.0,70.0,4.0,4.1,-191,-271,0,-16,160,-268,138.23981070518494,138.23988437652588,138.24327516555786,138.25357222557068,138.41218638420105,138.41218638420105,138.41218638420105,138.41218638420105,138.41218638420105,138.41218638420105,138.41218638420105,139.82759356498718,1,1.559736967086792,None,,,,,,,,,,,,,,,,,,47,6,2025-02-19_13h00.42.127,comp,2024.2.4,57.63124447809306,2025-02-19 13h00.49.188697 -0500,
77,77,0,critical,hwd,35.0,2.1,upper,200.0,125.0,125.0,200.0,127.0,127.0,2,2.410991907119751,None,,,,,0,0,0,0,0,77,77,41,139.84230256080627,,,,,,,,,,,,,,,,,,,,,,,,,,,,,,,,,,,,,,,,,,,,,,,,,,,,,,,,,,,,,,,,,,,,,,,,,,,,,,,,,200.0,125.0,125.0,200.0,127.0,127.0,2.1,2.12,-258,-257,0,-283,260,257,139.8290810585022,139.82915925979614,139.8321077823639,139.84230256080627,139.9889531135559,139.9889531135559,139.9889531135559,139.9889531135559,139.9889531135559,139.9889531135559,139.9889531135559,142.2567801475525,2,2.410991907119751,None,,,,,,,,,,,,,,,,,,47,6,2025-02-19_13h00.42.127,comp,2024.2.4,57.63124447809306,2025-02-19 13h00.49.188697 -0500,
78,78,0,critical,hwd,35.0,3.0,lower,133.0,57.0,57.0,133.0,70.0,70.0,1,2.2041854858398438,None,,,,,0,0,0,0,0,78,78,98,142.27316999435425,,,,,,,,,,,,,,,,,,,,,,,,,,,,,,,,,,,,,,,,,,,,,,,,,,,,,,,,,,,,,,,,,,,,,,,,,,,,,,,,,133.0,57.0,57.0,133.0,70.0,70.0,3.0,3.2,-191,-288,0,20,198,254,142.25836205482483,142.25843739509583,142.26250219345093,142.27316999435425,142.42704486846924,142.42704486846924,142.42704486846924,142.42704486846924,142.42704486846924,142.42704486846924,142.42704486846924,144.49019193649292,1,2.2041854858398438,None,,,,,,,,,,,,,,,,,,47,6,2025-02-19_13h00.42.127,comp,2024.2.4,57.63124447809306,2025-02-19 13h00.49.188697 -0500,
79,79,0,filler_square,None,None,None,None,None,None,None,None,None,None,3,4.874837875366211,None,,,,,0,0,0,0,0,79,79,177,144.5078399181366,,,,,,,,,,,,,,,,,,,,,,,,,,,,,,,,,,,,,,,,,,,,,,,,,,,,,,,,,,,,,,,,,,,,,,,,,,,,,,,,,69.60538412993647,69.60538412993647,64.03559281285314,58.86365566005612,68.51104120516949,69.47461660423477,4.0,4.2,-160,-11,0,-267,160,11,144.49197268486023,144.49205112457275,144.49526572227478,144.5078399181366,144.65862345695496,144.65862345695496,144.65862345695496,144.65862345695496,144.65862345695496,144.65862345695496,144.65862345695496,149.39383912086487,3,4.874837875366211,None,,,,,,,,,,,,,,,,,,47,6,2025-02-19_13h00.42.127,comp,2024.2.4,57.63124447809306,2025-02-19 13h00.49.188697 -0500,
80,80,0,critical,hwd,35.0,2.1,upper,200.0,125.0,125.0,200.0,127.0,127.0,1,1.3317899703979492,None,,,,,0,0,0,0,0,80,80,17,149.4098334312439,,,,,,,,,,,,,,,,,,,,,,,,,,,,,,,,,,,,,,,,,,,,,,,,,,,,,,,,,,,,,,,,,,,,,,,,,,,,,,,,,200.0,125.0,125.0,200.0,127.0,127.0,2.1,2.12,-258,-268,0,-255,260,269,149.39555144309998,149.3956277370453,149.39906215667725,149.4098334312439,149.55849766731262,149.55849766731262,149.55849766731262,149.55849766731262,149.55849766731262,149.55849766731262,149.55849766731262,150.7589225769043,1,1.3317899703979492,None,,,,,,,,,,,,,,,,,,47,6,2025-02-19_13h00.42.127,comp,2024.2.4,57.63124447809306,2025-02-19 13h00.49.188697 -0500,
81,81,0,filler_square,None,None,None,None,None,None,None,None,None,None,1,1.0240192413330078,None,,,,,0,0,0,0,0,81,81,176,150.77516150474548,,,,,,,,,,,,,,,,,,,,,,,,,,,,,,,,,,,,,,,,,,,,,,,,,,,,,,,,,,,,,,,,,,,,,,,,,,,,,,,,,144.6959439720226,144.6959439720226,95.43753248363004,95.71317905029804,109.2333475057735,133.03639061400034,2.2,2.22,-216,255,0,-252,210,-275,150.7606291770935,150.76070380210876,150.7641339302063,150.77516150474548,150.9261875152588,150.9261875152588,150.9261875152588,150.9261875152588,150.9261875152588,150.9261875152588,150.9261875152588,151.80967497825623,1,1.0240192413330078,None,,,,,,,,,,,,,,,,,,47,6,2025-02-19_13h00.42.127,comp,2024.2.4,57.63124447809306,2025-02-19 13h00.49.188697 -0500,
82,82,0,filler_square,None,None,None,None,None,None,None,None,None,None,2,1.1961352825164795,None,,,,,0,0,0,0,0,82,82,204,151.82559061050415,,,,,,,,,,,,,,,,,,,,,,,,,,,,,,,,,,,,,,,,,,,,,,,,,,,,,,,,,,,,,,,,,,,,,,,,,,,,,,,,,106.33693576443605,73.25149190961247,123.56242290805127,123.56242290805127,92.62626657112071,88.01637035102274,2.2,2.22,-194,282,0,-275,202,-257,151.81143760681152,151.81154894828796,151.8149757385254,151.82559061050415,151.97407984733582,151.97407984733582,151.97407984733582,151.97407984733582,151.97407984733582,151.97407984733582,151.97407984733582,153.02556467056274,2,1.1961352825164795,None,,,,,,,,,,,,,,,,,,47,6,2025-02-19_13h00.42.127,comp,2024.2.4,57.63124447809306,2025-02-19 13h00.49.188697 -0500,
83,83,0,filler_random,None,None,None,None,None,None,None,None,None,None,3,0.8680160045623779,None,,,,,0,0,0,0,0,83,83,163,153.0416977405548,,,,,,,,,,,,,,,,,,,,,,,,,,,,,,,,,,,,,,,,,,,,,,,,,,,,,,,,,,,,,,,,,,,,,,,,,,,,,,,,,126.02740331210443,133.18407611224853,89.8490001886135,134.36040689321374,186.3824398161379,126.37686779388078,4.0,4.1,-230,-277,0,-9,226,-286,153.02722191810608,153.0272970199585,153.0303294658661,153.0416977405548,153.1926474571228,153.1926474571228,153.1926474571228,153.1926474571228,153.1926474571228,153.1926474571228,153.1926474571228,153.91403937339783,3,0.8680160045623779,None,,,,,,,,,,,,,,,,,,47,6,2025-02-19_13h00.42.127,comp,2024.2.4,57.63124447809306,2025-02-19 13h00.49.188697 -0500,
84,84,0,critical,dhw,35.0,4.0,lower,70.0,70.0,133.0,57.0,57.0,133.0,3,1.6186435222625732,None,,,,,0,0,0,0,0,84,84,52,153.9316098690033,,,,,,,,,,,,,,,,,,,,,,,,,,,,,,,,,,,,,,,,,,,,,,,,,,,,,,,,,,,,,,,,,,,,,,,,,,,,,,,,,70.0,70.0,133.0,57.0,57.0,133.0,4.0,4.1,-160,-266,0,12,191,-278,153.91565585136414,153.91578269004822,153.91869568824768,153.9316098690033,154.0818326473236,154.0818326473236,154.0818326473236,154.0818326473236,154.0818326473236,154.0818326473236,154.0818326473236,155.56133723258972,3,1.6186435222625732,None,,,,,,,,,,,,,,,,,,47,6,2025-02-19_13h00.42.127,comp,2024.2.4,57.63124447809306,2025-02-19 13h00.49.188697 -0500,
85,85,0,filler_square,None,None,None,None,None,None,None,None,None,None,3,0.89186692237854,None,,,,,0,0,0,0,0,85,85,182,155.57807517051697,,,,,,,,,,,,,,,,,,,,,,,,,,,,,,,,,,,,,,,,,,,,,,,,,,,,,,,,,,,,,,,,,,,,,,,,,,,,,,,,,83.23986813019,89.20127828532122,64.37911973815048,94.50825635783556,94.97199225452371,94.97199225452371,4.0,4.1,-188,-282,0,-18,191,-267,155.56340503692627,155.56351852416992,155.56740975379944,155.57807517051697,155.7256624698639,155.7256624698639,155.7256624698639,155.7256624698639,155.7256624698639,155.7256624698639,155.7256624698639,156.47753953933716,3,0.89186692237854,None,,,,,,,,,,,,,,,,,,47,6,2025-02-19_13h00.42.127,comp,2024.2.4,57.63124447809306,2025-02-19 13h00.49.188697 -0500,
86,86,0,filler_random,None,None,None,None,None,None,None,None,None,None,3,2.1437361240386963,None,,,,,0,0,0,0,0,86,86,149,156.49413299560547,,,,,,,,,,,,,,,,,,,,,,,,,,,,,,,,,,,,,,,,,,,,,,,,,,,,,,,,,,,,,,,,,,,,,,,,,,,,,,,,,88.16151122435771,140.87136915501577,63.202009777697626,117.75564540711868,169.18168311555542,62.17951527266622,2.2,2.22,-225,267,0,-253,186,-263,156.47919535636902,156.47927021980286,156.48272490501404,156.49413299560547,156.6431529521942,156.6431529521942,156.6431529521942,156.6431529521942,156.6431529521942,156.6431529521942,156.6431529521942,158.6429581642151,3,2.1437361240386963,None,,,,,,,,,,,,,,,,,,47,6,2025-02-19_13h00.42.127,comp,2024.2.4,57.63124447809306,2025-02-19 13h00.49.188697 -0500,
87,87,0,critical,whd,20.0,3.0,upper,125.0,200.0,200.0,125.0,141.0,141.0,1,1.4897706508636475,None,,,,,0,0,0,0,0,87,87,93,158.6595802307129,,,,,,,,,,,,,,,,,,,,,,,,,,,,,,,,,,,,,,,,,,,,,,,,,,,,,,,,,,,,,,,,,,,,,,,,,,,,,,,,,125.0,200.0,200.0,125.0,141.0,141.0,3.0,3.2,-258,-275,0,-14,229,288,158.64453506469727,158.64460945129395,158.6478979587555,158.6595802307129,158.81497383117676,158.81497383117676,158.81497383117676,158.81497383117676,158.81497383117676,158.81497383117676,158.81497383117676,160.16479587554932,1,1.4897706508636475,None,,,,,,,,,,,,,,,,,,47,6,2025-02-19_13h00.42.127,comp,2024.2.4,57.63124447809306,2025-02-19 13h00.49.188697 -0500,
88,88,0,filler_random,None,None,None,None,None,None,None,None,None,None,1,0.612654447555542,None,,,,,0,0,0,0,0,88,88,145,160.1847734451294,,,,,,,,,,,,,,,,,,,,,,,,,,,,,,,,,,,,,,,,,,,,,,,,,,,,,,,,,,,,,,,,,,,,,,,,,,,,,,,,,112.41371435865706,121.25480290902799,171.69881337274154,181.8129217483705,156.02236805069543,151.5232683516578,3.0,3.1,-248,255,0,-1,263,-279,160.1668815612793,160.16695928573608,160.17012095451355,160.1847734451294,160.33116626739502,160.33116626739502,160.33116626739502,160.33116626739502,160.33116626739502,160.33116626739502,160.33116626739502,160.81144380569458,1,0.612654447555542,None,,,,,,,,,,,,,,,,,,47,6,2025-02-19_13h00.42.127,comp,2024.2.4,57.63124447809306,2025-02-19 13h00.49.188697 -0500,
89,89,0,critical,wdh,35.0,4.0,upper,125.0,200.0,127.0,127.0,200.0,125.0,1,1.7824068069458008,None,,,,,0,0,0,0,0,89,89,77,160.83125257492065,,,,,,,,,,,,,,,,,,,,,,,,,,,,,,,,,,,,,,,,,,,,,,,,,,,,,,,,,,,,,,,,,,,,,,,,,,,,,,,,,125.0,200.0,127.0,127.0,200.0,125.0,4.0,4.2,-260,-5,0,-274,222,0,160.8129539489746,160.81302881240845,160.81620264053345,160.83125257492065,160.97903442382812,160.97903442382812,160.97903442382812,160.97903442382812,160.97903442382812,160.97903442382812,160.97903442382812,162.63041710853577,1,1.7824068069458008,None,,,,,,,,,,,,,,,,,,47,6,2025-02-19_13h00.42.127,comp,2024.2.4,57.63124447809306,2025-02-19 13h00.49.188697 -0500,
90,90,0,critical,whd,35.0,2.1,lower,57.0,133.0,133.0,57.0,70.0,70.0,2,1.7516562938690186,None,,,,,0,0,0,0,0,90,90,12,162.64593362808228,,,,,,,,,,,,,,,,,,,,,,,,,,,,,,,,,,,,,,,,,,,,,,,,,,,,,,,,,,,,,,,,,,,,,,,,,,,,,,,,,57.0,133.0,133.0,57.0,70.0,70.0,2.1,2.11,-191,279,0,277,160,-285,162.6320459842682,162.63212060928345,162.63562536239624,162.64593362808228,162.79652523994446,162.79652523994446,162.79652523994446,162.79652523994446,162.79652523994446,162.79652523994446,162.79652523994446,164.41313886642456,2,1.7516562938690186,None,,,,,,,,,,,,,,,,,,47,6,2025-02-19_13h00.42.127,comp,2024.2.4,57.63124447809306,2025-02-19 13h00.49.188697 -0500,
91,91,0,filler_random,None,None,None,None,None,None,None,None,None,None,3,1.1543655395507812,None,,,,,0,0,0,0,0,91,91,153,164.42696905136108,,,,,,,,,,,,,,,,,,,,,,,,,,,,,,,,,,,,,,,,,,,,,,,,,,,,,,,,,,,,,,,,,,,,,,,,,,,,,,,,,91.32182456985994,186.37181570220375,136.0834092962055,135.43396818851954,138.32691395216227,182.031482444037,4.0,4.1,-257,-284,0,-1,255,-270,164.41479873657227,164.4148736000061,164.41803622245789,164.42696905136108,164.58481979370117,164.58481979370117,164.58481979370117,164.58481979370117,164.58481979370117,164.58481979370117,164.58481979370117,165.59624862670898,3,1.1543655395507812,None,,,,,,,,,,,,,,,,,,47,6,2025-02-19_13h00.42.127,comp,2024.2.4,57.63124447809306,2025-02-19 13h00.49.188697 -0500,
92,92,0,filler_random,None,None,None,None,None,None,None,None,None,None,1,0.7783515453338623,None,,,,,0,0,0,0,0,92,92,133,165.61926531791687,,,,,,,,,,,,,,,,,,,,,,,,,,,,,,,,,,,,,,,,,,,,,,,,,,,,,,,,,,,,,,,,,,,,,,,,,,,,,,,,,141.09068487434232,182.13547815056936,108.8927156329879,60.15908507852353,63.986284897334116,183.00260593120694,2.1,2.11,-217,280,0,275,218,-286,165.5978810787201,165.5979552268982,165.6009681224823,165.61926531791687,165.76301956176758,165.76301956176758,165.76301956176758,165.76301956176758,165.76301956176758,165.76301956176758,165.76301956176758,166.4128062725067,1,0.7783515453338623,None,,,,,,,,,,,,,,,,,,47,6,2025-02-19_13h00.42.127,comp,2024.2.4,57.63124447809306,2025-02-19 13h00.49.188697 -0500,
93,93,0,critical,hwd,20.0,2.1,lower,133.0,57.0,57.0,133.0,78.0,78.0,2,2.0005900859832764,None,,,,,0,0,0,0,0,93,93,18,166.4289994239807,,,,,,,,,,,,,,,,,,,,,,,,,,,,,,,,,,,,,,,,,,,,,,,,,,,,,,,,,,,,,,,,,,,,,,,,,,,,,,,,,133.0,57.0,57.0,133.0,78.0,78.0,2.1,2.12,-191,-271,0,-265,202,251,166.41427612304688,166.41434931755066,166.4177405834198,166.4289994239807,166.5677890777588,166.5677890777588,166.5677890777588,166.5677890777588,166.5677890777588,166.5677890777588,166.5677890777588,168.451021194458,2,2.0005900859832764,None,,,,,,,,,,,,,,,,,,47,6,2025-02-19_13h00.42.127,comp,2024.2.4,57.63124447809306,2025-02-19 13h00.49.188697 -0500,
94,94,0,filler_random,None,None,None,None,None,None,None,None,None,None,2,2.407759666442871,None,,,,,0,0,0,0,0,94,94,165,168.46994924545288,,,,,,,,,,,,,,,,,,,,,,,,,,,,,,,,,,,,,,,,,,,,,,,,,,,,,,,,,,,,,,,,,,,,,,,,,,,,,,,,,133.71432110356253,150.64764917788642,147.73935746024125,124.0578446230984,99.35841200122476,168.47298360685684,3.0,3.2,-233,-272,0,-19,242,253,168.45299649238586,168.4531171321869,168.45636010169983,168.46994924545288,168.6156930923462,168.6156930923462,168.6156930923462,168.6156930923462,168.6156930923462,168.6156930923462,168.6156930923462,170.88166856765747,2,2.407759666442871,None,,,,,,,,,,,,,,,,,,47,6,2025-02-19_13h00.42.127,comp,2024.2.4,57.63124447809306,2025-02-19 13h00.49.188697 -0500,
95,95,0,critical,dhw,20.0,3.0,upper,141.0,141.0,200.0,125.0,125.0,200.0,1,3.2602689266204834,None,,,,,0,0,0,0,0,95,95,57,170.89793419837952,,,,,,,,,,,,,,,,,,,,,,,,,,,,,,,,,,,,,,,,,,,,,,,,,,,,,,,,,,,,,,,,,,,,,,,,,,,,,,,,,141.0,141.0,200.0,125.0,125.0,200.0,3.0,3.1,-229,254,0,-15,258,-275,170.8830964565277,170.88317108154297,170.88621044158936,170.89793419837952,171.05558705329895,171.05558705329895,171.05558705329895,171.05558705329895,171.05558705329895,171.05558705329895,171.05558705329895,174.16917538642883,1,3.2602689266204834,None,,,,,,,,,,,,,,,,,,47,6,2025-02-19_13h00.42.127,comp,2024.2.4,57.63124447809306,2025-02-19 13h00.49.188697 -0500,
96,96,0,filler_square,None,None,None,None,None,None,None,None,None,None,2,1.1439650058746338,None,,,,,0,0,0,0,0,96,96,183,174.18953108787537,,,,,,,,,,,,,,,,,,,,,,,,,,,,,,,,,,,,,,,,,,,,,,,,,,,,,,,,,,,,,,,,,,,,,,,,,,,,,,,,,61.82306008938687,66.70369827484227,169.81880679307045,169.81880679307045,75.78428970251606,71.03805143772897,2.2,2.22,-214,254,0,-287,216,-260,174.171284198761,174.17136430740356,174.1745903491974,174.18953108787537,174.33391427993774,174.33391427993774,174.33391427993774,174.33391427993774,174.33391427993774,174.33391427993774,174.33391427993774,175.35004782676697,2,1.1439650058746338,None,,,,,,,,,,,,,,,,,,47,6,2025-02-19_13h00.42.127,comp,2024.2.4,57.63124447809306,2025-02-19 13h00.49.188697 -0500,
97,97,0,critical,hdw,20.0,1.0,upper,200.0,125.0,141.0,141.0,125.0,200.0,3,2.2242143154144287,None,,,,,0,0,0,0,0,97,97,115,175.36532640457153,,,,,,,,,,,,,,,,,,,,,,,,,,,,,,,,,,,,,,,,,,,,,,,,,,,,,,,,,,,,,,,,,,,,,,,,,,,,,,,,,200.0,125.0,141.0,141.0,125.0,200.0,1.0,1.3,251,-277,480,-266,746,-287,175.351548910141,175.351624250412,175.35479998588562,175.36532640457153,175.51826071739197,175.51826071739197,175.51826071739197,175.51826071739197,175.51826071739197,175.51826071739197,175.51826071739197,177.59920835494995,3,2.2242143154144287,None,,,,,,,,,,,,,,,,,,47,6,2025-02-19_13h00.42.127,comp,2024.2.4,57.63124447809306,2025-02-19 13h00.49.188697 -0500,
98,98,0,filler_random,None,None,None,None,None,None,None,None,None,None,2,2.214364767074585,None,,,,,0,0,0,0,0,98,98,144,177.6150026321411,,,,,,,,,,,,,,,,,,,,,,,,,,,,,,,,,,,,,,,,,,,,,,,,,,,,,,,,,,,,,,,,,,,,,,,,,,,,,,,,,58.75270387370485,94.31818231767053,174.60635179763716,88.0403274286569,61.649890710984295,189.37122350567722,4.0,4.1,-187,-269,0,-12,235,-283,177.60090708732605,177.60098338127136,177.60394287109375,177.6150026321411,177.76630544662476,177.76630544662476,177.76630544662476,177.76630544662476,177.76630544662476,177.76630544662476,177.76630544662476,179.8443615436554,2,2.214364767074585,None,,,,,,,,,,,,,,,,,,47,6,2025-02-19_13h00.42.127,comp,2024.2.4,57.63124447809306,2025-02-19 13h00.49.188697 -0500,
99,99,0,critical,wdh,20.0,1.0,lower,57.0,133.0,78.0,78.0,133.0,57.0,3,1.3914673328399658,None,,,,,0,0,0,0,0,99,99,78,179.86185550689697,,,,,,,,,,,,,,,,,,,,,,,,,,,,,,,,,,,,,,,,,,,,,,,,,,,,,,,,,,,,,,,,,,,,,,,,,,,,,,,,,57.0,133.0,78.0,78.0,133.0,57.0,1.0,1.1,-682,276,-480,268,-316,265,179.8458502292633,179.84592580795288,179.8488368988037,179.86185550689697,180.00154662132263,180.00154662132263,180.00154662132263,180.00154662132263,180.00154662132263,180.00154662132263,180.00154662132263,181.26787757873535,3,1.3914673328399658,None,,,,,,,,,,,,,,,,,,47,6,2025-02-19_13h00.42.127,comp,2024.2.4,57.63124447809306,2025-02-19 13h00.49.188697 -0500,
100,100,0,catch,None,None,None,None,None,None,None,None,None,None,2,0.9145612716674805,None,,,,,0,0,0,0,0,100,100,125,181.28344774246216,,,,,,,,,,,,,,,,,,,,,,,,,,,,,,,,,,,,,,,,,,,,,,,,,,,,,,,,,,,,,,,,,,,,,,,,,,,,,,,,,60,130,186,139,116,74,3.0,3.2,-230,-251,0,-17,202,283,181.26971173286438,181.26978540420532,181.2728133201599,181.28344774246216,181.43988251686096,181.43988251686096,181.43988251686096,181.43988251686096,181.43988251686096,181.43988251686096,181.43988251686096,182.2022488117218,2,0.9145612716674805,None,,,,,,,,,,,,,,,,,,47,6,2025-02-19_13h00.42.127,comp,2024.2.4,57.63124447809306,2025-02-19 13h00.49.188697 -0500,
101,101,0,filler_random,None,None,None,None,None,None,None,None,None,None,1,1.114302158355713,None,,,,,0,0,0,0,0,101,101,130,182.21950221061707,,,,,,,,,,,,,,,,,,,,,,,,,,,,,,,,,,,,,,,,,,,,,,,,,,,,,,,,,,,,,,,,,,,,,,,,,,,,,,,,,183.3079241426729,178.60899500265424,88.84910987615045,141.67652099983133,112.8768881491603,162.65208060571933,1.0,1.1,-736,255,-480,262,-232,274,182.20420575141907,182.20428824424744,182.2079792022705,182.21950221061707,182.36846017837524,182.36846017837524,182.36846017837524,182.36846017837524,182.36846017837524,182.36846017837524,182.36846017837524,183.3358597755432,1,1.114302158355713,None,,,,,,,,,,,,,,,,,,47,6,2025-02-19_13h00.42.127,comp,2024.2.4,57.63124447809306,2025-02-19 13h00.49.188697 -0500,
102,102,0,filler_square,None,None,None,None,None,None,None,None,None,None,3,0.8692550659179688,None,,,,,0,0,0,0,0,102,102,199,183.35225176811218,,,,,,,,,,,,,,,,,,,,,,,,,,,,,,,,,,,,,,,,,,,,,,,,,,,,,,,,,,,,,,,,,,,,,,,,,,,,,,,,,82.2320831675066,71.83424119813328,59.26161403810418,84.44915357395166,90.9881715637791,90.9881715637791,4.0,4.2,-174,-11,0,-261,184,4,183.33772444725037,183.3378529548645,183.34131622314453,183.35225176811218,183.48763465881348,183.48763465881348,183.48763465881348,183.48763465881348,183.48763465881348,183.48763465881348,183.48763465881348,184.23612451553345,3,0.8692550659179688,None,,,,,,,,,,,,,,,,,,47,6,2025-02-19_13h00.42.127,comp,2024.2.4,57.63124447809306,2025-02-19 13h00.49.188697 -0500,
103,103,0,filler_random,None,None,None,None,None,None,None,None,None,None,3,0.9858484268188477,None,,,,,0,0,0,0,0,103,103,156,184.25150346755981,,,,,,,,,,,,,,,,,,,,,,,,,,,,,,,,,,,,,,,,,,,,,,,,,,,,,,,,,,,,,,,,,,,,,,,,,,,,,,,,,74.60216922145018,161.8666104320213,99.59286369234738,141.9306211581116,185.47141967905034,180.9276303496647,2.1,2.11,-248,272,0,258,257,-262,184.2377815246582,184.2378556728363,184.24126863479614,184.25150346755981,184.40235805511475,184.40235805511475,184.40235805511475,184.40235805511475,184.40235805511475,184.40235805511475,184.40235805511475,185.25270199775696,3,0.9858484268188477,None,,,,,,,,,,,,,,,,,,47,6,2025-02-19_13h00.42.127,comp,2024.2.4,57.63124447809306,2025-02-19 13h00.49.188697 -0500,
104,104,0,critical,hdw,35.0,3.0,lower,133.0,57.0,70.0,70.0,57.0,133.0,3,1.120659589767456,None,,,,,0,0,0,0,0,104,104,110,185.2688546180725,,,,,,,,,,,,,,,,,,,,,,,,,,,,,,,,,,,,,,,,,,,,,,,,,,,,,,,,,,,,,,,,,,,,,,,,,,,,,,,,,133.0,57.0,70.0,70.0,57.0,133.0,3.0,3.2,-160,-285,0,-4,198,278,185.25426840782166,185.2543408870697,185.25772762298584,185.2688546180725,185.42017698287964,185.42017698287964,185.42017698287964,185.42017698287964,185.42017698287964,185.42017698287964,185.42017698287964,186.39197611808777,3,1.120659589767456,None,,,,,,,,,,,,,,,,,,47,6,2025-02-19_13h00.42.127,comp,2024.2.4,57.63124447809306,2025-02-19 13h00.49.188697 -0500,
105,105,0,critical,dwh,20.0,2.1,lower,78.0,78.0,57.0,133.0,133.0,57.0,3,1.8371260166168213,None,,,,,0,0,0,0,0,105,105,6,186.40993237495422,,,,,,,,,,,,,,,,,,,,,,,,,,,,,,,,,,,,,,,,,,,,,,,,,,,,,,,,,,,,,,,,,,,,,,,,,,,,,,,,,78.0,78.0,57.0,133.0,133.0,57.0,2.1,2.12,-202,-286,0,-252,191,287,186.3935422897339,186.3936173915863,186.3969452381134,186.40993237495422,186.55358219146729,186.55358219146729,186.55358219146729,186.55358219146729,186.55358219146729,186.55358219146729,186.55358219146729,188.2547001838684,3,1.8371260166168213,None,,,,,,,,,,,,,,,,,,47,6,2025-02-19_13h00.42.127,comp,2024.2.4,57.63124447809306,2025-02-19 13h00.49.188697 -0500,
106,106,0,critical,wdh,20.0,4.0,upper,125.0,200.0,141.0,141.0,200.0,125.0,3,1.4179444313049316,None,,,,,0,0,0,0,0,106,106,83,188.27607417106628,,,,,,,,,,,,,,,,,,,,,,,,,,,,,,,,,,,,,,,,,,,,,,,,,,,,,,,,,,,,,,,,,,,,,,,,,,,,,,,,,125.0,200.0,141.0,141.0,200.0,125.0,4.0,4.1,-266,-285,0,12,229,-289,188.25623488426208,188.25631046295166,188.2596457004547,188.27607417106628,188.4218566417694,188.4218566417694,188.4218566417694,188.4218566417694,188.4218566417694,188.4218566417694,188.4218566417694,189.69613218307495,3,1.4179444313049316,None,,,,,,,,,,,,,,,,,,47,6,2025-02-19_13h00.42.127,comp,2024.2.4,57.63124447809306,2025-02-19 13h00.49.188697 -0500,
107,107,0,filler_random,None,None,None,None,None,None,None,None,None,None,1,1.0684685707092285,None,,,,,0,0,0,0,0,107,107,160,189.7136721611023,,,,,,,,,,,,,,,,,,,,,,,,,,,,,,,,,,,,,,,,,,,,,,,,,,,,,,,,,,,,,,,,,,,,,,,,,,,,,,,,,191.46185602089537,160.80558623458586,194.91712506818718,118.41263085524594,120.21158199351302,141.08815738741328,2.1,2.12,-236,-253,0,-259,226,285,189.6977035999298,189.69777941703796,189.70065307617188,189.7136721611023,189.8545641899109,189.8545641899109,189.8545641899109,189.8545641899109,189.8545641899109,189.8545641899109,189.8545641899109,190.7911458015442,1,1.0684685707092285,None,,,,,,,,,,,,,,,,,,47,6,2025-02-19_13h00.42.127,comp,2024.2.4,57.63124447809306,2025-02-19 13h00.49.188697 -0500,
108,108,0,critical,hwd,20.0,2.1,lower,133.0,57.0,57.0,133.0,78.0,78.0,3,2.839184522628784,None,,,,,0,0,0,0,0,108,108,42,190.8076832294464,,,,,,,,,,,,,,,,,,,,,,,,,,,,,,,,,,,,,,,,,,,,,,,,,,,,,,,,,,,,,,,,,,,,,,,,,,,,,,,,,133.0,57.0,57.0,133.0,78.0,78.0,2.1,2.12,-191,-271,0,-255,202,286,190.79300165176392,190.793133020401,190.79702425003052,190.8076832294464,190.9558618068695,190.9558618068695,190.9558618068695,190.9558618068695,190.9558618068695,190.9558618068695,190.9558618068695,193.6574194431305,3,2.839184522628784,None,,,,,,,,,,,,,,,,,,47,6,2025-02-19_13h00.42.127,comp,2024.2.4,57.63124447809306,2025-02-19 13h00.49.188697 -0500,
109,109,0,filler_square,None,None,None,None,None,None,None,None,None,None,3,0.9634981155395508,None,,,,,0,0,0,0,0,109,109,173,193.67400979995728,,,,,,,,,,,,,,,,,,,,,,,,,,,,,,,,,,,,,,,,,,,,,,,,,,,,,,,,,,,,,,,,,,,,,,,,,,,,,,,,,113.93057412920857,131.30743754307218,92.13264470428985,62.38677156112339,152.84316817613652,152.84316817613652,1.0,1.2,-193,-2,0,-10,204,3,193.65941500663757,193.65953660011292,193.6633219718933,193.67400979995728,193.82982110977173,193.82982110977173,193.82982110977173,193.82982110977173,193.82982110977173,193.82982110977173,193.82982110977173,194.6554515361786,3,0.9634981155395508,None,,,,,,,,,,,,,,,,,,47,6,2025-02-19_13h00.42.127,comp,2024.2.4,57.63124447809306,2025-02-19 13h00.49.188697 -0500,
110,110,0,filler_square,None,None,None,None,None,None,None,None,None,None,2,1.4981863498687744,None,,,,,0,0,0,0,0,110,110,207,194.675306558609,,,,,,,,,,,,,,,,,,,,,,,,,,,,,,,,,,,,,,,,,,,,,,,,,,,,,,,,,,,,,,,,,,,,,,,,,,,,,,,,,125.573730216193,122.8545846202829,171.31240821277947,171.31240821277947,164.63390550739337,156.14990025932983,2.1,2.12,-243,-280,0,-266,260,280,194.65751838684082,194.65760040283203,194.6609718799591,194.675306558609,194.82235026359558,194.82235026359558,194.82235026359558,194.82235026359558,194.82235026359558,194.82235026359558,194.82235026359558,196.1890504360199,2,1.4981863498687744,None,,,,,,,,,,,,,,,,,,47,6,2025-02-19_13h00.42.127,comp,2024.2.4,57.63124447809306,2025-02-19 13h00.49.188697 -0500,
111,111,0,filler_square,None,None,None,None,None,None,None,None,None,None,3,3.5839908123016357,None,,,,,0,0,0,0,0,111,111,171,196.20551991462708,,,,,,,,,,,,,,,,,,,,,,,,,,,,,,,,,,,,,,,,,,,,,,,,,,,,,,,,,,,,,,,,,,,,,,,,,,,,,,,,,57.58850824000816,60.74769523031328,58.273702106897375,60.73592074457131,61.17284730548228,61.17284730548228,4.0,4.2,-157,-2,0,-283,157,15,196.19075751304626,196.19083046913147,196.19418144226074,196.20551991462708,196.3597869873047,196.3597869873047,196.3597869873047,196.3597869873047,196.3597869873047,196.3597869873047,196.3597869873047,199.8076057434082,3,3.5839908123016357,None,,,,,,,,,,,,,,,,,,47,6,2025-02-19_13h00.42.127,comp,2024.2.4,57.63124447809306,2025-02-19 13h00.49.188697 -0500,
112,112,0,critical,wdh,20.0,3.0,lower,57.0,133.0,78.0,78.0,133.0,57.0,3,1.5126099586486816,None,,,,,0,0,0,0,0,112,112,80,199.82294821739197,,,,,,,,,,,,,,,,,,,,,,,,,,,,,,,,,,,,,,,,,,,,,,,,,,,,,,,,,,,,,,,,,,,,,,,,,,,,,,,,,57.0,133.0,78.0,78.0,133.0,57.0,3.0,3.2,-202,-279,0,-18,164,275,199.80912470817566,199.80920028686523,199.8124384880066,199.82294821739197,199.97871708869934,199.97871708869934,199.97871708869934,199.97871708869934,199.97871708869934,199.97871708869934,199.97871708869934,201.34071230888367,3,1.5126099586486816,None,,,,,,,,,,,,,,,,,,47,6,2025-02-19_13h00.42.127,comp,2024.2.4,57.63124447809306,2025-02-19 13h00.49.188697 -0500,
113,113,0,critical,hdw,35.0,2.1,upper,200.0,125.0,127.0,127.0,125.0,200.0,3,1.190800428390503,None,,,,,0,0,0,0,0,113,113,21,201.35922574996948,,,,,,,,,,,,,,,,,,,,,,,,,,,,,,,,,,,,,,,,,,,,,,,,,,,,,,,,,,,,,,,,,,,,,,,,,,,,,,,,,200.0,125.0,127.0,127.0,125.0,200.0,2.1,2.11,-222,268,0,274,260,-259,201.34220337867737,201.34228014945984,201.34541726112366,201.35922574996948,201.50939059257507,201.50939059257507,201.50939059257507,201.50939059257507,201.50939059257507,201.50939059257507,201.50939059257507,202.5593204498291,3,1.190800428390503,None,,,,,,,,,,,,,,,,,,47,6,2025-02-19_13h00.42.127,comp,2024.2.4,57.63124447809306,2025-02-19 13h00.49.188697 -0500,
114,114,0,catch,None,None,None,None,None,None,None,None,None,None,1,0.8451995849609375,None,,,,,0,0,0,0,0,114,114,129,202.57631301879883,,,,,,,,,,,,,,,,,,,,,,,,,,,,,,,,,,,,,,,,,,,,,,,,,,,,,,,,,,,,,,,,,,,,,,,,,,,,,,,,,198,127,127,63,132,58,3.0,3.2,-191,-281,0,-14,156,250,202.5612940788269,202.56137537956238,202.56541919708252,202.57631301879883,202.72465896606445,202.72465896606445,202.72465896606445,202.72465896606445,202.72465896606445,202.72465896606445,202.72465896606445,203.42553615570068,1,0.8451995849609375,None,,,,,,,,,,,,,,,,,,47,6,2025-02-19_13h00.42.127,comp,2024.2.4,57.63124447809306,2025-02-19 13h00.49.188697 -0500,
115,115,0,critical,whd,20.0,2.1,upper,125.0,200.0,200.0,125.0,141.0,141.0,2,1.515329122543335,None,,,,,0,0,0,0,0,115,115,39,203.44223642349243,,,,,,,,,,,,,,,,,,,,,,,,,,,,,,,,,,,,,,,,,,,,,,,,,,,,,,,,,,,,,,,,,,,,,,,,,,,,,,,,,125.0,200.0,200.0,125.0,141.0,141.0,2.1,2.11,-258,289,0,269,229,-254,203.4271149635315,203.4271900653839,203.4313509464264,203.44223642349243,203.59713053703308,203.59713053703308,203.59713053703308,203.59713053703308,203.59713053703308,203.59713053703308,203.59713053703308,204.9618101119995,2,1.515329122543335,None,,,,,,,,,,,,,,,,,,47,6,2025-02-19_13h00.42.127,comp,2024.2.4,57.63124447809306,2025-02-19 13h00.49.188697 -0500,
116,116,0,critical,whd,35.0,3.0,upper,125.0,200.0,200.0,125.0,127.0,127.0,1,1.2815961837768555,None,,,,,0,0,0,0,0,116,116,87,204.97990322113037,,,,,,,,,,,,,,,,,,,,,,,,,,,,,,,,,,,,,,,,,,,,,,,,,,,,,,,,,,,,,,,,,,,,,,,,,,,,,,,,,125.0,200.0,200.0,125.0,127.0,127.0,3.0,3.2,-258,-254,0,-19,222,288,204.96338629722595,204.96346259117126,204.96694493293762,204.97990322113037,205.13051056861877,205.13051056861877,205.13051056861877,205.13051056861877,205.13051056861877,205.13051056861877,205.13051056861877,206.27886080741882,1,1.2815961837768555,None,,,,,,,,,,,,,,,,,,47,6,2025-02-19_13h00.42.127,comp,2024.2.4,57.63124447809306,2025-02-19 13h00.49.188697 -0500,
117,117,0,filler_random,None,None,None,None,None,None,None,None,None,None,2,1.2146594524383545,None,,,,,0,0,0,0,0,117,117,131,206.29490542411804,,,,,,,,,,,,,,,,,,,,,,,,,,,,,,,,,,,,,,,,,,,,,,,,,,,,,,,,,,,,,,,,,,,,,,,,,,,,,,,,,59.085559384605986,135.08791973502167,195.31702022690106,110.46030001558042,112.62115238893996,140.47440223526257,2.2,2.22,-219,262,0,-279,221,-266,206.28078508377075,206.28086233139038,206.2846713066101,206.29490542411804,206.44317197799683,206.44317197799683,206.44317197799683,206.44317197799683,206.44317197799683,206.44317197799683,206.44317197799683,207.53083300590515,2,1.2146594524383545,None,,,,,,,,,,,,,,,,,,47,6,2025-02-19_13h00.42.127,comp,2024.2.4,57.63124447809306,2025-02-19 13h00.49.188697 -0500,
118,118,0,critical,dwh,35.0,2.1,upper,127.0,127.0,125.0,200.0,200.0,125.0,2,1.630174160003662,None,,,,,0,0,0,0,0,118,118,29,207.55134272575378,,,,,,,,,,,,,,,,,,,,,,,,,,,,,,,,,,,,,,,,,,,,,,,,,,,,,,,,,,,,,,,,,,,,,,,,,,,,,,,,,127.0,127.0,125.0,200.0,200.0,125.0,2.1,2.11,-260,255,0,260,258,-254,207.5323269367218,207.5324263572693,207.53609538078308,207.55134272575378,207.69399785995483,207.69399785995483,207.69399785995483,207.69399785995483,207.69399785995483,207.69399785995483,207.69399785995483,209.19608330726624,2,1.630174160003662,None,,,,,,,,,,,,,,,,,,47,6,2025-02-19_13h00.42.127,comp,2024.2.4,57.63124447809306,2025-02-19 13h00.49.188697 -0500,
119,119,0,critical,dhw,20.0,4.0,upper,141.0,141.0,200.0,125.0,125.0,200.0,3,1.8344340324401855,None,,,,,0,0,0,0,0,119,119,59,209.21156406402588,,,,,,,,,,,,,,,,,,,,,,,,,,,,,,,,,,,,,,,,,,,,,,,,,,,,,,,,,,,,,,,,,,,,,,,,,,,,,,,,,141.0,141.0,200.0,125.0,125.0,200.0,4.0,4.2,-229,-5,0,-290,258,19,209.19769859313965,209.19777178764343,209.20121574401855,209.21156406402588,209.361004114151,209.361004114151,209.361004114151,209.361004114151,209.361004114151,209.361004114151,209.361004114151,211.04896473884583,3,1.8344340324401855,None,,,,,,,,,,,,,,,,,,47,6,2025-02-19_13h00.42.127,comp,2024.2.4,57.63124447809306,2025-02-19 13h00.49.188697 -0500,
120,120,0,critical,wdh,35.0,1.0,lower,57.0,133.0,70.0,70.0,133.0,57.0,3,2.1159250736236572,None,,,,,0,0,0,0,0,120,120,72,211.06554317474365,,,,,,,,,,,,,,,,,,,,,,,,,,,,,,,,,,,,,,,,,,,,,,,,,,,,,,,,,,,,,,,,,,,,,,,,,,,,,,,,,57.0,133.0,70.0,70.0,133.0,57.0,1.0,1.2,-198,-6,0,-19,160,-5,211.05056309700012,211.05064153671265,211.05392003059387,211.06554317474365,211.2114646434784,211.2114646434784,211.2114646434784,211.2114646434784,211.2114646434784,211.2114646434784,211.2114646434784,213.20653533935547,3,2.1159250736236572,None,,,,,,,,,,,,,,,,,,47,6,2025-02-19_13h00.42.127,comp,2024.2.4,57.63124447809306,2025-02-19 13h00.49.188697 -0500,
121,121,0,critical,hwd,20.0,2.1,upper,200.0,125.0,125.0,200.0,141.0,141.0,2,0.4459257125854492,None,,,,,0,0,0,0,0,121,121,19,213.22356510162354,,,,,,,,,,,,,,,,,,,,,,,,,,,,,,,,,,,,,,,,,,,,,,,,,,,,,,,,,,,,,,,,,,,,,,,,,,,,,,,,,200.0,125.0,125.0,200.0,141.0,141.0,2.1,2.12,-258,-278,0,-266,266,252,213.20797061920166,213.20804357528687,213.21091723442078,213.22356510162354,213.36223983764648,213.36223983764648,213.36223983764648,213.36223983764648,213.36223983764648,213.36223983764648,213.36223983764648,213.68465733528137,2,0.4459257125854492,None,,,,,,,,,,,,,,,,,,47,6,2025-02-19_13h00.42.127,comp,2024.2.4,57.63124447809306,2025-02-19 13h00.49.188697 -0500,
122,122,0,filler_square,None,None,None,None,None,None,None,None,None,None,2,1.020209550857544,None,,,,,0,0,0,0,0,122,122,178,213.70517778396606,,,,,,,,,,,,,,,,,,,,,,,,,,,,,,,,,,,,,,,,,,,,,,,,,,,,,,,,,,,,,,,,,,,,,,,,,,,,,,,,,62.51881767793767,162.0189681060701,185.03534455327778,185.03534455327778,152.59228134454065,99.88402259395741,3.0,3.1,-270,265,0,15,238,-282,213.68659496307373,213.6866717338562,213.6898970603943,213.70517778396606,213.85084867477417,213.85084867477417,213.85084867477417,213.85084867477417,213.85084867477417,213.85084867477417,213.85084867477417,214.74516415596008,2,1.020209550857544,None,,,,,,,,,,,,,,,,,,47,6,2025-02-19_13h00.42.127,comp,2024.2.4,57.63124447809306,2025-02-19 13h00.49.188697 -0500,
123,123,0,critical,dwh,35.0,4.0,lower,70.0,70.0,57.0,133.0,133.0,57.0,3,1.0429363250732422,None,,,,,0,0,0,0,0,123,123,64,214.76279664039612,,,,,,,,,,,,,,,,,,,,,,,,,,,,,,,,,,,,,,,,,,,,,,,,,,,,,,,,,,,,,,,,,,,,,,,,,,,,,,,,,70.0,70.0,57.0,133.0,133.0,57.0,4.0,4.1,-198,-274,0,-16,191,-287,214.74675965309143,214.74683356285095,214.75008034706116,214.76279664039612,214.90936136245728,214.90936136245728,214.90936136245728,214.90936136245728,214.90936136245728,214.90936136245728,214.90936136245728,215.81368398666382,3,1.0429363250732422,None,,,,,,,,,,,,,,,,,,47,6,2025-02-19_13h00.42.127,comp,2024.2.4,57.63124447809306,2025-02-19 13h00.49.188697 -0500,
124,124,0,catch,None,None,None,None,None,None,None,None,None,None,3,0.7516541481018066,None,,,,,0,0,0,0,0,124,124,128,215.82993173599243,,,,,,,,,,,,,,,,,,,,,,,,,,,,,,,,,,,,,,,,,,,,,,,,,,,,,,,,,,,,,,,,,,,,,,,,,,,,,,,,,92,98,101,89,135,190,3.0,3.1,-190,262,0,-15,236,-278,215.81566309928894,215.81579732894897,215.81915712356567,215.82993173599243,215.97964668273926,215.97964668273926,215.97964668273926,215.97964668273926,215.97964668273926,215.97964668273926,215.97964668273926,216.5970902442932,3,0.7516541481018066,None,,,,,,,,,,,,,,,,,,47,6,2025-02-19_13h00.42.127,comp,2024.2.4,57.63124447809306,2025-02-19 13h00.49.188697 -0500,
125,125,0,critical,hwd,20.0,1.0,upper,200.0,125.0,125.0,200.0,141.0,141.0,1,1.049833059310913,None,,,,,0,0,0,0,0,125,125,103,216.6121256351471,,,,,,,,,,,,,,,,,,,,,,,,,,,,,,,,,,,,,,,,,,,,,,,,,,,,,,,,,,,,,,,,,,,,,,,,,,,,,,,,,200.0,125.0,125.0,200.0,141.0,141.0,1.0,1.2,-258,-10,0,-11,266,-10,216.59854459762573,216.598619222641,216.60165357589722,216.6121256351471,216.76160216331482,216.76160216331482,216.76160216331482,216.76160216331482,216.76160216331482,216.76160216331482,216.76160216331482,217.67997217178345,1,1.049833059310913,None,,,,,,,,,,,,,,,,,,47,6,2025-02-19_13h00.42.127,comp,2024.2.4,57.63124447809306,2025-02-19 13h00.49.188697 -0500,
126,126,0,critical,dwh,35.0,2.1,lower,70.0,70.0,57.0,133.0,133.0,57.0,3,1.007718563079834,None,,,,,0,0,0,0,0,126,126,28,217.69521570205688,,,,,,,,,,,,,,,,,,,,,,,,,,,,,,,,,,,,,,,,,,,,,,,,,,,,,,,,,,,,,,,,,,,,,,,,,,,,,,,,,70.0,70.0,57.0,133.0,133.0,57.0,2.1,2.11,-198,290,0,274,191,-251,217.68145751953125,217.68155097961426,217.68472909927368,217.69521570205688,217.83258175849915,217.83258175849915,217.83258175849915,217.83258175849915,217.83258175849915,217.83258175849915,217.83258175849915,218.713933467865,3,1.007718563079834,None,,,,,,,,,,,,,,,,,,47,6,2025-02-19_13h00.42.127,comp,2024.2.4,57.63124447809306,2025-02-19 13h00.49.188697 -0500,
127,127,0,catch,None,None,None,None,None,None,None,None,None,None,3,0.7869491577148438,None,,,,,0,0,0,0,0,127,127,124,218.7305943965912,,,,,,,,,,,,,,,,,,,,,,,,,,,,,,,,,,,,,,,,,,,,,,,,,,,,,,,,,,,,,,,,,,,,,,,,,,,,,,,,,129,61,58,132,164,161,4.0,4.1,-192,-280,0,14,242,-253,218.7159698009491,218.7160472869873,218.71946501731873,218.7305943965912,218.88112330436707,218.88112330436707,218.88112330436707,218.88112330436707,218.88112330436707,218.88112330436707,218.88112330436707,219.52936840057373,3,0.7869491577148438,None,,,,,,,,,,,,,,,,,,47,6,2025-02-19_13h00.42.127,comp,2024.2.4,57.63124447809306,2025-02-19 13h00.49.188697 -0500,
128,128,0,critical,hdw,35.0,2.1,upper,200.0,125.0,127.0,127.0,125.0,200.0,3,1.052253246307373,None,,,,,0,0,0,0,0,128,128,45,219.54518675804138,,,,,,,,,,,,,,,,,,,,,,,,,,,,,,,,,,,,,,,,,,,,,,,,,,,,,,,,,,,,,,,,,,,,,,,,,,,,,,,,,200.0,125.0,127.0,127.0,125.0,200.0,2.1,2.11,-222,288,0,268,260,-282,219.5309178829193,219.53099179267883,219.53407835960388,219.54518675804138,219.6988832950592,219.6988832950592,219.6988832950592,219.6988832950592,219.6988832950592,219.6988832950592,219.6988832950592,220.59990048408508,3,1.052253246307373,None,,,,,,,,,,,,,,,,,,47,6,2025-02-19_13h00.42.127,comp,2024.2.4,57.63124447809306,2025-02-19 13h00.49.188697 -0500,
129,129,0,filler_random,None,None,None,None,None,None,None,None,None,None,3,0.8717653751373291,None,,,,,0,0,0,0,0,129,129,140,220.61539435386658,,,,,,,,,,,,,,,,,,,,,,,,,,,,,,,,,,,,,,,,,,,,,,,,,,,,,,,,,,,,,,,,,,,,,,,,,,,,,,,,,75.0892976830556,91.26731599406,67.26972865359183,81.42071717465058,85.64915665054662,175.29440368680866,4.0,4.2,-182,-5,0,-276,224,-5,220.60168480873108,220.60176348686218,220.6047601699829,220.61539435386658,220.76369953155518,220.76369953155518,220.76369953155518,220.76369953155518,220.76369953155518,220.76369953155518,220.76369953155518,221.49883103370667,3,0.8717653751373291,None,,,,,,,,,,,,,,,,,,47,6,2025-02-19_13h00.42.127,comp,2024.2.4,57.63124447809306,2025-02-19 13h00.49.188697 -0500,
130,130,0,filler_random,None,None,None,None,None,None,None,None,None,None,2,0.7461721897125244,None,,,,,0,0,0,0,0,130,130,137,221.5153489112854,,,,,,,,,,,,,,,,,,,,,,,,,,,,,,,,,,,,,,,,,,,,,,,,,,,,,,,,,,,,,,,,,,,,,,,,,,,,,,,,,158.40823985072856,140.41156626027353,145.61954699891766,175.46429064916268,119.79179161793093,117.85604392162934,2.1,2.11,-254,286,0,258,243,-269,221.50074815750122,221.50082421302795,221.50479888916016,221.5153489112854,221.6676607131958,221.6676607131958,221.6676607131958,221.6676607131958,221.6676607131958,221.6676607131958,221.6676607131958,222.26634740829468,2,0.7461721897125244,None,,,,,,,,,,,,,,,,,,47,6,2025-02-19_13h00.42.127,comp,2024.2.4,57.63124447809306,2025-02-19 13h00.49.188697 -0500,
131,131,0,filler_random,None,None,None,None,None,None,None,None,None,None,2,0.9040102958679199,None,,,,,0,0,0,0,0,131,131,151,222.28757619857788,,,,,,,,,,,,,,,,,,,,,,,,,,,,,,,,,,,,,,,,,,,,,,,,,,,,,,,,,,,,,,,,,,,,,,,,,,,,,,,,,79.99032083812828,61.872714395363786,78.850531729429,191.3255665268121,111.82705709255137,64.87975440944511,3.0,3.2,-223,-290,0,16,224,258,222.2682340145111,222.26832222938538,222.27194499969482,222.28757619857788,222.43583226203918,222.43583226203918,222.43583226203918,222.43583226203918,222.43583226203918,222.43583226203918,222.43583226203918,223.1964316368103,2,0.9040102958679199,None,,,,,,,,,,,,,,,,,,47,6,2025-02-19_13h00.42.127,comp,2024.2.4,57.63124447809306,2025-02-19 13h00.49.188697 -0500,
132,132,0,filler_square,None,None,None,None,None,None,None,None,None,None,3,1.7216970920562744,None,,,,,0,0,0,0,0,132,132,172,223.21208906173706,,,,,,,,,,,,,,,,,,,,,,,,,,,,,,,,,,,,,,,,,,,,,,,,,,,,,,,,,,,,,,,,,,,,,,,,,,,,,,,,,64.22592909291318,64.22592909291318,58.27703938866041,61.70941682869768,64.04072606771672,62.243500784760705,3.0,3.2,-159,-268,0,11,158,281,223.1982147693634,223.19828987121582,223.20116353034973,223.21208906173706,223.35561084747314,223.35561084747314,223.35561084747314,223.35561084747314,223.35561084747314,223.35561084747314,223.35561084747314,224.9376208782196,3,1.7216970920562744,None,,,,,,,,,,,,,,,,,,47,6,2025-02-19_13h00.42.127,comp,2024.2.4,57.63124447809306,2025-02-19 13h00.49.188697 -0500,
133,133,0,critical,wdh,35.0,2.1,upper,125.0,200.0,127.0,127.0,200.0,125.0,1,1.9388809204101562,None,,,,,0,0,0,0,0,133,133,33,224.95510149002075,,,,,,,,,,,,,,,,,,,,,,,,,,,,,,,,,,,,,,,,,,,,,,,,,,,,,,,,,,,,,,,,,,,,,,,,,,,,,,,,,125.0,200.0,127.0,127.0,200.0,125.0,2.1,2.11,-260,253,0,266,222,-288,224.93910193443298,224.9391770362854,224.94206523895264,224.95510149002075,225.09955596923828,225.09955596923828,225.09955596923828,225.09955596923828,225.09955596923828,225.09955596923828,225.09955596923828,226.90256667137146,1,1.9388809204101562,None,,,,,,,,,,,,,,,,,,47,6,2025-02-19_13h00.42.127,comp,2024.2.4,57.63124447809306,2025-02-19 13h00.49.188697 -0500,
134,134,0,critical,dwh,35.0,4.0,upper,127.0,127.0,125.0,200.0,200.0,125.0,2,1.1246709823608398,None,,,,,0,0,0,0,0,134,134,65,226.92109513282776,,,,,,,,,,,,,,,,,,,,,,,,,,,,,,,,,,,,,,,,,,,,,,,,,,,,,,,,,,,,,,,,,,,,,,,,,,,,,,,,,127.0,127.0,125.0,200.0,200.0,125.0,4.0,4.2,-260,8,0,-280,258,-5,226.90443325042725,226.90458846092224,226.9076907634735,226.92109513282776,227.0680022239685,227.0680022239685,227.0680022239685,227.0680022239685,227.0680022239685,227.0680022239685,227.0680022239685,228.0527651309967,2,1.1246709823608398,None,,,,,,,,,,,,,,,,,,47,6,2025-02-19_13h00.42.127,comp,2024.2.4,57.63124447809306,2025-02-19 13h00.49.188697 -0500,
135,135,0,filler_square,None,None,None,None,None,None,None,None,None,None,1,0.6895194053649902,None,,,,,0,0,0,0,0,135,135,197,228.06854677200317,,,,,,,,,,,,,,,,,,,,,,,,,,,,,,,,,,,,,,,,,,,,,,,,,,,,,,,,,,,,,,,,,,,,,,,,,,,,,,,,,189.81184682292974,189.81184682292974,93.04132813689267,145.43110242741238,129.95967719119596,75.3926918003957,2.2,2.22,-264,257,0,-275,206,-288,228.05472826957703,228.05480647087097,228.0579891204834,228.06854677200317,228.21652913093567,228.21652913093567,228.21652913093567,228.21652913093567,228.21652913093567,228.21652913093567,228.21652913093567,228.76706409454346,1,0.6895194053649902,None,,,,,,,,,,,,,,,,,,47,6,2025-02-19_13h00.42.127,comp,2024.2.4,57.63124447809306,2025-02-19 13h00.49.188697 -0500,
136,136,0,critical,hwd,35.0,3.0,upper,200.0,125.0,125.0,200.0,127.0,127.0,2,1.0708119869232178,None,,,,,0,0,0,0,0,136,136,99,228.7827069759369,,,,,,,,,,,,,,,,,,,,,,,,,,,,,,,,,,,,,,,,,,,,,,,,,,,,,,,,,,,,,,,,,,,,,,,,,,,,,,,,,200.0,125.0,125.0,200.0,127.0,127.0,3.0,3.2,-258,-285,0,13,260,271,228.768572807312,228.7686483860016,228.77204632759094,228.7827069759369,228.93051433563232,228.93051433563232,228.93051433563232,228.93051433563232,228.93051433563232,228.93051433563232,228.93051433563232,229.86835169792175,2,1.0708119869232178,None,,,,,,,,,,,,,,,,,,47,6,2025-02-19_13h00.42.127,comp,2024.2.4,57.63124447809306,2025-02-19 13h00.49.188697 -0500,
137,137,0,filler_random,None,None,None,None,None,None,None,None,None,None,2,1.1131603717803955,None,,,,,0,0,0,0,0,137,137,155,229.88444876670837,,,,,,,,,,,,,,,,,,,,,,,,,,,,,,,,,,,,,,,,,,,,,,,,,,,,,,,,,,,,,,,,,,,,,,,,,,,,,,,,,199.77379245688294,87.9738104511164,197.109602759978,96.96021455729883,130.61092712534887,66.50986478351379,1.0,1.2,-188,1,0,-1,178,1,229.87004923820496,229.8701250553131,229.87328052520752,229.88444876670837,230.03669500350952,230.03669500350952,230.03669500350952,230.03669500350952,230.03669500350952,230.03669500350952,230.03669500350952,231.00106024742126,2,1.1131603717803955,None,,,,,,,,,,,,,,,,,,47,6,2025-02-19_13h00.42.127,comp,2024.2.4,57.63124447809306,2025-02-19 13h00.49.188697 -0500,
138,138,0,filler_square,None,None,None,None,None,None,None,None,None,None,3,0.6931936740875244,None,,,,,0,0,0,0,0,138,138,174,231.01671957969666,,,,,,,,,,,,,,,,,,,,,,,,,,,,,,,,,,,,,,,,,,,,,,,,,,,,,,,,,,,,,,,,,,,,,,,,,,,,,,,,,74.58847975852733,73.69388602875986,104.1645265706671,98.54239635892776,126.25817881009482,126.25817881009482,3.0,3.2,-182,-281,0,1,208,267,231.00284385681152,231.00292134284973,231.00607991218567,231.01671957969666,231.1665005683899,231.1665005683899,231.1665005683899,231.1665005683899,231.1665005683899,231.1665005683899,231.1665005683899,231.72030353546143,3,0.6931936740875244,None,,,,,,,,,,,,,,,,,,47,6,2025-02-19_13h00.42.127,comp,2024.2.4,57.63124447809306,2025-02-19 13h00.49.188697 -0500,
139,139,0,filler_random,None,None,None,None,None,None,None,None,None,None,3,0.8103318214416504,None,,,,,0,0,0,0,0,139,139,166,231.73909664154053,,,,,,,,,,,,,,,,,,,,,,,,,,,,,,,,,,,,,,,,,,,,,,,,,,,,,,,,,,,,,,,,,,,,,,,,,,,,,,,,,164.8345414058775,72.55733619884688,110.6898664518468,153.39334920540242,173.31922051084518,192.6169660027454,2.1,2.11,-209,275,0,259,269,-266,231.72246551513672,231.7226264476776,231.72563934326172,231.73909664154053,231.88226199150085,231.88226199150085,231.88226199150085,231.88226199150085,231.88226199150085,231.88226199150085,231.88226199150085,232.55872440338135,3,0.8103318214416504,None,,,,,,,,,,,,,,,,,,47,6,2025-02-19_13h00.42.127,comp,2024.2.4,57.63124447809306,2025-02-19 13h00.49.188697 -0500,
140,140,0,critical,whd,20.0,4.0,lower,57.0,133.0,133.0,57.0,78.0,78.0,3,0.9197585582733154,None,,,,,0,0,0,0,0,140,140,94,232.57434034347534,,,,,,,,,,,,,,,,,,,,,,,,,,,,,,,,,,,,,,,,,,,,,,,,,,,,,,,,,,,,,,,,,,,,,,,,,,,,,,,,,57.0,133.0,133.0,57.0,78.0,78.0,4.0,4.2,-191,-8,0,-263,164,-17,232.56020498275757,232.5602831840515,232.56342387199402,232.57434034347534,232.71991276741028,232.71991276741028,232.71991276741028,232.71991276741028,232.71991276741028,232.71991276741028,232.71991276741028,233.50066494941711,3,0.9197585582733154,None,,,,,,,,,,,,,,,,,,47,6,2025-02-19_13h00.42.127,comp,2024.2.4,57.63124447809306,2025-02-19 13h00.49.188697 -0500,
