thisN,thisTrialN,thisRepN,effect,order,distance,config,diag,h_1,w_1,h_2,w_2,h_3,w_3,rect_choice.keys,rect_choice.rt,rect_choice.duration,instructions_loop.thisRepN,instructions_loop.thisTrialN,instructions_loop.thisN,instructions_loop.thisIndex,blocks.thisRepN,blocks.thisTrialN,blocks.thisN,blocks.thisIndex,trials.thisRepN,trials.thisTrialN,trials.thisN,trials.thisIndex,thisRow.t,notes,consent.started,agree_button.started,decline_button.started,consent_img.started,mouse.started,consent.stopped,agree_button.numClicks,agree_button.timesOn,agree_button.timesOff,decline_button.numClicks,decline_button.timesOn,decline_button.timesOff,mouse.x,mouse.y,mouse.leftButton,mouse.midButton,mouse.rightButton,mouse.time,mouse.clicked_name,exp_params.started,exp_params.stopped,welcome.started,welcome_text.started,welcome.stopped,instructions_1.started,instructions_1_text_1.started,instructions_1_text_2.started,key_resp.started,instructions_1.stopped,instructions_loop.key_resp.keys,instructions_loop.key_resp.rt,instructions_loop.key_resp.duration,instructions_2.started,instructions_2_text_1.started,instructions_2_text_2.started,key_resp_2.started,instructions_2.stopped,instructions_loop.key_resp_2.keys,instructions_loop.key_resp_2.rt,instructions_loop.key_resp_2.duration,instructions_3.started,instructions_3_text_1.started,r1_instr3.started,r2_instr3.started,r3_instr3.started,r1_instr3_label.started,r2_instr3_label.started,r3_instr3_label.started,instructions_3_text_3.started,instructions_3_text_4.started,key_resp_3.started,instructions_3.stopped,instructions_loop.key_resp_3.keys,instructions_loop.key_resp_3.rt,instructions_loop.key_resp_3.duration,instructions_4.started,instructions_4_text_1.started,instructions_4_text_3.started,instructions_4_text_2.started,key_resp_4.started,instructions_4.stopped,instructions_loop.key_resp_4.keys,instructions_loop.key_resp_4.rt,instructions_loop.key_resp_4.duration,instructions_5.started,instructions_5_text_1.started,instructions_5_text_2.started,key_resp_5.started,instructions_5.stopped,instructions_loop.key_resp_5.keys,instructions_loop.key_resp_5.rt,instructions_loop.key_resp_5.duration,start_exp.started,start_exp_text.started,key_resp_6.started,start_exp.stopped,key_resp_6.keys,key_resp_6.rt,key_resp_6.duration,h_1_tmp,w_1_tmp,h_2_tmp,w_2_tmp,h_3_tmp,w_3_tmp,config_tmp,config_tmp_1,r_1_x,r_1_y,r_2_x,r_2_y,r_3_x,r_3_y,pre_trial.started,pre_trial.stopped,choice_trial.started,rect_choice.started,r_1.started,r_2.started,r_3.started,r_1_label.started,r_2_label.started,r_3_label.started,prompt.started,choice_trial.stopped,trials.rect_choice.keys,trials.rect_choice.rt,trials.rect_choice.duration,end_block.started,end_block_text.started,end_block.stopped,end.started,end_text.started,key_resp_7.started,end.stopped,key_resp_7.keys,key_resp_7.rt,key_resp_7.duration,debriefing.started,debrief_form.started,end_debrief.started,debriefing.stopped,end_debrief.keys,end_debrief.rt,end_debrief.duration,participant,computer,date,expName,psychopyVersion,frameRate,expStart,
,,,,,,,,,,,,,,,,,,,,,,,,,,,,,,,0.014404773712158203,0.03388690948486328,0.03388690948486328,0.03388690948486328,0.014225482940673828,20.473738193511963,1,[20.437539100646973],[20.437561511993408],0,,,[-63.0],[-503.0],[1],[0],[0],[20.458829402923584],['agree_button'],,,,,,,,,,,,,,,,,,,,,,,,,,,,,,,,,,,,,,,,,,,,,,,,,,,,,,,,,,,,,,,,,,,,,,,,,,,,,,,,,,,,,,,,,,,,,,,,,,,,,,,,,,,48,1,2025-02-19_13h06.08.042,comp,2024.2.4,56.61765738135991,2025-02-19 13h09.29.236801 -0500,
,,,,,,,,,,,,,,,,,,,,,,,,,,,,,,,,,,,,,,,,,,,,,,,,,,20.474278211593628,20.474344491958618,,,,,,,,,,,,,,,,,,,,,,,,,,,,,,,,,,,,,,,,,,,,,,,,,,,,,,,,,,,,,,,,,,,,,,,,,,,,,,,,,,,,,,,,,,,,,,,,,,,,,,,,,48,1,2025-02-19_13h06.08.042,comp,2024.2.4,56.61765738135991,2025-02-19 13h09.29.236801 -0500,
,,,,,,,,,,,,,,,,,,,,,,,,,,,,,,,,,,,,,,,,,,,,,,,,,,,,20.474387884140015,20.489845275878906,22.482783794403076,,,,,,,,,,,,,,,,,,,,,,,,,,,,,,,,,,,,,,,,,,,,,,,,,,,,,,,,,,,,,,,,,,,,,,,,,,,,,,,,,,,,,,,,,,,,,,,,,,,,,,48,1,2025-02-19_13h06.08.042,comp,2024.2.4,56.61765738135991,2025-02-19 13h09.29.236801 -0500,
0,0,0,,,,,,,,,,,,,,,0,0,0,0,,,,,,,,,22.499106407165527,,,,,,,,,,,,,,,,,,,,,,,,,,22.483651876449585,22.499106407165527,22.499106407165527,23.982752323150635,27.202475786209106,space,3.214418649673462,None,27.20262312889099,27.21940541267395,27.21940541267395,28.715498208999634,31.952534198760986,space,3.225517749786377,None,31.952681064605713,31.984652280807495,31.984652280807495,31.984652280807495,31.984652280807495,31.984652280807495,31.984652280807495,31.984652280807495,31.984652280807495,31.984652280807495,33.45676565170288,35.84006690979004,space,2.3807313442230225,None,35.84022521972656,35.85841345787048,35.85841345787048,35.85841345787048,37.35282373428345,39.040026903152466,space,1.6681771278381348,None,39.04018187522888,39.05456566810608,39.05456566810608,40.555115699768066,41.37103223800659,space,0.8018214702606201,None,41.37122893333435,41.39174675941467,41.39174675941467,42.44083380699158,space,1.0451397895812988,None,,,,,,,,,,,,,,,,,,,,,,,,,,,,,,,,,,,,,,,,,,,,,,,48,1,2025-02-19_13h06.08.042,comp,2024.2.4,56.61765738135991,2025-02-19 13h09.29.236801 -0500,
0,0,0,critical,hwd,20.0,4.0,lower,133.0,57.0,57.0,133.0,78.0,78.0,3,2.345069646835327,None,,,,,0,0,0,0,0,0,0,106,42.51591897010803,,,,,,,,,,,,,,,,,,,,,,,,,,,,,,,,,,,,,,,,,,,,,,,,,,,,,,,,,,,,,,,,,,,,,,,,,,,,,,,,,133.0,57.0,57.0,133.0,78.0,78.0,4.0,4.2,-191,-7,0,-254,202,14,42.49935436248779,42.499391317367554,42.50077247619629,42.51591897010803,42.66396474838257,42.66396474838257,42.66396474838257,42.66396474838257,42.66396474838257,42.66396474838257,42.66396474838257,44.87432074546814,3,2.345069646835327,None,,,,,,,,,,,,,,,,,,48,1,2025-02-19_13h06.08.042,comp,2024.2.4,56.61765738135991,2025-02-19 13h09.29.236801 -0500,
1,1,0,filler_random,None,None,None,None,None,None,None,None,None,None,3,2.8202149868011475,None,,,,,0,0,0,0,0,1,1,136,44.889750719070435,,,,,,,,,,,,,,,,,,,,,,,,,,,,,,,,,,,,,,,,,,,,,,,,,,,,,,,,,,,,,,,,,,,,,,,,,,,,,,,,,163.85645933354476,83.29818050816604,83.95780797074507,103.86042807823713,91.495286152625,133.81291797966105,4.0,4.2,-190,-1,0,-281,215,-3,44.87613534927368,44.876213788986206,44.87949180603027,44.889750719070435,45.04200530052185,45.04200530052185,45.04200530052185,45.04200530052185,45.04200530052185,45.04200530052185,45.04200530052185,47.71335196495056,3,2.8202149868011475,None,,,,,,,,,,,,,,,,,,48,1,2025-02-19_13h06.08.042,comp,2024.2.4,56.61765738135991,2025-02-19 13h09.29.236801 -0500,
2,2,0,critical,hwd,35.0,2.1,upper,200.0,125.0,125.0,200.0,127.0,127.0,2,4.699935674667358,None,,,,,0,0,0,0,0,2,2,41,47.72896194458008,,,,,,,,,,,,,,,,,,,,,,,,,,,,,,,,,,,,,,,,,,,,,,,,,,,,,,,,,,,,,,,,,,,,,,,,,,,,,,,,,200.0,125.0,125.0,200.0,127.0,127.0,2.1,2.11,-258,280,0,283,260,-250,47.71487593650818,47.71499037742615,47.71821856498718,47.72896194458008,47.87524437904358,47.87524437904358,47.87524437904358,47.87524437904358,47.87524437904358,47.87524437904358,47.87524437904358,52.44429564476013,2,4.699935674667358,None,,,,,,,,,,,,,,,,,,48,1,2025-02-19_13h06.08.042,comp,2024.2.4,56.61765738135991,2025-02-19 13h09.29.236801 -0500,
3,3,0,catch,None,None,None,None,None,None,None,None,None,None,3,1.7812795639038086,None,,,,,0,0,0,0,0,3,3,126,52.463818073272705,,,,,,,,,,,,,,,,,,,,,,,,,,,,,,,,,,,,,,,,,,,,,,,,,,,,,,,,,,,,,,,,,,,,,,,,,,,,,,,,,70,120,104,86,197,128,3.0,3.2,-199,-266,0,16,203,257,52.44613265991211,52.446209192276,52.44932961463928,52.463818073272705,52.611074924468994,52.611074924468994,52.611074924468994,52.611074924468994,52.611074924468994,52.611074924468994,52.611074924468994,54.25967359542847,3,1.7812795639038086,None,,,,,,,,,,,,,,,,,,48,1,2025-02-19_13h06.08.042,comp,2024.2.4,56.61765738135991,2025-02-19 13h09.29.236801 -0500,
4,4,0,critical,dwh,35.0,4.0,upper,127.0,127.0,125.0,200.0,200.0,125.0,2,1.4890077114105225,None,,,,,0,0,0,0,0,4,4,65,54.27577996253967,,,,,,,,,,,,,,,,,,,,,,,,,,,,,,,,,,,,,,,,,,,,,,,,,,,,,,,,,,,,,,,,,,,,,,,,,,,,,,,,,127.0,127.0,125.0,200.0,200.0,125.0,4.0,4.2,-260,18,0,-275,258,-16,54.26124954223633,54.26132869720459,54.26447296142578,54.27577996253967,54.4162974357605,54.4162974357605,54.4162974357605,54.4162974357605,54.4162974357605,54.4162974357605,54.4162974357605,55.7760534286499,2,1.4890077114105225,None,,,,,,,,,,,,,,,,,,48,1,2025-02-19_13h06.08.042,comp,2024.2.4,56.61765738135991,2025-02-19 13h09.29.236801 -0500,
5,5,0,critical,hdw,20.0,2.1,lower,133.0,57.0,78.0,78.0,57.0,133.0,3,1.1668004989624023,None,,,,,0,0,0,0,0,5,5,46,55.790436029434204,,,,,,,,,,,,,,,,,,,,,,,,,,,,,,,,,,,,,,,,,,,,,,,,,,,,,,,,,,,,,,,,,,,,,,,,,,,,,,,,,133.0,57.0,78.0,78.0,57.0,133.0,2.1,2.12,-164,-255,0,-265,202,278,55.7774760723114,55.77755069732666,55.78039860725403,55.790436029434204,55.945189237594604,55.945189237594604,55.945189237594604,55.945189237594604,55.945189237594604,55.945189237594604,55.945189237594604,56.96025037765503,3,1.1668004989624023,None,,,,,,,,,,,,,,,,,,48,1,2025-02-19_13h06.08.042,comp,2024.2.4,56.61765738135991,2025-02-19 13h09.29.236801 -0500,
6,6,0,critical,hdw,20.0,3.0,lower,133.0,57.0,78.0,78.0,57.0,133.0,2,1.2997384071350098,None,,,,,0,0,0,0,0,6,6,116,56.97715091705322,,,,,,,,,,,,,,,,,,,,,,,,,,,,,,,,,,,,,,,,,,,,,,,,,,,,,,,,,,,,,,,,,,,,,,,,,,,,,,,,,133.0,57.0,78.0,78.0,57.0,133.0,3.0,3.2,-164,-263,0,-16,202,290,56.961777448654175,56.96185517311096,56.965248823165894,56.97715091705322,57.11763620376587,57.11763620376587,57.11763620376587,57.11763620376587,57.11763620376587,57.11763620376587,57.11763620376587,58.27972602844238,2,1.2997384071350098,None,,,,,,,,,,,,,,,,,,48,1,2025-02-19_13h06.08.042,comp,2024.2.4,56.61765738135991,2025-02-19 13h09.29.236801 -0500,
7,7,0,critical,hwd,20.0,2.1,lower,133.0,57.0,57.0,133.0,78.0,78.0,2,2.548966884613037,None,,,,,0,0,0,0,0,7,7,42,58.29597759246826,,,,,,,,,,,,,,,,,,,,,,,,,,,,,,,,,,,,,,,,,,,,,,,,,,,,,,,,,,,,,,,,,,,,,,,,,,,,,,,,,133.0,57.0,57.0,133.0,78.0,78.0,2.1,2.12,-191,-269,0,-271,202,253,58.28125596046448,58.281333684921265,58.285234689712524,58.29597759246826,58.44425320625305,58.44425320625305,58.44425320625305,58.44425320625305,58.44425320625305,58.44425320625305,58.44425320625305,60.86205434799194,2,2.548966884613037,None,,,,,,,,,,,,,,,,,,48,1,2025-02-19_13h06.08.042,comp,2024.2.4,56.61765738135991,2025-02-19 13h09.29.236801 -0500,
8,8,0,filler_square,None,None,None,None,None,None,None,None,None,None,3,1.2280454635620117,None,,,,,0,0,0,0,0,8,8,188,60.88123631477356,,,,,,,,,,,,,,,,,,,,,,,,,,,,,,,,,,,,,,,,,,,,,,,,,,,,,,,,,,,,,,,,,,,,,,,,,,,,,,,,,115.28478326496096,107.75381642552065,131.42538054259728,75.87482900337595,139.27335844372038,139.27335844372038,1.0,1.2,-188,-18,0,2,204,-14,60.863683462142944,60.86375975608826,60.86679768562317,60.88123631477356,61.02941417694092,61.02941417694092,61.02941417694092,61.02941417694092,61.02941417694092,61.02941417694092,61.02941417694092,62.11227536201477,3,1.2280454635620117,None,,,,,,,,,,,,,,,,,,48,1,2025-02-19_13h06.08.042,comp,2024.2.4,56.61765738135991,2025-02-19 13h09.29.236801 -0500,
9,9,0,filler_random,None,None,None,None,None,None,None,None,None,None,2,3.1564736366271973,None,,,,,0,0,0,0,0,9,9,137,62.12840437889099,,,,,,,,,,,,,,,,,,,,,,,,,,,,,,,,,,,,,,,,,,,,,,,,,,,,,,,,,,,,,,,,,,,,,,,,,,,,,,,,,125.42056388010673,134.23882156600723,167.3419727475217,124.07296714069712,197.40020253842127,75.01422870525766,4.0,4.1,-225,-281,0,-12,196,-278,62.113893270492554,62.11400103569031,62.11708903312683,62.12840437889099,62.28504180908203,62.28504180908203,62.28504180908203,62.28504180908203,62.28504180908203,62.28504180908203,62.28504180908203,65.29633688926697,2,3.1564736366271973,None,,,,,,,,,,,,,,,,,,48,1,2025-02-19_13h06.08.042,comp,2024.2.4,56.61765738135991,2025-02-19 13h09.29.236801 -0500,
10,10,0,critical,hwd,35.0,2.1,upper,200.0,125.0,125.0,200.0,127.0,127.0,1,1.788196325302124,None,,,,,0,0,0,0,0,10,10,17,65.31283736228943,,,,,,,,,,,,,,,,,,,,,,,,,,,,,,,,,,,,,,,,,,,,,,,,,,,,,,,,,,,,,,,,,,,,,,,,,,,,,,,,,200.0,125.0,125.0,200.0,127.0,127.0,2.1,2.12,-258,-276,0,-264,260,281,65.2978765964508,65.2979884147644,65.30121898651123,65.31283736228943,65.47071838378906,65.47071838378906,65.47071838378906,65.47071838378906,65.47071838378906,65.47071838378906,65.47071838378906,67.114661693573,1,1.788196325302124,None,,,,,,,,,,,,,,,,,,48,1,2025-02-19_13h06.08.042,comp,2024.2.4,56.61765738135991,2025-02-19 13h09.29.236801 -0500,
11,11,0,filler_random,None,None,None,None,None,None,None,None,None,None,3,1.3710699081420898,None,,,,,0,0,0,0,0,11,11,132,67.12995100021362,,,,,,,,,,,,,,,,,,,,,,,,,,,,,,,,,,,,,,,,,,,,,,,,,,,,,,,,,,,,,,,,,,,,,,,,,,,,,,,,,138.53221953393975,163.53219093082706,70.55930802773855,58.33611431262214,144.89454861156503,191.57541495962707,3.0,3.1,-207,264,0,7,221,-266,67.1163341999054,67.11640882492065,67.11966156959534,67.12995100021362,67.27999544143677,67.27999544143677,67.27999544143677,67.27999544143677,67.27999544143677,67.27999544143677,67.27999544143677,68.51532864570618,3,1.3710699081420898,None,,,,,,,,,,,,,,,,,,48,1,2025-02-19_13h06.08.042,comp,2024.2.4,56.61765738135991,2025-02-19 13h09.29.236801 -0500,
12,12,0,critical,wdh,35.0,2.1,upper,125.0,200.0,127.0,127.0,200.0,125.0,1,4.034423351287842,None,,,,,0,0,0,0,0,12,12,33,68.53059554100037,,,,,,,,,,,,,,,,,,,,,,,,,,,,,,,,,,,,,,,,,,,,,,,,,,,,,,,,,,,,,,,,,,,,,,,,,,,,,,,,,125.0,200.0,127.0,127.0,200.0,125.0,2.1,2.12,-260,-276,0,-263,222,282,68.5167887210846,68.51686477661133,68.52028799057007,68.53059554100037,68.6921706199646,68.6921706199646,68.6921706199646,68.6921706199646,68.6921706199646,68.6921706199646,68.6921706199646,72.57425498962402,1,4.034423351287842,None,,,,,,,,,,,,,,,,,,48,1,2025-02-19_13h06.08.042,comp,2024.2.4,56.61765738135991,2025-02-19 13h09.29.236801 -0500,
13,13,0,filler_square,None,None,None,None,None,None,None,None,None,None,1,1.7572298049926758,None,,,,,0,0,0,0,0,13,13,192,72.5920798778534,,,,,,,,,,,,,,,,,,,,,,,,,,,,,,,,,,,,,,,,,,,,,,,,,,,,,,,,,,,,,,,,,,,,,,,,,,,,,,,,,81.80848674825617,81.80848674825617,68.99948260483858,58.53603451370114,61.04940056631812,72.53250259974641,3.0,3.2,-166,-267,0,-2,162,267,72.57600402832031,72.57607960700989,72.57883977890015,72.5920798778534,72.73334860801697,72.73334860801697,72.73334860801697,72.73334860801697,72.73334860801697,72.73334860801697,72.73334860801697,74.36440682411194,1,1.7572298049926758,None,,,,,,,,,,,,,,,,,,48,1,2025-02-19_13h06.08.042,comp,2024.2.4,56.61765738135991,2025-02-19 13h09.29.236801 -0500,
14,14,0,critical,hwd,35.0,3.0,upper,200.0,125.0,125.0,200.0,127.0,127.0,1,2.036048173904419,None,,,,,0,0,0,0,0,14,14,99,74.385094165802,,,,,,,,,,,,,,,,,,,,,,,,,,,,,,,,,,,,,,,,,,,,,,,,,,,,,,,,,,,,,,,,,,,,,,,,,,,,,,,,,200.0,125.0,125.0,200.0,127.0,127.0,3.0,3.2,-258,-265,0,9,260,262,74.36585259437561,74.36596155166626,74.36878776550293,74.385094165802,74.5317873954773,74.5317873954773,74.5317873954773,74.5317873954773,74.5317873954773,74.5317873954773,74.5317873954773,76.42381739616394,1,2.036048173904419,None,,,,,,,,,,,,,,,,,,48,1,2025-02-19_13h06.08.042,comp,2024.2.4,56.61765738135991,2025-02-19 13h09.29.236801 -0500,
15,15,0,critical,hdw,35.0,2.1,upper,200.0,125.0,127.0,127.0,125.0,200.0,3,1.2970764636993408,None,,,,,0,0,0,0,0,15,15,21,76.44388008117676,,,,,,,,,,,,,,,,,,,,,,,,,,,,,,,,,,,,,,,,,,,,,,,,,,,,,,,,,,,,,,,,,,,,,,,,,,,,,,,,,200.0,125.0,127.0,127.0,125.0,200.0,2.1,2.11,-222,282,0,255,260,-266,76.42533755302429,76.4254150390625,76.42819952964783,76.44388008117676,76.58499646186829,76.58499646186829,76.58499646186829,76.58499646186829,76.58499646186829,76.58499646186829,76.58499646186829,77.75122165679932,3,1.2970764636993408,None,,,,,,,,,,,,,,,,,,48,1,2025-02-19_13h06.08.042,comp,2024.2.4,56.61765738135991,2025-02-19 13h09.29.236801 -0500,
16,16,0,filler_square,None,None,None,None,None,None,None,None,None,None,1,1.1892178058624268,None,,,,,0,0,0,0,0,16,16,195,77.76773142814636,,,,,,,,,,,,,,,,,,,,,,,,,,,,,,,,,,,,,,,,,,,,,,,,,,,,,,,,,,,,,,,,,,,,,,,,,,,,,,,,,129.5546398733989,129.5546398733989,91.9049762185046,117.83152955176439,68.00333035913246,108.61255460696631,3.0,3.2,-220,-286,0,7,209,259,77.75315165519714,77.75323438644409,77.75652742385864,77.76773142814636,77.91842436790466,77.91842436790466,77.91842436790466,77.91842436790466,77.91842436790466,77.91842436790466,77.91842436790466,78.97124886512756,1,1.1892178058624268,None,,,,,,,,,,,,,,,,,,48,1,2025-02-19_13h06.08.042,comp,2024.2.4,56.61765738135991,2025-02-19 13h09.29.236801 -0500,
17,17,0,critical,hdw,20.0,4.0,upper,200.0,125.0,141.0,141.0,125.0,200.0,2,0.8712265491485596,None,,,,,0,0,0,0,0,17,17,119,78.99067616462708,,,,,,,,,,,,,,,,,,,,,,,,,,,,,,,,,,,,,,,,,,,,,,,,,,,,,,,,,,,,,,,,,,,,,,,,,,,,,,,,,200.0,125.0,141.0,141.0,125.0,200.0,4.0,4.2,-229,-2,0,-270,266,3,78.97295475006104,78.9730384349823,78.97619843482971,78.99067616462708,79.13569784164429,79.13569784164429,79.13569784164429,79.13569784164429,79.13569784164429,79.13569784164429,79.13569784164429,79.86886382102966,2,0.8712265491485596,None,,,,,,,,,,,,,,,,,,48,1,2025-02-19_13h06.08.042,comp,2024.2.4,56.61765738135991,2025-02-19 13h09.29.236801 -0500,
18,18,0,filler_random,None,None,None,None,None,None,None,None,None,None,2,1.3611645698547363,None,,,,,0,0,0,0,0,18,18,144,79.88466334342957,,,,,,,,,,,,,,,,,,,,,,,,,,,,,,,,,,,,,,,,,,,,,,,,,,,,,,,,,,,,,,,,,,,,,,,,,,,,,,,,,118.18465259617548,61.98569182323725,177.36148864042605,133.66267473319107,92.9797591599318,89.52263934675072,2.2,2.21,-194,-250,0,258,208,268,79.87057209014893,79.87065076828003,79.87394428253174,79.88466334342957,80.03362464904785,80.03362464904785,80.03362464904785,80.03362464904785,80.03362464904785,80.03362464904785,80.03362464904785,81.25284123420715,2,1.3611645698547363,None,,,,,,,,,,,,,,,,,,48,1,2025-02-19_13h06.08.042,comp,2024.2.4,56.61765738135991,2025-02-19 13h09.29.236801 -0500,
19,19,0,filler_random,None,None,None,None,None,None,None,None,None,None,3,0.9283242225646973,None,,,,,0,0,0,0,0,19,19,130,81.26888298988342,,,,,,,,,,,,,,,,,,,,,,,,,,,,,,,,,,,,,,,,,,,,,,,,,,,,,,,,,,,,,,,,,,,,,,,,,,,,,,,,,85.32114863306512,100.0146064372843,151.79016002973623,120.21880937040878,162.18898702063115,163.0418368389673,2.2,2.21,-206,-277,0,260,238,288,81.25446653366089,81.25454354286194,81.25772619247437,81.26888298988342,81.40753173828125,81.40753173828125,81.40753173828125,81.40753173828125,81.40753173828125,81.40753173828125,81.40753173828125,82.20337963104248,3,0.9283242225646973,None,,,,,,,,,,,,,,,,,,48,1,2025-02-19_13h06.08.042,comp,2024.2.4,56.61765738135991,2025-02-19 13h09.29.236801 -0500,
20,20,0,filler_random,None,None,None,None,None,None,None,None,None,None,3,1.3300228118896484,None,,,,,0,0,0,0,0,20,20,151,82.21906614303589,,,,,,,,,,,,,,,,,,,,,,,,,,,,,,,,,,,,,,,,,,,,,,,,,,,,,,,,,,,,,,,,,,,,,,,,,,,,,,,,,95.24132292392453,70.78300740846747,183.70069486087147,103.12005514948333,158.91691960503198,94.41151079462094,4.0,4.2,-183,8,0,-277,195,2,82.20501852035522,82.20509719848633,82.20850229263306,82.21906614303589,82.37162637710571,82.37162637710571,82.37162637710571,82.37162637710571,82.37162637710571,82.37162637710571,82.37162637710571,83.55412864685059,3,1.3300228118896484,None,,,,,,,,,,,,,,,,,,48,1,2025-02-19_13h06.08.042,comp,2024.2.4,56.61765738135991,2025-02-19 13h09.29.236801 -0500,
21,21,0,critical,wdh,20.0,1.0,upper,125.0,200.0,141.0,141.0,200.0,125.0,1,1.2747159004211426,None,,,,,0,0,0,0,0,21,21,79,83.57041811943054,,,,,,,,,,,,,,,,,,,,,,,,,,,,,,,,,,,,,,,,,,,,,,,,,,,,,,,,,,,,,,,,,,,,,,,,,,,,,,,,,125.0,200.0,141.0,141.0,200.0,125.0,1.0,1.3,214,-284,480,-275,709,-271,83.55566477775574,83.55574297904968,83.55967974662781,83.57041811943054,83.71857571601868,83.71857571601868,83.71857571601868,83.71857571601868,83.71857571601868,83.71857571601868,83.71857571601868,84.85350561141968,1,1.2747159004211426,None,,,,,,,,,,,,,,,,,,48,1,2025-02-19_13h06.08.042,comp,2024.2.4,56.61765738135991,2025-02-19 13h09.29.236801 -0500,
22,22,0,critical,wdh,20.0,4.0,upper,125.0,200.0,141.0,141.0,200.0,125.0,1,1.1911909580230713,None,,,,,0,0,0,0,0,22,22,83,84.87000060081482,,,,,,,,,,,,,,,,,,,,,,,,,,,,,,,,,,,,,,,,,,,,,,,,,,,,,,,,,,,,,,,,,,,,,,,,,,,,,,,,,125.0,200.0,141.0,141.0,200.0,125.0,4.0,4.1,-266,-255,0,-3,229,-257,84.85505390167236,84.85515713691711,84.85851788520813,84.87000060081482,85.017343044281,85.017343044281,85.017343044281,85.017343044281,85.017343044281,85.017343044281,85.017343044281,86.06521224975586,1,1.1911909580230713,None,,,,,,,,,,,,,,,,,,48,1,2025-02-19_13h06.08.042,comp,2024.2.4,56.61765738135991,2025-02-19 13h09.29.236801 -0500,
23,23,0,critical,dhw,20.0,2.1,lower,78.0,78.0,133.0,57.0,57.0,133.0,3,1.4111392498016357,None,,,,,0,0,0,0,0,23,23,2,86.08242440223694,,,,,,,,,,,,,,,,,,,,,,,,,,,,,,,,,,,,,,,,,,,,,,,,,,,,,,,,,,,,,,,,,,,,,,,,,,,,,,,,,78.0,78.0,133.0,57.0,57.0,133.0,2.1,2.11,-164,288,0,252,191,-274,86.06675601005554,86.06683349609375,86.06970453262329,86.08242440223694,86.21919655799866,86.21919655799866,86.21919655799866,86.21919655799866,86.21919655799866,86.21919655799866,86.21919655799866,87.5052661895752,3,1.4111392498016357,None,,,,,,,,,,,,,,,,,,48,1,2025-02-19_13h06.08.042,comp,2024.2.4,56.61765738135991,2025-02-19 13h09.29.236801 -0500,
24,24,0,catch,None,None,None,None,None,None,None,None,None,None,1,1.0512397289276123,None,,,,,0,0,0,0,0,24,24,127,87.52158069610596,,,,,,,,,,,,,,,,,,,,,,,,,,,,,,,,,,,,,,,,,,,,,,,,,,,,,,,,,,,,,,,,,,,,,,,,,,,,,,,,,140,185,105,85,83,107,2.2,2.22,-231,268,0,-267,192,-256,87.5073823928833,87.5074622631073,87.5107307434082,87.52158069610596,87.67485308647156,87.67485308647156,87.67485308647156,87.67485308647156,87.67485308647156,87.67485308647156,87.67485308647156,88.5878496170044,1,1.0512397289276123,None,,,,,,,,,,,,,,,,,,48,1,2025-02-19_13h06.08.042,comp,2024.2.4,56.61765738135991,2025-02-19 13h09.29.236801 -0500,
25,25,0,filler_random,None,None,None,None,None,None,None,None,None,None,3,1.2258872985839844,None,,,,,0,0,0,0,0,25,25,150,88.603590965271,,,,,,,,,,,,,,,,,,,,,,,,,,,,,,,,,,,,,,,,,,,,,,,,,,,,,,,,,,,,,,,,,,,,,,,,,,,,,,,,,108.49474351429438,109.7858355423487,194.21551322335358,57.11681701470703,69.1150702940525,193.02158136147136,4.0,4.1,-179,-286,0,18,221,-272,88.58979535102844,88.5898756980896,88.59321570396423,88.603590965271,88.75637555122375,88.75637555122375,88.75637555122375,88.75637555122375,88.75637555122375,88.75637555122375,88.75637555122375,89.83864283561707,3,1.2258872985839844,None,,,,,,,,,,,,,,,,,,48,1,2025-02-19_13h06.08.042,comp,2024.2.4,56.61765738135991,2025-02-19 13h09.29.236801 -0500,
26,26,0,filler_square,None,None,None,None,None,None,None,None,None,None,3,1.0536773204803467,None,,,,,0,0,0,0,0,26,26,187,89.85531806945801,,,,,,,,,,,,,,,,,,,,,,,,,,,,,,,,,,,,,,,,,,,,,,,,,,,,,,,,,,,,,,,,,,,,,,,,,,,,,,,,,80.2447630972374,83.5188566964802,81.16788510921734,71.70512182494534,104.1228489466517,104.1228489466517,1.0,1.1,-654,271,-480,288,-296,263,89.84040999412537,89.84048581123352,89.84460210800171,89.85531806945801,90.00351786613464,90.00351786613464,90.00351786613464,90.00351786613464,90.00351786613464,90.00351786613464,90.00351786613464,90.92141437530518,3,1.0536773204803467,None,,,,,,,,,,,,,,,,,,48,1,2025-02-19_13h06.08.042,comp,2024.2.4,56.61765738135991,2025-02-19 13h09.29.236801 -0500,
27,27,0,filler_square,None,None,None,None,None,None,None,None,None,None,2,0.9255094528198242,None,,,,,0,0,0,0,0,27,27,202,90.93707036972046,,,,,,,,,,,,,,,,,,,,,,,,,,,,,,,,,,,,,,,,,,,,,,,,,,,,,,,,,,,,,,,,,,,,,,,,,,,,,,,,,179.91349244652616,112.30930696425051,187.90385244647285,187.90385244647285,151.317562759051,135.81240990255162,2.2,2.21,-246,-276,0,279,258,269,90.92315649986267,90.92323136329651,90.92642378807068,90.93707036972046,91.09401369094849,91.09401369094849,91.09401369094849,91.09401369094849,91.09401369094849,91.09401369094849,91.09401369094849,91.88129019737244,2,0.9255094528198242,None,,,,,,,,,,,,,,,,,,48,1,2025-02-19_13h06.08.042,comp,2024.2.4,56.61765738135991,2025-02-19 13h09.29.236801 -0500,
28,28,0,critical,hwd,20.0,3.0,upper,200.0,125.0,125.0,200.0,141.0,141.0,2,0.9033293724060059,None,,,,,0,0,0,0,0,28,28,105,91.90162992477417,,,,,,,,,,,,,,,,,,,,,,,,,,,,,,,,,,,,,,,,,,,,,,,,,,,,,,,,,,,,,,,,,,,,,,,,,,,,,,,,,200.0,125.0,125.0,200.0,141.0,141.0,3.0,3.1,-258,288,0,13,266,-289,91.88286876678467,91.88297843933105,91.88626742362976,91.90162992477417,92.03905391693115,92.03905391693115,92.03905391693115,92.03905391693115,92.03905391693115,92.03905391693115,92.03905391693115,92.82199382781982,2,0.9033293724060059,None,,,,,,,,,,,,,,,,,,48,1,2025-02-19_13h06.08.042,comp,2024.2.4,56.61765738135991,2025-02-19 13h09.29.236801 -0500,
29,29,0,filler_random,None,None,None,None,None,None,None,None,None,None,3,1.0589346885681152,None,,,,,0,0,0,0,0,29,29,131,92.84243154525757,,,,,,,,,,,,,,,,,,,,,,,,,,,,,,,,,,,,,,,,,,,,,,,,,,,,,,,,,,,,,,,,,,,,,,,,,,,,,,,,,66.9792664816776,96.4593364399665,121.57433150214078,136.61152648200846,87.0723470575942,155.97119136247025,2.1,2.12,-213,-253,0,-269,242,279,92.82373762130737,92.82384920120239,92.82705616950989,92.84243154525757,92.98967480659485,92.98967480659485,92.98967480659485,92.98967480659485,92.98967480659485,92.98967480659485,92.98967480659485,93.90525937080383,3,1.0589346885681152,None,,,,,,,,,,,,,,,,,,48,1,2025-02-19_13h06.08.042,comp,2024.2.4,56.61765738135991,2025-02-19 13h09.29.236801 -0500,
30,30,0,filler_random,None,None,None,None,None,None,None,None,None,None,3,2.137394666671753,None,,,,,0,0,0,0,0,30,30,168,93.9236536026001,,,,,,,,,,,,,,,,,,,,,,,,,,,,,,,,,,,,,,,,,,,,,,,,,,,,,,,,,,,,,,,,,,,,,,,,,,,,,,,,,162.6097620420631,58.30670509640798,148.46175559026196,86.000358283972,159.52644398776278,177.77631622649005,2.1,2.11,-168,284,0,252,228,-253,93.90708899497986,93.9072163105011,93.91045928001404,93.9236536026001,94.07394242286682,94.07394242286682,94.07394242286682,94.07394242286682,94.07394242286682,94.07394242286682,94.07394242286682,96.07676219940186,3,2.137394666671753,None,,,,,,,,,,,,,,,,,,48,1,2025-02-19_13h06.08.042,comp,2024.2.4,56.61765738135991,2025-02-19 13h09.29.236801 -0500,
31,31,0,filler_random,None,None,None,None,None,None,None,None,None,None,1,1.040694236755371,None,,,,,0,0,0,0,0,31,31,142,96.09284043312073,,,,,,,,,,,,,,,,,,,,,,,,,,,,,,,,,,,,,,,,,,,,,,,,,,,,,,,,,,,,,,,,,,,,,,,,,,,,,,,,,176.3507274952192,153.82854390576898,196.03577122053588,63.40442831109043,96.8894280041411,58.56947209248625,2.1,2.12,-205,-287,0,-266,157,290,96.07863235473633,96.07871150970459,96.08253979682922,96.09284043312073,96.24146795272827,96.24146795272827,96.24146795272827,96.24146795272827,96.24146795272827,96.24146795272827,96.24146795272827,97.13941359519958,1,1.040694236755371,None,,,,,,,,,,,,,,,,,,48,1,2025-02-19_13h06.08.042,comp,2024.2.4,56.61765738135991,2025-02-19 13h09.29.236801 -0500,
32,32,0,critical,whd,35.0,4.0,lower,57.0,133.0,133.0,57.0,70.0,70.0,3,1.6691579818725586,None,,,,,0,0,0,0,0,32,32,88,97.1598014831543,,,,,,,,,,,,,,,,,,,,,,,,,,,,,,,,,,,,,,,,,,,,,,,,,,,,,,,,,,,,,,,,,,,,,,,,,,,,,,,,,57.0,133.0,133.0,57.0,70.0,70.0,4.0,4.2,-191,-14,0,-267,160,-8,97.1409981250763,97.14107465744019,97.14430904388428,97.1598014831543,97.31083869934082,97.31083869934082,97.31083869934082,97.31083869934082,97.31083869934082,97.31083869934082,97.31083869934082,98.8425407409668,3,1.6691579818725586,None,,,,,,,,,,,,,,,,,,48,1,2025-02-19_13h06.08.042,comp,2024.2.4,56.61765738135991,2025-02-19 13h09.29.236801 -0500,
33,33,0,catch,None,None,None,None,None,None,None,None,None,None,1,1.3917131423950195,None,,,,,0,0,0,0,0,33,33,123,98.861248254776,,,,,,,,,,,,,,,,,,,,,,,,,,,,,,,,,,,,,,,,,,,,,,,,,,,,,,,,,,,,,,,,,,,,,,,,,,,,,,,,,150,175,74,116,76,114,1.0,1.3,238,-280,480,-257,691,-257,98.84464049339294,98.84472346305847,98.84835362434387,98.861248254776,99.00793719291687,99.00793719291687,99.00793719291687,99.00793719291687,99.00793719291687,99.00793719291687,99.00793719291687,100.26833844184875,1,1.3917131423950195,None,,,,,,,,,,,,,,,,,,48,1,2025-02-19_13h06.08.042,comp,2024.2.4,56.61765738135991,2025-02-19 13h09.29.236801 -0500,
34,34,0,critical,hdw,35.0,2.1,upper,200.0,125.0,127.0,127.0,125.0,200.0,3,1.3992388248443604,None,,,,,0,0,0,0,0,34,34,45,100.28620767593384,,,,,,,,,,,,,,,,,,,,,,,,,,,,,,,,,,,,,,,,,,,,,,,,,,,,,,,,,,,,,,,,,,,,,,,,,,,,,,,,,200.0,125.0,127.0,127.0,125.0,200.0,2.1,2.12,-222,-258,0,-290,260,262,100.26984763145447,100.26996684074402,100.27275323867798,100.28620767593384,100.42445015907288,100.42445015907288,100.42445015907288,100.42445015907288,100.42445015907288,100.42445015907288,100.42445015907288,101.69240427017212,3,1.3992388248443604,None,,,,,,,,,,,,,,,,,,48,1,2025-02-19_13h06.08.042,comp,2024.2.4,56.61765738135991,2025-02-19 13h09.29.236801 -0500,
35,35,0,critical,dwh,35.0,2.1,lower,70.0,70.0,57.0,133.0,133.0,57.0,2,1.5368871688842773,None,,,,,0,0,0,0,0,35,35,28,101.70816493034363,,,,,,,,,,,,,,,,,,,,,,,,,,,,,,,,,,,,,,,,,,,,,,,,,,,,,,,,,,,,,,,,,,,,,,,,,,,,,,,,,70.0,70.0,57.0,133.0,133.0,57.0,2.1,2.12,-198,-253,0,-253,191,258,101.69401383399963,101.69411563873291,101.69748497009277,101.70816493034363,101.86616134643555,101.86616134643555,101.86616134643555,101.86616134643555,101.86616134643555,101.86616134643555,101.86616134643555,103.25914478302002,2,1.5368871688842773,None,,,,,,,,,,,,,,,,,,48,1,2025-02-19_13h06.08.042,comp,2024.2.4,56.61765738135991,2025-02-19 13h09.29.236801 -0500,
36,36,0,filler_random,None,None,None,None,None,None,None,None,None,None,3,1.081789493560791,None,,,,,0,0,0,0,0,36,36,160,103.27549743652344,,,,,,,,,,,,,,,,,,,,,,,,,,,,,,,,,,,,,,,,,,,,,,,,,,,,,,,,,,,,,,,,,,,,,,,,,,,,,,,,,115.75999617328543,134.284768358955,101.9590783969586,113.68814418645866,137.09428427208067,185.3474591803548,2.2,2.22,-220,262,0,-255,246,-257,103.26081466674805,103.2608892917633,103.26403594017029,103.27549743652344,103.42600274085999,103.42600274085999,103.42600274085999,103.42600274085999,103.42600274085999,103.42600274085999,103.42600274085999,104.37554955482483,3,1.081789493560791,None,,,,,,,,,,,,,,,,,,48,1,2025-02-19_13h06.08.042,comp,2024.2.4,56.61765738135991,2025-02-19 13h09.29.236801 -0500,
37,37,0,filler_random,None,None,None,None,None,None,None,None,None,None,1,1.1108269691467285,None,,,,,0,0,0,0,0,37,37,139,104.3984272480011,,,,,,,,,,,,,,,,,,,,,,,,,,,,,,,,,,,,,,,,,,,,,,,,,,,,,,,,,,,,,,,,,,,,,,,,,,,,,,,,,150.86830725974085,173.76389833448437,175.8128199278566,89.62991687742002,118.09206077909433,74.0001059232996,2.2,2.22,-228,272,0,-279,178,-281,104.37720036506653,104.37727522850037,104.38028073310852,104.3984272480011,104.5432915687561,104.5432915687561,104.5432915687561,104.5432915687561,104.5432915687561,104.5432915687561,104.5432915687561,105.52650761604309,1,1.1108269691467285,None,,,,,,,,,,,,,,,,,,48,1,2025-02-19_13h06.08.042,comp,2024.2.4,56.61765738135991,2025-02-19 13h09.29.236801 -0500,
38,38,0,filler_square,None,None,None,None,None,None,None,None,None,None,2,1.3186817169189453,None,,,,,0,0,0,0,0,38,38,193,105.54227447509766,,,,,,,,,,,,,,,,,,,,,,,,,,,,,,,,,,,,,,,,,,,,,,,,,,,,,,,,,,,,,,,,,,,,,,,,,,,,,,,,,75.39182772353753,114.78793721082033,122.61920772214717,122.61920772214717,65.47441001153334,80.5987949199853,1.0,1.3,265,-257,480,-268,678,-268,105.52853202819824,105.52860736846924,105.53194308280945,105.54227447509766,105.6935875415802,105.6935875415802,105.6935875415802,105.6935875415802,105.6935875415802,105.6935875415802,105.6935875415802,106.87900114059448,2,1.3186817169189453,None,,,,,,,,,,,,,,,,,,48,1,2025-02-19_13h06.08.042,comp,2024.2.4,56.61765738135991,2025-02-19 13h09.29.236801 -0500,
39,39,0,catch,None,None,None,None,None,None,None,None,None,None,3,2.5110490322113037,None,,,,,0,0,0,0,0,39,39,129,106.89527106285095,,,,,,,,,,,,,,,,,,,,,,,,,,,,,,,,,,,,,,,,,,,,,,,,,,,,,,,,,,,,,,,,,,,,,,,,,,,,,,,,,66,124,151,174,68,122,2.1,2.11,-245,279,0,276,244,-267,106.88125038146973,106.8813271522522,106.88484215736389,106.89527106285095,107.04375624656677,107.04375624656677,107.04375624656677,107.04375624656677,107.04375624656677,107.04375624656677,107.04375624656677,109.41357469558716,3,2.5110490322113037,None,,,,,,,,,,,,,,,,,,48,1,2025-02-19_13h06.08.042,comp,2024.2.4,56.61765738135991,2025-02-19 13h09.29.236801 -0500,
40,40,0,critical,dhw,35.0,4.0,upper,127.0,127.0,200.0,125.0,125.0,200.0,3,1.3179914951324463,None,,,,,0,0,0,0,0,40,40,53,109.43122434616089,,,,,,,,,,,,,,,,,,,,,,,,,,,,,,,,,,,,,,,,,,,,,,,,,,,,,,,,,,,,,,,,,,,,,,,,,,,,,,,,,127.0,127.0,200.0,125.0,125.0,200.0,4.0,4.1,-222,-254,0,-4,258,-286,109.41532707214355,109.41540336608887,109.4183886051178,109.43122434616089,109.58086085319519,109.58086085319519,109.58086085319519,109.58086085319519,109.58086085319519,109.58086085319519,109.58086085319519,110.75259184837341,3,1.3179914951324463,None,,,,,,,,,,,,,,,,,,48,1,2025-02-19_13h06.08.042,comp,2024.2.4,56.61765738135991,2025-02-19 13h09.29.236801 -0500,
41,41,0,critical,dhw,35.0,3.0,upper,127.0,127.0,200.0,125.0,125.0,200.0,3,3.2839784622192383,None,,,,,0,0,0,0,0,41,41,51,110.77068376541138,,,,,,,,,,,,,,,,,,,,,,,,,,,,,,,,,,,,,,,,,,,,,,,,,,,,,,,,,,,,,,,,,,,,,,,,,,,,,,,,,127.0,127.0,200.0,125.0,125.0,200.0,3.0,3.2,-222,-290,0,-12,258,290,110.7542073726654,110.7542839050293,110.75749111175537,110.77068376541138,110.91062092781067,110.91062092781067,110.91062092781067,110.91062092781067,110.91062092781067,110.91062092781067,110.91062092781067,114.0655620098114,3,3.2839784622192383,None,,,,,,,,,,,,,,,,,,48,1,2025-02-19_13h06.08.042,comp,2024.2.4,56.61765738135991,2025-02-19 13h09.29.236801 -0500,
42,42,0,critical,hwd,35.0,1.0,upper,200.0,125.0,125.0,200.0,127.0,127.0,2,1.4195337295532227,None,,,,,0,0,0,0,0,42,42,97,114.08141231536865,,,,,,,,,,,,,,,,,,,,,,,,,,,,,,,,,,,,,,,,,,,,,,,,,,,,,,,,,,,,,,,,,,,,,,,,,,,,,,,,,200.0,125.0,125.0,200.0,127.0,127.0,1.0,1.2,-258,-5,0,-11,260,5,114.0671956539154,114.06727242469788,114.07061529159546,114.08141231536865,114.22974824905396,114.22974824905396,114.22974824905396,114.22974824905396,114.22974824905396,114.22974824905396,114.22974824905396,115.51556181907654,2,1.4195337295532227,None,,,,,,,,,,,,,,,,,,48,1,2025-02-19_13h06.08.042,comp,2024.2.4,56.61765738135991,2025-02-19 13h09.29.236801 -0500,
43,43,0,critical,dhw,35.0,1.0,upper,127.0,127.0,200.0,125.0,125.0,200.0,3,2.1940276622772217,None,,,,,0,0,0,0,0,43,43,49,115.53134870529175,,,,,,,,,,,,,,,,,,,,,,,,,,,,,,,,,,,,,,,,,,,,,,,,,,,,,,,,,,,,,,,,,,,,,,,,,,,,,,,,,127.0,127.0,200.0,125.0,125.0,200.0,1.0,1.2,-222,-15,0,-16,258,-17,115.51715159416199,115.51722884178162,115.52053332328796,115.53134870529175,115.67984199523926,115.67984199523926,115.67984199523926,115.67984199523926,115.67984199523926,115.67984199523926,115.67984199523926,117.7295036315918,3,2.1940276622772217,None,,,,,,,,,,,,,,,,,,48,1,2025-02-19_13h06.08.042,comp,2024.2.4,56.61765738135991,2025-02-19 13h09.29.236801 -0500,
44,44,0,filler_square,None,None,None,None,None,None,None,None,None,None,3,1.0509343147277832,None,,,,,0,0,0,0,0,44,44,191,117.74601101875305,,,,,,,,,,,,,,,,,,,,,,,,,,,,,,,,,,,,,,,,,,,,,,,,,,,,,,,,,,,,,,,,,,,,,,,,,,,,,,,,,73.08701371003434,175.34037778869993,145.1604122402096,82.94294751151534,181.43384459025742,181.43384459025742,2.1,2.11,-225,277,0,276,228,-285,117.73124670982361,117.7313232421875,117.73444724082947,117.74601101875305,117.89715242385864,117.89715242385864,117.89715242385864,117.89715242385864,117.89715242385864,117.89715242385864,117.89715242385864,118.81277704238892,3,1.0509343147277832,None,,,,,,,,,,,,,,,,,,48,1,2025-02-19_13h06.08.042,comp,2024.2.4,56.61765738135991,2025-02-19 13h09.29.236801 -0500,
45,45,0,filler_random,None,None,None,None,None,None,None,None,None,None,1,0.9445397853851318,None,,,,,0,0,0,0,0,45,45,143,118.82911682128906,,,,,,,,,,,,,,,,,,,,,,,,,,,,,,,,,,,,,,,,,,,,,,,,,,,,,,,,,,,,,,,,,,,,,,,,,,,,,,,,,99.91505776673232,161.25523043755993,174.22106427020833,119.95633854323519,148.64134121184514,61.51069088730049,3.0,3.2,-237,-276,0,15,187,269,118.81454873085022,118.81467819213867,118.817950963974,118.82911682128906,118.9818115234375,118.9818115234375,118.9818115234375,118.9818115234375,118.9818115234375,118.9818115234375,118.9818115234375,119.77875399589539,1,0.9445397853851318,None,,,,,,,,,,,,,,,,,,48,1,2025-02-19_13h06.08.042,comp,2024.2.4,56.61765738135991,2025-02-19 13h09.29.236801 -0500,
46,46,0,critical,wdh,20.0,2.1,upper,125.0,200.0,141.0,141.0,200.0,125.0,3,0.9544873237609863,None,,,,,0,0,0,0,0,46,46,35,119.79456853866577,,,,,,,,,,,,,,,,,,,,,,,,,,,,,,,,,,,,,,,,,,,,,,,,,,,,,,,,,,,,,,,,,,,,,,,,,,,,,,,,,125.0,200.0,141.0,141.0,200.0,125.0,2.1,2.12,-266,-257,0,-281,229,270,119.78042483329773,119.7805004119873,119.78371000289917,119.79456853866577,119.94781875610352,119.94781875610352,119.94781875610352,119.94781875610352,119.94781875610352,119.94781875610352,119.94781875610352,120.75204586982727,3,0.9544873237609863,None,,,,,,,,,,,,,,,,,,48,1,2025-02-19_13h06.08.042,comp,2024.2.4,56.61765738135991,2025-02-19 13h09.29.236801 -0500,
47,47,0,critical,dhw,20.0,2.1,upper,141.0,141.0,200.0,125.0,125.0,200.0,3,0.99027419090271,None,,,,,0,0,0,0,0,47,47,3,120.76729917526245,,,,,,,,,,,,,,,,,,,,,,,,,,,,,,,,,,,,,,,,,,,,,,,,,,,,,,,,,,,,,,,,,,,,,,,,,,,,,,,,,141.0,141.0,200.0,125.0,125.0,200.0,2.1,2.12,-229,-251,0,-288,258,251,120.7536952495575,120.75377368927002,120.7567446231842,120.76729917526245,120.91520047187805,120.91520047187805,120.91520047187805,120.91520047187805,120.91520047187805,120.91520047187805,120.91520047187805,121.76513910293579,3,0.99027419090271,None,,,,,,,,,,,,,,,,,,48,1,2025-02-19_13h06.08.042,comp,2024.2.4,56.61765738135991,2025-02-19 13h09.29.236801 -0500,
48,48,0,critical,whd,20.0,2.1,upper,125.0,200.0,200.0,125.0,141.0,141.0,1,1.6399707794189453,None,,,,,0,0,0,0,0,48,48,39,121.78100442886353,,,,,,,,,,,,,,,,,,,,,,,,,,,,,,,,,,,,,,,,,,,,,,,,,,,,,,,,,,,,,,,,,,,,,,,,,,,,,,,,,125.0,200.0,200.0,125.0,141.0,141.0,2.1,2.12,-258,-286,0,-277,229,269,121.76676297187805,121.76685070991516,121.7702522277832,121.78100442886353,121.93226838111877,121.93226838111877,121.93226838111877,121.93226838111877,121.93226838111877,121.93226838111877,121.93226838111877,123.43048334121704,1,1.6399707794189453,None,,,,,,,,,,,,,,,,,,48,1,2025-02-19_13h06.08.042,comp,2024.2.4,56.61765738135991,2025-02-19 13h09.29.236801 -0500,
49,49,0,critical,wdh,20.0,2.1,lower,57.0,133.0,78.0,78.0,133.0,57.0,2,1.0464239120483398,None,,,,,0,0,0,0,0,49,49,10,123.44710922241211,,,,,,,,,,,,,,,,,,,,,,,,,,,,,,,,,,,,,,,,,,,,,,,,,,,,,,,,,,,,,,,,,,,,,,,,,,,,,,,,,57.0,133.0,78.0,78.0,133.0,57.0,2.1,2.12,-202,-256,0,-251,164,277,123.43202614784241,123.43210172653198,123.43531799316406,123.44710922241211,123.5948555469513,123.5948555469513,123.5948555469513,123.5948555469513,123.5948555469513,123.5948555469513,123.5948555469513,124.50056171417236,2,1.0464239120483398,None,,,,,,,,,,,,,,,,,,48,1,2025-02-19_13h06.08.042,comp,2024.2.4,56.61765738135991,2025-02-19 13h09.29.236801 -0500,
50,50,0,critical,dhw,20.0,2.1,lower,78.0,78.0,133.0,57.0,57.0,133.0,3,1.0101385116577148,None,,,,,0,0,0,0,0,50,50,26,124.51631283760071,,,,,,,,,,,,,,,,,,,,,,,,,,,,,,,,,,,,,,,,,,,,,,,,,,,,,,,,,,,,,,,,,,,,,,,,,,,,,,,,,78.0,78.0,133.0,57.0,57.0,133.0,2.1,2.12,-164,-272,0,-278,191,258,124.50219011306763,124.50226664543152,124.50561118125916,124.51631283760071,124.6731321811676,124.6731321811676,124.6731321811676,124.6731321811676,124.6731321811676,124.6731321811676,124.6731321811676,125.53414750099182,3,1.0101385116577148,None,,,,,,,,,,,,,,,,,,48,1,2025-02-19_13h06.08.042,comp,2024.2.4,56.61765738135991,2025-02-19 13h09.29.236801 -0500,
51,51,0,critical,dwh,20.0,2.1,lower,78.0,78.0,57.0,133.0,133.0,57.0,1,1.1064929962158203,None,,,,,0,0,0,0,0,51,51,6,125.5550684928894,,,,,,,,,,,,,,,,,,,,,,,,,,,,,,,,,,,,,,,,,,,,,,,,,,,,,,,,,,,,,,,,,,,,,,,,,,,,,,,,,78.0,78.0,57.0,133.0,133.0,57.0,2.1,2.11,-202,252,0,251,191,-288,125.53559637069702,125.53567290306091,125.53862714767456,125.5550684928894,125.69955134391785,125.69955134391785,125.69955134391785,125.69955134391785,125.69955134391785,125.69955134391785,125.69955134391785,126.66654562950134,1,1.1064929962158203,None,,,,,,,,,,,,,,,,,,48,1,2025-02-19_13h06.08.042,comp,2024.2.4,56.61765738135991,2025-02-19 13h09.29.236801 -0500,
52,52,0,critical,dhw,20.0,4.0,upper,141.0,141.0,200.0,125.0,125.0,200.0,3,1.3148565292358398,None,,,,,0,0,0,0,0,52,52,59,126.68223524093628,,,,,,,,,,,,,,,,,,,,,,,,,,,,,,,,,,,,,,,,,,,,,,,,,,,,,,,,,,,,,,,,,,,,,,,,,,,,,,,,,141.0,141.0,200.0,125.0,125.0,200.0,4.0,4.2,-229,-14,0,-282,258,-14,126.66801238059998,126.66811418533325,126.67145895957947,126.68223524093628,126.83523750305176,126.83523750305176,126.83523750305176,126.83523750305176,126.83523750305176,126.83523750305176,126.83523750305176,128.00634574890137,3,1.3148565292358398,None,,,,,,,,,,,,,,,,,,48,1,2025-02-19_13h06.08.042,comp,2024.2.4,56.61765738135991,2025-02-19 13h09.29.236801 -0500,
53,53,0,critical,whd,35.0,3.0,lower,57.0,133.0,133.0,57.0,70.0,70.0,2,0.9715778827667236,None,,,,,0,0,0,0,0,53,53,86,128.02294063568115,,,,,,,,,,,,,,,,,,,,,,,,,,,,,,,,,,,,,,,,,,,,,,,,,,,,,,,,,,,,,,,,,,,,,,,,,,,,,,,,,57.0,133.0,133.0,57.0,70.0,70.0,3.0,3.1,-191,271,0,18,160,-268,128.00784921646118,128.0079584121704,128.01125478744507,128.02294063568115,128.1661159992218,128.1661159992218,128.1661159992218,128.1661159992218,128.1661159992218,128.1661159992218,128.1661159992218,129.011492729187,2,0.9715778827667236,None,,,,,,,,,,,,,,,,,,48,1,2025-02-19_13h06.08.042,comp,2024.2.4,56.61765738135991,2025-02-19 13h09.29.236801 -0500,
54,54,0,critical,hdw,35.0,3.0,upper,200.0,125.0,127.0,127.0,125.0,200.0,2,1.5578477382659912,None,,,,,0,0,0,0,0,54,54,111,129.0313994884491,,,,,,,,,,,,,,,,,,,,,,,,,,,,,,,,,,,,,,,,,,,,,,,,,,,,,,,,,,,,,,,,,,,,,,,,,,,,,,,,,200.0,125.0,127.0,127.0,125.0,200.0,3.0,3.2,-222,-276,0,-17,260,266,129.01304817199707,129.01312494277954,129.0159454345703,129.0313994884491,129.16477751731873,129.16477751731873,129.16477751731873,129.16477751731873,129.16477751731873,129.16477751731873,129.16477751731873,130.59138178825378,2,1.5578477382659912,None,,,,,,,,,,,,,,,,,,48,1,2025-02-19_13h06.08.042,comp,2024.2.4,56.61765738135991,2025-02-19 13h09.29.236801 -0500,
55,55,0,critical,hdw,35.0,4.0,lower,133.0,57.0,70.0,70.0,57.0,133.0,3,2.022353172302246,None,,,,,0,0,0,0,0,55,55,112,130.6071650981903,,,,,,,,,,,,,,,,,,,,,,,,,,,,,,,,,,,,,,,,,,,,,,,,,,,,,,,,,,,,,,,,,,,,,,,,,,,,,,,,,133.0,57.0,70.0,70.0,57.0,133.0,4.0,4.1,-160,-260,0,17,198,-261,130.59293413162231,130.5930197238922,130.5958375930786,130.6071650981903,130.7572569847107,130.7572569847107,130.7572569847107,130.7572569847107,130.7572569847107,130.7572569847107,130.7572569847107,132.63721227645874,3,2.022353172302246,None,,,,,,,,,,,,,,,,,,48,1,2025-02-19_13h06.08.042,comp,2024.2.4,56.61765738135991,2025-02-19 13h09.29.236801 -0500,
56,56,0,critical,whd,20.0,3.0,upper,125.0,200.0,200.0,125.0,141.0,141.0,3,2.151705741882324,None,,,,,0,0,0,0,0,56,56,93,132.65333819389343,,,,,,,,,,,,,,,,,,,,,,,,,,,,,,,,,,,,,,,,,,,,,,,,,,,,,,,,,,,,,,,,,,,,,,,,,,,,,,,,,125.0,200.0,200.0,125.0,141.0,141.0,3.0,3.2,-258,-272,0,-20,229,259,132.6388862133026,132.6390426158905,132.64248776435852,132.65333819389343,132.80180263519287,132.80180263519287,132.80180263519287,132.80180263519287,132.80180263519287,132.80180263519287,132.80180263519287,134.81938552856445,3,2.151705741882324,None,,,,,,,,,,,,,,,,,,48,1,2025-02-19_13h06.08.042,comp,2024.2.4,56.61765738135991,2025-02-19 13h09.29.236801 -0500,
57,57,0,critical,hdw,20.0,2.1,lower,133.0,57.0,78.0,78.0,57.0,133.0,3,1.0820682048797607,None,,,,,0,0,0,0,0,57,57,22,134.83513975143433,,,,,,,,,,,,,,,,,,,,,,,,,,,,,,,,,,,,,,,,,,,,,,,,,,,,,,,,,,,,,,,,,,,,,,,,,,,,,,,,,133.0,57.0,78.0,78.0,57.0,133.0,2.1,2.12,-164,-253,0,-262,202,286,134.82085013389587,134.82095003128052,134.8248255252838,134.83513975143433,134.98648524284363,134.98648524284363,134.98648524284363,134.98648524284363,134.98648524284363,134.98648524284363,134.98648524284363,135.9235053062439,3,1.0820682048797607,None,,,,,,,,,,,,,,,,,,48,1,2025-02-19_13h06.08.042,comp,2024.2.4,56.61765738135991,2025-02-19 13h09.29.236801 -0500,
58,58,0,filler_random,None,None,None,None,None,None,None,None,None,None,2,1.6619653701782227,None,,,,,0,0,0,0,0,58,58,157,135.9431667327881,,,,,,,,,,,,,,,,,,,,,,,,,,,,,,,,,,,,,,,,,,,,,,,,,,,,,,,,,,,,,,,,,,,,,,,,,,,,,,,,,167.1890228505095,71.12234531133738,187.1824500997554,101.9389075327919,83.6394859996999,61.71196060258306,1.0,1.1,-663,270,-480,261,-302,286,135.92525601387024,135.92533349990845,135.92814016342163,135.9431667327881,136.0856065750122,136.0856065750122,136.0856065750122,136.0856065750122,136.0856065750122,136.0856065750122,136.0856065750122,137.61984014511108,2,1.6619653701782227,None,,,,,,,,,,,,,,,,,,48,1,2025-02-19_13h06.08.042,comp,2024.2.4,56.61765738135991,2025-02-19 13h09.29.236801 -0500,
59,59,0,critical,whd,20.0,4.0,lower,57.0,133.0,133.0,57.0,78.0,78.0,3,1.3135650157928467,None,,,,,0,0,0,0,0,59,59,94,137.6354901790619,,,,,,,,,,,,,,,,,,,,,,,,,,,,,,,,,,,,,,,,,,,,,,,,,,,,,,,,,,,,,,,,,,,,,,,,,,,,,,,,,57.0,133.0,133.0,57.0,78.0,78.0,4.0,4.2,-191,5,0,-286,164,-2,137.62140440940857,137.621479511261,137.62488436698914,137.6354901790619,137.79402232170105,137.79402232170105,137.79402232170105,137.79402232170105,137.79402232170105,137.79402232170105,137.79402232170105,138.96162486076355,3,1.3135650157928467,None,,,,,,,,,,,,,,,,,,48,1,2025-02-19_13h06.08.042,comp,2024.2.4,56.61765738135991,2025-02-19 13h09.29.236801 -0500,
60,60,0,filler_random,None,None,None,None,None,None,None,None,None,None,1,0.8916950225830078,None,,,,,0,0,0,0,0,60,60,152,138.97740578651428,,,,,,,,,,,,,,,,,,,,,,,,,,,,,,,,,,,,,,,,,,,,,,,,,,,,,,,,,,,,,,,,,,,,,,,,,,,,,,,,,187.62054279080692,199.7426263378314,123.8133425167287,97.25572065776193,167.83714284577832,64.3275998917099,2.1,2.11,-244,265,0,287,177,-274,138.96337985992432,138.96345829963684,138.9666337966919,138.97740578651428,139.11938738822937,139.11938738822937,139.11938738822937,139.11938738822937,139.11938738822937,139.11938738822937,139.11938738822937,139.88115048408508,1,0.8916950225830078,None,,,,,,,,,,,,,,,,,,48,1,2025-02-19_13h06.08.042,comp,2024.2.4,56.61765738135991,2025-02-19 13h09.29.236801 -0500,
61,61,0,filler_random,None,None,None,None,None,None,None,None,None,None,1,0.9030673503875732,None,,,,,0,0,0,0,0,61,61,138,139.9019811153412,,,,,,,,,,,,,,,,,,,,,,,,,,,,,,,,,,,,,,,,,,,,,,,,,,,,,,,,,,,,,,,,,,,,,,,,,,,,,,,,,161.27928295379314,189.53223602014435,188.72580444682464,73.84221356025603,108.73566803341521,62.34304944133183,2.1,2.12,-228,-267,0,-265,164,259,139.88285875320435,139.88297080993652,139.8861849308014,139.9019811153412,140.03753876686096,140.03753876686096,140.03753876686096,140.03753876686096,140.03753876686096,140.03753876686096,140.03753876686096,140.83139181137085,1,0.9030673503875732,None,,,,,,,,,,,,,,,,,,48,1,2025-02-19_13h06.08.042,comp,2024.2.4,56.61765738135991,2025-02-19 13h09.29.236801 -0500,
62,62,0,critical,hdw,20.0,2.1,upper,200.0,125.0,141.0,141.0,125.0,200.0,2,3.1409101486206055,None,,,,,0,0,0,0,0,62,62,23,140.84839916229248,,,,,,,,,,,,,,,,,,,,,,,,,,,,,,,,,,,,,,,,,,,,,,,,,,,,,,,,,,,,,,,,,,,,,,,,,,,,,,,,,200.0,125.0,141.0,141.0,125.0,200.0,2.1,2.11,-229,251,0,284,266,-284,140.83287906646729,140.8329758644104,140.83577871322632,140.84839916229248,140.9903860092163,140.9903860092163,140.9903860092163,140.9903860092163,140.9903860092163,140.9903860092163,140.9903860092163,143.9918487071991,2,3.1409101486206055,None,,,,,,,,,,,,,,,,,,48,1,2025-02-19_13h06.08.042,comp,2024.2.4,56.61765738135991,2025-02-19 13h09.29.236801 -0500,
63,63,0,filler_random,None,None,None,None,None,None,None,None,None,None,1,1.3896512985229492,None,,,,,0,0,0,0,0,63,63,133,144.00788974761963,,,,,,,,,,,,,,,,,,,,,,,,,,,,,,,,,,,,,,,,,,,,,,,,,,,,,,,,,,,,,,,,,,,,,,,,,,,,,,,,,117.03278456284175,101.93907131283429,154.63775238965619,60.820749994159826,188.85229815342774,84.33730004341018,3.0,3.2,-177,-276,0,-15,169,265,143.99386620521545,143.99397444725037,143.99708676338196,144.00788974761963,144.15628695487976,144.15628695487976,144.15628695487976,144.15628695487976,144.15628695487976,144.15628695487976,144.15628695487976,145.406067609787,1,1.3896512985229492,None,,,,,,,,,,,,,,,,,,48,1,2025-02-19_13h06.08.042,comp,2024.2.4,56.61765738135991,2025-02-19 13h09.29.236801 -0500,
64,64,0,critical,whd,35.0,1.0,upper,125.0,200.0,200.0,125.0,127.0,127.0,2,1.1754791736602783,None,,,,,0,0,0,0,0,64,64,85,145.42152309417725,,,,,,,,,,,,,,,,,,,,,,,,,,,,,,,,,,,,,,,,,,,,,,,,,,,,,,,,,,,,,,,,,,,,,,,,,,,,,,,,,125.0,200.0,200.0,125.0,127.0,127.0,1.0,1.2,-258,20,0,-4,222,14,145.40758538246155,145.40766286849976,145.41095113754272,145.42152309417725,145.57112574577332,145.57112574577332,145.57112574577332,145.57112574577332,145.57112574577332,145.57112574577332,145.57112574577332,146.60771417617798,2,1.1754791736602783,None,,,,,,,,,,,,,,,,,,48,1,2025-02-19_13h06.08.042,comp,2024.2.4,56.61765738135991,2025-02-19 13h09.29.236801 -0500,
65,65,0,critical,whd,35.0,4.0,upper,125.0,200.0,200.0,125.0,127.0,127.0,3,1.7739677429199219,None,,,,,0,0,0,0,0,65,65,89,146.6237349510193,,,,,,,,,,,,,,,,,,,,,,,,,,,,,,,,,,,,,,,,,,,,,,,,,,,,,,,,,,,,,,,,,,,,,,,,,,,,,,,,,125.0,200.0,200.0,125.0,127.0,127.0,4.0,4.1,-258,-259,0,18,222,-255,146.60930681228638,146.60938096046448,146.6129331588745,146.6237349510193,146.77683997154236,146.77683997154236,146.77683997154236,146.77683997154236,146.77683997154236,146.77683997154236,146.77683997154236,148.40718007087708,3,1.7739677429199219,None,,,,,,,,,,,,,,,,,,48,1,2025-02-19_13h06.08.042,comp,2024.2.4,56.61765738135991,2025-02-19 13h09.29.236801 -0500,
66,66,0,critical,wdh,35.0,2.1,upper,125.0,200.0,127.0,127.0,200.0,125.0,3,1.2948408126831055,None,,,,,0,0,0,0,0,66,66,9,148.4227375984192,,,,,,,,,,,,,,,,,,,,,,,,,,,,,,,,,,,,,,,,,,,,,,,,,,,,,,,,,,,,,,,,,,,,,,,,,,,,,,,,,125.0,200.0,127.0,127.0,200.0,125.0,2.1,2.11,-260,274,0,279,222,-270,148.40864753723145,148.4087257385254,148.41203331947327,148.4227375984192,148.57467317581177,148.57467317581177,148.57467317581177,148.57467317581177,148.57467317581177,148.57467317581177,148.57467317581177,149.72383737564087,3,1.2948408126831055,None,,,,,,,,,,,,,,,,,,48,1,2025-02-19_13h06.08.042,comp,2024.2.4,56.61765738135991,2025-02-19 13h09.29.236801 -0500,
67,67,0,filler_random,None,None,None,None,None,None,None,None,None,None,2,0.8413190841674805,None,,,,,0,0,0,0,0,67,67,141,149.74020648002625,,,,,,,,,,,,,,,,,,,,,,,,,,,,,,,,,,,,,,,,,,,,,,,,,,,,,,,,,,,,,,,,,,,,,,,,,,,,,,,,,172.05422965731987,80.33003924827327,181.05204546313257,160.2386323736073,58.402316786844914,67.55115518106207,3.0,3.2,-216,-288,0,-10,210,261,149.7255277633667,149.72560811042786,149.7295482158661,149.74020648002625,149.89208006858826,149.89208006858826,149.89208006858826,149.89208006858826,149.89208006858826,149.89208006858826,149.89208006858826,150.59106922149658,2,0.8413190841674805,None,,,,,,,,,,,,,,,,,,48,1,2025-02-19_13h06.08.042,comp,2024.2.4,56.61765738135991,2025-02-19 13h09.29.236801 -0500,
68,68,0,filler_square,None,None,None,None,None,None,None,None,None,None,1,0.9105513095855713,None,,,,,0,0,0,0,0,68,68,189,150.6070795059204,,,,,,,,,,,,,,,,,,,,,,,,,,,,,,,,,,,,,,,,,,,,,,,,,,,,,,,,,,,,,,,,,,,,,,,,,,,,,,,,,162.2910691086131,162.2910691086131,150.66780156349125,106.64415923156085,109.84249620074044,116.2016459692203,3.0,3.2,-230,-259,0,-2,207,278,150.5928463935852,150.59296083450317,150.5962634086609,150.6070795059204,150.75624537467957,150.75624537467957,150.75624537467957,150.75624537467957,150.75624537467957,150.75624537467957,150.75624537467957,151.5236418247223,1,0.9105513095855713,None,,,,,,,,,,,,,,,,,,48,1,2025-02-19_13h06.08.042,comp,2024.2.4,56.61765738135991,2025-02-19 13h09.29.236801 -0500,
69,69,0,critical,wdh,35.0,4.0,upper,125.0,200.0,127.0,127.0,200.0,125.0,3,1.4576551914215088,None,,,,,0,0,0,0,0,69,69,77,151.54013681411743,,,,,,,,,,,,,,,,,,,,,,,,,,,,,,,,,,,,,,,,,,,,,,,,,,,,,,,,,,,,,,,,,,,,,,,,,,,,,,,,,125.0,200.0,127.0,127.0,200.0,125.0,4.0,4.2,-260,-4,0,-284,222,-3,151.52513766288757,151.52521443367004,151.5282266139984,151.54013681411743,151.69144701957703,151.69144701957703,151.69144701957703,151.69144701957703,151.69144701957703,151.69144701957703,151.69144701957703,152.99976778030396,3,1.4576551914215088,None,,,,,,,,,,,,,,,,,,48,1,2025-02-19_13h06.08.042,comp,2024.2.4,56.61765738135991,2025-02-19 13h09.29.236801 -0500,
70,70,0,filler_random,None,None,None,None,None,None,None,None,None,None,3,1.517669677734375,None,,,,,0,0,0,0,0,70,70,162,153.01582837104797,,,,,,,,,,,,,,,,,,,,,,,,,,,,,,,,,,,,,,,,,,,,,,,,,,,,,,,,,,,,,,,,,,,,,,,,,,,,,,,,,164.32746433386586,135.3511620549441,112.06031235919406,102.57601355597006,185.9066601345532,121.85574830699221,2.1,2.11,-215,267,0,254,208,-266,153.00153803825378,153.00166749954224,153.00493001937866,153.01582837104797,153.15836834907532,153.15836834907532,153.15836834907532,153.15836834907532,153.15836834907532,153.15836834907532,153.15836834907532,154.5419945716858,3,1.517669677734375,None,,,,,,,,,,,,,,,,,,48,1,2025-02-19_13h06.08.042,comp,2024.2.4,56.61765738135991,2025-02-19 13h09.29.236801 -0500,
71,71,0,critical,dwh,20.0,2.1,upper,141.0,141.0,125.0,200.0,200.0,125.0,2,0.9514851570129395,None,,,,,0,0,0,0,0,71,71,31,154.5575556755066,,,,,,,,,,,,,,,,,,,,,,,,,,,,,,,,,,,,,,,,,,,,,,,,,,,,,,,,,,,,,,,,,,,,,,,,,,,,,,,,,141.0,141.0,125.0,200.0,200.0,125.0,2.1,2.12,-266,-278,0,-266,258,289,154.54350447654724,154.54358386993408,154.5468680858612,154.5575556755066,154.7101707458496,154.7101707458496,154.7101707458496,154.7101707458496,154.7101707458496,154.7101707458496,154.7101707458496,155.52564358711243,2,0.9514851570129395,None,,,,,,,,,,,,,,,,,,48,1,2025-02-19_13h06.08.042,comp,2024.2.4,56.61765738135991,2025-02-19 13h09.29.236801 -0500,
72,72,0,critical,whd,35.0,2.1,upper,125.0,200.0,200.0,125.0,127.0,127.0,1,1.0066502094268799,None,,,,,0,0,0,0,0,72,72,37,155.54278588294983,,,,,,,,,,,,,,,,,,,,,,,,,,,,,,,,,,,,,,,,,,,,,,,,,,,,,,,,,,,,,,,,,,,,,,,,,,,,,,,,,125.0,200.0,200.0,125.0,127.0,127.0,2.1,2.11,-258,262,0,278,222,-267,155.52714467048645,155.5272195339203,155.5302016735077,155.54278588294983,155.6955258846283,155.6955258846283,155.6955258846283,155.6955258846283,155.6955258846283,155.6955258846283,155.6955258846283,156.55817246437073,1,1.0066502094268799,None,,,,,,,,,,,,,,,,,,48,1,2025-02-19_13h06.08.042,comp,2024.2.4,56.61765738135991,2025-02-19 13h09.29.236801 -0500,
73,73,0,filler_square,None,None,None,None,None,None,None,None,None,None,2,0.9911205768585205,None,,,,,0,0,0,0,0,73,73,173,156.57385158538818,,,,,,,,,,,,,,,,,,,,,,,,,,,,,,,,,,,,,,,,,,,,,,,,,,,,,,,,,,,,,,,,,,,,,,,,,,,,,,,,,110.36789066922722,96.12210448326573,120.03490796599667,120.03490796599667,78.2730476532939,99.24621377935213,4.0,4.2,-204,-18,0,-283,206,-1,156.55982303619385,156.55991864204407,156.56287479400635,156.57385158538818,156.7220814228058,156.7220814228058,156.7220814228058,156.7220814228058,156.7220814228058,156.7220814228058,156.7220814228058,157.57532501220703,2,0.9911205768585205,None,,,,,,,,,,,,,,,,,,48,1,2025-02-19_13h06.08.042,comp,2024.2.4,56.61765738135991,2025-02-19 13h09.29.236801 -0500,
74,74,0,critical,hdw,35.0,1.0,upper,200.0,125.0,127.0,127.0,125.0,200.0,3,1.218419075012207,None,,,,,0,0,0,0,0,74,74,109,157.59477138519287,,,,,,,,,,,,,,,,,,,,,,,,,,,,,,,,,,,,,,,,,,,,,,,,,,,,,,,,,,,,,,,,,,,,,,,,,,,,,,,,,200.0,125.0,127.0,127.0,125.0,200.0,1.0,1.3,258,-266,480,-257,740,-272,157.57682967185974,157.57692551612854,157.57994747161865,157.59477138519287,157.74289107322693,157.74289107322693,157.74289107322693,157.74289107322693,157.74289107322693,157.74289107322693,157.74289107322693,158.81503796577454,3,1.218419075012207,None,,,,,,,,,,,,,,,,,,48,1,2025-02-19_13h06.08.042,comp,2024.2.4,56.61765738135991,2025-02-19 13h09.29.236801 -0500,
75,75,0,filler_square,None,None,None,None,None,None,None,None,None,None,1,1.4785823822021484,None,,,,,0,0,0,0,0,75,75,200,158.83048915863037,,,,,,,,,,,,,,,,,,,,,,,,,,,,,,,,,,,,,,,,,,,,,,,,,,,,,,,,,,,,,,,,,,,,,,,,,,,,,,,,,57.30556887552085,57.325244771661346,57.266779956480896,57.02234003061612,57.80749352040831,57.80749352040831,3.0,3.2,-153,-276,0,-18,153,256,158.81677889823914,158.81685543060303,158.81974744796753,158.83048915863037,158.9767780303955,158.9767780303955,158.9767780303955,158.9767780303955,158.9767780303955,158.9767780303955,158.9767780303955,160.31435227394104,1,1.4785823822021484,None,,,,,,,,,,,,,,,,,,48,1,2025-02-19_13h06.08.042,comp,2024.2.4,56.61765738135991,2025-02-19 13h09.29.236801 -0500,
76,76,0,critical,hdw,20.0,4.0,lower,133.0,57.0,78.0,78.0,57.0,133.0,1,1.034984827041626,None,,,,,0,0,0,0,0,76,76,118,160.33000707626343,,,,,,,,,,,,,,,,,,,,,,,,,,,,,,,,,,,,,,,,,,,,,,,,,,,,,,,,,,,,,,,,,,,,,,,,,,,,,,,,,133.0,57.0,78.0,78.0,57.0,133.0,4.0,4.1,-164,-251,0,15,202,-268,160.31629920005798,160.31643176078796,160.31942749023438,160.33000707626343,160.478600025177,160.478600025177,160.478600025177,160.478600025177,160.478600025177,160.478600025177,160.478600025177,161.37912607192993,1,1.034984827041626,None,,,,,,,,,,,,,,,,,,48,1,2025-02-19_13h06.08.042,comp,2024.2.4,56.61765738135991,2025-02-19 13h09.29.236801 -0500,
77,77,0,critical,dhw,35.0,4.0,lower,70.0,70.0,133.0,57.0,57.0,133.0,2,1.301832914352417,None,,,,,0,0,0,0,0,77,77,52,161.40037989616394,,,,,,,,,,,,,,,,,,,,,,,,,,,,,,,,,,,,,,,,,,,,,,,,,,,,,,,,,,,,,,,,,,,,,,,,,,,,,,,,,70.0,70.0,133.0,57.0,57.0,133.0,4.0,4.2,-160,-20,0,-287,191,5,161.3806848526001,161.38076257705688,161.38405656814575,161.40037989616394,161.54400539398193,161.54400539398193,161.54400539398193,161.54400539398193,161.54400539398193,161.54400539398193,161.54400539398193,162.70812106132507,2,1.301832914352417,None,,,,,,,,,,,,,,,,,,48,1,2025-02-19_13h06.08.042,comp,2024.2.4,56.61765738135991,2025-02-19 13h09.29.236801 -0500,
78,78,0,critical,hdw,35.0,4.0,upper,200.0,125.0,127.0,127.0,125.0,200.0,3,0.9033050537109375,None,,,,,0,0,0,0,0,78,78,113,162.72571563720703,,,,,,,,,,,,,,,,,,,,,,,,,,,,,,,,,,,,,,,,,,,,,,,,,,,,,,,,,,,,,,,,,,,,,,,,,,,,,,,,,200.0,125.0,127.0,127.0,125.0,200.0,4.0,4.2,-222,-10,0,-264,260,4,162.70967555046082,162.70975065231323,162.71298575401306,162.72571563720703,162.8612449169159,162.8612449169159,162.8612449169159,162.8612449169159,162.8612449169159,162.8612449169159,162.8612449169159,163.64432287216187,3,0.9033050537109375,None,,,,,,,,,,,,,,,,,,48,1,2025-02-19_13h06.08.042,comp,2024.2.4,56.61765738135991,2025-02-19 13h09.29.236801 -0500,
79,79,0,filler_random,None,None,None,None,None,None,None,None,None,None,1,1.2089142799377441,None,,,,,0,0,0,0,0,79,79,159,163.66068410873413,,,,,,,,,,,,,,,,,,,,,,,,,,,,,,,,,,,,,,,,,,,,,,,,,,,,,,,,,,,,,,,,,,,,,,,,,,,,,,,,,126.10605378761812,104.38354098687029,94.25260281287707,189.514185936764,174.39931626609,116.39527699991939,2.1,2.12,-243,-262,0,-288,249,273,163.64609146118164,163.64616513252258,163.6493673324585,163.66068410873413,163.8170657157898,163.8170657157898,163.8170657157898,163.8170657157898,163.8170657157898,163.8170657157898,163.8170657157898,164.88051843643188,1,1.2089142799377441,None,,,,,,,,,,,,,,,,,,48,1,2025-02-19_13h06.08.042,comp,2024.2.4,56.61765738135991,2025-02-19 13h09.29.236801 -0500,
80,80,0,critical,dwh,35.0,4.0,lower,70.0,70.0,57.0,133.0,133.0,57.0,3,1.4502079486846924,None,,,,,0,0,0,0,0,80,80,64,164.89886951446533,,,,,,,,,,,,,,,,,,,,,,,,,,,,,,,,,,,,,,,,,,,,,,,,,,,,,,,,,,,,,,,,,,,,,,,,,,,,,,,,,70.0,70.0,57.0,133.0,133.0,57.0,4.0,4.2,-198,-1,0,-286,191,6,164.88216352462769,164.8822410106659,164.88580012321472,164.89886951446533,165.04871010780334,165.04871010780334,165.04871010780334,165.04871010780334,165.04871010780334,165.04871010780334,165.04871010780334,166.36431741714478,3,1.4502079486846924,None,,,,,,,,,,,,,,,,,,48,1,2025-02-19_13h06.08.042,comp,2024.2.4,56.61765738135991,2025-02-19 13h09.29.236801 -0500,
81,81,0,filler_square,None,None,None,None,None,None,None,None,None,None,2,1.128476858139038,None,,,,,0,0,0,0,0,81,81,177,166.38060307502747,,,,,,,,,,,,,,,,,,,,,,,,,,,,,,,,,,,,,,,,,,,,,,,,,,,,,,,,,,,,,,,,,,,,,,,,,,,,,,,,,82.00689340718924,59.93420432427454,96.10017106549367,96.10017106549367,74.79282614268503,90.92053005066208,3.0,3.1,-174,285,0,-11,190,-287,166.3664629459381,166.3665406703949,166.37015652656555,166.38060307502747,166.53076076507568,166.53076076507568,166.53076076507568,166.53076076507568,166.53076076507568,166.53076076507568,166.53076076507568,167.51366329193115,2,1.128476858139038,None,,,,,,,,,,,,,,,,,,48,1,2025-02-19_13h06.08.042,comp,2024.2.4,56.61765738135991,2025-02-19 13h09.29.236801 -0500,
82,82,0,filler_random,None,None,None,None,None,None,None,None,None,None,2,1.0268144607543945,None,,,,,0,0,0,0,0,82,82,146,167.5307490825653,,,,,,,,,,,,,,,,,,,,,,,,,,,,,,,,,,,,,,,,,,,,,,,,,,,,,,,,,,,,,,,,,,,,,,,,,,,,,,,,,145.1079380407213,108.0325052226249,170.98047553857313,170.37042992352625,178.36465730920253,138.59906840961708,1.0,1.2,-235,-11,0,-13,250,8,167.51531529426575,167.51539278030396,167.51922416687012,167.5307490825653,167.6821324825287,167.6821324825287,167.6821324825287,167.6821324825287,167.6821324825287,167.6821324825287,167.6821324825287,168.56317687034607,2,1.0268144607543945,None,,,,,,,,,,,,,,,,,,48,1,2025-02-19_13h06.08.042,comp,2024.2.4,56.61765738135991,2025-02-19 13h09.29.236801 -0500,
83,83,0,critical,wdh,35.0,2.1,lower,57.0,133.0,70.0,70.0,133.0,57.0,1,0.9704160690307617,None,,,,,0,0,0,0,0,83,83,32,168.57873392105103,,,,,,,,,,,,,,,,,,,,,,,,,,,,,,,,,,,,,,,,,,,,,,,,,,,,,,,,,,,,,,,,,,,,,,,,,,,,,,,,,57.0,133.0,70.0,70.0,133.0,57.0,2.1,2.11,-198,281,0,251,160,-253,168.5646505355835,168.56472659111023,168.56805539131165,168.57873392105103,168.730224609375,168.730224609375,168.730224609375,168.730224609375,168.730224609375,168.730224609375,168.730224609375,169.56206560134888,1,0.9704160690307617,None,,,,,,,,,,,,,,,,,,48,1,2025-02-19_13h06.08.042,comp,2024.2.4,56.61765738135991,2025-02-19 13h09.29.236801 -0500,
84,84,0,critical,hdw,35.0,1.0,lower,133.0,57.0,70.0,70.0,57.0,133.0,3,0.8508362770080566,None,,,,,0,0,0,0,0,84,84,108,169.57823705673218,,,,,,,,,,,,,,,,,,,,,,,,,,,,,,,,,,,,,,,,,,,,,,,,,,,,,,,,,,,,,,,,,,,,,,,,,,,,,,,,,133.0,57.0,70.0,70.0,57.0,133.0,1.0,1.3,320,-266,480,-253,678,-272,169.56359720230103,169.56367206573486,169.56688737869263,169.57823705673218,169.72658681869507,169.72658681869507,169.72658681869507,169.72658681869507,169.72658681869507,169.72658681869507,169.72658681869507,170.43120288848877,3,0.8508362770080566,None,,,,,,,,,,,,,,,,,,48,1,2025-02-19_13h06.08.042,comp,2024.2.4,56.61765738135991,2025-02-19 13h09.29.236801 -0500,
85,85,0,filler_random,None,None,None,None,None,None,None,None,None,None,2,0.9657719135284424,None,,,,,0,0,0,0,0,85,85,135,170.44771814346313,,,,,,,,,,,,,,,,,,,,,,,,,,,,,,,,,,,,,,,,,,,,,,,,,,,,,,,,,,,,,,,,,,,,,,,,,,,,,,,,,182.8377671229814,145.00831377059353,119.88313678577683,92.2331813232957,76.86936968652746,89.53750652659345,4.0,4.2,-215,2,0,-261,187,-6,170.43299913406372,170.43313574790955,170.4371018409729,170.44771814346313,170.5971953868866,170.5971953868866,170.5971953868866,170.5971953868866,170.5971953868866,170.5971953868866,170.5971953868866,171.43133449554443,2,0.9657719135284424,None,,,,,,,,,,,,,,,,,,48,1,2025-02-19_13h06.08.042,comp,2024.2.4,56.61765738135991,2025-02-19 13h09.29.236801 -0500,
86,86,0,critical,hwd,35.0,4.0,lower,133.0,57.0,57.0,133.0,70.0,70.0,3,2.086728572845459,None,,,,,0,0,0,0,0,86,86,100,171.44655227661133,,,,,,,,,,,,,,,,,,,,,,,,,,,,,,,,,,,,,,,,,,,,,,,,,,,,,,,,,,,,,,,,,,,,,,,,,,,,,,,,,133.0,57.0,57.0,133.0,70.0,70.0,4.0,4.1,-191,-273,0,10,198,-276,171.4328498840332,171.43295288085938,171.43628025054932,171.44655227661133,171.59587955474854,171.59587955474854,171.59587955474854,171.59587955474854,171.59587955474854,171.59587955474854,171.59587955474854,173.5355384349823,3,2.086728572845459,None,,,,,,,,,,,,,,,,,,48,1,2025-02-19_13h06.08.042,comp,2024.2.4,56.61765738135991,2025-02-19 13h09.29.236801 -0500,
87,87,0,filler_random,None,None,None,None,None,None,None,None,None,None,2,1.0806949138641357,None,,,,,0,0,0,0,0,87,87,149,173.55638027191162,,,,,,,,,,,,,,,,,,,,,,,,,,,,,,,,,,,,,,,,,,,,,,,,,,,,,,,,,,,,,,,,,,,,,,,,,,,,,,,,,129.7578027745975,79.57751040011033,148.43076934841582,96.80224307077991,73.98963521625639,91.02123469391884,3.0,3.1,-184,268,0,-19,190,-254,173.53760886192322,173.537748336792,173.54069805145264,173.55638027191162,173.6989893913269,173.6989893913269,173.6989893913269,173.6989893913269,173.6989893913269,173.6989893913269,173.6989893913269,174.64898014068604,2,1.0806949138641357,None,,,,,,,,,,,,,,,,,,48,1,2025-02-19_13h06.08.042,comp,2024.2.4,56.61765738135991,2025-02-19 13h09.29.236801 -0500,
88,88,0,critical,hwd,20.0,2.1,lower,133.0,57.0,57.0,133.0,78.0,78.0,3,1.140235424041748,None,,,,,0,0,0,0,0,88,88,18,174.66500401496887,,,,,,,,,,,,,,,,,,,,,,,,,,,,,,,,,,,,,,,,,,,,,,,,,,,,,,,,,,,,,,,,,,,,,,,,,,,,,,,,,133.0,57.0,57.0,133.0,78.0,78.0,2.1,2.11,-191,268,0,278,202,-259,174.65051007270813,174.65058422088623,174.65471959114075,174.66500401496887,174.81235480308533,174.81235480308533,174.81235480308533,174.81235480308533,174.81235480308533,174.81235480308533,174.81235480308533,175.81443119049072,3,1.140235424041748,None,,,,,,,,,,,,,,,,,,48,1,2025-02-19_13h06.08.042,comp,2024.2.4,56.61765738135991,2025-02-19 13h09.29.236801 -0500,
89,89,0,critical,dwh,35.0,2.1,upper,127.0,127.0,125.0,200.0,200.0,125.0,2,0.9865667819976807,None,,,,,0,0,0,0,0,89,89,29,175.83524203300476,,,,,,,,,,,,,,,,,,,,,,,,,,,,,,,,,,,,,,,,,,,,,,,,,,,,,,,,,,,,,,,,,,,,,,,,,,,,,,,,,127.0,127.0,125.0,200.0,200.0,125.0,2.1,2.11,-260,256,0,254,258,-277,175.81604671478271,175.81612515449524,175.8194842338562,175.83524203300476,175.98239254951477,175.98239254951477,175.98239254951477,175.98239254951477,175.98239254951477,175.98239254951477,175.98239254951477,176.83253574371338,2,0.9865667819976807,None,,,,,,,,,,,,,,,,,,48,1,2025-02-19_13h06.08.042,comp,2024.2.4,56.61765738135991,2025-02-19 13h09.29.236801 -0500,
90,90,0,critical,hdw,20.0,1.0,upper,200.0,125.0,141.0,141.0,125.0,200.0,3,1.0841314792633057,None,,,,,0,0,0,0,0,90,90,115,176.84896397590637,,,,,,,,,,,,,,,,,,,,,,,,,,,,,,,,,,,,,,,,,,,,,,,,,,,,,,,,,,,,,,,,,,,,,,,,,,,,,,,,,200.0,125.0,141.0,141.0,125.0,200.0,1.0,1.2,-229,-3,0,-3,266,17,176.83415007591248,176.83422780036926,176.8383526802063,176.84896397590637,176.997456073761,176.997456073761,176.997456073761,176.997456073761,176.997456073761,176.997456073761,176.997456073761,177.9501805305481,3,1.0841314792633057,None,,,,,,,,,,,,,,,,,,48,1,2025-02-19_13h06.08.042,comp,2024.2.4,56.61765738135991,2025-02-19 13h09.29.236801 -0500,
91,91,0,critical,wdh,35.0,3.0,upper,125.0,200.0,127.0,127.0,200.0,125.0,3,1.2954504489898682,None,,,,,0,0,0,0,0,91,91,75,177.96597170829773,,,,,,,,,,,,,,,,,,,,,,,,,,,,,,,,,,,,,,,,,,,,,,,,,,,,,,,,,,,,,,,,,,,,,,,,,,,,,,,,,125.0,200.0,127.0,127.0,200.0,125.0,3.0,3.2,-260,-273,0,14,222,276,177.95167446136475,177.95175075531006,177.95567965507507,177.96597170829773,178.11623334884644,178.11623334884644,178.11623334884644,178.11623334884644,178.11623334884644,178.11623334884644,178.11623334884644,179.2827661037445,3,1.2954504489898682,None,,,,,,,,,,,,,,,,,,48,1,2025-02-19_13h06.08.042,comp,2024.2.4,56.61765738135991,2025-02-19 13h09.29.236801 -0500,
92,92,0,filler_square,None,None,None,None,None,None,None,None,None,None,1,0.8738296031951904,None,,,,,0,0,0,0,0,92,92,171,179.29926133155823,,,,,,,,,,,,,,,,,,,,,,,,,,,,,,,,,,,,,,,,,,,,,,,,,,,,,,,,,,,,,,,,,,,,,,,,,,,,,,,,,166.52719003649472,166.52719003649472,93.98561147406221,75.11462422613347,152.90417677822677,121.9158915056607,3.0,3.1,-217,264,0,3,195,-263,179.28470635414124,179.28478980064392,179.2880551815033,179.29926133155823,179.44873189926147,179.44873189926147,179.44873189926147,179.44873189926147,179.44873189926147,179.44873189926147,179.44873189926147,180.1842896938324,1,0.8738296031951904,None,,,,,,,,,,,,,,,,,,48,1,2025-02-19_13h06.08.042,comp,2024.2.4,56.61765738135991,2025-02-19 13h09.29.236801 -0500,
93,93,0,filler_square,None,None,None,None,None,None,None,None,None,None,2,1.0125017166137695,None,,,,,0,0,0,0,0,93,93,181,180.20062971115112,,,,,,,,,,,,,,,,,,,,,,,,,,,,,,,,,,,,,,,,,,,,,,,,,,,,,,,,,,,,,,,,,,,,,,,,,,,,,,,,,110.62477808720676,88.43333094161676,162.17373378532932,162.17373378532932,146.8919548448432,67.08996953981028,2.1,2.12,-221,-269,0,-264,211,259,180.18610763549805,180.18618512153625,180.18919229507446,180.20062971115112,180.34957361221313,180.34957361221313,180.34957361221313,180.34957361221313,180.34957361221313,180.34957361221313,180.34957361221313,181.23323154449463,2,1.0125017166137695,None,,,,,,,,,,,,,,,,,,48,1,2025-02-19_13h06.08.042,comp,2024.2.4,56.61765738135991,2025-02-19 13h09.29.236801 -0500,
94,94,0,filler_square,None,None,None,None,None,None,None,None,None,None,3,1.0835554599761963,None,,,,,0,0,0,0,0,94,94,207,181.24952459335327,,,,,,,,,,,,,,,,,,,,,,,,,,,,,,,,,,,,,,,,,,,,,,,,,,,,,,,,,,,,,,,,,,,,,,,,,,,,,,,,,96.58956872970666,94.17881736374514,85.98022164116,78.75985408437862,103.77987233508976,103.77987233508976,3.0,3.1,-182,278,0,8,187,-280,181.23501443862915,181.23508834838867,181.2382309436798,181.24952459335327,181.401020526886,181.401020526886,181.401020526886,181.401020526886,181.401020526886,181.401020526886,181.401020526886,182.35288214683533,3,1.0835554599761963,None,,,,,,,,,,,,,,,,,,48,1,2025-02-19_13h06.08.042,comp,2024.2.4,56.61765738135991,2025-02-19 13h09.29.236801 -0500,
95,95,0,filler_square,None,None,None,None,None,None,None,None,None,None,1,1.3082609176635742,None,,,,,0,0,0,0,0,95,95,170,182.36878037452698,,,,,,,,,,,,,,,,,,,,,,,,,,,,,,,,,,,,,,,,,,,,,,,,,,,,,,,,,,,,,,,,,,,,,,,,,,,,,,,,,133.30321423362562,133.30321423362562,79.70386628714309,132.93419534618067,115.03608851664194,96.81052425144486,4.0,4.2,-229,14,0,-265,211,6,182.35506010055542,182.3551378250122,182.35805416107178,182.36878037452698,182.51418471336365,182.51418471336365,182.51418471336365,182.51418471336365,182.51418471336365,182.51418471336365,182.51418471336365,183.6863021850586,1,1.3082609176635742,None,,,,,,,,,,,,,,,,,,48,1,2025-02-19_13h06.08.042,comp,2024.2.4,56.61765738135991,2025-02-19 13h09.29.236801 -0500,
96,96,0,critical,dwh,35.0,3.0,lower,70.0,70.0,57.0,133.0,133.0,57.0,1,1.4871695041656494,None,,,,,0,0,0,0,0,96,96,62,183.70306849479675,,,,,,,,,,,,,,,,,,,,,,,,,,,,,,,,,,,,,,,,,,,,,,,,,,,,,,,,,,,,,,,,,,,,,,,,,,,,,,,,,70.0,70.0,57.0,133.0,133.0,57.0,3.0,3.1,-198,278,0,5,191,-253,183.68798422813416,183.68808555603027,183.69144535064697,183.70306849479675,183.85132241249084,183.85132241249084,183.85132241249084,183.85132241249084,183.85132241249084,183.85132241249084,183.85132241249084,185.1932234764099,1,1.4871695041656494,None,,,,,,,,,,,,,,,,,,48,1,2025-02-19_13h06.08.042,comp,2024.2.4,56.61765738135991,2025-02-19 13h09.29.236801 -0500,
97,97,0,filler_square,None,None,None,None,None,None,None,None,None,None,3,0.8950014114379883,None,,,,,0,0,0,0,0,97,97,183,185.21405696868896,,,,,,,,,,,,,,,,,,,,,,,,,,,,,,,,,,,,,,,,,,,,,,,,,,,,,,,,,,,,,,,,,,,,,,,,,,,,,,,,,89.64298874874615,62.0190267811648,110.49824718455265,96.03651828110993,151.9353621035968,151.9353621035968,2.2,2.21,-175,-279,0,258,220,257,185.19512152671814,185.1952040195465,185.19834399223328,185.21405696868896,185.35242795944214,185.35242795944214,185.35242795944214,185.35242795944214,185.35242795944214,185.35242795944214,185.35242795944214,186.11968636512756,3,0.8950014114379883,None,,,,,,,,,,,,,,,,,,48,1,2025-02-19_13h06.08.042,comp,2024.2.4,56.61765738135991,2025-02-19 13h09.29.236801 -0500,
98,98,0,critical,whd,20.0,2.1,lower,57.0,133.0,133.0,57.0,78.0,78.0,2,1.1830549240112305,None,,,,,0,0,0,0,0,98,98,38,186.13402891159058,,,,,,,,,,,,,,,,,,,,,,,,,,,,,,,,,,,,,,,,,,,,,,,,,,,,,,,,,,,,,,,,,,,,,,,,,,,,,,,,,57.0,133.0,133.0,57.0,78.0,78.0,2.1,2.12,-191,-287,0,-267,164,254,186.1212887763977,186.1213665008545,186.1245312690735,186.13402891159058,186.2839970588684,186.2839970588684,186.2839970588684,186.2839970588684,186.2839970588684,186.2839970588684,186.2839970588684,187.31901383399963,2,1.1830549240112305,None,,,,,,,,,,,,,,,,,,48,1,2025-02-19_13h06.08.042,comp,2024.2.4,56.61765738135991,2025-02-19 13h09.29.236801 -0500,
99,99,0,critical,hdw,35.0,3.0,lower,133.0,57.0,70.0,70.0,57.0,133.0,2,0.9763875007629395,None,,,,,0,0,0,0,0,99,99,110,187.33480024337769,,,,,,,,,,,,,,,,,,,,,,,,,,,,,,,,,,,,,,,,,,,,,,,,,,,,,,,,,,,,,,,,,,,,,,,,,,,,,,,,,133.0,57.0,70.0,70.0,57.0,133.0,3.0,3.2,-160,-274,0,16,198,274,187.32058024406433,187.32065439224243,187.32410216331482,187.33480024337769,187.4874837398529,187.4874837398529,187.4874837398529,187.4874837398529,187.4874837398529,187.4874837398529,187.4874837398529,188.32192540168762,2,0.9763875007629395,None,,,,,,,,,,,,,,,,,,48,1,2025-02-19_13h06.08.042,comp,2024.2.4,56.61765738135991,2025-02-19 13h09.29.236801 -0500,
100,100,0,critical,wdh,20.0,3.0,upper,125.0,200.0,141.0,141.0,200.0,125.0,1,2.235743999481201,None,,,,,0,0,0,0,0,100,100,81,188.33734464645386,,,,,,,,,,,,,,,,,,,,,,,,,,,,,,,,,,,,,,,,,,,,,,,,,,,,,,,,,,,,,,,,,,,,,,,,,,,,,,,,,125.0,200.0,141.0,141.0,200.0,125.0,3.0,3.2,-266,-285,0,-6,229,270,188.3234360218048,188.3235137462616,188.3266406059265,188.33734464645386,188.48533940315247,188.48533940315247,188.48533940315247,188.48533940315247,188.48533940315247,188.48533940315247,188.48533940315247,190.5861895084381,1,2.235743999481201,None,,,,,,,,,,,,,,,,,,48,1,2025-02-19_13h06.08.042,comp,2024.2.4,56.61765738135991,2025-02-19 13h09.29.236801 -0500,
101,101,0,critical,dhw,20.0,1.0,lower,78.0,78.0,133.0,57.0,57.0,133.0,3,1.3395516872406006,None,,,,,0,0,0,0,0,101,101,54,190.6015064716339,,,,,,,,,,,,,,,,,,,,,,,,,,,,,,,,,,,,,,,,,,,,,,,,,,,,,,,,,,,,,,,,,,,,,,,,,,,,,,,,,78.0,78.0,133.0,57.0,57.0,133.0,1.0,1.1,-644,265,-480,289,-289,278,190.58769512176514,190.5877697467804,190.5907015800476,190.6015064716339,190.75723552703857,190.75723552703857,190.75723552703857,190.75723552703857,190.75723552703857,190.75723552703857,190.75723552703857,191.95825338363647,3,1.3395516872406006,None,,,,,,,,,,,,,,,,,,48,1,2025-02-19_13h06.08.042,comp,2024.2.4,56.61765738135991,2025-02-19 13h09.29.236801 -0500,
102,102,0,critical,dhw,35.0,2.1,upper,127.0,127.0,200.0,125.0,125.0,200.0,3,1.0056393146514893,None,,,,,0,0,0,0,0,102,102,1,191.9760000705719,,,,,,,,,,,,,,,,,,,,,,,,,,,,,,,,,,,,,,,,,,,,,,,,,,,,,,,,,,,,,,,,,,,,,,,,,,,,,,,,,127.0,127.0,200.0,125.0,125.0,200.0,2.1,2.12,-222,-284,0,-263,258,254,191.95984268188477,191.95995688438416,191.9632270336151,191.9760000705719,192.12063026428223,192.12063026428223,192.12063026428223,192.12063026428223,192.12063026428223,192.12063026428223,192.12063026428223,192.98781824111938,3,1.0056393146514893,None,,,,,,,,,,,,,,,,,,48,1,2025-02-19_13h06.08.042,comp,2024.2.4,56.61765738135991,2025-02-19 13h09.29.236801 -0500,
103,103,0,filler_random,None,None,None,None,None,None,None,None,None,None,2,0.985607385635376,None,,,,,0,0,0,0,0,103,103,164,193.0035982131958,,,,,,,,,,,,,,,,,,,,,,,,,,,,,,,,,,,,,,,,,,,,,,,,,,,,,,,,,,,,,,,,,,,,,,,,,,,,,,,,,153.1540427225031,58.2114200291995,112.21479425599917,150.19047553847747,141.04984740926426,94.86893888514784,3.0,3.1,-200,280,0,-17,219,-259,192.98949694633484,192.98957467079163,192.99293494224548,193.0035982131958,193.15306639671326,193.15306639671326,193.15306639671326,193.15306639671326,193.15306639671326,193.15306639671326,193.15306639671326,193.99115681648254,2,0.985607385635376,None,,,,,,,,,,,,,,,,,,48,1,2025-02-19_13h06.08.042,comp,2024.2.4,56.61765738135991,2025-02-19 13h09.29.236801 -0500,
104,104,0,critical,dwh,20.0,2.1,upper,141.0,141.0,125.0,200.0,200.0,125.0,2,3.074148416519165,None,,,,,0,0,0,0,0,104,104,7,194.01093459129333,,,,,,,,,,,,,,,,,,,,,,,,,,,,,,,,,,,,,,,,,,,,,,,,,,,,,,,,,,,,,,,,,,,,,,,,,,,,,,,,,141.0,141.0,125.0,200.0,200.0,125.0,2.1,2.12,-266,-284,0,-282,258,280,193.99276757240295,193.9928481578827,193.99617838859558,194.01093459129333,194.1554605960846,194.1554605960846,194.1554605960846,194.1554605960846,194.1554605960846,194.1554605960846,194.1554605960846,197.08945441246033,2,3.074148416519165,None,,,,,,,,,,,,,,,,,,48,1,2025-02-19_13h06.08.042,comp,2024.2.4,56.61765738135991,2025-02-19 13h09.29.236801 -0500,
105,105,0,filler_square,None,None,None,None,None,None,None,None,None,None,2,1.2925543785095215,None,,,,,0,0,0,0,0,105,105,178,197.10537433624268,,,,,,,,,,,,,,,,,,,,,,,,,,,,,,,,,,,,,,,,,,,,,,,,,,,,,,,,,,,,,,,,,,,,,,,,,,,,,,,,,162.876528933359,59.31780562859371,196.36290500467905,196.36290500467905,62.96240086325439,85.56975450486894,1.0,1.3,256,-259,480,-252,717,-259,197.09129810333252,197.09137606620789,197.09467792510986,197.10537433624268,197.25553584098816,197.25553584098816,197.25553584098816,197.25553584098816,197.25553584098816,197.25553584098816,197.25553584098816,198.4065773487091,2,1.2925543785095215,None,,,,,,,,,,,,,,,,,,48,1,2025-02-19_13h06.08.042,comp,2024.2.4,56.61765738135991,2025-02-19 13h09.29.236801 -0500,
106,106,0,filler_random,None,None,None,None,None,None,None,None,None,None,2,1.103057622909546,None,,,,,0,0,0,0,0,106,106,167,198.42231917381287,,,,,,,,,,,,,,,,,,,,,,,,,,,,,,,,,,,,,,,,,,,,,,,,,,,,,,,,,,,,,,,,,,,,,,,,,,,,,,,,,100.38222854666867,73.12902662274472,137.35682051580503,124.2481582754473,162.643172885317,150.5843300291767,2.1,2.12,-195,-260,0,-285,233,252,198.4082474708557,198.40832567214966,198.4116313457489,198.42231917381287,198.57259368896484,198.57259368896484,198.57259368896484,198.57259368896484,198.57259368896484,198.57259368896484,198.57259368896484,199.53099179267883,2,1.103057622909546,None,,,,,,,,,,,,,,,,,,48,1,2025-02-19_13h06.08.042,comp,2024.2.4,56.61765738135991,2025-02-19 13h09.29.236801 -0500,
107,107,0,critical,whd,20.0,2.1,lower,57.0,133.0,133.0,57.0,78.0,78.0,3,2.2489075660705566,None,,,,,0,0,0,0,0,107,107,14,199.54897618293762,,,,,,,,,,,,,,,,,,,,,,,,,,,,,,,,,,,,,,,,,,,,,,,,,,,,,,,,,,,,,,,,,,,,,,,,,,,,,,,,,57.0,133.0,133.0,57.0,78.0,78.0,2.1,2.12,-191,-251,0,-272,164,257,199.5325164794922,199.5325927734375,199.53585171699524,199.54897618293762,199.6890184879303,199.6890184879303,199.6890184879303,199.6890184879303,199.6890184879303,199.6890184879303,199.6890184879303,201.8071632385254,3,2.2489075660705566,None,,,,,,,,,,,,,,,,,,48,1,2025-02-19_13h06.08.042,comp,2024.2.4,56.61765738135991,2025-02-19 13h09.29.236801 -0500,
108,108,0,filler_square,None,None,None,None,None,None,None,None,None,None,3,1.5754966735839844,None,,,,,0,0,0,0,0,108,108,172,201.8230459690094,,,,,,,,,,,,,,,,,,,,,,,,,,,,,,,,,,,,,,,,,,,,,,,,,,,,,,,,,,,,,,,,,,,,,,,,,,,,,,,,,58.66552063017604,65.5592040482848,64.5249359522091,59.70020584627606,66.13989288200219,66.13989288200219,2.2,2.21,-159,-277,0,267,159,265,201.80900359153748,201.80908274650574,201.8123927116394,201.8230459690094,201.97413849830627,201.97413849830627,201.97413849830627,201.97413849830627,201.97413849830627,201.97413849830627,201.97413849830627,203.4063982963562,3,1.5754966735839844,None,,,,,,,,,,,,,,,,,,48,1,2025-02-19_13h06.08.042,comp,2024.2.4,56.61765738135991,2025-02-19 13h09.29.236801 -0500,
109,109,0,critical,whd,35.0,1.0,lower,57.0,133.0,133.0,57.0,70.0,70.0,3,1.555692434310913,None,,,,,0,0,0,0,0,109,109,84,203.4260106086731,,,,,,,,,,,,,,,,,,,,,,,,,,,,,,,,,,,,,,,,,,,,,,,,,,,,,,,,,,,,,,,,,,,,,,,,,,,,,,,,,57.0,133.0,133.0,57.0,70.0,70.0,1.0,1.3,289,-253,480,-275,640,-287,203.40784811973572,203.4079463481903,203.4108908176422,203.4260106086731,203.57431530952454,203.57431530952454,203.57431530952454,203.57431530952454,203.57431530952454,203.57431530952454,203.57431530952454,204.99203085899353,3,1.555692434310913,None,,,,,,,,,,,,,,,,,,48,1,2025-02-19_13h06.08.042,comp,2024.2.4,56.61765738135991,2025-02-19 13h09.29.236801 -0500,
110,110,0,critical,hwd,35.0,4.0,upper,200.0,125.0,125.0,200.0,127.0,127.0,2,2.9730026721954346,None,,,,,0,0,0,0,0,110,110,101,205.00806713104248,,,,,,,,,,,,,,,,,,,,,,,,,,,,,,,,,,,,,,,,,,,,,,,,,,,,,,,,,,,,,,,,,,,,,,,,,,,,,,,,,200.0,125.0,125.0,200.0,127.0,127.0,4.0,4.2,-258,9,0,-254,260,-13,204.993558883667,204.99363660812378,204.9970338344574,205.00806713104248,205.15897607803345,205.15897607803345,205.15897607803345,205.15897607803345,205.15897607803345,205.15897607803345,205.15897607803345,207.99118828773499,2,2.9730026721954346,None,,,,,,,,,,,,,,,,,,48,1,2025-02-19_13h06.08.042,comp,2024.2.4,56.61765738135991,2025-02-19 13h09.29.236801 -0500,
111,111,0,critical,dwh,35.0,2.1,upper,127.0,127.0,125.0,200.0,200.0,125.0,2,1.3105614185333252,None,,,,,0,0,0,0,0,111,111,5,208.00709700584412,,,,,,,,,,,,,,,,,,,,,,,,,,,,,,,,,,,,,,,,,,,,,,,,,,,,,,,,,,,,,,,,,,,,,,,,,,,,,,,,,127.0,127.0,125.0,200.0,200.0,125.0,2.1,2.11,-260,256,0,254,258,-271,207.9927384853363,207.99281287193298,207.99610948562622,208.00709700584412,208.16072750091553,208.16072750091553,208.16072750091553,208.16072750091553,208.16072750091553,208.16072750091553,208.16072750091553,209.32784175872803,2,1.3105614185333252,None,,,,,,,,,,,,,,,,,,48,1,2025-02-19_13h06.08.042,comp,2024.2.4,56.61765738135991,2025-02-19 13h09.29.236801 -0500,
112,112,0,critical,dwh,20.0,1.0,lower,78.0,78.0,57.0,133.0,133.0,57.0,1,1.5980970859527588,None,,,,,0,0,0,0,0,112,112,66,209.3429820537567,,,,,,,,,,,,,,,,,,,,,,,,,,,,,,,,,,,,,,,,,,,,,,,,,,,,,,,,,,,,,,,,,,,,,,,,,,,,,,,,,78.0,78.0,57.0,133.0,133.0,57.0,1.0,1.2,-202,18,0,16,191,-11,209.32935309410095,209.32943081855774,209.33238697052002,209.3429820537567,209.49380087852478,209.49380087852478,209.49380087852478,209.49380087852478,209.49380087852478,209.49380087852478,209.49380087852478,210.9431505203247,1,1.5980970859527588,None,,,,,,,,,,,,,,,,,,48,1,2025-02-19_13h06.08.042,comp,2024.2.4,56.61765738135991,2025-02-19 13h09.29.236801 -0500,
113,113,0,critical,hdw,35.0,2.1,lower,133.0,57.0,70.0,70.0,57.0,133.0,3,1.0387675762176514,None,,,,,0,0,0,0,0,113,113,20,210.95882892608643,,,,,,,,,,,,,,,,,,,,,,,,,,,,,,,,,,,,,,,,,,,,,,,,,,,,,,,,,,,,,,,,,,,,,,,,,,,,,,,,,133.0,57.0,70.0,70.0,57.0,133.0,2.1,2.12,-160,-275,0,-269,198,256,210.94465351104736,210.94473123550415,210.94805145263672,210.95882892608643,211.1101462841034,211.1101462841034,211.1101462841034,211.1101462841034,211.1101462841034,211.1101462841034,211.1101462841034,212.01102805137634,3,1.0387675762176514,None,,,,,,,,,,,,,,,,,,48,1,2025-02-19_13h06.08.042,comp,2024.2.4,56.61765738135991,2025-02-19 13h09.29.236801 -0500,
114,114,0,critical,wdh,20.0,1.0,lower,57.0,133.0,78.0,78.0,133.0,57.0,2,0.8820440769195557,None,,,,,0,0,0,0,0,114,114,78,212.02718782424927,,,,,,,,,,,,,,,,,,,,,,,,,,,,,,,,,,,,,,,,,,,,,,,,,,,,,,,,,,,,,,,,,,,,,,,,,,,,,,,,,57.0,133.0,78.0,78.0,133.0,57.0,1.0,1.2,-202,-7,0,-19,164,10,212.01249933242798,212.01257514953613,212.0162181854248,212.02718782424927,212.17371129989624,212.17371129989624,212.17371129989624,212.17371129989624,212.17371129989624,212.17371129989624,212.17371129989624,212.91431307792664,2,0.8820440769195557,None,,,,,,,,,,,,,,,,,,48,1,2025-02-19_13h06.08.042,comp,2024.2.4,56.61765738135991,2025-02-19 13h09.29.236801 -0500,
115,115,0,critical,whd,35.0,2.1,lower,57.0,133.0,133.0,57.0,70.0,70.0,1,1.2167603969573975,None,,,,,0,0,0,0,0,115,115,36,212.93239974975586,,,,,,,,,,,,,,,,,,,,,,,,,,,,,,,,,,,,,,,,,,,,,,,,,,,,,,,,,,,,,,,,,,,,,,,,,,,,,,,,,57.0,133.0,133.0,57.0,70.0,70.0,2.1,2.11,-191,290,0,287,160,-251,212.91614508628845,212.91627502441406,212.9193298816681,212.93239974975586,213.07688093185425,213.07688093185425,213.07688093185425,213.07688093185425,213.07688093185425,213.07688093185425,213.07688093185425,214.16099762916565,1,1.2167603969573975,None,,,,,,,,,,,,,,,,,,48,1,2025-02-19_13h06.08.042,comp,2024.2.4,56.61765738135991,2025-02-19 13h09.29.236801 -0500,
116,116,0,critical,wdh,35.0,2.1,lower,57.0,133.0,70.0,70.0,133.0,57.0,1,0.816396951675415,None,,,,,0,0,0,0,0,116,116,8,214.18077516555786,,,,,,,,,,,,,,,,,,,,,,,,,,,,,,,,,,,,,,,,,,,,,,,,,,,,,,,,,,,,,,,,,,,,,,,,,,,,,,,,,57.0,133.0,70.0,70.0,133.0,57.0,2.1,2.11,-198,272,0,270,160,-259,214.16253185272217,214.1626079082489,214.16585612297058,214.18077516555786,214.3286018371582,214.3286018371582,214.3286018371582,214.3286018371582,214.3286018371582,214.3286018371582,214.3286018371582,215.01118683815002,1,0.816396951675415,None,,,,,,,,,,,,,,,,,,48,1,2025-02-19_13h06.08.042,comp,2024.2.4,56.61765738135991,2025-02-19 13h09.29.236801 -0500,
117,117,0,critical,dwh,35.0,1.0,upper,127.0,127.0,125.0,200.0,200.0,125.0,2,1.402869462966919,None,,,,,0,0,0,0,0,117,117,61,215.02632331848145,,,,,,,,,,,,,,,,,,,,,,,,,,,,,,,,,,,,,,,,,,,,,,,,,,,,,,,,,,,,,,,,,,,,,,,,,,,,,,,,,127.0,127.0,125.0,200.0,200.0,125.0,1.0,1.3,220,-258,480,-274,738,-251,215.0126621723175,215.0127363204956,215.01605820655823,215.02632331848145,215.18028259277344,215.18028259277344,215.18028259277344,215.18028259277344,215.18028259277344,215.18028259277344,215.18028259277344,216.44475269317627,2,1.402869462966919,None,,,,,,,,,,,,,,,,,,48,1,2025-02-19_13h06.08.042,comp,2024.2.4,56.61765738135991,2025-02-19 13h09.29.236801 -0500,
118,118,0,critical,dhw,20.0,3.0,lower,78.0,78.0,133.0,57.0,57.0,133.0,3,0.9770572185516357,None,,,,,0,0,0,0,0,118,118,56,216.46069025993347,,,,,,,,,,,,,,,,,,,,,,,,,,,,,,,,,,,,,,,,,,,,,,,,,,,,,,,,,,,,,,,,,,,,,,,,,,,,,,,,,78.0,78.0,133.0,57.0,57.0,133.0,3.0,3.2,-164,-279,0,16,191,277,216.44622898101807,216.44630360603333,216.44946312904358,216.46069025993347,216.61687421798706,216.61687421798706,216.61687421798706,216.61687421798706,216.61687421798706,216.61687421798706,216.61687421798706,217.44515824317932,3,0.9770572185516357,None,,,,,,,,,,,,,,,,,,48,1,2025-02-19_13h06.08.042,comp,2024.2.4,56.61765738135991,2025-02-19 13h09.29.236801 -0500,
119,119,0,critical,dwh,20.0,1.0,upper,141.0,141.0,125.0,200.0,200.0,125.0,3,1.3124682903289795,None,,,,,0,0,0,0,0,119,119,67,217.4606409072876,,,,,,,,,,,,,,,,,,,,,,,,,,,,,,,,,,,,,,,,,,,,,,,,,,,,,,,,,,,,,,,,,,,,,,,,,,,,,,,,,141.0,141.0,125.0,200.0,200.0,125.0,1.0,1.3,214,-271,480,-267,738,-253,217.44668221473694,217.44676113128662,217.45007133483887,217.4606409072876,217.61181092262268,217.61181092262268,217.61181092262268,217.61181092262268,217.61181092262268,217.61181092262268,217.61181092262268,218.78796815872192,3,1.3124682903289795,None,,,,,,,,,,,,,,,,,,48,1,2025-02-19_13h06.08.042,comp,2024.2.4,56.61765738135991,2025-02-19 13h09.29.236801 -0500,
120,120,0,filler_random,None,None,None,None,None,None,None,None,None,None,3,0.8189730644226074,None,,,,,0,0,0,0,0,120,120,145,218.80408835411072,,,,,,,,,,,,,,,,,,,,,,,,,,,,,,,,,,,,,,,,,,,,,,,,,,,,,,,,,,,,,,,,,,,,,,,,,,,,,,,,,98.88810215750001,186.14269242250472,124.91620560608324,63.94868534659315,199.42693420636488,149.64778545482667,4.0,4.2,-221,1,0,-267,203,3,218.78967881202698,218.78980803489685,218.79305291175842,218.80408835411072,218.94500541687012,218.94500541687012,218.94500541687012,218.94500541687012,218.94500541687012,218.94500541687012,218.94500541687012,219.62758541107178,3,0.8189730644226074,None,,,,,,,,,,,,,,,,,,48,1,2025-02-19_13h06.08.042,comp,2024.2.4,56.61765738135991,2025-02-19 13h09.29.236801 -0500,
121,121,0,critical,dwh,35.0,3.0,upper,127.0,127.0,125.0,200.0,200.0,125.0,2,0.9607012271881104,None,,,,,0,0,0,0,0,121,121,63,219.64496278762817,,,,,,,,,,,,,,,,,,,,,,,,,,,,,,,,,,,,,,,,,,,,,,,,,,,,,,,,,,,,,,,,,,,,,,,,,,,,,,,,,127.0,127.0,125.0,200.0,200.0,125.0,3.0,3.2,-260,-265,0,-14,258,256,219.62907648086548,219.62915325164795,219.63193440437317,219.64496278762817,219.7832019329071,219.7832019329071,219.7832019329071,219.7832019329071,219.7832019329071,219.7832019329071,219.7832019329071,220.61333990097046,2,0.9607012271881104,None,,,,,,,,,,,,,,,,,,48,1,2025-02-19_13h06.08.042,comp,2024.2.4,56.61765738135991,2025-02-19 13h09.29.236801 -0500,
122,122,0,critical,wdh,35.0,4.0,lower,57.0,133.0,70.0,70.0,133.0,57.0,1,1.1896836757659912,None,,,,,0,0,0,0,0,122,122,76,220.63178515434265,,,,,,,,,,,,,,,,,,,,,,,,,,,,,,,,,,,,,,,,,,,,,,,,,,,,,,,,,,,,,,,,,,,,,,,,,,,,,,,,,57.0,133.0,70.0,70.0,133.0,57.0,4.0,4.2,-198,1,0,-285,160,7,220.61480808258057,220.61488342285156,220.61784863471985,220.63178515434265,220.78545212745667,220.78545212745667,220.78545212745667,220.78545212745667,220.78545212745667,220.78545212745667,220.78545212745667,221.83202528953552,1,1.1896836757659912,None,,,,,,,,,,,,,,,,,,48,1,2025-02-19_13h06.08.042,comp,2024.2.4,56.61765738135991,2025-02-19 13h09.29.236801 -0500,
123,123,0,critical,dhw,35.0,3.0,lower,70.0,70.0,133.0,57.0,57.0,133.0,3,1.124772548675537,None,,,,,0,0,0,0,0,123,123,50,221.84863471984863,,,,,,,,,,,,,,,,,,,,,,,,,,,,,,,,,,,,,,,,,,,,,,,,,,,,,,,,,,,,,,,,,,,,,,,,,,,,,,,,,70.0,70.0,133.0,57.0,57.0,133.0,3.0,3.1,-160,282,0,-10,191,-283,221.83373618125916,221.83387351036072,221.83788585662842,221.84863471984863,221.9973270893097,221.9973270893097,221.9973270893097,221.9973270893097,221.9973270893097,221.9973270893097,221.9973270893097,222.9835340976715,3,1.124772548675537,None,,,,,,,,,,,,,,,,,,48,1,2025-02-19_13h06.08.042,comp,2024.2.4,56.61765738135991,2025-02-19 13h09.29.236801 -0500,
124,124,0,filler_square,None,None,None,None,None,None,None,None,None,None,1,1.0966217517852783,None,,,,,0,0,0,0,0,124,124,196,223.00443387031555,,,,,,,,,,,,,,,,,,,,,,,,,,,,,,,,,,,,,,,,,,,,,,,,,,,,,,,,,,,,,,,,,,,,,,,,,,,,,,,,,121.39800977838566,121.39800977838566,76.0345102306032,74.61456676593995,65.56164165995082,71.13988245162298,4.0,4.1,-194,-264,0,-14,169,-260,222.98531031608582,222.9854438304901,222.98863172531128,223.00443387031555,223.1467432975769,223.1467432975769,223.1467432975769,223.1467432975769,223.1467432975769,223.1467432975769,223.1467432975769,224.11325407028198,1,1.0966217517852783,None,,,,,,,,,,,,,,,,,,48,1,2025-02-19_13h06.08.042,comp,2024.2.4,56.61765738135991,2025-02-19 13h09.29.236801 -0500,
125,125,0,filler_square,None,None,None,None,None,None,None,None,None,None,3,1.0812644958496094,None,,,,,0,0,0,0,0,125,125,194,224.13204550743103,,,,,,,,,,,,,,,,,,,,,,,,,,,,,,,,,,,,,,,,,,,,,,,,,,,,,,,,,,,,,,,,,,,,,,,,,,,,,,,,,83.717306191554,110.48011972409478,86.46015480331974,103.19492674962439,150.7210476065123,150.7210476065123,2.1,2.11,-203,266,0,273,223,-259,224.11487579345703,224.1149709224701,224.11779141426086,224.13204550743103,224.28304505348206,224.28304505348206,224.28304505348206,224.28304505348206,224.28304505348206,224.28304505348206,224.28304505348206,225.23038458824158,3,1.0812644958496094,None,,,,,,,,,,,,,,,,,,48,1,2025-02-19_13h06.08.042,comp,2024.2.4,56.61765738135991,2025-02-19 13h09.29.236801 -0500,
126,126,0,critical,dhw,20.0,4.0,lower,78.0,78.0,133.0,57.0,57.0,133.0,1,1.2788174152374268,None,,,,,0,0,0,0,0,126,126,58,225.2466459274292,,,,,,,,,,,,,,,,,,,,,,,,,,,,,,,,,,,,,,,,,,,,,,,,,,,,,,,,,,,,,,,,,,,,,,,,,,,,,,,,,78.0,78.0,133.0,57.0,57.0,133.0,4.0,4.1,-164,-262,0,-9,191,-285,225.23183417320251,225.23193502426147,225.23525071144104,225.2466459274292,225.40104985237122,225.40104985237122,225.40104985237122,225.40104985237122,225.40104985237122,225.40104985237122,225.40104985237122,226.53030562400818,1,1.2788174152374268,None,,,,,,,,,,,,,,,,,,48,1,2025-02-19_13h06.08.042,comp,2024.2.4,56.61765738135991,2025-02-19 13h09.29.236801 -0500,
127,127,0,filler_square,None,None,None,None,None,None,None,None,None,None,3,0.8268740177154541,None,,,,,0,0,0,0,0,127,127,208,226.54702830314636,,,,,,,,,,,,,,,,,,,,,,,,,,,,,,,,,,,,,,,,,,,,,,,,,,,,,,,,,,,,,,,,,,,,,,,,,,,,,,,,,156.46796910657224,156.46796910657224,93.02168724792469,95.74494223961327,109.77954912880548,114.67072411927478,2.2,2.22,-222,278,0,-266,201,-263,226.5321581363678,226.53229069709778,226.5355007648468,226.54702830314636,226.69826245307922,226.69826245307922,226.69826245307922,226.69826245307922,226.69826245307922,226.69826245307922,226.69826245307922,227.3836121559143,3,0.8268740177154541,None,,,,,,,,,,,,,,,,,,48,1,2025-02-19_13h06.08.042,comp,2024.2.4,56.61765738135991,2025-02-19 13h09.29.236801 -0500,
128,128,0,critical,dhw,20.0,3.0,upper,141.0,141.0,200.0,125.0,125.0,200.0,1,1.5976035594940186,None,,,,,0,0,0,0,0,128,128,57,227.39950609207153,,,,,,,,,,,,,,,,,,,,,,,,,,,,,,,,,,,,,,,,,,,,,,,,,,,,,,,,,,,,,,,,,,,,,,,,,,,,,,,,,141.0,141.0,200.0,125.0,125.0,200.0,3.0,3.2,-229,-254,0,-12,258,272,227.38521075248718,227.38528871536255,227.38864850997925,227.39950609207153,227.54783082008362,227.54783082008362,227.54783082008362,227.54783082008362,227.54783082008362,227.54783082008362,227.54783082008362,229.01432967185974,1,1.5976035594940186,None,,,,,,,,,,,,,,,,,,48,1,2025-02-19_13h06.08.042,comp,2024.2.4,56.61765738135991,2025-02-19 13h09.29.236801 -0500,
129,129,0,filler_square,None,None,None,None,None,None,None,None,None,None,2,0.03818845748901367,None,,,,,0,0,0,0,0,129,129,201,229.03098249435425,,,,,,,,,,,,,,,,,,,,,,,,,,,,,,,,,,,,,,,,,,,,,,,,,,,,,,,,,,,,,,,,,,,,,,,,,,,,,,,,,171.54987757368232,87.72523281283522,81.10519553787427,148.5718198908323,189.84010403508455,189.84010403508455,3.0,3.1,-214,272,0,-3,265,-263,229.01628994941711,229.01636815071106,229.01958298683167,229.03098249435425,,,,,,,,229.08450603485107,2,0.03818845748901367,None,,,,,,,,,,,,,,,,,,48,1,2025-02-19_13h06.08.042,comp,2024.2.4,56.61765738135991,2025-02-19 13h09.29.236801 -0500,
130,130,0,catch,None,None,None,None,None,None,None,None,None,None,3,0.0717766284942627,None,,,,,0,0,0,0,0,130,130,124,229.1018590927124,,,,,,,,,,,,,,,,,,,,,,,,,,,,,,,,,,,,,,,,,,,,,,,,,,,,,,,,,,,,,,,,,,,,,,,,,,,,,,,,,83,107,156,169,63,127,2.2,2.21,-234,-276,0,282,244,285,229.08646035194397,229.08653664588928,229.08947849273682,229.1018590927124,,,,,,,,229.18409061431885,3,0.0717766284942627,None,,,,,,,,,,,,,,,,,,48,1,2025-02-19_13h06.08.042,comp,2024.2.4,56.61765738135991,2025-02-19 13h09.29.236801 -0500,
131,131,0,filler_random,None,None,None,None,None,None,None,None,None,None,3,1.5153989791870117,None,,,,,0,0,0,0,0,131,131,154,229.20206713676453,,,,,,,,,,,,,,,,,,,,,,,,,,,,,,,,,,,,,,,,,,,,,,,,,,,,,,,,,,,,,,,,,,,,,,,,,,,,,,,,,121.99091038170116,169.93481316718152,194.44772350999474,70.26387344314512,137.83467990529647,182.82004416194002,4.0,4.1,-216,-263,0,-10,223,-289,229.18608736991882,229.18622183799744,229.1893436908722,229.20206713676453,229.34907722473145,229.34907722473145,229.34907722473145,229.34907722473145,229.34907722473145,229.34907722473145,229.34907722473145,230.72299933433533,3,1.5153989791870117,None,,,,,,,,,,,,,,,,,,48,1,2025-02-19_13h06.08.042,comp,2024.2.4,56.61765738135991,2025-02-19 13h09.29.236801 -0500,
132,132,0,critical,dwh,20.0,2.1,lower,78.0,78.0,57.0,133.0,133.0,57.0,1,1.7454779148101807,None,,,,,0,0,0,0,0,132,132,30,230.74026346206665,,,,,,,,,,,,,,,,,,,,,,,,,,,,,,,,,,,,,,,,,,,,,,,,,,,,,,,,,,,,,,,,,,,,,,,,,,,,,,,,,78.0,78.0,57.0,133.0,133.0,57.0,2.1,2.12,-202,-287,0,-278,191,266,230.72447729110718,230.7245533466339,230.72734761238098,230.74026346206665,230.8831081390381,230.8831081390381,230.8831081390381,230.8831081390381,230.8831081390381,230.8831081390381,230.8831081390381,232.5014317035675,1,1.7454779148101807,None,,,,,,,,,,,,,,,,,,48,1,2025-02-19_13h06.08.042,comp,2024.2.4,56.61765738135991,2025-02-19 13h09.29.236801 -0500,
133,133,0,filler_random,None,None,None,None,None,None,None,None,None,None,3,1.3769149780273438,None,,,,,0,0,0,0,0,133,133,134,232.51672959327698,,,,,,,,,,,,,,,,,,,,,,,,,,,,,,,,,,,,,,,,,,,,,,,,,,,,,,,,,,,,,,,,,,,,,,,,,,,,,,,,,58.15001477706921,173.3277440036182,76.76030861215911,165.33207370246282,151.56489446532942,171.5464975919342,2.2,2.22,-265,255,0,-267,264,-270,232.50320029258728,232.50329160690308,232.50611114501953,232.51672959327698,232.66709995269775,232.66709995269775,232.66709995269775,232.66709995269775,232.66709995269775,232.66709995269775,232.66709995269775,233.90117025375366,3,1.3769149780273438,None,,,,,,,,,,,,,,,,,,48,1,2025-02-19_13h06.08.042,comp,2024.2.4,56.61765738135991,2025-02-19 13h09.29.236801 -0500,
134,134,0,filler_square,None,None,None,None,None,None,None,None,None,None,1,1.110492467880249,None,,,,,0,0,0,0,0,134,134,203,233.91895580291748,,,,,,,,,,,,,,,,,,,,,,,,,,,,,,,,,,,,,,,,,,,,,,,,,,,,,,,,,,,,,,,,,,,,,,,,,,,,,,,,,150.21562038753535,150.21562038753535,148.54731869337007,83.15465706646913,63.78472565865789,123.69532629682986,2.2,2.21,-213,-250,0,275,199,262,233.90292477607727,233.9030044078827,233.90582656860352,233.91895580291748,234.06710577011108,234.06710577011108,234.06710577011108,234.06710577011108,234.06710577011108,234.06710577011108,234.06710577011108,235.03408575057983,1,1.110492467880249,None,,,,,,,,,,,,,,,,,,48,1,2025-02-19_13h06.08.042,comp,2024.2.4,56.61765738135991,2025-02-19 13h09.29.236801 -0500,
135,135,0,catch,None,None,None,None,None,None,None,None,None,None,2,0.980048418045044,None,,,,,0,0,0,0,0,135,135,122,235.04974818229675,,,,,,,,,,,,,,,,,,,,,,,,,,,,,,,,,,,,,,,,,,,,,,,,,,,,,,,,,,,,,,,,,,,,,,,,,,,,,,,,,133,57,187,138,97,93,1.0,1.1,-674,258,-480,259,-268,259,235.03595495224,235.03603315353394,235.03907680511475,235.04974818229675,235.20098757743835,235.20098757743835,235.20098757743835,235.20098757743835,235.20098757743835,235.20098757743835,235.20098757743835,236.03468775749207,2,0.980048418045044,None,,,,,,,,,,,,,,,,,,48,1,2025-02-19_13h06.08.042,comp,2024.2.4,56.61765738135991,2025-02-19 13h09.29.236801 -0500,
136,136,0,critical,dwh,20.0,4.0,upper,141.0,141.0,125.0,200.0,200.0,125.0,2,1.3485617637634277,None,,,,,0,0,0,0,0,136,136,71,236.04899978637695,,,,,,,,,,,,,,,,,,,,,,,,,,,,,,,,,,,,,,,,,,,,,,,,,,,,,,,,,,,,,,,,,,,,,,,,,,,,,,,,,141.0,141.0,125.0,200.0,200.0,125.0,4.0,4.1,-266,-279,0,15,258,-260,236.0362265110016,236.036301612854,236.0392725467682,236.04899978637695,236.19970440864563,236.19970440864563,236.19970440864563,236.19970440864563,236.19970440864563,236.19970440864563,236.19970440864563,237.40205574035645,2,1.3485617637634277,None,,,,,,,,,,,,,,,,,,48,1,2025-02-19_13h06.08.042,comp,2024.2.4,56.61765738135991,2025-02-19 13h09.29.236801 -0500,
137,137,0,critical,dwh,20.0,3.0,lower,78.0,78.0,57.0,133.0,133.0,57.0,2,0.8118247985839844,None,,,,,0,0,0,0,0,137,137,68,237.41733527183533,,,,,,,,,,,,,,,,,,,,,,,,,,,,,,,,,,,,,,,,,,,,,,,,,,,,,,,,,,,,,,,,,,,,,,,,,,,,,,,,,78.0,78.0,57.0,133.0,133.0,57.0,3.0,3.1,-202,278,0,13,191,-284,237.40352869033813,237.4036042690277,237.40674018859863,237.41733527183533,237.56596040725708,237.56596040725708,237.56596040725708,237.56596040725708,237.56596040725708,237.56596040725708,237.56596040725708,238.23905277252197,2,0.8118247985839844,None,,,,,,,,,,,,,,,,,,48,1,2025-02-19_13h06.08.042,comp,2024.2.4,56.61765738135991,2025-02-19 13h09.29.236801 -0500,
138,138,0,critical,hdw,20.0,2.1,upper,200.0,125.0,141.0,141.0,125.0,200.0,1,0.9016783237457275,None,,,,,0,0,0,0,0,138,138,47,238.25549983978271,,,,,,,,,,,,,,,,,,,,,,,,,,,,,,,,,,,,,,,,,,,,,,,,,,,,,,,,,,,,,,,,,,,,,,,,,,,,,,,,,200.0,125.0,141.0,141.0,125.0,200.0,2.1,2.11,-229,260,0,278,266,-284,238.24067449569702,238.24075293540955,238.24398183822632,238.25549983978271,238.40179538726807,238.40179538726807,238.40179538726807,238.40179538726807,238.40179538726807,238.40179538726807,238.40179538726807,239.15926027297974,1,0.9016783237457275,None,,,,,,,,,,,,,,,,,,48,1,2025-02-19_13h06.08.042,comp,2024.2.4,56.61765738135991,2025-02-19 13h09.29.236801 -0500,
139,139,0,critical,whd,20.0,1.0,lower,57.0,133.0,133.0,57.0,78.0,78.0,1,1.0868072509765625,None,,,,,0,0,0,0,0,139,139,90,239.17484760284424,,,,,,,,,,,,,,,,,,,,,,,,,,,,,,,,,,,,,,,,,,,,,,,,,,,,,,,,,,,,,,,,,,,,,,,,,,,,,,,,,57.0,133.0,133.0,57.0,78.0,78.0,1.0,1.1,-671,268,-480,250,-316,251,239.16079950332642,239.16087555885315,239.16414642333984,239.17484760284424,239.3182361125946,239.3182361125946,239.3182361125946,239.3182361125946,239.3182361125946,239.3182361125946,239.3182361125946,240.26913452148438,1,1.0868072509765625,None,,,,,,,,,,,,,,,,,,48,1,2025-02-19_13h06.08.042,comp,2024.2.4,56.61765738135991,2025-02-19 13h09.29.236801 -0500,
140,140,0,catch,None,None,None,None,None,None,None,None,None,None,1,1.0160346031188965,None,,,,,0,0,0,0,0,140,140,121,240.28554558753967,,,,,,,,,,,,,,,,,,,,,,,,,,,,,,,,,,,,,,,,,,,,,,,,,,,,,,,,,,,,,,,,,,,,,,,,,,,,,,,,,131,194,69,121,102,88,2.1,2.12,-254,-279,0,-263,200,254,240.2712368965149,240.271315574646,240.27459573745728,240.28554558753967,240.4345064163208,240.4345064163208,240.4345064163208,240.4345064163208,240.4345064163208,240.4345064163208,240.4345064163208,241.3194773197174,1,1.0160346031188965,None,,,,,,,,,,,,,,,,,,48,1,2025-02-19_13h06.08.042,comp,2024.2.4,56.61765738135991,2025-02-19 13h09.29.236801 -0500,
