thisN,thisTrialN,thisRepN,effect,order,distance,config,diag,h_1,w_1,h_2,w_2,h_3,w_3,rect_choice.keys,rect_choice.rt,rect_choice.duration,instructions_loop.thisRepN,instructions_loop.thisTrialN,instructions_loop.thisN,instructions_loop.thisIndex,blocks.thisRepN,blocks.thisTrialN,blocks.thisN,blocks.thisIndex,trials.thisRepN,trials.thisTrialN,trials.thisN,trials.thisIndex,thisRow.t,notes,consent.started,agree_button.started,decline_button.started,consent_img.started,mouse.started,consent.stopped,agree_button.numClicks,agree_button.timesOn,agree_button.timesOff,decline_button.numClicks,decline_button.timesOn,decline_button.timesOff,mouse.x,mouse.y,mouse.leftButton,mouse.midButton,mouse.rightButton,mouse.time,mouse.clicked_name,exp_params.started,exp_params.stopped,welcome.started,welcome_text.started,welcome.stopped,instructions_1.started,instructions_1_text_1.started,instructions_1_text_2.started,key_resp.started,instructions_1.stopped,instructions_loop.key_resp.keys,instructions_loop.key_resp.rt,instructions_loop.key_resp.duration,instructions_2.started,instructions_2_text_1.started,instructions_2_text_2.started,key_resp_2.started,instructions_2.stopped,instructions_loop.key_resp_2.keys,instructions_loop.key_resp_2.rt,instructions_loop.key_resp_2.duration,instructions_3.started,instructions_3_text_1.started,r1_instr3.started,r2_instr3.started,r3_instr3.started,r1_instr3_label.started,r2_instr3_label.started,r3_instr3_label.started,instructions_3_text_3.started,instructions_3_text_4.started,key_resp_3.started,instructions_3.stopped,instructions_loop.key_resp_3.keys,instructions_loop.key_resp_3.rt,instructions_loop.key_resp_3.duration,instructions_4.started,instructions_4_text_1.started,instructions_4_text_3.started,instructions_4_text_2.started,key_resp_4.started,instructions_4.stopped,instructions_loop.key_resp_4.keys,instructions_loop.key_resp_4.rt,instructions_loop.key_resp_4.duration,instructions_5.started,instructions_5_text_1.started,instructions_5_text_2.started,key_resp_5.started,instructions_5.stopped,instructions_loop.key_resp_5.keys,instructions_loop.key_resp_5.rt,instructions_loop.key_resp_5.duration,start_exp.started,start_exp_text.started,key_resp_6.started,start_exp.stopped,key_resp_6.keys,key_resp_6.rt,key_resp_6.duration,h_1_tmp,w_1_tmp,h_2_tmp,w_2_tmp,h_3_tmp,w_3_tmp,config_tmp,config_tmp_1,r_1_x,r_1_y,r_2_x,r_2_y,r_3_x,r_3_y,pre_trial.started,pre_trial.stopped,choice_trial.started,rect_choice.started,r_1.started,r_2.started,r_3.started,r_1_label.started,r_2_label.started,r_3_label.started,prompt.started,choice_trial.stopped,trials.rect_choice.keys,trials.rect_choice.rt,trials.rect_choice.duration,end_block.started,end_block_text.started,end_block.stopped,end.started,end_text.started,key_resp_7.started,end.stopped,key_resp_7.keys,key_resp_7.rt,key_resp_7.duration,debriefing.started,debrief_form.started,end_debrief.started,debriefing.stopped,end_debrief.keys,end_debrief.rt,end_debrief.duration,participant,computer,date,expName,psychopyVersion,frameRate,expStart,
,,,,,,,,,,,,,,,,,,,,,,,,,,,,,,,0.020839929580688477,0.0417940616607666,0.0417940616607666,0.0417940616607666,0.02061319351196289,29.317914962768555,1,[29.273876428604126],[29.273897171020508],0,,,"[-214.0, -80.0]","[-494.0, -495.0]","[1, 1]","[0, 0]","[0, 0]","[27.981956481933594, 29.29669690132141]","[None, 'agree_button']",,,,,,,,,,,,,,,,,,,,,,,,,,,,,,,,,,,,,,,,,,,,,,,,,,,,,,,,,,,,,,,,,,,,,,,,,,,,,,,,,,,,,,,,,,,,,,,,,,,,,,,,,,,49,1,2025-02-19_14h07.49.240,comp,2024.2.4,54.08564616315041,2025-02-19 14h08.04.830159 -0500,
,,,,,,,,,,,,,,,,,,,,,,,,,,,,,,,,,,,,,,,,,,,,,,,,,,29.318522930145264,29.318580389022827,,,,,,,,,,,,,,,,,,,,,,,,,,,,,,,,,,,,,,,,,,,,,,,,,,,,,,,,,,,,,,,,,,,,,,,,,,,,,,,,,,,,,,,,,,,,,,,,,,,,,,,,,49,1,2025-02-19_14h07.49.240,comp,2024.2.4,54.08564616315041,2025-02-19 14h08.04.830159 -0500,
,,,,,,,,,,,,,,,,,,,,,,,,,,,,,,,,,,,,,,,,,,,,,,,,,,,,29.31861686706543,29.33376693725586,31.318767070770264,,,,,,,,,,,,,,,,,,,,,,,,,,,,,,,,,,,,,,,,,,,,,,,,,,,,,,,,,,,,,,,,,,,,,,,,,,,,,,,,,,,,,,,,,,,,,,,,,,,,,,49,1,2025-02-19_14h07.49.240,comp,2024.2.4,54.08564616315041,2025-02-19 14h08.04.830159 -0500,
0,0,0,,,,,,,,,,,,,,,0,0,0,0,,,,,,,,,31.33564519882202,,,,,,,,,,,,,,,,,,,,,,,,,,31.319663286209106,31.33564519882202,31.33564519882202,32.81924080848694,43.590365409851074,space,10.755959510803223,None,43.59052062034607,43.606274127960205,43.606274127960205,45.10362100601196,50.70748853683472,space,5.600156545639038,None,50.70764446258545,50.73643112182617,50.73643112182617,50.73643112182617,50.73643112182617,50.73643112182617,50.73643112182617,50.73643112182617,50.73643112182617,50.73643112182617,52.208759784698486,55.349080324172974,space,3.1263394355773926,None,55.34923982620239,55.37145447731018,55.37145447731018,55.37145447731018,56.85886573791504,60.44606423377991,space,3.5809011459350586,None,60.44622087478638,60.46405339241028,60.46405339241028,61.94570827484131,62.465519189834595,space,0.5015206336975098,None,62.465718269348145,62.48324537277222,62.48324537277222,63.380772829055786,space,0.8838374614715576,None,,,,,,,,,,,,,,,,,,,,,,,,,,,,,,,,,,,,,,,,,,,,,,,49,1,2025-02-19_14h07.49.240,comp,2024.2.4,54.08564616315041,2025-02-19 14h08.04.830159 -0500,
0,0,0,filler_random,None,None,None,None,None,None,None,None,None,None,3,14.571157217025757,None,,,,,0,0,0,0,0,0,0,156,63.460206747055054,,,,,,,,,,,,,,,,,,,,,,,,,,,,,,,,,,,,,,,,,,,,,,,,,,,,,,,,,,,,,,,,,,,,,,,,,,,,,,,,,103.55700531141973,65.82125497518007,89.98234475600864,77.68670198577331,86.14743571601319,176.1377515198481,4.0,4.2,-168,-11,0,-281,223,4,63.44468832015991,63.44472026824951,63.44611978530884,63.460206747055054,63.6066358089447,63.6066358089447,63.6066358089447,63.6066358089447,63.6066358089447,63.6066358089447,63.6066358089447,78.04205894470215,3,14.571157217025757,None,,,,,,,,,,,,,,,,,,49,1,2025-02-19_14h07.49.240,comp,2024.2.4,54.08564616315041,2025-02-19 14h08.04.830159 -0500,
1,1,0,filler_random,None,None,None,None,None,None,None,None,None,None,1,6.43029522895813,None,,,,,0,0,0,0,0,1,1,169,78.05684065818787,,,,,,,,,,,,,,,,,,,,,,,,,,,,,,,,,,,,,,,,,,,,,,,,,,,,,,,,,,,,,,,,,,,,,,,,,,,,,,,,,86.85064896209191,163.57770716511817,113.2894825354617,105.54332185566662,81.06079315107226,136.61330062757344,2.1,2.11,-231,282,0,270,217,-255,78.04395699501038,78.04409718513489,78.04730820655823,78.05684065818787,78.2071704864502,78.2071704864502,78.2071704864502,78.2071704864502,78.2071704864502,78.2071704864502,78.2071704864502,84.50090289115906,1,6.43029522895813,None,,,,,,,,,,,,,,,,,,49,1,2025-02-19_14h07.49.240,comp,2024.2.4,54.08564616315041,2025-02-19 14h08.04.830159 -0500,
2,2,0,filler_square,None,None,None,None,None,None,None,None,None,None,3,3.5628247261047363,None,,,,,0,0,0,0,0,2,2,194,84.51641321182251,,,,,,,,,,,,,,,,,,,,,,,,,,,,,,,,,,,,,,,,,,,,,,,,,,,,,,,,,,,,,,,,,,,,,,,,,,,,,,,,,60.45928238715518,69.86859139672508,89.92253222453684,57.089656889047674,115.28806884739922,115.28806884739922,2.1,2.12,-159,-290,0,-250,182,257,84.50273060798645,84.50280785560608,84.50574445724487,84.51641321182251,84.65803909301758,84.65803909301758,84.65803909301758,84.65803909301758,84.65803909301758,84.65803909301758,84.65803909301758,88.09374165534973,3,3.5628247261047363,None,,,,,,,,,,,,,,,,,,49,1,2025-02-19_14h07.49.240,comp,2024.2.4,54.08564616315041,2025-02-19 14h08.04.830159 -0500,
3,3,0,filler_random,None,None,None,None,None,None,None,None,None,None,2,1.8031444549560547,None,,,,,0,0,0,0,0,3,3,134,88.10870409011841,,,,,,,,,,,,,,,,,,,,,,,,,,,,,,,,,,,,,,,,,,,,,,,,,,,,,,,,,,,,,,,,,,,,,,,,,,,,,,,,,76.20268686673109,148.40764387287655,193.43180678039533,184.54981520698163,72.1088873532152,90.47014756253358,4.0,4.2,-262,-14,0,-278,234,-19,88.09540462493896,88.09547972679138,88.09840846061707,88.10870409011841,88.25472283363342,88.25472283363342,88.25472283363342,88.25472283363342,88.25472283363342,88.25472283363342,88.25472283363342,89.92255663871765,2,1.8031444549560547,None,,,,,,,,,,,,,,,,,,49,1,2025-02-19_14h07.49.240,comp,2024.2.4,54.08564616315041,2025-02-19 14h08.04.830159 -0500,
4,4,0,critical,dwh,35.0,1.0,lower,70.0,70.0,57.0,133.0,133.0,57.0,3,3.5652456283569336,None,,,,,0,0,0,0,0,4,4,60,89.938645362854,,,,,,,,,,,,,,,,,,,,,,,,,,,,,,,,,,,,,,,,,,,,,,,,,,,,,,,,,,,,,,,,,,,,,,,,,,,,,,,,,70.0,70.0,57.0,133.0,133.0,57.0,1.0,1.2,-198,15,0,-10,191,17,89.92413473129272,89.92423367500305,89.92775297164917,89.938645362854,90.08879661560059,90.08879661560059,90.08879661560059,90.08879661560059,90.08879661560059,90.08879661560059,90.08879661560059,93.50828647613525,3,3.5652456283569336,None,,,,,,,,,,,,,,,,,,49,1,2025-02-19_14h07.49.240,comp,2024.2.4,54.08564616315041,2025-02-19 14h08.04.830159 -0500,
5,5,0,critical,hwd,35.0,4.0,upper,200.0,125.0,125.0,200.0,127.0,127.0,1,3.2597830295562744,None,,,,,0,0,0,0,0,5,5,101,93.52395915985107,,,,,,,,,,,,,,,,,,,,,,,,,,,,,,,,,,,,,,,,,,,,,,,,,,,,,,,,,,,,,,,,,,,,,,,,,,,,,,,,,200.0,125.0,125.0,200.0,127.0,127.0,4.0,4.2,-258,17,0,-289,260,6,93.50987720489502,93.50995373725891,93.51317548751831,93.52395915985107,93.67608332633972,93.67608332633972,93.67608332633972,93.67608332633972,93.67608332633972,93.67608332633972,93.67608332633972,96.7907874584198,1,3.2597830295562744,None,,,,,,,,,,,,,,,,,,49,1,2025-02-19_14h07.49.240,comp,2024.2.4,54.08564616315041,2025-02-19 14h08.04.830159 -0500,
6,6,0,critical,dhw,20.0,4.0,upper,141.0,141.0,200.0,125.0,125.0,200.0,3,4.4650678634643555,None,,,,,0,0,0,0,0,6,6,59,96.80674600601196,,,,,,,,,,,,,,,,,,,,,,,,,,,,,,,,,,,,,,,,,,,,,,,,,,,,,,,,,,,,,,,,,,,,,,,,,,,,,,,,,141.0,141.0,200.0,125.0,125.0,200.0,4.0,4.1,-229,-254,0,-17,258,-260,96.79228019714355,96.79235935211182,96.79578948020935,96.80674600601196,96.95628809928894,96.95628809928894,96.95628809928894,96.95628809928894,96.95628809928894,96.95628809928894,96.95628809928894,101.27441787719727,3,4.4650678634643555,None,,,,,,,,,,,,,,,,,,49,1,2025-02-19_14h07.49.240,comp,2024.2.4,54.08564616315041,2025-02-19 14h08.04.830159 -0500,
7,7,0,critical,wdh,35.0,3.0,upper,125.0,200.0,127.0,127.0,200.0,125.0,1,4.229463815689087,None,,,,,0,0,0,0,0,7,7,75,101.2906334400177,,,,,,,,,,,,,,,,,,,,,,,,,,,,,,,,,,,,,,,,,,,,,,,,,,,,,,,,,,,,,,,,,,,,,,,,,,,,,,,,,125.0,200.0,127.0,127.0,200.0,125.0,3.0,3.1,-260,268,0,-14,222,-268,101.27591586112976,101.27602243423462,101.2791485786438,101.2906334400177,101.44685053825378,101.44685053825378,101.44685053825378,101.44685053825378,101.44685053825378,101.44685053825378,101.44685053825378,105.5272924900055,1,4.229463815689087,None,,,,,,,,,,,,,,,,,,49,1,2025-02-19_14h07.49.240,comp,2024.2.4,54.08564616315041,2025-02-19 14h08.04.830159 -0500,
8,8,0,critical,hdw,20.0,4.0,lower,133.0,57.0,78.0,78.0,57.0,133.0,3,6.112079620361328,None,,,,,0,0,0,0,0,8,8,118,105.54375147819519,,,,,,,,,,,,,,,,,,,,,,,,,,,,,,,,,,,,,,,,,,,,,,,,,,,,,,,,,,,,,,,,,,,,,,,,,,,,,,,,,133.0,57.0,78.0,78.0,57.0,133.0,4.0,4.1,-164,-266,0,-1,202,-251,105.52883434295654,105.52891206741333,105.53294825553894,105.54375147819519,105.69531774520874,105.69531774520874,105.69531774520874,105.69531774520874,105.69531774520874,105.69531774520874,105.69531774520874,111.66254425048828,3,6.112079620361328,None,,,,,,,,,,,,,,,,,,49,1,2025-02-19_14h07.49.240,comp,2024.2.4,54.08564616315041,2025-02-19 14h08.04.830159 -0500,
9,9,0,filler_square,None,None,None,None,None,None,None,None,None,None,1,4.870453119277954,None,,,,,0,0,0,0,0,9,9,198,111.68141651153564,,,,,,,,,,,,,,,,,,,,,,,,,,,,,,,,,,,,,,,,,,,,,,,,,,,,,,,,,,,,,,,,,,,,,,,,,,,,,,,,,62.65999323239805,62.65999323239805,57.61508266719903,60.74666518915406,61.13251901980588,57.318266333604576,2.1,2.12,-158,-282,0,-267,155,285,111.66460728645325,111.66468691825867,111.66840553283691,111.68141651153564,111.82664895057678,111.82664895057678,111.82664895057678,111.82664895057678,111.82664895057678,111.82664895057678,111.82664895057678,116.56324124336243,1,4.870453119277954,None,,,,,,,,,,,,,,,,,,49,1,2025-02-19_14h07.49.240,comp,2024.2.4,54.08564616315041,2025-02-19 14h08.04.830159 -0500,
10,10,0,critical,hwd,20.0,3.0,upper,200.0,125.0,125.0,200.0,141.0,141.0,2,3.651132583618164,None,,,,,0,0,0,0,0,10,10,105,116.58012056350708,,,,,,,,,,,,,,,,,,,,,,,,,,,,,,,,,,,,,,,,,,,,,,,,,,,,,,,,,,,,,,,,,,,,,,,,,,,,,,,,,200.0,125.0,125.0,200.0,141.0,141.0,3.0,3.1,-258,258,0,-1,266,-259,116.56489992141724,116.56505632400513,116.56862759590149,116.58012056350708,116.73542284965515,116.73542284965515,116.73542284965515,116.73542284965515,116.73542284965515,116.73542284965515,116.73542284965515,120.24773144721985,2,3.651132583618164,None,,,,,,,,,,,,,,,,,,49,1,2025-02-19_14h07.49.240,comp,2024.2.4,54.08564616315041,2025-02-19 14h08.04.830159 -0500,
11,11,0,critical,hdw,20.0,2.1,lower,133.0,57.0,78.0,78.0,57.0,133.0,3,5.61674427986145,None,,,,,0,0,0,0,0,11,11,46,120.26304960250854,,,,,,,,,,,,,,,,,,,,,,,,,,,,,,,,,,,,,,,,,,,,,,,,,,,,,,,,,,,,,,,,,,,,,,,,,,,,,,,,,133.0,57.0,78.0,78.0,57.0,133.0,2.1,2.12,-164,-277,0,-288,202,279,120.24932956695557,120.2494068145752,120.25276947021484,120.26304960250854,120.41548538208008,120.41548538208008,120.41548538208008,120.41548538208008,120.41548538208008,120.41548538208008,120.41548538208008,125.8859236240387,3,5.61674427986145,None,,,,,,,,,,,,,,,,,,49,1,2025-02-19_14h07.49.240,comp,2024.2.4,54.08564616315041,2025-02-19 14h08.04.830159 -0500,
12,12,0,critical,dwh,35.0,2.1,lower,70.0,70.0,57.0,133.0,133.0,57.0,2,2.975099802017212,None,,,,,0,0,0,0,0,12,12,28,125.90450525283813,,,,,,,,,,,,,,,,,,,,,,,,,,,,,,,,,,,,,,,,,,,,,,,,,,,,,,,,,,,,,,,,,,,,,,,,,,,,,,,,,70.0,70.0,57.0,133.0,133.0,57.0,2.1,2.12,-198,-251,0,-254,191,263,125.88776183128357,125.88789415359497,125.89130878448486,125.90450525283813,126.0533857345581,126.0533857345581,126.0533857345581,126.0533857345581,126.0533857345581,126.0533857345581,126.0533857345581,128.88260197639465,2,2.975099802017212,None,,,,,,,,,,,,,,,,,,49,1,2025-02-19_14h07.49.240,comp,2024.2.4,54.08564616315041,2025-02-19 14h08.04.830159 -0500,
13,13,0,critical,hwd,35.0,2.1,lower,133.0,57.0,57.0,133.0,70.0,70.0,1,5.220594644546509,None,,,,,0,0,0,0,0,13,13,40,128.89897465705872,,,,,,,,,,,,,,,,,,,,,,,,,,,,,,,,,,,,,,,,,,,,,,,,,,,,,,,,,,,,,,,,,,,,,,,,,,,,,,,,,133.0,57.0,57.0,133.0,70.0,70.0,2.1,2.12,-191,-289,0,-261,198,252,128.88409900665283,128.8841757774353,128.88713812828064,128.89897465705872,129.05353569984436,129.05353569984436,129.05353569984436,129.05353569984436,129.05353569984436,129.05353569984436,129.05353569984436,134.13820838928223,1,5.220594644546509,None,,,,,,,,,,,,,,,,,,49,1,2025-02-19_14h07.49.240,comp,2024.2.4,54.08564616315041,2025-02-19 14h08.04.830159 -0500,
14,14,0,critical,wdh,35.0,4.0,upper,125.0,200.0,127.0,127.0,200.0,125.0,3,4.340595722198486,None,,,,,0,0,0,0,0,14,14,77,134.15480637550354,,,,,,,,,,,,,,,,,,,,,,,,,,,,,,,,,,,,,,,,,,,,,,,,,,,,,,,,,,,,,,,,,,,,,,,,,,,,,,,,,125.0,200.0,127.0,127.0,200.0,125.0,4.0,4.1,-260,-281,0,-6,222,-276,134.13990259170532,134.14001536369324,134.14362812042236,134.15480637550354,134.30254483222961,134.30254483222961,134.30254483222961,134.30254483222961,134.30254483222961,134.30254483222961,134.30254483222961,138.51194500923157,3,4.340595722198486,None,,,,,,,,,,,,,,,,,,49,1,2025-02-19_14h07.49.240,comp,2024.2.4,54.08564616315041,2025-02-19 14h08.04.830159 -0500,
15,15,0,filler_random,None,None,None,None,None,None,None,None,None,None,3,2.55214524269104,None,,,,,0,0,0,0,0,15,15,158,138.52935600280762,,,,,,,,,,,,,,,,,,,,,,,,,,,,,,,,,,,,,,,,,,,,,,,,,,,,,,,,,,,,,,,,,,,,,,,,,,,,,,,,,92.30147336771576,63.87850308905499,91.19866327035768,97.27842613896514,105.17305625154512,186.37777426779212,2.2,2.22,-177,288,0,-264,238,-279,138.51361393928528,138.513689994812,138.51655864715576,138.52935600280762,138.67087078094482,138.67087078094482,138.67087078094482,138.67087078094482,138.67087078094482,138.67087078094482,138.67087078094482,141.08679819107056,3,2.55214524269104,None,,,,,,,,,,,,,,,,,,49,1,2025-02-19_14h07.49.240,comp,2024.2.4,54.08564616315041,2025-02-19 14h08.04.830159 -0500,
16,16,0,critical,wdh,35.0,4.0,lower,57.0,133.0,70.0,70.0,133.0,57.0,3,4.087949991226196,None,,,,,0,0,0,0,0,16,16,76,141.10336065292358,,,,,,,,,,,,,,,,,,,,,,,,,,,,,,,,,,,,,,,,,,,,,,,,,,,,,,,,,,,,,,,,,,,,,,,,,,,,,,,,,57.0,133.0,70.0,70.0,133.0,57.0,4.0,4.2,-198,15,0,-283,160,-14,141.08833169937134,141.0884063243866,141.09159517288208,141.10336065292358,141.25672793388367,141.25672793388367,141.25672793388367,141.25672793388367,141.25672793388367,141.25672793388367,141.25672793388367,145.20556497573853,3,4.087949991226196,None,,,,,,,,,,,,,,,,,,49,1,2025-02-19_14h07.49.240,comp,2024.2.4,54.08564616315041,2025-02-19 14h08.04.830159 -0500,
17,17,0,critical,wdh,35.0,2.1,upper,125.0,200.0,127.0,127.0,200.0,125.0,1,5.970774412155151,None,,,,,0,0,0,0,0,17,17,33,145.22093677520752,,,,,,,,,,,,,,,,,,,,,,,,,,,,,,,,,,,,,,,,,,,,,,,,,,,,,,,,,,,,,,,,,,,,,,,,,,,,,,,,,125.0,200.0,127.0,127.0,200.0,125.0,2.1,2.12,-260,-287,0,-275,222,265,145.2071077823639,145.20718026161194,145.2106590270996,145.22093677520752,145.37260484695435,145.37260484695435,145.37260484695435,145.37260484695435,145.37260484695435,145.37260484695435,145.37260484695435,151.19849801063538,1,5.970774412155151,None,,,,,,,,,,,,,,,,,,49,1,2025-02-19_14h07.49.240,comp,2024.2.4,54.08564616315041,2025-02-19 14h08.04.830159 -0500,
18,18,0,filler_square,None,None,None,None,None,None,None,None,None,None,3,4.310973405838013,None,,,,,0,0,0,0,0,18,18,189,151.21634817123413,,,,,,,,,,,,,,,,,,,,,,,,,,,,,,,,,,,,,,,,,,,,,,,,,,,,,,,,,,,,,,,,,,,,,,,,,,,,,,,,,159.69977840042318,183.38304947718754,78.12196696550626,132.37390009953683,196.181887863974,196.181887863974,1.0,1.3,226,-288,480,-273,740,-276,151.200199842453,151.2002763748169,151.20321416854858,151.21634817123413,151.35703682899475,151.35703682899475,151.35703682899475,151.35703682899475,151.35703682899475,151.35703682899475,151.35703682899475,155.5296242237091,3,4.310973405838013,None,,,,,,,,,,,,,,,,,,49,1,2025-02-19_14h07.49.240,comp,2024.2.4,54.08564616315041,2025-02-19 14h08.04.830159 -0500,
19,19,0,filler_random,None,None,None,None,None,None,None,None,None,None,3,5.701314210891724,None,,,,,0,0,0,0,0,19,19,131,155.54621863365173,,,,,,,,,,,,,,,,,,,,,,,,,,,,,,,,,,,,,,,,,,,,,,,,,,,,,,,,,,,,,,,,,,,,,,,,,,,,,,,,,95.57532194558715,194.78002660539988,58.36296346130955,92.48054938701134,195.5673427850159,186.25170027580072,2.1,2.12,-240,-264,0,-284,235,259,155.53142070770264,155.5315020084381,155.53539061546326,155.54621863365173,155.68838953971863,155.68838953971863,155.68838953971863,155.68838953971863,155.68838953971863,155.68838953971863,155.68838953971863,161.26383924484253,3,5.701314210891724,None,,,,,,,,,,,,,,,,,,49,1,2025-02-19_14h07.49.240,comp,2024.2.4,54.08564616315041,2025-02-19 14h08.04.830159 -0500,
20,20,0,filler_random,None,None,None,None,None,None,None,None,None,None,2,5.886385440826416,None,,,,,0,0,0,0,0,20,20,154,161.28152322769165,,,,,,,,,,,,,,,,,,,,,,,,,,,,,,,,,,,,,,,,,,,,,,,,,,,,,,,,,,,,,,,,,,,,,,,,,,,,,,,,,145.84368058642548,88.75422691952043,134.70192825958617,153.27967255800536,137.156850573329,132.4684028735952,2.2,2.21,-217,-252,0,274,239,289,161.26556420326233,161.26564049720764,161.26876044273376,161.28152322769165,161.42704677581787,161.42704677581787,161.42704677581787,161.42704677581787,161.42704677581787,161.42704677581787,161.42704677581787,167.17941904067993,2,5.886385440826416,None,,,,,,,,,,,,,,,,,,49,1,2025-02-19_14h07.49.240,comp,2024.2.4,54.08564616315041,2025-02-19 14h08.04.830159 -0500,
21,21,0,critical,dwh,20.0,1.0,lower,78.0,78.0,57.0,133.0,133.0,57.0,3,7.547619819641113,None,,,,,0,0,0,0,0,21,21,66,167.19603753089905,,,,,,,,,,,,,,,,,,,,,,,,,,,,,,,,,,,,,,,,,,,,,,,,,,,,,,,,,,,,,,,,,,,,,,,,,,,,,,,,,78.0,78.0,57.0,133.0,133.0,57.0,1.0,1.3,278,-264,480,-251,671,-261,167.1809024810791,167.1809959411621,167.18493604660034,167.19603753089905,167.34470796585083,167.34470796585083,167.34470796585083,167.34470796585083,167.34470796585083,167.34470796585083,167.34470796585083,174.74684596061707,3,7.547619819641113,None,,,,,,,,,,,,,,,,,,49,1,2025-02-19_14h07.49.240,comp,2024.2.4,54.08564616315041,2025-02-19 14h08.04.830159 -0500,
22,22,0,filler_square,None,None,None,None,None,None,None,None,None,None,2,2.6438581943511963,None,,,,,0,0,0,0,0,22,22,208,174.76368522644043,,,,,,,,,,,,,,,,,,,,,,,,,,,,,,,,,,,,,,,,,,,,,,,,,,,,,,,,,,,,,,,,,,,,,,,,,,,,,,,,,143.797349858504,111.85847060860905,162.78196889475652,162.78196889475652,110.25561182659386,60.67959192062623,2.1,2.12,-233,-287,0,-263,208,269,174.74859261512756,174.74867177009583,174.75189089775085,174.76368522644043,174.912456035614,174.912456035614,174.912456035614,174.912456035614,174.912456035614,174.912456035614,174.912456035614,177.41660499572754,2,2.6438581943511963,None,,,,,,,,,,,,,,,,,,49,1,2025-02-19_14h07.49.240,comp,2024.2.4,54.08564616315041,2025-02-19 14h08.04.830159 -0500,
23,23,0,critical,wdh,20.0,1.0,upper,125.0,200.0,141.0,141.0,200.0,125.0,1,4.3741443157196045,None,,,,,0,0,0,0,0,23,23,79,177.43334102630615,,,,,,,,,,,,,,,,,,,,,,,,,,,,,,,,,,,,,,,,,,,,,,,,,,,,,,,,,,,,,,,,,,,,,,,,,,,,,,,,,125.0,200.0,141.0,141.0,200.0,125.0,1.0,1.1,-746,276,-480,250,-251,263,177.41820883750916,177.4182848930359,177.42156863212585,177.43334102630615,177.58267045021057,177.58267045021057,177.58267045021057,177.58267045021057,177.58267045021057,177.58267045021057,177.58267045021057,181.81769847869873,1,4.3741443157196045,None,,,,,,,,,,,,,,,,,,49,1,2025-02-19_14h07.49.240,comp,2024.2.4,54.08564616315041,2025-02-19 14h08.04.830159 -0500,
24,24,0,critical,hdw,20.0,2.1,upper,200.0,125.0,141.0,141.0,125.0,200.0,1,6.0617077350616455,None,,,,,0,0,0,0,0,24,24,23,181.8344259262085,,,,,,,,,,,,,,,,,,,,,,,,,,,,,,,,,,,,,,,,,,,,,,,,,,,,,,,,,,,,,,,,,,,,,,,,,,,,,,,,,200.0,125.0,141.0,141.0,125.0,200.0,2.1,2.12,-229,-285,0,-285,266,269,181.81931471824646,181.81939220428467,181.82268142700195,181.8344259262085,181.9895534515381,181.9895534515381,181.9895534515381,181.9895534515381,181.9895534515381,181.9895534515381,181.9895534515381,187.9025571346283,1,6.0617077350616455,None,,,,,,,,,,,,,,,,,,49,1,2025-02-19_14h07.49.240,comp,2024.2.4,54.08564616315041,2025-02-19 14h08.04.830159 -0500,
25,25,0,filler_random,None,None,None,None,None,None,None,None,None,None,2,1.528554916381836,None,,,,,0,0,0,0,0,25,25,147,187.91934061050415,,,,,,,,,,,,,,,,,,,,,,,,,,,,,,,,,,,,,,,,,,,,,,,,,,,,,,,,,,,,,,,,,,,,,,,,,,,,,,,,,103.28888653496587,72.99175271922428,155.17511293545775,189.6686700025844,145.37971087927883,180.18428448571999,1.0,1.2,-227,-1,0,-1,281,20,187.90418004989624,187.9042592048645,187.90767884254456,187.91934061050415,188.06983399391174,188.06983399391174,188.06983399391174,188.06983399391174,188.06983399391174,188.06983399391174,188.06983399391174,189.45731854438782,2,1.528554916381836,None,,,,,,,,,,,,,,,,,,49,1,2025-02-19_14h07.49.240,comp,2024.2.4,54.08564616315041,2025-02-19 14h08.04.830159 -0500,
26,26,0,critical,wdh,20.0,2.1,upper,125.0,200.0,141.0,141.0,200.0,125.0,3,5.252473831176758,None,,,,,0,0,0,0,0,26,26,35,189.47490906715393,,,,,,,,,,,,,,,,,,,,,,,,,,,,,,,,,,,,,,,,,,,,,,,,,,,,,,,,,,,,,,,,,,,,,,,,,,,,,,,,,125.0,200.0,141.0,141.0,200.0,125.0,2.1,2.11,-266,252,0,286,229,-266,189.45890140533447,189.45900011062622,189.4618661403656,189.47490906715393,189.6205551624298,189.6205551624298,189.6205551624298,189.6205551624298,189.6205551624298,189.6205551624298,189.6205551624298,194.73696994781494,3,5.252473831176758,None,,,,,,,,,,,,,,,,,,49,1,2025-02-19_14h07.49.240,comp,2024.2.4,54.08564616315041,2025-02-19 14h08.04.830159 -0500,
27,27,0,critical,dwh,35.0,2.1,upper,127.0,127.0,125.0,200.0,200.0,125.0,2,8.052325010299683,None,,,,,0,0,0,0,0,27,27,29,194.7550892829895,,,,,,,,,,,,,,,,,,,,,,,,,,,,,,,,,,,,,,,,,,,,,,,,,,,,,,,,,,,,,,,,,,,,,,,,,,,,,,,,,127.0,127.0,125.0,200.0,200.0,125.0,2.1,2.12,-260,-277,0,-286,258,270,194.73849153518677,194.7385642528534,194.74178099632263,194.7550892829895,194.9071729183197,194.9071729183197,194.9071729183197,194.9071729183197,194.9071729183197,194.9071729183197,194.9071729183197,202.8240020275116,2,8.052325010299683,None,,,,,,,,,,,,,,,,,,49,1,2025-02-19_14h07.49.240,comp,2024.2.4,54.08564616315041,2025-02-19 14h08.04.830159 -0500,
28,28,0,critical,wdh,35.0,3.0,lower,57.0,133.0,70.0,70.0,133.0,57.0,3,3.119605779647827,None,,,,,0,0,0,0,0,28,28,74,202.83981084823608,,,,,,,,,,,,,,,,,,,,,,,,,,,,,,,,,,,,,,,,,,,,,,,,,,,,,,,,,,,,,,,,,,,,,,,,,,,,,,,,,57.0,133.0,70.0,70.0,133.0,57.0,3.0,3.1,-198,278,0,18,160,-274,202.82547402381897,202.82554841041565,202.82950115203857,202.83981084823608,202.9800946712494,202.9800946712494,202.9800946712494,202.9800946712494,202.9800946712494,202.9800946712494,202.9800946712494,205.97415709495544,3,3.119605779647827,None,,,,,,,,,,,,,,,,,,49,1,2025-02-19_14h07.49.240,comp,2024.2.4,54.08564616315041,2025-02-19 14h08.04.830159 -0500,
29,29,0,filler_random,None,None,None,None,None,None,None,None,None,None,2,13.744882345199585,None,,,,,0,0,0,0,0,29,29,146,205.99110436439514,,,,,,,,,,,,,,,,,,,,,,,,,,,,,,,,,,,,,,,,,,,,,,,,,,,,,,,,,,,,,,,,,,,,,,,,,,,,,,,,,113.02794091617113,171.9547026020337,174.48907515682166,120.97720990187187,73.14951317953853,170.41152959866,4.0,4.2,-242,0,0,-260,242,18,205.97592878341675,205.97608423233032,205.9793426990509,205.99110436439514,206.14242148399353,206.14242148399353,206.14242148399353,206.14242148399353,206.14242148399353,206.14242148399353,206.14242148399353,219.74706530570984,2,13.744882345199585,None,,,,,,,,,,,,,,,,,,49,1,2025-02-19_14h07.49.240,comp,2024.2.4,54.08564616315041,2025-02-19 14h08.04.830159 -0500,
30,30,0,critical,hwd,20.0,2.1,lower,133.0,57.0,57.0,133.0,78.0,78.0,1,5.931988000869751,None,,,,,0,0,0,0,0,30,30,42,219.76341843605042,,,,,,,,,,,,,,,,,,,,,,,,,,,,,,,,,,,,,,,,,,,,,,,,,,,,,,,,,,,,,,,,,,,,,,,,,,,,,,,,,133.0,57.0,57.0,133.0,78.0,78.0,2.1,2.12,-191,-254,0,-277,202,269,219.7485511302948,219.74862813949585,219.75262761116028,219.76341843605042,219.91342186927795,219.91342186927795,219.91342186927795,219.91342186927795,219.91342186927795,219.91342186927795,219.91342186927795,225.69754242897034,1,5.931988000869751,None,,,,,,,,,,,,,,,,,,49,1,2025-02-19_14h07.49.240,comp,2024.2.4,54.08564616315041,2025-02-19 14h08.04.830159 -0500,
31,31,0,filler_square,None,None,None,None,None,None,None,None,None,None,2,2.5972721576690674,None,,,,,0,0,0,0,0,31,31,191,225.71423053741455,,,,,,,,,,,,,,,,,,,,,,,,,,,,,,,,,,,,,,,,,,,,,,,,,,,,,,,,,,,,,,,,,,,,,,,,,,,,,,,,,59.52543880093042,57.69314952124282,75.08129911465525,75.08129911465525,62.01919367696891,70.40417022676222,2.2,2.21,-162,-268,0,274,169,281,225.69938850402832,225.699467420578,225.7030644416809,225.71423053741455,225.86341309547424,225.86341309547424,225.86341309547424,225.86341309547424,225.86341309547424,225.86341309547424,225.86341309547424,228.31559252738953,2,2.5972721576690674,None,,,,,,,,,,,,,,,,,,49,1,2025-02-19_14h07.49.240,comp,2024.2.4,54.08564616315041,2025-02-19 14h08.04.830159 -0500,
32,32,0,critical,hdw,35.0,1.0,upper,200.0,125.0,127.0,127.0,125.0,200.0,1,3.779271125793457,None,,,,,0,0,0,0,0,32,32,109,228.33281803131104,,,,,,,,,,,,,,,,,,,,,,,,,,,,,,,,,,,,,,,,,,,,,,,,,,,,,,,,,,,,,,,,,,,,,,,,,,,,,,,,,200.0,125.0,127.0,127.0,125.0,200.0,1.0,1.1,-702,266,-480,258,-220,270,228.3171741962433,228.31726956367493,228.32142186164856,228.33281803131104,228.4834485054016,228.4834485054016,228.4834485054016,228.4834485054016,228.4834485054016,228.4834485054016,228.4834485054016,232.12033367156982,1,3.779271125793457,None,,,,,,,,,,,,,,,,,,49,1,2025-02-19_14h07.49.240,comp,2024.2.4,54.08564616315041,2025-02-19 14h08.04.830159 -0500,
33,33,0,filler_square,None,None,None,None,None,None,None,None,None,None,3,1.7803282737731934,None,,,,,0,0,0,0,0,33,33,170,232.1392858028412,,,,,,,,,,,,,,,,,,,,,,,,,,,,,,,,,,,,,,,,,,,,,,,,,,,,,,,,,,,,,,,,,,,,,,,,,,,,,,,,,112.56348771825125,101.5135747722857,120.96291412474933,137.38101720313009,146.9073071205198,146.9073071205198,2.2,2.22,-215,252,0,-278,238,-279,232.1222243309021,232.12229990959167,232.1252567768097,232.1392858028412,232.28317856788635,232.28317856788635,232.28317856788635,232.28317856788635,232.28317856788635,232.28317856788635,232.28317856788635,233.9349193572998,3,1.7803282737731934,None,,,,,,,,,,,,,,,,,,49,1,2025-02-19_14h07.49.240,comp,2024.2.4,54.08564616315041,2025-02-19 14h08.04.830159 -0500,
34,34,0,filler_random,None,None,None,None,None,None,None,None,None,None,2,3.1923537254333496,None,,,,,0,0,0,0,0,34,34,164,233.95114636421204,,,,,,,,,,,,,,,,,,,,,,,,,,,,,,,,,,,,,,,,,,,,,,,,,,,,,,,,,,,,,,,,,,,,,,,,,,,,,,,,,65.64586665003125,125.34200805540713,103.2386369623421,118.17472248581252,57.37153481799811,131.92121806256102,1.0,1.3,262,-266,480,-268,701,-256,233.93686175346375,233.93696928024292,233.94083833694458,233.95114636421204,234.0988166332245,234.0988166332245,234.0988166332245,234.0988166332245,234.0988166332245,234.0988166332245,234.0988166332245,237.14550161361694,2,3.1923537254333496,None,,,,,,,,,,,,,,,,,,49,1,2025-02-19_14h07.49.240,comp,2024.2.4,54.08564616315041,2025-02-19 14h08.04.830159 -0500,
35,35,0,critical,whd,35.0,1.0,upper,125.0,200.0,200.0,125.0,127.0,127.0,2,4.655249834060669,None,,,,,0,0,0,0,0,35,35,85,237.1608624458313,,,,,,,,,,,,,,,,,,,,,,,,,,,,,,,,,,,,,,,,,,,,,,,,,,,,,,,,,,,,,,,,,,,,,,,,,,,,,,,,,125.0,200.0,200.0,125.0,127.0,127.0,1.0,1.2,-258,-7,0,6,222,10,237.14694142341614,237.14706230163574,237.1499216556549,237.1608624458313,237.30224299430847,237.30224299430847,237.30224299430847,237.30224299430847,237.30224299430847,237.30224299430847,237.30224299430847,241.82094168663025,2,4.655249834060669,None,,,,,,,,,,,,,,,,,,49,1,2025-02-19_14h07.49.240,comp,2024.2.4,54.08564616315041,2025-02-19 14h08.04.830159 -0500,
36,36,0,filler_square,None,None,None,None,None,None,None,None,None,None,1,2.001589298248291,None,,,,,0,0,0,0,0,36,36,183,241.83788013458252,,,,,,,,,,,,,,,,,,,,,,,,,,,,,,,,,,,,,,,,,,,,,,,,,,,,,,,,,,,,,,,,,,,,,,,,,,,,,,,,,184.9964097921607,184.9964097921607,84.48726436534037,151.21643543242132,58.910580845772955,111.07679814832285,3.0,3.2,-264,-253,0,-4,227,261,241.82293820381165,241.82305550575256,241.8268530368805,241.83788013458252,241.98686265945435,241.98686265945435,241.98686265945435,241.98686265945435,241.98686265945435,241.98686265945435,241.98686265945435,243.85297203063965,1,2.001589298248291,None,,,,,,,,,,,,,,,,,,49,1,2025-02-19_14h07.49.240,comp,2024.2.4,54.08564616315041,2025-02-19 14h08.04.830159 -0500,
37,37,0,critical,whd,35.0,3.0,lower,57.0,133.0,133.0,57.0,70.0,70.0,2,5.271015644073486,None,,,,,0,0,0,0,0,37,37,86,243.8729305267334,,,,,,,,,,,,,,,,,,,,,,,,,,,,,,,,,,,,,,,,,,,,,,,,,,,,,,,,,,,,,,,,,,,,,,,,,,,,,,,,,57.0,133.0,133.0,57.0,70.0,70.0,3.0,3.2,-191,-253,0,-5,160,258,243.85454106330872,243.85461616516113,243.85763216018677,243.8729305267334,244.02024006843567,244.02024006843567,244.02024006843567,244.02024006843567,244.02024006843567,244.02024006843567,244.02024006843567,249.15958213806152,2,5.271015644073486,None,,,,,,,,,,,,,,,,,,49,1,2025-02-19_14h07.49.240,comp,2024.2.4,54.08564616315041,2025-02-19 14h08.04.830159 -0500,
38,38,0,filler_square,None,None,None,None,None,None,None,None,None,None,2,3.9293107986450195,None,,,,,0,0,0,0,0,38,38,175,249.1745800971985,,,,,,,,,,,,,,,,,,,,,,,,,,,,,,,,,,,,,,,,,,,,,,,,,,,,,,,,,,,,,,,,,,,,,,,,,,,,,,,,,73.48012883127247,79.1668790658081,90.33725653947062,90.33725653947062,85.01604266355568,79.03079570568329,2.1,2.11,-181,276,0,252,181,-279,249.16135239601135,249.16142749786377,249.16430258750916,249.1745800971985,249.32276940345764,249.32276940345764,249.32276940345764,249.32276940345764,249.32276940345764,249.32276940345764,249.32276940345764,253.1215090751648,2,3.9293107986450195,None,,,,,,,,,,,,,,,,,,49,1,2025-02-19_14h07.49.240,comp,2024.2.4,54.08564616315041,2025-02-19 14h08.04.830159 -0500,
39,39,0,critical,dhw,20.0,1.0,upper,141.0,141.0,200.0,125.0,125.0,200.0,2,3.199051856994629,None,,,,,0,0,0,0,0,39,39,55,253.13654136657715,,,,,,,,,,,,,,,,,,,,,,,,,,,,,,,,,,,,,,,,,,,,,,,,,,,,,,,,,,,,,,,,,,,,,,,,,,,,,,,,,141.0,141.0,200.0,125.0,125.0,200.0,1.0,1.2,-229,7,0,-1,258,-2,253.12296080589294,253.12306904792786,253.1262173652649,253.13654136657715,253.29074621200562,253.29074621200562,253.29074621200562,253.29074621200562,253.29074621200562,253.29074621200562,253.29074621200562,256.33771085739136,2,3.199051856994629,None,,,,,,,,,,,,,,,,,,49,1,2025-02-19_14h07.49.240,comp,2024.2.4,54.08564616315041,2025-02-19 14h08.04.830159 -0500,
40,40,0,critical,hwd,35.0,1.0,upper,200.0,125.0,125.0,200.0,127.0,127.0,2,5.5103254318237305,None,,,,,0,0,0,0,0,40,40,97,256.35326313972473,,,,,,,,,,,,,,,,,,,,,,,,,,,,,,,,,,,,,,,,,,,,,,,,,,,,,,,,,,,,,,,,,,,,,,,,,,,,,,,,,200.0,125.0,125.0,200.0,127.0,127.0,1.0,1.2,-258,10,0,-9,260,9,256.3392038345337,256.33928298950195,256.34222960472107,256.35326313972473,256.5070662498474,256.5070662498474,256.5070662498474,256.5070662498474,256.5070662498474,256.5070662498474,256.5070662498474,261.87663316726685,2,5.5103254318237305,None,,,,,,,,,,,,,,,,,,49,1,2025-02-19_14h07.49.240,comp,2024.2.4,54.08564616315041,2025-02-19 14h08.04.830159 -0500,
41,41,0,critical,hdw,20.0,4.0,upper,200.0,125.0,141.0,141.0,125.0,200.0,3,7.699408769607544,None,,,,,0,0,0,0,0,41,41,119,261.89201307296753,,,,,,,,,,,,,,,,,,,,,,,,,,,,,,,,,,,,,,,,,,,,,,,,,,,,,,,,,,,,,,,,,,,,,,,,,,,,,,,,,200.0,125.0,141.0,141.0,125.0,200.0,4.0,4.1,-229,-262,0,2,266,-251,261.8781716823578,261.87824988365173,261.8816599845886,261.89201307296753,262.0428476333618,262.0428476333618,262.0428476333618,262.0428476333618,262.0428476333618,262.0428476333618,262.0428476333618,269.6006112098694,3,7.699408769607544,None,,,,,,,,,,,,,,,,,,49,1,2025-02-19_14h07.49.240,comp,2024.2.4,54.08564616315041,2025-02-19 14h08.04.830159 -0500,
42,42,0,critical,whd,20.0,1.0,upper,125.0,200.0,200.0,125.0,141.0,141.0,2,1.4154202938079834,None,,,,,0,0,0,0,0,42,42,91,269.6165325641632,,,,,,,,,,,,,,,,,,,,,,,,,,,,,,,,,,,,,,,,,,,,,,,,,,,,,,,,,,,,,,,,,,,,,,,,,,,,,,,,,125.0,200.0,200.0,125.0,141.0,141.0,1.0,1.1,-738,281,-480,250,-251,266,269.6022472381592,269.60232615470886,269.6056044101715,269.6165325641632,269.761602640152,269.761602640152,269.761602640152,269.761602640152,269.761602640152,269.761602640152,269.761602640152,271.0349338054657,2,1.4154202938079834,None,,,,,,,,,,,,,,,,,,49,1,2025-02-19_14h07.49.240,comp,2024.2.4,54.08564616315041,2025-02-19 14h08.04.830159 -0500,
43,43,0,critical,dwh,35.0,3.0,upper,127.0,127.0,125.0,200.0,200.0,125.0,3,1.4443609714508057,None,,,,,0,0,0,0,0,43,43,63,271.0512294769287,,,,,,,,,,,,,,,,,,,,,,,,,,,,,,,,,,,,,,,,,,,,,,,,,,,,,,,,,,,,,,,,,,,,,,,,,,,,,,,,,127.0,127.0,125.0,200.0,200.0,125.0,3.0,3.2,-260,-260,0,5,258,278,271.0365574359894,271.03663516044617,271.03964281082153,271.0512294769287,271.20002341270447,271.20002341270447,271.20002341270447,271.20002341270447,271.20002341270447,271.20002341270447,271.20002341270447,272.5001995563507,3,1.4443609714508057,None,,,,,,,,,,,,,,,,,,49,1,2025-02-19_14h07.49.240,comp,2024.2.4,54.08564616315041,2025-02-19 14h08.04.830159 -0500,
44,44,0,critical,hdw,35.0,2.1,lower,133.0,57.0,70.0,70.0,57.0,133.0,1,1.5426146984100342,None,,,,,0,0,0,0,0,44,44,20,272.5210692882538,,,,,,,,,,,,,,,,,,,,,,,,,,,,,,,,,,,,,,,,,,,,,,,,,,,,,,,,,,,,,,,,,,,,,,,,,,,,,,,,,133.0,57.0,70.0,70.0,57.0,133.0,2.1,2.12,-160,-252,0,-284,198,272,272.5018148422241,272.501912355423,272.50529170036316,272.5210692882538,272.66329884529114,272.66329884529114,272.66329884529114,272.66329884529114,272.66329884529114,272.66329884529114,272.66329884529114,274.0657422542572,1,1.5426146984100342,None,,,,,,,,,,,,,,,,,,49,1,2025-02-19_14h07.49.240,comp,2024.2.4,54.08564616315041,2025-02-19 14h08.04.830159 -0500,
45,45,0,critical,whd,20.0,2.1,lower,57.0,133.0,133.0,57.0,78.0,78.0,2,1.3470146656036377,None,,,,,0,0,0,0,0,45,45,14,274.0846891403198,,,,,,,,,,,,,,,,,,,,,,,,,,,,,,,,,,,,,,,,,,,,,,,,,,,,,,,,,,,,,,,,,,,,,,,,,,,,,,,,,57.0,133.0,133.0,57.0,78.0,78.0,2.1,2.12,-191,-268,0,-275,164,266,274.06747817993164,274.06760811805725,274.07088708877563,274.0846891403198,274.22997307777405,274.22997307777405,274.22997307777405,274.22997307777405,274.22997307777405,274.22997307777405,274.22997307777405,275.44938707351685,2,1.3470146656036377,None,,,,,,,,,,,,,,,,,,49,1,2025-02-19_14h07.49.240,comp,2024.2.4,54.08564616315041,2025-02-19 14h08.04.830159 -0500,
46,46,0,critical,dwh,20.0,3.0,lower,78.0,78.0,57.0,133.0,133.0,57.0,3,3.8305323123931885,None,,,,,0,0,0,0,0,46,46,68,275.46510791778564,,,,,,,,,,,,,,,,,,,,,,,,,,,,,,,,,,,,,,,,,,,,,,,,,,,,,,,,,,,,,,,,,,,,,,,,,,,,,,,,,78.0,78.0,57.0,133.0,133.0,57.0,3.0,3.1,-202,270,0,-6,191,-285,275.4515926837921,275.4516704082489,275.4546127319336,275.46510791778564,275.61221647262573,275.61221647262573,275.61221647262573,275.61221647262573,275.61221647262573,275.61221647262573,275.61221647262573,279.3141522407532,3,3.8305323123931885,None,,,,,,,,,,,,,,,,,,49,1,2025-02-19_14h07.49.240,comp,2024.2.4,54.08564616315041,2025-02-19 14h08.04.830159 -0500,
47,47,0,filler_random,None,None,None,None,None,None,None,None,None,None,2,4.161247491836548,None,,,,,0,0,0,0,0,47,47,153,279.3343460559845,,,,,,,,,,,,,,,,,,,,,,,,,,,,,,,,,,,,,,,,,,,,,,,,,,,,,,,,,,,,,,,,,,,,,,,,,,,,,,,,,116.24040616909878,174.70948342746047,186.42205832613257,130.6556202769939,137.1646642374953,151.18733499943914,3.0,3.2,-249,-271,0,0,237,289,279.3158657550812,279.3160219192505,279.3194913864136,279.3343460559845,279.48171949386597,279.48171949386597,279.48171949386597,279.48171949386597,279.48171949386597,279.48171949386597,279.48171949386597,283.4997630119324,2,4.161247491836548,None,,,,,,,,,,,,,,,,,,49,1,2025-02-19_14h07.49.240,comp,2024.2.4,54.08564616315041,2025-02-19 14h08.04.830159 -0500,
48,48,0,filler_square,None,None,None,None,None,None,None,None,None,None,3,2.1937246322631836,None,,,,,0,0,0,0,0,48,48,203,283.517835855484,,,,,,,,,,,,,,,,,,,,,,,,,,,,,,,,,,,,,,,,,,,,,,,,,,,,,,,,,,,,,,,,,,,,,,,,,,,,,,,,,62.515721824323144,61.11902536432429,64.05683039893793,59.16286506126549,64.2034016554203,64.2034016554203,4.0,4.1,-156,-283,0,-8,158,-278,283.5015239715576,283.5016005039215,283.5047929286957,283.517835855484,283.66606974601746,283.66606974601746,283.66606974601746,283.66606974601746,283.66606974601746,283.66606974601746,283.66606974601746,285.7174210548401,3,2.1937246322631836,None,,,,,,,,,,,,,,,,,,49,1,2025-02-19_14h07.49.240,comp,2024.2.4,54.08564616315041,2025-02-19 14h08.04.830159 -0500,
49,49,0,critical,hwd,20.0,2.1,lower,133.0,57.0,57.0,133.0,78.0,78.0,1,4.773112773895264,None,,,,,0,0,0,0,0,49,49,18,285.7390615940094,,,,,,,,,,,,,,,,,,,,,,,,,,,,,,,,,,,,,,,,,,,,,,,,,,,,,,,,,,,,,,,,,,,,,,,,,,,,,,,,,133.0,57.0,57.0,133.0,78.0,78.0,2.1,2.12,-191,-271,0,-251,202,259,285.71889448165894,285.71896982192993,285.722177028656,285.7390615940094,285.8832473754883,285.8832473754883,285.8832473754883,285.8832473754883,285.8832473754883,285.8832473754883,285.8832473754883,290.5180473327637,1,4.773112773895264,None,,,,,,,,,,,,,,,,,,49,1,2025-02-19_14h07.49.240,comp,2024.2.4,54.08564616315041,2025-02-19 14h08.04.830159 -0500,
50,50,0,critical,dwh,35.0,4.0,upper,127.0,127.0,125.0,200.0,200.0,125.0,2,5.536461591720581,None,,,,,0,0,0,0,0,50,50,65,290.53508734703064,,,,,,,,,,,,,,,,,,,,,,,,,,,,,,,,,,,,,,,,,,,,,,,,,,,,,,,,,,,,,,,,,,,,,,,,,,,,,,,,,127.0,127.0,125.0,200.0,200.0,125.0,4.0,4.1,-260,-257,0,-9,258,-275,290.5196268558502,290.51970505714417,290.5233988761902,290.53508734703064,290.6817615032196,290.6817615032196,290.6817615032196,290.6817615032196,290.6817615032196,290.6817615032196,290.6817615032196,296.0863456726074,2,5.536461591720581,None,,,,,,,,,,,,,,,,,,49,1,2025-02-19_14h07.49.240,comp,2024.2.4,54.08564616315041,2025-02-19 14h08.04.830159 -0500,
51,51,0,filler_square,None,None,None,None,None,None,None,None,None,None,1,2.6959567070007324,None,,,,,0,0,0,0,0,51,51,204,296.104336977005,,,,,,,,,,,,,,,,,,,,,,,,,,,,,,,,,,,,,,,,,,,,,,,,,,,,,,,,,,,,,,,,,,,,,,,,,,,,,,,,,89.07849728054056,89.07849728054056,68.87494814653168,81.33346092200316,70.63155925654438,58.38228707877531,2.2,2.21,-181,-265,0,284,166,281,296.08827209472656,296.0883467197418,296.091646194458,296.104336977005,296.25386238098145,296.25386238098145,296.25386238098145,296.25386238098145,296.25386238098145,296.25386238098145,296.25386238098145,298.8047585487366,1,2.6959567070007324,None,,,,,,,,,,,,,,,,,,49,1,2025-02-19_14h07.49.240,comp,2024.2.4,54.08564616315041,2025-02-19 14h08.04.830159 -0500,
52,52,0,critical,whd,35.0,2.1,upper,125.0,200.0,200.0,125.0,127.0,127.0,2,3.946589708328247,None,,,,,0,0,0,0,0,52,52,37,298.82097268104553,,,,,,,,,,,,,,,,,,,,,,,,,,,,,,,,,,,,,,,,,,,,,,,,,,,,,,,,,,,,,,,,,,,,,,,,,,,,,,,,,125.0,200.0,200.0,125.0,127.0,127.0,2.1,2.11,-258,285,0,257,222,-258,298.8062925338745,298.8063678741455,298.8096327781677,298.82097268104553,298.97083950042725,298.97083950042725,298.97083950042725,298.97083950042725,298.97083950042725,298.97083950042725,298.97083950042725,302.7728695869446,2,3.946589708328247,None,,,,,,,,,,,,,,,,,,49,1,2025-02-19_14h07.49.240,comp,2024.2.4,54.08564616315041,2025-02-19 14h08.04.830159 -0500,
53,53,0,critical,hdw,20.0,1.0,lower,133.0,57.0,78.0,78.0,57.0,133.0,3,10.633275508880615,None,,,,,0,0,0,0,0,53,53,114,302.79100608825684,,,,,,,,,,,,,,,,,,,,,,,,,,,,,,,,,,,,,,,,,,,,,,,,,,,,,,,,,,,,,,,,,,,,,,,,,,,,,,,,,133.0,57.0,78.0,78.0,57.0,133.0,1.0,1.3,316,-273,480,-266,682,-287,302.7743601799011,302.77443742752075,302.77761721611023,302.79100608825684,302.9385361671448,302.9385361671448,302.9385361671448,302.9385361671448,302.9385361671448,302.9385361671448,302.9385361671448,313.432293176651,3,10.633275508880615,None,,,,,,,,,,,,,,,,,,49,1,2025-02-19_14h07.49.240,comp,2024.2.4,54.08564616315041,2025-02-19 14h08.04.830159 -0500,
54,54,0,critical,dhw,20.0,2.1,lower,78.0,78.0,133.0,57.0,57.0,133.0,2,1.9737496376037598,None,,,,,0,0,0,0,0,54,54,26,313.44978880882263,,,,,,,,,,,,,,,,,,,,,,,,,,,,,,,,,,,,,,,,,,,,,,,,,,,,,,,,,,,,,,,,,,,,,,,,,,,,,,,,,78.0,78.0,133.0,57.0,57.0,133.0,2.1,2.12,-164,-277,0,-261,191,260,313.4337329864502,313.43380784988403,313.4366807937622,313.44978880882263,313.59144377708435,313.59144377708435,313.59144377708435,313.59144377708435,313.59144377708435,313.59144377708435,313.59144377708435,315.4264888763428,2,1.9737496376037598,None,,,,,,,,,,,,,,,,,,49,1,2025-02-19_14h07.49.240,comp,2024.2.4,54.08564616315041,2025-02-19 14h08.04.830159 -0500,
55,55,0,critical,hwd,35.0,2.1,lower,133.0,57.0,57.0,133.0,70.0,70.0,1,4.49352765083313,None,,,,,0,0,0,0,0,55,55,16,315.4425392150879,,,,,,,,,,,,,,,,,,,,,,,,,,,,,,,,,,,,,,,,,,,,,,,,,,,,,,,,,,,,,,,,,,,,,,,,,,,,,,,,,133.0,57.0,57.0,133.0,70.0,70.0,2.1,2.11,-191,263,0,269,198,-287,315.4280598163605,315.42813420295715,315.43165707588196,315.4425392150879,315.59207582473755,315.59207582473755,315.59207582473755,315.59207582473755,315.59207582473755,315.59207582473755,315.59207582473755,319.9440724849701,1,4.49352765083313,None,,,,,,,,,,,,,,,,,,49,1,2025-02-19_14h07.49.240,comp,2024.2.4,54.08564616315041,2025-02-19 14h08.04.830159 -0500,
56,56,0,critical,hwd,35.0,2.1,upper,200.0,125.0,125.0,200.0,127.0,127.0,1,9.30344009399414,None,,,,,0,0,0,0,0,56,56,41,319.9602973461151,,,,,,,,,,,,,,,,,,,,,,,,,,,,,,,,,,,,,,,,,,,,,,,,,,,,,,,,,,,,,,,,,,,,,,,,,,,,,,,,,200.0,125.0,125.0,200.0,127.0,127.0,2.1,2.12,-258,-254,0,-283,260,273,319.9457447528839,319.9458487033844,319.9493772983551,319.9602973461151,320.1111788749695,320.1111788749695,320.1111788749695,320.1111788749695,320.1111788749695,320.1111788749695,320.1111788749695,329.27968096733093,1,9.30344009399414,None,,,,,,,,,,,,,,,,,,49,1,2025-02-19_14h07.49.240,comp,2024.2.4,54.08564616315041,2025-02-19 14h08.04.830159 -0500,
57,57,0,critical,hwd,20.0,2.1,upper,200.0,125.0,125.0,200.0,141.0,141.0,1,1.9773380756378174,None,,,,,0,0,0,0,0,57,57,43,329.2949631214142,,,,,,,,,,,,,,,,,,,,,,,,,,,,,,,,,,,,,,,,,,,,,,,,,,,,,,,,,,,,,,,,,,,,,,,,,,,,,,,,,200.0,125.0,125.0,200.0,141.0,141.0,2.1,2.12,-258,-269,0,-264,266,279,329.2812578678131,329.2813353538513,329.28446984291077,329.2949631214142,329.4477093219757,329.4477093219757,329.4477093219757,329.4477093219757,329.4477093219757,329.4477093219757,329.4477093219757,331.2822620868683,1,1.9773380756378174,None,,,,,,,,,,,,,,,,,,49,1,2025-02-19_14h07.49.240,comp,2024.2.4,54.08564616315041,2025-02-19 14h08.04.830159 -0500,
58,58,0,critical,hwd,35.0,3.0,lower,133.0,57.0,57.0,133.0,70.0,70.0,1,8.284837484359741,None,,,,,0,0,0,0,0,58,58,98,331.29881048202515,,,,,,,,,,,,,,,,,,,,,,,,,,,,,,,,,,,,,,,,,,,,,,,,,,,,,,,,,,,,,,,,,,,,,,,,,,,,,,,,,133.0,57.0,57.0,133.0,70.0,70.0,3.0,3.1,-191,281,0,-20,198,-256,331.28392815589905,331.28408646583557,331.2880702018738,331.29881048202515,331.4391484260559,331.4391484260559,331.4391484260559,331.4391484260559,331.4391484260559,331.4391484260559,331.4391484260559,339.5996034145355,1,8.284837484359741,None,,,,,,,,,,,,,,,,,,49,1,2025-02-19_14h07.49.240,comp,2024.2.4,54.08564616315041,2025-02-19 14h08.04.830159 -0500,
59,59,0,critical,dwh,20.0,2.1,upper,141.0,141.0,125.0,200.0,200.0,125.0,3,6.362315893173218,None,,,,,0,0,0,0,0,59,59,7,339.61583375930786,,,,,,,,,,,,,,,,,,,,,,,,,,,,,,,,,,,,,,,,,,,,,,,,,,,,,,,,,,,,,,,,,,,,,,,,,,,,,,,,,141.0,141.0,125.0,200.0,200.0,125.0,2.1,2.12,-266,-275,0,-254,258,281,339.60123229026794,339.6013095378876,339.60462260246277,339.61583375930786,339.7673509120941,339.7673509120941,339.7673509120941,339.7673509120941,339.7673509120941,339.7673509120941,339.7673509120941,345.9845769405365,3,6.362315893173218,None,,,,,,,,,,,,,,,,,,49,1,2025-02-19_14h07.49.240,comp,2024.2.4,54.08564616315041,2025-02-19 14h08.04.830159 -0500,
60,60,0,catch,None,None,None,None,None,None,None,None,None,None,3,1.7878148555755615,None,,,,,0,0,0,0,0,60,60,126,346.0041377544403,,,,,,,,,,,,,,,,,,,,,,,,,,,,,,,,,,,,,,,,,,,,,,,,,,,,,,,,,,,,,,,,,,,,,,,,,,,,,,,,,121,69,63,127,130,195,2.2,2.22,-194,278,0,-289,257,-286,345.98663568496704,345.9867298603058,345.9899547100067,346.0041377544403,346.1521689891815,346.1521689891815,346.1521689891815,346.1521689891815,346.1521689891815,346.1521689891815,346.1521689891815,347.8034372329712,3,1.7878148555755615,None,,,,,,,,,,,,,,,,,,49,1,2025-02-19_14h07.49.240,comp,2024.2.4,54.08564616315041,2025-02-19 14h08.04.830159 -0500,
61,61,0,critical,dhw,20.0,1.0,lower,78.0,78.0,133.0,57.0,57.0,133.0,2,1.9008142948150635,None,,,,,0,0,0,0,0,61,61,54,347.81897020339966,,,,,,,,,,,,,,,,,,,,,,,,,,,,,,,,,,,,,,,,,,,,,,,,,,,,,,,,,,,,,,,,,,,,,,,,,,,,,,,,,78.0,78.0,133.0,57.0,57.0,133.0,1.0,1.1,-644,268,-480,286,-289,276,347.8049213886261,347.8050172328949,347.8081965446472,347.81897020339966,347.96911334991455,347.96911334991455,347.96911334991455,347.96911334991455,347.96911334991455,347.96911334991455,347.96911334991455,349.7375385761261,2,1.9008142948150635,None,,,,,,,,,,,,,,,,,,49,1,2025-02-19_14h07.49.240,comp,2024.2.4,54.08564616315041,2025-02-19 14h08.04.830159 -0500,
62,62,0,filler_square,None,None,None,None,None,None,None,None,None,None,2,1.7107515335083008,None,,,,,0,0,0,0,0,62,62,188,349.7533714771271,,,,,,,,,,,,,,,,,,,,,,,,,,,,,,,,,,,,,,,,,,,,,,,,,,,,,,,,,,,,,,,,,,,,,,,,,,,,,,,,,76.28601569077813,68.03931801965606,99.23264205107606,99.23264205107606,59.159028938914965,99.0513275677769,1.0,1.1,-660,280,-480,288,-285,253,349.73928689956665,349.73936104774475,349.7428903579712,349.7533714771271,349.90494179725647,349.90494179725647,349.90494179725647,349.90494179725647,349.90494179725647,349.90494179725647,349.90494179725647,351.47041630744934,2,1.7107515335083008,None,,,,,,,,,,,,,,,,,,49,1,2025-02-19_14h07.49.240,comp,2024.2.4,54.08564616315041,2025-02-19 14h08.04.830159 -0500,
63,63,0,filler_random,None,None,None,None,None,None,None,None,None,None,2,2.0329110622406006,None,,,,,0,0,0,0,0,63,63,162,351.4862184524536,,,,,,,,,,,,,,,,,,,,,,,,,,,,,,,,,,,,,,,,,,,,,,,,,,,,,,,,,,,,,,,,,,,,,,,,,,,,,,,,,70.62268511294882,90.46095282766814,107.09444172803865,103.80853312469158,63.18610292063459,143.74846240368686,2.2,2.21,-193,-288,0,287,220,285,351.4720802307129,351.47215604782104,351.4756064414978,351.4862184524536,351.6379323005676,351.6379323005676,351.6379323005676,351.6379323005676,351.6379323005676,351.6379323005676,351.6379323005676,353.5364558696747,2,2.0329110622406006,None,,,,,,,,,,,,,,,,,,49,1,2025-02-19_14h07.49.240,comp,2024.2.4,54.08564616315041,2025-02-19 14h08.04.830159 -0500,
64,64,0,critical,dhw,20.0,3.0,upper,141.0,141.0,200.0,125.0,125.0,200.0,2,9.725989818572998,None,,,,,0,0,0,0,0,64,64,57,353.5536632537842,,,,,,,,,,,,,,,,,,,,,,,,,,,,,,,,,,,,,,,,,,,,,,,,,,,,,,,,,,,,,,,,,,,,,,,,,,,,,,,,,141.0,141.0,200.0,125.0,125.0,200.0,3.0,3.1,-229,251,0,2,258,-271,353.53688788414,353.5369062423706,353.53767490386963,353.5536632537842,353.68770360946655,353.68770360946655,353.68770360946655,353.68770360946655,353.68770360946655,353.68770360946655,353.68770360946655,363.29160499572754,2,9.725989818572998,None,,,,,,,,,,,,,,,,,,49,1,2025-02-19_14h07.49.240,comp,2024.2.4,54.08564616315041,2025-02-19 14h08.04.830159 -0500,
65,65,0,critical,hwd,35.0,4.0,lower,133.0,57.0,57.0,133.0,70.0,70.0,1,5.555851459503174,None,,,,,0,0,0,0,0,65,65,100,363.3161840438843,,,,,,,,,,,,,,,,,,,,,,,,,,,,,,,,,,,,,,,,,,,,,,,,,,,,,,,,,,,,,,,,,,,,,,,,,,,,,,,,,133.0,57.0,57.0,133.0,70.0,70.0,4.0,4.2,-191,17,0,-261,198,19,363.2931432723999,363.29322028160095,363.29616713523865,363.3161840438843,363.4591510295868,363.4591510295868,363.4591510295868,363.4591510295868,363.4591510295868,363.4591510295868,363.4591510295868,368.87490367889404,1,5.555851459503174,None,,,,,,,,,,,,,,,,,,49,1,2025-02-19_14h07.49.240,comp,2024.2.4,54.08564616315041,2025-02-19 14h08.04.830159 -0500,
66,66,0,critical,hdw,20.0,2.1,lower,133.0,57.0,78.0,78.0,57.0,133.0,3,3.0360991954803467,None,,,,,0,0,0,0,0,66,66,22,368.89158606529236,,,,,,,,,,,,,,,,,,,,,,,,,,,,,,,,,,,,,,,,,,,,,,,,,,,,,,,,,,,,,,,,,,,,,,,,,,,,,,,,,133.0,57.0,78.0,78.0,57.0,133.0,2.1,2.11,-164,269,0,270,202,-274,368.87640857696533,368.8764853477478,368.87965202331543,368.89158606529236,369.03229236602783,369.03229236602783,369.03229236602783,369.03229236602783,369.03229236602783,369.03229236602783,369.03229236602783,371.9429259300232,3,3.0360991954803467,None,,,,,,,,,,,,,,,,,,49,1,2025-02-19_14h07.49.240,comp,2024.2.4,54.08564616315041,2025-02-19 14h08.04.830159 -0500,
67,67,0,filler_square,None,None,None,None,None,None,None,None,None,None,2,2.3258047103881836,None,,,,,0,0,0,0,0,67,67,187,371.96233677864075,,,,,,,,,,,,,,,,,,,,,,,,,,,,,,,,,,,,,,,,,,,,,,,,,,,,,,,,,,,,,,,,,,,,,,,,,,,,,,,,,105.99452083644829,90.55669213963004,163.90854260758573,163.90854260758573,59.42154849224524,143.70884156794446,2.2,2.21,-223,-253,0,263,250,253,371.9446518421173,371.9447259902954,371.9477071762085,371.96233677864075,372.1011800765991,372.1011800765991,372.1011800765991,372.1011800765991,372.1011800765991,372.1011800765991,372.1011800765991,374.29383611679077,2,2.3258047103881836,None,,,,,,,,,,,,,,,,,,49,1,2025-02-19_14h07.49.240,comp,2024.2.4,54.08564616315041,2025-02-19 14h08.04.830159 -0500,
68,68,0,critical,dwh,35.0,1.0,upper,127.0,127.0,125.0,200.0,200.0,125.0,3,7.453505277633667,None,,,,,0,0,0,0,0,68,68,61,374.31425881385803,,,,,,,,,,,,,,,,,,,,,,,,,,,,,,,,,,,,,,,,,,,,,,,,,,,,,,,,,,,,,,,,,,,,,,,,,,,,,,,,,127.0,127.0,125.0,200.0,200.0,125.0,1.0,1.1,-740,275,-480,280,-222,254,374.29536294937134,374.29543924331665,374.2984926700592,374.31425881385803,374.4620931148529,374.4620931148529,374.4620931148529,374.4620931148529,374.4620931148529,374.4620931148529,374.4620931148529,381.77424025535583,3,7.453505277633667,None,,,,,,,,,,,,,,,,,,49,1,2025-02-19_14h07.49.240,comp,2024.2.4,54.08564616315041,2025-02-19 14h08.04.830159 -0500,
69,69,0,critical,hdw,35.0,3.0,lower,133.0,57.0,70.0,70.0,57.0,133.0,3,4.6830360889434814,None,,,,,0,0,0,0,0,69,69,110,381.796626329422,,,,,,,,,,,,,,,,,,,,,,,,,,,,,,,,,,,,,,,,,,,,,,,,,,,,,,,,,,,,,,,,,,,,,,,,,,,,,,,,,133.0,57.0,70.0,70.0,57.0,133.0,3.0,3.1,-160,272,0,7,198,-251,381.77622723579407,381.7763104438782,381.7805824279785,381.796626329422,381.9306962490082,381.9306962490082,381.9306962490082,381.9306962490082,381.9306962490082,381.9306962490082,381.9306962490082,386.49783158302307,3,4.6830360889434814,None,,,,,,,,,,,,,,,,,,49,1,2025-02-19_14h07.49.240,comp,2024.2.4,54.08564616315041,2025-02-19 14h08.04.830159 -0500,
70,70,0,critical,wdh,35.0,2.1,upper,125.0,200.0,127.0,127.0,200.0,125.0,1,1.8789842128753662,None,,,,,0,0,0,0,0,70,70,9,386.51349353790283,,,,,,,,,,,,,,,,,,,,,,,,,,,,,,,,,,,,,,,,,,,,,,,,,,,,,,,,,,,,,,,,,,,,,,,,,,,,,,,,,125.0,200.0,127.0,127.0,200.0,125.0,2.1,2.11,-260,283,0,281,222,-262,386.49945044517517,386.4995255470276,386.50309801101685,386.51349353790283,386.6642050743103,386.6642050743103,386.6642050743103,386.6642050743103,386.6642050743103,386.6642050743103,386.6642050743103,388.3972005844116,1,1.8789842128753662,None,,,,,,,,,,,,,,,,,,49,1,2025-02-19_14h07.49.240,comp,2024.2.4,54.08564616315041,2025-02-19 14h08.04.830159 -0500,
71,71,0,critical,whd,20.0,2.1,upper,125.0,200.0,200.0,125.0,141.0,141.0,2,0.5702676773071289,None,,,,,0,0,0,0,0,71,71,15,388.4135036468506,,,,,,,,,,,,,,,,,,,,,,,,,,,,,,,,,,,,,,,,,,,,,,,,,,,,,,,,,,,,,,,,,,,,,,,,,,,,,,,,,125.0,200.0,200.0,125.0,141.0,141.0,2.1,2.11,-258,268,0,288,229,-278,388.3986563682556,388.39873361587524,388.4016101360321,388.4135036468506,388.5687050819397,388.5687050819397,388.5687050819397,388.5687050819397,388.5687050819397,388.5687050819397,388.5687050819397,388.9981949329376,2,0.5702676773071289,None,,,,,,,,,,,,,,,,,,49,1,2025-02-19_14h07.49.240,comp,2024.2.4,54.08564616315041,2025-02-19 14h08.04.830159 -0500,
72,72,0,filler_random,None,None,None,None,None,None,None,None,None,None,3,0.48610615730285645,None,,,,,0,0,0,0,0,72,72,155,389.01772570610046,,,,,,,,,,,,,,,,,,,,,,,,,,,,,,,,,,,,,,,,,,,,,,,,,,,,,,,,,,,,,,,,,,,,,,,,,,,,,,,,,95.69609342025225,182.71050862771173,92.32716434906307,185.66438881453718,132.19684151636275,175.16386765465757,2.2,2.22,-280,285,0,-254,276,-269,388.9998393058777,388.9999134540558,389.00300335884094,389.01772570610046,389.1660590171814,389.1660590171814,389.1660590171814,389.1660590171814,389.1660590171814,389.1660590171814,389.1660590171814,389.51794242858887,3,0.48610615730285645,None,,,,,,,,,,,,,,,,,,49,1,2025-02-19_14h07.49.240,comp,2024.2.4,54.08564616315041,2025-02-19 14h08.04.830159 -0500,
73,73,0,critical,wdh,35.0,1.0,lower,57.0,133.0,70.0,70.0,133.0,57.0,1,0.8024301528930664,None,,,,,0,0,0,0,0,73,73,72,389.533344745636,,,,,,,,,,,,,,,,,,,,,,,,,,,,,,,,,,,,,,,,,,,,,,,,,,,,,,,,,,,,,,,,,,,,,,,,,,,,,,,,,57.0,133.0,70.0,70.0,133.0,57.0,1.0,1.3,282,-289,480,-255,640,-284,389.5196280479431,389.519704580307,389.5230314731598,389.533344745636,389.68274879455566,389.68274879455566,389.68274879455566,389.68274879455566,389.68274879455566,389.68274879455566,389.68274879455566,390.35128355026245,1,0.8024301528930664,None,,,,,,,,,,,,,,,,,,49,1,2025-02-19_14h07.49.240,comp,2024.2.4,54.08564616315041,2025-02-19 14h08.04.830159 -0500,
74,74,0,catch,None,None,None,None,None,None,None,None,None,None,2,0.6007163524627686,None,,,,,0,0,0,0,0,74,74,121,390.36694049835205,,,,,,,,,,,,,,,,,,,,,,,,,,,,,,,,,,,,,,,,,,,,,,,,,,,,,,,,,,,,,,,,,,,,,,,,,,,,,,,,,121,69,70,120,151,174,2.1,2.12,-190,-278,0,-264,243,282,390.3533592224121,390.3534393310547,390.3566560745239,390.36694049835205,390.5159680843353,390.5159680843353,390.5159680843353,390.5159680843353,390.5159680843353,390.5159680843353,390.5159680843353,390.9877858161926,2,0.6007163524627686,None,,,,,,,,,,,,,,,,,,49,1,2025-02-19_14h07.49.240,comp,2024.2.4,54.08564616315041,2025-02-19 14h08.04.830159 -0500,
75,75,0,critical,dwh,20.0,2.1,upper,141.0,141.0,125.0,200.0,200.0,125.0,3,0.688706636428833,None,,,,,0,0,0,0,0,75,75,31,391.0073039531708,,,,,,,,,,,,,,,,,,,,,,,,,,,,,,,,,,,,,,,,,,,,,,,,,,,,,,,,,,,,,,,,,,,,,,,,,,,,,,,,,141.0,141.0,125.0,200.0,200.0,125.0,2.1,2.12,-266,-261,0,-253,258,251,390.98926544189453,390.9893400669098,390.99227237701416,391.0073039531708,391.15069341659546,391.15069341659546,391.15069341659546,391.15069341659546,391.15069341659546,391.15069341659546,391.15069341659546,391.6989469528198,3,0.688706636428833,None,,,,,,,,,,,,,,,,,,49,1,2025-02-19_14h07.49.240,comp,2024.2.4,54.08564616315041,2025-02-19 14h08.04.830159 -0500,
76,76,0,filler_random,None,None,None,None,None,None,None,None,None,None,2,2.0084075927734375,None,,,,,0,0,0,0,0,76,76,167,391.71986413002014,,,,,,,,,,,,,,,,,,,,,,,,,,,,,,,,,,,,,,,,,,,,,,,,,,,,,,,,,,,,,,,,,,,,,,,,,,,,,,,,,114.3250602711071,153.88632472213584,154.23587092373046,182.5164842311491,108.06046499945757,94.61017371520018,2.1,2.11,-264,289,0,261,235,-253,391.700701713562,391.7007911205292,391.7041697502136,391.71986413002014,391.8667664527893,391.8667664527893,391.8667664527893,391.8667664527893,391.8667664527893,391.8667664527893,391.8667664527893,393.7345759868622,2,2.0084075927734375,None,,,,,,,,,,,,,,,,,,49,1,2025-02-19_14h07.49.240,comp,2024.2.4,54.08564616315041,2025-02-19 14h08.04.830159 -0500,
77,77,0,catch,None,None,None,None,None,None,None,None,None,None,2,0.8489608764648438,None,,,,,0,0,0,0,0,77,77,125,393.7506265640259,,,,,,,,,,,,,,,,,,,,,,,,,,,,,,,,,,,,,,,,,,,,,,,,,,,,,,,,,,,,,,,,,,,,,,,,,,,,,,,,,118,72,160,165,94,96,4.0,4.1,-214,-271,0,10,226,-278,393.7365207672119,393.7365996837616,393.7399249076843,393.7506265640259,393.900506734848,393.900506734848,393.900506734848,393.900506734848,393.900506734848,393.900506734848,393.900506734848,394.6017701625824,2,0.8489608764648438,None,,,,,,,,,,,,,,,,,,49,1,2025-02-19_14h07.49.240,comp,2024.2.4,54.08564616315041,2025-02-19 14h08.04.830159 -0500,
78,78,0,critical,hwd,35.0,2.1,upper,200.0,125.0,125.0,200.0,127.0,127.0,2,1.0696702003479004,None,,,,,0,0,0,0,0,78,78,17,394.61814761161804,,,,,,,,,,,,,,,,,,,,,,,,,,,,,,,,,,,,,,,,,,,,,,,,,,,,,,,,,,,,,,,,,,,,,,,,,,,,,,,,,200.0,125.0,125.0,200.0,127.0,127.0,2.1,2.12,-258,-265,0,-255,260,251,394.60341000556946,394.603483915329,394.60749435424805,394.61814761161804,394.76765155792236,394.76765155792236,394.76765155792236,394.76765155792236,394.76765155792236,394.76765155792236,394.76765155792236,395.69226455688477,2,1.0696702003479004,None,,,,,,,,,,,,,,,,,,49,1,2025-02-19_14h07.49.240,comp,2024.2.4,54.08564616315041,2025-02-19 14h08.04.830159 -0500,
79,79,0,critical,dhw,35.0,2.1,lower,70.0,70.0,133.0,57.0,57.0,133.0,2,2.7934584617614746,None,,,,,0,0,0,0,0,79,79,24,395.70978236198425,,,,,,,,,,,,,,,,,,,,,,,,,,,,,,,,,,,,,,,,,,,,,,,,,,,,,,,,,,,,,,,,,,,,,,,,,,,,,,,,,70.0,70.0,133.0,57.0,57.0,133.0,2.1,2.12,-160,-266,0,-277,191,279,395.69377756118774,395.6938543319702,395.69674158096313,395.70978236198425,395.85173177719116,395.85173177719116,395.85173177719116,395.85173177719116,395.85173177719116,395.85173177719116,395.85173177719116,398.5158030986786,2,2.7934584617614746,None,,,,,,,,,,,,,,,,,,49,1,2025-02-19_14h07.49.240,comp,2024.2.4,54.08564616315041,2025-02-19 14h08.04.830159 -0500,
80,80,0,critical,hwd,20.0,3.0,lower,133.0,57.0,57.0,133.0,78.0,78.0,1,2.5808446407318115,None,,,,,0,0,0,0,0,80,80,104,398.53231716156006,,,,,,,,,,,,,,,,,,,,,,,,,,,,,,,,,,,,,,,,,,,,,,,,,,,,,,,,,,,,,,,,,,,,,,,,,,,,,,,,,133.0,57.0,57.0,133.0,78.0,78.0,3.0,3.1,-191,258,0,-9,202,-261,398.5162703990936,398.5162913799286,398.5171024799347,398.53231716156006,398.6688275337219,398.6688275337219,398.6688275337219,398.6688275337219,398.6688275337219,398.6688275337219,398.6688275337219,401.11787724494934,1,2.5808446407318115,None,,,,,,,,,,,,,,,,,,49,1,2025-02-19_14h07.49.240,comp,2024.2.4,54.08564616315041,2025-02-19 14h08.04.830159 -0500,
81,81,0,filler_random,None,None,None,None,None,None,None,None,None,None,3,4.497676849365234,None,,,,,0,0,0,0,0,81,81,139,401.13457107543945,,,,,,,,,,,,,,,,,,,,,,,,,,,,,,,,,,,,,,,,,,,,,,,,,,,,,,,,,,,,,,,,,,,,,,,,,,,,,,,,,162.86224330362944,189.87411859727635,90.92306349168327,134.34140242093986,169.2906783740311,185.20151649299055,4.0,4.1,-258,-280,0,1,256,-276,401.11953997612,401.11961698532104,401.12273597717285,401.13457107543945,401.2717795372009,401.2717795372009,401.2717795372009,401.2717795372009,401.2717795372009,401.2717795372009,401.2717795372009,405.6374788284302,3,4.497676849365234,None,,,,,,,,,,,,,,,,,,49,1,2025-02-19_14h07.49.240,comp,2024.2.4,54.08564616315041,2025-02-19 14h08.04.830159 -0500,
82,82,0,filler_square,None,None,None,None,None,None,None,None,None,None,3,1.8344759941101074,None,,,,,0,0,0,0,0,82,82,182,405.6532516479492,,,,,,,,,,,,,,,,,,,,,,,,,,,,,,,,,,,,,,,,,,,,,,,,,,,,,,,,,,,,,,,,,,,,,,,,,,,,,,,,,126.04133786132725,100.26959755663582,102.17244741337635,108.66483560959648,133.24195784500478,133.24195784500478,1.0,1.3,280,-283,480,-288,697,-266,405.63924050331116,405.63931584358215,405.642493724823,405.6532516479492,405.80396938323975,405.80396938323975,405.80396938323975,405.80396938323975,405.80396938323975,405.80396938323975,405.80396938323975,407.50453209877014,3,1.8344759941101074,None,,,,,,,,,,,,,,,,,,49,1,2025-02-19_14h07.49.240,comp,2024.2.4,54.08564616315041,2025-02-19 14h08.04.830159 -0500,
83,83,0,critical,dhw,35.0,3.0,lower,70.0,70.0,133.0,57.0,57.0,133.0,3,2.9035933017730713,None,,,,,0,0,0,0,0,83,83,50,407.52010679244995,,,,,,,,,,,,,,,,,,,,,,,,,,,,,,,,,,,,,,,,,,,,,,,,,,,,,,,,,,,,,,,,,,,,,,,,,,,,,,,,,70.0,70.0,133.0,57.0,57.0,133.0,3.0,3.1,-160,286,0,17,191,-282,407.5061502456665,407.50624895095825,407.50972056388855,407.52010679244995,407.67050647735596,407.67050647735596,407.67050647735596,407.67050647735596,407.67050647735596,407.67050647735596,407.67050647735596,410.43931698799133,3,2.9035933017730713,None,,,,,,,,,,,,,,,,,,49,1,2025-02-19_14h07.49.240,comp,2024.2.4,54.08564616315041,2025-02-19 14h08.04.830159 -0500,
84,84,0,critical,dwh,20.0,2.1,lower,78.0,78.0,57.0,133.0,133.0,57.0,3,1.3522000312805176,None,,,,,0,0,0,0,0,84,84,6,410.455438375473,,,,,,,,,,,,,,,,,,,,,,,,,,,,,,,,,,,,,,,,,,,,,,,,,,,,,,,,,,,,,,,,,,,,,,,,,,,,,,,,,78.0,78.0,57.0,133.0,133.0,57.0,2.1,2.11,-202,275,0,290,191,-251,410.4409227371216,410.44103622436523,410.4442095756531,410.455438375473,410.60366201400757,410.60366201400757,410.60366201400757,410.60366201400757,410.60366201400757,410.60366201400757,410.60366201400757,411.8255138397217,3,1.3522000312805176,None,,,,,,,,,,,,,,,,,,49,1,2025-02-19_14h07.49.240,comp,2024.2.4,54.08564616315041,2025-02-19 14h08.04.830159 -0500,
85,85,0,filler_random,None,None,None,None,None,None,None,None,None,None,3,1.086702823638916,None,,,,,0,0,0,0,0,85,85,160,411.8408923149109,,,,,,,,,,,,,,,,,,,,,,,,,,,,,,,,,,,,,,,,,,,,,,,,,,,,,,,,,,,,,,,,,,,,,,,,,,,,,,,,,114.03107858208246,121.71710522007716,84.70734687557749,109.67076404019997,137.89861641384948,166.15440356653733,1.0,1.2,-212,0,0,11,234,3,411.82728385925293,411.82735896110535,411.8304491043091,411.8408923149109,411.98651480674744,411.98651480674744,411.98651480674744,411.98651480674744,411.98651480674744,411.98651480674744,411.98651480674744,412.9387192726135,3,1.086702823638916,None,,,,,,,,,,,,,,,,,,49,1,2025-02-19_14h07.49.240,comp,2024.2.4,54.08564616315041,2025-02-19 14h08.04.830159 -0500,
86,86,0,critical,hdw,35.0,4.0,lower,133.0,57.0,70.0,70.0,57.0,133.0,3,3.020569324493408,None,,,,,0,0,0,0,0,86,86,112,412.9554169178009,,,,,,,,,,,,,,,,,,,,,,,,,,,,,,,,,,,,,,,,,,,,,,,,,,,,,,,,,,,,,,,,,,,,,,,,,,,,,,,,,133.0,57.0,70.0,70.0,57.0,133.0,4.0,4.1,-160,-280,0,-3,198,-286,412.94033122062683,412.9404082298279,412.9436912536621,412.9554169178009,413.10595536231995,413.10595536231995,413.10595536231995,413.10595536231995,413.10595536231995,413.10595536231995,413.10595536231995,415.9888596534729,3,3.020569324493408,None,,,,,,,,,,,,,,,,,,49,1,2025-02-19_14h07.49.240,comp,2024.2.4,54.08564616315041,2025-02-19 14h08.04.830159 -0500,
87,87,0,critical,dhw,35.0,1.0,lower,70.0,70.0,133.0,57.0,57.0,133.0,2,1.090956211090088,None,,,,,0,0,0,0,0,87,87,48,416.0047650337219,,,,,,,,,,,,,,,,,,,,,,,,,,,,,,,,,,,,,,,,,,,,,,,,,,,,,,,,,,,,,,,,,,,,,,,,,,,,,,,,,70.0,70.0,133.0,57.0,57.0,133.0,1.0,1.3,320,-256,480,-260,671,-253,415.9903676509857,415.9904429912567,415.9933109283447,416.0047650337219,416.1604993343353,416.1604993343353,416.1604993343353,416.1604993343353,416.1604993343353,416.1604993343353,416.1604993343353,417.1097664833069,2,1.090956211090088,None,,,,,,,,,,,,,,,,,,49,1,2025-02-19_14h07.49.240,comp,2024.2.4,54.08564616315041,2025-02-19 14h08.04.830159 -0500,
88,88,0,filler_square,None,None,None,None,None,None,None,None,None,None,3,1.97906494140625,None,,,,,0,0,0,0,0,88,88,200,417.1253387928009,,,,,,,,,,,,,,,,,,,,,,,,,,,,,,,,,,,,,,,,,,,,,,,,,,,,,,,,,,,,,,,,,,,,,,,,,,,,,,,,,59.166432643867786,60.84699010392696,72.48998177700695,59.18532195483083,83.07240418127576,83.07240418127576,4.0,4.2,-156,15,0,-275,167,-9,417.11162972450256,417.111704826355,417.11505031585693,417.1253387928009,417.2748136520386,417.2748136520386,417.2748136520386,417.2748136520386,417.2748136520386,417.2748136520386,417.2748136520386,419.1095232963562,3,1.97906494140625,None,,,,,,,,,,,,,,,,,,49,1,2025-02-19_14h07.49.240,comp,2024.2.4,54.08564616315041,2025-02-19 14h08.04.830159 -0500,
89,89,0,catch,None,None,None,None,None,None,None,None,None,None,3,1.0020904541015625,None,,,,,0,0,0,0,0,89,89,129,419.12577176094055,,,,,,,,,,,,,,,,,,,,,,,,,,,,,,,,,,,,,,,,,,,,,,,,,,,,,,,,,,,,,,,,,,,,,,,,,,,,,,,,,107,83,77,113,130,195,4.0,4.1,-194,-256,0,14,250,-275,419.1116955280304,419.111777305603,419.11502027511597,419.12577176094055,419.274795293808,419.274795293808,419.274795293808,419.274795293808,419.274795293808,419.274795293808,419.274795293808,420.1420090198517,3,1.0020904541015625,None,,,,,,,,,,,,,,,,,,49,1,2025-02-19_14h07.49.240,comp,2024.2.4,54.08564616315041,2025-02-19 14h08.04.830159 -0500,
90,90,0,filler_square,None,None,None,None,None,None,None,None,None,None,2,6.129984140396118,None,,,,,0,0,0,0,0,90,90,174,420.15839099884033,,,,,,,,,,,,,,,,,,,,,,,,,,,,,,,,,,,,,,,,,,,,,,,,,,,,,,,,,,,,,,,,,,,,,,,,,,,,,,,,,106.09866772092226,116.91776738479015,101.0344296819036,88.16312947614986,133.78236787540126,133.78236787540126,3.0,3.2,-199,-282,0,3,207,252,420.14412236213684,420.14419770240784,420.14793848991394,420.15839099884033,420.30722165107727,420.30722165107727,420.30722165107727,420.30722165107727,420.30722165107727,420.30722165107727,420.30722165107727,426.29904985427856,2,6.129984140396118,None,,,,,,,,,,,,,,,,,,49,1,2025-02-19_14h07.49.240,comp,2024.2.4,54.08564616315041,2025-02-19 14h08.04.830159 -0500,
91,91,0,filler_square,None,None,None,None,None,None,None,None,None,None,1,4.516810178756714,None,,,,,0,0,0,0,0,91,91,206,426.31513500213623,,,,,,,,,,,,,,,,,,,,,,,,,,,,,,,,,,,,,,,,,,,,,,,,,,,,,,,,,,,,,,,,,,,,,,,,,,,,,,,,,96.60012805272606,96.60012805272606,77.37624876913227,57.251154943449016,90.7309588929506,67.6412977453007,2.1,2.12,-173,-283,0,-256,158,278,426.3007457256317,426.3008232116699,426.3042950630188,426.31513500213623,426.45878744125366,426.45878744125366,426.45878744125366,426.45878744125366,426.45878744125366,426.45878744125366,426.45878744125366,430.84532141685486,1,4.516810178756714,None,,,,,,,,,,,,,,,,,,49,1,2025-02-19_14h07.49.240,comp,2024.2.4,54.08564616315041,2025-02-19 14h08.04.830159 -0500,
92,92,0,filler_square,None,None,None,None,None,None,None,None,None,None,3,0.9220590591430664,None,,,,,0,0,0,0,0,92,92,180,430.86174631118774,,,,,,,,,,,,,,,,,,,,,,,,,,,,,,,,,,,,,,,,,,,,,,,,,,,,,,,,,,,,,,,,,,,,,,,,,,,,,,,,,74.02045057934413,61.47210171669295,131.70373273652626,131.70373273652626,112.72992603005741,114.47871381146504,1.0,1.3,287,-270,480,-254,699,-273,430.84718132019043,430.84725880622864,430.8507332801819,430.86174631118774,431.01768946647644,431.01768946647644,431.01768946647644,431.01768946647644,431.01768946647644,431.01768946647644,431.01768946647644,431.7979476451874,3,0.9220590591430664,None,,,,,,,,,,,,,,,,,,49,1,2025-02-19_14h07.49.240,comp,2024.2.4,54.08564616315041,2025-02-19 14h08.04.830159 -0500,
93,93,0,filler_square,None,None,None,None,None,None,None,None,None,None,2,0.13781404495239258,None,,,,,0,0,0,0,0,93,93,186,431.8139679431915,,,,,,,,,,,,,,,,,,,,,,,,,,,,,,,,,,,,,,,,,,,,,,,,,,,,,,,,,,,,,,,,,,,,,,,,,,,,,,,,,121.31467168113655,121.31467168113655,111.71543740221591,57.68854332258585,97.51507710023074,99.69770872825677,4.0,4.1,-186,-273,0,-6,175,-285,431.8001232147217,431.8002014160156,431.80362582206726,431.8139679431915,431.96293091773987,431.96293091773987,431.96293091773987,431.96293091773987,431.96293091773987,431.96293091773987,431.96293091773987,431.9644637107849,2,0.13781404495239258,None,,,,,,,,,,,,,,,,,,49,1,2025-02-19_14h07.49.240,comp,2024.2.4,54.08564616315041,2025-02-19 14h08.04.830159 -0500,
94,94,0,filler_random,None,None,None,None,None,None,None,None,None,None,2,0.7633531093597412,None,,,,,0,0,0,0,0,94,94,144,431.9803743362427,,,,,,,,,,,,,,,,,,,,,,,,,,,,,,,,,,,,,,,,,,,,,,,,,,,,,,,,,,,,,,,,,,,,,,,,,,,,,,,,,60.54543235827044,153.33725632183317,122.82665953292027,190.38101787469944,84.94325272316505,161.23839291130727,2.2,2.22,-268,279,0,-276,272,-268,431.9666700363159,431.9668176174164,431.96989917755127,431.9803743362427,432.1298084259033,432.1298084259033,432.1298084259033,432.1298084259033,432.1298084259033,432.1298084259033,432.1298084259033,432.74669122695923,2,0.7633531093597412,None,,,,,,,,,,,,,,,,,,49,1,2025-02-19_14h07.49.240,comp,2024.2.4,54.08564616315041,2025-02-19 14h08.04.830159 -0500,
95,95,0,filler_square,None,None,None,None,None,None,None,None,None,None,3,0.5804369449615479,None,,,,,0,0,0,0,0,95,95,205,432.7633430957794,,,,,,,,,,,,,,,,,,,,,,,,,,,,,,,,,,,,,,,,,,,,,,,,,,,,,,,,,,,,,,,,,,,,,,,,,,,,,,,,,164.96337867951198,164.96337867951198,119.4602977197321,144.72721512491012,105.15776485928019,94.82861526173102,2.1,2.11,-251,262,0,273,216,-289,432.74875712394714,432.7488338947296,432.75257205963135,432.7633430957794,432.904004573822,432.904004573822,432.904004573822,432.904004573822,432.904004573822,432.904004573822,432.904004573822,433.3543384075165,3,0.5804369449615479,None,,,,,,,,,,,,,,,,,,49,1,2025-02-19_14h07.49.240,comp,2024.2.4,54.08564616315041,2025-02-19 14h08.04.830159 -0500,
96,96,0,critical,dhw,35.0,1.0,upper,127.0,127.0,200.0,125.0,125.0,200.0,3,0.5092957019805908,None,,,,,0,0,0,0,0,96,96,49,433.3704216480255,,,,,,,,,,,,,,,,,,,,,,,,,,,,,,,,,,,,,,,,,,,,,,,,,,,,,,,,,,,,,,,,,,,,,,,,,,,,,,,,,127.0,127.0,200.0,125.0,125.0,200.0,1.0,1.2,-222,-3,0,10,258,5,433.3558361530304,433.35591101646423,433.358859539032,433.3704216480255,433.51391983032227,433.51391983032227,433.51391983032227,433.51391983032227,433.51391983032227,433.51391983032227,433.51391983032227,433.89638018608093,3,0.5092957019805908,None,,,,,,,,,,,,,,,,,,49,1,2025-02-19_14h07.49.240,comp,2024.2.4,54.08564616315041,2025-02-19 14h08.04.830159 -0500,
97,97,0,filler_square,None,None,None,None,None,None,None,None,None,None,2,0.3509683609008789,None,,,,,0,0,0,0,0,97,97,171,433.91281151771545,,,,,,,,,,,,,,,,,,,,,,,,,,,,,,,,,,,,,,,,,,,,,,,,,,,,,,,,,,,,,,,,,,,,,,,,,,,,,,,,,75.60435459135832,81.39882151103026,62.836485101876214,89.98830641705646,111.56737503126722,111.56737503126722,4.0,4.2,-182,-4,0,-266,197,-4,433.8983497619629,433.8984844684601,433.90187788009644,433.91281151771545,434.069149017334,434.069149017334,434.069149017334,434.069149017334,434.069149017334,434.069149017334,434.069149017334,434.2766270637512,2,0.3509683609008789,None,,,,,,,,,,,,,,,,,,49,1,2025-02-19_14h07.49.240,comp,2024.2.4,54.08564616315041,2025-02-19 14h08.04.830159 -0500,
98,98,0,critical,dhw,20.0,2.1,upper,141.0,141.0,200.0,125.0,125.0,200.0,2,0.9070887565612793,None,,,,,0,0,0,0,0,98,98,27,434.29270124435425,,,,,,,,,,,,,,,,,,,,,,,,,,,,,,,,,,,,,,,,,,,,,,,,,,,,,,,,,,,,,,,,,,,,,,,,,,,,,,,,,141.0,141.0,200.0,125.0,125.0,200.0,2.1,2.12,-229,-280,0,-280,258,280,434.27824425697327,434.27832651138306,434.28158259391785,434.29270124435425,434.44589495658875,434.44589495658875,434.44589495658875,434.44589495658875,434.44589495658875,434.44589495658875,434.44589495658875,435.21501541137695,2,0.9070887565612793,None,,,,,,,,,,,,,,,,,,49,1,2025-02-19_14h07.49.240,comp,2024.2.4,54.08564616315041,2025-02-19 14h08.04.830159 -0500,
99,99,0,filler_random,None,None,None,None,None,None,None,None,None,None,3,1.0397982597351074,None,,,,,0,0,0,0,0,99,99,159,435.2318959236145,,,,,,,,,,,,,,,,,,,,,,,,,,,,,,,,,,,,,,,,,,,,,,,,,,,,,,,,,,,,,,,,,,,,,,,,,,,,,,,,,95.68165650616422,189.72704452500898,68.89736398522092,195.76252755688444,154.48618660932186,121.27927219926123,3.0,3.1,-289,281,0,4,255,-253,435.2169542312622,435.21709084510803,435.220627784729,435.2318959236145,435.37969422340393,435.37969422340393,435.37969422340393,435.37969422340393,435.37969422340393,435.37969422340393,435.37969422340393,436.28750920295715,3,1.0397982597351074,None,,,,,,,,,,,,,,,,,,49,1,2025-02-19_14h07.49.240,comp,2024.2.4,54.08564616315041,2025-02-19 14h08.04.830159 -0500,
100,100,0,filler_square,None,None,None,None,None,None,None,None,None,None,2,0.9437062740325928,None,,,,,0,0,0,0,0,100,100,176,436.3040292263031,,,,,,,,,,,,,,,,,,,,,,,,,,,,,,,,,,,,,,,,,,,,,,,,,,,,,,,,,,,,,,,,,,,,,,,,,,,,,,,,,79.8011606176762,107.92819805425412,124.51725741039867,100.35286272851425,134.1183482059621,134.1183482059621,3.0,3.2,-200,-255,0,1,213,274,436.28945684432983,436.2895324230194,436.29271697998047,436.3040292263031,436.445903301239,436.445903301239,436.445903301239,436.445903301239,436.445903301239,436.445903301239,436.445903301239,437.2624611854553,2,0.9437062740325928,None,,,,,,,,,,,,,,,,,,49,1,2025-02-19_14h07.49.240,comp,2024.2.4,54.08564616315041,2025-02-19 14h08.04.830159 -0500,
101,101,0,critical,hdw,35.0,2.1,lower,133.0,57.0,70.0,70.0,57.0,133.0,3,0.4348304271697998,None,,,,,0,0,0,0,0,101,101,44,437.2775740623474,,,,,,,,,,,,,,,,,,,,,,,,,,,,,,,,,,,,,,,,,,,,,,,,,,,,,,,,,,,,,,,,,,,,,,,,,,,,,,,,,133.0,57.0,70.0,70.0,57.0,133.0,2.1,2.12,-160,-276,0,-260,198,270,437.263920545578,437.26402044296265,437.2669050693512,437.2775740623474,437.42286944389343,437.42286944389343,437.42286944389343,437.42286944389343,437.42286944389343,437.42286944389343,437.42286944389343,437.71841859817505,3,0.4348304271697998,None,,,,,,,,,,,,,,,,,,49,1,2025-02-19_14h07.49.240,comp,2024.2.4,54.08564616315041,2025-02-19 14h08.04.830159 -0500,
102,102,0,critical,whd,20.0,2.1,lower,57.0,133.0,133.0,57.0,78.0,78.0,2,1.9179325103759766,None,,,,,0,0,0,0,0,102,102,38,437.73843240737915,,,,,,,,,,,,,,,,,,,,,,,,,,,,,,,,,,,,,,,,,,,,,,,,,,,,,,,,,,,,,,,,,,,,,,,,,,,,,,,,,57.0,133.0,133.0,57.0,78.0,78.0,2.1,2.11,-191,263,0,282,164,-270,437.7200720310211,437.7201602458954,437.723507642746,437.73843240737915,437.8796684741974,437.8796684741974,437.8796684741974,437.8796684741974,437.8796684741974,437.8796684741974,437.8796684741974,439.6671016216278,2,1.9179325103759766,None,,,,,,,,,,,,,,,,,,49,1,2025-02-19_14h07.49.240,comp,2024.2.4,54.08564616315041,2025-02-19 14h08.04.830159 -0500,
103,103,0,filler_square,None,None,None,None,None,None,None,None,None,None,2,1.1625163555145264,None,,,,,0,0,0,0,0,103,103,179,439.685599565506,,,,,,,,,,,,,,,,,,,,,,,,,,,,,,,,,,,,,,,,,,,,,,,,,,,,,,,,,,,,,,,,,,,,,,,,,,,,,,,,,120.49426358267237,60.54372146058082,129.80655757012136,129.80655757012136,115.72326140717479,108.62690850697533,3.0,3.2,-191,-264,0,-10,215,264,439.66911149024963,439.6691873073578,439.67248010635376,439.685599565506,439.83282685279846,439.83282685279846,439.83282685279846,439.83282685279846,439.83282685279846,439.83282685279846,439.83282685279846,440.85023379325867,2,1.1625163555145264,None,,,,,,,,,,,,,,,,,,49,1,2025-02-19_14h07.49.240,comp,2024.2.4,54.08564616315041,2025-02-19 14h08.04.830159 -0500,
104,104,0,critical,dwh,35.0,2.1,lower,70.0,70.0,57.0,133.0,133.0,57.0,3,1.6221342086791992,None,,,,,0,0,0,0,0,104,104,4,440.86556458473206,,,,,,,,,,,,,,,,,,,,,,,,,,,,,,,,,,,,,,,,,,,,,,,,,,,,,,,,,,,,,,,,,,,,,,,,,,,,,,,,,70.0,70.0,57.0,133.0,133.0,57.0,2.1,2.12,-198,-275,0,-260,191,261,440.8517780303955,440.8518569469452,440.8549156188965,440.86556458473206,441.0140745639801,441.0140745639801,441.0140745639801,441.0140745639801,441.0140745639801,441.0140745639801,441.0140745639801,442.5066924095154,3,1.6221342086791992,None,,,,,,,,,,,,,,,,,,49,1,2025-02-19_14h07.49.240,comp,2024.2.4,54.08564616315041,2025-02-19 14h08.04.830159 -0500,
105,105,0,critical,hdw,35.0,3.0,upper,200.0,125.0,127.0,127.0,125.0,200.0,1,2.7211220264434814,None,,,,,0,0,0,0,0,105,105,111,442.52684593200684,,,,,,,,,,,,,,,,,,,,,,,,,,,,,,,,,,,,,,,,,,,,,,,,,,,,,,,,,,,,,,,,,,,,,,,,,,,,,,,,,200.0,125.0,127.0,127.0,125.0,200.0,3.0,3.2,-222,-254,0,-19,260,284,442.5082573890686,442.5083305835724,442.5116341114044,442.52684593200684,442.66635179519653,442.66635179519653,442.66635179519653,442.66635179519653,442.66635179519653,442.66635179519653,442.66635179519653,445.25060415267944,1,2.7211220264434814,None,,,,,,,,,,,,,,,,,,49,1,2025-02-19_14h07.49.240,comp,2024.2.4,54.08564616315041,2025-02-19 14h08.04.830159 -0500,
106,106,0,filler_square,None,None,None,None,None,None,None,None,None,None,1,1.1014940738677979,None,,,,,0,0,0,0,0,106,106,181,445.26664638519287,,,,,,,,,,,,,,,,,,,,,,,,,,,,,,,,,,,,,,,,,,,,,,,,,,,,,,,,,,,,,,,,,,,,,,,,,,,,,,,,,132.4801272504625,132.4801272504625,93.73545980674334,116.91635388213757,78.64145653567378,68.15400810573432,1.0,1.2,-221,12,0,-1,189,20,445.2522933483124,445.2523674964905,445.25577187538147,445.26664638519287,445.4192216396332,445.4192216396332,445.4192216396332,445.4192216396332,445.4192216396332,445.4192216396332,445.4192216396332,446.37046551704407,1,1.1014940738677979,None,,,,,,,,,,,,,,,,,,49,1,2025-02-19_14h07.49.240,comp,2024.2.4,54.08564616315041,2025-02-19 14h08.04.830159 -0500,
107,107,0,critical,whd,20.0,3.0,upper,125.0,200.0,200.0,125.0,141.0,141.0,1,1.4362280368804932,None,,,,,0,0,0,0,0,107,107,93,446.38777685165405,,,,,,,,,,,,,,,,,,,,,,,,,,,,,,,,,,,,,,,,,,,,,,,,,,,,,,,,,,,,,,,,,,,,,,,,,,,,,,,,,125.0,200.0,200.0,125.0,141.0,141.0,3.0,3.2,-258,-271,0,-10,229,264,446.37244153022766,446.37251830101013,446.37550687789917,446.38777685165405,446.53241991996765,446.53241991996765,446.53241991996765,446.53241991996765,446.53241991996765,446.53241991996765,446.53241991996765,447.8415050506592,1,1.4362280368804932,None,,,,,,,,,,,,,,,,,,49,1,2025-02-19_14h07.49.240,comp,2024.2.4,54.08564616315041,2025-02-19 14h08.04.830159 -0500,
108,108,0,critical,whd,35.0,4.0,lower,57.0,133.0,133.0,57.0,70.0,70.0,2,1.0698978900909424,None,,,,,0,0,0,0,0,108,108,88,447.8586678504944,,,,,,,,,,,,,,,,,,,,,,,,,,,,,,,,,,,,,,,,,,,,,,,,,,,,,,,,,,,,,,,,,,,,,,,,,,,,,,,,,57.0,133.0,133.0,57.0,70.0,70.0,4.0,4.2,-191,-1,0,-279,160,10,447.8429710865021,447.84308385849,447.84600043296814,447.8586678504944,448.00207138061523,448.00207138061523,448.00207138061523,448.00207138061523,448.00207138061523,448.00207138061523,448.00207138061523,448.9360783100128,2,1.0698978900909424,None,,,,,,,,,,,,,,,,,,49,1,2025-02-19_14h07.49.240,comp,2024.2.4,54.08564616315041,2025-02-19 14h08.04.830159 -0500,
109,109,0,filler_random,None,None,None,None,None,None,None,None,None,None,2,1.0645246505737305,None,,,,,0,0,0,0,0,109,109,136,448.9518644809723,,,,,,,,,,,,,,,,,,,,,,,,,,,,,,,,,,,,,,,,,,,,,,,,,,,,,,,,,,,,,,,,,,,,,,,,,,,,,,,,,106.13458363667169,141.49307904924936,157.42058702150138,134.63878090914497,67.18448830967186,199.19081967304567,2.1,2.11,-234,284,0,280,263,-277,448.937846660614,448.9379253387451,448.94110774993896,448.9518644809723,449.10111260414124,449.10111260414124,449.10111260414124,449.10111260414124,449.10111260414124,449.10111260414124,449.10111260414124,450.0186333656311,2,1.0645246505737305,None,,,,,,,,,,,,,,,,,,49,1,2025-02-19_14h07.49.240,comp,2024.2.4,54.08564616315041,2025-02-19 14h08.04.830159 -0500,
110,110,0,filler_random,None,None,None,None,None,None,None,None,None,None,2,1.4679985046386719,None,,,,,0,0,0,0,0,110,110,150,450.03581643104553,,,,,,,,,,,,,,,,,,,,,,,,,,,,,,,,,,,,,,,,,,,,,,,,,,,,,,,,,,,,,,,,,,,,,,,,,,,,,,,,,112.83611935842329,106.25596624369038,61.52886221052964,67.41173476629962,93.64481200985371,113.25504724264832,2.1,2.12,-183,-284,0,-277,186,267,450.02043199539185,450.020539522171,450.02462005615234,450.03581643104553,450.19251441955566,450.19251441955566,450.19251441955566,450.19251441955566,450.19251441955566,450.19251441955566,450.19251441955566,451.5183231830597,2,1.4679985046386719,None,,,,,,,,,,,,,,,,,,49,1,2025-02-19_14h07.49.240,comp,2024.2.4,54.08564616315041,2025-02-19 14h08.04.830159 -0500,
111,111,0,critical,dhw,35.0,4.0,upper,127.0,127.0,200.0,125.0,125.0,200.0,3,3.9308669567108154,None,,,,,0,0,0,0,0,111,111,53,451.5337977409363,,,,,,,,,,,,,,,,,,,,,,,,,,,,,,,,,,,,,,,,,,,,,,,,,,,,,,,,,,,,,,,,,,,,,,,,,,,,,,,,,127.0,127.0,200.0,125.0,125.0,200.0,4.0,4.1,-222,-274,0,-7,258,-257,451.5200116634369,451.5201048851013,451.52352476119995,451.5337977409363,451.674768447876,451.674768447876,451.674768447876,451.674768447876,451.674768447876,451.674768447876,451.674768447876,455.4705240726471,3,3.9308669567108154,None,,,,,,,,,,,,,,,,,,49,1,2025-02-19_14h07.49.240,comp,2024.2.4,54.08564616315041,2025-02-19 14h08.04.830159 -0500,
112,112,0,critical,hdw,20.0,3.0,upper,200.0,125.0,141.0,141.0,125.0,200.0,3,1.584843397140503,None,,,,,0,0,0,0,0,112,112,117,455.4875764846802,,,,,,,,,,,,,,,,,,,,,,,,,,,,,,,,,,,,,,,,,,,,,,,,,,,,,,,,,,,,,,,,,,,,,,,,,,,,,,,,,200.0,125.0,141.0,141.0,125.0,200.0,3.0,3.1,-229,286,0,19,266,-272,455.4720060825348,455.47209548950195,455.47576665878296,455.4875764846802,455.63714361190796,455.63714361190796,455.63714361190796,455.63714361190796,455.63714361190796,455.63714361190796,455.63714361190796,457.0764057636261,3,1.584843397140503,None,,,,,,,,,,,,,,,,,,49,1,2025-02-19_14h07.49.240,comp,2024.2.4,54.08564616315041,2025-02-19 14h08.04.830159 -0500,
113,113,0,filler_square,None,None,None,None,None,None,None,None,None,None,1,0.8750307559967041,None,,,,,0,0,0,0,0,113,113,192,457.09271359443665,,,,,,,,,,,,,,,,,,,,,,,,,,,,,,,,,,,,,,,,,,,,,,,,,,,,,,,,,,,,,,,,,,,,,,,,,,,,,,,,,172.6807150968015,172.6807150968015,67.29243900311425,66.58946028663988,160.2500873095638,114.06847541296133,1.0,1.1,-696,276,-480,286,-294,254,457.0783247947693,457.07841086387634,457.08163356781006,457.09271359443665,457.2377874851227,457.2377874851227,457.2377874851227,457.2377874851227,457.2377874851227,457.2377874851227,457.2377874851227,457.9803354740143,1,0.8750307559967041,None,,,,,,,,,,,,,,,,,,49,1,2025-02-19_14h07.49.240,comp,2024.2.4,54.08564616315041,2025-02-19 14h08.04.830159 -0500,
114,114,0,critical,dhw,35.0,3.0,upper,127.0,127.0,200.0,125.0,125.0,200.0,3,1.545189380645752,None,,,,,0,0,0,0,0,114,114,51,458.0004069805145,,,,,,,,,,,,,,,,,,,,,,,,,,,,,,,,,,,,,,,,,,,,,,,,,,,,,,,,,,,,,,,,,,,,,,,,,,,,,,,,,127.0,127.0,200.0,125.0,125.0,200.0,3.0,3.2,-222,-274,0,10,258,283,457.9817807674408,457.98185539245605,457.9847912788391,458.0004069805145,458.1378197669983,458.1378197669983,458.1378197669983,458.1378197669983,458.1378197669983,458.1378197669983,458.1378197669983,459.5533638000488,3,1.545189380645752,None,,,,,,,,,,,,,,,,,,49,1,2025-02-19_14h07.49.240,comp,2024.2.4,54.08564616315041,2025-02-19 14h08.04.830159 -0500,
115,115,0,critical,dwh,20.0,1.0,upper,141.0,141.0,125.0,200.0,200.0,125.0,3,1.260559320449829,None,,,,,0,0,0,0,0,115,115,67,459.5712134838104,,,,,,,,,,,,,,,,,,,,,,,,,,,,,,,,,,,,,,,,,,,,,,,,,,,,,,,,,,,,,,,,,,,,,,,,,,,,,,,,,141.0,141.0,125.0,200.0,200.0,125.0,1.0,1.3,214,-277,480,-258,738,-275,459.5548987388611,459.55497455596924,459.55831813812256,459.5712134838104,459.7219421863556,459.7219421863556,459.7219421863556,459.7219421863556,459.7219421863556,459.7219421863556,459.7219421863556,460.84364676475525,3,1.260559320449829,None,,,,,,,,,,,,,,,,,,49,1,2025-02-19_14h07.49.240,comp,2024.2.4,54.08564616315041,2025-02-19 14h08.04.830159 -0500,
116,116,0,critical,hdw,20.0,3.0,lower,133.0,57.0,78.0,78.0,57.0,133.0,1,1.884277105331421,None,,,,,0,0,0,0,0,116,116,116,460.859477519989,,,,,,,,,,,,,,,,,,,,,,,,,,,,,,,,,,,,,,,,,,,,,,,,,,,,,,,,,,,,,,,,,,,,,,,,,,,,,,,,,133.0,57.0,78.0,78.0,57.0,133.0,3.0,3.2,-164,-265,0,6,202,278,460.8451681137085,460.84524297714233,460.84816431999207,460.859477519989,461.00560092926025,461.00560092926025,461.00560092926025,461.00560092926025,461.00560092926025,461.00560092926025,461.00560092926025,462.7603714466095,1,1.884277105331421,None,,,,,,,,,,,,,,,,,,49,1,2025-02-19_14h07.49.240,comp,2024.2.4,54.08564616315041,2025-02-19 14h08.04.830159 -0500,
117,117,0,critical,whd,35.0,4.0,upper,125.0,200.0,200.0,125.0,127.0,127.0,1,1.0757427215576172,None,,,,,0,0,0,0,0,117,117,89,462.7801556587219,,,,,,,,,,,,,,,,,,,,,,,,,,,,,,,,,,,,,,,,,,,,,,,,,,,,,,,,,,,,,,,,,,,,,,,,,,,,,,,,,125.0,200.0,200.0,125.0,127.0,127.0,4.0,4.1,-258,-258,0,-1,222,-269,462.7618544101715,462.76192831993103,462.7648515701294,462.7801556587219,462.92213129997253,462.92213129997253,462.92213129997253,462.92213129997253,462.92213129997253,462.92213129997253,462.92213129997253,463.858766078949,1,1.0757427215576172,None,,,,,,,,,,,,,,,,,,49,1,2025-02-19_14h07.49.240,comp,2024.2.4,54.08564616315041,2025-02-19 14h08.04.830159 -0500,
118,118,0,catch,None,None,None,None,None,None,None,None,None,None,3,1.481886386871338,None,,,,,0,0,0,0,0,118,118,124,463.8782207965851,,,,,,,,,,,,,,,,,,,,,,,,,,,,,,,,,,,,,,,,,,,,,,,,,,,,,,,,,,,,,,,,,,,,,,,,,,,,,,,,,61,129,133,57,127,198,1.0,1.1,-669,269,-480,260,-256,284,463.86131620407104,463.8613951206207,463.86432933807373,463.8782207965851,464.0227282047272,464.0227282047272,464.0227282047272,464.0227282047272,464.0227282047272,464.0227282047272,464.0227282047272,465.3736481666565,3,1.481886386871338,None,,,,,,,,,,,,,,,,,,49,1,2025-02-19_14h07.49.240,comp,2024.2.4,54.08564616315041,2025-02-19 14h08.04.830159 -0500,
119,119,0,critical,hwd,20.0,1.0,lower,133.0,57.0,57.0,133.0,78.0,78.0,3,6.410582542419434,None,,,,,0,0,0,0,0,119,119,102,465.38973093032837,,,,,,,,,,,,,,,,,,,,,,,,,,,,,,,,,,,,,,,,,,,,,,,,,,,,,,,,,,,,,,,,,,,,,,,,,,,,,,,,,133.0,57.0,57.0,133.0,78.0,78.0,1.0,1.3,289,-277,480,-250,682,-269,465.3753128051758,465.3753900527954,465.3784785270691,465.38973093032837,465.54215693473816,465.54215693473816,465.54215693473816,465.54215693473816,465.54215693473816,465.54215693473816,465.54215693473816,471.80844712257385,3,6.410582542419434,None,,,,,,,,,,,,,,,,,,49,1,2025-02-19_14h07.49.240,comp,2024.2.4,54.08564616315041,2025-02-19 14h08.04.830159 -0500,
120,120,0,filler_random,None,None,None,None,None,None,None,None,None,None,2,1.199204444885254,None,,,,,0,0,0,0,0,120,120,130,471.8245499134064,,,,,,,,,,,,,,,,,,,,,,,,,,,,,,,,,,,,,,,,,,,,,,,,,,,,,,,,,,,,,,,,,,,,,,,,,,,,,,,,,82.97000083362701,88.04570130562752,80.06359683791993,76.70036715788497,102.4907159085437,183.8199324203336,4.0,4.1,-178,-260,0,-16,226,-286,471.81014752388,471.8102238178253,471.8136763572693,471.8245499134064,471.97446632385254,471.97446632385254,471.97446632385254,471.97446632385254,471.97446632385254,471.97446632385254,471.97446632385254,473.04207015037537,2,1.199204444885254,None,,,,,,,,,,,,,,,,,,49,1,2025-02-19_14h07.49.240,comp,2024.2.4,54.08564616315041,2025-02-19 14h08.04.830159 -0500,
121,121,0,critical,wdh,20.0,3.0,lower,57.0,133.0,78.0,78.0,133.0,57.0,1,2.725776433944702,None,,,,,0,0,0,0,0,121,121,80,473.0580003261566,,,,,,,,,,,,,,,,,,,,,,,,,,,,,,,,,,,,,,,,,,,,,,,,,,,,,,,,,,,,,,,,,,,,,,,,,,,,,,,,,57.0,133.0,78.0,78.0,133.0,57.0,3.0,3.1,-202,275,0,-16,164,-263,473.04355549812317,473.04362893104553,473.0476062297821,473.0580003261566,473.209942817688,473.209942817688,473.209942817688,473.209942817688,473.209942817688,473.209942817688,473.209942817688,475.7987129688263,1,2.725776433944702,None,,,,,,,,,,,,,,,,,,49,1,2025-02-19_14h07.49.240,comp,2024.2.4,54.08564616315041,2025-02-19 14h08.04.830159 -0500,
122,122,0,critical,whd,35.0,2.1,upper,125.0,200.0,200.0,125.0,127.0,127.0,2,0.9484813213348389,None,,,,,0,0,0,0,0,122,122,13,475.8194942474365,,,,,,,,,,,,,,,,,,,,,,,,,,,,,,,,,,,,,,,,,,,,,,,,,,,,,,,,,,,,,,,,,,,,,,,,,,,,,,,,,125.0,200.0,200.0,125.0,127.0,127.0,2.1,2.12,-258,-267,0,-276,222,269,475.8003444671631,475.8004219532013,475.80370140075684,475.8194942474365,475.96070170402527,475.96070170402527,475.96070170402527,475.96070170402527,475.96070170402527,475.96070170402527,475.96070170402527,476.77649211883545,2,0.9484813213348389,None,,,,,,,,,,,,,,,,,,49,1,2025-02-19_14h07.49.240,comp,2024.2.4,54.08564616315041,2025-02-19 14h08.04.830159 -0500,
123,123,0,filler_random,None,None,None,None,None,None,None,None,None,None,2,1.4864695072174072,None,,,,,0,0,0,0,0,123,123,166,476.7933750152588,,,,,,,,,,,,,,,,,,,,,,,,,,,,,,,,,,,,,,,,,,,,,,,,,,,,,,,,,,,,,,,,,,,,,,,,,,,,,,,,,89.29801694951786,108.23196017168186,84.20521005471421,194.90937414211058,72.42945372773008,96.57707971256968,1.0,1.3,232,-253,480,-284,722,-285,476.77828454971313,476.77841424942017,476.7817928791046,476.7933750152588,476.94331979751587,476.94331979751587,476.94331979751587,476.94331979751587,476.94331979751587,476.94331979751587,476.94331979751587,478.2954182624817,2,1.4864695072174072,None,,,,,,,,,,,,,,,,,,49,1,2025-02-19_14h07.49.240,comp,2024.2.4,54.08564616315041,2025-02-19 14h08.04.830159 -0500,
124,124,0,critical,dwh,35.0,4.0,lower,70.0,70.0,57.0,133.0,133.0,57.0,2,2.7213099002838135,None,,,,,0,0,0,0,0,124,124,64,478.31166982650757,,,,,,,,,,,,,,,,,,,,,,,,,,,,,,,,,,,,,,,,,,,,,,,,,,,,,,,,,,,,,,,,,,,,,,,,,,,,,,,,,70.0,70.0,57.0,133.0,133.0,57.0,4.0,4.2,-198,8,0,-254,191,-12,478.29712891578674,478.29723286628723,478.3013484477997,478.31166982650757,478.4587199687958,478.4587199687958,478.4587199687958,478.4587199687958,478.4587199687958,478.4587199687958,478.4587199687958,481.0445611476898,2,2.7213099002838135,None,,,,,,,,,,,,,,,,,,49,1,2025-02-19_14h07.49.240,comp,2024.2.4,54.08564616315041,2025-02-19 14h08.04.830159 -0500,
125,125,0,critical,wdh,20.0,1.0,lower,57.0,133.0,78.0,78.0,133.0,57.0,1,2.2190935611724854,None,,,,,0,0,0,0,0,125,125,78,481.06065678596497,,,,,,,,,,,,,,,,,,,,,,,,,,,,,,,,,,,,,,,,,,,,,,,,,,,,,,,,,,,,,,,,,,,,,,,,,,,,,,,,,57.0,133.0,78.0,78.0,133.0,57.0,1.0,1.1,-682,253,-480,263,-316,258,481.04607224464417,481.0461678504944,481.04953241348267,481.06065678596497,481.208687543869,481.208687543869,481.208687543869,481.208687543869,481.208687543869,481.208687543869,481.208687543869,483.2952742576599,1,2.2190935611724854,None,,,,,,,,,,,,,,,,,,49,1,2025-02-19_14h07.49.240,comp,2024.2.4,54.08564616315041,2025-02-19 14h08.04.830159 -0500,
126,126,0,critical,wdh,35.0,2.1,lower,57.0,133.0,70.0,70.0,133.0,57.0,1,1.6162872314453125,None,,,,,0,0,0,0,0,126,126,32,483.3117563724518,,,,,,,,,,,,,,,,,,,,,,,,,,,,,,,,,,,,,,,,,,,,,,,,,,,,,,,,,,,,,,,,,,,,,,,,,,,,,,,,,57.0,133.0,70.0,70.0,133.0,57.0,2.1,2.12,-198,-290,0,-278,160,286,483.2967848777771,483.29686093330383,483.30084586143494,483.3117563724518,483.4647924900055,483.4647924900055,483.4647924900055,483.4647924900055,483.4647924900055,483.4647924900055,483.4647924900055,484.93231773376465,1,1.6162872314453125,None,,,,,,,,,,,,,,,,,,49,1,2025-02-19_14h07.49.240,comp,2024.2.4,54.08564616315041,2025-02-19 14h08.04.830159 -0500,
127,127,0,filler_square,None,None,None,None,None,None,None,None,None,None,1,1.8157637119293213,None,,,,,0,0,0,0,0,127,127,207,484.9522132873535,,,,,,,,,,,,,,,,,,,,,,,,,,,,,,,,,,,,,,,,,,,,,,,,,,,,,,,,,,,,,,,,,,,,,,,,,,,,,,,,,124.3307181679274,124.3307181679274,86.91231650983771,58.75674975204422,117.52204918483743,86.54289803582247,2.1,2.12,-188,-277,0,-289,169,254,484.9341833591461,484.9342613220215,484.9371864795685,484.9522132873535,485.0958790779114,485.0958790779114,485.0958790779114,485.0958790779114,485.0958790779114,485.0958790779114,485.0958790779114,486.7798924446106,1,1.8157637119293213,None,,,,,,,,,,,,,,,,,,49,1,2025-02-19_14h07.49.240,comp,2024.2.4,54.08564616315041,2025-02-19 14h08.04.830159 -0500,
128,128,0,critical,hwd,20.0,4.0,lower,133.0,57.0,57.0,133.0,78.0,78.0,2,1.4443299770355225,None,,,,,0,0,0,0,0,128,128,106,486.79601073265076,,,,,,,,,,,,,,,,,,,,,,,,,,,,,,,,,,,,,,,,,,,,,,,,,,,,,,,,,,,,,,,,,,,,,,,,,,,,,,,,,133.0,57.0,57.0,133.0,78.0,78.0,4.0,4.1,-191,-268,0,14,202,-282,486.78154492378235,486.78163290023804,486.7851047515869,486.79601073265076,486.9452443122864,486.9452443122864,486.9452443122864,486.9452443122864,486.9452443122864,486.9452443122864,486.9452443122864,488.24679017066956,2,1.4443299770355225,None,,,,,,,,,,,,,,,,,,49,1,2025-02-19_14h07.49.240,comp,2024.2.4,54.08564616315041,2025-02-19 14h08.04.830159 -0500,
129,129,0,critical,whd,20.0,2.1,upper,125.0,200.0,200.0,125.0,141.0,141.0,2,2.5222690105438232,None,,,,,0,0,0,0,0,129,129,39,488.26154923439026,,,,,,,,,,,,,,,,,,,,,,,,,,,,,,,,,,,,,,,,,,,,,,,,,,,,,,,,,,,,,,,,,,,,,,,,,,,,,,,,,125.0,200.0,200.0,125.0,141.0,141.0,2.1,2.11,-258,275,0,264,229,-276,488.24839758872986,488.24847412109375,488.2518792152405,488.26154923439026,488.41739654541016,488.41739654541016,488.41739654541016,488.41739654541016,488.41739654541016,488.41739654541016,488.41739654541016,490.8002977371216,2,2.5222690105438232,None,,,,,,,,,,,,,,,,,,49,1,2025-02-19_14h07.49.240,comp,2024.2.4,54.08564616315041,2025-02-19 14h08.04.830159 -0500,
130,130,0,critical,dwh,20.0,4.0,upper,141.0,141.0,125.0,200.0,200.0,125.0,3,2.4225945472717285,None,,,,,0,0,0,0,0,130,130,71,490.81808161735535,,,,,,,,,,,,,,,,,,,,,,,,,,,,,,,,,,,,,,,,,,,,,,,,,,,,,,,,,,,,,,,,,,,,,,,,,,,,,,,,,141.0,141.0,125.0,200.0,200.0,125.0,4.0,4.2,-266,-15,0,-254,258,20,490.80190801620483,490.802006483078,490.80539727211,490.81808161735535,490.9643728733063,490.9643728733063,490.9643728733063,490.9643728733063,490.9643728733063,490.9643728733063,490.9643728733063,493.248423576355,3,2.4225945472717285,None,,,,,,,,,,,,,,,,,,49,1,2025-02-19_14h07.49.240,comp,2024.2.4,54.08564616315041,2025-02-19 14h08.04.830159 -0500,
131,131,0,filler_random,None,None,None,None,None,None,None,None,None,None,2,1.3832600116729736,None,,,,,0,0,0,0,0,131,131,133,493.26485085487366,,,,,,,,,,,,,,,,,,,,,,,,,,,,,,,,,,,,,,,,,,,,,,,,,,,,,,,,,,,,,,,,,,,,,,,,,,,,,,,,,107.25479054278463,164.0811383198832,171.98952561734797,159.0528361727048,127.69407392153654,108.34322955220225,3.0,3.1,-258,273,0,1,230,-259,493.25015473365784,493.25030755996704,493.25379705429077,493.26485085487366,493.41866421699524,493.41866421699524,493.41866421699524,493.41866421699524,493.41866421699524,493.41866421699524,493.41866421699524,494.66501235961914,2,1.3832600116729736,None,,,,,,,,,,,,,,,,,,49,1,2025-02-19_14h07.49.240,comp,2024.2.4,54.08564616315041,2025-02-19 14h08.04.830159 -0500,
132,132,0,critical,dwh,35.0,3.0,lower,70.0,70.0,57.0,133.0,133.0,57.0,3,2.060305118560791,None,,,,,0,0,0,0,0,132,132,62,494.68354892730713,,,,,,,,,,,,,,,,,,,,,,,,,,,,,,,,,,,,,,,,,,,,,,,,,,,,,,,,,,,,,,,,,,,,,,,,,,,,,,,,,70.0,70.0,57.0,133.0,133.0,57.0,3.0,3.1,-198,280,0,15,191,-267,494.6664662361145,494.6665391921997,494.6697154045105,494.68354892730713,494.83750915527344,494.83750915527344,494.83750915527344,494.83750915527344,494.83750915527344,494.83750915527344,494.83750915527344,496.76112365722656,3,2.060305118560791,None,,,,,,,,,,,,,,,,,,49,1,2025-02-19_14h07.49.240,comp,2024.2.4,54.08564616315041,2025-02-19 14h08.04.830159 -0500,
133,133,0,critical,dhw,20.0,4.0,lower,78.0,78.0,133.0,57.0,57.0,133.0,2,4.663140296936035,None,,,,,0,0,0,0,0,133,133,58,496.7767114639282,,,,,,,,,,,,,,,,,,,,,,,,,,,,,,,,,,,,,,,,,,,,,,,,,,,,,,,,,,,,,,,,,,,,,,,,,,,,,,,,,78.0,78.0,133.0,57.0,57.0,133.0,4.0,4.2,-164,18,0,-268,191,10,496.7626762390137,496.76275181770325,496.76604890823364,496.7767114639282,496.91693472862244,496.91693472862244,496.91693472862244,496.91693472862244,496.91693472862244,496.91693472862244,496.91693472862244,501.449666261673,2,4.663140296936035,None,,,,,,,,,,,,,,,,,,49,1,2025-02-19_14h07.49.240,comp,2024.2.4,54.08564616315041,2025-02-19 14h08.04.830159 -0500,
134,134,0,critical,hwd,20.0,1.0,upper,200.0,125.0,125.0,200.0,141.0,141.0,1,1.1941235065460205,None,,,,,0,0,0,0,0,134,134,103,501.4701554775238,,,,,,,,,,,,,,,,,,,,,,,,,,,,,,,,,,,,,,,,,,,,,,,,,,,,,,,,,,,,,,,,,,,,,,,,,,,,,,,,,200.0,125.0,125.0,200.0,141.0,141.0,1.0,1.2,-258,-10,0,-4,266,-7,501.4512429237366,501.451358795166,501.4547791481018,501.4701554775238,501.61707067489624,501.61707067489624,501.61707067489624,501.61707067489624,501.61707067489624,501.61707067489624,501.61707067489624,502.6668984889984,1,1.1941235065460205,None,,,,,,,,,,,,,,,,,,49,1,2025-02-19_14h07.49.240,comp,2024.2.4,54.08564616315041,2025-02-19 14h08.04.830159 -0500,
135,135,0,critical,wdh,35.0,2.1,lower,57.0,133.0,70.0,70.0,133.0,57.0,3,1.4249250888824463,None,,,,,0,0,0,0,0,135,135,8,502.6873939037323,,,,,,,,,,,,,,,,,,,,,,,,,,,,,,,,,,,,,,,,,,,,,,,,,,,,,,,,,,,,,,,,,,,,,,,,,,,,,,,,,57.0,133.0,70.0,70.0,133.0,57.0,2.1,2.11,-198,284,0,289,160,-264,502.6684219837189,502.6684980392456,502.6716766357422,502.6873939037323,502.8349554538727,502.8349554538727,502.8349554538727,502.8349554538727,502.8349554538727,502.8349554538727,502.8349554538727,504.1184549331665,3,1.4249250888824463,None,,,,,,,,,,,,,,,,,,49,1,2025-02-19_14h07.49.240,comp,2024.2.4,54.08564616315041,2025-02-19 14h08.04.830159 -0500,
136,136,0,filler_square,None,None,None,None,None,None,None,None,None,None,1,5.737547159194946,None,,,,,0,0,0,0,0,136,136,190,504.1345272064209,,,,,,,,,,,,,,,,,,,,,,,,,,,,,,,,,,,,,,,,,,,,,,,,,,,,,,,,,,,,,,,,,,,,,,,,,,,,,,,,,83.59346892883211,83.59346892883211,77.9109760624603,79.37015719648714,76.93599786217314,77.14031226906455,3.0,3.1,-177,256,0,-13,174,-260,504.120254278183,504.1203303337097,504.12375020980835,504.1345272064209,504.2838475704193,504.2838475704193,504.2838475704193,504.2838475704193,504.2838475704193,504.2838475704193,504.2838475704193,509.8880400657654,1,5.737547159194946,None,,,,,,,,,,,,,,,,,,49,1,2025-02-19_14h07.49.240,comp,2024.2.4,54.08564616315041,2025-02-19 14h08.04.830159 -0500,
137,137,0,filler_random,None,None,None,None,None,None,None,None,None,None,2,2.6637814044952393,None,,,,,0,0,0,0,0,137,137,140,509.9040768146515,,,,,,,,,,,,,,,,,,,,,,,,,,,,,,,,,,,,,,,,,,,,,,,,,,,,,,,,,,,,,,,,,,,,,,,,,,,,,,,,,145.67426559889228,72.09922800330928,78.6159420342498,184.36264216108458,121.00526262004325,75.52369326446761,2.2,2.21,-224,-288,0,258,226,265,509.88974046707153,509.8898355960846,509.8932201862335,509.9040768146515,510.05296325683594,510.05296325683594,510.05296325683594,510.05296325683594,510.05296325683594,510.05296325683594,510.05296325683594,512.5718023777008,2,2.6637814044952393,None,,,,,,,,,,,,,,,,,,49,1,2025-02-19_14h07.49.240,comp,2024.2.4,54.08564616315041,2025-02-19 14h08.04.830159 -0500,
138,138,0,critical,wdh,20.0,4.0,upper,125.0,200.0,141.0,141.0,200.0,125.0,1,0.985990047454834,None,,,,,0,0,0,0,0,138,138,83,512.5899682044983,,,,,,,,,,,,,,,,,,,,,,,,,,,,,,,,,,,,,,,,,,,,,,,,,,,,,,,,,,,,,,,,,,,,,,,,,,,,,,,,,125.0,200.0,141.0,141.0,200.0,125.0,4.0,4.2,-266,11,0,-258,229,-18,512.573397397995,512.5734767913818,512.5768053531647,512.5899682044983,512.738930940628,512.738930940628,512.738930940628,512.738930940628,512.738930940628,512.738930940628,512.738930940628,513.5870079994202,1,0.985990047454834,None,,,,,,,,,,,,,,,,,,49,1,2025-02-19_14h07.49.240,comp,2024.2.4,54.08564616315041,2025-02-19 14h08.04.830159 -0500,
139,139,0,critical,whd,35.0,3.0,upper,125.0,200.0,200.0,125.0,127.0,127.0,1,0.9699976444244385,None,,,,,0,0,0,0,0,139,139,87,513.6065332889557,,,,,,,,,,,,,,,,,,,,,,,,,,,,,,,,,,,,,,,,,,,,,,,,,,,,,,,,,,,,,,,,,,,,,,,,,,,,,,,,,125.0,200.0,200.0,125.0,127.0,127.0,3.0,3.2,-258,-269,0,-11,222,266,513.5884487628937,513.5885226726532,513.5914900302887,513.6065332889557,513.7625522613525,513.7625522613525,513.7625522613525,513.7625522613525,513.7625522613525,513.7625522613525,513.7625522613525,514.5939133167267,1,0.9699976444244385,None,,,,,,,,,,,,,,,,,,49,1,2025-02-19_14h07.49.240,comp,2024.2.4,54.08564616315041,2025-02-19 14h08.04.830159 -0500,
140,140,0,filler_random,None,None,None,None,None,None,None,None,None,None,3,1.4665603637695312,None,,,,,0,0,0,0,0,140,140,148,514.6137716770172,,,,,,,,,,,,,,,,,,,,,,,,,,,,,,,,,,,,,,,,,,,,,,,,,,,,,,,,,,,,,,,,,,,,,,,,,,,,,,,,,175.0260055904808,101.9460940092421,141.15863711845162,107.16532163369365,198.2552441278703,110.64255303085066,2.1,2.12,-201,-285,0,-279,205,265,514.5955662727356,514.5956423282623,514.5985188484192,514.6137716770172,514.7564799785614,514.7564799785614,514.7564799785614,514.7564799785614,514.7564799785614,514.7564799785614,514.7564799785614,516.0889301300049,3,1.4665603637695312,None,,,,,,,,,,,,,,,,,,49,1,2025-02-19_14h07.49.240,comp,2024.2.4,54.08564616315041,2025-02-19 14h08.04.830159 -0500,
