thisN,thisTrialN,thisRepN,effect,order,distance,config,diag,h_1,w_1,h_2,w_2,h_3,w_3,rect_choice.keys,rect_choice.rt,rect_choice.duration,instructions_loop.thisRepN,instructions_loop.thisTrialN,instructions_loop.thisN,instructions_loop.thisIndex,blocks.thisRepN,blocks.thisTrialN,blocks.thisN,blocks.thisIndex,trials.thisRepN,trials.thisTrialN,trials.thisN,trials.thisIndex,thisRow.t,notes,consent.started,agree_button.started,decline_button.started,consent_img.started,mouse.started,consent.stopped,agree_button.numClicks,agree_button.timesOn,agree_button.timesOff,decline_button.numClicks,decline_button.timesOn,decline_button.timesOff,mouse.x,mouse.y,mouse.leftButton,mouse.midButton,mouse.rightButton,mouse.time,mouse.clicked_name,exp_params.started,exp_params.stopped,welcome.started,welcome_text.started,welcome.stopped,instructions_1.started,instructions_1_text_1.started,instructions_1_text_2.started,key_resp.started,instructions_1.stopped,instructions_loop.key_resp.keys,instructions_loop.key_resp.rt,instructions_loop.key_resp.duration,instructions_2.started,instructions_2_text_1.started,instructions_2_text_2.started,key_resp_2.started,instructions_2.stopped,instructions_loop.key_resp_2.keys,instructions_loop.key_resp_2.rt,instructions_loop.key_resp_2.duration,instructions_3.started,instructions_3_text_1.started,r1_instr3.started,r2_instr3.started,r3_instr3.started,r1_instr3_label.started,r2_instr3_label.started,r3_instr3_label.started,instructions_3_text_3.started,instructions_3_text_4.started,key_resp_3.started,instructions_3.stopped,instructions_loop.key_resp_3.keys,instructions_loop.key_resp_3.rt,instructions_loop.key_resp_3.duration,instructions_4.started,instructions_4_text_1.started,instructions_4_text_3.started,instructions_4_text_2.started,key_resp_4.started,instructions_4.stopped,instructions_loop.key_resp_4.keys,instructions_loop.key_resp_4.rt,instructions_loop.key_resp_4.duration,instructions_5.started,instructions_5_text_1.started,instructions_5_text_2.started,key_resp_5.started,instructions_5.stopped,instructions_loop.key_resp_5.keys,instructions_loop.key_resp_5.rt,instructions_loop.key_resp_5.duration,start_exp.started,start_exp_text.started,key_resp_6.started,start_exp.stopped,key_resp_6.keys,key_resp_6.rt,key_resp_6.duration,h_1_tmp,w_1_tmp,h_2_tmp,w_2_tmp,h_3_tmp,w_3_tmp,config_tmp,config_tmp_1,r_1_x,r_1_y,r_2_x,r_2_y,r_3_x,r_3_y,pre_trial.started,pre_trial.stopped,choice_trial.started,rect_choice.started,r_1.started,r_2.started,r_3.started,r_1_label.started,r_2_label.started,r_3_label.started,prompt.started,choice_trial.stopped,trials.rect_choice.keys,trials.rect_choice.rt,trials.rect_choice.duration,end_block.started,end_block_text.started,end_block.stopped,end.started,end_text.started,key_resp_7.started,end.stopped,key_resp_7.keys,key_resp_7.rt,key_resp_7.duration,debriefing.started,debrief_form.started,end_debrief.started,debriefing.stopped,end_debrief.keys,end_debrief.rt,end_debrief.duration,participant,computer,date,expName,psychopyVersion,frameRate,expStart,
,,,,,,,,,,,,,,,,,,,,,,,,,,,,,,,0.014518976211547852,0.0340886116027832,0.0340886116027832,0.0340886116027832,0.014299631118774414,43.22765636444092,1,[43.19105625152588],[43.19108033180237],0,,,[-64.0],[-487.0],[1],[0],[0],[43.212555170059204],['agree_button'],,,,,,,,,,,,,,,,,,,,,,,,,,,,,,,,,,,,,,,,,,,,,,,,,,,,,,,,,,,,,,,,,,,,,,,,,,,,,,,,,,,,,,,,,,,,,,,,,,,,,,,,,,,50,2,2025-02-19_14h08.28.236,comp,2024.2.4,57.188295928662974,2025-02-19 14h08.35.665505 -0500,
,,,,,,,,,,,,,,,,,,,,,,,,,,,,,,,,,,,,,,,,,,,,,,,,,,43.228193044662476,43.2282612323761,,,,,,,,,,,,,,,,,,,,,,,,,,,,,,,,,,,,,,,,,,,,,,,,,,,,,,,,,,,,,,,,,,,,,,,,,,,,,,,,,,,,,,,,,,,,,,,,,,,,,,,,,50,2,2025-02-19_14h08.28.236,comp,2024.2.4,57.188295928662974,2025-02-19 14h08.35.665505 -0500,
,,,,,,,,,,,,,,,,,,,,,,,,,,,,,,,,,,,,,,,,,,,,,,,,,,,,43.228307247161865,43.24534630775452,45.23341226577759,,,,,,,,,,,,,,,,,,,,,,,,,,,,,,,,,,,,,,,,,,,,,,,,,,,,,,,,,,,,,,,,,,,,,,,,,,,,,,,,,,,,,,,,,,,,,,,,,,,,,,50,2,2025-02-19_14h08.28.236,comp,2024.2.4,57.188295928662974,2025-02-19 14h08.35.665505 -0500,
0,0,0,,,,,,,,,,,,,,,0,0,0,0,,,,,,,,,45.249295234680176,,,,,,,,,,,,,,,,,,,,,,,,,,45.23428153991699,45.249295234680176,45.249295234680176,46.731268882751465,49.219393730163574,space,2.478682518005371,None,49.219578981399536,49.235236406326294,49.235236406326294,50.73438906669617,56.7204852104187,space,5.970569610595703,None,56.72064256668091,56.748579263687134,56.748579263687134,56.748579263687134,56.748579263687134,56.748579263687134,56.748579263687134,56.748579263687134,56.748579263687134,56.748579263687134,58.22210073471069,61.89065456390381,space,3.6600561141967773,None,61.890815019607544,61.91329050064087,61.91329050064087,61.91329050064087,63.4036431312561,75.21317982673645,space,11.789431095123291,None,75.21333575248718,75.23262619972229,75.23262619972229,76.72238564491272,77.14367580413818,space,0.40682554244995117,None,77.14387774467468,77.16017413139343,77.16017413139343,78.59249877929688,space,1.4167835712432861,None,,,,,,,,,,,,,,,,,,,,,,,,,,,,,,,,,,,,,,,,,,,,,,,50,2,2025-02-19_14h08.28.236,comp,2024.2.4,57.188295928662974,2025-02-19 14h08.35.665505 -0500,
0,0,0,critical,wdh,35.0,3.0,lower,57.0,133.0,70.0,70.0,133.0,57.0,1,3.659348249435425,None,,,,,0,0,0,0,0,0,0,74,78.66233253479004,,,,,,,,,,,,,,,,,,,,,,,,,,,,,,,,,,,,,,,,,,,,,,,,,,,,,,,,,,,,,,,,,,,,,,,,,,,,,,,,,57.0,133.0,70.0,70.0,133.0,57.0,3.0,3.2,-198,-262,0,-16,160,263,78.65189623832703,78.65192723274231,78.65303254127502,78.66233253479004,78.81782746315002,78.81782746315002,78.81782746315002,78.81782746315002,78.81782746315002,78.81782746315002,78.81782746315002,82.32960438728333,1,3.659348249435425,None,,,,,,,,,,,,,,,,,,50,2,2025-02-19_14h08.28.236,comp,2024.2.4,57.188295928662974,2025-02-19 14h08.35.665505 -0500,
1,1,0,filler_random,None,None,None,None,None,None,None,None,None,None,2,1.3203260898590088,None,,,,,0,0,0,0,0,1,1,158,82.34487414360046,,,,,,,,,,,,,,,,,,,,,,,,,,,,,,,,,,,,,,,,,,,,,,,,,,,,,,,,,,,,,,,,,,,,,,,,,,,,,,,,,128.44530558837317,91.8193156208549,199.00542207249745,164.0296392546593,99.19732085406683,161.11800828932573,2.2,2.22,-224,269,0,-262,259,-270,82.33118438720703,82.33124661445618,82.3339684009552,82.34487414360046,82.49879264831543,82.49879264831543,82.49879264831543,82.49879264831543,82.49879264831543,82.49879264831543,82.49879264831543,83.67975425720215,2,1.3203260898590088,None,,,,,,,,,,,,,,,,,,50,2,2025-02-19_14h08.28.236,comp,2024.2.4,57.188295928662974,2025-02-19 14h08.35.665505 -0500,
2,2,0,catch,None,None,None,None,None,None,None,None,None,None,2,0.9530856609344482,None,,,,,0,0,0,0,0,2,2,122,83.69610714912415,,,,,,,,,,,,,,,,,,,,,,,,,,,,,,,,,,,,,,,,,,,,,,,,,,,,,,,,,,,,,,,,,,,,,,,,,,,,,,,,,100,90,161,164,101,89,3.0,3.2,-223,-266,0,14,222,260,83.68171334266663,83.68179512023926,83.68581318855286,83.69610714912415,83.84907102584839,83.84907102584839,83.84907102584839,83.84907102584839,83.84907102584839,83.84907102584839,83.84907102584839,84.66262888908386,2,0.9530856609344482,None,,,,,,,,,,,,,,,,,,50,2,2025-02-19_14h08.28.236,comp,2024.2.4,57.188295928662974,2025-02-19 14h08.35.665505 -0500,
3,3,0,filler_square,None,None,None,None,None,None,None,None,None,None,1,1.538243055343628,None,,,,,0,0,0,0,0,3,3,198,84.67889189720154,,,,,,,,,,,,,,,,,,,,,,,,,,,,,,,,,,,,,,,,,,,,,,,,,,,,,,,,,,,,,,,,,,,,,,,,,,,,,,,,,95.65723589121143,95.65723589121143,58.99194873314876,93.21516937178276,80.29311419107137,76.89919023649247,1.0,1.1,-670,263,-480,266,-299,259,84.6644115447998,84.66452217102051,84.66769242286682,84.67889189720154,84.82878994941711,84.82878994941711,84.82878994941711,84.82878994941711,84.82878994941711,84.82878994941711,84.82878994941711,86.23051428794861,1,1.538243055343628,None,,,,,,,,,,,,,,,,,,50,2,2025-02-19_14h08.28.236,comp,2024.2.4,57.188295928662974,2025-02-19 14h08.35.665505 -0500,
4,4,0,critical,hdw,35.0,2.1,upper,200.0,125.0,127.0,127.0,125.0,200.0,3,1.3542344570159912,None,,,,,0,0,0,0,0,4,4,21,86.24672412872314,,,,,,,,,,,,,,,,,,,,,,,,,,,,,,,,,,,,,,,,,,,,,,,,,,,,,,,,,,,,,,,,,,,,,,,,,,,,,,,,,200.0,125.0,127.0,127.0,125.0,200.0,2.1,2.12,-222,-288,0,-256,260,286,86.23205041885376,86.2321252822876,86.23620128631592,86.24672412872314,86.39597582817078,86.39597582817078,86.39597582817078,86.39597582817078,86.39597582817078,86.39597582817078,86.39597582817078,87.61720299720764,3,1.3542344570159912,None,,,,,,,,,,,,,,,,,,50,2,2025-02-19_14h08.28.236,comp,2024.2.4,57.188295928662974,2025-02-19 14h08.35.665505 -0500,
5,5,0,catch,None,None,None,None,None,None,None,None,None,None,2,1.4786872863769531,None,,,,,0,0,0,0,0,5,5,127,87.6342990398407,,,,,,,,,,,,,,,,,,,,,,,,,,,,,,,,,,,,,,,,,,,,,,,,,,,,,,,,,,,,,,,,,,,,,,,,,,,,,,,,,98,92,192,133,77,113,1.0,1.3,272,-268,480,-284,699,-258,87.61940264701843,87.61951446533203,87.62307524681091,87.6342990398407,87.77706289291382,87.77706289291382,87.77706289291382,87.77706289291382,87.77706289291382,87.77706289291382,87.77706289291382,89.13066577911377,2,1.4786872863769531,None,,,,,,,,,,,,,,,,,,50,2,2025-02-19_14h08.28.236,comp,2024.2.4,57.188295928662974,2025-02-19 14h08.35.665505 -0500,
6,6,0,critical,hwd,20.0,3.0,upper,200.0,125.0,125.0,200.0,141.0,141.0,1,2.4938647747039795,None,,,,,0,0,0,0,0,6,6,105,89.14714741706848,,,,,,,,,,,,,,,,,,,,,,,,,,,,,,,,,,,,,,,,,,,,,,,,,,,,,,,,,,,,,,,,,,,,,,,,,,,,,,,,,200.0,125.0,125.0,200.0,141.0,141.0,3.0,3.2,-258,-274,0,3,266,266,89.13226699829102,89.13238716125488,89.13571381568909,89.14714741706848,89.30074572563171,89.30074572563171,89.30074572563171,89.30074572563171,89.30074572563171,89.30074572563171,89.30074572563171,91.65062189102173,1,2.4938647747039795,None,,,,,,,,,,,,,,,,,,50,2,2025-02-19_14h08.28.236,comp,2024.2.4,57.188295928662974,2025-02-19 14h08.35.665505 -0500,
7,7,0,critical,hdw,20.0,2.1,lower,133.0,57.0,78.0,78.0,57.0,133.0,3,7.639780759811401,None,,,,,0,0,0,0,0,7,7,22,91.6662163734436,,,,,,,,,,,,,,,,,,,,,,,,,,,,,,,,,,,,,,,,,,,,,,,,,,,,,,,,,,,,,,,,,,,,,,,,,,,,,,,,,133.0,57.0,78.0,78.0,57.0,133.0,2.1,2.12,-164,-275,0,-267,202,257,91.65223288536072,91.65230894088745,91.65547728538513,91.6662163734436,91.8135154247284,91.8135154247284,91.8135154247284,91.8135154247284,91.8135154247284,91.8135154247284,91.8135154247284,99.32189393043518,3,7.639780759811401,None,,,,,,,,,,,,,,,,,,50,2,2025-02-19_14h08.28.236,comp,2024.2.4,57.188295928662974,2025-02-19 14h08.35.665505 -0500,
8,8,0,critical,dwh,35.0,1.0,lower,70.0,70.0,57.0,133.0,133.0,57.0,2,3.4615113735198975,None,,,,,0,0,0,0,0,8,8,60,99.33958792686462,,,,,,,,,,,,,,,,,,,,,,,,,,,,,,,,,,,,,,,,,,,,,,,,,,,,,,,,,,,,,,,,,,,,,,,,,,,,,,,,,70.0,70.0,57.0,133.0,133.0,57.0,1.0,1.2,-198,18,0,11,191,20,99.32360935211182,99.32368659973145,99.32697248458862,99.33958792686462,99.48508095741272,99.48508095741272,99.48508095741272,99.48508095741272,99.48508095741272,99.48508095741272,99.48508095741272,102.81841254234314,2,3.4615113735198975,None,,,,,,,,,,,,,,,,,,50,2,2025-02-19_14h08.28.236,comp,2024.2.4,57.188295928662974,2025-02-19 14h08.35.665505 -0500,
9,9,0,filler_random,None,None,None,None,None,None,None,None,None,None,2,2.234034776687622,None,,,,,0,0,0,0,0,9,9,130,102.83903121948242,,,,,,,,,,,,,,,,,,,,,,,,,,,,,,,,,,,,,,,,,,,,,,,,,,,,,,,,,,,,,,,,,,,,,,,,,,,,,,,,,178.08058058938843,150.50237651008172,184.54068193085146,133.98483120083466,193.82920608362778,59.398010004545384,2.2,2.22,-238,270,0,-275,193,-278,102.82032704353333,102.82040476799011,102.82363510131836,102.83903121948242,102.98613047599792,102.98613047599792,102.98613047599792,102.98613047599792,102.98613047599792,102.98613047599792,102.98613047599792,105.0858416557312,2,2.234034776687622,None,,,,,,,,,,,,,,,,,,50,2,2025-02-19_14h08.28.236,comp,2024.2.4,57.188295928662974,2025-02-19 14h08.35.665505 -0500,
10,10,0,filler_square,None,None,None,None,None,None,None,None,None,None,3,2.8915483951568604,None,,,,,0,0,0,0,0,10,10,200,105.10150647163391,,,,,,,,,,,,,,,,,,,,,,,,,,,,,,,,,,,,,,,,,,,,,,,,,,,,,,,,,,,,,,,,,,,,,,,,,,,,,,,,,98.48670458696381,125.79113691197999,131.22754652122123,134.2477022004927,139.57907048670452,139.57907048670452,2.2,2.21,-226,-287,0,280,233,286,105.08770275115967,105.08777976036072,105.09081172943115,105.10150647163391,105.25819301605225,105.25819301605225,105.25819301605225,105.25819301605225,105.25819301605225,105.25819301605225,105.25819301605225,108.0026752948761,3,2.8915483951568604,None,,,,,,,,,,,,,,,,,,50,2,2025-02-19_14h08.28.236,comp,2024.2.4,57.188295928662974,2025-02-19 14h08.35.665505 -0500,
11,11,0,critical,wdh,20.0,3.0,lower,57.0,133.0,78.0,78.0,133.0,57.0,1,3.4862120151519775,None,,,,,0,0,0,0,0,11,11,80,108.01888465881348,,,,,,,,,,,,,,,,,,,,,,,,,,,,,,,,,,,,,,,,,,,,,,,,,,,,,,,,,,,,,,,,,,,,,,,,,,,,,,,,,57.0,133.0,78.0,78.0,133.0,57.0,3.0,3.2,-202,-280,0,8,164,251,108.00437641143799,108.00454473495483,108.00797414779663,108.01888465881348,108.17702102661133,108.17702102661133,108.17702102661133,108.17702102661133,108.17702102661133,108.17702102661133,108.17702102661133,111.52053809165955,1,3.4862120151519775,None,,,,,,,,,,,,,,,,,,50,2,2025-02-19_14h08.28.236,comp,2024.2.4,57.188295928662974,2025-02-19 14h08.35.665505 -0500,
12,12,0,filler_square,None,None,None,None,None,None,None,None,None,None,2,4.02014422416687,None,,,,,0,0,0,0,0,12,12,186,111.54084014892578,,,,,,,,,,,,,,,,,,,,,,,,,,,,,,,,,,,,,,,,,,,,,,,,,,,,,,,,,,,,,,,,,,,,,,,,,,,,,,,,,92.87547818257255,84.23811410845845,93.26601117831089,93.26601117831089,82.62563553263757,91.21047653394481,2.1,2.12,-185,-268,0,-250,188,290,111.52231931686401,111.5223958492279,111.52547836303711,111.54084014892578,111.69530081748962,111.69530081748962,111.69530081748962,111.69530081748962,111.69530081748962,111.69530081748962,111.69530081748962,115.57433700561523,2,4.02014422416687,None,,,,,,,,,,,,,,,,,,50,2,2025-02-19_14h08.28.236,comp,2024.2.4,57.188295928662974,2025-02-19 14h08.35.665505 -0500,
13,13,0,critical,hwd,20.0,4.0,upper,200.0,125.0,125.0,200.0,141.0,141.0,2,2.299912929534912,None,,,,,0,0,0,0,0,13,13,107,115.58999752998352,,,,,,,,,,,,,,,,,,,,,,,,,,,,,,,,,,,,,,,,,,,,,,,,,,,,,,,,,,,,,,,,,,,,,,,,,,,,,,,,,200.0,125.0,125.0,200.0,141.0,141.0,4.0,4.2,-258,-9,0,-259,266,-13,115.57598423957825,115.57606077194214,115.57962346076965,115.58999752998352,115.74332571029663,115.74332571029663,115.74332571029663,115.74332571029663,115.74332571029663,115.74332571029663,115.74332571029663,117.89453768730164,2,2.299912929534912,None,,,,,,,,,,,,,,,,,,50,2,2025-02-19_14h08.28.236,comp,2024.2.4,57.188295928662974,2025-02-19 14h08.35.665505 -0500,
14,14,0,filler_square,None,None,None,None,None,None,None,None,None,None,3,1.3468596935272217,None,,,,,0,0,0,0,0,14,14,187,117.91029024124146,,,,,,,,,,,,,,,,,,,,,,,,,,,,,,,,,,,,,,,,,,,,,,,,,,,,,,,,,,,,,,,,,,,,,,,,,,,,,,,,,151.89677771218703,115.74013207091548,64.13586786538686,95.01224334781948,152.24717261171492,152.24717261171492,4.0,4.2,-201,18,0,-286,220,13,117.89655470848083,117.89663577079773,117.89957857131958,117.91029024124146,118.05716323852539,118.05716323852539,118.05716323852539,118.05716323852539,118.05716323852539,118.05716323852539,118.05716323852539,119.27304196357727,3,1.3468596935272217,None,,,,,,,,,,,,,,,,,,50,2,2025-02-19_14h08.28.236,comp,2024.2.4,57.188295928662974,2025-02-19 14h08.35.665505 -0500,
15,15,0,critical,wdh,35.0,1.0,lower,57.0,133.0,70.0,70.0,133.0,57.0,1,3.4884369373321533,None,,,,,0,0,0,0,0,15,15,72,119.2886872291565,,,,,,,,,,,,,,,,,,,,,,,,,,,,,,,,,,,,,,,,,,,,,,,,,,,,,,,,,,,,,,,,,,,,,,,,,,,,,,,,,57.0,133.0,70.0,70.0,133.0,57.0,1.0,1.2,-198,1,0,-19,160,-13,119.27450823783875,119.27458453178406,119.27749991416931,119.2886872291565,119.43871903419495,119.43871903419495,119.43871903419495,119.43871903419495,119.43871903419495,119.43871903419495,119.43871903419495,122.79538464546204,1,3.4884369373321533,None,,,,,,,,,,,,,,,,,,50,2,2025-02-19_14h08.28.236,comp,2024.2.4,57.188295928662974,2025-02-19 14h08.35.665505 -0500,
16,16,0,critical,hwd,35.0,4.0,lower,133.0,57.0,57.0,133.0,70.0,70.0,2,2.6391382217407227,None,,,,,0,0,0,0,0,16,16,100,122.81059885025024,,,,,,,,,,,,,,,,,,,,,,,,,,,,,,,,,,,,,,,,,,,,,,,,,,,,,,,,,,,,,,,,,,,,,,,,,,,,,,,,,133.0,57.0,57.0,133.0,70.0,70.0,4.0,4.1,-191,-282,0,17,198,-260,122.79738759994507,122.79749298095703,122.80036425590515,122.81059885025024,122.95809626579285,122.95809626579285,122.95809626579285,122.95809626579285,122.95809626579285,122.95809626579285,122.95809626579285,125.45926213264465,2,2.6391382217407227,None,,,,,,,,,,,,,,,,,,50,2,2025-02-19_14h08.28.236,comp,2024.2.4,57.188295928662974,2025-02-19 14h08.35.665505 -0500,
17,17,0,critical,dwh,35.0,4.0,lower,70.0,70.0,57.0,133.0,133.0,57.0,2,2.3186020851135254,None,,,,,0,0,0,0,0,17,17,64,125.47524690628052,,,,,,,,,,,,,,,,,,,,,,,,,,,,,,,,,,,,,,,,,,,,,,,,,,,,,,,,,,,,,,,,,,,,,,,,,,,,,,,,,70.0,70.0,57.0,133.0,133.0,57.0,4.0,4.1,-198,-259,0,-18,191,-278,125.4609112739563,125.46098566055298,125.46438670158386,125.47524690628052,125.6272120475769,125.6272120475769,125.6272120475769,125.6272120475769,125.6272120475769,125.6272120475769,125.6272120475769,127.80128645896912,2,2.3186020851135254,None,,,,,,,,,,,,,,,,,,50,2,2025-02-19_14h08.28.236,comp,2024.2.4,57.188295928662974,2025-02-19 14h08.35.665505 -0500,
18,18,0,critical,dwh,35.0,2.1,upper,127.0,127.0,125.0,200.0,200.0,125.0,2,2.0621418952941895,None,,,,,0,0,0,0,0,18,18,29,127.8190004825592,,,,,,,,,,,,,,,,,,,,,,,,,,,,,,,,,,,,,,,,,,,,,,,,,,,,,,,,,,,,,,,,,,,,,,,,,,,,,,,,,127.0,127.0,125.0,200.0,200.0,125.0,2.1,2.12,-260,-280,0,-273,258,287,127.80278992652893,127.8028655052185,127.80572748184204,127.8190004825592,127.96105074882507,127.96105074882507,127.96105074882507,127.96105074882507,127.96105074882507,127.96105074882507,127.96105074882507,129.89237117767334,2,2.0621418952941895,None,,,,,,,,,,,,,,,,,,50,2,2025-02-19_14h08.28.236,comp,2024.2.4,57.188295928662974,2025-02-19 14h08.35.665505 -0500,
19,19,0,critical,dwh,20.0,3.0,lower,78.0,78.0,57.0,133.0,133.0,57.0,2,2.3884825706481934,None,,,,,0,0,0,0,0,19,19,68,129.90878009796143,,,,,,,,,,,,,,,,,,,,,,,,,,,,,,,,,,,,,,,,,,,,,,,,,,,,,,,,,,,,,,,,,,,,,,,,,,,,,,,,,78.0,78.0,57.0,133.0,133.0,57.0,3.0,3.2,-202,-260,0,8,191,290,129.8938512802124,129.89392733573914,129.89683890342712,129.90878009796143,130.0480637550354,130.0480637550354,130.0480637550354,130.0480637550354,130.0480637550354,130.0480637550354,130.0480637550354,132.30211305618286,2,2.3884825706481934,None,,,,,,,,,,,,,,,,,,50,2,2025-02-19_14h08.28.236,comp,2024.2.4,57.188295928662974,2025-02-19 14h08.35.665505 -0500,
20,20,0,critical,hwd,20.0,2.1,lower,133.0,57.0,57.0,133.0,78.0,78.0,2,7.350777864456177,None,,,,,0,0,0,0,0,20,20,42,132.3223774433136,,,,,,,,,,,,,,,,,,,,,,,,,,,,,,,,,,,,,,,,,,,,,,,,,,,,,,,,,,,,,,,,,,,,,,,,,,,,,,,,,133.0,57.0,57.0,133.0,78.0,78.0,2.1,2.11,-191,273,0,264,202,-255,132.30368661880493,132.30376267433167,132.30664992332458,132.3223774433136,132.4613013267517,132.4613013267517,132.4613013267517,132.4613013267517,132.4613013267517,132.4613013267517,132.4613013267517,139.685809135437,2,7.350777864456177,None,,,,,,,,,,,,,,,,,,50,2,2025-02-19_14h08.28.236,comp,2024.2.4,57.188295928662974,2025-02-19 14h08.35.665505 -0500,
21,21,0,critical,wdh,35.0,4.0,lower,57.0,133.0,70.0,70.0,133.0,57.0,1,4.354037523269653,None,,,,,0,0,0,0,0,21,21,76,139.7035346031189,,,,,,,,,,,,,,,,,,,,,,,,,,,,,,,,,,,,,,,,,,,,,,,,,,,,,,,,,,,,,,,,,,,,,,,,,,,,,,,,,57.0,133.0,70.0,70.0,133.0,57.0,4.0,4.1,-198,-259,0,-12,160,-251,139.68737649917603,139.68747806549072,139.69037747383118,139.7035346031189,139.84681725502014,139.84681725502014,139.84681725502014,139.84681725502014,139.84681725502014,139.84681725502014,139.84681725502014,144.06595087051392,1,4.354037523269653,None,,,,,,,,,,,,,,,,,,50,2,2025-02-19_14h08.28.236,comp,2024.2.4,57.188295928662974,2025-02-19 14h08.35.665505 -0500,
22,22,0,critical,wdh,35.0,3.0,upper,125.0,200.0,127.0,127.0,200.0,125.0,1,7.287201404571533,None,,,,,0,0,0,0,0,22,22,75,144.08208179473877,,,,,,,,,,,,,,,,,,,,,,,,,,,,,,,,,,,,,,,,,,,,,,,,,,,,,,,,,,,,,,,,,,,,,,,,,,,,,,,,,125.0,200.0,127.0,127.0,200.0,125.0,3.0,3.1,-260,266,0,19,222,-260,144.06759905815125,144.06770730018616,144.0711829662323,144.08208179473877,144.23489713668823,144.23489713668823,144.23489713668823,144.23489713668823,144.23489713668823,144.23489713668823,144.23489713668823,151.38301753997803,1,7.287201404571533,None,,,,,,,,,,,,,,,,,,50,2,2025-02-19_14h08.28.236,comp,2024.2.4,57.188295928662974,2025-02-19 14h08.35.665505 -0500,
23,23,0,critical,whd,35.0,3.0,upper,125.0,200.0,200.0,125.0,127.0,127.0,2,2.657916307449341,None,,,,,0,0,0,0,0,23,23,87,151.39921832084656,,,,,,,,,,,,,,,,,,,,,,,,,,,,,,,,,,,,,,,,,,,,,,,,,,,,,,,,,,,,,,,,,,,,,,,,,,,,,,,,,125.0,200.0,200.0,125.0,127.0,127.0,3.0,3.1,-258,278,0,3,222,-262,151.38459134101868,151.38466954231262,151.38784670829773,151.39921832084656,151.53933191299438,151.53933191299438,151.53933191299438,151.53933191299438,151.53933191299438,151.53933191299438,151.53933191299438,154.0670838356018,2,2.657916307449341,None,,,,,,,,,,,,,,,,,,50,2,2025-02-19_14h08.28.236,comp,2024.2.4,57.188295928662974,2025-02-19 14h08.35.665505 -0500,
24,24,0,filler_square,None,None,None,None,None,None,None,None,None,None,2,3.6579551696777344,None,,,,,0,0,0,0,0,24,24,208,154.08797001838684,,,,,,,,,,,,,,,,,,,,,,,,,,,,,,,,,,,,,,,,,,,,,,,,,,,,,,,,,,,,,,,,,,,,,,,,,,,,,,,,,86.63254354369802,77.72491483294523,101.3594289588528,101.3594289588528,98.04352544944084,59.341677145925175,2.1,2.11,-186,274,0,273,176,-275,154.06908321380615,154.06916069984436,154.07264184951782,154.08797001838684,154.24029159545898,154.24029159545898,154.24029159545898,154.24029159545898,154.24029159545898,154.24029159545898,154.24029159545898,157.75276470184326,2,3.6579551696777344,None,,,,,,,,,,,,,,,,,,50,2,2025-02-19_14h08.28.236,comp,2024.2.4,57.188295928662974,2025-02-19 14h08.35.665505 -0500,
25,25,0,filler_square,None,None,None,None,None,None,None,None,None,None,2,3.1676652431488037,None,,,,,0,0,0,0,0,25,25,205,157.76944708824158,,,,,,,,,,,,,,,,,,,,,,,,,,,,,,,,,,,,,,,,,,,,,,,,,,,,,,,,,,,,,,,,,,,,,,,,,,,,,,,,,113.33232106964155,119.02397128369986,120.05021771565899,120.05021771565899,97.71237155800705,94.0533604666335,4.0,4.1,-216,-259,0,9,203,-272,157.7548303604126,157.75490951538086,157.75848031044006,157.76944708824158,157.91976380348206,157.91976380348206,157.91976380348206,157.91976380348206,157.91976380348206,157.91976380348206,157.91976380348206,160.95369243621826,2,3.1676652431488037,None,,,,,,,,,,,,,,,,,,50,2,2025-02-19_14h08.28.236,comp,2024.2.4,57.188295928662974,2025-02-19 14h08.35.665505 -0500,
26,26,0,critical,hwd,35.0,2.1,lower,133.0,57.0,57.0,133.0,70.0,70.0,2,5.096026182174683,None,,,,,0,0,0,0,0,26,26,40,160.96940803527832,,,,,,,,,,,,,,,,,,,,,,,,,,,,,,,,,,,,,,,,,,,,,,,,,,,,,,,,,,,,,,,,,,,,,,,,,,,,,,,,,133.0,57.0,57.0,133.0,70.0,70.0,2.1,2.11,-191,279,0,253,198,-284,160.95535326004028,160.95542979240417,160.95895504951477,160.96940803527832,161.12212562561035,161.12212562561035,161.12212562561035,161.12212562561035,161.12212562561035,161.12212562561035,161.12212562561035,166.07817363739014,2,5.096026182174683,None,,,,,,,,,,,,,,,,,,50,2,2025-02-19_14h08.28.236,comp,2024.2.4,57.188295928662974,2025-02-19 14h08.35.665505 -0500,
27,27,0,filler_random,None,None,None,None,None,None,None,None,None,None,1,3.1148529052734375,None,,,,,0,0,0,0,0,27,27,150,166.09434461593628,,,,,,,,,,,,,,,,,,,,,,,,,,,,,,,,,,,,,,,,,,,,,,,,,,,,,,,,,,,,,,,,,,,,,,,,,,,,,,,,,197.3434411532211,150.63417074213743,87.26478101025701,172.6252236066734,126.68524109960035,96.56502764917346,1.0,1.1,-738,271,-480,276,-249,276,166.08003044128418,166.08014130592346,166.08333539962769,166.09434461593628,166.2391357421875,166.2391357421875,166.2391357421875,166.2391357421875,166.2391357421875,166.2391357421875,166.2391357421875,169.22257685661316,1,3.1148529052734375,None,,,,,,,,,,,,,,,,,,50,2,2025-02-19_14h08.28.236,comp,2024.2.4,57.188295928662974,2025-02-19 14h08.35.665505 -0500,
28,28,0,filler_random,None,None,None,None,None,None,None,None,None,None,1,3.4264731407165527,None,,,,,0,0,0,0,0,28,28,133,169.2386736869812,,,,,,,,,,,,,,,,,,,,,,,,,,,,,,,,,,,,,,,,,,,,,,,,,,,,,,,,,,,,,,,,,,,,,,,,,,,,,,,,,162.462059666416,147.10307864725857,84.59827215195926,188.42572578153795,97.41665199339712,176.67076960919286,3.0,3.1,-264,257,0,12,279,-260,169.22453427314758,169.22461342811584,169.22784280776978,169.2386736869812,169.39039087295532,169.39039087295532,169.39039087295532,169.39039087295532,169.39039087295532,169.39039087295532,169.39039087295532,172.67869448661804,1,3.4264731407165527,None,,,,,,,,,,,,,,,,,,50,2,2025-02-19_14h08.28.236,comp,2024.2.4,57.188295928662974,2025-02-19 14h08.35.665505 -0500,
29,29,0,critical,hwd,20.0,2.1,lower,133.0,57.0,57.0,133.0,78.0,78.0,2,4.339741230010986,None,,,,,0,0,0,0,0,29,29,18,172.69624543190002,,,,,,,,,,,,,,,,,,,,,,,,,,,,,,,,,,,,,,,,,,,,,,,,,,,,,,,,,,,,,,,,,,,,,,,,,,,,,,,,,133.0,57.0,57.0,133.0,78.0,78.0,2.1,2.11,-191,274,0,267,202,-255,172.68028235435486,172.68036198616028,172.68325018882751,172.69624543190002,172.84132599830627,172.84132599830627,172.84132599830627,172.84132599830627,172.84132599830627,172.84132599830627,172.84132599830627,177.0402262210846,2,4.339741230010986,None,,,,,,,,,,,,,,,,,,50,2,2025-02-19_14h08.28.236,comp,2024.2.4,57.188295928662974,2025-02-19 14h08.35.665505 -0500,
30,30,0,critical,hdw,35.0,2.1,lower,133.0,57.0,70.0,70.0,57.0,133.0,3,5.568753242492676,None,,,,,0,0,0,0,0,30,30,20,177.0563735961914,,,,,,,,,,,,,,,,,,,,,,,,,,,,,,,,,,,,,,,,,,,,,,,,,,,,,,,,,,,,,,,,,,,,,,,,,,,,,,,,,133.0,57.0,70.0,70.0,57.0,133.0,2.1,2.12,-160,-255,0,-278,198,253,177.0419261455536,177.0420024394989,177.04522371292114,177.0563735961914,177.20698237419128,177.20698237419128,177.20698237419128,177.20698237419128,177.20698237419128,177.20698237419128,177.20698237419128,182.62766408920288,3,5.568753242492676,None,,,,,,,,,,,,,,,,,,50,2,2025-02-19_14h08.28.236,comp,2024.2.4,57.188295928662974,2025-02-19 14h08.35.665505 -0500,
31,31,0,filler_square,None,None,None,None,None,None,None,None,None,None,3,1.5173892974853516,None,,,,,0,0,0,0,0,31,31,177,182.64387822151184,,,,,,,,,,,,,,,,,,,,,,,,,,,,,,,,,,,,,,,,,,,,,,,,,,,,,,,,,,,,,,,,,,,,,,,,,,,,,,,,,113.4802839793951,118.9242780116699,109.53446966885346,118.90352601332143,131.31420898927738,131.31420898927738,2.2,2.21,-215,-275,0,276,221,261,182.62957763671875,182.62965726852417,182.63308954238892,182.64387822151184,182.79237937927246,182.79237937927246,182.79237937927246,182.79237937927246,182.79237937927246,182.79237937927246,182.79237937927246,184.1794011592865,3,1.5173892974853516,None,,,,,,,,,,,,,,,,,,50,2,2025-02-19_14h08.28.236,comp,2024.2.4,57.188295928662974,2025-02-19 14h08.35.665505 -0500,
32,32,0,critical,whd,20.0,1.0,upper,125.0,200.0,200.0,125.0,141.0,141.0,2,6.226309776306152,None,,,,,0,0,0,0,0,32,32,91,184.1991593837738,,,,,,,,,,,,,,,,,,,,,,,,,,,,,,,,,,,,,,,,,,,,,,,,,,,,,,,,,,,,,,,,,,,,,,,,,,,,,,,,,125.0,200.0,200.0,125.0,141.0,141.0,1.0,1.2,-258,-9,0,9,229,-5,184.18088936805725,184.18096327781677,184.18391060829163,184.1991593837738,184.34862518310547,184.34862518310547,184.34862518310547,184.34862518310547,184.34862518310547,184.34862518310547,184.34862518310547,190.42942190170288,2,6.226309776306152,None,,,,,,,,,,,,,,,,,,50,2,2025-02-19_14h08.28.236,comp,2024.2.4,57.188295928662974,2025-02-19 14h08.35.665505 -0500,
33,33,0,filler_square,None,None,None,None,None,None,None,None,None,None,1,1.3739001750946045,None,,,,,0,0,0,0,0,33,33,179,190.4455463886261,,,,,,,,,,,,,,,,,,,,,,,,,,,,,,,,,,,,,,,,,,,,,,,,,,,,,,,,,,,,,,,,,,,,,,,,,,,,,,,,,183.14255904805907,183.14255904805907,115.79904945072872,60.02721352073509,159.00163042407064,102.86695743673147,1.0,1.3,262,-262,480,-270,657,-275,190.43125200271606,190.43133234977722,190.4348270893097,190.4455463886261,190.59451723098755,190.59451723098755,190.59451723098755,190.59451723098755,190.59451723098755,190.59451723098755,190.59451723098755,191.8305380344391,1,1.3739001750946045,None,,,,,,,,,,,,,,,,,,50,2,2025-02-19_14h08.28.236,comp,2024.2.4,57.188295928662974,2025-02-19 14h08.35.665505 -0500,
34,34,0,critical,whd,20.0,4.0,upper,125.0,200.0,200.0,125.0,141.0,141.0,1,5.740392208099365,None,,,,,0,0,0,0,0,34,34,95,191.8455355167389,,,,,,,,,,,,,,,,,,,,,,,,,,,,,,,,,,,,,,,,,,,,,,,,,,,,,,,,,,,,,,,,,,,,,,,,,,,,,,,,,125.0,200.0,200.0,125.0,141.0,141.0,4.0,4.2,-258,13,0,-285,229,-11,191.83216524124146,191.8322937488556,191.8357810974121,191.8455355167389,192.0011010169983,192.0011010169983,192.0011010169983,192.0011010169983,192.0011010169983,192.0011010169983,192.0011010169983,197.58807587623596,1,5.740392208099365,None,,,,,,,,,,,,,,,,,,50,2,2025-02-19_14h08.28.236,comp,2024.2.4,57.188295928662974,2025-02-19 14h08.35.665505 -0500,
35,35,0,critical,whd,20.0,2.1,lower,57.0,133.0,133.0,57.0,78.0,78.0,2,5.796384334564209,None,,,,,0,0,0,0,0,35,35,14,197.60490083694458,,,,,,,,,,,,,,,,,,,,,,,,,,,,,,,,,,,,,,,,,,,,,,,,,,,,,,,,,,,,,,,,,,,,,,,,,,,,,,,,,57.0,133.0,133.0,57.0,78.0,78.0,2.1,2.11,-191,262,0,278,164,-280,197.5897777080536,197.5898563861847,197.5931260585785,197.60490083694458,197.74976420402527,197.74976420402527,197.74976420402527,197.74976420402527,197.74976420402527,197.74976420402527,197.74976420402527,203.41578459739685,2,5.796384334564209,None,,,,,,,,,,,,,,,,,,50,2,2025-02-19_14h08.28.236,comp,2024.2.4,57.188295928662974,2025-02-19 14h08.35.665505 -0500,
36,36,0,filler_random,None,None,None,None,None,None,None,None,None,None,1,2.542639970779419,None,,,,,0,0,0,0,0,36,36,169,203.43582820892334,,,,,,,,,,,,,,,,,,,,,,,,,,,,,,,,,,,,,,,,,,,,,,,,,,,,,,,,,,,,,,,,,,,,,,,,,,,,,,,,,192.9522155712685,174.94261279540504,142.1583329365533,127.53541731956251,132.94742881299643,92.0357102093198,4.0,4.1,-247,-277,0,-13,206,-273,203.41741514205933,203.41751098632812,203.42066073417664,203.43582820892334,203.57385420799255,203.57385420799255,203.57385420799255,203.57385420799255,203.57385420799255,203.57385420799255,203.57385420799255,205.98310208320618,1,2.542639970779419,None,,,,,,,,,,,,,,,,,,50,2,2025-02-19_14h08.28.236,comp,2024.2.4,57.188295928662974,2025-02-19 14h08.35.665505 -0500,
37,37,0,critical,dwh,20.0,1.0,lower,78.0,78.0,57.0,133.0,133.0,57.0,3,3.538318395614624,None,,,,,0,0,0,0,0,37,37,66,205.99938249588013,,,,,,,,,,,,,,,,,,,,,,,,,,,,,,,,,,,,,,,,,,,,,,,,,,,,,,,,,,,,,,,,,,,,,,,,,,,,,,,,,78.0,78.0,57.0,133.0,133.0,57.0,1.0,1.2,-202,-5,0,-9,191,-9,205.98449444770813,205.98457026481628,205.98751544952393,205.99938249588013,206.15043544769287,206.15043544769287,206.15043544769287,206.15043544769287,206.15043544769287,206.15043544769287,206.15043544769287,209.55476641654968,3,3.538318395614624,None,,,,,,,,,,,,,,,,,,50,2,2025-02-19_14h08.28.236,comp,2024.2.4,57.188295928662974,2025-02-19 14h08.35.665505 -0500,
38,38,0,critical,wdh,20.0,2.1,lower,57.0,133.0,78.0,78.0,133.0,57.0,1,6.415316104888916,None,,,,,0,0,0,0,0,38,38,10,209.57009506225586,,,,,,,,,,,,,,,,,,,,,,,,,,,,,,,,,,,,,,,,,,,,,,,,,,,,,,,,,,,,,,,,,,,,,,,,,,,,,,,,,57.0,133.0,78.0,78.0,133.0,57.0,2.1,2.12,-202,-284,0,-282,164,263,209.55647897720337,209.5565664768219,209.55982565879822,209.57009506225586,209.71838068962097,209.71838068962097,209.71838068962097,209.71838068962097,209.71838068962097,209.71838068962097,209.71838068962097,215.98805117607117,1,6.415316104888916,None,,,,,,,,,,,,,,,,,,50,2,2025-02-19_14h08.28.236,comp,2024.2.4,57.188295928662974,2025-02-19 14h08.35.665505 -0500,
39,39,0,filler_square,None,None,None,None,None,None,None,None,None,None,2,4.009191989898682,None,,,,,0,0,0,0,0,39,39,204,216.0082507133484,,,,,,,,,,,,,,,,,,,,,,,,,,,,,,,,,,,,,,,,,,,,,,,,,,,,,,,,,,,,,,,,,,,,,,,,,,,,,,,,,81.13941387964084,82.11037091583894,155.57070901838347,155.57070901838347,66.53649389081664,86.84847601928334,1.0,1.2,-215,12,0,18,217,-14,215.98981046676636,215.9898886680603,215.9927463531494,216.0082507133484,216.146502494812,216.146502494812,216.146502494812,216.146502494812,216.146502494812,216.146502494812,216.146502494812,220.03471994400024,2,4.009191989898682,None,,,,,,,,,,,,,,,,,,50,2,2025-02-19_14h08.28.236,comp,2024.2.4,57.188295928662974,2025-02-19 14h08.35.665505 -0500,
40,40,0,critical,dwh,20.0,2.1,upper,141.0,141.0,125.0,200.0,200.0,125.0,2,4.027929782867432,None,,,,,0,0,0,0,0,40,40,31,220.0542860031128,,,,,,,,,,,,,,,,,,,,,,,,,,,,,,,,,,,,,,,,,,,,,,,,,,,,,,,,,,,,,,,,,,,,,,,,,,,,,,,,,141.0,141.0,125.0,200.0,200.0,125.0,2.1,2.12,-266,-274,0,-257,258,263,220.03621292114258,220.0362892150879,220.039146900177,220.0542860031128,220.18976092338562,220.18976092338562,220.18976092338562,220.18976092338562,220.18976092338562,220.18976092338562,220.18976092338562,224.09050297737122,2,4.027929782867432,None,,,,,,,,,,,,,,,,,,50,2,2025-02-19_14h08.28.236,comp,2024.2.4,57.188295928662974,2025-02-19 14h08.35.665505 -0500,
41,41,0,filler_square,None,None,None,None,None,None,None,None,None,None,2,3.1189026832580566,None,,,,,0,0,0,0,0,41,41,173,224.10642910003662,,,,,,,,,,,,,,,,,,,,,,,,,,,,,,,,,,,,,,,,,,,,,,,,,,,,,,,,,,,,,,,,,,,,,,,,,,,,,,,,,144.63881112248637,103.23788946254818,181.52204456463272,181.52204456463272,120.74926819401412,167.4783468399613,4.0,4.1,-238,-275,0,-5,271,-262,224.09228205680847,224.0923581123352,224.09572410583496,224.10642910003662,224.25678730010986,224.25678730010986,224.25678730010986,224.25678730010986,224.25678730010986,224.25678730010986,224.25678730010986,227.24228620529175,2,3.1189026832580566,None,,,,,,,,,,,,,,,,,,50,2,2025-02-19_14h08.28.236,comp,2024.2.4,57.188295928662974,2025-02-19 14h08.35.665505 -0500,
42,42,0,filler_square,None,None,None,None,None,None,None,None,None,None,1,2.60821270942688,None,,,,,0,0,0,0,0,42,42,196,227.25809693336487,,,,,,,,,,,,,,,,,,,,,,,,,,,,,,,,,,,,,,,,,,,,,,,,,,,,,,,,,,,,,,,,,,,,,,,,,,,,,,,,,129.19236689643378,129.19236689643378,87.7302552710082,70.84356445838311,94.9393973069464,77.15803692274363,1.0,1.3,284,-285,480,-270,650,-276,227.24418807029724,227.24426746368408,227.24772095680237,227.25809693336487,227.40686225891113,227.40686225891113,227.40686225891113,227.40686225891113,227.40686225891113,227.40686225891113,227.40686225891113,229.87737154960632,1,2.60821270942688,None,,,,,,,,,,,,,,,,,,50,2,2025-02-19_14h08.28.236,comp,2024.2.4,57.188295928662974,2025-02-19 14h08.35.665505 -0500,
43,43,0,catch,None,None,None,None,None,None,None,None,None,None,2,1.1801393032073975,None,,,,,0,0,0,0,0,43,43,120,229.89408898353577,,,,,,,,,,,,,,,,,,,,,,,,,,,,,,,,,,,,,,,,,,,,,,,,,,,,,,,,,,,,,,,,,,,,,,,,,,,,,,,,,98,92,167,158,97,93,2.2,2.21,-221,-276,0,258,222,273,229.87962770462036,229.87970995903015,229.88321471214294,229.89408898353577,230.04361963272095,230.04361963272095,230.04361963272095,230.04361963272095,230.04361963272095,230.04361963272095,230.04361963272095,231.0791552066803,2,1.1801393032073975,None,,,,,,,,,,,,,,,,,,50,2,2025-02-19_14h08.28.236,comp,2024.2.4,57.188295928662974,2025-02-19 14h08.35.665505 -0500,
44,44,0,critical,wdh,20.0,2.1,upper,125.0,200.0,141.0,141.0,200.0,125.0,1,6.634303569793701,None,,,,,0,0,0,0,0,44,44,11,231.09572339057922,,,,,,,,,,,,,,,,,,,,,,,,,,,,,,,,,,,,,,,,,,,,,,,,,,,,,,,,,,,,,,,,,,,,,,,,,,,,,,,,,125.0,200.0,141.0,141.0,200.0,125.0,2.1,2.12,-266,-258,0,-290,229,288,231.08078598976135,231.08086776733398,231.08480286598206,231.09572339057922,231.24388456344604,231.24388456344604,231.24388456344604,231.24388456344604,231.24388456344604,231.24388456344604,231.24388456344604,237.74893236160278,1,6.634303569793701,None,,,,,,,,,,,,,,,,,,50,2,2025-02-19_14h08.28.236,comp,2024.2.4,57.188295928662974,2025-02-19 14h08.35.665505 -0500,
45,45,0,critical,whd,35.0,1.0,lower,57.0,133.0,133.0,57.0,70.0,70.0,2,5.62213134765625,None,,,,,0,0,0,0,0,45,45,84,237.76465225219727,,,,,,,,,,,,,,,,,,,,,,,,,,,,,,,,,,,,,,,,,,,,,,,,,,,,,,,,,,,,,,,,,,,,,,,,,,,,,,,,,57.0,133.0,133.0,57.0,70.0,70.0,1.0,1.3,289,-289,480,-266,640,-283,237.75057125091553,237.75064873695374,237.75431418418884,237.76465225219727,237.91515254974365,237.91515254974365,237.91515254974365,237.91515254974365,237.91515254974365,237.91515254974365,237.91515254974365,243.39654803276062,2,5.62213134765625,None,,,,,,,,,,,,,,,,,,50,2,2025-02-19_14h08.28.236,comp,2024.2.4,57.188295928662974,2025-02-19 14h08.35.665505 -0500,
46,46,0,critical,whd,20.0,4.0,lower,57.0,133.0,133.0,57.0,78.0,78.0,3,3.0050971508026123,None,,,,,0,0,0,0,0,46,46,94,243.41225624084473,,,,,,,,,,,,,,,,,,,,,,,,,,,,,,,,,,,,,,,,,,,,,,,,,,,,,,,,,,,,,,,,,,,,,,,,,,,,,,,,,57.0,133.0,133.0,57.0,78.0,78.0,4.0,4.2,-191,-1,0,-258,164,15,243.3980634212494,243.39814043045044,243.40143752098083,243.41225624084473,243.56784319877625,243.56784319877625,243.56784319877625,243.56784319877625,243.56784319877625,243.56784319877625,243.56784319877625,246.42991495132446,3,3.0050971508026123,None,,,,,,,,,,,,,,,,,,50,2,2025-02-19_14h08.28.236,comp,2024.2.4,57.188295928662974,2025-02-19 14h08.35.665505 -0500,
47,47,0,critical,dhw,20.0,2.1,lower,78.0,78.0,133.0,57.0,57.0,133.0,3,3.262361764907837,None,,,,,0,0,0,0,0,47,47,2,246.44609117507935,,,,,,,,,,,,,,,,,,,,,,,,,,,,,,,,,,,,,,,,,,,,,,,,,,,,,,,,,,,,,,,,,,,,,,,,,,,,,,,,,78.0,78.0,133.0,57.0,57.0,133.0,2.1,2.12,-164,-265,0,-259,191,284,246.43138217926025,246.43147444725037,246.4346752166748,246.44609117507935,246.59747838974,246.59747838974,246.59747838974,246.59747838974,246.59747838974,246.59747838974,246.59747838974,249.7139437198639,3,3.262361764907837,None,,,,,,,,,,,,,,,,,,50,2,2025-02-19_14h08.28.236,comp,2024.2.4,57.188295928662974,2025-02-19 14h08.35.665505 -0500,
48,48,0,filler_square,None,None,None,None,None,None,None,None,None,None,3,1.2870526313781738,None,,,,,0,0,0,0,0,48,48,170,249.7302541732788,,,,,,,,,,,,,,,,,,,,,,,,,,,,,,,,,,,,,,,,,,,,,,,,,,,,,,,,,,,,,,,,,,,,,,,,,,,,,,,,,95.53071280675616,57.019118112847906,102.05000617909812,65.38615866436776,103.6409152982924,103.6409152982924,2.1,2.12,-157,-281,0,-288,181,276,249.71576619148254,249.71584510803223,249.71892738342285,249.7302541732788,249.8865840435028,249.8865840435028,249.8865840435028,249.8865840435028,249.8865840435028,249.8865840435028,249.8865840435028,251.0311403274536,3,1.2870526313781738,None,,,,,,,,,,,,,,,,,,50,2,2025-02-19_14h08.28.236,comp,2024.2.4,57.188295928662974,2025-02-19 14h08.35.665505 -0500,
49,49,0,critical,hwd,20.0,4.0,lower,133.0,57.0,57.0,133.0,78.0,78.0,2,3.218947410583496,None,,,,,0,0,0,0,0,49,49,106,251.046781539917,,,,,,,,,,,,,,,,,,,,,,,,,,,,,,,,,,,,,,,,,,,,,,,,,,,,,,,,,,,,,,,,,,,,,,,,,,,,,,,,,133.0,57.0,57.0,133.0,78.0,78.0,4.0,4.2,-191,-18,0,-279,202,-9,251.03265810012817,251.03273129463196,251.03585267066956,251.046781539917,251.19828820228577,251.19828820228577,251.19828820228577,251.19828820228577,251.19828820228577,251.19828820228577,251.19828820228577,254.27249026298523,2,3.218947410583496,None,,,,,,,,,,,,,,,,,,50,2,2025-02-19_14h08.28.236,comp,2024.2.4,57.188295928662974,2025-02-19 14h08.35.665505 -0500,
50,50,0,filler_random,None,None,None,None,None,None,None,None,None,None,2,5.166100978851318,None,,,,,0,0,0,0,0,50,50,154,254.29153680801392,,,,,,,,,,,,,,,,,,,,,,,,,,,,,,,,,,,,,,,,,,,,,,,,,,,,,,,,,,,,,,,,,,,,,,,,,,,,,,,,,68.98460190020288,191.70384654627009,187.9593385935659,76.01519561826709,82.74639447489689,70.97253548141623,4.0,4.1,-230,-259,0,-17,169,-267,254.27422285079956,254.27430415153503,254.27717804908752,254.29153680801392,254.435533285141,254.435533285141,254.435533285141,254.435533285141,254.435533285141,254.435533285141,254.435533285141,259.46912479400635,2,5.166100978851318,None,,,,,,,,,,,,,,,,,,50,2,2025-02-19_14h08.28.236,comp,2024.2.4,57.188295928662974,2025-02-19 14h08.35.665505 -0500,
51,51,0,critical,hwd,35.0,3.0,upper,200.0,125.0,125.0,200.0,127.0,127.0,2,3.843794584274292,None,,,,,0,0,0,0,0,51,51,99,259.4856803417206,,,,,,,,,,,,,,,,,,,,,,,,,,,,,,,,,,,,,,,,,,,,,,,,,,,,,,,,,,,,,,,,,,,,,,,,,,,,,,,,,200.0,125.0,125.0,200.0,127.0,127.0,3.0,3.1,-258,283,0,3,260,-276,259.47070837020874,259.470822095871,259.47489523887634,259.4856803417206,259.6347761154175,259.6347761154175,259.6347761154175,259.6347761154175,259.6347761154175,259.6347761154175,259.6347761154175,263.3402202129364,2,3.843794584274292,None,,,,,,,,,,,,,,,,,,50,2,2025-02-19_14h08.28.236,comp,2024.2.4,57.188295928662974,2025-02-19 14h08.35.665505 -0500,
52,52,0,critical,hdw,20.0,4.0,upper,200.0,125.0,141.0,141.0,125.0,200.0,3,3.814095973968506,None,,,,,0,0,0,0,0,52,52,119,263.3563919067383,,,,,,,,,,,,,,,,,,,,,,,,,,,,,,,,,,,,,,,,,,,,,,,,,,,,,,,,,,,,,,,,,,,,,,,,,,,,,,,,,200.0,125.0,141.0,141.0,125.0,200.0,4.0,4.2,-229,7,0,-270,266,-18,263.34184288978577,263.3419213294983,263.34477496147156,263.3563919067383,263.50777411460876,263.50777411460876,263.50777411460876,263.50777411460876,263.50777411460876,263.50777411460876,263.50777411460876,267.17515683174133,3,3.814095973968506,None,,,,,,,,,,,,,,,,,,50,2,2025-02-19_14h08.28.236,comp,2024.2.4,57.188295928662974,2025-02-19 14h08.35.665505 -0500,
53,53,0,filler_random,None,None,None,None,None,None,None,None,None,None,2,2.1940643787384033,None,,,,,0,0,0,0,0,53,53,156,267.1914050579071,,,,,,,,,,,,,,,,,,,,,,,,,,,,,,,,,,,,,,,,,,,,,,,,,,,,,,,,,,,,,,,,,,,,,,,,,,,,,,,,,139.54881956915614,113.09323099126317,186.6311276706094,191.24515314172416,164.95201936772983,124.02636433235314,3.0,3.2,-248,-287,0,2,254,283,267.1770806312561,267.1771605014801,267.18042397499084,267.1914050579071,267.33732509613037,267.33732509613037,267.33732509613037,267.33732509613037,267.33732509613037,267.33732509613037,267.33732509613037,269.389036655426,2,2.1940643787384033,None,,,,,,,,,,,,,,,,,,50,2,2025-02-19_14h08.28.236,comp,2024.2.4,57.188295928662974,2025-02-19 14h08.35.665505 -0500,
54,54,0,critical,hdw,20.0,2.1,upper,200.0,125.0,141.0,141.0,125.0,200.0,3,3.8907597064971924,None,,,,,0,0,0,0,0,54,54,47,269.4072816371918,,,,,,,,,,,,,,,,,,,,,,,,,,,,,,,,,,,,,,,,,,,,,,,,,,,,,,,,,,,,,,,,,,,,,,,,,,,,,,,,,200.0,125.0,141.0,141.0,125.0,200.0,2.1,2.11,-229,278,0,282,266,-266,269.3906168937683,269.3907494544983,269.39378356933594,269.4072816371918,269.55365324020386,269.55365324020386,269.55365324020386,269.55365324020386,269.55365324020386,269.55365324020386,269.55365324020386,273.30742287635803,3,3.8907597064971924,None,,,,,,,,,,,,,,,,,,50,2,2025-02-19_14h08.28.236,comp,2024.2.4,57.188295928662974,2025-02-19 14h08.35.665505 -0500,
55,55,0,filler_square,None,None,None,None,None,None,None,None,None,None,1,4.214036703109741,None,,,,,0,0,0,0,0,55,55,192,273.3234312534332,,,,,,,,,,,,,,,,,,,,,,,,,,,,,,,,,,,,,,,,,,,,,,,,,,,,,,,,,,,,,,,,,,,,,,,,,,,,,,,,,103.45414852901109,103.45414852901109,97.43335652350542,87.7781427799664,66.41299379326325,70.57933538165243,3.0,3.1,-192,260,0,-16,175,-263,273.3095316886902,273.3096127510071,273.3127136230469,273.3234312534332,273.46932196617126,273.46932196617126,273.46932196617126,273.46932196617126,273.46932196617126,273.46932196617126,273.46932196617126,277.5398190021515,1,4.214036703109741,None,,,,,,,,,,,,,,,,,,50,2,2025-02-19_14h08.28.236,comp,2024.2.4,57.188295928662974,2025-02-19 14h08.35.665505 -0500,
56,56,0,filler_random,None,None,None,None,None,None,None,None,None,None,3,5.784028768539429,None,,,,,0,0,0,0,0,56,56,131,277.56147861480713,,,,,,,,,,,,,,,,,,,,,,,,,,,,,,,,,,,,,,,,,,,,,,,,,,,,,,,,,,,,,,,,,,,,,,,,,,,,,,,,,120.74889240608934,95.90788305994823,114.01374611137743,148.84440421459607,85.42812851900874,190.1994038883678,2.2,2.21,-218,-252,0,250,266,272,277.54152965545654,277.5416097640991,277.54481506347656,277.56147861480713,277.7080056667328,277.7080056667328,277.7080056667328,277.7080056667328,277.7080056667328,277.7080056667328,277.7080056667328,283.3595652580261,3,5.784028768539429,None,,,,,,,,,,,,,,,,,,50,2,2025-02-19_14h08.28.236,comp,2024.2.4,57.188295928662974,2025-02-19 14h08.35.665505 -0500,
57,57,0,critical,whd,35.0,2.1,lower,57.0,133.0,133.0,57.0,70.0,70.0,1,5.026108980178833,None,,,,,0,0,0,0,0,57,57,36,283.37530303001404,,,,,,,,,,,,,,,,,,,,,,,,,,,,,,,,,,,,,,,,,,,,,,,,,,,,,,,,,,,,,,,,,,,,,,,,,,,,,,,,,57.0,133.0,133.0,57.0,70.0,70.0,2.1,2.11,-191,272,0,282,160,-267,283.3611705303192,283.361289024353,283.3649916648865,283.37530303001404,283.52253127098083,283.52253127098083,283.52253127098083,283.52253127098083,283.52253127098083,283.52253127098083,283.52253127098083,288.4171257019043,1,5.026108980178833,None,,,,,,,,,,,,,,,,,,50,2,2025-02-19_14h08.28.236,comp,2024.2.4,57.188295928662974,2025-02-19 14h08.35.665505 -0500,
58,58,0,filler_random,None,None,None,None,None,None,None,None,None,None,1,2.873307943344116,None,,,,,0,0,0,0,0,58,58,159,288.43283247947693,,,,,,,,,,,,,,,,,,,,,,,,,,,,,,,,,,,,,,,,,,,,,,,,,,,,,,,,,,,,,,,,,,,,,,,,,,,,,,,,,168.74247063056384,149.00268044880625,76.36900572655529,145.48408046045074,83.76925146230877,150.25086932969452,3.0,3.1,-243,287,0,19,244,-287,288.4188828468323,288.41896319389343,288.42185258865356,288.43283247947693,288.5830121040344,288.5830121040344,288.5830121040344,288.5830121040344,288.5830121040344,288.5830121040344,288.5830121040344,291.3113660812378,1,2.873307943344116,None,,,,,,,,,,,,,,,,,,50,2,2025-02-19_14h08.28.236,comp,2024.2.4,57.188295928662974,2025-02-19 14h08.35.665505 -0500,
59,59,0,critical,hwd,35.0,2.1,upper,200.0,125.0,125.0,200.0,127.0,127.0,1,3.5883026123046875,None,,,,,0,0,0,0,0,59,59,17,291.3258271217346,,,,,,,,,,,,,,,,,,,,,,,,,,,,,,,,,,,,,,,,,,,,,,,,,,,,,,,,,,,,,,,,,,,,,,,,,,,,,,,,,200.0,125.0,125.0,200.0,127.0,127.0,2.1,2.11,-258,255,0,285,260,-252,291.31294417381287,291.31302094459534,291.3163003921509,291.3258271217346,291.48129653930664,291.48129653930664,291.48129653930664,291.48129653930664,291.48129653930664,291.48129653930664,291.48129653930664,294.9214367866516,1,3.5883026123046875,None,,,,,,,,,,,,,,,,,,50,2,2025-02-19_14h08.28.236,comp,2024.2.4,57.188295928662974,2025-02-19 14h08.35.665505 -0500,
60,60,0,critical,hwd,20.0,2.1,upper,200.0,125.0,125.0,200.0,141.0,141.0,2,6.3429036140441895,None,,,,,0,0,0,0,0,60,60,19,294.93907403945923,,,,,,,,,,,,,,,,,,,,,,,,,,,,,,,,,,,,,,,,,,,,,,,,,,,,,,,,,,,,,,,,,,,,,,,,,,,,,,,,,200.0,125.0,125.0,200.0,141.0,141.0,2.1,2.12,-258,-254,0,-253,266,255,294.9229805469513,294.9230625629425,294.9259672164917,294.93907403945923,295.0789382457733,295.0789382457733,295.0789382457733,295.0789382457733,295.0789382457733,295.0789382457733,295.0789382457733,301.28797245025635,2,6.3429036140441895,None,,,,,,,,,,,,,,,,,,50,2,2025-02-19_14h08.28.236,comp,2024.2.4,57.188295928662974,2025-02-19 14h08.35.665505 -0500,
61,61,0,critical,dhw,20.0,3.0,upper,141.0,141.0,200.0,125.0,125.0,200.0,3,4.039025068283081,None,,,,,0,0,0,0,0,61,61,57,301.3069143295288,,,,,,,,,,,,,,,,,,,,,,,,,,,,,,,,,,,,,,,,,,,,,,,,,,,,,,,,,,,,,,,,,,,,,,,,,,,,,,,,,141.0,141.0,200.0,125.0,125.0,200.0,3.0,3.2,-229,-277,0,16,258,273,301.28959345817566,301.2896957397461,301.29305624961853,301.3069143295288,301.4445610046387,301.4445610046387,301.4445610046387,301.4445610046387,301.4445610046387,301.4445610046387,301.4445610046387,305.34799909591675,3,4.039025068283081,None,,,,,,,,,,,,,,,,,,50,2,2025-02-19_14h08.28.236,comp,2024.2.4,57.188295928662974,2025-02-19 14h08.35.665505 -0500,
62,62,0,critical,hdw,20.0,2.1,upper,200.0,125.0,141.0,141.0,125.0,200.0,1,3.868645429611206,None,,,,,0,0,0,0,0,62,62,23,305.36482286453247,,,,,,,,,,,,,,,,,,,,,,,,,,,,,,,,,,,,,,,,,,,,,,,,,,,,,,,,,,,,,,,,,,,,,,,,,,,,,,,,,200.0,125.0,141.0,141.0,125.0,200.0,2.1,2.12,-229,-280,0,-269,266,274,305.3496370315552,305.34975481033325,305.3531105518341,305.36482286453247,305.51754879951477,305.51754879951477,305.51754879951477,305.51754879951477,305.51754879951477,305.51754879951477,305.51754879951477,309.2500808238983,1,3.868645429611206,None,,,,,,,,,,,,,,,,,,50,2,2025-02-19_14h08.28.236,comp,2024.2.4,57.188295928662974,2025-02-19 14h08.35.665505 -0500,
63,63,0,critical,whd,20.0,1.0,lower,57.0,133.0,133.0,57.0,78.0,78.0,2,5.200199604034424,None,,,,,0,0,0,0,0,63,63,90,309.26588439941406,,,,,,,,,,,,,,,,,,,,,,,,,,,,,,,,,,,,,,,,,,,,,,,,,,,,,,,,,,,,,,,,,,,,,,,,,,,,,,,,,57.0,133.0,133.0,57.0,78.0,78.0,1.0,1.2,-191,-15,0,-13,164,15,309.2517514228821,309.2518844604492,309.2555618286133,309.26588439941406,309.4146897792816,309.4146897792816,309.4146897792816,309.4146897792816,309.4146897792816,309.4146897792816,309.4146897792816,314.46877098083496,2,5.200199604034424,None,,,,,,,,,,,,,,,,,,50,2,2025-02-19_14h08.28.236,comp,2024.2.4,57.188295928662974,2025-02-19 14h08.35.665505 -0500,
64,64,0,critical,dhw,35.0,1.0,upper,127.0,127.0,200.0,125.0,125.0,200.0,2,3.0940046310424805,None,,,,,0,0,0,0,0,64,64,49,314.4846889972687,,,,,,,,,,,,,,,,,,,,,,,,,,,,,,,,,,,,,,,,,,,,,,,,,,,,,,,,,,,,,,,,,,,,,,,,,,,,,,,,,127.0,127.0,200.0,125.0,125.0,200.0,1.0,1.2,-222,8,0,-18,258,-14,314.4703347682953,314.47041273117065,314.47389912605286,314.4846889972687,314.631947517395,314.631947517395,314.631947517395,314.631947517395,314.631947517395,314.631947517395,314.631947517395,317.5810387134552,2,3.0940046310424805,None,,,,,,,,,,,,,,,,,,50,2,2025-02-19_14h08.28.236,comp,2024.2.4,57.188295928662974,2025-02-19 14h08.35.665505 -0500,
65,65,0,filler_random,None,None,None,None,None,None,None,None,None,None,1,7.175727367401123,None,,,,,0,0,0,0,0,65,65,157,317.6017827987671,,,,,,,,,,,,,,,,,,,,,,,,,,,,,,,,,,,,,,,,,,,,,,,,,,,,,,,,,,,,,,,,,,,,,,,,,,,,,,,,,110.80558501104159,117.79151439284678,145.0980933119545,96.97132726160599,134.10169310853843,80.92672996970799,2.2,2.22,-203,279,0,-289,185,-280,317.58297324180603,317.58305406570435,317.58606123924255,317.6017827987671,317.7379684448242,317.7379684448242,317.7379684448242,317.7379684448242,317.7379684448242,317.7379684448242,317.7379684448242,324.7932162284851,1,7.175727367401123,None,,,,,,,,,,,,,,,,,,50,2,2025-02-19_14h08.28.236,comp,2024.2.4,57.188295928662974,2025-02-19 14h08.35.665505 -0500,
66,66,0,filler_random,None,None,None,None,None,None,None,None,None,None,3,2.080465316772461,None,,,,,0,0,0,0,0,66,66,143,324.809041261673,,,,,,,,,,,,,,,,,,,,,,,,,,,,,,,,,,,,,,,,,,,,,,,,,,,,,,,,,,,,,,,,,,,,,,,,,,,,,,,,,90.07738613500345,73.9415162407275,58.32794996040432,93.12802895720407,123.33476789865514,169.89563559525905,1.0,1.1,-660,278,-480,288,-252,281,324.7949709892273,324.79504895210266,324.7979345321655,324.809041261673,324.95836353302,324.95836353302,324.95836353302,324.95836353302,324.95836353302,324.95836353302,324.95836353302,326.9060115814209,3,2.080465316772461,None,,,,,,,,,,,,,,,,,,50,2,2025-02-19_14h08.28.236,comp,2024.2.4,57.188295928662974,2025-02-19 14h08.35.665505 -0500,
67,67,0,critical,hdw,35.0,1.0,upper,200.0,125.0,127.0,127.0,125.0,200.0,1,8.733891010284424,None,,,,,0,0,0,0,0,67,67,109,326.92377758026123,,,,,,,,,,,,,,,,,,,,,,,,,,,,,,,,,,,,,,,,,,,,,,,,,,,,,,,,,,,,,,,,,,,,,,,,,,,,,,,,,200.0,125.0,127.0,127.0,125.0,200.0,1.0,1.3,258,-278,480,-252,740,-275,326.9075839519501,326.9076597690582,326.91101455688477,326.92377758026123,327.0798988342285,327.0798988342285,327.0798988342285,327.0798988342285,327.0798988342285,327.0798988342285,327.0798988342285,335.6740872859955,1,8.733891010284424,None,,,,,,,,,,,,,,,,,,50,2,2025-02-19_14h08.28.236,comp,2024.2.4,57.188295928662974,2025-02-19 14h08.35.665505 -0500,
68,68,0,critical,dwh,20.0,4.0,upper,141.0,141.0,125.0,200.0,200.0,125.0,3,5.343906402587891,None,,,,,0,0,0,0,0,68,68,71,335.6896550655365,,,,,,,,,,,,,,,,,,,,,,,,,,,,,,,,,,,,,,,,,,,,,,,,,,,,,,,,,,,,,,,,,,,,,,,,,,,,,,,,,141.0,141.0,125.0,200.0,200.0,125.0,4.0,4.1,-266,-276,0,11,258,-270,335.6756703853607,335.6757469177246,335.67899441719055,335.6896550655365,335.84433937072754,335.84433937072754,335.84433937072754,335.84433937072754,335.84433937072754,335.84433937072754,335.84433937072754,341.04540491104126,3,5.343906402587891,None,,,,,,,,,,,,,,,,,,50,2,2025-02-19_14h08.28.236,comp,2024.2.4,57.188295928662974,2025-02-19 14h08.35.665505 -0500,
69,69,0,critical,whd,20.0,2.1,upper,125.0,200.0,200.0,125.0,141.0,141.0,2,7.565027713775635,None,,,,,0,0,0,0,0,69,69,39,341.06088042259216,,,,,,,,,,,,,,,,,,,,,,,,,,,,,,,,,,,,,,,,,,,,,,,,,,,,,,,,,,,,,,,,,,,,,,,,,,,,,,,,,125.0,200.0,200.0,125.0,141.0,141.0,2.1,2.12,-258,-286,0,-288,229,262,341.04705357551575,341.04713916778564,341.05016684532166,341.06088042259216,341.21324372291565,341.21324372291565,341.21324372291565,341.21324372291565,341.21324372291565,341.21324372291565,341.21324372291565,348.6322355270386,2,7.565027713775635,None,,,,,,,,,,,,,,,,,,50,2,2025-02-19_14h08.28.236,comp,2024.2.4,57.188295928662974,2025-02-19 14h08.35.665505 -0500,
70,70,0,filler_square,None,None,None,None,None,None,None,None,None,None,3,1.5976989269256592,None,,,,,0,0,0,0,0,70,70,183,348.6518614292145,,,,,,,,,,,,,,,,,,,,,,,,,,,,,,,,,,,,,,,,,,,,,,,,,,,,,,,,,,,,,,,,,,,,,,,,,,,,,,,,,68.58832416910155,59.65429360673774,61.21418172538004,58.58334439510993,74.59627862107956,74.59627862107956,2.1,2.12,-155,-258,0,-252,163,259,348.6342227458954,348.634352684021,348.63764119148254,348.6518614292145,348.79691457748413,348.79691457748413,348.79691457748413,348.79691457748413,348.79691457748413,348.79691457748413,348.79691457748413,350.26240253448486,3,1.5976989269256592,None,,,,,,,,,,,,,,,,,,50,2,2025-02-19_14h08.28.236,comp,2024.2.4,57.188295928662974,2025-02-19 14h08.35.665505 -0500,
71,71,0,filler_square,None,None,None,None,None,None,None,None,None,None,1,1.8351356983184814,None,,,,,0,0,0,0,0,71,71,180,350.2785186767578,,,,,,,,,,,,,,,,,,,,,,,,,,,,,,,,,,,,,,,,,,,,,,,,,,,,,,,,,,,,,,,,,,,,,,,,,,,,,,,,,140.56327276951794,140.56327276951794,118.22924624482627,128.7673867147875,73.97853122587173,95.13828241884818,3.0,3.2,-231,-275,0,-6,208,290,350.26410961151123,350.26418447494507,350.26730585098267,350.2785186767578,350.4299955368042,350.4299955368042,350.4299955368042,350.4299955368042,350.4299955368042,350.4299955368042,350.4299955368042,352.1313693523407,1,1.8351356983184814,None,,,,,,,,,,,,,,,,,,50,2,2025-02-19_14h08.28.236,comp,2024.2.4,57.188295928662974,2025-02-19 14h08.35.665505 -0500,
72,72,0,critical,hdw,20.0,3.0,lower,133.0,57.0,78.0,78.0,57.0,133.0,3,5.3189332485198975,None,,,,,0,0,0,0,0,72,72,116,352.1466295719147,,,,,,,,,,,,,,,,,,,,,,,,,,,,,,,,,,,,,,,,,,,,,,,,,,,,,,,,,,,,,,,,,,,,,,,,,,,,,,,,,133.0,57.0,78.0,78.0,57.0,133.0,3.0,3.1,-164,288,0,5,202,-285,352.13294100761414,352.133017539978,352.13631868362427,352.1466295719147,352.2893953323364,352.2893953323364,352.2893953323364,352.2893953323364,352.2893953323364,352.2893953323364,352.2893953323364,357.48187708854675,3,5.3189332485198975,None,,,,,,,,,,,,,,,,,,50,2,2025-02-19_14h08.28.236,comp,2024.2.4,57.188295928662974,2025-02-19 14h08.35.665505 -0500,
73,73,0,critical,whd,35.0,2.1,lower,57.0,133.0,133.0,57.0,70.0,70.0,1,3.2712903022766113,None,,,,,0,0,0,0,0,73,73,12,357.4983847141266,,,,,,,,,,,,,,,,,,,,,,,,,,,,,,,,,,,,,,,,,,,,,,,,,,,,,,,,,,,,,,,,,,,,,,,,,,,,,,,,,57.0,133.0,133.0,57.0,70.0,70.0,2.1,2.11,-191,253,0,282,160,-268,357.4835455417633,357.4836525917053,357.4871208667755,357.4983847141266,357.64972448349,357.64972448349,357.64972448349,357.64972448349,357.64972448349,357.64972448349,357.64972448349,360.7823371887207,1,3.2712903022766113,None,,,,,,,,,,,,,,,,,,50,2,2025-02-19_14h08.28.236,comp,2024.2.4,57.188295928662974,2025-02-19 14h08.35.665505 -0500,
74,74,0,critical,dwh,20.0,2.1,lower,78.0,78.0,57.0,133.0,133.0,57.0,2,3.7764782905578613,None,,,,,0,0,0,0,0,74,74,6,360.80159854888916,,,,,,,,,,,,,,,,,,,,,,,,,,,,,,,,,,,,,,,,,,,,,,,,,,,,,,,,,,,,,,,,,,,,,,,,,,,,,,,,,78.0,78.0,57.0,133.0,133.0,57.0,2.1,2.11,-202,288,0,280,191,-285,360.7838201522827,360.78389501571655,360.78680300712585,360.80159854888916,360.95021057128906,360.95021057128906,360.95021057128906,360.95021057128906,360.95021057128906,360.95021057128906,360.95021057128906,364.5853886604309,2,3.7764782905578613,None,,,,,,,,,,,,,,,,,,50,2,2025-02-19_14h08.28.236,comp,2024.2.4,57.188295928662974,2025-02-19 14h08.35.665505 -0500,
75,75,0,filler_square,None,None,None,None,None,None,None,None,None,None,2,2.0617904663085938,None,,,,,0,0,0,0,0,75,75,175,364.60376024246216,,,,,,,,,,,,,,,,,,,,,,,,,,,,,,,,,,,,,,,,,,,,,,,,,,,,,,,,,,,,,,,,,,,,,,,,,,,,,,,,,118.670943751889,90.57386590926029,134.82259912099082,134.82259912099082,103.04144898483884,109.99308359701052,2.2,2.21,-209,-278,0,287,218,272,364.58709239959717,364.5871813297272,364.5902509689331,364.60376024246216,364.75100803375244,364.75100803375244,364.75100803375244,364.75100803375244,364.75100803375244,364.75100803375244,364.75100803375244,366.66899132728577,2,2.0617904663085938,None,,,,,,,,,,,,,,,,,,50,2,2025-02-19_14h08.28.236,comp,2024.2.4,57.188295928662974,2025-02-19 14h08.35.665505 -0500,
76,76,0,filler_random,None,None,None,None,None,None,None,None,None,None,1,3.196113109588623,None,,,,,0,0,0,0,0,76,76,155,366.68562626838684,,,,,,,,,,,,,,,,,,,,,,,,,,,,,,,,,,,,,,,,,,,,,,,,,,,,,,,,,,,,,,,,,,,,,,,,,,,,,,,,,130.66661428268225,158.36746646225123,176.19163470003429,74.18455807330676,94.20840741728381,184.67958926619144,4.0,4.1,-212,-281,0,3,225,-264,366.6709158420563,366.6709966659546,366.67493724823,366.68562626838684,366.83402132987976,366.83402132987976,366.83402132987976,366.83402132987976,366.83402132987976,366.83402132987976,366.83402132987976,369.88680386543274,1,3.196113109588623,None,,,,,,,,,,,,,,,,,,50,2,2025-02-19_14h08.28.236,comp,2024.2.4,57.188295928662974,2025-02-19 14h08.35.665505 -0500,
77,77,0,filler_random,None,None,None,None,None,None,None,None,None,None,3,1.6114916801452637,None,,,,,0,0,0,0,0,77,77,164,369.90264797210693,,,,,,,,,,,,,,,,,,,,,,,,,,,,,,,,,,,,,,,,,,,,,,,,,,,,,,,,,,,,,,,,,,,,,,,,,,,,,,,,,72.56260264856168,173.59438785358685,134.55366261193717,179.51441594254896,193.6728247038565,163.1844521728387,4.0,4.1,-273,-269,0,18,267,-264,369.8884389400482,369.8885426521301,369.8918833732605,369.90264797210693,370.051561832428,370.051561832428,370.051561832428,370.051561832428,370.051561832428,370.051561832428,370.051561832428,371.52482080459595,3,1.6114916801452637,None,,,,,,,,,,,,,,,,,,50,2,2025-02-19_14h08.28.236,comp,2024.2.4,57.188295928662974,2025-02-19 14h08.35.665505 -0500,
78,78,0,critical,hwd,35.0,4.0,upper,200.0,125.0,125.0,200.0,127.0,127.0,1,1.2753958702087402,None,,,,,0,0,0,0,0,78,78,101,371.54243683815,,,,,,,,,,,,,,,,,,,,,,,,,,,,,,,,,,,,,,,,,,,,,,,,,,,,,,,,,,,,,,,,,,,,,,,,,,,,,,,,,200.0,125.0,125.0,200.0,127.0,127.0,4.0,4.1,-258,-284,0,6,260,-265,371.5263423919678,371.5264182090759,371.52932024002075,371.54243683815,371.6875641345978,371.6875641345978,371.6875641345978,371.6875641345978,371.6875641345978,371.6875641345978,371.6875641345978,372.824107170105,1,1.2753958702087402,None,,,,,,,,,,,,,,,,,,50,2,2025-02-19_14h08.28.236,comp,2024.2.4,57.188295928662974,2025-02-19 14h08.35.665505 -0500,
79,79,0,critical,dwh,35.0,2.1,lower,70.0,70.0,57.0,133.0,133.0,57.0,2,2.4053380489349365,None,,,,,0,0,0,0,0,79,79,4,372.8448169231415,,,,,,,,,,,,,,,,,,,,,,,,,,,,,,,,,,,,,,,,,,,,,,,,,,,,,,,,,,,,,,,,,,,,,,,,,,,,,,,,,70.0,70.0,57.0,133.0,133.0,57.0,2.1,2.12,-198,-284,0,-262,191,252,372.82573342323303,372.8258099555969,372.8291552066803,372.8448169231415,372.988032579422,372.988032579422,372.988032579422,372.988032579422,372.988032579422,372.988032579422,372.988032579422,375.25700306892395,2,2.4053380489349365,None,,,,,,,,,,,,,,,,,,50,2,2025-02-19_14h08.28.236,comp,2024.2.4,57.188295928662974,2025-02-19 14h08.35.665505 -0500,
80,80,0,critical,dhw,35.0,2.1,upper,127.0,127.0,200.0,125.0,125.0,200.0,2,3.0294251441955566,None,,,,,0,0,0,0,0,80,80,1,375.27618193626404,,,,,,,,,,,,,,,,,,,,,,,,,,,,,,,,,,,,,,,,,,,,,,,,,,,,,,,,,,,,,,,,,,,,,,,,,,,,,,,,,127.0,127.0,200.0,125.0,125.0,200.0,2.1,2.11,-222,262,0,277,258,-259,375.25878524780273,375.25892400741577,375.2623767852783,375.27618193626404,375.4214789867401,375.4214789867401,375.4214789867401,375.4214789867401,375.4214789867401,375.4214789867401,375.4214789867401,378.3219201564789,2,3.0294251441955566,None,,,,,,,,,,,,,,,,,,50,2,2025-02-19_14h08.28.236,comp,2024.2.4,57.188295928662974,2025-02-19 14h08.35.665505 -0500,
81,81,0,critical,dwh,35.0,4.0,upper,127.0,127.0,125.0,200.0,200.0,125.0,2,4.0724077224731445,None,,,,,0,0,0,0,0,81,81,65,378.33725118637085,,,,,,,,,,,,,,,,,,,,,,,,,,,,,,,,,,,,,,,,,,,,,,,,,,,,,,,,,,,,,,,,,,,,,,,,,,,,,,,,,127.0,127.0,125.0,200.0,200.0,125.0,4.0,4.2,-260,12,0,-252,258,16,378.32347226142883,378.3235557079315,378.3269956111908,378.33725118637085,378.4894070625305,378.4894070625305,378.4894070625305,378.4894070625305,378.4894070625305,378.4894070625305,378.4894070625305,382.42498302459717,2,4.0724077224731445,None,,,,,,,,,,,,,,,,,,50,2,2025-02-19_14h08.28.236,comp,2024.2.4,57.188295928662974,2025-02-19 14h08.35.665505 -0500,
82,82,0,critical,wdh,20.0,1.0,lower,57.0,133.0,78.0,78.0,133.0,57.0,3,5.881032705307007,None,,,,,0,0,0,0,0,82,82,78,382.44058299064636,,,,,,,,,,,,,,,,,,,,,,,,,,,,,,,,,,,,,,,,,,,,,,,,,,,,,,,,,,,,,,,,,,,,,,,,,,,,,,,,,57.0,133.0,78.0,78.0,133.0,57.0,1.0,1.1,-682,270,-480,268,-316,278,382.42669558525085,382.42677760124207,382.4296820163727,382.44058299064636,382.5888123512268,382.5888123512268,382.5888123512268,382.5888123512268,382.5888123512268,382.5888123512268,382.5888123512268,388.32508182525635,3,5.881032705307007,None,,,,,,,,,,,,,,,,,,50,2,2025-02-19_14h08.28.236,comp,2024.2.4,57.188295928662974,2025-02-19 14h08.35.665505 -0500,
83,83,0,filler_random,None,None,None,None,None,None,None,None,None,None,3,4.540471792221069,None,,,,,0,0,0,0,0,83,83,162,388.3412127494812,,,,,,,,,,,,,,,,,,,,,,,,,,,,,,,,,,,,,,,,,,,,,,,,,,,,,,,,,,,,,,,,,,,,,,,,,,,,,,,,,59.009670652341654,183.63895781951894,79.11274877600226,153.98698993562468,144.3166223044101,80.5735020724717,1.0,1.2,-265,0,0,20,213,-6,388.32683539390564,388.32696986198425,388.33034348487854,388.3412127494812,388.4955551624298,388.4955551624298,388.4955551624298,388.4955551624298,388.4955551624298,388.4955551624298,388.4955551624298,392.89491081237793,3,4.540471792221069,None,,,,,,,,,,,,,,,,,,50,2,2025-02-19_14h08.28.236,comp,2024.2.4,57.188295928662974,2025-02-19 14h08.35.665505 -0500,
84,84,0,filler_square,None,None,None,None,None,None,None,None,None,None,1,1.1066303253173828,None,,,,,0,0,0,0,0,84,84,193,392.91188621520996,,,,,,,,,,,,,,,,,,,,,,,,,,,,,,,,,,,,,,,,,,,,,,,,,,,,,,,,,,,,,,,,,,,,,,,,,,,,,,,,,106.44359535809497,106.44359535809497,80.62633268490862,80.5541548583903,72.79203166675265,87.88602366602476,1.0,1.2,-189,-16,0,-16,180,8,392.89709210395813,392.89717507362366,392.9008960723877,392.91188621520996,393.0605089664459,393.0605089664459,393.0605089664459,393.0605089664459,393.0605089664459,393.0605089664459,393.0605089664459,394.02513360977173,1,1.1066303253173828,None,,,,,,,,,,,,,,,,,,50,2,2025-02-19_14h08.28.236,comp,2024.2.4,57.188295928662974,2025-02-19 14h08.35.665505 -0500,
85,85,0,filler_random,None,None,None,None,None,None,None,None,None,None,2,1.7594435214996338,None,,,,,0,0,0,0,0,85,85,144,394.0424997806549,,,,,,,,,,,,,,,,,,,,,,,,,,,,,,,,,,,,,,,,,,,,,,,,,,,,,,,,,,,,,,,,,,,,,,,,,,,,,,,,,99.63004477974319,89.22794483711968,173.0913882186606,137.68693389600548,156.34999873583092,114.81587858085993,3.0,3.1,-209,254,0,14,222,-281,394.02698969841003,394.02710008621216,394.03047156333923,394.0424997806549,394.1911060810089,394.1911060810089,394.1911060810089,394.1911060810089,394.1911060810089,394.1911060810089,394.1911060810089,395.8195798397064,2,1.7594435214996338,None,,,,,,,,,,,,,,,,,,50,2,2025-02-19_14h08.28.236,comp,2024.2.4,57.188295928662974,2025-02-19 14h08.35.665505 -0500,
86,86,0,critical,hdw,35.0,4.0,upper,200.0,125.0,127.0,127.0,125.0,200.0,3,2.141789197921753,None,,,,,0,0,0,0,0,86,86,113,395.835932970047,,,,,,,,,,,,,,,,,,,,,,,,,,,,,,,,,,,,,,,,,,,,,,,,,,,,,,,,,,,,,,,,,,,,,,,,,,,,,,,,,200.0,125.0,127.0,127.0,125.0,200.0,4.0,4.1,-222,-279,0,-14,260,-290,395.82120871543884,395.82133769989014,395.82463669776917,395.835932970047,395.97833824157715,395.97833824157715,395.97833824157715,395.97833824157715,395.97833824157715,395.97833824157715,395.97833824157715,397.99344635009766,3,2.141789197921753,None,,,,,,,,,,,,,,,,,,50,2,2025-02-19_14h08.28.236,comp,2024.2.4,57.188295928662974,2025-02-19 14h08.35.665505 -0500,
87,87,0,critical,hwd,20.0,1.0,lower,133.0,57.0,57.0,133.0,78.0,78.0,1,6.868318319320679,None,,,,,0,0,0,0,0,87,87,102,398.0135827064514,,,,,,,,,,,,,,,,,,,,,,,,,,,,,,,,,,,,,,,,,,,,,,,,,,,,,,,,,,,,,,,,,,,,,,,,,,,,,,,,,133.0,57.0,57.0,133.0,78.0,78.0,1.0,1.2,-191,-2,0,-6,202,-1,397.99495124816895,397.9950313568115,397.9980082511902,398.0135827064514,398.16182923316956,398.16182923316956,398.16182923316956,398.16182923316956,398.16182923316956,398.16182923316956,398.16182923316956,404.884241104126,1,6.868318319320679,None,,,,,,,,,,,,,,,,,,50,2,2025-02-19_14h08.28.236,comp,2024.2.4,57.188295928662974,2025-02-19 14h08.35.665505 -0500,
88,88,0,filler_random,None,None,None,None,None,None,None,None,None,None,1,2.3949856758117676,None,,,,,0,0,0,0,0,88,88,163,404.9027500152588,,,,,,,,,,,,,,,,,,,,,,,,,,,,,,,,,,,,,,,,,,,,,,,,,,,,,,,,,,,,,,,,,,,,,,,,,,,,,,,,,82.12306933037716,129.43811466011687,73.44368527268192,123.67626003206887,62.70015361404029,110.30812071408224,4.0,4.2,-223,-17,0,-264,213,14,404.88619446754456,404.8862760066986,404.8895070552826,404.9027500152588,405.04659032821655,405.04659032821655,405.04659032821655,405.04659032821655,405.04659032821655,405.04659032821655,405.04659032821655,407.3139154911041,1,2.3949856758117676,None,,,,,,,,,,,,,,,,,,50,2,2025-02-19_14h08.28.236,comp,2024.2.4,57.188295928662974,2025-02-19 14h08.35.665505 -0500,
89,89,0,catch,None,None,None,None,None,None,None,None,None,None,3,1.7973999977111816,None,,,,,0,0,0,0,0,89,89,123,407.33251571655273,,,,,,,,,,,,,,,,,,,,,,,,,,,,,,,,,,,,,,,,,,,,,,,,,,,,,,,,,,,,,,,,,,,,,,,,,,,,,,,,,119,71,107,83,152,173,2.2,2.21,-173,-277,0,282,224,268,407.3158185482025,407.31589818000793,407.3189630508423,407.33251571655273,407.4815454483032,407.4815454483032,407.4815454483032,407.4815454483032,407.4815454483032,407.4815454483032,407.4815454483032,409.1477608680725,3,1.7973999977111816,None,,,,,,,,,,,,,,,,,,50,2,2025-02-19_14h08.28.236,comp,2024.2.4,57.188295928662974,2025-02-19 14h08.35.665505 -0500,
90,90,0,filler_random,None,None,None,None,None,None,None,None,None,None,2,1.8498547077178955,None,,,,,0,0,0,0,0,90,90,139,409.16783595085144,,,,,,,,,,,,,,,,,,,,,,,,,,,,,,,,,,,,,,,,,,,,,,,,,,,,,,,,,,,,,,,,,,,,,,,,,,,,,,,,,143.70943726963455,128.01140235693452,156.8635772577669,189.1192452243034,150.07689817202925,61.13792228488783,4.0,4.1,-255,-290,0,15,221,-254,409.14959955215454,409.1497006416321,409.1529450416565,409.16783595085144,409.3208134174347,409.3208134174347,409.3208134174347,409.3208134174347,409.3208134174347,409.3208134174347,409.3208134174347,411.0331666469574,2,1.8498547077178955,None,,,,,,,,,,,,,,,,,,50,2,2025-02-19_14h08.28.236,comp,2024.2.4,57.188295928662974,2025-02-19 14h08.35.665505 -0500,
91,91,0,critical,hwd,20.0,3.0,lower,133.0,57.0,57.0,133.0,78.0,78.0,2,7.488258123397827,None,,,,,0,0,0,0,0,91,91,104,411.04952335357666,,,,,,,,,,,,,,,,,,,,,,,,,,,,,,,,,,,,,,,,,,,,,,,,,,,,,,,,,,,,,,,,,,,,,,,,,,,,,,,,,133.0,57.0,57.0,133.0,78.0,78.0,3.0,3.1,-191,259,0,7,202,-265,411.03486680984497,411.034943819046,411.038259267807,411.04952335357666,411.19861674308777,411.19861674308777,411.19861674308777,411.19861674308777,411.19861674308777,411.19861674308777,411.19861674308777,418.5572032928467,2,7.488258123397827,None,,,,,,,,,,,,,,,,,,50,2,2025-02-19_14h08.28.236,comp,2024.2.4,57.188295928662974,2025-02-19 14h08.35.665505 -0500,
92,92,0,critical,hdw,20.0,4.0,lower,133.0,57.0,78.0,78.0,57.0,133.0,1,3.3148462772369385,None,,,,,0,0,0,0,0,92,92,118,418.57721853256226,,,,,,,,,,,,,,,,,,,,,,,,,,,,,,,,,,,,,,,,,,,,,,,,,,,,,,,,,,,,,,,,,,,,,,,,,,,,,,,,,133.0,57.0,78.0,78.0,57.0,133.0,4.0,4.1,-164,-266,0,-8,202,-277,418.55882024765015,418.558954000473,418.5622169971466,418.57721853256226,418.71937823295593,418.71937823295593,418.71937823295593,418.71937823295593,418.71937823295593,418.71937823295593,418.71937823295593,421.9027762413025,1,3.3148462772369385,None,,,,,,,,,,,,,,,,,,50,2,2025-02-19_14h08.28.236,comp,2024.2.4,57.188295928662974,2025-02-19 14h08.35.665505 -0500,
93,93,0,filler_random,None,None,None,None,None,None,None,None,None,None,1,3.5712616443634033,None,,,,,0,0,0,0,0,93,93,147,421.9185507297516,,,,,,,,,,,,,,,,,,,,,,,,,,,,,,,,,,,,,,,,,,,,,,,,,,,,,,,,,,,,,,,,,,,,,,,,,,,,,,,,,112.6999309688736,155.99913855755304,159.27918359050267,81.87410224465654,61.773087211544045,141.54283182826225,2.2,2.22,-215,277,0,-271,208,-289,421.90461897850037,421.9046993255615,421.9078438282013,421.9185507297516,422.06714367866516,422.06714367866516,422.06714367866516,422.06714367866516,422.06714367866516,422.06714367866516,422.06714367866516,425.5033850669861,1,3.5712616443634033,None,,,,,,,,,,,,,,,,,,50,2,2025-02-19_14h08.28.236,comp,2024.2.4,57.188295928662974,2025-02-19 14h08.35.665505 -0500,
94,94,0,filler_random,None,None,None,None,None,None,None,None,None,None,3,3.0516295433044434,None,,,,,0,0,0,0,0,94,94,142,425.51871490478516,,,,,,,,,,,,,,,,,,,,,,,,,,,,,,,,,,,,,,,,,,,,,,,,,,,,,,,,,,,,,,,,,,,,,,,,,,,,,,,,,81.62364278291693,155.06881905551973,74.9289165215651,180.5898469154907,110.3067250541815,175.17218814710716,2.1,2.11,-264,274,0,274,274,-283,425.50520062446594,425.5052797794342,425.50851345062256,425.51871490478516,425.66817021369934,425.66817021369934,425.66817021369934,425.66817021369934,425.66817021369934,425.66817021369934,425.66817021369934,428.5768041610718,3,3.0516295433044434,None,,,,,,,,,,,,,,,,,,50,2,2025-02-19_14h08.28.236,comp,2024.2.4,57.188295928662974,2025-02-19 14h08.35.665505 -0500,
95,95,0,critical,wdh,35.0,2.1,upper,125.0,200.0,127.0,127.0,200.0,125.0,3,6.89347243309021,None,,,,,0,0,0,0,0,95,95,9,428.59632301330566,,,,,,,,,,,,,,,,,,,,,,,,,,,,,,,,,,,,,,,,,,,,,,,,,,,,,,,,,,,,,,,,,,,,,,,,,,,,,,,,,125.0,200.0,127.0,127.0,200.0,125.0,2.1,2.12,-260,-268,0,-280,222,267,428.5783176422119,428.5783987045288,428.5813317298889,428.59632301330566,428.73592472076416,428.73592472076416,428.73592472076416,428.73592472076416,428.73592472076416,428.73592472076416,428.73592472076416,435.5022711753845,3,6.89347243309021,None,,,,,,,,,,,,,,,,,,50,2,2025-02-19_14h08.28.236,comp,2024.2.4,57.188295928662974,2025-02-19 14h08.35.665505 -0500,
96,96,0,critical,whd,20.0,2.1,upper,125.0,200.0,200.0,125.0,141.0,141.0,1,2.1809380054473877,None,,,,,0,0,0,0,0,96,96,15,435.5172109603882,,,,,,,,,,,,,,,,,,,,,,,,,,,,,,,,,,,,,,,,,,,,,,,,,,,,,,,,,,,,,,,,,,,,,,,,,,,,,,,,,125.0,200.0,200.0,125.0,141.0,141.0,2.1,2.11,-258,283,0,257,229,-281,435.50377011299133,435.50384402275085,435.50666666030884,435.5172109603882,435.6572308540344,435.6572308540344,435.6572308540344,435.6572308540344,435.6572308540344,435.6572308540344,435.6572308540344,437.7031786441803,1,2.1809380054473877,None,,,,,,,,,,,,,,,,,,50,2,2025-02-19_14h08.28.236,comp,2024.2.4,57.188295928662974,2025-02-19 14h08.35.665505 -0500,
97,97,0,critical,hwd,35.0,2.1,lower,133.0,57.0,57.0,133.0,70.0,70.0,1,5.2967188358306885,None,,,,,0,0,0,0,0,97,97,16,437.7217392921448,,,,,,,,,,,,,,,,,,,,,,,,,,,,,,,,,,,,,,,,,,,,,,,,,,,,,,,,,,,,,,,,,,,,,,,,,,,,,,,,,133.0,57.0,57.0,133.0,70.0,70.0,2.1,2.12,-191,-274,0,-260,198,257,437.70481610298157,437.7048923969269,437.7081890106201,437.7217392921448,437.8569538593292,437.8569538593292,437.8569538593292,437.8569538593292,437.8569538593292,437.8569538593292,437.8569538593292,443.02571988105774,1,5.2967188358306885,None,,,,,,,,,,,,,,,,,,50,2,2025-02-19_14h08.28.236,comp,2024.2.4,57.188295928662974,2025-02-19 14h08.35.665505 -0500,
98,98,0,critical,whd,35.0,4.0,upper,125.0,200.0,200.0,125.0,127.0,127.0,1,5.943979978561401,None,,,,,0,0,0,0,0,98,98,89,443.04223561286926,,,,,,,,,,,,,,,,,,,,,,,,,,,,,,,,,,,,,,,,,,,,,,,,,,,,,,,,,,,,,,,,,,,,,,,,,,,,,,,,,125.0,200.0,200.0,125.0,127.0,127.0,4.0,4.1,-258,-278,0,-8,222,-257,443.0274431705475,443.0276098251343,443.03109908103943,443.04223561286926,443.19144320487976,443.19144320487976,443.19144320487976,443.19144320487976,443.19144320487976,443.19144320487976,443.19144320487976,448.99704027175903,1,5.943979978561401,None,,,,,,,,,,,,,,,,,,50,2,2025-02-19_14h08.28.236,comp,2024.2.4,57.188295928662974,2025-02-19 14h08.35.665505 -0500,
99,99,0,critical,hdw,20.0,3.0,upper,200.0,125.0,141.0,141.0,125.0,200.0,1,5.122362375259399,None,,,,,0,0,0,0,0,99,99,117,449.0154240131378,,,,,,,,,,,,,,,,,,,,,,,,,,,,,,,,,,,,,,,,,,,,,,,,,,,,,,,,,,,,,,,,,,,,,,,,,,,,,,,,,200.0,125.0,141.0,141.0,125.0,200.0,3.0,3.2,-229,-283,0,-15,266,275,448.998854637146,448.9989860057831,449.0020875930786,449.0154240131378,449.1597366333008,449.1597366333008,449.1597366333008,449.1597366333008,449.1597366333008,449.1597366333008,449.1597366333008,454.15132761001587,1,5.122362375259399,None,,,,,,,,,,,,,,,,,,50,2,2025-02-19_14h08.28.236,comp,2024.2.4,57.188295928662974,2025-02-19 14h08.35.665505 -0500,
100,100,0,critical,wdh,35.0,2.1,lower,57.0,133.0,70.0,70.0,133.0,57.0,1,7.3555450439453125,None,,,,,0,0,0,0,0,100,100,32,454.16720724105835,,,,,,,,,,,,,,,,,,,,,,,,,,,,,,,,,,,,,,,,,,,,,,,,,,,,,,,,,,,,,,,,,,,,,,,,,,,,,,,,,57.0,133.0,70.0,70.0,133.0,57.0,2.1,2.12,-198,-276,0,-289,160,270,454.1529321670532,454.1530156135559,454.15630197525024,454.16720724105835,454.3126106262207,454.3126106262207,454.3126106262207,454.3126106262207,454.3126106262207,454.3126106262207,454.3126106262207,461.53065729141235,1,7.3555450439453125,None,,,,,,,,,,,,,,,,,,50,2,2025-02-19_14h08.28.236,comp,2024.2.4,57.188295928662974,2025-02-19 14h08.35.665505 -0500,
101,101,0,critical,dhw,20.0,4.0,lower,78.0,78.0,133.0,57.0,57.0,133.0,3,4.468198299407959,None,,,,,0,0,0,0,0,101,101,58,461.54959416389465,,,,,,,,,,,,,,,,,,,,,,,,,,,,,,,,,,,,,,,,,,,,,,,,,,,,,,,,,,,,,,,,,,,,,,,,,,,,,,,,,78.0,78.0,133.0,57.0,57.0,133.0,4.0,4.2,-164,5,0,-262,191,-18,461.53209137916565,461.5321683883667,461.53526496887207,461.54959416389465,461.6862714290619,461.6862714290619,461.6862714290619,461.6862714290619,461.6862714290619,461.6862714290619,461.6862714290619,466.03162908554077,3,4.468198299407959,None,,,,,,,,,,,,,,,,,,50,2,2025-02-19_14h08.28.236,comp,2024.2.4,57.188295928662974,2025-02-19 14h08.35.665505 -0500,
102,102,0,catch,None,None,None,None,None,None,None,None,None,None,3,0.9684650897979736,None,,,,,0,0,0,0,0,102,102,128,466.0497102737427,,,,,,,,,,,,,,,,,,,,,,,,,,,,,,,,,,,,,,,,,,,,,,,,,,,,,,,,,,,,,,,,,,,,,,,,,,,,,,,,,131,59,120,70,185,140,2.2,2.21,-160,-252,0,273,201,254,466.0337314605713,466.03380823135376,466.03706645965576,466.0497102737427,466.1874794960022,466.1874794960022,466.1874794960022,466.1874794960022,466.1874794960022,466.1874794960022,466.1874794960022,467.0380415916443,3,0.9684650897979736,None,,,,,,,,,,,,,,,,,,50,2,2025-02-19_14h08.28.236,comp,2024.2.4,57.188295928662974,2025-02-19 14h08.35.665505 -0500,
103,103,0,critical,dhw,35.0,4.0,lower,70.0,70.0,133.0,57.0,57.0,133.0,3,2.413344621658325,None,,,,,0,0,0,0,0,103,103,52,467.05283403396606,,,,,,,,,,,,,,,,,,,,,,,,,,,,,,,,,,,,,,,,,,,,,,,,,,,,,,,,,,,,,,,,,,,,,,,,,,,,,,,,,70.0,70.0,133.0,57.0,57.0,133.0,4.0,4.1,-160,-255,0,1,191,-282,467.0386962890625,467.03872561454773,467.0398643016815,467.05283403396606,467.1996579170227,467.1996579170227,467.1996579170227,467.1996579170227,467.1996579170227,467.1996579170227,467.1996579170227,469.48515725135803,3,2.413344621658325,None,,,,,,,,,,,,,,,,,,50,2,2025-02-19_14h08.28.236,comp,2024.2.4,57.188295928662974,2025-02-19 14h08.35.665505 -0500,
104,104,0,filler_random,None,None,None,None,None,None,None,None,None,None,2,1.208106279373169,None,,,,,0,0,0,0,0,104,104,161,469.49919271469116,,,,,,,,,,,,,,,,,,,,,,,,,,,,,,,,,,,,,,,,,,,,,,,,,,,,,,,,,,,,,,,,,,,,,,,,,,,,,,,,,114.61884489407065,85.75142984494208,134.69085705505188,155.2300506293121,68.11716709375814,198.68093642792005,2.2,2.22,-216,262,0,-263,273,-290,469.4869227409363,469.4870562553406,469.4901568889618,469.49919271469116,469.6511173248291,469.6511173248291,469.6511173248291,469.6511173248291,469.6511173248291,469.6511173248291,469.6511173248291,470.7190797328949,2,1.208106279373169,None,,,,,,,,,,,,,,,,,,50,2,2025-02-19_14h08.28.236,comp,2024.2.4,57.188295928662974,2025-02-19 14h08.35.665505 -0500,
105,105,0,filler_random,None,None,None,None,None,None,None,None,None,None,3,7.306118965148926,None,,,,,0,0,0,0,0,105,105,132,470.7357430458069,,,,,,,,,,,,,,,,,,,,,,,,,,,,,,,,,,,,,,,,,,,,,,,,,,,,,,,,,,,,,,,,,,,,,,,,,,,,,,,,,62.39248467172411,185.24266768767646,86.07181352146085,113.48870533414247,168.7131046009057,77.90682591418867,4.0,4.2,-245,-17,0,-264,192,12,470.72090196609497,470.72104001045227,470.72451639175415,470.7357430458069,470.88964581489563,470.88964581489563,470.88964581489563,470.88964581489563,470.88964581489563,470.88964581489563,470.88964581489563,478.0582444667816,3,7.306118965148926,None,,,,,,,,,,,,,,,,,,50,2,2025-02-19_14h08.28.236,comp,2024.2.4,57.188295928662974,2025-02-19 14h08.35.665505 -0500,
106,106,0,catch,None,None,None,None,None,None,None,None,None,None,2,1.0476810932159424,None,,,,,0,0,0,0,0,106,106,124,478.0743205547333,,,,,,,,,,,,,,,,,,,,,,,,,,,,,,,,,,,,,,,,,,,,,,,,,,,,,,,,,,,,,,,,,,,,,,,,,,,,,,,,,120,70,149,176,96,94,2.1,2.12,-219,-269,0,-289,231,269,478.0601899623871,478.0602695941925,478.06317949295044,478.0743205547333,478.2208516597748,478.2208516597748,478.2208516597748,478.2208516597748,478.2208516597748,478.2208516597748,478.2208516597748,479.1369774341583,2,1.0476810932159424,None,,,,,,,,,,,,,,,,,,50,2,2025-02-19_14h08.28.236,comp,2024.2.4,57.188295928662974,2025-02-19 14h08.35.665505 -0500,
107,107,0,filler_square,None,None,None,None,None,None,None,None,None,None,1,1.0178954601287842,None,,,,,0,0,0,0,0,107,107,181,479.15266156196594,,,,,,,,,,,,,,,,,,,,,,,,,,,,,,,,,,,,,,,,,,,,,,,,,,,,,,,,,,,,,,,,,,,,,,,,,,,,,,,,,170.62051180699535,170.62051180699535,129.62848905567967,106.85340600056776,120.66867628041678,99.86277910279789,1.0,1.3,245,-274,480,-256,679,-284,479.13884019851685,479.1389172077179,479.14237928390503,479.15266156196594,479.3018777370453,479.3018777370453,479.3018777370453,479.3018777370453,479.3018777370453,479.3018777370453,479.3018777370453,480.1794457435608,1,1.0178954601287842,None,,,,,,,,,,,,,,,,,,50,2,2025-02-19_14h08.28.236,comp,2024.2.4,57.188295928662974,2025-02-19 14h08.35.665505 -0500,
108,108,0,critical,dwh,35.0,2.1,upper,127.0,127.0,125.0,200.0,200.0,125.0,2,1.8690495491027832,None,,,,,0,0,0,0,0,108,108,5,480.1971290111542,,,,,,,,,,,,,,,,,,,,,,,,,,,,,,,,,,,,,,,,,,,,,,,,,,,,,,,,,,,,,,,,,,,,,,,,,,,,,,,,,127.0,127.0,125.0,200.0,200.0,125.0,2.1,2.12,-260,-272,0,-253,258,251,480.1809895038605,480.18106842041016,480.1839978694916,480.1971290111542,480.3375904560089,480.3375904560089,480.3375904560089,480.3375904560089,480.3375904560089,480.3375904560089,480.3375904560089,482.0685188770294,2,1.8690495491027832,None,,,,,,,,,,,,,,,,,,50,2,2025-02-19_14h08.28.236,comp,2024.2.4,57.188295928662974,2025-02-19 14h08.35.665505 -0500,
109,109,0,critical,dwh,20.0,3.0,upper,141.0,141.0,125.0,200.0,200.0,125.0,2,5.39678430557251,None,,,,,0,0,0,0,0,109,109,69,482.08571767807007,,,,,,,,,,,,,,,,,,,,,,,,,,,,,,,,,,,,,,,,,,,,,,,,,,,,,,,,,,,,,,,,,,,,,,,,,,,,,,,,,141.0,141.0,125.0,200.0,200.0,125.0,3.0,3.2,-266,-268,0,14,258,253,482.07001972198486,482.07009768486023,482.07302260398865,482.08571767807007,482.2406380176544,482.2406380176544,482.2406380176544,482.2406380176544,482.2406380176544,482.2406380176544,482.2406380176544,487.48995995521545,2,5.39678430557251,None,,,,,,,,,,,,,,,,,,50,2,2025-02-19_14h08.28.236,comp,2024.2.4,57.188295928662974,2025-02-19 14h08.35.665505 -0500,
110,110,0,filler_random,None,None,None,None,None,None,None,None,None,None,2,1.4481275081634521,None,,,,,0,0,0,0,0,110,110,167,487.50661063194275,,,,,,,,,,,,,,,,,,,,,,,,,,,,,,,,,,,,,,,,,,,,,,,,,,,,,,,,,,,,,,,,,,,,,,,,,,,,,,,,,91.00455734084719,122.11460369106646,149.65113965127495,179.05657873057783,105.72505870127479,182.13184168959035,2.1,2.11,-247,261,0,265,277,-280,487.49172472953796,487.49180722236633,487.4958453178406,487.50661063194275,487.65659523010254,487.65659523010254,487.65659523010254,487.65659523010254,487.65659523010254,487.65659523010254,487.65659523010254,488.95928287506104,2,1.4481275081634521,None,,,,,,,,,,,,,,,,,,50,2,2025-02-19_14h08.28.236,comp,2024.2.4,57.188295928662974,2025-02-19 14h08.35.665505 -0500,
111,111,0,filler_random,None,None,None,None,None,None,None,None,None,None,2,4.002542018890381,None,,,,,0,0,0,0,0,111,111,152,488.97553992271423,,,,,,,,,,,,,,,,,,,,,,,,,,,,,,,,,,,,,,,,,,,,,,,,,,,,,,,,,,,,,,,,,,,,,,,,,,,,,,,,,121.98739902978511,144.67173079680546,188.06789358132002,115.94759813880593,114.60012615500898,144.6349064945948,1.0,1.3,254,-283,480,-259,706,-256,488.96107363700867,488.9611520767212,488.9642479419708,488.97553992271423,489.12306475639343,489.12306475639343,489.12306475639343,489.12306475639343,489.12306475639343,489.12306475639343,489.12306475639343,492.9948046207428,2,4.002542018890381,None,,,,,,,,,,,,,,,,,,50,2,2025-02-19_14h08.28.236,comp,2024.2.4,57.188295928662974,2025-02-19 14h08.35.665505 -0500,
112,112,0,critical,wdh,20.0,3.0,upper,125.0,200.0,141.0,141.0,200.0,125.0,1,3.52787184715271,None,,,,,0,0,0,0,0,112,112,81,493.0105583667755,,,,,,,,,,,,,,,,,,,,,,,,,,,,,,,,,,,,,,,,,,,,,,,,,,,,,,,,,,,,,,,,,,,,,,,,,,,,,,,,,125.0,200.0,141.0,141.0,200.0,125.0,3.0,3.2,-266,-283,0,-18,229,268,492.99640369415283,492.9965136051178,493.0003306865692,493.0105583667755,493.1576328277588,493.1576328277588,493.1576328277588,493.1576328277588,493.1576328277588,493.1576328277588,493.1576328277588,496.5416715145111,1,3.52787184715271,None,,,,,,,,,,,,,,,,,,50,2,2025-02-19_14h08.28.236,comp,2024.2.4,57.188295928662974,2025-02-19 14h08.35.665505 -0500,
113,113,0,critical,wdh,20.0,4.0,upper,125.0,200.0,141.0,141.0,200.0,125.0,1,1.6032814979553223,None,,,,,0,0,0,0,0,113,113,83,496.55866289138794,,,,,,,,,,,,,,,,,,,,,,,,,,,,,,,,,,,,,,,,,,,,,,,,,,,,,,,,,,,,,,,,,,,,,,,,,,,,,,,,,125.0,200.0,141.0,141.0,200.0,125.0,4.0,4.2,-266,-16,0,-257,229,-10,496.54332447052,496.5434048175812,496.5470232963562,496.55866289138794,496.7089903354645,496.7089903354645,496.7089903354645,496.7089903354645,496.7089903354645,496.7089903354645,496.7089903354645,498.1774003505707,1,1.6032814979553223,None,,,,,,,,,,,,,,,,,,50,2,2025-02-19_14h08.28.236,comp,2024.2.4,57.188295928662974,2025-02-19 14h08.35.665505 -0500,
114,114,0,critical,dhw,35.0,3.0,upper,127.0,127.0,200.0,125.0,125.0,200.0,3,3.2333154678344727,None,,,,,0,0,0,0,0,114,114,51,498.1929669380188,,,,,,,,,,,,,,,,,,,,,,,,,,,,,,,,,,,,,,,,,,,,,,,,,,,,,,,,,,,,,,,,,,,,,,,,,,,,,,,,,127.0,127.0,200.0,125.0,125.0,200.0,3.0,3.1,-222,274,0,19,258,-253,498.17890191078186,498.1789746284485,498.1821060180664,498.1929669380188,498.34268283843994,498.34268283843994,498.34268283843994,498.34268283843994,498.34268283843994,498.34268283843994,498.34268283843994,501.44388461112976,3,3.2333154678344727,None,,,,,,,,,,,,,,,,,,50,2,2025-02-19_14h08.28.236,comp,2024.2.4,57.188295928662974,2025-02-19 14h08.35.665505 -0500,
115,115,0,filler_square,None,None,None,None,None,None,None,None,None,None,2,1.1024510860443115,None,,,,,0,0,0,0,0,115,115,185,501.4596195220947,,,,,,,,,,,,,,,,,,,,,,,,,,,,,,,,,,,,,,,,,,,,,,,,,,,,,,,,,,,,,,,,,,,,,,,,,,,,,,,,,137.34373156656136,67.4011575135204,165.86197381167324,165.86197381167324,102.09040248832956,70.61108807569548,1.0,1.2,-213,-1,0,2,214,16,501.4457948207855,501.4459271430969,501.4492418766022,501.4596195220947,501.61294198036194,501.61294198036194,501.61294198036194,501.61294198036194,501.61294198036194,501.61294198036194,501.61294198036194,502.56593322753906,2,1.1024510860443115,None,,,,,,,,,,,,,,,,,,50,2,2025-02-19_14h08.28.236,comp,2024.2.4,57.188295928662974,2025-02-19 14h08.35.665505 -0500,
116,116,0,critical,dhw,35.0,1.0,lower,70.0,70.0,133.0,57.0,57.0,133.0,2,6.307398080825806,None,,,,,0,0,0,0,0,116,116,48,502.58326864242554,,,,,,,,,,,,,,,,,,,,,,,,,,,,,,,,,,,,,,,,,,,,,,,,,,,,,,,,,,,,,,,,,,,,,,,,,,,,,,,,,70.0,70.0,133.0,57.0,57.0,133.0,1.0,1.2,-160,-6,0,-16,191,-15,502.5673351287842,502.5674104690552,502.57024931907654,502.58326864242554,502.727735042572,502.727735042572,502.727735042572,502.727735042572,502.727735042572,502.727735042572,502.727735042572,508.89903450012207,2,6.307398080825806,None,,,,,,,,,,,,,,,,,,50,2,2025-02-19_14h08.28.236,comp,2024.2.4,57.188295928662974,2025-02-19 14h08.35.665505 -0500,
117,117,0,filler_square,None,None,None,None,None,None,None,None,None,None,2,0.9662144184112549,None,,,,,0,0,0,0,0,117,117,174,508.9163267612457,,,,,,,,,,,,,,,,,,,,,,,,,,,,,,,,,,,,,,,,,,,,,,,,,,,,,,,,,,,,,,,,,,,,,,,,,,,,,,,,,82.33799292841798,137.07597750808532,150.1437271570721,150.1437271570721,94.4019088740216,143.12646612646915,2.1,2.12,-240,-273,0,-272,243,280,508.9015944004059,508.90167355537415,508.90459632873535,508.9163267612457,509.0636384487152,509.0636384487152,509.0636384487152,509.0636384487152,509.0636384487152,509.0636384487152,509.0636384487152,509.8919835090637,2,0.9662144184112549,None,,,,,,,,,,,,,,,,,,50,2,2025-02-19_14h08.28.236,comp,2024.2.4,57.188295928662974,2025-02-19 14h08.35.665505 -0500,
118,118,0,filler_square,None,None,None,None,None,None,None,None,None,None,3,1.1102662086486816,None,,,,,0,0,0,0,0,118,118,206,509.90772914886475,,,,,,,,,,,,,,,,,,,,,,,,,,,,,,,,,,,,,,,,,,,,,,,,,,,,,,,,,,,,,,,,,,,,,,,,,,,,,,,,,76.77480574583929,70.46381501708719,96.54990519408751,109.50745554290023,123.12815176326237,123.12815176326237,2.1,2.12,-186,-288,0,-257,212,266,509.89377880096436,509.8938555717468,509.8969283103943,509.90772914886475,510.0434138774872,510.0434138774872,510.0434138774872,510.0434138774872,510.0434138774872,510.0434138774872,510.0434138774872,511.0295515060425,3,1.1102662086486816,None,,,,,,,,,,,,,,,,,,50,2,2025-02-19_14h08.28.236,comp,2024.2.4,57.188295928662974,2025-02-19 14h08.35.665505 -0500,
119,119,0,filler_square,None,None,None,None,None,None,None,None,None,None,2,1.2000257968902588,None,,,,,0,0,0,0,0,119,119,201,511.04991602897644,,,,,,,,,,,,,,,,,,,,,,,,,,,,,,,,,,,,,,,,,,,,,,,,,,,,,,,,,,,,,,,,,,,,,,,,,,,,,,,,,61.66760630381639,70.23267262370479,108.77680814453416,108.77680814453416,91.86582878448077,80.28535239962203,1.0,1.2,-186,-14,0,10,191,18,511.0313255786896,511.0314049720764,511.03473448753357,511.04991602897644,511.1970319747925,511.1970319747925,511.1970319747925,511.1970319747925,511.1970319747925,511.1970319747925,511.1970319747925,512.2671372890472,2,1.2000257968902588,None,,,,,,,,,,,,,,,,,,50,2,2025-02-19_14h08.28.236,comp,2024.2.4,57.188295928662974,2025-02-19 14h08.35.665505 -0500,
120,120,0,filler_square,None,None,None,None,None,None,None,None,None,None,3,2.751483917236328,None,,,,,0,0,0,0,0,120,120,194,512.2824211120605,,,,,,,,,,,,,,,,,,,,,,,,,,,,,,,,,,,,,,,,,,,,,,,,,,,,,,,,,,,,,,,,,,,,,,,,,,,,,,,,,86.79698731317359,72.49222126185424,69.61377948034173,78.2814195028023,99.46584329515885,99.46584329515885,3.0,3.2,-171,-281,0,-8,185,260,512.2689590454102,512.2690348625183,512.2721767425537,512.2824211120605,512.4292695522308,512.4292695522308,512.4292695522308,512.4292695522308,512.4292695522308,512.4292695522308,512.4292695522308,515.0525207519531,3,2.751483917236328,None,,,,,,,,,,,,,,,,,,50,2,2025-02-19_14h08.28.236,comp,2024.2.4,57.188295928662974,2025-02-19 14h08.35.665505 -0500,
121,121,0,critical,dwh,35.0,3.0,upper,127.0,127.0,125.0,200.0,200.0,125.0,2,3.9957261085510254,None,,,,,0,0,0,0,0,121,121,63,515.0703549385071,,,,,,,,,,,,,,,,,,,,,,,,,,,,,,,,,,,,,,,,,,,,,,,,,,,,,,,,,,,,,,,,,,,,,,,,,,,,,,,,,127.0,127.0,125.0,200.0,200.0,125.0,3.0,3.1,-260,263,0,-17,258,-282,515.0542557239532,515.0543909072876,515.0577194690704,515.0703549385071,515.2153234481812,515.2153234481812,515.2153234481812,515.2153234481812,515.2153234481812,515.2153234481812,515.2153234481812,519.0682752132416,2,3.9957261085510254,None,,,,,,,,,,,,,,,,,,50,2,2025-02-19_14h08.28.236,comp,2024.2.4,57.188295928662974,2025-02-19 14h08.35.665505 -0500,
122,122,0,critical,wdh,20.0,2.1,upper,125.0,200.0,141.0,141.0,200.0,125.0,1,2.8775434494018555,None,,,,,0,0,0,0,0,122,122,35,519.0844268798828,,,,,,,,,,,,,,,,,,,,,,,,,,,,,,,,,,,,,,,,,,,,,,,,,,,,,,,,,,,,,,,,,,,,,,,,,,,,,,,,,125.0,200.0,141.0,141.0,200.0,125.0,2.1,2.12,-266,-281,0,-259,229,270,519.0699329376221,519.0700435638428,519.0735993385315,519.0844268798828,519.2329270839691,519.2329270839691,519.2329270839691,519.2329270839691,519.2329270839691,519.2329270839691,519.2329270839691,521.9746479988098,1,2.8775434494018555,None,,,,,,,,,,,,,,,,,,50,2,2025-02-19_14h08.28.236,comp,2024.2.4,57.188295928662974,2025-02-19 14h08.35.665505 -0500,
123,123,0,critical,dwh,20.0,2.1,upper,141.0,141.0,125.0,200.0,200.0,125.0,3,2.1441519260406494,None,,,,,0,0,0,0,0,123,123,7,521.9938352108002,,,,,,,,,,,,,,,,,,,,,,,,,,,,,,,,,,,,,,,,,,,,,,,,,,,,,,,,,,,,,,,,,,,,,,,,,,,,,,,,,141.0,141.0,125.0,200.0,200.0,125.0,2.1,2.11,-266,251,0,269,258,-287,521.9762935638428,521.9763717651367,521.9796764850616,521.9938352108002,522.1391887664795,522.1391887664795,522.1391887664795,522.1391887664795,522.1391887664795,522.1391887664795,522.1391887664795,524.1538052558899,3,2.1441519260406494,None,,,,,,,,,,,,,,,,,,50,2,2025-02-19_14h08.28.236,comp,2024.2.4,57.188295928662974,2025-02-19 14h08.35.665505 -0500,
124,124,0,critical,whd,35.0,2.1,upper,125.0,200.0,200.0,125.0,127.0,127.0,1,3.8000433444976807,None,,,,,0,0,0,0,0,124,124,37,524.1699373722076,,,,,,,,,,,,,,,,,,,,,,,,,,,,,,,,,,,,,,,,,,,,,,,,,,,,,,,,,,,,,,,,,,,,,,,,,,,,,,,,,125.0,200.0,200.0,125.0,127.0,127.0,2.1,2.12,-258,-269,0,-270,222,278,524.1556584835052,524.1557366847992,524.1596035957336,524.1699373722076,524.3207466602325,524.3207466602325,524.3207466602325,524.3207466602325,524.3207466602325,524.3207466602325,524.3207466602325,527.9856078624725,1,3.8000433444976807,None,,,,,,,,,,,,,,,,,,50,2,2025-02-19_14h08.28.236,comp,2024.2.4,57.188295928662974,2025-02-19 14h08.35.665505 -0500,
125,125,0,critical,dwh,20.0,2.1,lower,78.0,78.0,57.0,133.0,133.0,57.0,2,4.856524705886841,None,,,,,0,0,0,0,0,125,125,30,528.001439332962,,,,,,,,,,,,,,,,,,,,,,,,,,,,,,,,,,,,,,,,,,,,,,,,,,,,,,,,,,,,,,,,,,,,,,,,,,,,,,,,,78.0,78.0,57.0,133.0,133.0,57.0,2.1,2.12,-202,-287,0,-260,191,255,527.9871740341187,527.9872529506683,527.990293264389,528.001439332962,528.1548054218292,528.1548054218292,528.1548054218292,528.1548054218292,528.1548054218292,528.1548054218292,528.1548054218292,532.8715853691101,2,4.856524705886841,None,,,,,,,,,,,,,,,,,,50,2,2025-02-19_14h08.28.236,comp,2024.2.4,57.188295928662974,2025-02-19 14h08.35.665505 -0500,
126,126,0,filler_square,None,None,None,None,None,None,None,None,None,None,2,2.825819492340088,None,,,,,0,0,0,0,0,126,126,184,532.8881573677063,,,,,,,,,,,,,,,,,,,,,,,,,,,,,,,,,,,,,,,,,,,,,,,,,,,,,,,,,,,,,,,,,,,,,,,,,,,,,,,,,185.85182036546024,173.8753880638027,197.54961422194293,197.54961422194293,109.6233940824373,164.57932966159348,3.0,3.2,-282,-273,0,14,277,285,532.8733658790588,532.8734986782074,532.8774735927582,532.8881573677063,533.0247526168823,533.0247526168823,533.0247526168823,533.0247526168823,533.0247526168823,533.0247526168823,533.0247526168823,535.7288286685944,2,2.825819492340088,None,,,,,,,,,,,,,,,,,,50,2,2025-02-19_14h08.28.236,comp,2024.2.4,57.188295928662974,2025-02-19 14h08.35.665505 -0500,
127,127,0,critical,dwh,20.0,1.0,upper,141.0,141.0,125.0,200.0,200.0,125.0,3,5.434057712554932,None,,,,,0,0,0,0,0,127,127,67,535.7444977760315,,,,,,,,,,,,,,,,,,,,,,,,,,,,,,,,,,,,,,,,,,,,,,,,,,,,,,,,,,,,,,,,,,,,,,,,,,,,,,,,,141.0,141.0,125.0,200.0,200.0,125.0,1.0,1.2,-266,14,0,9,258,2,535.730310678482,535.7303891181946,535.7332813739777,535.7444977760315,535.8883547782898,535.8883547782898,535.8883547782898,535.8883547782898,535.8883547782898,535.8883547782898,535.8883547782898,541.1939742565155,3,5.434057712554932,None,,,,,,,,,,,,,,,,,,50,2,2025-02-19_14h08.28.236,comp,2024.2.4,57.188295928662974,2025-02-19 14h08.35.665505 -0500,
128,128,0,filler_random,None,None,None,None,None,None,None,None,None,None,3,6.388498306274414,None,,,,,0,0,0,0,0,128,128,166,541.2140336036682,,,,,,,,,,,,,,,,,,,,,,,,,,,,,,,,,,,,,,,,,,,,,,,,,,,,,,,,,,,,,,,,,,,,,,,,,,,,,,,,,84.0767425963253,163.71969115870223,185.14943200222964,76.437100067798,157.8913201404854,106.74746363458567,3.0,3.2,-216,-261,0,-14,188,286,541.1957838535309,541.1958653926849,541.1987745761871,541.2140336036682,541.3561489582062,541.3561489582062,541.3561489582062,541.3561489582062,541.3561489582062,541.3561489582062,541.3561489582062,547.6077547073364,3,6.388498306274414,None,,,,,,,,,,,,,,,,,,50,2,2025-02-19_14h08.28.236,comp,2024.2.4,57.188295928662974,2025-02-19 14h08.35.665505 -0500,
129,129,0,critical,dhw,35.0,2.1,lower,70.0,70.0,133.0,57.0,57.0,133.0,2,3.591081380844116,None,,,,,0,0,0,0,0,129,129,0,547.6270682811737,,,,,,,,,,,,,,,,,,,,,,,,,,,,,,,,,,,,,,,,,,,,,,,,,,,,,,,,,,,,,,,,,,,,,,,,,,,,,,,,,70.0,70.0,133.0,57.0,57.0,133.0,2.1,2.12,-160,-255,0,-268,191,253,547.6093103885651,547.609386920929,547.6127002239227,547.6270682811737,547.7751109600067,547.7751109600067,547.7751109600067,547.7751109600067,547.7751109600067,547.7751109600067,547.7751109600067,551.2271978855133,2,3.591081380844116,None,,,,,,,,,,,,,,,,,,50,2,2025-02-19_14h08.28.236,comp,2024.2.4,57.188295928662974,2025-02-19 14h08.35.665505 -0500,
130,130,0,filler_random,None,None,None,None,None,None,None,None,None,None,1,3.175037145614624,None,,,,,0,0,0,0,0,130,130,145,551.2435033321381,,,,,,,,,,,,,,,,,,,,,,,,,,,,,,,,,,,,,,,,,,,,,,,,,,,,,,,,,,,,,,,,,,,,,,,,,,,,,,,,,147.5997759777971,138.72829184574795,101.29134221709029,192.7260506981448,80.77831112760965,70.47527343949709,4.0,4.2,-262,-5,0,-263,228,4,551.2290570735931,551.2291839122772,551.2326536178589,551.2435033321381,551.3925776481628,551.3925776481628,551.3925776481628,551.3925776481628,551.3925776481628,551.3925776481628,551.3925776481628,554.4279599189758,1,3.175037145614624,None,,,,,,,,,,,,,,,,,,50,2,2025-02-19_14h08.28.236,comp,2024.2.4,57.188295928662974,2025-02-19 14h08.35.665505 -0500,
131,131,0,critical,dhw,20.0,2.1,upper,141.0,141.0,200.0,125.0,125.0,200.0,2,1.8047208786010742,None,,,,,0,0,0,0,0,131,131,3,554.4462764263153,,,,,,,,,,,,,,,,,,,,,,,,,,,,,,,,,,,,,,,,,,,,,,,,,,,,,,,,,,,,,,,,,,,,,,,,,,,,,,,,,141.0,141.0,200.0,125.0,125.0,200.0,2.1,2.12,-229,-288,0,-277,258,266,554.4294030666351,554.4295084476471,554.4327199459076,554.4462764263153,554.6027729511261,554.6027729511261,554.6027729511261,554.6027729511261,554.6027729511261,554.6027729511261,554.6027729511261,556.2619686126709,2,1.8047208786010742,None,,,,,,,,,,,,,,,,,,50,2,2025-02-19_14h08.28.236,comp,2024.2.4,57.188295928662974,2025-02-19 14h08.35.665505 -0500,
132,132,0,critical,hdw,35.0,2.1,lower,133.0,57.0,70.0,70.0,57.0,133.0,3,3.932861089706421,None,,,,,0,0,0,0,0,132,132,44,556.2777543067932,,,,,,,,,,,,,,,,,,,,,,,,,,,,,,,,,,,,,,,,,,,,,,,,,,,,,,,,,,,,,,,,,,,,,,,,,,,,,,,,,133.0,57.0,70.0,70.0,57.0,133.0,2.1,2.11,-160,290,0,253,198,-280,556.2635021209717,556.26358294487,556.2670395374298,556.2777543067932,556.4271132946014,556.4271132946014,556.4271132946014,556.4271132946014,556.4271132946014,556.4271132946014,556.4271132946014,560.2190644741058,3,3.932861089706421,None,,,,,,,,,,,,,,,,,,50,2,2025-02-19_14h08.28.236,comp,2024.2.4,57.188295928662974,2025-02-19 14h08.35.665505 -0500,
133,133,0,catch,None,None,None,None,None,None,None,None,None,None,2,0.8705403804779053,None,,,,,0,0,0,0,0,133,133,121,560.2361943721771,,,,,,,,,,,,,,,,,,,,,,,,,,,,,,,,,,,,,,,,,,,,,,,,,,,,,,,,,,,,,,,,,,,,,,,,,,,,,,,,,70,120,171,154,87,103,2.2,2.21,-233,-261,0,280,224,275,560.2210884094238,560.2211647033691,560.2243599891663,560.2361943721771,560.3765320777893,560.3765320777893,560.3765320777893,560.3765320777893,560.3765320777893,560.3765320777893,560.3765320777893,561.1126506328583,2,0.8705403804779053,None,,,,,,,,,,,,,,,,,,50,2,2025-02-19_14h08.28.236,comp,2024.2.4,57.188295928662974,2025-02-19 14h08.35.665505 -0500,
134,134,0,filler_random,None,None,None,None,None,None,None,None,None,None,3,3.513115644454956,None,,,,,0,0,0,0,0,134,134,165,561.1293489933014,,,,,,,,,,,,,,,,,,,,,,,,,,,,,,,,,,,,,,,,,,,,,,,,,,,,,,,,,,,,,,,,,,,,,,,,,,,,,,,,,183.30165124844854,101.25937328545905,135.64517451005287,109.66331831571935,185.15455032320986,131.49616581597968,2.1,2.12,-201,-270,0,-283,217,287,561.1142909526825,561.114399433136,561.1177105903625,561.1293489933014,561.2799921035767,561.2799921035767,561.2799921035767,561.2799921035767,561.2799921035767,561.2799921035767,561.2799921035767,564.6459498405457,3,3.513115644454956,None,,,,,,,,,,,,,,,,,,50,2,2025-02-19_14h08.28.236,comp,2024.2.4,57.188295928662974,2025-02-19 14h08.35.665505 -0500,
135,135,0,critical,whd,35.0,2.1,upper,125.0,200.0,200.0,125.0,127.0,127.0,2,2.9157655239105225,None,,,,,0,0,0,0,0,135,135,13,564.6622507572174,,,,,,,,,,,,,,,,,,,,,,,,,,,,,,,,,,,,,,,,,,,,,,,,,,,,,,,,,,,,,,,,,,,,,,,,,,,,,,,,,125.0,200.0,200.0,125.0,127.0,127.0,2.1,2.12,-258,-281,0,-268,222,269,564.6474468708038,564.6475563049316,564.6507441997528,564.6622507572174,564.8217968940735,564.8217968940735,564.8217968940735,564.8217968940735,564.8217968940735,564.8217968940735,564.8217968940735,567.5814440250397,2,2.9157655239105225,None,,,,,,,,,,,,,,,,,,50,2,2025-02-19_14h08.28.236,comp,2024.2.4,57.188295928662974,2025-02-19 14h08.35.665505 -0500,
136,136,0,critical,hwd,20.0,2.1,upper,200.0,125.0,125.0,200.0,141.0,141.0,1,2.9254941940307617,None,,,,,0,0,0,0,0,136,136,43,567.5974216461182,,,,,,,,,,,,,,,,,,,,,,,,,,,,,,,,,,,,,,,,,,,,,,,,,,,,,,,,,,,,,,,,,,,,,,,,,,,,,,,,,200.0,125.0,125.0,200.0,141.0,141.0,2.1,2.12,-258,-278,0,-256,266,286,567.5830426216125,567.5831232070923,567.5865590572357,567.5974216461182,567.7534284591675,567.7534284591675,567.7534284591675,567.7534284591675,567.7534284591675,567.7534284591675,567.7534284591675,570.5345520973206,1,2.9254941940307617,None,,,,,,,,,,,,,,,,,,50,2,2025-02-19_14h08.28.236,comp,2024.2.4,57.188295928662974,2025-02-19 14h08.35.665505 -0500,
137,137,0,critical,whd,35.0,1.0,upper,125.0,200.0,200.0,125.0,127.0,127.0,2,4.6595587730407715,None,,,,,0,0,0,0,0,137,137,85,570.5505728721619,,,,,,,,,,,,,,,,,,,,,,,,,,,,,,,,,,,,,,,,,,,,,,,,,,,,,,,,,,,,,,,,,,,,,,,,,,,,,,,,,125.0,200.0,200.0,125.0,127.0,127.0,1.0,1.3,222,-285,480,-284,702,-269,570.5361614227295,570.536242723465,570.5396354198456,570.5505728721619,570.6989641189575,570.6989641189575,570.6989641189575,570.6989641189575,570.6989641189575,570.6989641189575,570.6989641189575,575.2226617336273,2,4.6595587730407715,None,,,,,,,,,,,,,,,,,,50,2,2025-02-19_14h08.28.236,comp,2024.2.4,57.188295928662974,2025-02-19 14h08.35.665505 -0500,
138,138,0,catch,None,None,None,None,None,None,None,None,None,None,2,1.3531148433685303,None,,,,,0,0,0,0,0,138,138,129,575.2410395145416,,,,,,,,,,,,,,,,,,,,,,,,,,,,,,,,,,,,,,,,,,,,,,,,,,,,,,,,,,,,,,,,,,,,,,,,,,,,,,,,,82,108,126,199,112,78,2.2,2.21,-250,-256,0,275,234,266,575.2245740890503,575.2246549129486,575.2275390625,575.2410395145416,575.3835272789001,575.3835272789001,575.3835272789001,575.3835272789001,575.3835272789001,575.3835272789001,575.3835272789001,576.5989270210266,2,1.3531148433685303,None,,,,,,,,,,,,,,,,,,50,2,2025-02-19_14h08.28.236,comp,2024.2.4,57.188295928662974,2025-02-19 14h08.35.665505 -0500,
139,139,0,filler_random,None,None,None,None,None,None,None,None,None,None,3,3.4885685443878174,None,,,,,0,0,0,0,0,139,139,146,576.6175169944763,,,,,,,,,,,,,,,,,,,,,,,,,,,,,,,,,,,,,,,,,,,,,,,,,,,,,,,,,,,,,,,,,,,,,,,,,,,,,,,,,104.73531653327893,112.88479857130577,107.44869428281581,138.9034466530531,154.82255243091518,120.93540452976953,3.0,3.2,-222,-281,0,14,226,278,576.6008327007294,576.6009652614594,576.6042442321777,576.6175169944763,576.7682664394379,576.7682664394379,576.7682664394379,576.7682664394379,576.7682664394379,576.7682664394379,576.7682664394379,580.1214258670807,3,3.4885685443878174,None,,,,,,,,,,,,,,,,,,50,2,2025-02-19_14h08.28.236,comp,2024.2.4,57.188295928662974,2025-02-19 14h08.35.665505 -0500,
140,140,0,filler_random,None,None,None,None,None,None,None,None,None,None,1,2.104459047317505,None,,,,,0,0,0,0,0,140,140,138,580.1376152038574,,,,,,,,,,,,,,,,,,,,,,,,,,,,,,,,,,,,,,,,,,,,,,,,,,,,,,,,,,,,,,,,,,,,,,,,,,,,,,,,,150.92142615497738,153.32298177028463,70.50292234255522,197.5560801960636,116.62583763663892,130.2829714916498,1.0,1.1,-751,274,-480,258,-220,288,580.123428106308,580.1235461235046,580.1273143291473,580.1376152038574,580.2831468582153,580.2831468582153,580.2831468582153,580.2831468582153,580.2831468582153,580.2831468582153,580.2831468582153,582.2556614875793,1,2.104459047317505,None,,,,,,,,,,,,,,,,,,50,2,2025-02-19_14h08.28.236,comp,2024.2.4,57.188295928662974,2025-02-19 14h08.35.665505 -0500,
