thisN,thisTrialN,thisRepN,effect,order,distance,config,diag,h_1,w_1,h_2,w_2,h_3,w_3,rect_choice.keys,rect_choice.rt,rect_choice.duration,instructions_loop.thisRepN,instructions_loop.thisTrialN,instructions_loop.thisN,instructions_loop.thisIndex,blocks.thisRepN,blocks.thisTrialN,blocks.thisN,blocks.thisIndex,trials.thisRepN,trials.thisTrialN,trials.thisN,trials.thisIndex,thisRow.t,notes,consent.started,agree_button.started,decline_button.started,consent_img.started,mouse.started,consent.stopped,agree_button.numClicks,agree_button.timesOn,agree_button.timesOff,decline_button.numClicks,decline_button.timesOn,decline_button.timesOff,mouse.x,mouse.y,mouse.leftButton,mouse.midButton,mouse.rightButton,mouse.time,mouse.clicked_name,exp_params.started,exp_params.stopped,welcome.started,welcome_text.started,welcome.stopped,instructions_1.started,instructions_1_text_1.started,instructions_1_text_2.started,key_resp.started,instructions_1.stopped,instructions_loop.key_resp.keys,instructions_loop.key_resp.rt,instructions_loop.key_resp.duration,instructions_2.started,instructions_2_text_1.started,instructions_2_text_2.started,key_resp_2.started,instructions_2.stopped,instructions_loop.key_resp_2.keys,instructions_loop.key_resp_2.rt,instructions_loop.key_resp_2.duration,instructions_3.started,instructions_3_text_1.started,r1_instr3.started,r2_instr3.started,r3_instr3.started,r1_instr3_label.started,r2_instr3_label.started,r3_instr3_label.started,instructions_3_text_3.started,instructions_3_text_4.started,key_resp_3.started,instructions_3.stopped,instructions_loop.key_resp_3.keys,instructions_loop.key_resp_3.rt,instructions_loop.key_resp_3.duration,instructions_4.started,instructions_4_text_1.started,instructions_4_text_3.started,instructions_4_text_2.started,key_resp_4.started,instructions_4.stopped,instructions_loop.key_resp_4.keys,instructions_loop.key_resp_4.rt,instructions_loop.key_resp_4.duration,instructions_5.started,instructions_5_text_1.started,instructions_5_text_2.started,key_resp_5.started,instructions_5.stopped,instructions_loop.key_resp_5.keys,instructions_loop.key_resp_5.rt,instructions_loop.key_resp_5.duration,start_exp.started,start_exp_text.started,key_resp_6.started,start_exp.stopped,key_resp_6.keys,key_resp_6.rt,key_resp_6.duration,h_1_tmp,w_1_tmp,h_2_tmp,w_2_tmp,h_3_tmp,w_3_tmp,config_tmp,config_tmp_1,r_1_x,r_1_y,r_2_x,r_2_y,r_3_x,r_3_y,pre_trial.started,pre_trial.stopped,choice_trial.started,rect_choice.started,r_1.started,r_2.started,r_3.started,r_1_label.started,r_2_label.started,r_3_label.started,prompt.started,choice_trial.stopped,trials.rect_choice.keys,trials.rect_choice.rt,trials.rect_choice.duration,end_block.started,end_block_text.started,end_block.stopped,end.started,end_text.started,key_resp_7.started,end.stopped,key_resp_7.keys,key_resp_7.rt,key_resp_7.duration,debriefing.started,debrief_form.started,end_debrief.started,debriefing.stopped,end_debrief.keys,end_debrief.rt,end_debrief.duration,participant,computer,date,expName,psychopyVersion,frameRate,expStart,
,,,,,,,,,,,,,,,,,,,,,,,,,,,,,,,0.01572871208190918,0.042105913162231445,0.042105913162231445,0.042105913162231445,0.015416145324707031,27.771337509155273,1,[27.72803783416748],[27.728049516677856],0,,,[-38.0],[-498.0],[1],[0],[0],[27.75506043434143],['agree_button'],,,,,,,,,,,,,,,,,,,,,,,,,,,,,,,,,,,,,,,,,,,,,,,,,,,,,,,,,,,,,,,,,,,,,,,,,,,,,,,,,,,,,,,,,,,,,,,,,,,,,,,,,,,51,3,2025-02-19_14h08.50.344,comp,2024.2.4,60.19189979650471,2025-02-19 14h08.59.243031 -0500,
,,,,,,,,,,,,,,,,,,,,,,,,,,,,,,,,,,,,,,,,,,,,,,,,,,27.77159357070923,27.77162742614746,,,,,,,,,,,,,,,,,,,,,,,,,,,,,,,,,,,,,,,,,,,,,,,,,,,,,,,,,,,,,,,,,,,,,,,,,,,,,,,,,,,,,,,,,,,,,,,,,,,,,,,,,51,3,2025-02-19_14h08.50.344,comp,2024.2.4,60.19189979650471,2025-02-19 14h08.59.243031 -0500,
,,,,,,,,,,,,,,,,,,,,,,,,,,,,,,,,,,,,,,,,,,,,,,,,,,,,27.771649599075317,27.784855604171753,29.78310751914978,,,,,,,,,,,,,,,,,,,,,,,,,,,,,,,,,,,,,,,,,,,,,,,,,,,,,,,,,,,,,,,,,,,,,,,,,,,,,,,,,,,,,,,,,,,,,,,,,,,,,,51,3,2025-02-19_14h08.50.344,comp,2024.2.4,60.19189979650471,2025-02-19 14h08.59.243031 -0500,
0,0,0,,,,,,,,,,,,,,,0,0,0,0,,,,,,,,,29.799821853637695,,,,,,,,,,,,,,,,,,,,,,,,,,29.783674240112305,29.799821853637695,29.799821853637695,31.282748699188232,34.40134644508362,space,3.1094582080841064,None,34.40143346786499,34.41681408882141,34.41681408882141,35.91617441177368,44.88370990753174,space,8.954662561416626,None,44.88379430770874,44.905519008636475,44.905519008636475,44.905519008636475,44.905519008636475,44.905519008636475,44.905519008636475,44.905519008636475,44.905519008636475,44.905519008636475,46.38302683830261,50.40097522735596,space,4.000653028488159,None,50.40106272697449,50.41621279716492,50.41621279716492,50.41621279716492,51.91606688499451,55.31744074821472,space,3.3966362476348877,None,55.31752347946167,55.33333897590637,55.33333897590637,56.83315658569336,57.51722812652588,space,0.6784765720367432,None,57.517333030700684,57.532737255096436,57.532737255096436,58.633551836013794,space,1.0914907455444336,None,,,,,,,,,,,,,,,,,,,,,,,,,,,,,,,,,,,,,,,,,,,,,,,51,3,2025-02-19_14h08.50.344,comp,2024.2.4,60.19189979650471,2025-02-19 14h08.59.243031 -0500,
0,0,0,critical,hwd,20.0,4.0,lower,133.0,57.0,57.0,133.0,78.0,78.0,2,5.866595983505249,None,,,,,0,0,0,0,0,0,0,106,58.69290852546692,,,,,,,,,,,,,,,,,,,,,,,,,,,,,,,,,,,,,,,,,,,,,,,,,,,,,,,,,,,,,,,,,,,,,,,,,,,,,,,,,133.0,57.0,57.0,133.0,78.0,78.0,4.0,4.2,-191,14,0,-269,202,-7,58.67927670478821,58.67932343482971,58.6813383102417,58.69290852546692,58.8394079208374,58.8394079208374,58.8394079208374,58.8394079208374,58.8394079208374,58.8394079208374,58.8394079208374,64.56718277931213,2,5.866595983505249,None,,,,,,,,,,,,,,,,,,51,3,2025-02-19_14h08.50.344,comp,2024.2.4,60.19189979650471,2025-02-19 14h08.59.243031 -0500,
1,1,0,critical,wdh,20.0,1.0,lower,57.0,133.0,78.0,78.0,133.0,57.0,3,8.04118013381958,None,,,,,0,0,0,0,0,1,1,78,64.58275508880615,,,,,,,,,,,,,,,,,,,,,,,,,,,,,,,,,,,,,,,,,,,,,,,,,,,,,,,,,,,,,,,,,,,,,,,,,,,,,,,,,57.0,133.0,78.0,78.0,133.0,57.0,1.0,1.1,-682,253,-480,268,-316,283,64.56795144081116,64.56799030303955,64.5703194141388,64.58275508880615,64.73287916183472,64.73287916183472,64.73287916183472,64.73287916183472,64.73287916183472,64.73287916183472,64.73287916183472,72.63371753692627,3,8.04118013381958,None,,,,,,,,,,,,,,,,,,51,3,2025-02-19_14h08.50.344,comp,2024.2.4,60.19189979650471,2025-02-19 14h08.59.243031 -0500,
2,2,0,critical,hdw,20.0,2.1,upper,200.0,125.0,141.0,141.0,125.0,200.0,3,4.789162874221802,None,,,,,0,0,0,0,0,2,2,23,72.64935874938965,,,,,,,,,,,,,,,,,,,,,,,,,,,,,,,,,,,,,,,,,,,,,,,,,,,,,,,,,,,,,,,,,,,,,,,,,,,,,,,,,200.0,125.0,141.0,141.0,125.0,200.0,2.1,2.12,-229,-252,0,-277,266,280,72.63453364372253,72.63457369804382,72.637197971344,72.64935874938965,72.79944038391113,72.79944038391113,72.79944038391113,72.79944038391113,72.79944038391113,72.79944038391113,72.79944038391113,77.4513521194458,3,4.789162874221802,None,,,,,,,,,,,,,,,,,,51,3,2025-02-19_14h08.50.344,comp,2024.2.4,60.19189979650471,2025-02-19 14h08.59.243031 -0500,
3,3,0,critical,hdw,20.0,4.0,lower,133.0,57.0,78.0,78.0,57.0,133.0,3,4.733551502227783,None,,,,,0,0,0,0,0,3,3,118,77.46582698822021,,,,,,,,,,,,,,,,,,,,,,,,,,,,,,,,,,,,,,,,,,,,,,,,,,,,,,,,,,,,,,,,,,,,,,,,,,,,,,,,,133.0,57.0,78.0,78.0,57.0,133.0,4.0,4.1,-164,-256,0,-7,202,-289,77.45215344429016,77.45219206809998,77.45420241355896,77.46582698822021,77.61577153205872,77.61577153205872,77.61577153205872,77.61577153205872,77.61577153205872,77.61577153205872,77.61577153205872,82.21685886383057,3,4.733551502227783,None,,,,,,,,,,,,,,,,,,51,3,2025-02-19_14h08.50.344,comp,2024.2.4,60.19189979650471,2025-02-19 14h08.59.243031 -0500,
4,4,0,filler_random,None,None,None,None,None,None,None,None,None,None,1,1.9429950714111328,None,,,,,0,0,0,0,0,4,4,160,82.23241353034973,,,,,,,,,,,,,,,,,,,,,,,,,,,,,,,,,,,,,,,,,,,,,,,,,,,,,,,,,,,,,,,,,,,,,,,,,,,,,,,,,157.25951786620246,189.19460706858948,64.3826988411679,77.04368418237397,104.61909718327263,103.11503237609793,4.0,4.1,-229,-277,0,4,186,-282,82.21777415275574,82.21781539916992,82.2211081981659,82.23241353034973,82.3825352191925,82.3825352191925,82.3825352191925,82.3825352191925,82.3825352191925,82.3825352191925,82.3825352191925,84.18362474441528,1,1.9429950714111328,None,,,,,,,,,,,,,,,,,,51,3,2025-02-19_14h08.50.344,comp,2024.2.4,60.19189979650471,2025-02-19 14h08.59.243031 -0500,
5,5,0,filler_random,None,None,None,None,None,None,None,None,None,None,2,1.7920641899108887,None,,,,,0,0,0,0,0,5,5,138,84.19927668571472,,,,,,,,,,,,,,,,,,,,,,,,,,,,,,,,,,,,,,,,,,,,,,,,,,,,,,,,,,,,,,,,,,,,,,,,,,,,,,,,,192.07978646970463,108.2557788434106,132.6777377832415,195.00672092892728,146.3828453960552,58.72916481381538,3.0,3.1,-248,254,0,-11,223,-275,84.18452191352844,84.18456149101257,84.18708491325378,84.19927668571472,84.34932327270508,84.34932327270508,84.34932327270508,84.34932327270508,84.34932327270508,84.34932327270508,84.34932327270508,86.00042939186096,2,1.7920641899108887,None,,,,,,,,,,,,,,,,,,51,3,2025-02-19_14h08.50.344,comp,2024.2.4,60.19189979650471,2025-02-19 14h08.59.243031 -0500,
6,6,0,critical,dwh,20.0,2.1,lower,78.0,78.0,57.0,133.0,133.0,57.0,3,2.1027143001556396,None,,,,,0,0,0,0,0,6,6,6,86.01601243019104,,,,,,,,,,,,,,,,,,,,,,,,,,,,,,,,,,,,,,,,,,,,,,,,,,,,,,,,,,,,,,,,,,,,,,,,,,,,,,,,,78.0,78.0,57.0,133.0,133.0,57.0,2.1,2.12,-202,-251,0,-283,191,270,86.00123405456543,86.0012755393982,86.00341939926147,86.01601243019104,86.16583514213562,86.16583514213562,86.16583514213562,86.16583514213562,86.16583514213562,86.16583514213562,86.16583514213562,88.13353204727173,3,2.1027143001556396,None,,,,,,,,,,,,,,,,,,51,3,2025-02-19_14h08.50.344,comp,2024.2.4,60.19189979650471,2025-02-19 14h08.59.243031 -0500,
7,7,0,critical,dwh,35.0,3.0,upper,127.0,127.0,125.0,200.0,200.0,125.0,2,1.4268016815185547,None,,,,,0,0,0,0,0,7,7,63,88.14892983436584,,,,,,,,,,,,,,,,,,,,,,,,,,,,,,,,,,,,,,,,,,,,,,,,,,,,,,,,,,,,,,,,,,,,,,,,,,,,,,,,,127.0,127.0,125.0,200.0,200.0,125.0,3.0,3.2,-260,-259,0,14,258,252,88.13434481620789,88.13438510894775,88.13687825202942,88.14892983436584,88.2992811203003,88.2992811203003,88.2992811203003,88.2992811203003,88.2992811203003,88.2992811203003,88.2992811203003,89.58382558822632,2,1.4268016815185547,None,,,,,,,,,,,,,,,,,,51,3,2025-02-19_14h08.50.344,comp,2024.2.4,60.19189979650471,2025-02-19 14h08.59.243031 -0500,
8,8,0,critical,wdh,20.0,2.1,upper,125.0,200.0,141.0,141.0,200.0,125.0,1,6.7918455600738525,None,,,,,0,0,0,0,0,8,8,11,89.59939384460449,,,,,,,,,,,,,,,,,,,,,,,,,,,,,,,,,,,,,,,,,,,,,,,,,,,,,,,,,,,,,,,,,,,,,,,,,,,,,,,,,125.0,200.0,141.0,141.0,200.0,125.0,2.1,2.11,-266,290,0,265,229,-274,89.58460259437561,89.584641456604,89.5881278514862,89.59939384460449,89.7492425441742,89.7492425441742,89.7492425441742,89.7492425441742,89.7492425441742,89.7492425441742,89.7492425441742,96.4003598690033,1,6.7918455600738525,None,,,,,,,,,,,,,,,,,,51,3,2025-02-19_14h08.50.344,comp,2024.2.4,60.19189979650471,2025-02-19 14h08.59.243031 -0500,
9,9,0,critical,dwh,20.0,2.1,upper,141.0,141.0,125.0,200.0,200.0,125.0,2,2.9274327754974365,None,,,,,0,0,0,0,0,9,9,31,96.4158365726471,,,,,,,,,,,,,,,,,,,,,,,,,,,,,,,,,,,,,,,,,,,,,,,,,,,,,,,,,,,,,,,,,,,,,,,,,,,,,,,,,141.0,141.0,125.0,200.0,200.0,125.0,2.1,2.12,-266,-276,0,-258,258,279,96.40117287635803,96.40121388435364,96.40338516235352,96.4158365726471,96.56594944000244,96.56594944000244,96.56594944000244,96.56594944000244,96.56594944000244,96.56594944000244,96.56594944000244,99.35029625892639,2,2.9274327754974365,None,,,,,,,,,,,,,,,,,,51,3,2025-02-19_14h08.50.344,comp,2024.2.4,60.19189979650471,2025-02-19 14h08.59.243031 -0500,
10,10,0,critical,wdh,20.0,3.0,lower,57.0,133.0,78.0,78.0,133.0,57.0,1,2.1686482429504395,None,,,,,0,0,0,0,0,10,10,80,99.36583709716797,,,,,,,,,,,,,,,,,,,,,,,,,,,,,,,,,,,,,,,,,,,,,,,,,,,,,,,,,,,,,,,,,,,,,,,,,,,,,,,,,57.0,133.0,78.0,78.0,133.0,57.0,3.0,3.2,-202,-262,0,18,164,277,99.35106182098389,99.35109901428223,99.35344052314758,99.36583709716797,99.51570081710815,99.51570081710815,99.51570081710815,99.51570081710815,99.51570081710815,99.51570081710815,99.51570081710815,101.55014944076538,1,2.1686482429504395,None,,,,,,,,,,,,,,,,,,51,3,2025-02-19_14h08.50.344,comp,2024.2.4,60.19189979650471,2025-02-19 14h08.59.243031 -0500,
11,11,0,catch,None,None,None,None,None,None,None,None,None,None,2,1.8834507465362549,None,,,,,0,0,0,0,0,11,11,123,101.56560707092285,,,,,,,,,,,,,,,,,,,,,,,,,,,,,,,,,,,,,,,,,,,,,,,,,,,,,,,,,,,,,,,,,,,,,,,,,,,,,,,,,62,128,131,194,130,60,4.0,4.2,-257,-13,0,-274,223,0,101.55115628242493,101.55119633674622,101.55356097221375,101.56560707092285,101.71576118469238,101.71576118469238,101.71576118469238,101.71576118469238,101.71576118469238,101.71576118469238,101.71576118469238,103.45041942596436,2,1.8834507465362549,None,,,,,,,,,,,,,,,,,,51,3,2025-02-19_14h08.50.344,comp,2024.2.4,60.19189979650471,2025-02-19 14h08.59.243031 -0500,
12,12,0,filler_random,None,None,None,None,None,None,None,None,None,None,3,3.6454148292541504,None,,,,,0,0,0,0,0,12,12,151,103.46572518348694,,,,,,,,,,,,,,,,,,,,,,,,,,,,,,,,,,,,,,,,,,,,,,,,,,,,,,,,,,,,,,,,,,,,,,,,,,,,,,,,,143.24512983624874,60.55969437173894,181.48615183731482,95.62746432131458,155.9771763991253,116.29579935152408,2.2,2.22,-174,285,0,-264,202,-277,103.45132088661194,103.4513623714447,103.45379972457886,103.46572518348694,103.6157751083374,103.6157751083374,103.6157751083374,103.6157751083374,103.6157751083374,103.6157751083374,103.6157751083374,107.11690378189087,3,3.6454148292541504,None,,,,,,,,,,,,,,,,,,51,3,2025-02-19_14h08.50.344,comp,2024.2.4,60.19189979650471,2025-02-19 14h08.59.243031 -0500,
13,13,0,critical,hdw,35.0,1.0,lower,133.0,57.0,70.0,70.0,57.0,133.0,3,1.3057653903961182,None,,,,,0,0,0,0,0,13,13,108,107.13242936134338,,,,,,,,,,,,,,,,,,,,,,,,,,,,,,,,,,,,,,,,,,,,,,,,,,,,,,,,,,,,,,,,,,,,,,,,,,,,,,,,,133.0,57.0,70.0,70.0,57.0,133.0,1.0,1.2,-160,-2,0,-3,198,-9,107.11769413948059,107.11773467063904,107.12001824378967,107.13242936134338,107.28269362449646,107.28269362449646,107.28269362449646,107.28269362449646,107.28269362449646,107.28269362449646,107.28269362449646,108.45058298110962,3,1.3057653903961182,None,,,,,,,,,,,,,,,,,,51,3,2025-02-19_14h08.50.344,comp,2024.2.4,60.19189979650471,2025-02-19 14h08.59.243031 -0500,
14,14,0,filler_random,None,None,None,None,None,None,None,None,None,None,2,1.0456814765930176,None,,,,,0,0,0,0,0,14,14,156,108.46552681922913,,,,,,,,,,,,,,,,,,,,,,,,,,,,,,,,,,,,,,,,,,,,,,,,,,,,,,,,,,,,,,,,,,,,,,,,,,,,,,,,,82.17585680534472,78.29512959944364,165.41340028941687,122.38252756150959,100.1756383591188,130.48694167115028,2.2,2.21,-196,-272,0,255,222,288,108.45153713226318,108.45157861709595,108.4542281627655,108.46552681922913,108.61572504043579,108.61572504043579,108.61572504043579,108.61572504043579,108.61572504043579,108.61572504043579,108.61572504043579,109.51682186126709,2,1.0456814765930176,None,,,,,,,,,,,,,,,,,,51,3,2025-02-19_14h08.50.344,comp,2024.2.4,60.19189979650471,2025-02-19 14h08.59.243031 -0500,
15,15,0,filler_square,None,None,None,None,None,None,None,None,None,None,3,1.6339116096496582,None,,,,,0,0,0,0,0,15,15,204,109.53241491317749,,,,,,,,,,,,,,,,,,,,,,,,,,,,,,,,,,,,,,,,,,,,,,,,,,,,,,,,,,,,,,,,,,,,,,,,,,,,,,,,,83.90179311387831,91.41492803621549,95.79674355649948,78.72192861001817,108.33630075825457,108.33630075825457,1.0,1.3,299,-253,480,-254,670,-277,109.51777958869934,109.51782011985779,109.52033877372742,109.53241491317749,109.68225574493408,109.68225574493408,109.68225574493408,109.68225574493408,109.68225574493408,109.68225574493408,109.68225574493408,111.18349528312683,3,1.6339116096496582,None,,,,,,,,,,,,,,,,,,51,3,2025-02-19_14h08.50.344,comp,2024.2.4,60.19189979650471,2025-02-19 14h08.59.243031 -0500,
16,16,0,filler_square,None,None,None,None,None,None,None,None,None,None,3,1.4393470287322998,None,,,,,0,0,0,0,0,16,16,180,111.19888758659363,,,,,,,,,,,,,,,,,,,,,,,,,,,,,,,,,,,,,,,,,,,,,,,,,,,,,,,,,,,,,,,,,,,,,,,,,,,,,,,,,112.55495094673915,145.08554468805482,80.13725041988349,84.97018343264915,161.60283006056488,161.60283006056488,2.2,2.22,-211,259,0,-279,219,-289,111.18445134162903,111.18449115753174,111.18696188926697,111.19888758659363,111.34909248352051,111.34909248352051,111.34909248352051,111.34909248352051,111.34909248352051,111.34909248352051,111.34909248352051,112.65032196044922,3,1.4393470287322998,None,,,,,,,,,,,,,,,,,,51,3,2025-02-19_14h08.50.344,comp,2024.2.4,60.19189979650471,2025-02-19 14h08.59.243031 -0500,
17,17,0,filler_random,None,None,None,None,None,None,None,None,None,None,1,4.500805139541626,None,,,,,0,0,0,0,0,17,17,147,112.66550207138062,,,,,,,,,,,,,,,,,,,,,,,,,,,,,,,,,,,,,,,,,,,,,,,,,,,,,,,,,,,,,,,,,,,,,,,,,,,,,,,,,151.0041562905043,119.82349346718134,167.31590179813142,87.87461168347313,176.5974104342386,71.76166287568924,1.0,1.3,280,-274,480,-256,656,-289,112.65121459960938,112.65125632286072,112.65366983413696,112.66550207138062,112.81573987007141,112.81573987007141,112.81573987007141,112.81573987007141,112.81573987007141,112.81573987007141,112.81573987007141,117.18350267410278,1,4.500805139541626,None,,,,,,,,,,,,,,,,,,51,3,2025-02-19_14h08.50.344,comp,2024.2.4,60.19189979650471,2025-02-19 14h08.59.243031 -0500,
18,18,0,critical,whd,20.0,3.0,lower,57.0,133.0,133.0,57.0,78.0,78.0,1,4.535529613494873,None,,,,,0,0,0,0,0,18,18,92,117.19880032539368,,,,,,,,,,,,,,,,,,,,,,,,,,,,,,,,,,,,,,,,,,,,,,,,,,,,,,,,,,,,,,,,,,,,,,,,,,,,,,,,,57.0,133.0,133.0,57.0,78.0,78.0,3.0,3.2,-191,-261,0,-15,164,276,117.18432903289795,117.18437051773071,117.18685936927795,117.19880032539368,117.34908509254456,117.34908509254456,117.34908509254456,117.34908509254456,117.34908509254456,117.34908509254456,117.34908509254456,121.75003743171692,1,4.535529613494873,None,,,,,,,,,,,,,,,,,,51,3,2025-02-19_14h08.50.344,comp,2024.2.4,60.19189979650471,2025-02-19 14h08.59.243031 -0500,
19,19,0,critical,whd,35.0,4.0,upper,125.0,200.0,200.0,125.0,127.0,127.0,1,2.29972505569458,None,,,,,0,0,0,0,0,19,19,89,121.7653226852417,,,,,,,,,,,,,,,,,,,,,,,,,,,,,,,,,,,,,,,,,,,,,,,,,,,,,,,,,,,,,,,,,,,,,,,,,,,,,,,,,125.0,200.0,200.0,125.0,127.0,127.0,4.0,4.2,-258,7,0,-270,222,4,121.75080275535583,121.75084233283997,121.75315117835999,121.7653226852417,121.91576170921326,121.91576170921326,121.91576170921326,121.91576170921326,121.91576170921326,121.91576170921326,121.91576170921326,124.06688070297241,1,2.29972505569458,None,,,,,,,,,,,,,,,,,,51,3,2025-02-19_14h08.50.344,comp,2024.2.4,60.19189979650471,2025-02-19 14h08.59.243031 -0500,
20,20,0,critical,dwh,20.0,1.0,upper,141.0,141.0,125.0,200.0,200.0,125.0,2,6.1825175285339355,None,,,,,0,0,0,0,0,20,20,67,124.08231544494629,,,,,,,,,,,,,,,,,,,,,,,,,,,,,,,,,,,,,,,,,,,,,,,,,,,,,,,,,,,,,,,,,,,,,,,,,,,,,,,,,141.0,141.0,125.0,200.0,200.0,125.0,1.0,1.3,214,-269,480,-252,738,-254,124.0676839351654,124.06772589683533,124.06987619400024,124.08231544494629,124.23252129554749,124.23252129554749,124.23252129554749,124.23252129554749,124.23252129554749,124.23252129554749,124.23252129554749,130.26707768440247,2,6.1825175285339355,None,,,,,,,,,,,,,,,,,,51,3,2025-02-19_14h08.50.344,comp,2024.2.4,60.19189979650471,2025-02-19 14h08.59.243031 -0500,
21,21,0,filler_square,None,None,None,None,None,None,None,None,None,None,1,2.260831832885742,None,,,,,0,0,0,0,0,21,21,191,130.2823257446289,,,,,,,,,,,,,,,,,,,,,,,,,,,,,,,,,,,,,,,,,,,,,,,,,,,,,,,,,,,,,,,,,,,,,,,,,,,,,,,,,141.16008319552512,141.16008319552512,120.53310460617942,88.0992196921894,91.88543564170436,121.433820464153,2.2,2.21,-211,-277,0,256,201,264,130.26804876327515,130.26809096336365,130.27025866508484,130.2823257446289,130.4322669506073,130.4322669506073,130.4322669506073,130.4322669506073,130.4322669506073,130.4322669506073,130.4322669506073,132.54985880851746,1,2.260831832885742,None,,,,,,,,,,,,,,,,,,51,3,2025-02-19_14h08.50.344,comp,2024.2.4,60.19189979650471,2025-02-19 14h08.59.243031 -0500,
22,22,0,critical,dwh,35.0,3.0,lower,70.0,70.0,57.0,133.0,133.0,57.0,2,2.2254464626312256,None,,,,,0,0,0,0,0,22,22,62,132.56566619873047,,,,,,,,,,,,,,,,,,,,,,,,,,,,,,,,,,,,,,,,,,,,,,,,,,,,,,,,,,,,,,,,,,,,,,,,,,,,,,,,,70.0,70.0,57.0,133.0,133.0,57.0,3.0,3.1,-198,277,0,17,191,-271,132.55066895484924,132.55071210861206,132.55295848846436,132.56566619873047,132.71556067466736,132.71556067466736,132.71556067466736,132.71556067466736,132.71556067466736,132.71556067466736,132.71556067466736,134.79982614517212,2,2.2254464626312256,None,,,,,,,,,,,,,,,,,,51,3,2025-02-19_14h08.50.344,comp,2024.2.4,60.19189979650471,2025-02-19 14h08.59.243031 -0500,
23,23,0,filler_square,None,None,None,None,None,None,None,None,None,None,2,1.486638069152832,None,,,,,0,0,0,0,0,23,23,170,134.81560587882996,,,,,,,,,,,,,,,,,,,,,,,,,,,,,,,,,,,,,,,,,,,,,,,,,,,,,,,,,,,,,,,,,,,,,,,,,,,,,,,,,57.2006521954052,71.52047451678268,72.81579593929006,72.81579593929006,69.60728081413147,60.14822334194586,2.2,2.21,-168,-269,0,282,162,271,134.80082535743713,134.8008692264557,134.80301308631897,134.81560587882996,134.96547842025757,134.96547842025757,134.96547842025757,134.96547842025757,134.96547842025757,134.96547842025757,134.96547842025757,136.31670427322388,2,1.486638069152832,None,,,,,,,,,,,,,,,,,,51,3,2025-02-19_14h08.50.344,comp,2024.2.4,60.19189979650471,2025-02-19 14h08.59.243031 -0500,
24,24,0,filler_square,None,None,None,None,None,None,None,None,None,None,2,2.3789467811584473,None,,,,,0,0,0,0,0,24,24,183,136.3320391178131,,,,,,,,,,,,,,,,,,,,,,,,,,,,,,,,,,,,,,,,,,,,,,,,,,,,,,,,,,,,,,,,,,,,,,,,,,,,,,,,,105.00239293469241,65.7572510051462,105.8091875590667,105.8091875590667,57.99443996772226,59.40848403050175,2.2,2.22,-182,289,0,-280,179,-278,136.31768584251404,136.3177261352539,136.32028579711914,136.3320391178131,136.48252749443054,136.48252749443054,136.48252749443054,136.48252749443054,136.48252749443054,136.48252749443054,136.48252749443054,138.7167146205902,2,2.3789467811584473,None,,,,,,,,,,,,,,,,,,51,3,2025-02-19_14h08.50.344,comp,2024.2.4,60.19189979650471,2025-02-19 14h08.59.243031 -0500,
25,25,0,filler_random,None,None,None,None,None,None,None,None,None,None,2,1.6746904850006104,None,,,,,0,0,0,0,0,25,25,140,138.73228335380554,,,,,,,,,,,,,,,,,,,,,,,,,,,,,,,,,,,,,,,,,,,,,,,,,,,,,,,,,,,,,,,,,,,,,,,,,,,,,,,,,172.76681066488584,80.21182356334214,104.84705591308378,158.63250482511305,137.94831742838008,73.60801776969463,4.0,4.2,-215,-7,0,-254,212,8,138.71759176254272,138.7176308631897,138.7201063632965,138.73228335380554,138.88210535049438,138.88210535049438,138.88210535049438,138.88210535049438,138.88210535049438,138.88210535049438,138.88210535049438,140.41657423973083,2,1.6746904850006104,None,,,,,,,,,,,,,,,,,,51,3,2025-02-19_14h08.50.344,comp,2024.2.4,60.19189979650471,2025-02-19 14h08.59.243031 -0500,
26,26,0,filler_random,None,None,None,None,None,None,None,None,None,None,1,1.2544732093811035,None,,,,,0,0,0,0,0,26,26,155,140.43229508399963,,,,,,,,,,,,,,,,,,,,,,,,,,,,,,,,,,,,,,,,,,,,,,,,,,,,,,,,,,,,,,,,,,,,,,,,,,,,,,,,,166.54210342058508,180.15931143380698,175.26308351465474,61.83317128486269,98.0124746267403,175.04928210278229,2.1,2.11,-217,282,0,284,214,-289,140.4174861907959,140.41752743721008,140.42000460624695,140.43229508399963,140.58232855796814,140.58232855796814,140.58232855796814,140.58232855796814,140.58232855796814,140.58232855796814,140.58232855796814,141.70004439353943,1,1.2544732093811035,None,,,,,,,,,,,,,,,,,,51,3,2025-02-19_14h08.50.344,comp,2024.2.4,60.19189979650471,2025-02-19 14h08.59.243031 -0500,
27,27,0,filler_square,None,None,None,None,None,None,None,None,None,None,2,0.9649949073791504,None,,,,,0,0,0,0,0,27,27,197,141.7154712677002,,,,,,,,,,,,,,,,,,,,,,,,,,,,,,,,,,,,,,,,,,,,,,,,,,,,,,,,,,,,,,,,,,,,,,,,,,,,,,,,,114.276645237899,103.20853865661235,150.987201848652,150.987201848652,127.35347285155174,66.43612966926004,2.1,2.11,-223,286,0,283,205,-264,141.70100283622742,141.70104432106018,141.70429825782776,141.7154712677002,141.86611247062683,141.86611247062683,141.86611247062683,141.86611247062683,141.86611247062683,141.86611247062683,141.86611247062683,142.6833679676056,2,0.9649949073791504,None,,,,,,,,,,,,,,,,,,51,3,2025-02-19_14h08.50.344,comp,2024.2.4,60.19189979650471,2025-02-19 14h08.59.243031 -0500,
28,28,0,critical,dhw,20.0,3.0,upper,141.0,141.0,200.0,125.0,125.0,200.0,3,2.3084990978240967,None,,,,,0,0,0,0,0,28,28,57,142.69886565208435,,,,,,,,,,,,,,,,,,,,,,,,,,,,,,,,,,,,,,,,,,,,,,,,,,,,,,,,,,,,,,,,,,,,,,,,,,,,,,,,,141.0,141.0,200.0,125.0,125.0,200.0,3.0,3.1,-229,260,0,17,258,-253,142.68415880203247,142.68419933319092,142.68677520751953,142.69886565208435,142.84884929656982,142.84884929656982,142.84884929656982,142.84884929656982,142.84884929656982,142.84884929656982,142.84884929656982,145.01686358451843,3,2.3084990978240967,None,,,,,,,,,,,,,,,,,,51,3,2025-02-19_14h08.50.344,comp,2024.2.4,60.19189979650471,2025-02-19 14h08.59.243031 -0500,
29,29,0,filler_square,None,None,None,None,None,None,None,None,None,None,1,1.2858610153198242,None,,,,,0,0,0,0,0,29,29,207,145.0323359966278,,,,,,,,,,,,,,,,,,,,,,,,,,,,,,,,,,,,,,,,,,,,,,,,,,,,,,,,,,,,,,,,,,,,,,,,,,,,,,,,,155.87820191500623,155.87820191500623,130.49685652374245,87.67165444932033,75.99236984717507,122.75050417891362,3.0,3.1,-218,285,0,15,201,-268,145.01779580116272,145.017835855484,145.02035284042358,145.0323359966278,145.18215417861938,145.18215417861938,145.18215417861938,145.18215417861938,145.18215417861938,145.18215417861938,145.18215417861938,146.33326601982117,1,1.2858610153198242,None,,,,,,,,,,,,,,,,,,51,3,2025-02-19_14h08.50.344,comp,2024.2.4,60.19189979650471,2025-02-19 14h08.59.243031 -0500,
30,30,0,filler_random,None,None,None,None,None,None,None,None,None,None,1,1.2894032001495361,None,,,,,0,0,0,0,0,30,30,144,146.3485689163208,,,,,,,,,,,,,,,,,,,,,,,,,,,,,,,,,,,,,,,,,,,,,,,,,,,,,,,,,,,,,,,,,,,,,,,,,,,,,,,,,115.67032989382088,192.61973862306252,104.7468922394555,187.15547807799783,67.03035501094638,68.66604685997595,2.1,2.11,-286,289,0,261,224,-260,146.33417105674744,146.33421182632446,146.33659482002258,146.3485689163208,146.49877858161926,146.49877858161926,146.49877858161926,146.49877858161926,146.49877858161926,146.49877858161926,146.49877858161926,147.65024852752686,1,1.2894032001495361,None,,,,,,,,,,,,,,,,,,51,3,2025-02-19_14h08.50.344,comp,2024.2.4,60.19189979650471,2025-02-19 14h08.59.243031 -0500,
31,31,0,filler_random,None,None,None,None,None,None,None,None,None,None,2,1.284834384918213,None,,,,,0,0,0,0,0,31,31,168,147.66527390480042,,,,,,,,,,,,,,,,,,,,,,,,,,,,,,,,,,,,,,,,,,,,,,,,,,,,,,,,,,,,,,,,,,,,,,,,,,,,,,,,,85.60076977198318,57.58624490424936,136.3823740323036,57.55045331707096,100.4584736832413,63.79488852708382,2.2,2.21,-154,-256,0,273,157,282,147.6511800289154,147.65122056007385,147.653644323349,147.66527390480042,147.81533122062683,147.81533122062683,147.81533122062683,147.81533122062683,147.81533122062683,147.81533122062683,147.81533122062683,148.96642518043518,2,1.284834384918213,None,,,,,,,,,,,,,,,,,,51,3,2025-02-19_14h08.50.344,comp,2024.2.4,60.19189979650471,2025-02-19 14h08.59.243031 -0500,
32,32,0,critical,hwd,20.0,1.0,upper,200.0,125.0,125.0,200.0,141.0,141.0,1,6.936852693557739,None,,,,,0,0,0,0,0,32,32,103,148.98195433616638,,,,,,,,,,,,,,,,,,,,,,,,,,,,,,,,,,,,,,,,,,,,,,,,,,,,,,,,,,,,,,,,,,,,,,,,,,,,,,,,,200.0,125.0,125.0,200.0,141.0,141.0,1.0,1.2,-258,-17,0,-11,266,14,148.96720385551453,148.96724224090576,148.96970462799072,148.98195433616638,149.13229894638062,149.13229894638062,149.13229894638062,149.13229894638062,149.13229894638062,149.13229894638062,149.13229894638062,155.93348693847656,1,6.936852693557739,None,,,,,,,,,,,,,,,,,,51,3,2025-02-19_14h08.50.344,comp,2024.2.4,60.19189979650471,2025-02-19 14h08.59.243031 -0500,
33,33,0,filler_square,None,None,None,None,None,None,None,None,None,None,2,1.138077735900879,None,,,,,0,0,0,0,0,33,33,201,155.94858622550964,,,,,,,,,,,,,,,,,,,,,,,,,,,,,,,,,,,,,,,,,,,,,,,,,,,,,,,,,,,,,,,,,,,,,,,,,,,,,,,,,77.37927145994166,75.09895720340587,79.94507127580655,79.94507127580655,63.78977407061687,65.7661935602937,4.0,4.1,-174,-279,0,1,169,-278,155.93443369865417,155.9344732761383,155.93684148788452,155.94858622550964,156.0986397266388,156.0986397266388,156.0986397266388,156.0986397266388,156.0986397266388,156.0986397266388,156.0986397266388,157.09964084625244,2,1.138077735900879,None,,,,,,,,,,,,,,,,,,51,3,2025-02-19_14h08.50.344,comp,2024.2.4,60.19189979650471,2025-02-19 14h08.59.243031 -0500,
34,34,0,critical,wdh,35.0,2.1,upper,125.0,200.0,127.0,127.0,200.0,125.0,1,2.3715436458587646,None,,,,,0,0,0,0,0,34,34,9,157.11511516571045,,,,,,,,,,,,,,,,,,,,,,,,,,,,,,,,,,,,,,,,,,,,,,,,,,,,,,,,,,,,,,,,,,,,,,,,,,,,,,,,,125.0,200.0,127.0,127.0,200.0,125.0,2.1,2.11,-260,252,0,266,222,-263,157.10045170783997,157.10049080848694,157.10304927825928,157.11511516571045,157.2658884525299,157.2658884525299,157.2658884525299,157.2658884525299,157.2658884525299,157.2658884525299,157.2658884525299,159.49988079071045,1,2.3715436458587646,None,,,,,,,,,,,,,,,,,,51,3,2025-02-19_14h08.50.344,comp,2024.2.4,60.19189979650471,2025-02-19 14h08.59.243031 -0500,
35,35,0,filler_random,None,None,None,None,None,None,None,None,None,None,1,3.108011245727539,None,,,,,0,0,0,0,0,35,35,143,159.51516318321228,,,,,,,,,,,,,,,,,,,,,,,,,,,,,,,,,,,,,,,,,,,,,,,,,,,,,,,,,,,,,,,,,,,,,,,,,,,,,,,,,153.79988834900445,152.2082582469992,121.44523873830343,199.74659499335112,95.43471359195597,57.770507108473794,1.0,1.1,-752,255,-480,269,-255,273,159.50081777572632,159.5008568763733,159.5029489994049,159.51516318321228,159.66537237167358,159.66537237167358,159.66537237167358,159.66537237167358,159.66537237167358,159.66537237167358,159.66537237167358,162.6332721710205,1,3.108011245727539,None,,,,,,,,,,,,,,,,,,51,3,2025-02-19_14h08.50.344,comp,2024.2.4,60.19189979650471,2025-02-19 14h08.59.243031 -0500,
36,36,0,critical,hdw,35.0,4.0,upper,200.0,125.0,127.0,127.0,125.0,200.0,3,2.293976068496704,None,,,,,0,0,0,0,0,36,36,113,162.64878487586975,,,,,,,,,,,,,,,,,,,,,,,,,,,,,,,,,,,,,,,,,,,,,,,,,,,,,,,,,,,,,,,,,,,,,,,,,,,,,,,,,200.0,125.0,127.0,127.0,125.0,200.0,4.0,4.2,-222,-8,0,-257,260,-17,162.6340663433075,162.63410592079163,162.63649153709412,162.64878487586975,162.79878687858582,162.79878687858582,162.79878687858582,162.79878687858582,162.79878687858582,162.79878687858582,162.79878687858582,164.9498565196991,3,2.293976068496704,None,,,,,,,,,,,,,,,,,,51,3,2025-02-19_14h08.50.344,comp,2024.2.4,60.19189979650471,2025-02-19 14h08.59.243031 -0500,
37,37,0,filler_square,None,None,None,None,None,None,None,None,None,None,2,0.98455810546875,None,,,,,0,0,0,0,0,37,37,184,164.9654507637024,,,,,,,,,,,,,,,,,,,,,,,,,,,,,,,,,,,,,,,,,,,,,,,,,,,,,,,,,,,,,,,,,,,,,,,,,,,,,,,,,68.43938893931508,67.47536037060208,73.36698294152191,73.36698294152191,66.75005012353907,62.750851634736414,4.0,4.1,-166,-277,0,-10,164,-282,164.9508092403412,164.9508514404297,164.95296430587769,164.9654507637024,165.11520266532898,165.11520266532898,165.11520266532898,165.11520266532898,165.11520266532898,165.11520266532898,165.11520266532898,165.96623921394348,2,0.98455810546875,None,,,,,,,,,,,,,,,,,,51,3,2025-02-19_14h08.50.344,comp,2024.2.4,60.19189979650471,2025-02-19 14h08.59.243031 -0500,
38,38,0,filler_square,None,None,None,None,None,None,None,None,None,None,2,1.2249221801757812,None,,,,,0,0,0,0,0,38,38,193,165.98185515403748,,,,,,,,,,,,,,,,,,,,,,,,,,,,,,,,,,,,,,,,,,,,,,,,,,,,,,,,,,,,,,,,,,,,,,,,,,,,,,,,,103.30264075529118,89.03982852153807,165.57500794143434,165.57500794143434,107.6019615656417,61.39085607944519,4.0,4.2,-223,20,0,-277,209,-2,165.96718668937683,165.96722960472107,165.9696409702301,165.98185515403748,166.13205814361572,166.13205814361572,166.13205814361572,166.13205814361572,166.13205814361572,166.13205814361572,166.13205814361572,167.21673130989075,2,1.2249221801757812,None,,,,,,,,,,,,,,,,,,51,3,2025-02-19_14h08.50.344,comp,2024.2.4,60.19189979650471,2025-02-19 14h08.59.243031 -0500,
39,39,0,filler_square,None,None,None,None,None,None,None,None,None,None,2,1.4544808864593506,None,,,,,0,0,0,0,0,39,39,182,167.2321696281433,,,,,,,,,,,,,,,,,,,,,,,,,,,,,,,,,,,,,,,,,,,,,,,,,,,,,,,,,,,,,,,,,,,,,,,,,,,,,,,,,120.68662619745884,89.66523435343369,127.8615933102429,127.8615933102429,66.06852954286612,117.56804432442587,2.2,2.22,-205,287,0,-274,219,-259,167.21772384643555,167.2177653312683,167.2202548980713,167.2321696281433,167.3820321559906,167.3820321559906,167.3820321559906,167.3820321559906,167.3820321559906,167.3820321559906,167.3820321559906,168.6997241973877,2,1.4544808864593506,None,,,,,,,,,,,,,,,,,,51,3,2025-02-19_14h08.50.344,comp,2024.2.4,60.19189979650471,2025-02-19 14h08.59.243031 -0500,
40,40,0,filler_square,None,None,None,None,None,None,None,None,None,None,1,1.0674617290496826,None,,,,,0,0,0,0,0,40,40,208,168.71513104438782,,,,,,,,,,,,,,,,,,,,,,,,,,,,,,,,,,,,,,,,,,,,,,,,,,,,,,,,,,,,,,,,,,,,,,,,,,,,,,,,,188.75373638873333,188.75373638873333,160.12652682039152,101.45010811666447,105.98926277615136,61.1062117046192,2.1,2.11,-241,274,0,289,177,-256,168.70067024230957,168.70071053504944,168.70276069641113,168.71513104438782,168.86532616615295,168.86532616615295,168.86532616615295,168.86532616615295,168.86532616615295,168.86532616615295,168.86532616615295,169.79987502098083,1,1.0674617290496826,None,,,,,,,,,,,,,,,,,,51,3,2025-02-19_14h08.50.344,comp,2024.2.4,60.19189979650471,2025-02-19 14h08.59.243031 -0500,
41,41,0,critical,dwh,20.0,2.1,lower,78.0,78.0,57.0,133.0,133.0,57.0,2,4.991626977920532,None,,,,,0,0,0,0,0,41,41,30,169.81511688232422,,,,,,,,,,,,,,,,,,,,,,,,,,,,,,,,,,,,,,,,,,,,,,,,,,,,,,,,,,,,,,,,,,,,,,,,,,,,,,,,,78.0,78.0,57.0,133.0,133.0,57.0,2.1,2.11,-202,254,0,279,191,-263,169.80068469047546,169.80072617530823,169.80401015281677,169.81511688232422,169.99051713943481,169.99051713943481,169.99051713943481,169.99051713943481,169.99051713943481,169.99051713943481,169.99051713943481,174.81625962257385,2,4.991626977920532,None,,,,,,,,,,,,,,,,,,51,3,2025-02-19_14h08.50.344,comp,2024.2.4,60.19189979650471,2025-02-19 14h08.59.243031 -0500,
42,42,0,filler_random,None,None,None,None,None,None,None,None,None,None,2,2.0545575618743896,None,,,,,0,0,0,0,0,42,42,162,174.83205771446228,,,,,,,,,,,,,,,,,,,,,,,,,,,,,,,,,,,,,,,,,,,,,,,,,,,,,,,,,,,,,,,,,,,,,,,,,,,,,,,,,102.2685956082473,143.01389783400367,127.03772603644414,173.43755603224724,81.28935960242697,120.20833249199384,3.0,3.2,-254,-275,0,16,243,256,174.81715059280396,174.81719160079956,174.81957483291626,174.83205771446228,174.9820351600647,174.9820351600647,174.9820351600647,174.9820351600647,174.9820351600647,174.9820351600647,174.9820351600647,176.89976739883423,2,2.0545575618743896,None,,,,,,,,,,,,,,,,,,51,3,2025-02-19_14h08.50.344,comp,2024.2.4,60.19189979650471,2025-02-19 14h08.59.243031 -0500,
43,43,0,critical,hdw,20.0,4.0,upper,200.0,125.0,141.0,141.0,125.0,200.0,3,1.7335987091064453,None,,,,,0,0,0,0,0,43,43,119,176.91505765914917,,,,,,,,,,,,,,,,,,,,,,,,,,,,,,,,,,,,,,,,,,,,,,,,,,,,,,,,,,,,,,,,,,,,,,,,,,,,,,,,,200.0,125.0,141.0,141.0,125.0,200.0,4.0,4.2,-229,-2,0,-272,266,16,176.9005422592163,176.90058135986328,176.90309309959412,176.91505765914917,177.06528282165527,177.06528282165527,177.06528282165527,177.06528282165527,177.06528282165527,177.06528282165527,177.06528282165527,178.6501019001007,3,1.7335987091064453,None,,,,,,,,,,,,,,,,,,51,3,2025-02-19_14h08.50.344,comp,2024.2.4,60.19189979650471,2025-02-19 14h08.59.243031 -0500,
44,44,0,critical,wdh,35.0,2.1,upper,125.0,200.0,127.0,127.0,200.0,125.0,1,0.9508471488952637,None,,,,,0,0,0,0,0,44,44,33,178.6651530265808,,,,,,,,,,,,,,,,,,,,,,,,,,,,,,,,,,,,,,,,,,,,,,,,,,,,,,,,,,,,,,,,,,,,,,,,,,,,,,,,,125.0,200.0,127.0,127.0,200.0,125.0,2.1,2.12,-260,-271,0,-271,222,281,178.65087342262268,178.65091514587402,178.6532118320465,178.6651530265808,178.81559491157532,178.81559491157532,178.81559491157532,178.81559491157532,178.81559491157532,178.81559491157532,178.81559491157532,179.63306188583374,1,0.9508471488952637,None,,,,,,,,,,,,,,,,,,51,3,2025-02-19_14h08.50.344,comp,2024.2.4,60.19189979650471,2025-02-19 14h08.59.243031 -0500,
45,45,0,critical,dhw,20.0,4.0,lower,78.0,78.0,133.0,57.0,57.0,133.0,3,1.6319677829742432,None,,,,,0,0,0,0,0,45,45,58,179.64834880828857,,,,,,,,,,,,,,,,,,,,,,,,,,,,,,,,,,,,,,,,,,,,,,,,,,,,,,,,,,,,,,,,,,,,,,,,,,,,,,,,,78.0,78.0,133.0,57.0,57.0,133.0,4.0,4.2,-164,-12,0,-283,191,19,179.6338210105896,179.6338608264923,179.63592004776,179.64834880828857,179.79875302314758,179.79875302314758,179.79875302314758,179.79875302314758,179.79875302314758,179.79875302314758,179.79875302314758,181.28306579589844,3,1.6319677829742432,None,,,,,,,,,,,,,,,,,,51,3,2025-02-19_14h08.50.344,comp,2024.2.4,60.19189979650471,2025-02-19 14h08.59.243031 -0500,
46,46,0,critical,whd,20.0,4.0,lower,57.0,133.0,133.0,57.0,78.0,78.0,2,1.9333829879760742,None,,,,,0,0,0,0,0,46,46,94,181.2986421585083,,,,,,,,,,,,,,,,,,,,,,,,,,,,,,,,,,,,,,,,,,,,,,,,,,,,,,,,,,,,,,,,,,,,,,,,,,,,,,,,,57.0,133.0,133.0,57.0,78.0,78.0,4.0,4.2,-191,-1,0,-266,164,11,181.283846616745,181.28388571739197,181.28592205047607,181.2986421585083,181.4485375881195,181.4485375881195,181.4485375881195,181.4485375881195,181.4485375881195,181.4485375881195,181.4485375881195,183.2500250339508,2,1.9333829879760742,None,,,,,,,,,,,,,,,,,,51,3,2025-02-19_14h08.50.344,comp,2024.2.4,60.19189979650471,2025-02-19 14h08.59.243031 -0500,
47,47,0,critical,hdw,20.0,1.0,upper,200.0,125.0,141.0,141.0,125.0,200.0,3,2.1256651878356934,None,,,,,0,0,0,0,0,47,47,115,183.26506900787354,,,,,,,,,,,,,,,,,,,,,,,,,,,,,,,,,,,,,,,,,,,,,,,,,,,,,,,,,,,,,,,,,,,,,,,,,,,,,,,,,200.0,125.0,141.0,141.0,125.0,200.0,1.0,1.2,-229,-17,0,11,266,-7,183.25078320503235,183.25082278251648,183.25332522392273,183.26506900787354,183.41562819480896,183.41562819480896,183.41562819480896,183.41562819480896,183.41562819480896,183.41562819480896,183.41562819480896,185.39989757537842,3,2.1256651878356934,None,,,,,,,,,,,,,,,,,,51,3,2025-02-19_14h08.50.344,comp,2024.2.4,60.19189979650471,2025-02-19 14h08.59.243031 -0500,
48,48,0,filler_square,None,None,None,None,None,None,None,None,None,None,1,4.327199697494507,None,,,,,0,0,0,0,0,48,48,200,185.41539907455444,,,,,,,,,,,,,,,,,,,,,,,,,,,,,,,,,,,,,,,,,,,,,,,,,,,,,,,,,,,,,,,,,,,,,,,,,,,,,,,,,84.8880305393981,84.8880305393981,82.30774817916256,83.61743190507553,66.35437050279236,69.72131377939088,4.0,4.2,-180,12,0,-285,173,17,185.40084075927734,185.4008812904358,185.4030044078827,185.41539907455444,185.56502294540405,185.56502294540405,185.56502294540405,185.56502294540405,185.56502294540405,185.56502294540405,185.56502294540405,189.74947953224182,1,4.327199697494507,None,,,,,,,,,,,,,,,,,,51,3,2025-02-19_14h08.50.344,comp,2024.2.4,60.19189979650471,2025-02-19 14h08.59.243031 -0500,
49,49,0,catch,None,None,None,None,None,None,None,None,None,None,3,1.5772523880004883,None,,,,,0,0,0,0,0,49,49,124,189.7653410434723,,,,,,,,,,,,,,,,,,,,,,,,,,,,,,,,,,,,,,,,,,,,,,,,,,,,,,,,,,,,,,,,,,,,,,,,,,,,,,,,,114,76,126,64,189,136,4.0,4.2,-166,16,0,-281,196,-2,189.75051999092102,189.75056076049805,189.75297498703003,189.7653410434723,189.91504383087158,189.91504383087158,189.91504383087158,189.91504383087158,189.91504383087158,189.91504383087158,189.91504383087158,191.34955859184265,3,1.5772523880004883,None,,,,,,,,,,,,,,,,,,51,3,2025-02-19_14h08.50.344,comp,2024.2.4,60.19189979650471,2025-02-19 14h08.59.243031 -0500,
50,50,0,critical,dwh,35.0,2.1,lower,70.0,70.0,57.0,133.0,133.0,57.0,2,2.250119924545288,None,,,,,0,0,0,0,0,50,50,4,191.36519503593445,,,,,,,,,,,,,,,,,,,,,,,,,,,,,,,,,,,,,,,,,,,,,,,,,,,,,,,,,,,,,,,,,,,,,,,,,,,,,,,,,70.0,70.0,57.0,133.0,133.0,57.0,2.1,2.11,-198,275,0,282,191,-252,191.3503475189209,191.3503873348236,191.3527865409851,191.36519503593445,191.51514983177185,191.51514983177185,191.51514983177185,191.51514983177185,191.51514983177185,191.51514983177185,191.51514983177185,193.6164538860321,2,2.250119924545288,None,,,,,,,,,,,,,,,,,,51,3,2025-02-19_14h08.50.344,comp,2024.2.4,60.19189979650471,2025-02-19 14h08.59.243031 -0500,
51,51,0,filler_square,None,None,None,None,None,None,None,None,None,None,3,1.64859938621521,None,,,,,0,0,0,0,0,51,51,176,193.63195776939392,,,,,,,,,,,,,,,,,,,,,,,,,,,,,,,,,,,,,,,,,,,,,,,,,,,,,,,,,,,,,,,,,,,,,,,,,,,,,,,,,66.66274872089635,74.93648322484009,59.96434080144269,59.55034783400125,79.59179296534667,79.59179296534667,1.0,1.1,-643,255,-480,269,-314,268,193.61741089820862,193.61745023727417,193.61956429481506,193.63195776939392,193.7816789150238,193.7816789150238,193.7816789150238,193.7816789150238,193.7816789150238,193.7816789150238,193.7816789150238,195.28292179107666,3,1.64859938621521,None,,,,,,,,,,,,,,,,,,51,3,2025-02-19_14h08.50.344,comp,2024.2.4,60.19189979650471,2025-02-19 14h08.59.243031 -0500,
52,52,0,filler_random,None,None,None,None,None,None,None,None,None,None,2,1.1246452331542969,None,,,,,0,0,0,0,0,52,52,141,195.29850816726685,,,,,,,,,,,,,,,,,,,,,,,,,,,,,,,,,,,,,,,,,,,,,,,,,,,,,,,,,,,,,,,,,,,,,,,,,,,,,,,,,109.16044889431348,154.07659349272407,158.24272705345157,190.44329842731327,86.92926084057572,167.74583101275306,1.0,1.1,-748,286,-480,251,-205,257,195.28384637832642,195.28388690948486,195.2859709262848,195.29850816726685,195.44864010810852,195.44864010810852,195.44864010810852,195.44864010810852,195.44864010810852,195.44864010810852,195.44864010810852,196.43299770355225,2,1.1246452331542969,None,,,,,,,,,,,,,,,,,,51,3,2025-02-19_14h08.50.344,comp,2024.2.4,60.19189979650471,2025-02-19 14h08.59.243031 -0500,
53,53,0,filler_random,None,None,None,None,None,None,None,None,None,None,2,1.1665115356445312,None,,,,,0,0,0,0,0,53,53,133,196.4488170146942,,,,,,,,,,,,,,,,,,,,,,,,,,,,,,,,,,,,,,,,,,,,,,,,,,,,,,,,,,,,,,,,,,,,,,,,,,,,,,,,,125.46584090611148,57.02061043127899,95.11239039755242,151.31537857297326,64.04006471567135,86.11816405906457,4.0,4.1,-200,-274,0,14,215,-270,196.433913230896,196.43396615982056,196.43612217903137,196.4488170146942,196.59847235679626,196.59847235679626,196.59847235679626,196.59847235679626,196.59847235679626,196.59847235679626,196.59847235679626,197.63265943527222,2,1.1665115356445312,None,,,,,,,,,,,,,,,,,,51,3,2025-02-19_14h08.50.344,comp,2024.2.4,60.19189979650471,2025-02-19 14h08.59.243031 -0500,
54,54,0,filler_random,None,None,None,None,None,None,None,None,None,None,3,1.1585664749145508,None,,,,,0,0,0,0,0,54,54,142,197.64823579788208,,,,,,,,,,,,,,,,,,,,,,,,,,,,,,,,,,,,,,,,,,,,,,,,,,,,,,,,,,,,,,,,,,,,,,,,,,,,,,,,,120.92543653587906,152.66989054234193,154.26964992211975,131.3930636482952,168.47191709601333,146.0581746188056,2.2,2.22,-238,253,0,-280,235,-262,197.63354897499084,197.63358902931213,197.63613843917847,197.64823579788208,197.7986135482788,197.7986135482788,197.7986135482788,197.7986135482788,197.7986135482788,197.7986135482788,197.7986135482788,198.81643438339233,3,1.1585664749145508,None,,,,,,,,,,,,,,,,,,51,3,2025-02-19_14h08.50.344,comp,2024.2.4,60.19189979650471,2025-02-19 14h08.59.243031 -0500,
55,55,0,catch,None,None,None,None,None,None,None,None,None,None,2,1.0788006782531738,None,,,,,0,0,0,0,0,55,55,129,198.83186507225037,,,,,,,,,,,,,,,,,,,,,,,,,,,,,,,,,,,,,,,,,,,,,,,,,,,,,,,,,,,,,,,,,,,,,,,,,,,,,,,,,124,66,178,147,127,63,2.1,2.12,-202,-277,0,-285,201,286,198.81745839118958,198.8174979686737,198.82007360458374,198.83186507225037,198.9818079471588,198.9818079471588,198.9818079471588,198.9818079471588,198.9818079471588,198.9818079471588,198.9818079471588,199.91626453399658,2,1.0788006782531738,None,,,,,,,,,,,,,,,,,,51,3,2025-02-19_14h08.50.344,comp,2024.2.4,60.19189979650471,2025-02-19 14h08.59.243031 -0500,
56,56,0,filler_square,None,None,None,None,None,None,None,None,None,None,3,1.5057353973388672,None,,,,,0,0,0,0,0,56,56,186,199.9318356513977,,,,,,,,,,,,,,,,,,,,,,,,,,,,,,,,,,,,,,,,,,,,,,,,,,,,,,,,,,,,,,,,,,,,,,,,,,,,,,,,,63.548721618628505,63.548721618628505,59.679567262785,59.16595104222818,60.394958530121784,62.4587625258889,2.2,2.22,-157,288,0,-283,157,-267,199.9172284603119,199.9172682762146,199.9196195602417,199.9318356513977,200.0816764831543,200.0816764831543,200.0816764831543,200.0816764831543,200.0816764831543,200.0816764831543,200.0816764831543,201.44958639144897,3,1.5057353973388672,None,,,,,,,,,,,,,,,,,,51,3,2025-02-19_14h08.50.344,comp,2024.2.4,60.19189979650471,2025-02-19 14h08.59.243031 -0500,
57,57,0,critical,wdh,35.0,1.0,lower,57.0,133.0,70.0,70.0,133.0,57.0,1,3.1096880435943604,None,,,,,0,0,0,0,0,57,57,72,201.46491885185242,,,,,,,,,,,,,,,,,,,,,,,,,,,,,,,,,,,,,,,,,,,,,,,,,,,,,,,,,,,,,,,,,,,,,,,,,,,,,,,,,57.0,133.0,70.0,70.0,133.0,57.0,1.0,1.3,282,-278,480,-256,640,-288,201.45039248466492,201.45043206214905,201.45292615890503,201.46491885185242,201.61491990089417,201.61491990089417,201.61491990089417,201.61491990089417,201.61491990089417,201.61491990089417,201.61491990089417,204.58277702331543,1,3.1096880435943604,None,,,,,,,,,,,,,,,,,,51,3,2025-02-19_14h08.50.344,comp,2024.2.4,60.19189979650471,2025-02-19 14h08.59.243031 -0500,
58,58,0,filler_random,None,None,None,None,None,None,None,None,None,None,3,1.0175566673278809,None,,,,,0,0,0,0,0,58,58,153,204.59834814071655,,,,,,,,,,,,,,,,,,,,,,,,,,,,,,,,,,,,,,,,,,,,,,,,,,,,,,,,,,,,,,,,,,,,,,,,,,,,,,,,,64.22104797268159,67.11084873457662,88.9078602163754,58.597038406784534,81.3782873646642,151.29558160444907,1.0,1.2,-159,-20,0,-6,201,-10,204.58362102508545,204.58366084098816,204.58624243736267,204.59834814071655,204.74870419502258,204.74870419502258,204.74870419502258,204.74870419502258,204.74870419502258,204.74870419502258,204.74870419502258,205.6327042579651,3,1.0175566673278809,None,,,,,,,,,,,,,,,,,,51,3,2025-02-19_14h08.50.344,comp,2024.2.4,60.19189979650471,2025-02-19 14h08.59.243031 -0500,
59,59,0,critical,whd,20.0,2.1,upper,125.0,200.0,200.0,125.0,141.0,141.0,1,3.7583706378936768,None,,,,,0,0,0,0,0,59,59,15,205.64822673797607,,,,,,,,,,,,,,,,,,,,,,,,,,,,,,,,,,,,,,,,,,,,,,,,,,,,,,,,,,,,,,,,,,,,,,,,,,,,,,,,,125.0,200.0,200.0,125.0,141.0,141.0,2.1,2.11,-258,272,0,263,229,-256,205.63349533081055,205.63353610038757,205.63554310798645,205.64822673797607,205.79858374595642,205.79858374595642,205.79858374595642,205.79858374595642,205.79858374595642,205.79858374595642,205.79858374595642,209.41622281074524,1,3.7583706378936768,None,,,,,,,,,,,,,,,,,,51,3,2025-02-19_14h08.50.344,comp,2024.2.4,60.19189979650471,2025-02-19 14h08.59.243031 -0500,
60,60,0,critical,wdh,35.0,3.0,upper,125.0,200.0,127.0,127.0,200.0,125.0,3,2.600228786468506,None,,,,,0,0,0,0,0,60,60,75,209.4317638874054,,,,,,,,,,,,,,,,,,,,,,,,,,,,,,,,,,,,,,,,,,,,,,,,,,,,,,,,,,,,,,,,,,,,,,,,,,,,,,,,,125.0,200.0,127.0,127.0,200.0,125.0,3.0,3.1,-260,270,0,14,222,-282,209.41699838638306,209.4170365333557,209.41933250427246,209.4317638874054,209.58186721801758,209.58186721801758,209.58186721801758,209.58186721801758,209.58186721801758,209.58186721801758,209.58186721801758,212.04955768585205,3,2.600228786468506,None,,,,,,,,,,,,,,,,,,51,3,2025-02-19_14h08.50.344,comp,2024.2.4,60.19189979650471,2025-02-19 14h08.59.243031 -0500,
61,61,0,critical,hdw,35.0,3.0,upper,200.0,125.0,127.0,127.0,125.0,200.0,1,0.8617193698883057,None,,,,,0,0,0,0,0,61,61,111,212.0649070739746,,,,,,,,,,,,,,,,,,,,,,,,,,,,,,,,,,,,,,,,,,,,,,,,,,,,,,,,,,,,,,,,,,,,,,,,,,,,,,,,,200.0,125.0,127.0,127.0,125.0,200.0,3.0,3.1,-222,271,0,20,260,-262,212.05038380622864,212.05042624473572,212.05287337303162,212.0649070739746,212.2150959968567,212.2150959968567,212.2150959968567,212.2150959968567,212.2150959968567,212.2150959968567,212.2150959968567,212.93294835090637,1,0.8617193698883057,None,,,,,,,,,,,,,,,,,,51,3,2025-02-19_14h08.50.344,comp,2024.2.4,60.19189979650471,2025-02-19 14h08.59.243031 -0500,
62,62,0,critical,dwh,20.0,3.0,upper,141.0,141.0,125.0,200.0,200.0,125.0,2,0.867041826248169,None,,,,,0,0,0,0,0,62,62,69,212.94835352897644,,,,,,,,,,,,,,,,,,,,,,,,,,,,,,,,,,,,,,,,,,,,,,,,,,,,,,,,,,,,,,,,,,,,,,,,,,,,,,,,,141.0,141.0,125.0,200.0,200.0,125.0,3.0,3.2,-266,-283,0,18,258,250,212.93369674682617,212.9337351322174,212.9356951713562,212.94835352897644,213.0986716747284,213.0986716747284,213.0986716747284,213.0986716747284,213.0986716747284,213.0986716747284,213.0986716747284,213.83292484283447,2,0.867041826248169,None,,,,,,,,,,,,,,,,,,51,3,2025-02-19_14h08.50.344,comp,2024.2.4,60.19189979650471,2025-02-19 14h08.59.243031 -0500,
63,63,0,filler_random,None,None,None,None,None,None,None,None,None,None,3,1.519559621810913,None,,,,,0,0,0,0,0,63,63,157,213.84813618659973,,,,,,,,,,,,,,,,,,,,,,,,,,,,,,,,,,,,,,,,,,,,,,,,,,,,,,,,,,,,,,,,,,,,,,,,,,,,,,,,,149.45402138170584,175.4088973130485,161.07589756910238,184.3759701952426,197.13951140632895,174.3400021823374,1.0,1.3,204,-263,480,-286,755,-277,213.83382725715637,213.83386611938477,213.83614349365234,213.84813618659973,213.99849033355713,213.99849033355713,213.99849033355713,213.99849033355713,213.99849033355713,213.99849033355713,213.99849033355713,215.38367319107056,3,1.519559621810913,None,,,,,,,,,,,,,,,,,,51,3,2025-02-19_14h08.50.344,comp,2024.2.4,60.19189979650471,2025-02-19 14h08.59.243031 -0500,
64,64,0,critical,dhw,20.0,2.1,lower,78.0,78.0,133.0,57.0,57.0,133.0,2,1.3030078411102295,None,,,,,0,0,0,0,0,64,64,26,215.39873123168945,,,,,,,,,,,,,,,,,,,,,,,,,,,,,,,,,,,,,,,,,,,,,,,,,,,,,,,,,,,,,,,,,,,,,,,,,,,,,,,,,78.0,78.0,133.0,57.0,57.0,133.0,2.1,2.12,-164,-256,0,-282,191,275,215.38449382781982,215.38453364372253,215.38647651672363,215.39873123168945,215.54865717887878,215.54865717887878,215.54865717887878,215.54865717887878,215.54865717887878,215.54865717887878,215.54865717887878,216.71613454818726,2,1.3030078411102295,None,,,,,,,,,,,,,,,,,,51,3,2025-02-19_14h08.50.344,comp,2024.2.4,60.19189979650471,2025-02-19 14h08.59.243031 -0500,
65,65,0,critical,hdw,20.0,3.0,lower,133.0,57.0,78.0,78.0,57.0,133.0,3,1.316631555557251,None,,,,,0,0,0,0,0,65,65,116,216.73148202896118,,,,,,,,,,,,,,,,,,,,,,,,,,,,,,,,,,,,,,,,,,,,,,,,,,,,,,,,,,,,,,,,,,,,,,,,,,,,,,,,,133.0,57.0,78.0,78.0,57.0,133.0,3.0,3.1,-164,268,0,-3,202,-260,216.71694135665894,216.71698117256165,216.71940350532532,216.73148202896118,216.88172268867493,216.88172268867493,216.88172268867493,216.88172268867493,216.88172268867493,216.88172268867493,216.88172268867493,218.06625318527222,3,1.316631555557251,None,,,,,,,,,,,,,,,,,,51,3,2025-02-19_14h08.50.344,comp,2024.2.4,60.19189979650471,2025-02-19 14h08.59.243031 -0500,
66,66,0,critical,dhw,20.0,2.1,upper,141.0,141.0,200.0,125.0,125.0,200.0,2,1.6931829452514648,None,,,,,0,0,0,0,0,66,66,27,218.0815839767456,,,,,,,,,,,,,,,,,,,,,,,,,,,,,,,,,,,,,,,,,,,,,,,,,,,,,,,,,,,,,,,,,,,,,,,,,,,,,,,,,141.0,141.0,200.0,125.0,125.0,200.0,2.1,2.12,-229,-286,0,-254,258,259,218.06705927848816,218.06709957122803,218.0691945552826,218.0815839767456,218.2317831516266,218.2317831516266,218.2317831516266,218.2317831516266,218.2317831516266,218.2317831516266,218.2317831516266,219.7829179763794,2,1.6931829452514648,None,,,,,,,,,,,,,,,,,,51,3,2025-02-19_14h08.50.344,comp,2024.2.4,60.19189979650471,2025-02-19 14h08.59.243031 -0500,
67,67,0,critical,hdw,35.0,4.0,lower,133.0,57.0,70.0,70.0,57.0,133.0,1,0.944021463394165,None,,,,,0,0,0,0,0,67,67,112,219.7984857559204,,,,,,,,,,,,,,,,,,,,,,,,,,,,,,,,,,,,,,,,,,,,,,,,,,,,,,,,,,,,,,,,,,,,,,,,,,,,,,,,,133.0,57.0,70.0,70.0,57.0,133.0,4.0,4.1,-160,-280,0,-15,198,-252,219.78371453285217,219.78375554084778,219.7858338356018,219.7984857559204,219.94823145866394,219.94823145866394,219.94823145866394,219.94823145866394,219.94823145866394,219.94823145866394,219.94823145866394,220.74927616119385,1,0.944021463394165,None,,,,,,,,,,,,,,,,,,51,3,2025-02-19_14h08.50.344,comp,2024.2.4,60.19189979650471,2025-02-19 14h08.59.243031 -0500,
68,68,0,catch,None,None,None,None,None,None,None,None,None,None,3,0.8832809925079346,None,,,,,0,0,0,0,0,68,68,121,220.7650167942047,,,,,,,,,,,,,,,,,,,,,,,,,,,,,,,,,,,,,,,,,,,,,,,,,,,,,,,,,,,,,,,,,,,,,,,,,,,,,,,,,102,88,59,131,135,190,4.0,4.1,-206,-277,0,13,256,-289,220.7503023147583,220.7503423690796,220.75246596336365,220.7650167942047,220.91504383087158,220.91504383087158,220.91504383087158,220.91504383087158,220.91504383087158,220.91504383087158,220.91504383087158,221.6495761871338,3,0.8832809925079346,None,,,,,,,,,,,,,,,,,,51,3,2025-02-19_14h08.50.344,comp,2024.2.4,60.19189979650471,2025-02-19 14h08.59.243031 -0500,
69,69,0,critical,hwd,35.0,2.1,upper,200.0,125.0,125.0,200.0,127.0,127.0,1,3.6614809036254883,None,,,,,0,0,0,0,0,69,69,41,221.66498684883118,,,,,,,,,,,,,,,,,,,,,,,,,,,,,,,,,,,,,,,,,,,,,,,,,,,,,,,,,,,,,,,,,,,,,,,,,,,,,,,,,200.0,125.0,125.0,200.0,127.0,127.0,2.1,2.11,-258,268,0,260,260,-270,221.65042924880981,221.65046882629395,221.65298509597778,221.66498684883118,221.815110206604,221.815110206604,221.815110206604,221.815110206604,221.815110206604,221.815110206604,221.815110206604,225.3329586982727,1,3.6614809036254883,None,,,,,,,,,,,,,,,,,,51,3,2025-02-19_14h08.50.344,comp,2024.2.4,60.19189979650471,2025-02-19 14h08.59.243031 -0500,
70,70,0,critical,dhw,20.0,3.0,lower,78.0,78.0,133.0,57.0,57.0,133.0,3,2.1938321590423584,None,,,,,0,0,0,0,0,70,70,56,225.3485391139984,,,,,,,,,,,,,,,,,,,,,,,,,,,,,,,,,,,,,,,,,,,,,,,,,,,,,,,,,,,,,,,,,,,,,,,,,,,,,,,,,78.0,78.0,133.0,57.0,57.0,133.0,3.0,3.1,-164,270,0,7,191,-257,225.33373522758484,225.33377647399902,225.3358290195465,225.3485391139984,225.49812626838684,225.49812626838684,225.49812626838684,225.49812626838684,225.49812626838684,225.49812626838684,225.49812626838684,227.54926776885986,3,2.1938321590423584,None,,,,,,,,,,,,,,,,,,51,3,2025-02-19_14h08.50.344,comp,2024.2.4,60.19189979650471,2025-02-19 14h08.59.243031 -0500,
71,71,0,critical,hwd,20.0,2.1,lower,133.0,57.0,57.0,133.0,78.0,78.0,2,4.3933329582214355,None,,,,,0,0,0,0,0,71,71,18,227.56499218940735,,,,,,,,,,,,,,,,,,,,,,,,,,,,,,,,,,,,,,,,,,,,,,,,,,,,,,,,,,,,,,,,,,,,,,,,,,,,,,,,,133.0,57.0,57.0,133.0,78.0,78.0,2.1,2.11,-191,280,0,282,202,-278,227.5501298904419,227.55016827583313,227.55219388008118,227.56499218940735,227.71477222442627,227.71477222442627,227.71477222442627,227.71477222442627,227.71477222442627,227.71477222442627,227.71477222442627,231.96589589118958,2,4.3933329582214355,None,,,,,,,,,,,,,,,,,,51,3,2025-02-19_14h08.50.344,comp,2024.2.4,60.19189979650471,2025-02-19 14h08.59.243031 -0500,
72,72,0,filler_random,None,None,None,None,None,None,None,None,None,None,1,3.176746129989624,None,,,,,0,0,0,0,0,72,72,132,231.98165583610535,,,,,,,,,,,,,,,,,,,,,,,,,,,,,,,,,,,,,,,,,,,,,,,,,,,,,,,,,,,,,,,,,,,,,,,,,,,,,,,,,118.92221430946353,141.72620375889062,101.79610480849175,130.7132546271486,58.48498696955895,195.04671026265882,2.2,2.22,-232,274,0,-262,259,-253,231.96678566932678,231.96682572364807,231.96888899803162,231.98165583610535,232.13168907165527,232.13168907165527,232.13168907165527,232.13168907165527,232.13168907165527,232.13168907165527,232.13168907165527,235.16605877876282,1,3.176746129989624,None,,,,,,,,,,,,,,,,,,51,3,2025-02-19_14h08.50.344,comp,2024.2.4,60.19189979650471,2025-02-19 14h08.59.243031 -0500,
73,73,0,critical,dwh,35.0,4.0,upper,127.0,127.0,125.0,200.0,200.0,125.0,2,3.0088322162628174,None,,,,,0,0,0,0,0,73,73,65,235.18158173561096,,,,,,,,,,,,,,,,,,,,,,,,,,,,,,,,,,,,,,,,,,,,,,,,,,,,,,,,,,,,,,,,,,,,,,,,,,,,,,,,,127.0,127.0,125.0,200.0,200.0,125.0,4.0,4.2,-260,15,0,-288,258,-13,235.16683340072632,235.16687107086182,235.16911721229553,235.18158173561096,235.33168077468872,235.33168077468872,235.33168077468872,235.33168077468872,235.33168077468872,235.33168077468872,235.33168077468872,238.1994309425354,2,3.0088322162628174,None,,,,,,,,,,,,,,,,,,51,3,2025-02-19_14h08.50.344,comp,2024.2.4,60.19189979650471,2025-02-19 14h08.59.243031 -0500,
74,74,0,critical,hdw,20.0,1.0,lower,133.0,57.0,78.0,78.0,57.0,133.0,3,3.2384119033813477,None,,,,,0,0,0,0,0,74,74,114,238.2149076461792,,,,,,,,,,,,,,,,,,,,,,,,,,,,,,,,,,,,,,,,,,,,,,,,,,,,,,,,,,,,,,,,,,,,,,,,,,,,,,,,,133.0,57.0,78.0,78.0,57.0,133.0,1.0,1.1,-644,259,-480,270,-278,264,238.20023036003113,238.20026993751526,238.20237946510315,238.2149076461792,238.3646411895752,238.3646411895752,238.3646411895752,238.3646411895752,238.3646411895752,238.3646411895752,238.3646411895752,241.46591901779175,3,3.2384119033813477,None,,,,,,,,,,,,,,,,,,51,3,2025-02-19_14h08.50.344,comp,2024.2.4,60.19189979650471,2025-02-19 14h08.59.243031 -0500,
75,75,0,catch,None,None,None,None,None,None,None,None,None,None,2,1.693199634552002,None,,,,,0,0,0,0,0,75,75,127,241.48134970664978,,,,,,,,,,,,,,,,,,,,,,,,,,,,,,,,,,,,,,,,,,,,,,,,,,,,,,,,,,,,,,,,,,,,,,,,,,,,,,,,,71,119,137,188,86,104,2.1,2.11,-250,288,0,282,242,-253,241.46698451042175,241.4670250415802,241.46936559677124,241.48134970664978,241.63147401809692,241.63147401809692,241.63147401809692,241.63147401809692,241.63147401809692,241.63147401809692,241.63147401809692,243.18260598182678,2,1.693199634552002,None,,,,,,,,,,,,,,,,,,51,3,2025-02-19_14h08.50.344,comp,2024.2.4,60.19189979650471,2025-02-19 14h08.59.243031 -0500,
76,76,0,filler_square,None,None,None,None,None,None,None,None,None,None,1,0.9672567844390869,None,,,,,0,0,0,0,0,76,76,177,243.1981556415558,,,,,,,,,,,,,,,,,,,,,,,,,,,,,,,,,,,,,,,,,,,,,,,,,,,,,,,,,,,,,,,,,,,,,,,,,,,,,,,,,127.4616058943053,127.4616058943053,115.6912681131372,85.03610963840588,59.95971570830769,103.19640533572542,2.1,2.11,-202,276,0,285,190,-263,243.18357253074646,243.18361449241638,243.1856713294983,243.1981556415558,243.34827947616577,243.34827947616577,243.34827947616577,243.34827947616577,243.34827947616577,243.34827947616577,243.34827947616577,244.18253779411316,1,0.9672567844390869,None,,,,,,,,,,,,,,,,,,51,3,2025-02-19_14h08.50.344,comp,2024.2.4,60.19189979650471,2025-02-19 14h08.59.243031 -0500,
77,77,0,critical,dhw,20.0,1.0,upper,141.0,141.0,200.0,125.0,125.0,200.0,3,5.984294891357422,None,,,,,0,0,0,0,0,77,77,55,244.1979043483734,,,,,,,,,,,,,,,,,,,,,,,,,,,,,,,,,,,,,,,,,,,,,,,,,,,,,,,,,,,,,,,,,,,,,,,,,,,,,,,,,141.0,141.0,200.0,125.0,125.0,200.0,1.0,1.3,251,-272,480,-279,738,-255,244.18343019485474,244.18347001075745,244.1860556602478,244.1979043483734,244.348393201828,244.348393201828,244.348393201828,244.348393201828,244.348393201828,244.348393201828,244.348393201828,250.19949674606323,3,5.984294891357422,None,,,,,,,,,,,,,,,,,,51,3,2025-02-19_14h08.50.344,comp,2024.2.4,60.19189979650471,2025-02-19 14h08.59.243031 -0500,
78,78,0,critical,wdh,20.0,4.0,upper,125.0,200.0,141.0,141.0,200.0,125.0,1,7.60803484916687,None,,,,,0,0,0,0,0,78,78,83,250.21460342407227,,,,,,,,,,,,,,,,,,,,,,,,,,,,,,,,,,,,,,,,,,,,,,,,,,,,,,,,,,,,,,,,,,,,,,,,,,,,,,,,,125.0,200.0,141.0,141.0,200.0,125.0,4.0,4.2,-266,18,0,-283,229,-19,250.20037698745728,250.20041728019714,250.20291256904602,250.21460342407227,250.36487245559692,250.36487245559692,250.36487245559692,250.36487245559692,250.36487245559692,250.36487245559692,250.36487245559692,257.832656621933,1,7.60803484916687,None,,,,,,,,,,,,,,,,,,51,3,2025-02-19_14h08.50.344,comp,2024.2.4,60.19189979650471,2025-02-19 14h08.59.243031 -0500,
79,79,0,filler_square,None,None,None,None,None,None,None,None,None,None,3,1.662017583847046,None,,,,,0,0,0,0,0,79,79,203,257.8481867313385,,,,,,,,,,,,,,,,,,,,,,,,,,,,,,,,,,,,,,,,,,,,,,,,,,,,,,,,,,,,,,,,,,,,,,,,,,,,,,,,,62.917746265318286,57.005020461983335,57.21146337788429,59.213244167212046,65.2416975731337,65.2416975731337,2.1,2.12,-154,-285,0,-271,158,288,257.83362078666687,257.8336637020111,257.8361141681671,257.8481867313385,257.9979588985443,257.9979588985443,257.9979588985443,257.9979588985443,257.9979588985443,257.9979588985443,257.9979588985443,259.5157423019409,3,1.662017583847046,None,,,,,,,,,,,,,,,,,,51,3,2025-02-19_14h08.50.344,comp,2024.2.4,60.19189979650471,2025-02-19 14h08.59.243031 -0500,
80,80,0,critical,dhw,35.0,4.0,lower,70.0,70.0,133.0,57.0,57.0,133.0,3,1.6430847644805908,None,,,,,0,0,0,0,0,80,80,52,259.5315012931824,,,,,,,,,,,,,,,,,,,,,,,,,,,,,,,,,,,,,,,,,,,,,,,,,,,,,,,,,,,,,,,,,,,,,,,,,,,,,,,,,70.0,70.0,133.0,57.0,57.0,133.0,4.0,4.1,-160,-253,0,-13,191,-276,259.51662397384644,259.51666474342346,259.5192623138428,259.5315012931824,259.68120193481445,259.68120193481445,259.68120193481445,259.68120193481445,259.68120193481445,259.68120193481445,259.68120193481445,261.18261337280273,3,1.6430847644805908,None,,,,,,,,,,,,,,,,,,51,3,2025-02-19_14h08.50.344,comp,2024.2.4,60.19189979650471,2025-02-19 14h08.59.243031 -0500,
81,81,0,critical,wdh,20.0,2.1,lower,57.0,133.0,78.0,78.0,133.0,57.0,3,3.0967323780059814,None,,,,,0,0,0,0,0,81,81,10,261.19819378852844,,,,,,,,,,,,,,,,,,,,,,,,,,,,,,,,,,,,,,,,,,,,,,,,,,,,,,,,,,,,,,,,,,,,,,,,,,,,,,,,,57.0,133.0,78.0,78.0,133.0,57.0,2.1,2.12,-202,-286,0,-279,164,264,261.1834168434143,261.18345832824707,261.18563866615295,261.19819378852844,261.347838640213,261.347838640213,261.347838640213,261.347838640213,261.347838640213,261.347838640213,261.347838640213,264.2992055416107,3,3.0967323780059814,None,,,,,,,,,,,,,,,,,,51,3,2025-02-19_14h08.50.344,comp,2024.2.4,60.19189979650471,2025-02-19 14h08.59.243031 -0500,
82,82,0,critical,hdw,35.0,2.1,lower,133.0,57.0,70.0,70.0,57.0,133.0,1,1.333233118057251,None,,,,,0,0,0,0,0,82,82,44,264.3147749900818,,,,,,,,,,,,,,,,,,,,,,,,,,,,,,,,,,,,,,,,,,,,,,,,,,,,,,,,,,,,,,,,,,,,,,,,,,,,,,,,,133.0,57.0,70.0,70.0,57.0,133.0,2.1,2.12,-160,-273,0,-285,198,283,264.30000495910645,264.3000464439392,264.3021478652954,264.3147749900818,264.46452713012695,264.46452713012695,264.46452713012695,264.46452713012695,264.46452713012695,264.46452713012695,264.46452713012695,265.66575264930725,1,1.333233118057251,None,,,,,,,,,,,,,,,,,,51,3,2025-02-19_14h08.50.344,comp,2024.2.4,60.19189979650471,2025-02-19 14h08.59.243031 -0500,
83,83,0,critical,wdh,35.0,2.1,lower,57.0,133.0,70.0,70.0,133.0,57.0,1,1.5560731887817383,None,,,,,0,0,0,0,0,83,83,8,265.68114280700684,,,,,,,,,,,,,,,,,,,,,,,,,,,,,,,,,,,,,,,,,,,,,,,,,,,,,,,,,,,,,,,,,,,,,,,,,,,,,,,,,57.0,133.0,70.0,70.0,133.0,57.0,2.1,2.11,-198,263,0,255,160,-255,265.6665186882019,265.6665577888489,265.66851019859314,265.68114280700684,265.83139848709106,265.83139848709106,265.83139848709106,265.83139848709106,265.83139848709106,265.83139848709106,265.83139848709106,267.2491202354431,1,1.5560731887817383,None,,,,,,,,,,,,,,,,,,51,3,2025-02-19_14h08.50.344,comp,2024.2.4,60.19189979650471,2025-02-19 14h08.59.243031 -0500,
84,84,0,filler_square,None,None,None,None,None,None,None,None,None,None,1,1.421494722366333,None,,,,,0,0,0,0,0,84,84,192,267.26444125175476,,,,,,,,,,,,,,,,,,,,,,,,,,,,,,,,,,,,,,,,,,,,,,,,,,,,,,,,,,,,,,,,,,,,,,,,,,,,,,,,,185.72359275047006,185.72359275047006,94.34275330166898,113.93298051528356,144.49122085347994,132.89434425739785,2.1,2.11,-246,254,0,251,219,-261,267.2500832080841,267.2501244544983,267.2525284290314,267.26444125175476,267.4147138595581,267.4147138595581,267.4147138595581,267.4147138595581,267.4147138595581,267.4147138595581,267.4147138595581,268.6991307735443,1,1.421494722366333,None,,,,,,,,,,,,,,,,,,51,3,2025-02-19_14h08.50.344,comp,2024.2.4,60.19189979650471,2025-02-19 14h08.59.243031 -0500,
85,85,0,critical,whd,35.0,2.1,lower,57.0,133.0,133.0,57.0,70.0,70.0,1,1.7806806564331055,None,,,,,0,0,0,0,0,85,85,12,268.7143859863281,,,,,,,,,,,,,,,,,,,,,,,,,,,,,,,,,,,,,,,,,,,,,,,,,,,,,,,,,,,,,,,,,,,,,,,,,,,,,,,,,57.0,133.0,133.0,57.0,70.0,70.0,2.1,2.12,-191,-277,0,-260,160,258,268.69988918304443,268.6999273300171,268.70224833488464,268.7143859863281,268.8646442890167,268.8646442890167,268.8646442890167,268.8646442890167,268.8646442890167,268.8646442890167,268.8646442890167,270.499080657959,1,1.7806806564331055,None,,,,,,,,,,,,,,,,,,51,3,2025-02-19_14h08.50.344,comp,2024.2.4,60.19189979650471,2025-02-19 14h08.59.243031 -0500,
86,86,0,filler_square,None,None,None,None,None,None,None,None,None,None,2,3.8592517375946045,None,,,,,0,0,0,0,0,86,86,179,270.5149612426758,,,,,,,,,,,,,,,,,,,,,,,,,,,,,,,,,,,,,,,,,,,,,,,,,,,,,,,,,,,,,,,,,,,,,,,,,,,,,,,,,59.15892410195918,59.15892410195918,58.304027224337204,58.62270495762426,58.66619384442383,57.552364243616765,2.2,2.21,-155,-257,0,288,154,280,270.50010681152344,270.50014877319336,270.50241684913635,270.5149612426758,270.6644334793091,270.6644334793091,270.6644334793091,270.6644334793091,270.6644334793091,270.6644334793091,270.6644334793091,274.38259267807007,2,3.8592517375946045,None,,,,,,,,,,,,,,,,,,51,3,2025-02-19_14h08.50.344,comp,2024.2.4,60.19189979650471,2025-02-19 14h08.59.243031 -0500,
87,87,0,critical,dhw,20.0,1.0,lower,78.0,78.0,133.0,57.0,57.0,133.0,1,None,None,,,,,0,0,0,0,0,87,87,54,274.39813017845154,,,,,,,,,,,,,,,,,,,,,,,,,,,,,,,,,,,,,,,,,,,,,,,,,,,,,,,,,,,,,,,,,,,,,,,,,,,,,,,,,78.0,78.0,133.0,57.0,57.0,133.0,1.0,1.2,-164,4,0,-2,191,16,274.38337302207947,274.383412361145,274.3859791755676,274.39813017845154,274.5478665828705,274.5478665828705,274.5478665828705,274.5478665828705,274.5478665828705,274.5478665828705,274.5478665828705,274.61595392227173,1,None,None,,,,,,,,,,,,,,,,,,51,3,2025-02-19_14h08.50.344,comp,2024.2.4,60.19189979650471,2025-02-19 14h08.59.243031 -0500,
88,88,0,critical,dhw,35.0,3.0,upper,127.0,127.0,200.0,125.0,125.0,200.0,2,2.6486239433288574,None,,,,,0,0,0,0,0,88,88,51,274.6312561035156,,,,,,,,,,,,,,,,,,,,,,,,,,,,,,,,,,,,,,,,,,,,,,,,,,,,,,,,,,,,,,,,,,,,,,,,,,,,,,,,,127.0,127.0,200.0,125.0,125.0,200.0,3.0,3.2,-222,-265,0,-17,258,274,274.6166956424713,274.6167345046997,274.61926531791687,274.6312561035156,274.7813220024109,274.7813220024109,274.7813220024109,274.7813220024109,274.7813220024109,274.7813220024109,274.7813220024109,277.28264594078064,2,2.6486239433288574,None,,,,,,,,,,,,,,,,,,51,3,2025-02-19_14h08.50.344,comp,2024.2.4,60.19189979650471,2025-02-19 14h08.59.243031 -0500,
89,89,0,critical,dwh,20.0,4.0,lower,78.0,78.0,57.0,133.0,133.0,57.0,3,1.5656177997589111,None,,,,,0,0,0,0,0,89,89,70,277.2980468273163,,,,,,,,,,,,,,,,,,,,,,,,,,,,,,,,,,,,,,,,,,,,,,,,,,,,,,,,,,,,,,,,,,,,,,,,,,,,,,,,,78.0,78.0,57.0,133.0,133.0,57.0,4.0,4.2,-202,4,0,-253,191,-12,277.2834162712097,277.28345704078674,277.28589391708374,277.2980468273163,277.44777369499207,277.44777369499207,277.44777369499207,277.44777369499207,277.44777369499207,277.44777369499207,277.44777369499207,278.86597967147827,3,1.5656177997589111,None,,,,,,,,,,,,,,,,,,51,3,2025-02-19_14h08.50.344,comp,2024.2.4,60.19189979650471,2025-02-19 14h08.59.243031 -0500,
90,90,0,filler_random,None,None,None,None,None,None,None,None,None,None,3,1.525244951248169,None,,,,,0,0,0,0,0,90,90,167,278.88128662109375,,,,,,,,,,,,,,,,,,,,,,,,,,,,,,,,,,,,,,,,,,,,,,,,,,,,,,,,,,,,,,,,,,,,,,,,,,,,,,,,,81.38326992540641,191.17590178080087,160.76210720502596,188.08933375303386,195.65525714330428,169.38486325989987,2.2,2.22,-286,260,0,-283,275,-274,278.8668234348297,278.8668625354767,278.8693835735321,278.88128662109375,279.03137946128845,279.03137946128845,279.03137946128845,279.03137946128845,279.03137946128845,279.03137946128845,279.03137946128845,280.41586899757385,3,1.525244951248169,None,,,,,,,,,,,,,,,,,,51,3,2025-02-19_14h08.50.344,comp,2024.2.4,60.19189979650471,2025-02-19 14h08.59.243031 -0500,
91,91,0,filler_square,None,None,None,None,None,None,None,None,None,None,1,1.3914716243743896,None,,,,,0,0,0,0,0,91,91,172,280.4313156604767,,,,,,,,,,,,,,,,,,,,,,,,,,,,,,,,,,,,,,,,,,,,,,,,,,,,,,,,,,,,,,,,,,,,,,,,,,,,,,,,,111.66916715526591,111.66916715526591,82.07918582852311,94.62078284998591,76.80561178691417,72.7277162631731,1.0,1.1,-679,286,-480,260,-300,289,280.41683292388916,280.4168736934662,280.4191482067108,280.4313156604767,280.58119082450867,280.58119082450867,280.58119082450867,280.58119082450867,280.58119082450867,280.58119082450867,280.58119082450867,281.8327078819275,1,1.3914716243743896,None,,,,,,,,,,,,,,,,,,51,3,2025-02-19_14h08.50.344,comp,2024.2.4,60.19189979650471,2025-02-19 14h08.59.243031 -0500,
92,92,0,filler_random,None,None,None,None,None,None,None,None,None,None,1,1.6937406063079834,None,,,,,0,0,0,0,0,92,92,139,281.8482348918915,,,,,,,,,,,,,,,,,,,,,,,,,,,,,,,,,,,,,,,,,,,,,,,,,,,,,,,,,,,,,,,,,,,,,,,,,,,,,,,,,105.2223657948302,198.1223640470278,136.78377968926242,95.13891864019186,86.06045044984549,119.42994088455208,3.0,3.1,-243,260,0,17,203,-264,281.8335976600647,281.8336386680603,281.83628034591675,281.8482348918915,281.99799060821533,281.99799060821533,281.99799060821533,281.99799060821533,281.99799060821533,281.99799060821533,281.99799060821533,283.54900908470154,1,1.6937406063079834,None,,,,,,,,,,,,,,,,,,51,3,2025-02-19_14h08.50.344,comp,2024.2.4,60.19189979650471,2025-02-19 14h08.59.243031 -0500,
93,93,0,filler_square,None,None,None,None,None,None,None,None,None,None,1,1.1453297138214111,None,,,,,0,0,0,0,0,93,93,178,283.56494522094727,,,,,,,,,,,,,,,,,,,,,,,,,,,,,,,,,,,,,,,,,,,,,,,,,,,,,,,,,,,,,,,,,,,,,,,,,,,,,,,,,132.13247210990426,132.13247210990426,91.58111636714222,86.95466992146527,83.0441745327874,117.53070663211057,2.1,2.12,-206,-253,0,-268,198,272,283.54995250701904,283.5499954223633,283.55211091041565,283.56494522094727,283.71469259262085,283.71469259262085,283.71469259262085,283.71469259262085,283.71469259262085,283.71469259262085,283.71469259262085,284.71562600135803,1,1.1453297138214111,None,,,,,,,,,,,,,,,,,,51,3,2025-02-19_14h08.50.344,comp,2024.2.4,60.19189979650471,2025-02-19 14h08.59.243031 -0500,
94,94,0,filler_random,None,None,None,None,None,None,None,None,None,None,1,1.7860863208770752,None,,,,,0,0,0,0,0,94,94,148,284.73121881484985,,,,,,,,,,,,,,,,,,,,,,,,,,,,,,,,,,,,,,,,,,,,,,,,,,,,,,,,,,,,,,,,,,,,,,,,,,,,,,,,,182.34426937505123,157.45056188240073,153.2255482885122,123.10110438225993,115.95926642377796,158.55694112946622,2.2,2.22,-236,289,0,-253,237,-251,284.7165539264679,284.7165961265564,284.71929025650024,284.73121881484985,284.881388425827,284.881388425827,284.881388425827,284.881388425827,284.881388425827,284.881388425827,284.881388425827,286.53250002861023,1,1.7860863208770752,None,,,,,,,,,,,,,,,,,,51,3,2025-02-19_14h08.50.344,comp,2024.2.4,60.19189979650471,2025-02-19 14h08.59.243031 -0500,
95,95,0,critical,whd,35.0,2.1,upper,125.0,200.0,200.0,125.0,127.0,127.0,2,2.4505438804626465,None,,,,,0,0,0,0,0,95,95,13,286.5476944446564,,,,,,,,,,,,,,,,,,,,,,,,,,,,,,,,,,,,,,,,,,,,,,,,,,,,,,,,,,,,,,,,,,,,,,,,,,,,,,,,,125.0,200.0,200.0,125.0,127.0,127.0,2.1,2.12,-258,-282,0,-281,222,268,286.53329372406006,286.53333377838135,286.53574681282043,286.5476944446564,286.6979093551636,286.6979093551636,286.6979093551636,286.6979093551636,286.6979093551636,286.6979093551636,286.6979093551636,289.0157618522644,2,2.4505438804626465,None,,,,,,,,,,,,,,,,,,51,3,2025-02-19_14h08.50.344,comp,2024.2.4,60.19189979650471,2025-02-19 14h08.59.243031 -0500,
96,96,0,critical,whd,35.0,3.0,upper,125.0,200.0,200.0,125.0,127.0,127.0,2,1.175311803817749,None,,,,,0,0,0,0,0,96,96,87,289.030948638916,,,,,,,,,,,,,,,,,,,,,,,,,,,,,,,,,,,,,,,,,,,,,,,,,,,,,,,,,,,,,,,,,,,,,,,,,,,,,,,,,125.0,200.0,200.0,125.0,127.0,127.0,3.0,3.2,-258,-271,0,8,222,290,289.01654958724976,289.0165910720825,289.0190908908844,289.030948638916,289.1812219619751,289.1812219619751,289.1812219619751,289.1812219619751,289.1812219619751,289.1812219619751,289.1812219619751,290.2157368659973,2,1.175311803817749,None,,,,,,,,,,,,,,,,,,51,3,2025-02-19_14h08.50.344,comp,2024.2.4,60.19189979650471,2025-02-19 14h08.59.243031 -0500,
97,97,0,critical,dhw,35.0,2.1,lower,70.0,70.0,133.0,57.0,57.0,133.0,3,1.094794750213623,None,,,,,0,0,0,0,0,97,97,24,290.231219291687,,,,,,,,,,,,,,,,,,,,,,,,,,,,,,,,,,,,,,,,,,,,,,,,,,,,,,,,,,,,,,,,,,,,,,,,,,,,,,,,,70.0,70.0,133.0,57.0,57.0,133.0,2.1,2.11,-160,255,0,281,191,-270,290.2165195941925,290.2165584564209,290.2190999984741,290.231219291687,290.3810489177704,290.3810489177704,290.3810489177704,290.3810489177704,290.3810489177704,290.3810489177704,290.3810489177704,291.3321166038513,3,1.094794750213623,None,,,,,,,,,,,,,,,,,,51,3,2025-02-19_14h08.50.344,comp,2024.2.4,60.19189979650471,2025-02-19 14h08.59.243031 -0500,
98,98,0,critical,wdh,20.0,2.1,lower,57.0,133.0,78.0,78.0,133.0,57.0,3,1.1621849536895752,None,,,,,0,0,0,0,0,98,98,34,291.3478057384491,,,,,,,,,,,,,,,,,,,,,,,,,,,,,,,,,,,,,,,,,,,,,,,,,,,,,,,,,,,,,,,,,,,,,,,,,,,,,,,,,57.0,133.0,78.0,78.0,133.0,57.0,2.1,2.11,-202,264,0,253,164,-252,291.3329141139984,291.33296728134155,291.3352484703064,291.3478057384491,291.49783301353455,291.49783301353455,291.49783301353455,291.49783301353455,291.49783301353455,291.49783301353455,291.49783301353455,292.5156271457672,3,1.1621849536895752,None,,,,,,,,,,,,,,,,,,51,3,2025-02-19_14h08.50.344,comp,2024.2.4,60.19189979650471,2025-02-19 14h08.59.243031 -0500,
99,99,0,critical,dwh,35.0,2.1,upper,127.0,127.0,125.0,200.0,200.0,125.0,3,1.994816541671753,None,,,,,0,0,0,0,0,99,99,29,292.5312192440033,,,,,,,,,,,,,,,,,,,,,,,,,,,,,,,,,,,,,,,,,,,,,,,,,,,,,,,,,,,,,,,,,,,,,,,,,,,,,,,,,127.0,127.0,125.0,200.0,200.0,125.0,2.1,2.11,-260,286,0,281,258,-259,292.51640367507935,292.51644372940063,292.518860578537,292.5312192440033,292.6813108921051,292.6813108921051,292.6813108921051,292.6813108921051,292.6813108921051,292.6813108921051,292.6813108921051,294.5323414802551,3,1.994816541671753,None,,,,,,,,,,,,,,,,,,51,3,2025-02-19_14h08.50.344,comp,2024.2.4,60.19189979650471,2025-02-19 14h08.59.243031 -0500,
100,100,0,filler_random,None,None,None,None,None,None,None,None,None,None,3,1.442255973815918,None,,,,,0,0,0,0,0,100,100,169,294.5478343963623,,,,,,,,,,,,,,,,,,,,,,,,,,,,,,,,,,,,,,,,,,,,,,,,,,,,,,,,,,,,,,,,,,,,,,,,,,,,,,,,,63.27646323470968,167.21288127814057,138.98822983083585,124.41596282479863,96.88820326050306,185.46539665139693,4.0,4.1,-242,-256,0,0,251,-253,294.5332362651825,294.5332772731781,294.53570556640625,294.5478343963623,294.6978123188019,294.6978123188019,294.6978123188019,294.6978123188019,294.6978123188019,294.6978123188019,294.6978123188019,295.9988329410553,3,1.442255973815918,None,,,,,,,,,,,,,,,,,,51,3,2025-02-19_14h08.50.344,comp,2024.2.4,60.19189979650471,2025-02-19 14h08.59.243031 -0500,
101,101,0,filler_random,None,None,None,None,None,None,None,None,None,None,2,0.950685977935791,None,,,,,0,0,0,0,0,101,101,150,296.01446890830994,,,,,,,,,,,,,,,,,,,,,,,,,,,,,,,,,,,,,,,,,,,,,,,,,,,,,,,,,,,,,,,,,,,,,,,,,,,,,,,,,154.81623600596728,68.00257178069435,131.59906264852424,197.51659282884717,170.94802914028537,105.08221729507906,4.0,4.1,-229,-272,0,-18,247,-265,295.99971055984497,295.9997503757477,296.0019676685333,296.01446890830994,296.1645669937134,296.1645669937134,296.1645669937134,296.1645669937134,296.1645669937134,296.1645669937134,296.1645669937134,296.9822199344635,2,0.950685977935791,None,,,,,,,,,,,,,,,,,,51,3,2025-02-19_14h08.50.344,comp,2024.2.4,60.19189979650471,2025-02-19 14h08.59.243031 -0500,
102,102,0,critical,hdw,35.0,2.1,upper,200.0,125.0,127.0,127.0,125.0,200.0,3,1.50364351272583,None,,,,,0,0,0,0,0,102,102,21,296.9974834918976,,,,,,,,,,,,,,,,,,,,,,,,,,,,,,,,,,,,,,,,,,,,,,,,,,,,,,,,,,,,,,,,,,,,,,,,,,,,,,,,,200.0,125.0,127.0,127.0,125.0,200.0,2.1,2.11,-222,257,0,258,260,-270,296.9829843044281,296.983021736145,296.98535346984863,296.9974834918976,297.1478850841522,297.1478850841522,297.1478850841522,297.1478850841522,297.1478850841522,297.1478850841522,297.1478850841522,298.51573061943054,3,1.50364351272583,None,,,,,,,,,,,,,,,,,,51,3,2025-02-19_14h08.50.344,comp,2024.2.4,60.19189979650471,2025-02-19 14h08.59.243031 -0500,
103,103,0,filler_square,None,None,None,None,None,None,None,None,None,None,1,1.05908203125,None,,,,,0,0,0,0,0,103,103,174,298.5309042930603,,,,,,,,,,,,,,,,,,,,,,,,,,,,,,,,,,,,,,,,,,,,,,,,,,,,,,,,,,,,,,,,,,,,,,,,,,,,,,,,,190.0178371826523,190.0178371826523,163.20518035344088,154.5356608372465,68.36102701205874,63.20090067670115,4.0,4.2,-268,-7,0,-290,205,7,298.5166974067688,298.51673913002014,298.5192732810974,298.5309042930603,298.68140387535095,298.68140387535095,298.68140387535095,298.68140387535095,298.68140387535095,298.68140387535095,298.68140387535095,299.5991678237915,1,1.05908203125,None,,,,,,,,,,,,,,,,,,51,3,2025-02-19_14h08.50.344,comp,2024.2.4,60.19189979650471,2025-02-19 14h08.59.243031 -0500,
104,104,0,filler_square,None,None,None,None,None,None,None,None,None,None,2,0.8545987606048584,None,,,,,0,0,0,0,0,104,104,194,299.61445689201355,,,,,,,,,,,,,,,,,,,,,,,,,,,,,,,,,,,,,,,,,,,,,,,,,,,,,,,,,,,,,,,,,,,,,,,,,,,,,,,,,152.61639535879155,122.1769731551151,166.50062852206543,166.50062852206543,134.67044951475054,94.34448118818031,1.0,1.2,-240,14,0,10,226,11,299.6000952720642,299.6001377105713,299.6022322177887,299.61445689201355,299.7645742893219,299.7645742893219,299.7645742893219,299.7645742893219,299.7645742893219,299.7645742893219,299.7645742893219,300.4822783470154,2,0.8545987606048584,None,,,,,,,,,,,,,,,,,,51,3,2025-02-19_14h08.50.344,comp,2024.2.4,60.19189979650471,2025-02-19 14h08.59.243031 -0500,
105,105,0,filler_square,None,None,None,None,None,None,None,None,None,None,2,0.876469612121582,None,,,,,0,0,0,0,0,105,105,198,300.4975309371948,,,,,,,,,,,,,,,,,,,,,,,,,,,,,,,,,,,,,,,,,,,,,,,,,,,,,,,,,,,,,,,,,,,,,,,,,,,,,,,,,67.04944207430195,91.23034903517802,191.3799635617423,191.3799635617423,177.25460833285638,100.29676576006185,3.0,3.1,-237,283,0,-11,242,-268,300.48322439193726,300.48326420783997,300.4856593608856,300.4975309371948,300.6478476524353,300.6478476524353,300.6478476524353,300.6478476524353,300.6478476524353,300.6478476524353,300.6478476524353,301.38221311569214,2,0.876469612121582,None,,,,,,,,,,,,,,,,,,51,3,2025-02-19_14h08.50.344,comp,2024.2.4,60.19189979650471,2025-02-19 14h08.59.243031 -0500,
106,106,0,critical,hdw,35.0,1.0,upper,200.0,125.0,127.0,127.0,125.0,200.0,3,1.3192801475524902,None,,,,,0,0,0,0,0,106,106,109,301.3976995944977,,,,,,,,,,,,,,,,,,,,,,,,,,,,,,,,,,,,,,,,,,,,,,,,,,,,,,,,,,,,,,,,,,,,,,,,,,,,,,,,,200.0,125.0,127.0,127.0,125.0,200.0,1.0,1.2,-222,-12,0,7,260,12,301.3829448223114,301.38298439979553,301.38525676727295,301.3976995944977,301.5481102466583,301.5481102466583,301.5481102466583,301.5481102466583,301.5481102466583,301.5481102466583,301.5481102466583,302.73226499557495,3,1.3192801475524902,None,,,,,,,,,,,,,,,,,,51,3,2025-02-19_14h08.50.344,comp,2024.2.4,60.19189979650471,2025-02-19 14h08.59.243031 -0500,
107,107,0,critical,wdh,20.0,4.0,lower,57.0,133.0,78.0,78.0,133.0,57.0,1,1.8893721103668213,None,,,,,0,0,0,0,0,107,107,82,302.74755215644836,,,,,,,,,,,,,,,,,,,,,,,,,,,,,,,,,,,,,,,,,,,,,,,,,,,,,,,,,,,,,,,,,,,,,,,,,,,,,,,,,57.0,133.0,78.0,78.0,133.0,57.0,4.0,4.1,-202,-256,0,-10,164,-279,302.73308515548706,302.73312425613403,302.73551201820374,302.74755215644836,302.8977530002594,302.8977530002594,302.8977530002594,302.8977530002594,302.8977530002594,302.8977530002594,302.8977530002594,304.6490709781647,1,1.8893721103668213,None,,,,,,,,,,,,,,,,,,51,3,2025-02-19_14h08.50.344,comp,2024.2.4,60.19189979650471,2025-02-19 14h08.59.243031 -0500,
108,108,0,critical,hdw,20.0,2.1,upper,200.0,125.0,141.0,141.0,125.0,200.0,3,1.3997597694396973,None,,,,,0,0,0,0,0,108,108,47,304.664204120636,,,,,,,,,,,,,,,,,,,,,,,,,,,,,,,,,,,,,,,,,,,,,,,,,,,,,,,,,,,,,,,,,,,,,,,,,,,,,,,,,200.0,125.0,141.0,141.0,125.0,200.0,2.1,2.11,-229,271,0,275,266,-266,304.64983344078064,304.6498725414276,304.651903629303,304.664204120636,304.8148205280304,304.8148205280304,304.8148205280304,304.8148205280304,304.8148205280304,304.8148205280304,304.8148205280304,306.06612038612366,3,1.3997597694396973,None,,,,,,,,,,,,,,,,,,51,3,2025-02-19_14h08.50.344,comp,2024.2.4,60.19189979650471,2025-02-19 14h08.59.243031 -0500,
109,109,0,critical,dhw,35.0,1.0,lower,70.0,70.0,133.0,57.0,57.0,133.0,2,1.3333852291107178,None,,,,,0,0,0,0,0,109,109,48,306.081120967865,,,,,,,,,,,,,,,,,,,,,,,,,,,,,,,,,,,,,,,,,,,,,,,,,,,,,,,,,,,,,,,,,,,,,,,,,,,,,,,,,70.0,70.0,133.0,57.0,57.0,133.0,1.0,1.2,-160,5,0,-18,191,17,306.06690764427185,306.06696677207947,306.06917428970337,306.081120967865,306.23091983795166,306.23091983795166,306.23091983795166,306.23091983795166,306.23091983795166,306.23091983795166,306.23091983795166,307.4320635795593,2,1.3333852291107178,None,,,,,,,,,,,,,,,,,,51,3,2025-02-19_14h08.50.344,comp,2024.2.4,60.19189979650471,2025-02-19 14h08.59.243031 -0500,
110,110,0,critical,dhw,35.0,2.1,upper,127.0,127.0,200.0,125.0,125.0,200.0,2,0.9267094135284424,None,,,,,0,0,0,0,0,110,110,25,307.4474880695343,,,,,,,,,,,,,,,,,,,,,,,,,,,,,,,,,,,,,,,,,,,,,,,,,,,,,,,,,,,,,,,,,,,,,,,,,,,,,,,,,127.0,127.0,200.0,125.0,125.0,200.0,2.1,2.11,-222,272,0,273,258,-286,307.43287086486816,307.43291211128235,307.43528842926025,307.4474880695343,307.5978214740753,307.5978214740753,307.5978214740753,307.5978214740753,307.5978214740753,307.5978214740753,307.5978214740753,308.3822772502899,2,0.9267094135284424,None,,,,,,,,,,,,,,,,,,51,3,2025-02-19_14h08.50.344,comp,2024.2.4,60.19189979650471,2025-02-19 14h08.59.243031 -0500,
111,111,0,critical,whd,20.0,4.0,upper,125.0,200.0,200.0,125.0,141.0,141.0,1,1.3513860702514648,None,,,,,0,0,0,0,0,111,111,95,308.397691488266,,,,,,,,,,,,,,,,,,,,,,,,,,,,,,,,,,,,,,,,,,,,,,,,,,,,,,,,,,,,,,,,,,,,,,,,,,,,,,,,,125.0,200.0,200.0,125.0,141.0,141.0,4.0,4.2,-258,5,0,-286,229,-10,308.3830349445343,308.3830726146698,308.38544368743896,308.397691488266,308.54789781570435,308.54789781570435,308.54789781570435,308.54789781570435,308.54789781570435,308.54789781570435,308.54789781570435,309.76563477516174,1,1.3513860702514648,None,,,,,,,,,,,,,,,,,,51,3,2025-02-19_14h08.50.344,comp,2024.2.4,60.19189979650471,2025-02-19 14h08.59.243031 -0500,
112,112,0,filler_square,None,None,None,None,None,None,None,None,None,None,2,0.9446549415588379,None,,,,,0,0,0,0,0,112,112,206,309.78127884864807,,,,,,,,,,,,,,,,,,,,,,,,,,,,,,,,,,,,,,,,,,,,,,,,,,,,,,,,,,,,,,,,,,,,,,,,,,,,,,,,,118.89608057993513,116.89734289398535,179.24104743996415,179.24104743996415,140.1598126754692,101.78594230895457,2.2,2.22,-244,265,0,-268,237,-266,309.7668902873993,309.76694560050964,309.7703354358673,309.78127884864807,309.9312148094177,309.9312148094177,309.9312148094177,309.9312148094177,309.9312148094177,309.9312148094177,309.9312148094177,310.7322430610657,2,0.9446549415588379,None,,,,,,,,,,,,,,,,,,51,3,2025-02-19_14h08.50.344,comp,2024.2.4,60.19189979650471,2025-02-19 14h08.59.243031 -0500,
113,113,0,critical,wdh,35.0,4.0,upper,125.0,200.0,127.0,127.0,200.0,125.0,1,0.977860689163208,None,,,,,0,0,0,0,0,113,113,77,310.74798798561096,,,,,,,,,,,,,,,,,,,,,,,,,,,,,,,,,,,,,,,,,,,,,,,,,,,,,,,,,,,,,,,,,,,,,,,,,,,,,,,,,125.0,200.0,127.0,127.0,200.0,125.0,4.0,4.2,-260,3,0,-283,222,8,310.7330243587494,310.73306465148926,310.73544239997864,310.74798798561096,310.89785718917847,310.89785718917847,310.89785718917847,310.89785718917847,310.89785718917847,310.89785718917847,310.89785718917847,311.73217129707336,1,0.977860689163208,None,,,,,,,,,,,,,,,,,,51,3,2025-02-19_14h08.50.344,comp,2024.2.4,60.19189979650471,2025-02-19 14h08.59.243031 -0500,
114,114,0,filler_square,None,None,None,None,None,None,None,None,None,None,3,1.35335373878479,None,,,,,0,0,0,0,0,114,114,205,311.74768924713135,,,,,,,,,,,,,,,,,,,,,,,,,,,,,,,,,,,,,,,,,,,,,,,,,,,,,,,,,,,,,,,,,,,,,,,,,,,,,,,,,89.8365402775617,89.8365402775617,84.27685943775666,85.9327095610376,87.06922814108209,89.76747411711554,4.0,4.2,-184,8,0,-288,184,11,311.73309803009033,311.7331397533417,311.73553562164307,311.74768924713135,311.8975646495819,311.8975646495819,311.8975646495819,311.8975646495819,311.8975646495819,311.8975646495819,311.8975646495819,313.115314245224,3,1.35335373878479,None,,,,,,,,,,,,,,,,,,51,3,2025-02-19_14h08.50.344,comp,2024.2.4,60.19189979650471,2025-02-19 14h08.59.243031 -0500,
115,115,0,critical,dhw,35.0,1.0,upper,127.0,127.0,200.0,125.0,125.0,200.0,3,3.2181594371795654,None,,,,,0,0,0,0,0,115,115,49,313.1308698654175,,,,,,,,,,,,,,,,,,,,,,,,,,,,,,,,,,,,,,,,,,,,,,,,,,,,,,,,,,,,,,,,,,,,,,,,,,,,,,,,,127.0,127.0,200.0,125.0,125.0,200.0,1.0,1.2,-222,-2,0,-14,258,-5,313.11607694625854,313.1161379814148,313.1186172962189,313.1308698654175,313.28124618530273,313.28124618530273,313.28124618530273,313.28124618530273,313.28124618530273,313.28124618530273,313.28124618530273,316.3655254840851,3,3.2181594371795654,None,,,,,,,,,,,,,,,,,,51,3,2025-02-19_14h08.50.344,comp,2024.2.4,60.19189979650471,2025-02-19 14h08.59.243031 -0500,
116,116,0,critical,whd,20.0,1.0,upper,125.0,200.0,200.0,125.0,141.0,141.0,2,0.977046012878418,None,,,,,0,0,0,0,0,116,116,91,316.3807816505432,,,,,,,,,,,,,,,,,,,,,,,,,,,,,,,,,,,,,,,,,,,,,,,,,,,,,,,,,,,,,,,,,,,,,,,,,,,,,,,,,125.0,200.0,200.0,125.0,141.0,141.0,1.0,1.1,-738,270,-480,263,-251,282,316.3664231300354,316.3664638996124,316.3689568042755,316.3807816505432,316.53118348121643,316.53118348121643,316.53118348121643,316.53118348121643,316.53118348121643,316.53118348121643,316.53118348121643,317.36555004119873,2,0.977046012878418,None,,,,,,,,,,,,,,,,,,51,3,2025-02-19_14h08.50.344,comp,2024.2.4,60.19189979650471,2025-02-19 14h08.59.243031 -0500,
117,117,0,critical,hwd,20.0,3.0,upper,200.0,125.0,125.0,200.0,141.0,141.0,2,2.4502177238464355,None,,,,,0,0,0,0,0,117,117,105,317.3810076713562,,,,,,,,,,,,,,,,,,,,,,,,,,,,,,,,,,,,,,,,,,,,,,,,,,,,,,,,,,,,,,,,,,,,,,,,,,,,,,,,,200.0,125.0,125.0,200.0,141.0,141.0,3.0,3.2,-258,-289,0,-10,266,269,317.36630272865295,317.3663423061371,317.3687059879303,317.3810076713562,317.53107738494873,317.53107738494873,317.53107738494873,317.53107738494873,317.53107738494873,317.53107738494873,317.53107738494873,319.83246636390686,2,2.4502177238464355,None,,,,,,,,,,,,,,,,,,51,3,2025-02-19_14h08.50.344,comp,2024.2.4,60.19189979650471,2025-02-19 14h08.59.243031 -0500,
118,118,0,filler_square,None,None,None,None,None,None,None,None,None,None,2,1.1173405647277832,None,,,,,0,0,0,0,0,118,118,189,319.8476483821869,,,,,,,,,,,,,,,,,,,,,,,,,,,,,,,,,,,,,,,,,,,,,,,,,,,,,,,,,,,,,,,,,,,,,,,,,,,,,,,,,89.14709104464355,150.66511199485373,172.33434954372734,172.33434954372734,170.12936510797067,83.69442791013222,2.1,2.11,-257,264,0,254,224,-269,319.83342456817627,319.8334662914276,319.8358497619629,319.8476483821869,319.997761964798,319.997761964798,319.997761964798,319.997761964798,319.997761964798,319.997761964798,319.997761964798,320.98213481903076,2,1.1173405647277832,None,,,,,,,,,,,,,,,,,,51,3,2025-02-19_14h08.50.344,comp,2024.2.4,60.19189979650471,2025-02-19 14h08.59.243031 -0500,
119,119,0,critical,dwh,20.0,4.0,upper,141.0,141.0,125.0,200.0,200.0,125.0,1,1.719465970993042,None,,,,,0,0,0,0,0,119,119,71,320.99738478660583,,,,,,,,,,,,,,,,,,,,,,,,,,,,,,,,,,,,,,,,,,,,,,,,,,,,,,,,,,,,,,,,,,,,,,,,,,,,,,,,,141.0,141.0,125.0,200.0,200.0,125.0,4.0,4.2,-266,19,0,-284,258,12,320.98286151885986,320.98289823532104,320.9851403236389,320.99738478660583,321.1479949951172,321.1479949951172,321.1479949951172,321.1479949951172,321.1479949951172,321.1479949951172,321.1479949951172,322.73222064971924,1,1.719465970993042,None,,,,,,,,,,,,,,,,,,51,3,2025-02-19_14h08.50.344,comp,2024.2.4,60.19189979650471,2025-02-19 14h08.59.243031 -0500,
120,120,0,critical,dhw,20.0,4.0,upper,141.0,141.0,200.0,125.0,125.0,200.0,3,1.931682825088501,None,,,,,0,0,0,0,0,120,120,59,322.747421503067,,,,,,,,,,,,,,,,,,,,,,,,,,,,,,,,,,,,,,,,,,,,,,,,,,,,,,,,,,,,,,,,,,,,,,,,,,,,,,,,,141.0,141.0,200.0,125.0,125.0,200.0,4.0,4.1,-229,-254,0,5,258,-269,322.73301243782043,322.73305201530457,322.7353789806366,322.747421503067,322.8976972103119,322.8976972103119,322.8976972103119,322.8976972103119,322.8976972103119,322.8976972103119,322.8976972103119,324.68232107162476,3,1.931682825088501,None,,,,,,,,,,,,,,,,,,51,3,2025-02-19_14h08.50.344,comp,2024.2.4,60.19189979650471,2025-02-19 14h08.59.243031 -0500,
121,121,0,critical,wdh,20.0,2.1,upper,125.0,200.0,141.0,141.0,200.0,125.0,3,1.1391253471374512,None,,,,,0,0,0,0,0,121,121,35,324.69760489463806,,,,,,,,,,,,,,,,,,,,,,,,,,,,,,,,,,,,,,,,,,,,,,,,,,,,,,,,,,,,,,,,,,,,,,,,,,,,,,,,,125.0,200.0,141.0,141.0,200.0,125.0,2.1,2.12,-266,-283,0,-281,229,269,324.6831033229828,324.68314385414124,324.6852812767029,324.69760489463806,324.8476462364197,324.8476462364197,324.8476462364197,324.8476462364197,324.8476462364197,324.8476462364197,324.8476462364197,325.84898853302,3,1.1391253471374512,None,,,,,,,,,,,,,,,,,,51,3,2025-02-19_14h08.50.344,comp,2024.2.4,60.19189979650471,2025-02-19 14h08.59.243031 -0500,
122,122,0,catch,None,None,None,None,None,None,None,None,None,None,3,0.8776512145996094,None,,,,,0,0,0,0,0,122,122,125,325.8640179634094,,,,,,,,,,,,,,,,,,,,,,,,,,,,,,,,,,,,,,,,,,,,,,,,,,,,,,,,,,,,,,,,,,,,,,,,,,,,,,,,,116,74,103,87,151,174,2.2,2.22,-176,260,0,-289,226,-252,325.8501377105713,325.8501811027527,325.8525502681732,325.8640179634094,326.0142333507538,326.0142333507538,326.0142333507538,326.0142333507538,326.0142333507538,326.0142333507538,326.0142333507538,326.74870705604553,3,0.8776512145996094,None,,,,,,,,,,,,,,,,,,51,3,2025-02-19_14h08.50.344,comp,2024.2.4,60.19189979650471,2025-02-19 14h08.59.243031 -0500,
123,123,0,filler_random,None,None,None,None,None,None,None,None,None,None,3,1.4005942344665527,None,,,,,0,0,0,0,0,123,123,158,326.76433849334717,,,,,,,,,,,,,,,,,,,,,,,,,,,,,,,,,,,,,,,,,,,,,,,,,,,,,,,,,,,,,,,,,,,,,,,,,,,,,,,,,145.87175430772655,113.30875672065477,112.66273901745065,136.37109175024634,170.90676662558138,148.77940343517326,2.1,2.12,-221,-269,0,-253,239,287,326.7495918273926,326.74962997436523,326.75206208229065,326.76433849334717,326.9142918586731,326.9142918586731,326.9142918586731,326.9142918586731,326.9142918586731,326.9142918586731,326.9142918586731,328.18209433555603,3,1.4005942344665527,None,,,,,,,,,,,,,,,,,,51,3,2025-02-19_14h08.50.344,comp,2024.2.4,60.19189979650471,2025-02-19 14h08.59.243031 -0500,
124,124,0,critical,hdw,20.0,2.1,lower,133.0,57.0,78.0,78.0,57.0,133.0,1,2.7195208072662354,None,,,,,0,0,0,0,0,124,124,46,328.19733023643494,,,,,,,,,,,,,,,,,,,,,,,,,,,,,,,,,,,,,,,,,,,,,,,,,,,,,,,,,,,,,,,,,,,,,,,,,,,,,,,,,133.0,57.0,78.0,78.0,57.0,133.0,2.1,2.11,-164,287,0,268,202,-258,328.1828565597534,328.18289732933044,328.1852240562439,328.19733023643494,328.3478579521179,328.3478579521179,328.3478579521179,328.3478579521179,328.3478579521179,328.3478579521179,328.3478579521179,330.93192625045776,1,2.7195208072662354,None,,,,,,,,,,,,,,,,,,51,3,2025-02-19_14h08.50.344,comp,2024.2.4,60.19189979650471,2025-02-19 14h08.59.243031 -0500,
125,125,0,critical,whd,20.0,1.0,lower,57.0,133.0,133.0,57.0,78.0,78.0,1,2.3623480796813965,None,,,,,0,0,0,0,0,125,125,90,330.9473035335541,,,,,,,,,,,,,,,,,,,,,,,,,,,,,,,,,,,,,,,,,,,,,,,,,,,,,,,,,,,,,,,,,,,,,,,,,,,,,,,,,57.0,133.0,133.0,57.0,78.0,78.0,1.0,1.3,289,-267,480,-255,644,-284,330.93272042274475,330.9327595233917,330.9350759983063,330.9473035335541,331.0974659919739,331.0974659919739,331.0974659919739,331.0974659919739,331.0974659919739,331.0974659919739,331.0974659919739,333.31526017189026,1,2.3623480796813965,None,,,,,,,,,,,,,,,,,,51,3,2025-02-19_14h08.50.344,comp,2024.2.4,60.19189979650471,2025-02-19 14h08.59.243031 -0500,
126,126,0,critical,dhw,35.0,2.1,lower,70.0,70.0,133.0,57.0,57.0,133.0,3,3.3165972232818604,None,,,,,0,0,0,0,0,126,126,0,333.3309087753296,,,,,,,,,,,,,,,,,,,,,,,,,,,,,,,,,,,,,,,,,,,,,,,,,,,,,,,,,,,,,,,,,,,,,,,,,,,,,,,,,70.0,70.0,133.0,57.0,57.0,133.0,2.1,2.12,-160,-279,0,-264,191,266,333.316045999527,333.3160865306854,333.3185079097748,333.3309087753296,333.48088932037354,333.48088932037354,333.48088932037354,333.48088932037354,333.48088932037354,333.48088932037354,333.48088932037354,336.64870619773865,3,3.3165972232818604,None,,,,,,,,,,,,,,,,,,51,3,2025-02-19_14h08.50.344,comp,2024.2.4,60.19189979650471,2025-02-19 14h08.59.243031 -0500,
127,127,0,critical,dhw,35.0,4.0,upper,127.0,127.0,200.0,125.0,125.0,200.0,3,5.925406455993652,None,,,,,0,0,0,0,0,127,127,53,336.66420245170593,,,,,,,,,,,,,,,,,,,,,,,,,,,,,,,,,,,,,,,,,,,,,,,,,,,,,,,,,,,,,,,,,,,,,,,,,,,,,,,,,127.0,127.0,200.0,125.0,125.0,200.0,4.0,4.1,-222,-265,0,-10,258,-276,336.6494963169098,336.64953660964966,336.65215134620667,336.66420245170593,336.8142457008362,336.8142457008362,336.8142457008362,336.8142457008362,336.8142457008362,336.8142457008362,336.8142457008362,342.59870743751526,3,5.925406455993652,None,,,,,,,,,,,,,,,,,,51,3,2025-02-19_14h08.50.344,comp,2024.2.4,60.19189979650471,2025-02-19 14h08.59.243031 -0500,
128,128,0,critical,wdh,20.0,1.0,upper,125.0,200.0,141.0,141.0,200.0,125.0,2,-5.7220458984375e-06,None,,,,,0,0,0,0,0,128,128,79,342.61446237564087,,,,,,,,,,,,,,,,,,,,,,,,,,,,,,,,,,,,,,,,,,,,,,,,,,,,,,,,,,,,,,,,,,,,,,,,,,,,,,,,,125.0,200.0,141.0,141.0,200.0,125.0,1.0,1.3,214,-281,480,-281,709,-252,342.59947204589844,342.59950971603394,342.6019277572632,342.61446237564087,,,,,,,,342.6160571575165,2,-5.7220458984375e-06,None,,,,,,,,,,,,,,,,,,51,3,2025-02-19_14h08.50.344,comp,2024.2.4,60.19189979650471,2025-02-19 14h08.59.243031 -0500,
129,129,0,critical,hwd,20.0,2.1,upper,200.0,125.0,125.0,200.0,141.0,141.0,1,2.3668665885925293,None,,,,,0,0,0,0,0,129,129,19,342.631046295166,,,,,,,,,,,,,,,,,,,,,,,,,,,,,,,,,,,,,,,,,,,,,,,,,,,,,,,,,,,,,,,,,,,,,,,,,,,,,,,,,200.0,125.0,125.0,200.0,141.0,141.0,2.1,2.12,-258,-255,0,-259,266,286,342.6168007850647,342.61683893203735,342.61896800994873,342.631046295166,342.78096556663513,342.78096556663513,342.78096556663513,342.78096556663513,342.78096556663513,342.78096556663513,342.78096556663513,345.0152847766876,1,2.3668665885925293,None,,,,,,,,,,,,,,,,,,51,3,2025-02-19_14h08.50.344,comp,2024.2.4,60.19189979650471,2025-02-19 14h08.59.243031 -0500,
130,130,0,critical,dwh,35.0,4.0,lower,70.0,70.0,57.0,133.0,133.0,57.0,2,0.016816377639770508,None,,,,,0,0,0,0,0,130,130,64,345.03055930137634,,,,,,,,,,,,,,,,,,,,,,,,,,,,,,,,,,,,,,,,,,,,,,,,,,,,,,,,,,,,,,,,,,,,,,,,,,,,,,,,,70.0,70.0,57.0,133.0,133.0,57.0,4.0,4.1,-198,-254,0,8,191,-281,345.01605319976807,345.0160927772522,345.01847290992737,345.03055930137634,,,,,,,,345.04864597320557,2,0.016816377639770508,None,,,,,,,,,,,,,,,,,,51,3,2025-02-19_14h08.50.344,comp,2024.2.4,60.19189979650471,2025-02-19 14h08.59.243031 -0500,
131,131,0,filler_square,None,None,None,None,None,None,None,None,None,None,3,1.1020293235778809,None,,,,,0,0,0,0,0,131,131,190,345.0639932155609,,,,,,,,,,,,,,,,,,,,,,,,,,,,,,,,,,,,,,,,,,,,,,,,,,,,,,,,,,,,,,,,,,,,,,,,,,,,,,,,,61.28999318677131,67.57001820674289,77.75534179303763,84.64390316814648,100.09523133395902,100.09523133395902,4.0,4.2,-172,-10,0,-250,188,-3,345.049601316452,345.0496418476105,345.05221819877625,345.0639932155609,345.2142684459686,345.2142684459686,345.2142684459686,345.2142684459686,345.2142684459686,345.2142684459686,345.2142684459686,346.1817138195038,3,1.1020293235778809,None,,,,,,,,,,,,,,,,,,51,3,2025-02-19_14h08.50.344,comp,2024.2.4,60.19189979650471,2025-02-19 14h08.59.243031 -0500,
132,132,0,filler_square,None,None,None,None,None,None,None,None,None,None,2,1.576890230178833,None,,,,,0,0,0,0,0,132,132,173,346.19718980789185,,,,,,,,,,,,,,,,,,,,,,,,,,,,,,,,,,,,,,,,,,,,,,,,,,,,,,,,,,,,,,,,,,,,,,,,,,,,,,,,,190.49485018924221,115.15553116063415,194.2545044851037,194.2545044851037,194.11691135193618,169.69671353058703,4.0,4.2,-251,-3,0,-266,278,-6,346.1826400756836,346.18268036842346,346.1846835613251,346.19718980789185,346.3476631641388,346.3476631641388,346.3476631641388,346.3476631641388,346.3476631641388,346.3476631641388,346.3476631641388,347.78232049942017,2,1.576890230178833,None,,,,,,,,,,,,,,,,,,51,3,2025-02-19_14h08.50.344,comp,2024.2.4,60.19189979650471,2025-02-19 14h08.59.243031 -0500,
133,133,0,critical,hwd,35.0,1.0,upper,200.0,125.0,125.0,200.0,127.0,127.0,2,2.4086878299713135,None,,,,,0,0,0,0,0,133,133,97,347.79745602607727,,,,,,,,,,,,,,,,,,,,,,,,,,,,,,,,,,,,,,,,,,,,,,,,,,,,,,,,,,,,,,,,,,,,,,,,,,,,,,,,,200.0,125.0,125.0,200.0,127.0,127.0,1.0,1.2,-258,-3,0,9,260,10,347.78309082984924,347.7831301689148,347.7855043411255,347.79745602607727,347.947630405426,347.947630405426,347.947630405426,347.947630405426,347.947630405426,347.947630405426,347.947630405426,350.2157738208771,2,2.4086878299713135,None,,,,,,,,,,,,,,,,,,51,3,2025-02-19_14h08.50.344,comp,2024.2.4,60.19189979650471,2025-02-19 14h08.59.243031 -0500,
134,134,0,critical,wdh,20.0,3.0,upper,125.0,200.0,141.0,141.0,200.0,125.0,3,3.06374454498291,None,,,,,0,0,0,0,0,134,134,81,350.2307767868042,,,,,,,,,,,,,,,,,,,,,,,,,,,,,,,,,,,,,,,,,,,,,,,,,,,,,,,,,,,,,,,,,,,,,,,,,,,,,,,,,125.0,200.0,141.0,141.0,200.0,125.0,3.0,3.1,-266,282,0,11,229,-290,350.2165400981903,350.2165791988373,350.2186028957367,350.2307767868042,350.38099479675293,350.38099479675293,350.38099479675293,350.38099479675293,350.38099479675293,350.38099479675293,350.38099479675293,353.29883646965027,3,3.06374454498291,None,,,,,,,,,,,,,,,,,,51,3,2025-02-19_14h08.50.344,comp,2024.2.4,60.19189979650471,2025-02-19 14h08.59.243031 -0500,
135,135,0,critical,hdw,35.0,3.0,lower,133.0,57.0,70.0,70.0,57.0,133.0,1,0.0025281906127929688,None,,,,,0,0,0,0,0,135,135,110,353.3141646385193,,,,,,,,,,,,,,,,,,,,,,,,,,,,,,,,,,,,,,,,,,,,,,,,,,,,,,,,,,,,,,,,,,,,,,,,,,,,,,,,,133.0,57.0,70.0,70.0,57.0,133.0,3.0,3.1,-160,261,0,18,198,-255,353.2996473312378,353.2996892929077,353.3021194934845,353.3141646385193,,,,,,,,353.33159947395325,1,0.0025281906127929688,None,,,,,,,,,,,,,,,,,,51,3,2025-02-19_14h08.50.344,comp,2024.2.4,60.19189979650471,2025-02-19 14h08.59.243031 -0500,
136,136,0,critical,whd,35.0,1.0,upper,125.0,200.0,200.0,125.0,127.0,127.0,2,2.5858383178710938,None,,,,,0,0,0,0,0,136,136,85,353.3471541404724,,,,,,,,,,,,,,,,,,,,,,,,,,,,,,,,,,,,,,,,,,,,,,,,,,,,,,,,,,,,,,,,,,,,,,,,,,,,,,,,,125.0,200.0,200.0,125.0,127.0,127.0,1.0,1.1,-738,256,-480,265,-258,254,353.33241748809814,353.33245611190796,353.33514523506165,353.3471541404724,353.49745774269104,353.49745774269104,353.49745774269104,353.49745774269104,353.49745774269104,353.49745774269104,353.49745774269104,355.94872093200684,2,2.5858383178710938,None,,,,,,,,,,,,,,,,,,51,3,2025-02-19_14h08.50.344,comp,2024.2.4,60.19189979650471,2025-02-19 14h08.59.243031 -0500,
137,137,0,filler_random,None,None,None,None,None,None,None,None,None,None,1,None,None,,,,,0,0,0,0,0,137,137,154,355.9641215801239,,,,,,,,,,,,,,,,,,,,,,,,,,,,,,,,,,,,,,,,,,,,,,,,,,,,,,,,,,,,,,,,,,,,,,,,,,,,,,,,,110.15394013632812,69.63808453054939,95.34605289913301,102.58729922738638,131.66025812100236,124.0741201024379,3.0,3.1,-182,283,0,4,209,-273,355.94965076446533,355.94969153404236,355.95220589637756,355.9641215801239,356.1140639781952,356.1140639781952,356.1140639781952,356.1140639781952,356.1140639781952,356.1140639781952,356.1140639781952,356.1816110610962,1,None,None,,,,,,,,,,,,,,,,,,51,3,2025-02-19_14h08.50.344,comp,2024.2.4,60.19189979650471,2025-02-19 14h08.59.243031 -0500,
138,138,0,filler_square,None,None,None,None,None,None,None,None,None,None,3,2.8661084175109863,None,,,,,0,0,0,0,0,138,138,175,356.197128534317,,,,,,,,,,,,,,,,,,,,,,,,,,,,,,,,,,,,,,,,,,,,,,,,,,,,,,,,,,,,,,,,,,,,,,,,,,,,,,,,,153.5199100140677,86.14398451788071,72.1116693921963,184.1431012080604,186.22843625128408,186.22843625128408,2.1,2.11,-231,283,0,260,281,-276,356.1825444698334,356.1825850009918,356.18519163131714,356.197128534317,356.34749388694763,356.34749388694763,356.34749388694763,356.34749388694763,356.34749388694763,356.34749388694763,356.34749388694763,359.0653338432312,3,2.8661084175109863,None,,,,,,,,,,,,,,,,,,51,3,2025-02-19_14h08.50.344,comp,2024.2.4,60.19189979650471,2025-02-19 14h08.59.243031 -0500,
139,139,0,filler_random,None,None,None,None,None,None,None,None,None,None,1,0.924689769744873,None,,,,,0,0,0,0,0,139,139,164,359.08081221580505,,,,,,,,,,,,,,,,,,,,,,,,,,,,,,,,,,,,,,,,,,,,,,,,,,,,,,,,,,,,,,,,,,,,,,,,,,,,,,,,,139.1543732958822,172.075402771079,161.4582560238186,116.75778606921136,143.42211181362683,103.96918241427925,4.0,4.1,-240,-277,0,16,206,-279,359.0662248134613,359.066264629364,359.0683562755585,359.08081221580505,359.23105216026306,359.23105216026306,359.23105216026306,359.23105216026306,359.23105216026306,359.23105216026306,359.23105216026306,360.01517152786255,1,0.924689769744873,None,,,,,,,,,,,,,,,,,,51,3,2025-02-19_14h08.50.344,comp,2024.2.4,60.19189979650471,2025-02-19 14h08.59.243031 -0500,
140,140,0,critical,hwd,35.0,2.1,lower,133.0,57.0,57.0,133.0,70.0,70.0,1,1.5831663608551025,None,,,,,0,0,0,0,0,140,140,40,360.0309066772461,,,,,,,,,,,,,,,,,,,,,,,,,,,,,,,,,,,,,,,,,,,,,,,,,,,,,,,,,,,,,,,,,,,,,,,,,,,,,,,,,133.0,57.0,57.0,133.0,70.0,70.0,2.1,2.11,-191,258,0,279,198,-290,360.01595878601074,360.01599979400635,360.0180730819702,360.0309066772461,360.1806471347809,360.1806471347809,360.1806471347809,360.1806471347809,360.1806471347809,360.1806471347809,360.1806471347809,361.6317231655121,1,1.5831663608551025,None,,,,,,,,,,,,,,,,,,51,3,2025-02-19_14h08.50.344,comp,2024.2.4,60.19189979650471,2025-02-19 14h08.59.243031 -0500,
