thisN,thisTrialN,thisRepN,effect,order,distance,config,diag,h_1,w_1,h_2,w_2,h_3,w_3,rect_choice.keys,rect_choice.rt,rect_choice.duration,instructions_loop.thisRepN,instructions_loop.thisTrialN,instructions_loop.thisN,instructions_loop.thisIndex,blocks.thisRepN,blocks.thisTrialN,blocks.thisN,blocks.thisIndex,trials.thisRepN,trials.thisTrialN,trials.thisN,trials.thisIndex,thisRow.t,notes,consent.started,agree_button.started,decline_button.started,consent_img.started,mouse.started,consent.stopped,agree_button.numClicks,agree_button.timesOn,agree_button.timesOff,decline_button.numClicks,decline_button.timesOn,decline_button.timesOff,mouse.x,mouse.y,mouse.leftButton,mouse.midButton,mouse.rightButton,mouse.time,mouse.clicked_name,exp_params.started,exp_params.stopped,welcome.started,welcome_text.started,welcome_text.stopped,welcome.stopped,instructions_1.started,instructions_1_text_1.started,instructions_1_text_2.started,key_resp.started,instructions_1.stopped,instructions_loop.key_resp.keys,instructions_loop.key_resp.rt,instructions_loop.key_resp.duration,instructions_2.started,instructions_2_text_1.started,instructions_2_text_2.started,key_resp_2.started,instructions_2.stopped,instructions_loop.key_resp_2.keys,instructions_loop.key_resp_2.rt,instructions_loop.key_resp_2.duration,instructions_3.started,instructions_3_text_1.started,r1_instr3.started,r2_instr3.started,r3_instr3.started,r1_instr3_label.started,r2_instr3_label.started,r3_instr3_label.started,instructions_3_text_3.started,instructions_3_text_4.started,key_resp_3.started,instructions_3.stopped,instructions_loop.key_resp_3.keys,instructions_loop.key_resp_3.rt,instructions_loop.key_resp_3.duration,instructions_4.started,instructions_4_text_1.started,instructions_4_text_3.started,instructions_4_text_2.started,key_resp_4.started,instructions_4.stopped,instructions_loop.key_resp_4.keys,instructions_loop.key_resp_4.rt,instructions_loop.key_resp_4.duration,instructions_5.started,instructions_5_text_1.started,instructions_5_text_2.started,key_resp_5.started,instructions_5.stopped,instructions_loop.key_resp_5.keys,instructions_loop.key_resp_5.rt,instructions_loop.key_resp_5.duration,start_exp.started,start_exp_text.started,key_resp_6.started,start_exp.stopped,key_resp_6.keys,key_resp_6.rt,key_resp_6.duration,h_1_tmp,w_1_tmp,h_2_tmp,w_2_tmp,h_3_tmp,w_3_tmp,config_tmp,config_tmp_1,r_1_x,r_1_y,r_2_x,r_2_y,r_3_x,r_3_y,pre_trial.started,pre_trial.stopped,choice_trial.started,rect_choice.started,r_1.started,r_2.started,r_3.started,r_1_label.started,r_2_label.started,r_3_label.started,prompt.started,choice_trial.stopped,trials.rect_choice.keys,trials.rect_choice.rt,trials.rect_choice.duration,end_block.started,end_block_text.started,end_block.stopped,end.started,end_text.started,key_resp_7.started,end.stopped,key_resp_7.keys,key_resp_7.rt,key_resp_7.duration,debriefing.started,debrief_form.started,end_debrief.started,debriefing.stopped,end_debrief.keys,end_debrief.rt,end_debrief.duration,participant,computer,date,expName,psychopyVersion,frameRate,expStart,
,,,,,,,,,,,,,,,,,,,,,,,,,,,,,,,0.014801502227783203,0.036145925521850586,0.036145925521850586,0.036145925521850586,0.014559268951416016,27.102234363555908,1,[27.063775539398193],[27.06379747390747],0,,,"[-68.0, -30.0, -72.0]","[183.0, 268.0, -500.0]","[1, 1, 1]","[0, 0, 0]","[0, 0, 0]","[7.912436246871948, 8.747848987579346, 27.0869300365448]","[None, None, 'agree_button']",,,,,,,,,,,,,,,,,,,,,,,,,,,,,,,,,,,,,,,,,,,,,,,,,,,,,,,,,,,,,,,,,,,,,,,,,,,,,,,,,,,,,,,,,,,,,,,,,,,,,,,,,,,,52,4,2025-02-19_14h09.29.454,comp,2024.2.4,57.75456502012451,2025-02-19 14h09.38.577358 -0500,
,,,,,,,,,,,,,,,,,,,,,,,,,,,,,,,,,,,,,,,,,,,,,,,,,,27.102874279022217,27.102941274642944,,,,,,,,,,,,,,,,,,,,,,,,,,,,,,,,,,,,,,,,,,,,,,,,,,,,,,,,,,,,,,,,,,,,,,,,,,,,,,,,,,,,,,,,,,,,,,,,,,,,,,,,,,52,4,2025-02-19_14h09.29.454,comp,2024.2.4,57.75456502012451,2025-02-19 14h09.38.577358 -0500,
,,,,,,,,,,,,,,,,,,,,,,,,,,,,,,,,,,,,,,,,,,,,,,,,,,,,27.102985858917236,27.115753889083862,29.119426012039185,29.100828170776367,,,,,,,,,,,,,,,,,,,,,,,,,,,,,,,,,,,,,,,,,,,,,,,,,,,,,,,,,,,,,,,,,,,,,,,,,,,,,,,,,,,,,,,,,,,,,,,,,,,,,,52,4,2025-02-19_14h09.29.454,comp,2024.2.4,57.75456502012451,2025-02-19 14h09.38.577358 -0500,
0,0,0,,,,,,,,,,,,,,,0,0,0,0,,,,,,,,,29.119426012039185,,,,,,,,,,,,,,,,,,,,,,,,,,,29.10168218612671,29.119426012039185,29.119426012039185,30.604183435440063,32.405930519104004,space,1.7881934642791748,None,32.406076431274414,32.42123103141785,32.42123103141785,33.90537357330322,36.35770845413208,space,2.4390952587127686,None,36.35785627365112,36.38710689544678,36.38710689544678,36.38710689544678,36.38710689544678,36.38710689544678,36.38710689544678,36.38710689544678,36.38710689544678,36.38710689544678,37.85947251319885,40.008060455322266,space,2.1328084468841553,None,40.00822448730469,40.029327392578125,40.029327392578125,40.029327392578125,41.50753998756409,43.67640686035156,space,2.1648623943328857,None,43.67656183242798,43.690046072006226,43.690046072006226,45.17533564567566,45.21025609970093,space,0.02563166618347168,None,45.21044898033142,45.22580528259277,45.22580528259277,46.493422985076904,space,1.2546722888946533,None,,,,,,,,,,,,,,,,,,,,,,,,,,,,,,,,,,,,,,,,,,,,,,,52,4,2025-02-19_14h09.29.454,comp,2024.2.4,57.75456502012451,2025-02-19 14h09.38.577358 -0500,
0,0,0,filler_square,None,None,None,None,None,None,None,None,None,None,2,2.46740984916687,None,,,,,0,0,0,0,0,0,0,198,46.57345771789551,,,,,,,,,,,,,,,,,,,,,,,,,,,,,,,,,,,,,,,,,,,,,,,,,,,,,,,,,,,,,,,,,,,,,,,,,,,,,,,,,,179.02257709945312,170.22875262893876,179.03251709206296,179.03251709206296,99.11443987515318,64.28532850092454,1.0,1.3,209,-257,480,-279,698,-286,46.55706191062927,46.557103872299194,46.558836698532104,46.57345771789551,46.718929290771484,46.718929290771484,46.718929290771484,46.718929290771484,46.718929290771484,46.718929290771484,46.718929290771484,49.05047082901001,2,2.46740984916687,None,,,,,,,,,,,,,,,,,,52,4,2025-02-19_14h09.29.454,comp,2024.2.4,57.75456502012451,2025-02-19 14h09.38.577358 -0500,
1,1,0,critical,dwh,20.0,2.1,upper,141.0,141.0,125.0,200.0,200.0,125.0,3,1.8789491653442383,None,,,,,0,0,0,0,0,1,1,31,49.06584644317627,,,,,,,,,,,,,,,,,,,,,,,,,,,,,,,,,,,,,,,,,,,,,,,,,,,,,,,,,,,,,,,,,,,,,,,,,,,,,,,,,,141.0,141.0,125.0,200.0,200.0,125.0,2.1,2.12,-266,-286,0,-262,258,282,49.05203676223755,49.052103757858276,49.05481028556824,49.06584644317627,49.20951581001282,49.20951581001282,49.20951581001282,49.20951581001282,49.20951581001282,49.20951581001282,49.20951581001282,50.95132350921631,3,1.8789491653442383,None,,,,,,,,,,,,,,,,,,52,4,2025-02-19_14h09.29.454,comp,2024.2.4,57.75456502012451,2025-02-19 14h09.38.577358 -0500,
2,2,0,filler_square,None,None,None,None,None,None,None,None,None,None,1,1.5595223903656006,None,,,,,0,0,0,0,0,2,2,201,50.968982458114624,,,,,,,,,,,,,,,,,,,,,,,,,,,,,,,,,,,,,,,,,,,,,,,,,,,,,,,,,,,,,,,,,,,,,,,,,,,,,,,,,,191.61190474581224,191.61190474581224,64.92459952220213,114.56372451229632,94.75345913941638,121.24407871346693,4.0,4.2,-249,-12,0,-267,214,17,50.953113317489624,50.95319199562073,50.956122636795044,50.968982458114624,51.11128234863281,51.11128234863281,51.11128234863281,51.11128234863281,51.11128234863281,51.11128234863281,51.11128234863281,52.545684814453125,1,1.5595223903656006,None,,,,,,,,,,,,,,,,,,52,4,2025-02-19_14h09.29.454,comp,2024.2.4,57.75456502012451,2025-02-19 14h09.38.577358 -0500,
3,3,0,critical,hdw,35.0,2.1,lower,133.0,57.0,70.0,70.0,57.0,133.0,1,1.5919640064239502,None,,,,,0,0,0,0,0,3,3,44,52.56098437309265,,,,,,,,,,,,,,,,,,,,,,,,,,,,,,,,,,,,,,,,,,,,,,,,,,,,,,,,,,,,,,,,,,,,,,,,,,,,,,,,,,133.0,57.0,70.0,70.0,57.0,133.0,2.1,2.12,-160,-279,0,-286,198,289,52.54720997810364,52.54728889465332,52.55074095726013,52.56098437309265,52.71525287628174,52.71525287628174,52.71525287628174,52.71525287628174,52.71525287628174,52.71525287628174,52.71525287628174,54.163201332092285,1,1.5919640064239502,None,,,,,,,,,,,,,,,,,,52,4,2025-02-19_14h09.29.454,comp,2024.2.4,57.75456502012451,2025-02-19 14h09.38.577358 -0500,
4,4,0,critical,whd,20.0,2.1,upper,125.0,200.0,200.0,125.0,141.0,141.0,1,2.492595911026001,None,,,,,0,0,0,0,0,4,4,39,54.179702043533325,,,,,,,,,,,,,,,,,,,,,,,,,,,,,,,,,,,,,,,,,,,,,,,,,,,,,,,,,,,,,,,,,,,,,,,,,,,,,,,,,,125.0,200.0,200.0,125.0,141.0,141.0,2.1,2.11,-258,253,0,275,229,-268,54.164724349975586,54.16482639312744,54.16893672943115,54.179702043533325,54.32751989364624,54.32751989364624,54.32751989364624,54.32751989364624,54.32751989364624,54.32751989364624,54.32751989364624,56.68190407752991,1,2.492595911026001,None,,,,,,,,,,,,,,,,,,52,4,2025-02-19_14h09.29.454,comp,2024.2.4,57.75456502012451,2025-02-19 14h09.38.577358 -0500,
5,5,0,filler_random,None,None,None,None,None,None,None,None,None,None,2,1.9973366260528564,None,,,,,0,0,0,0,0,5,5,150,56.69891047477722,,,,,,,,,,,,,,,,,,,,,,,,,,,,,,,,,,,,,,,,,,,,,,,,,,,,,,,,,,,,,,,,,,,,,,,,,,,,,,,,,,192.68681391241063,64.43388465586986,149.8197742031313,141.47857427847765,85.9393953924315,181.7836678088127,2.2,2.21,-199,-272,0,258,258,266,56.68389821052551,56.68398642539978,56.687251329422,56.69891047477722,56.846232414245605,56.846232414245605,56.846232414245605,56.846232414245605,56.846232414245605,56.846232414245605,56.846232414245605,58.71095085144043,2,1.9973366260528564,None,,,,,,,,,,,,,,,,,,52,4,2025-02-19_14h09.29.454,comp,2024.2.4,57.75456502012451,2025-02-19 14h09.38.577358 -0500,
6,6,0,filler_square,None,None,None,None,None,None,None,None,None,None,3,1.3879268169403076,None,,,,,0,0,0,0,0,6,6,197,58.73238730430603,,,,,,,,,,,,,,,,,,,,,,,,,,,,,,,,,,,,,,,,,,,,,,,,,,,,,,,,,,,,,,,,,,,,,,,,,,,,,,,,,,99.88199357916899,93.28556987142629,112.80338052713792,113.93785568662373,189.0050613687126,189.0050613687126,2.2,2.22,-200,286,0,-270,247,-264,58.713083267211914,58.71316599845886,58.71649479866028,58.73238730430603,58.86532497406006,58.86532497406006,58.86532497406006,58.86532497406006,58.86532497406006,58.86532497406006,58.86532497406006,60.13268971443176,3,1.3879268169403076,None,,,,,,,,,,,,,,,,,,52,4,2025-02-19_14h09.29.454,comp,2024.2.4,57.75456502012451,2025-02-19 14h09.38.577358 -0500,
7,7,0,filler_square,None,None,None,None,None,None,None,None,None,None,2,2.35402512550354,None,,,,,0,0,0,0,0,7,7,202,60.15075469017029,,,,,,,,,,,,,,,,,,,,,,,,,,,,,,,,,,,,,,,,,,,,,,,,,,,,,,,,,,,,,,,,,,,,,,,,,,,,,,,,,,87.42216216671676,83.16405130046792,99.16941436365902,99.16941436365902,86.61176988708992,88.46429111279272,4.0,4.1,-187,-278,0,13,190,-268,60.134501218795776,60.13458251953125,60.13759732246399,60.15075469017029,60.29734420776367,60.29734420776367,60.29734420776367,60.29734420776367,60.29734420776367,60.29734420776367,60.29734420776367,62.5144898891449,2,2.35402512550354,None,,,,,,,,,,,,,,,,,,52,4,2025-02-19_14h09.29.454,comp,2024.2.4,57.75456502012451,2025-02-19 14h09.38.577358 -0500,
8,8,0,filler_random,None,None,None,None,None,None,None,None,None,None,2,2.1812312602996826,None,,,,,0,0,0,0,0,8,8,153,62.531166315078735,,,,,,,,,,,,,,,,,,,,,,,,,,,,,,,,,,,,,,,,,,,,,,,,,,,,,,,,,,,,,,,,,,,,,,,,,,,,,,,,,,153.2704824122943,186.38474304542706,156.18335034423544,192.6373681216083,152.94371563367724,135.87639206810104,2.1,2.12,-286,-280,0,-252,260,277,62.51622557640076,62.51630616188049,62.519535303115845,62.531166315078735,62.682146072387695,62.682146072387695,62.682146072387695,62.682146072387695,62.682146072387695,62.682146072387695,62.682146072387695,64.7284197807312,2,2.1812312602996826,None,,,,,,,,,,,,,,,,,,52,4,2025-02-19_14h09.29.454,comp,2024.2.4,57.75456502012451,2025-02-19 14h09.38.577358 -0500,
9,9,0,filler_square,None,None,None,None,None,None,None,None,None,None,3,1.4513792991638184,None,,,,,0,0,0,0,0,9,9,207,64.74897074699402,,,,,,,,,,,,,,,,,,,,,,,,,,,,,,,,,,,,,,,,,,,,,,,,,,,,,,,,,,,,,,,,,,,,,,,,,,,,,,,,,,75.38378546388451,105.6510471384469,77.89446140179277,103.13133305437461,130.38317016578523,130.38317016578523,3.0,3.1,-200,252,0,-10,213,-272,64.7302393913269,64.73032188415527,64.73325538635254,64.74897074699402,64.90121006965637,64.90121006965637,64.90121006965637,64.90121006965637,64.90121006965637,64.90121006965637,64.90121006965637,66.2161295413971,3,1.4513792991638184,None,,,,,,,,,,,,,,,,,,52,4,2025-02-19_14h09.29.454,comp,2024.2.4,57.75456502012451,2025-02-19 14h09.38.577358 -0500,
10,10,0,critical,dhw,20.0,2.1,lower,78.0,78.0,133.0,57.0,57.0,133.0,2,2.317178964614868,None,,,,,0,0,0,0,0,10,10,2,66.2351541519165,,,,,,,,,,,,,,,,,,,,,,,,,,,,,,,,,,,,,,,,,,,,,,,,,,,,,,,,,,,,,,,,,,,,,,,,,,,,,,,,,,78.0,78.0,133.0,57.0,57.0,133.0,2.1,2.11,-164,273,0,262,191,-270,66.21766066551208,66.21773910522461,66.22112846374512,66.2351541519165,66.38304400444031,66.38304400444031,66.38304400444031,66.38304400444031,66.38304400444031,66.38304400444031,66.38304400444031,68.56676650047302,2,2.317178964614868,None,,,,,,,,,,,,,,,,,,52,4,2025-02-19_14h09.29.454,comp,2024.2.4,57.75456502012451,2025-02-19 14h09.38.577358 -0500,
11,11,0,critical,dhw,35.0,2.1,upper,127.0,127.0,200.0,125.0,125.0,200.0,3,2.4733047485351562,None,,,,,0,0,0,0,0,11,11,25,68.59123802185059,,,,,,,,,,,,,,,,,,,,,,,,,,,,,,,,,,,,,,,,,,,,,,,,,,,,,,,,,,,,,,,,,,,,,,,,,,,,,,,,,,127.0,127.0,200.0,125.0,125.0,200.0,2.1,2.11,-222,265,0,279,258,-251,68.56834363937378,68.56842541694641,68.57158994674683,68.59123802185059,68.73413753509521,68.73413753509521,68.73413753509521,68.73413753509521,68.73413753509521,68.73413753509521,68.73413753509521,71.06924319267273,3,2.4733047485351562,None,,,,,,,,,,,,,,,,,,52,4,2025-02-19_14h09.29.454,comp,2024.2.4,57.75456502012451,2025-02-19 14h09.38.577358 -0500,
12,12,0,critical,whd,20.0,3.0,upper,125.0,200.0,200.0,125.0,141.0,141.0,1,1.5556678771972656,None,,,,,0,0,0,0,0,12,12,93,71.08569931983948,,,,,,,,,,,,,,,,,,,,,,,,,,,,,,,,,,,,,,,,,,,,,,,,,,,,,,,,,,,,,,,,,,,,,,,,,,,,,,,,,,125.0,200.0,200.0,125.0,141.0,141.0,3.0,3.2,-258,-262,0,17,229,267,71.07078623771667,71.07086753845215,71.07399535179138,71.08569931983948,71.23412847518921,71.23412847518921,71.23412847518921,71.23412847518921,71.23412847518921,71.23412847518921,71.23412847518921,72.65120887756348,1,1.5556678771972656,None,,,,,,,,,,,,,,,,,,52,4,2025-02-19_14h09.29.454,comp,2024.2.4,57.75456502012451,2025-02-19 14h09.38.577358 -0500,
13,13,0,filler_random,None,None,None,None,None,None,None,None,None,None,1,1.5389206409454346,None,,,,,0,0,0,0,0,13,13,157,72.66938376426697,,,,,,,,,,,,,,,,,,,,,,,,,,,,,,,,,,,,,,,,,,,,,,,,,,,,,,,,,,,,,,,,,,,,,,,,,,,,,,,,,,166.30102118391017,108.36643130005147,60.51318524656255,67.32515608051933,80.56264099171446,96.96297127902102,3.0,3.1,-184,264,0,4,178,-268,72.65297722816467,72.65305805206299,72.65620827674866,72.66938376426697,72.81924033164978,72.81924033164978,72.81924033164978,72.81924033164978,72.81924033164978,72.81924033164978,72.81924033164978,74.21892094612122,1,1.5389206409454346,None,,,,,,,,,,,,,,,,,,52,4,2025-02-19_14h09.29.454,comp,2024.2.4,57.75456502012451,2025-02-19 14h09.38.577358 -0500,
14,14,0,filler_square,None,None,None,None,None,None,None,None,None,None,1,1.4776074886322021,None,,,,,0,0,0,0,0,14,14,194,74.23539781570435,,,,,,,,,,,,,,,,,,,,,,,,,,,,,,,,,,,,,,,,,,,,,,,,,,,,,,,,,,,,,,,,,,,,,,,,,,,,,,,,,,191.78851452953862,191.78851452953862,155.8507036510851,69.3099597575701,75.27191565164557,162.59061965385172,1.0,1.1,-707,257,-480,270,-268,267,74.22093272209167,74.22101545333862,74.2245945930481,74.23539781570435,74.38579273223877,74.38579273223877,74.38579273223877,74.38579273223877,74.38579273223877,74.38579273223877,74.38579273223877,75.71886944770813,1,1.4776074886322021,None,,,,,,,,,,,,,,,,,,52,4,2025-02-19_14h09.29.454,comp,2024.2.4,57.75456502012451,2025-02-19 14h09.38.577358 -0500,
15,15,0,critical,dwh,35.0,3.0,lower,70.0,70.0,57.0,133.0,133.0,57.0,2,3.535557746887207,None,,,,,0,0,0,0,0,15,15,62,75.7366852760315,,,,,,,,,,,,,,,,,,,,,,,,,,,,,,,,,,,,,,,,,,,,,,,,,,,,,,,,,,,,,,,,,,,,,,,,,,,,,,,,,,70.0,70.0,57.0,133.0,133.0,57.0,3.0,3.2,-198,-258,0,-8,191,263,75.7204532623291,75.72053670883179,75.72392153739929,75.7366852760315,75.89317154884338,75.89317154884338,75.89317154884338,75.89317154884338,75.89317154884338,75.89317154884338,75.89317154884338,79.29628896713257,2,3.535557746887207,None,,,,,,,,,,,,,,,,,,52,4,2025-02-19_14h09.29.454,comp,2024.2.4,57.75456502012451,2025-02-19 14h09.38.577358 -0500,
16,16,0,critical,dhw,35.0,4.0,lower,70.0,70.0,133.0,57.0,57.0,133.0,2,2.361034631729126,None,,,,,0,0,0,0,0,16,16,52,79.31130123138428,,,,,,,,,,,,,,,,,,,,,,,,,,,,,,,,,,,,,,,,,,,,,,,,,,,,,,,,,,,,,,,,,,,,,,,,,,,,,,,,,,70.0,70.0,133.0,57.0,57.0,133.0,4.0,4.2,-160,12,0,-271,191,18,79.29784488677979,79.29792189598083,79.30086994171143,79.31130123138428,79.45496678352356,79.45496678352356,79.45496678352356,79.45496678352356,79.45496678352356,79.45496678352356,79.45496678352356,81.69017171859741,2,2.361034631729126,None,,,,,,,,,,,,,,,,,,52,4,2025-02-19_14h09.29.454,comp,2024.2.4,57.75456502012451,2025-02-19 14h09.38.577358 -0500,
17,17,0,critical,hdw,20.0,3.0,upper,200.0,125.0,141.0,141.0,125.0,200.0,3,2.7988338470458984,None,,,,,0,0,0,0,0,17,17,117,81.70566868782043,,,,,,,,,,,,,,,,,,,,,,,,,,,,,,,,,,,,,,,,,,,,,,,,,,,,,,,,,,,,,,,,,,,,,,,,,,,,,,,,,,200.0,125.0,141.0,141.0,125.0,200.0,3.0,3.1,-229,269,0,-6,266,-259,81.69180965423584,81.69189167022705,81.69532465934753,81.70566868782043,81.86054515838623,81.86054515838623,81.86054515838623,81.86054515838623,81.86054515838623,81.86054515838623,81.86054515838623,84.52205634117126,3,2.7988338470458984,None,,,,,,,,,,,,,,,,,,52,4,2025-02-19_14h09.29.454,comp,2024.2.4,57.75456502012451,2025-02-19 14h09.38.577358 -0500,
18,18,0,filler_square,None,None,None,None,None,None,None,None,None,None,2,4.021840572357178,None,,,,,0,0,0,0,0,18,18,188,84.53847885131836,,,,,,,,,,,,,,,,,,,,,,,,,,,,,,,,,,,,,,,,,,,,,,,,,,,,,,,,,,,,,,,,,,,,,,,,,,,,,,,,,,75.95777813546498,75.95777813546498,68.71748937887698,65.04608899347005,63.613588449004546,62.78677085457838,2.2,2.22,-167,258,0,-269,160,-261,84.52413177490234,84.52421164512634,84.52757573127747,84.53847885131836,84.69349193572998,84.69349193572998,84.69349193572998,84.69349193572998,84.69349193572998,84.69349193572998,84.69349193572998,88.5732274055481,2,4.021840572357178,None,,,,,,,,,,,,,,,,,,52,4,2025-02-19_14h09.29.454,comp,2024.2.4,57.75456502012451,2025-02-19 14h09.38.577358 -0500,
19,19,0,critical,whd,20.0,2.1,lower,57.0,133.0,133.0,57.0,78.0,78.0,2,4.628678798675537,None,,,,,0,0,0,0,0,19,19,14,88.58922004699707,,,,,,,,,,,,,,,,,,,,,,,,,,,,,,,,,,,,,,,,,,,,,,,,,,,,,,,,,,,,,,,,,,,,,,,,,,,,,,,,,,57.0,133.0,133.0,57.0,78.0,78.0,2.1,2.12,-191,-251,0,-256,164,261,88.5747811794281,88.57486033439636,88.57800340652466,88.58922004699707,88.74381875991821,88.74381875991821,88.74381875991821,88.74381875991821,88.74381875991821,88.74381875991821,88.74381875991821,93.22415661811829,2,4.628678798675537,None,,,,,,,,,,,,,,,,,,52,4,2025-02-19_14h09.29.454,comp,2024.2.4,57.75456502012451,2025-02-19 14h09.38.577358 -0500,
20,20,0,filler_random,None,None,None,None,None,None,None,None,None,None,3,1.336066484451294,None,,,,,0,0,0,0,0,20,20,137,93.24028873443604,,,,,,,,,,,,,,,,,,,,,,,,,,,,,,,,,,,,,,,,,,,,,,,,,,,,,,,,,,,,,,,,,,,,,,,,,,,,,,,,,,61.291143622203826,116.57551493394666,84.96590559949618,66.53683977298809,179.4645392551714,176.61204297224032,3.0,3.2,-188,-277,0,19,218,265,93.22589540481567,93.22597742080688,93.2292320728302,93.24028873443604,93.39346718788147,93.39346718788147,93.39346718788147,93.39346718788147,93.39346718788147,93.39346718788147,93.39346718788147,94.58656644821167,3,1.336066484451294,None,,,,,,,,,,,,,,,,,,52,4,2025-02-19_14h09.29.454,comp,2024.2.4,57.75456502012451,2025-02-19 14h09.38.577358 -0500,
21,21,0,filler_random,None,None,None,None,None,None,None,None,None,None,2,7.037693738937378,None,,,,,0,0,0,0,0,21,21,148,94.6033821105957,,,,,,,,,,,,,,,,,,,,,,,,,,,,,,,,,,,,,,,,,,,,,,,,,,,,,,,,,,,,,,,,,,,,,,,,,,,,,,,,,,58.05642925856945,180.30566937525754,72.74491177097799,130.2089811972861,92.80087147960758,115.6756684878263,4.0,4.2,-251,19,0,-256,219,20,94.58829617500305,94.58840417861938,94.59168672561646,94.6033821105957,94.73998713493347,94.73998713493347,94.73998713493347,94.73998713493347,94.73998713493347,94.73998713493347,94.73998713493347,101.64611983299255,2,7.037693738937378,None,,,,,,,,,,,,,,,,,,52,4,2025-02-19_14h09.29.454,comp,2024.2.4,57.75456502012451,2025-02-19 14h09.38.577358 -0500,
22,22,0,filler_square,None,None,None,None,None,None,None,None,None,None,2,1.7178754806518555,None,,,,,0,0,0,0,0,22,22,191,101.66736221313477,,,,,,,,,,,,,,,,,,,,,,,,,,,,,,,,,,,,,,,,,,,,,,,,,,,,,,,,,,,,,,,,,,,,,,,,,,,,,,,,,,76.09120302113894,95.19616267771477,97.00069923099045,97.00069923099045,65.16288240752925,63.43344418648874,3.0,3.2,-192,-272,0,19,176,275,101.64820957183838,101.64835023880005,101.65170788764954,101.66736221313477,101.8092577457428,101.8092577457428,101.8092577457428,101.8092577457428,101.8092577457428,101.8092577457428,101.8092577457428,103.39785552024841,2,1.7178754806518555,None,,,,,,,,,,,,,,,,,,52,4,2025-02-19_14h09.29.454,comp,2024.2.4,57.75456502012451,2025-02-19 14h09.38.577358 -0500,
23,23,0,catch,None,None,None,None,None,None,None,None,None,None,3,1.2771108150482178,None,,,,,0,0,0,0,0,23,23,120,103.41924929618835,,,,,,,,,,,,,,,,,,,,,,,,,,,,,,,,,,,,,,,,,,,,,,,,,,,,,,,,,,,,,,,,,,,,,,,,,,,,,,,,,,115,75,100,90,159,166,2.1,2.11,-178,257,0,284,224,-287,103.39991116523743,103.39999318122864,103.40351057052612,103.41924929618835,103.56138586997986,103.56138586997986,103.56138586997986,103.56138586997986,103.56138586997986,103.56138586997986,103.56138586997986,104.71221351623535,3,1.2771108150482178,None,,,,,,,,,,,,,,,,,,52,4,2025-02-19_14h09.29.454,comp,2024.2.4,57.75456502012451,2025-02-19 14h09.38.577358 -0500,
24,24,0,critical,dwh,20.0,2.1,lower,78.0,78.0,57.0,133.0,133.0,57.0,3,2.2807981967926025,None,,,,,0,0,0,0,0,24,24,30,104.72812724113464,,,,,,,,,,,,,,,,,,,,,,,,,,,,,,,,,,,,,,,,,,,,,,,,,,,,,,,,,,,,,,,,,,,,,,,,,,,,,,,,,,78.0,78.0,57.0,133.0,133.0,57.0,2.1,2.11,-202,273,0,252,191,-279,104.71378183364868,104.71385979652405,104.71694779396057,104.72812724113464,104.87705779075623,104.87705779075623,104.87705779075623,104.87705779075623,104.87705779075623,104.87705779075623,104.87705779075623,107.01103329658508,3,2.2807981967926025,None,,,,,,,,,,,,,,,,,,52,4,2025-02-19_14h09.29.454,comp,2024.2.4,57.75456502012451,2025-02-19 14h09.38.577358 -0500,
25,25,0,critical,hwd,20.0,2.1,upper,200.0,125.0,125.0,200.0,141.0,141.0,2,4.292852401733398,None,,,,,0,0,0,0,0,25,25,43,107.02774715423584,,,,,,,,,,,,,,,,,,,,,,,,,,,,,,,,,,,,,,,,,,,,,,,,,,,,,,,,,,,,,,,,,,,,,,,,,,,,,,,,,,200.0,125.0,125.0,200.0,141.0,141.0,2.1,2.12,-258,-283,0,-256,266,280,107.0127215385437,107.01279926300049,107.01614904403687,107.02774715423584,107.17974710464478,107.17974710464478,107.17974710464478,107.17974710464478,107.17974710464478,107.17974710464478,107.17974710464478,111.33019161224365,2,4.292852401733398,None,,,,,,,,,,,,,,,,,,52,4,2025-02-19_14h09.29.454,comp,2024.2.4,57.75456502012451,2025-02-19 14h09.38.577358 -0500,
26,26,0,filler_random,None,None,None,None,None,None,None,None,None,None,1,1.782546043395996,None,,,,,0,0,0,0,0,26,26,138,111.34651017189026,,,,,,,,,,,,,,,,,,,,,,,,,,,,,,,,,,,,,,,,,,,,,,,,,,,,,,,,,,,,,,,,,,,,,,,,,,,,,,,,,,196.404493404616,145.88572007800127,132.87216639669592,120.1536478686991,96.41612724426953,92.31823963709289,3.0,3.2,-229,-261,0,3,202,285,111.33191013336182,111.33199286460876,111.3349347114563,111.34651017189026,111.49734687805176,111.49734687805176,111.49734687805176,111.49734687805176,111.49734687805176,111.49734687805176,111.49734687805176,113.13602232933044,1,1.782546043395996,None,,,,,,,,,,,,,,,,,,52,4,2025-02-19_14h09.29.454,comp,2024.2.4,57.75456502012451,2025-02-19 14h09.38.577358 -0500,
27,27,0,filler_square,None,None,None,None,None,None,None,None,None,None,1,2.061655044555664,None,,,,,0,0,0,0,0,27,27,172,113.1547462940216,,,,,,,,,,,,,,,,,,,,,,,,,,,,,,,,,,,,,,,,,,,,,,,,,,,,,,,,,,,,,,,,,,,,,,,,,,,,,,,,,,72.1402106340573,72.1402106340573,57.12477056663957,71.0231879557079,60.508840203658586,61.086656641015715,4.0,4.2,-168,3,0,-285,162,-11,113.13780856132507,113.13789129257202,113.14082527160645,113.1547462940216,113.29815030097961,113.29815030097961,113.29815030097961,113.29815030097961,113.29815030097961,113.29815030097961,113.29815030097961,115.2327790260315,1,2.061655044555664,None,,,,,,,,,,,,,,,,,,52,4,2025-02-19_14h09.29.454,comp,2024.2.4,57.75456502012451,2025-02-19 14h09.38.577358 -0500,
28,28,0,critical,hdw,20.0,4.0,lower,133.0,57.0,78.0,78.0,57.0,133.0,1,2.5271146297454834,None,,,,,0,0,0,0,0,28,28,118,115.24963760375977,,,,,,,,,,,,,,,,,,,,,,,,,,,,,,,,,,,,,,,,,,,,,,,,,,,,,,,,,,,,,,,,,,,,,,,,,,,,,,,,,,133.0,57.0,78.0,78.0,57.0,133.0,4.0,4.2,-164,2,0,-266,202,19,115.23430562019348,115.23438310623169,115.23848223686218,115.24963760375977,115.39764213562012,115.39764213562012,115.39764213562012,115.39764213562012,115.39764213562012,115.39764213562012,115.39764213562012,117.77980589866638,1,2.5271146297454834,None,,,,,,,,,,,,,,,,,,52,4,2025-02-19_14h09.29.454,comp,2024.2.4,57.75456502012451,2025-02-19 14h09.38.577358 -0500,
29,29,0,filler_square,None,None,None,None,None,None,None,None,None,None,2,3.8911941051483154,None,,,,,0,0,0,0,0,29,29,170,117.79732036590576,,,,,,,,,,,,,,,,,,,,,,,,,,,,,,,,,,,,,,,,,,,,,,,,,,,,,,,,,,,,,,,,,,,,,,,,,,,,,,,,,,57.33215594106731,57.54215077347299,57.15218304602884,57.33198136100139,57.83627526483272,57.83627526483272,4.0,4.1,-153,-275,0,16,154,-290,117.78171730041504,117.78181099891663,117.78514122962952,117.79732036590576,117.95274758338928,117.95274758338928,117.95274758338928,117.95274758338928,117.95274758338928,117.95274758338928,117.95274758338928,121.70160388946533,2,3.8911941051483154,None,,,,,,,,,,,,,,,,,,52,4,2025-02-19_14h09.29.454,comp,2024.2.4,57.75456502012451,2025-02-19 14h09.38.577358 -0500,
30,30,0,critical,wdh,35.0,2.1,lower,57.0,133.0,70.0,70.0,133.0,57.0,1,3.9687626361846924,None,,,,,0,0,0,0,0,30,30,8,121.71968221664429,,,,,,,,,,,,,,,,,,,,,,,,,,,,,,,,,,,,,,,,,,,,,,,,,,,,,,,,,,,,,,,,,,,,,,,,,,,,,,,,,,57.0,133.0,70.0,70.0,133.0,57.0,2.1,2.12,-198,-290,0,-267,160,266,121.70317816734314,121.70325875282288,121.70630407333374,121.71968221664429,121.86534023284912,121.86534023284912,121.86534023284912,121.86534023284912,121.86534023284912,121.86534023284912,121.86534023284912,125.70185995101929,1,3.9687626361846924,None,,,,,,,,,,,,,,,,,,52,4,2025-02-19_14h09.29.454,comp,2024.2.4,57.75456502012451,2025-02-19 14h09.38.577358 -0500,
31,31,0,filler_random,None,None,None,None,None,None,None,None,None,None,3,1.5539333820343018,None,,,,,0,0,0,0,0,31,31,143,125.71850252151489,,,,,,,,,,,,,,,,,,,,,,,,,,,,,,,,,,,,,,,,,,,,,,,,,,,,,,,,,,,,,,,,,,,,,,,,,,,,,,,,,,162.37040991087386,69.17484021899602,99.21371680089935,69.06917000084167,148.58657288084916,82.8713005658845,1.0,1.2,-165,11,0,-13,172,17,125.70378351211548,125.70391392707825,125.70737218856812,125.71850252151489,125.87268877029419,125.87268877029419,125.87268877029419,125.87268877029419,125.87268877029419,125.87268877029419,125.87268877029419,127.28890872001648,3,1.5539333820343018,None,,,,,,,,,,,,,,,,,,52,4,2025-02-19_14h09.29.454,comp,2024.2.4,57.75456502012451,2025-02-19 14h09.38.577358 -0500,
32,32,0,filler_random,None,None,None,None,None,None,None,None,None,None,1,2.8269412517547607,None,,,,,0,0,0,0,0,32,32,167,127.30968356132507,,,,,,,,,,,,,,,,,,,,,,,,,,,,,,,,,,,,,,,,,,,,,,,,,,,,,,,,,,,,,,,,,,,,,,,,,,,,,,,,,,99.9495941122971,196.48844618070655,134.85678588072773,121.60352294152382,164.3386733280087,98.77702492366859,1.0,1.3,225,-263,480,-260,686,-272,127.29098916053772,127.29107141494751,127.29445910453796,127.30968356132507,127.45118045806885,127.45118045806885,127.45118045806885,127.45118045806885,127.45118045806885,127.45118045806885,127.45118045806885,130.14019060134888,1,2.8269412517547607,None,,,,,,,,,,,,,,,,,,52,4,2025-02-19_14h09.29.454,comp,2024.2.4,57.75456502012451,2025-02-19 14h09.38.577358 -0500,
33,33,0,filler_random,None,None,None,None,None,None,None,None,None,None,3,1.9999475479125977,None,,,,,0,0,0,0,0,33,33,145,130.1612401008606,,,,,,,,,,,,,,,,,,,,,,,,,,,,,,,,,,,,,,,,,,,,,,,,,,,,,,,,,,,,,,,,,,,,,,,,,,,,,,,,,,134.70299642346555,117.26388547547626,114.64608008239502,64.08406671733432,152.08209919440958,139.10377266880022,2.2,2.21,-187,-256,0,288,198,262,130.14241766929626,130.14250254631042,130.14549612998962,130.1612401008606,130.30374026298523,130.30374026298523,130.30374026298523,130.30374026298523,130.30374026298523,130.30374026298523,130.30374026298523,132.17181706428528,3,1.9999475479125977,None,,,,,,,,,,,,,,,,,,52,4,2025-02-19_14h09.29.454,comp,2024.2.4,57.75456502012451,2025-02-19 14h09.38.577358 -0500,
34,34,0,critical,hwd,20.0,4.0,upper,200.0,125.0,125.0,200.0,141.0,141.0,2,2.237335205078125,None,,,,,0,0,0,0,0,34,34,107,132.18766021728516,,,,,,,,,,,,,,,,,,,,,,,,,,,,,,,,,,,,,,,,,,,,,,,,,,,,,,,,,,,,,,,,,,,,,,,,,,,,,,,,,,200.0,125.0,125.0,200.0,141.0,141.0,4.0,4.1,-258,-280,0,-18,266,-266,132.17338371276855,132.1734642982483,132.1768786907196,132.18766021728516,132.3389081954956,132.3389081954956,132.3389081954956,132.3389081954956,132.3389081954956,132.3389081954956,132.3389081954956,134.42729592323303,2,2.237335205078125,None,,,,,,,,,,,,,,,,,,52,4,2025-02-19_14h09.29.454,comp,2024.2.4,57.75456502012451,2025-02-19 14h09.38.577358 -0500,
35,35,0,critical,dwh,35.0,3.0,upper,127.0,127.0,125.0,200.0,200.0,125.0,3,3.5016493797302246,None,,,,,0,0,0,0,0,35,35,63,134.4426817893982,,,,,,,,,,,,,,,,,,,,,,,,,,,,,,,,,,,,,,,,,,,,,,,,,,,,,,,,,,,,,,,,,,,,,,,,,,,,,,,,,,127.0,127.0,125.0,200.0,200.0,125.0,3.0,3.1,-260,276,0,-3,258,-289,134.42885422706604,134.42893481254578,134.43186807632446,134.4426817893982,134.5927393436432,134.5927393436432,134.5927393436432,134.5927393436432,134.5927393436432,134.5927393436432,134.5927393436432,137.95453786849976,3,3.5016493797302246,None,,,,,,,,,,,,,,,,,,52,4,2025-02-19_14h09.29.454,comp,2024.2.4,57.75456502012451,2025-02-19 14h09.38.577358 -0500,
36,36,0,filler_random,None,None,None,None,None,None,None,None,None,None,1,1.2527718544006348,None,,,,,0,0,0,0,0,36,36,160,137.97172832489014,,,,,,,,,,,,,,,,,,,,,,,,,,,,,,,,,,,,,,,,,,,,,,,,,,,,,,,,,,,,,,,,,,,,,,,,,,,,,,,,,,108.09908120900806,196.8420775632603,124.60296510463837,141.24187121804707,132.3113117944988,106.79320461965627,1.0,1.2,-265,9,0,-2,220,0,137.95642924308777,137.95656991004944,137.95997762680054,137.97172832489014,138.12491917610168,138.12491917610168,138.12491917610168,138.12491917610168,138.12491917610168,138.12491917610168,138.12491917610168,139.2369954586029,1,1.2527718544006348,None,,,,,,,,,,,,,,,,,,52,4,2025-02-19_14h09.29.454,comp,2024.2.4,57.75456502012451,2025-02-19 14h09.38.577358 -0500,
37,37,0,filler_square,None,None,None,None,None,None,None,None,None,None,3,1.430893898010254,None,,,,,0,0,0,0,0,37,37,179,139.2575147151947,,,,,,,,,,,,,,,,,,,,,,,,,,,,,,,,,,,,,,,,,,,,,,,,,,,,,,,,,,,,,,,,,,,,,,,,,,,,,,,,,,173.18443718390688,133.722873406212,155.16846308773233,116.69099455788557,199.21674734763815,199.21674734763815,2.1,2.12,-221,-275,0,-266,254,271,139.23878288269043,139.23885941505432,139.24180841445923,139.2575147151947,139.4090600013733,139.4090600013733,139.4090600013733,139.4090600013733,139.4090600013733,139.4090600013733,139.4090600013733,140.70382642745972,3,1.430893898010254,None,,,,,,,,,,,,,,,,,,52,4,2025-02-19_14h09.29.454,comp,2024.2.4,57.75456502012451,2025-02-19 14h09.38.577358 -0500,
38,38,0,critical,whd,20.0,3.0,lower,57.0,133.0,133.0,57.0,78.0,78.0,1,2.655714511871338,None,,,,,0,0,0,0,0,38,38,92,140.72079181671143,,,,,,,,,,,,,,,,,,,,,,,,,,,,,,,,,,,,,,,,,,,,,,,,,,,,,,,,,,,,,,,,,,,,,,,,,,,,,,,,,,57.0,133.0,133.0,57.0,78.0,78.0,3.0,3.2,-191,-265,0,-10,164,272,140.70544981956482,140.70557928085327,140.70901322364807,140.72079181671143,140.85743498802185,140.85743498802185,140.85743498802185,140.85743498802185,140.85743498802185,140.85743498802185,140.85743498802185,143.3798110485077,1,2.655714511871338,None,,,,,,,,,,,,,,,,,,52,4,2025-02-19_14h09.29.454,comp,2024.2.4,57.75456502012451,2025-02-19 14h09.38.577358 -0500,
39,39,0,critical,dhw,35.0,2.1,lower,70.0,70.0,133.0,57.0,57.0,133.0,2,2.421443223953247,None,,,,,0,0,0,0,0,39,39,0,143.3974187374115,,,,,,,,,,,,,,,,,,,,,,,,,,,,,,,,,,,,,,,,,,,,,,,,,,,,,,,,,,,,,,,,,,,,,,,,,,,,,,,,,,70.0,70.0,133.0,57.0,57.0,133.0,2.1,2.12,-160,-271,0,-269,191,263,143.38130712509155,143.38138484954834,143.38431239128113,143.3974187374115,143.53920483589172,143.53920483589172,143.53920483589172,143.53920483589172,143.53920483589172,143.53920483589172,143.53920483589172,145.82670640945435,2,2.421443223953247,None,,,,,,,,,,,,,,,,,,52,4,2025-02-19_14h09.29.454,comp,2024.2.4,57.75456502012451,2025-02-19 14h09.38.577358 -0500,
40,40,0,critical,dwh,35.0,2.1,upper,127.0,127.0,125.0,200.0,200.0,125.0,3,3.3004682064056396,None,,,,,0,0,0,0,0,40,40,29,145.844731092453,,,,,,,,,,,,,,,,,,,,,,,,,,,,,,,,,,,,,,,,,,,,,,,,,,,,,,,,,,,,,,,,,,,,,,,,,,,,,,,,,,127.0,127.0,125.0,200.0,200.0,125.0,2.1,2.11,-260,274,0,285,258,-274,145.82821321487427,145.82829308509827,145.8315556049347,145.844731092453,145.9904534816742,145.9904534816742,145.9904534816742,145.9904534816742,145.9904534816742,145.9904534816742,145.9904534816742,149.15337800979614,3,3.3004682064056396,None,,,,,,,,,,,,,,,,,,52,4,2025-02-19_14h09.29.454,comp,2024.2.4,57.75456502012451,2025-02-19 14h09.38.577358 -0500,
41,41,0,filler_random,None,None,None,None,None,None,None,None,None,None,2,2.1263768672943115,None,,,,,0,0,0,0,0,41,41,161,149.1702344417572,,,,,,,,,,,,,,,,,,,,,,,,,,,,,,,,,,,,,,,,,,,,,,,,,,,,,,,,,,,,,,,,,,,,,,,,,,,,,,,,,,100.96560992870656,130.1681137889738,123.44718271327775,168.27622489564743,92.9156834349649,157.30275612082602,3.0,3.1,-245,270,0,0,259,-277,149.15521597862244,149.15533661842346,149.15855145454407,149.1702344417572,149.3102216720581,149.3102216720581,149.3102216720581,149.3102216720581,149.3102216720581,149.3102216720581,149.3102216720581,151.30820870399475,2,2.1263768672943115,None,,,,,,,,,,,,,,,,,,52,4,2025-02-19_14h09.29.454,comp,2024.2.4,57.75456502012451,2025-02-19 14h09.38.577358 -0500,
42,42,0,critical,whd,35.0,3.0,lower,57.0,133.0,133.0,57.0,70.0,70.0,2,2.476491689682007,None,,,,,0,0,0,0,0,42,42,86,151.32420802116394,,,,,,,,,,,,,,,,,,,,,,,,,,,,,,,,,,,,,,,,,,,,,,,,,,,,,,,,,,,,,,,,,,,,,,,,,,,,,,,,,,57.0,133.0,133.0,57.0,70.0,70.0,3.0,3.1,-191,282,0,-18,160,-271,151.30972862243652,151.30980944633484,151.31276082992554,151.32420802116394,151.47893500328064,151.47893500328064,151.47893500328064,151.47893500328064,151.47893500328064,151.47893500328064,151.47893500328064,153.80958366394043,2,2.476491689682007,None,,,,,,,,,,,,,,,,,,52,4,2025-02-19_14h09.29.454,comp,2024.2.4,57.75456502012451,2025-02-19 14h09.38.577358 -0500,
43,43,0,critical,hdw,20.0,1.0,lower,133.0,57.0,78.0,78.0,57.0,133.0,1,2.654257297515869,None,,,,,0,0,0,0,0,43,43,114,153.82617378234863,,,,,,,,,,,,,,,,,,,,,,,,,,,,,,,,,,,,,,,,,,,,,,,,,,,,,,,,,,,,,,,,,,,,,,,,,,,,,,,,,,133.0,57.0,78.0,78.0,57.0,133.0,1.0,1.3,316,-273,480,-277,682,-256,153.81120467185974,153.81128191947937,153.8145728111267,153.82617378234863,153.98631143569946,153.98631143569946,153.98631143569946,153.98631143569946,153.98631143569946,153.98631143569946,153.98631143569946,156.49477458000183,1,2.654257297515869,None,,,,,,,,,,,,,,,,,,52,4,2025-02-19_14h09.29.454,comp,2024.2.4,57.75456502012451,2025-02-19 14h09.38.577358 -0500,
44,44,0,critical,dhw,20.0,2.1,upper,141.0,141.0,200.0,125.0,125.0,200.0,3,10.31448769569397,None,,,,,0,0,0,0,0,44,44,3,156.5104422569275,,,,,,,,,,,,,,,,,,,,,,,,,,,,,,,,,,,,,,,,,,,,,,,,,,,,,,,,,,,,,,,,,,,,,,,,,,,,,,,,,,141.0,141.0,200.0,125.0,125.0,200.0,2.1,2.12,-229,-276,0,-270,258,262,156.49637293815613,156.49645280838013,156.50007557868958,156.5104422569275,156.65990138053894,156.65990138053894,156.65990138053894,156.65990138053894,156.65990138053894,156.65990138053894,156.65990138053894,166.8332052230835,3,10.31448769569397,None,,,,,,,,,,,,,,,,,,52,4,2025-02-19_14h09.29.454,comp,2024.2.4,57.75456502012451,2025-02-19 14h09.38.577358 -0500,
45,45,0,filler_square,None,None,None,None,None,None,None,None,None,None,2,1.4371867179870605,None,,,,,0,0,0,0,0,45,45,171,166.85198259353638,,,,,,,,,,,,,,,,,,,,,,,,,,,,,,,,,,,,,,,,,,,,,,,,,,,,,,,,,,,,,,,,,,,,,,,,,,,,,,,,,,59.31651675434615,87.78418912092198,88.70397561930207,88.70397561930207,88.23732559095323,59.13155578483484,2.2,2.21,-184,-255,0,252,170,269,166.83523273468018,166.83536744117737,166.83876848220825,166.85198259353638,166.99753427505493,166.99753427505493,166.99753427505493,166.99753427505493,166.99753427505493,166.99753427505493,166.99753427505493,168.29904747009277,2,1.4371867179870605,None,,,,,,,,,,,,,,,,,,52,4,2025-02-19_14h09.29.454,comp,2024.2.4,57.75456502012451,2025-02-19 14h09.38.577358 -0500,
46,46,0,critical,dhw,35.0,4.0,upper,127.0,127.0,200.0,125.0,125.0,200.0,3,1.732745885848999,None,,,,,0,0,0,0,0,46,46,53,168.31569051742554,,,,,,,,,,,,,,,,,,,,,,,,,,,,,,,,,,,,,,,,,,,,,,,,,,,,,,,,,,,,,,,,,,,,,,,,,,,,,,,,,,127.0,127.0,200.0,125.0,125.0,200.0,4.0,4.1,-222,-274,0,-11,258,-255,168.3008177280426,168.3009569644928,168.30449748039246,168.31569051742554,168.46349167823792,168.46349167823792,168.46349167823792,168.46349167823792,168.46349167823792,168.46349167823792,168.46349167823792,170.06530618667603,3,1.732745885848999,None,,,,,,,,,,,,,,,,,,52,4,2025-02-19_14h09.29.454,comp,2024.2.4,57.75456502012451,2025-02-19 14h09.38.577358 -0500,
47,47,0,catch,None,None,None,None,None,None,None,None,None,None,2,1.1426937580108643,None,,,,,0,0,0,0,0,47,47,128,170.08196210861206,,,,,,,,,,,,,,,,,,,,,,,,,,,,,,,,,,,,,,,,,,,,,,,,,,,,,,,,,,,,,,,,,,,,,,,,,,,,,,,,,,113,77,188,137,133,57,3.0,3.1,-203,279,0,18,193,-258,170.06728267669678,170.0673632621765,170.07078504562378,170.08196210861206,170.2312309741974,170.2312309741974,170.2312309741974,170.2312309741974,170.2312309741974,170.2312309741974,170.2312309741974,171.23518586158752,2,1.1426937580108643,None,,,,,,,,,,,,,,,,,,52,4,2025-02-19_14h09.29.454,comp,2024.2.4,57.75456502012451,2025-02-19 14h09.38.577358 -0500,
48,48,0,critical,wdh,20.0,4.0,upper,125.0,200.0,141.0,141.0,200.0,125.0,1,2.509660482406616,None,,,,,0,0,0,0,0,48,48,83,171.25137782096863,,,,,,,,,,,,,,,,,,,,,,,,,,,,,,,,,,,,,,,,,,,,,,,,,,,,,,,,,,,,,,,,,,,,,,,,,,,,,,,,,,125.0,200.0,141.0,141.0,200.0,125.0,4.0,4.2,-266,16,0,-252,229,3,171.23691868782043,171.23705959320068,171.2406587600708,171.25137782096863,171.40022540092468,171.40022540092468,171.40022540092468,171.40022540092468,171.40022540092468,171.40022540092468,171.40022540092468,173.76845908164978,1,2.509660482406616,None,,,,,,,,,,,,,,,,,,52,4,2025-02-19_14h09.29.454,comp,2024.2.4,57.75456502012451,2025-02-19 14h09.38.577358 -0500,
49,49,0,filler_random,None,None,None,None,None,None,None,None,None,None,2,2.4241507053375244,None,,,,,0,0,0,0,0,49,49,152,173.78635168075562,,,,,,,,,,,,,,,,,,,,,,,,,,,,,,,,,,,,,,,,,,,,,,,,,,,,,,,,,,,,,,,,,,,,,,,,,,,,,,,,,,166.3793982582135,66.28182227677455,94.68152288778447,145.54782660055483,65.21886973037441,143.7755488350624,4.0,4.1,-202,-258,0,-2,241,-265,173.77026438713074,173.77036356925964,173.77346682548523,173.78635168075562,173.93316745758057,173.93316745758057,173.93316745758057,173.93316745758057,173.93316745758057,173.93316745758057,173.93316745758057,176.21840858459473,2,2.4241507053375244,None,,,,,,,,,,,,,,,,,,52,4,2025-02-19_14h09.29.454,comp,2024.2.4,57.75456502012451,2025-02-19 14h09.38.577358 -0500,
50,50,0,critical,wdh,35.0,3.0,lower,57.0,133.0,70.0,70.0,133.0,57.0,1,2.2860002517700195,None,,,,,0,0,0,0,0,50,50,74,176.23457074165344,,,,,,,,,,,,,,,,,,,,,,,,,,,,,,,,,,,,,,,,,,,,,,,,,,,,,,,,,,,,,,,,,,,,,,,,,,,,,,,,,,57.0,133.0,70.0,70.0,133.0,57.0,3.0,3.2,-198,-271,0,-18,160,279,176.22006154060364,176.22014021873474,176.2235255241394,176.23457074165344,176.39025855064392,176.39025855064392,176.39025855064392,176.39025855064392,176.39025855064392,176.39025855064392,176.39025855064392,178.5350227355957,1,2.2860002517700195,None,,,,,,,,,,,,,,,,,,52,4,2025-02-19_14h09.29.454,comp,2024.2.4,57.75456502012451,2025-02-19 14h09.38.577358 -0500,
51,51,0,critical,hwd,20.0,3.0,upper,200.0,125.0,125.0,200.0,141.0,141.0,2,1.3376781940460205,None,,,,,0,0,0,0,0,51,51,105,178.55120038986206,,,,,,,,,,,,,,,,,,,,,,,,,,,,,,,,,,,,,,,,,,,,,,,,,,,,,,,,,,,,,,,,,,,,,,,,,,,,,,,,,,200.0,125.0,125.0,200.0,141.0,141.0,3.0,3.1,-258,255,0,-11,266,-283,178.5366587638855,178.53674006462097,178.5402181148529,178.55120038986206,178.70107698440552,178.70107698440552,178.70107698440552,178.70107698440552,178.70107698440552,178.70107698440552,178.70107698440552,179.90297842025757,2,1.3376781940460205,None,,,,,,,,,,,,,,,,,,52,4,2025-02-19_14h09.29.454,comp,2024.2.4,57.75456502012451,2025-02-19 14h09.38.577358 -0500,
52,52,0,filler_square,None,None,None,None,None,None,None,None,None,None,3,1.508333683013916,None,,,,,0,0,0,0,0,52,52,174,179.91846680641174,,,,,,,,,,,,,,,,,,,,,,,,,,,,,,,,,,,,,,,,,,,,,,,,,,,,,,,,,,,,,,,,,,,,,,,,,,,,,,,,,,140.98731695587634,108.84825955043695,90.2715690961522,103.6632977115205,150.08934998669787,150.08934998669787,1.0,1.2,-202,4,0,1,223,-16,179.9049379825592,179.90501713752747,179.90825819969177,179.91846680641174,180.0663297176361,180.0663297176361,180.0663297176361,180.0663297176361,180.0663297176361,180.0663297176361,180.0663297176361,181.43753814697266,3,1.508333683013916,None,,,,,,,,,,,,,,,,,,52,4,2025-02-19_14h09.29.454,comp,2024.2.4,57.75456502012451,2025-02-19 14h09.38.577358 -0500,
53,53,0,critical,dhw,20.0,2.1,lower,78.0,78.0,133.0,57.0,57.0,133.0,2,1.4987375736236572,None,,,,,0,0,0,0,0,53,53,26,181.4539759159088,,,,,,,,,,,,,,,,,,,,,,,,,,,,,,,,,,,,,,,,,,,,,,,,,,,,,,,,,,,,,,,,,,,,,,,,,,,,,,,,,,78.0,78.0,133.0,57.0,57.0,133.0,2.1,2.11,-164,266,0,271,191,-274,181.4391770362854,181.43930101394653,181.44325757026672,181.4539759159088,181.6097059249878,181.6097059249878,181.6097059249878,181.6097059249878,181.6097059249878,181.6097059249878,181.6097059249878,182.9697253704071,2,1.4987375736236572,None,,,,,,,,,,,,,,,,,,52,4,2025-02-19_14h09.29.454,comp,2024.2.4,57.75456502012451,2025-02-19 14h09.38.577358 -0500,
54,54,0,catch,None,None,None,None,None,None,None,None,None,None,1,0.9496676921844482,None,,,,,0,0,0,0,0,54,54,124,182.9867765903473,,,,,,,,,,,,,,,,,,,,,,,,,,,,,,,,,,,,,,,,,,,,,,,,,,,,,,,,,,,,,,,,,,,,,,,,,,,,,,,,,,145,180,94,96,97,93,3.0,3.2,-234,-264,0,-11,190,262,182.97191262245178,182.97199511528015,182.9756441116333,182.9867765903473,183.1363594532013,183.1363594532013,183.1363594532013,183.1363594532013,183.1363594532013,183.1363594532013,183.1363594532013,183.95340180397034,1,0.9496676921844482,None,,,,,,,,,,,,,,,,,,52,4,2025-02-19_14h09.29.454,comp,2024.2.4,57.75456502012451,2025-02-19 14h09.38.577358 -0500,
55,55,0,critical,dwh,20.0,2.1,upper,141.0,141.0,125.0,200.0,200.0,125.0,2,2.559431791305542,None,,,,,0,0,0,0,0,55,55,7,183.96899914741516,,,,,,,,,,,,,,,,,,,,,,,,,,,,,,,,,,,,,,,,,,,,,,,,,,,,,,,,,,,,,,,,,,,,,,,,,,,,,,,,,,141.0,141.0,125.0,200.0,200.0,125.0,2.1,2.11,-266,261,0,277,258,-273,183.95505905151367,183.9551408290863,183.95865106582642,183.96899914741516,184.11892461776733,184.11892461776733,184.11892461776733,184.11892461776733,184.11892461776733,184.11892461776733,184.11892461776733,186.53908896446228,2,2.559431791305542,None,,,,,,,,,,,,,,,,,,52,4,2025-02-19_14h09.29.454,comp,2024.2.4,57.75456502012451,2025-02-19 14h09.38.577358 -0500,
56,56,0,critical,hwd,20.0,3.0,lower,133.0,57.0,57.0,133.0,78.0,78.0,1,1.7736389636993408,None,,,,,0,0,0,0,0,56,56,104,186.55503678321838,,,,,,,,,,,,,,,,,,,,,,,,,,,,,,,,,,,,,,,,,,,,,,,,,,,,,,,,,,,,,,,,,,,,,,,,,,,,,,,,,,133.0,57.0,57.0,133.0,78.0,78.0,3.0,3.2,-191,-251,0,4,202,272,186.54076099395752,186.5408456325531,186.5441918373108,186.55503678321838,186.70043420791626,186.70043420791626,186.70043420791626,186.70043420791626,186.70043420791626,186.70043420791626,186.70043420791626,188.338054895401,1,1.7736389636993408,None,,,,,,,,,,,,,,,,,,52,4,2025-02-19_14h09.29.454,comp,2024.2.4,57.75456502012451,2025-02-19 14h09.38.577358 -0500,
57,57,0,filler_random,None,None,None,None,None,None,None,None,None,None,3,1.4070556163787842,None,,,,,0,0,0,0,0,57,57,146,188.3541135787964,,,,,,,,,,,,,,,,,,,,,,,,,,,,,,,,,,,,,,,,,,,,,,,,,,,,,,,,,,,,,,,,,,,,,,,,,,,,,,,,,,62.62876289835232,170.53071285569666,127.44806487676921,122.38190775840357,150.87974218493656,176.2264893817669,2.2,2.22,-242,283,0,-251,245,-278,188.33995819091797,188.34004092216492,188.34339141845703,188.3541135787964,188.50498414039612,188.50498414039612,188.50498414039612,188.50498414039612,188.50498414039612,188.50498414039612,188.50498414039612,189.7690246105194,3,1.4070556163787842,None,,,,,,,,,,,,,,,,,,52,4,2025-02-19_14h09.29.454,comp,2024.2.4,57.75456502012451,2025-02-19 14h09.38.577358 -0500,
58,58,0,filler_square,None,None,None,None,None,None,None,None,None,None,1,1.078927993774414,None,,,,,0,0,0,0,0,58,58,190,189.78552198410034,,,,,,,,,,,,,,,,,,,,,,,,,,,,,,,,,,,,,,,,,,,,,,,,,,,,,,,,,,,,,,,,,,,,,,,,,,,,,,,,,,146.65637967436493,146.65637967436493,81.38441579584874,91.05093259292153,129.81399159585067,65.29555503920527,2.1,2.12,-215,-283,0,-256,174,269,189.7710518836975,189.77113318443298,189.77442812919617,189.78552198410034,189.92699480056763,189.92699480056763,189.92699480056763,189.92699480056763,189.92699480056763,189.92699480056763,189.92699480056763,190.87520360946655,1,1.078927993774414,None,,,,,,,,,,,,,,,,,,52,4,2025-02-19_14h09.29.454,comp,2024.2.4,57.75456502012451,2025-02-19 14h09.38.577358 -0500,
59,59,0,critical,hdw,20.0,2.1,upper,200.0,125.0,141.0,141.0,125.0,200.0,3,2.001925230026245,None,,,,,0,0,0,0,0,59,59,47,190.8953034877777,,,,,,,,,,,,,,,,,,,,,,,,,,,,,,,,,,,,,,,,,,,,,,,,,,,,,,,,,,,,,,,,,,,,,,,,,,,,,,,,,,200.0,125.0,141.0,141.0,125.0,200.0,2.1,2.12,-229,-259,0,-253,266,269,190.87695789337158,190.87703800201416,190.88093543052673,190.8953034877777,191.04549741744995,191.04549741744995,191.04549741744995,191.04549741744995,191.04549741744995,191.04549741744995,191.04549741744995,192.9052906036377,3,2.001925230026245,None,,,,,,,,,,,,,,,,,,52,4,2025-02-19_14h09.29.454,comp,2024.2.4,57.75456502012451,2025-02-19 14h09.38.577358 -0500,
60,60,0,critical,hdw,20.0,2.1,lower,133.0,57.0,78.0,78.0,57.0,133.0,1,1.2644240856170654,None,,,,,0,0,0,0,0,60,60,46,192.92071676254272,,,,,,,,,,,,,,,,,,,,,,,,,,,,,,,,,,,,,,,,,,,,,,,,,,,,,,,,,,,,,,,,,,,,,,,,,,,,,,,,,,133.0,57.0,78.0,78.0,57.0,133.0,2.1,2.11,-164,286,0,271,202,-254,192.90681171417236,192.9068877696991,192.90987086296082,192.92071676254272,193.0747685432434,193.0747685432434,193.0747685432434,193.0747685432434,193.0747685432434,193.0747685432434,193.0747685432434,194.18845176696777,1,1.2644240856170654,None,,,,,,,,,,,,,,,,,,52,4,2025-02-19_14h09.29.454,comp,2024.2.4,57.75456502012451,2025-02-19 14h09.38.577358 -0500,
61,61,0,critical,dhw,20.0,1.0,lower,78.0,78.0,133.0,57.0,57.0,133.0,2,2.6685876846313477,None,,,,,0,0,0,0,0,61,61,54,194.20465397834778,,,,,,,,,,,,,,,,,,,,,,,,,,,,,,,,,,,,,,,,,,,,,,,,,,,,,,,,,,,,,,,,,,,,,,,,,,,,,,,,,,78.0,78.0,133.0,57.0,57.0,133.0,1.0,1.1,-644,257,-480,273,-289,274,194.18994426727295,194.19002079963684,194.19291305541992,194.20465397834778,194.34325408935547,194.34325408935547,194.34325408935547,194.34325408935547,194.34325408935547,194.34325408935547,194.34325408935547,196.87766551971436,2,2.6685876846313477,None,,,,,,,,,,,,,,,,,,52,4,2025-02-19_14h09.29.454,comp,2024.2.4,57.75456502012451,2025-02-19 14h09.38.577358 -0500,
62,62,0,critical,hwd,35.0,2.1,upper,200.0,125.0,125.0,200.0,127.0,127.0,2,3.877990484237671,None,,,,,0,0,0,0,0,62,62,17,196.89866065979004,,,,,,,,,,,,,,,,,,,,,,,,,,,,,,,,,,,,,,,,,,,,,,,,,,,,,,,,,,,,,,,,,,,,,,,,,,,,,,,,,,200.0,125.0,125.0,200.0,127.0,127.0,2.1,2.11,-258,265,0,289,260,-261,196.87936687469482,196.87950110435486,196.8828296661377,196.89866065979004,197.03994011878967,197.03994011878967,197.03994011878967,197.03994011878967,197.03994011878967,197.03994011878967,197.03994011878967,200.78069806098938,2,3.877990484237671,None,,,,,,,,,,,,,,,,,,52,4,2025-02-19_14h09.29.454,comp,2024.2.4,57.75456502012451,2025-02-19 14h09.38.577358 -0500,
63,63,0,filler_square,None,None,None,None,None,None,None,None,None,None,3,2.235081911087036,None,,,,,0,0,0,0,0,63,63,181,200.79898238182068,,,,,,,,,,,,,,,,,,,,,,,,,,,,,,,,,,,,,,,,,,,,,,,,,,,,,,,,,,,,,,,,,,,,,,,,,,,,,,,,,,57.21249794213794,57.84290981963095,57.776677320946696,57.3524238755059,58.13428474466822,58.13428474466822,2.2,2.22,-154,256,0,-262,154,-259,200.78258872032166,200.7827069759369,200.78585600852966,200.79898238182068,200.9498496055603,200.9498496055603,200.9498496055603,200.9498496055603,200.9498496055603,200.9498496055603,200.9498496055603,203.04168915748596,3,2.235081911087036,None,,,,,,,,,,,,,,,,,,52,4,2025-02-19_14h09.29.454,comp,2024.2.4,57.75456502012451,2025-02-19 14h09.38.577358 -0500,
64,64,0,critical,hdw,35.0,3.0,upper,200.0,125.0,127.0,127.0,125.0,200.0,3,2.5670838356018066,None,,,,,0,0,0,0,0,64,64,111,203.0581455230713,,,,,,,,,,,,,,,,,,,,,,,,,,,,,,,,,,,,,,,,,,,,,,,,,,,,,,,,,,,,,,,,,,,,,,,,,,,,,,,,,,200.0,125.0,127.0,127.0,125.0,200.0,3.0,3.1,-222,270,0,-4,260,-252,203.04327273368835,203.0433497428894,203.0466763973236,203.0581455230713,203.2150013446808,203.2150013446808,203.2150013446808,203.2150013446808,203.2150013446808,203.2150013446808,203.2150013446808,205.6338655948639,3,2.5670838356018066,None,,,,,,,,,,,,,,,,,,52,4,2025-02-19_14h09.29.454,comp,2024.2.4,57.75456502012451,2025-02-19 14h09.38.577358 -0500,
65,65,0,filler_random,None,None,None,None,None,None,None,None,None,None,2,1.8280677795410156,None,,,,,0,0,0,0,0,65,65,134,205.6527078151703,,,,,,,,,,,,,,,,,,,,,,,,,,,,,,,,,,,,,,,,,,,,,,,,,,,,,,,,,,,,,,,,,,,,,,,,,,,,,,,,,,195.41539704267976,80.1766607914908,196.80104200461824,171.65627102958769,74.00172769542732,154.48309001074898,3.0,3.2,-222,-270,0,-11,259,257,205.6357765197754,205.6358606815338,205.63913369178772,205.6527078151703,205.79655408859253,205.79655408859253,205.79655408859253,205.79655408859253,205.79655408859253,205.79655408859253,205.79655408859253,207.48294830322266,2,1.8280677795410156,None,,,,,,,,,,,,,,,,,,52,4,2025-02-19_14h09.29.454,comp,2024.2.4,57.75456502012451,2025-02-19 14h09.38.577358 -0500,
66,66,0,critical,dhw,20.0,3.0,lower,78.0,78.0,133.0,57.0,57.0,133.0,2,3.867478847503662,None,,,,,0,0,0,0,0,66,66,56,207.50115060806274,,,,,,,,,,,,,,,,,,,,,,,,,,,,,,,,,,,,,,,,,,,,,,,,,,,,,,,,,,,,,,,,,,,,,,,,,,,,,,,,,,78.0,78.0,133.0,57.0,57.0,133.0,3.0,3.1,-164,286,0,-5,191,-286,207.48457765579224,207.48474740982056,207.4881408214569,207.50115060806274,207.64494252204895,207.64494252204895,207.64494252204895,207.64494252204895,207.64494252204895,207.64494252204895,207.64494252204895,211.3793647289276,2,3.867478847503662,None,,,,,,,,,,,,,,,,,,52,4,2025-02-19_14h09.29.454,comp,2024.2.4,57.75456502012451,2025-02-19 14h09.38.577358 -0500,
67,67,0,filler_square,None,None,None,None,None,None,None,None,None,None,1,1.1497433185577393,None,,,,,0,0,0,0,0,67,67,189,211.3950183391571,,,,,,,,,,,,,,,,,,,,,,,,,,,,,,,,,,,,,,,,,,,,,,,,,,,,,,,,,,,,,,,,,,,,,,,,,,,,,,,,,,103.09918735886127,103.09918735886127,85.17871277393901,84.60510596858944,61.18067899411825,99.20556396107754,1.0,1.1,-670,263,-480,251,-292,283,211.3812165260315,211.38129663467407,211.38433408737183,211.3950183391571,211.54572176933289,211.54572176933289,211.54572176933289,211.54572176933289,211.54572176933289,211.54572176933289,211.54572176933289,212.56274223327637,1,1.1497433185577393,None,,,,,,,,,,,,,,,,,,52,4,2025-02-19_14h09.29.454,comp,2024.2.4,57.75456502012451,2025-02-19 14h09.38.577358 -0500,
68,68,0,critical,whd,20.0,2.1,upper,125.0,200.0,200.0,125.0,141.0,141.0,2,3.5823333263397217,None,,,,,0,0,0,0,0,68,68,15,212.57815170288086,,,,,,,,,,,,,,,,,,,,,,,,,,,,,,,,,,,,,,,,,,,,,,,,,,,,,,,,,,,,,,,,,,,,,,,,,,,,,,,,,,125.0,200.0,200.0,125.0,141.0,141.0,2.1,2.11,-258,268,0,287,229,-280,212.56427645683289,212.5643515586853,212.56786489486694,212.57815170288086,212.7257843017578,212.7257843017578,212.7257843017578,212.7257843017578,212.7257843017578,212.7257843017578,212.7257843017578,216.1748263835907,2,3.5823333263397217,None,,,,,,,,,,,,,,,,,,52,4,2025-02-19_14h09.29.454,comp,2024.2.4,57.75456502012451,2025-02-19 14h09.38.577358 -0500,
69,69,0,critical,dwh,20.0,4.0,lower,78.0,78.0,57.0,133.0,133.0,57.0,2,1.7589938640594482,None,,,,,0,0,0,0,0,69,69,70,216.193523645401,,,,,,,,,,,,,,,,,,,,,,,,,,,,,,,,,,,,,,,,,,,,,,,,,,,,,,,,,,,,,,,,,,,,,,,,,,,,,,,,,,78.0,78.0,57.0,133.0,133.0,57.0,4.0,4.1,-202,-254,0,14,191,-252,216.1764271259308,216.1765067577362,216.1794409751892,216.193523645401,216.33066082000732,216.33066082000732,216.33066082000732,216.33066082000732,216.33066082000732,216.33066082000732,216.33066082000732,217.96297526359558,2,1.7589938640594482,None,,,,,,,,,,,,,,,,,,52,4,2025-02-19_14h09.29.454,comp,2024.2.4,57.75456502012451,2025-02-19 14h09.38.577358 -0500,
70,70,0,critical,dwh,35.0,2.1,lower,70.0,70.0,57.0,133.0,133.0,57.0,3,2.213979482650757,None,,,,,0,0,0,0,0,70,70,28,217.97892117500305,,,,,,,,,,,,,,,,,,,,,,,,,,,,,,,,,,,,,,,,,,,,,,,,,,,,,,,,,,,,,,,,,,,,,,,,,,,,,,,,,,70.0,70.0,57.0,133.0,133.0,57.0,2.1,2.11,-198,277,0,264,191,-265,217.96444392204285,217.96452069282532,217.96743535995483,217.97892117500305,218.13131952285767,218.13131952285767,218.13131952285767,218.13131952285767,218.13131952285767,218.13131952285767,218.13131952285767,220.19723558425903,3,2.213979482650757,None,,,,,,,,,,,,,,,,,,52,4,2025-02-19_14h09.29.454,comp,2024.2.4,57.75456502012451,2025-02-19 14h09.38.577358 -0500,
71,71,0,critical,hdw,35.0,2.1,upper,200.0,125.0,127.0,127.0,125.0,200.0,3,1.663343906402588,None,,,,,0,0,0,0,0,71,71,21,220.21752858161926,,,,,,,,,,,,,,,,,,,,,,,,,,,,,,,,,,,,,,,,,,,,,,,,,,,,,,,,,,,,,,,,,,,,,,,,,,,,,,,,,,200.0,125.0,127.0,127.0,125.0,200.0,2.1,2.12,-222,-273,0,-286,260,285,220.1987340450287,220.19881057739258,220.20188808441162,220.21752858161926,220.36480259895325,220.36480259895325,220.36480259895325,220.36480259895325,220.36480259895325,220.36480259895325,220.36480259895325,221.8982048034668,3,1.663343906402588,None,,,,,,,,,,,,,,,,,,52,4,2025-02-19_14h09.29.454,comp,2024.2.4,57.75456502012451,2025-02-19 14h09.38.577358 -0500,
72,72,0,critical,dhw,35.0,2.1,upper,127.0,127.0,200.0,125.0,125.0,200.0,3,3.774186849594116,None,,,,,0,0,0,0,0,72,72,1,221.91419625282288,,,,,,,,,,,,,,,,,,,,,,,,,,,,,,,,,,,,,,,,,,,,,,,,,,,,,,,,,,,,,,,,,,,,,,,,,,,,,,,,,,127.0,127.0,200.0,125.0,125.0,200.0,2.1,2.12,-222,-258,0,-273,258,285,221.89980220794678,221.89988207817078,221.90305495262146,221.91419625282288,222.0684370994568,222.0684370994568,222.0684370994568,222.0684370994568,222.0684370994568,222.0684370994568,222.0684370994568,225.70297169685364,3,3.774186849594116,None,,,,,,,,,,,,,,,,,,52,4,2025-02-19_14h09.29.454,comp,2024.2.4,57.75456502012451,2025-02-19 14h09.38.577358 -0500,
73,73,0,filler_square,None,None,None,None,None,None,None,None,None,None,1,0.8656601905822754,None,,,,,0,0,0,0,0,73,73,195,225.71872568130493,,,,,,,,,,,,,,,,,,,,,,,,,,,,,,,,,,,,,,,,,,,,,,,,,,,,,,,,,,,,,,,,,,,,,,,,,,,,,,,,,,147.70476487757523,147.70476487757523,143.5925003205215,74.55970756316754,125.78663073024154,98.14313706024038,1.0,1.2,-207,17,0,-16,182,-5,225.70503878593445,225.70511960983276,225.70838904380798,225.71872568130493,225.86685705184937,225.86685705184937,225.86685705184937,225.86685705184937,225.86685705184937,225.86685705184937,225.86685705184937,226.59451508522034,1,0.8656601905822754,None,,,,,,,,,,,,,,,,,,52,4,2025-02-19_14h09.29.454,comp,2024.2.4,57.75456502012451,2025-02-19 14h09.38.577358 -0500,
74,74,0,catch,None,None,None,None,None,None,None,None,None,None,2,1.3825838565826416,None,,,,,0,0,0,0,0,74,74,127,226.61047983169556,,,,,,,,,,,,,,,,,,,,,,,,,,,,,,,,,,,,,,,,,,,,,,,,,,,,,,,,,,,,,,,,,,,,,,,,,,,,,,,,,,106,84,134,191,95,95,2.2,2.21,-234,-256,0,261,239,288,226.5965256690979,226.5966076850891,226.5995008945465,226.61047983169556,226.75006866455078,226.75006866455078,226.75006866455078,226.75006866455078,226.75006866455078,226.75006866455078,226.75006866455078,228.0023078918457,2,1.3825838565826416,None,,,,,,,,,,,,,,,,,,52,4,2025-02-19_14h09.29.454,comp,2024.2.4,57.75456502012451,2025-02-19 14h09.38.577358 -0500,
75,75,0,critical,dwh,20.0,3.0,upper,141.0,141.0,125.0,200.0,200.0,125.0,2,2.560512065887451,None,,,,,0,0,0,0,0,75,75,69,228.01748704910278,,,,,,,,,,,,,,,,,,,,,,,,,,,,,,,,,,,,,,,,,,,,,,,,,,,,,,,,,,,,,,,,,,,,,,,,,,,,,,,,,,141.0,141.0,125.0,200.0,200.0,125.0,3.0,3.2,-266,-253,0,15,258,250,228.0039086341858,228.00403475761414,228.00696754455566,228.01748704910278,228.16696405410767,228.16696405410767,228.16696405410767,228.16696405410767,228.16696405410767,228.16696405410767,228.16696405410767,230.58681678771973,2,2.560512065887451,None,,,,,,,,,,,,,,,,,,52,4,2025-02-19_14h09.29.454,comp,2024.2.4,57.75456502012451,2025-02-19 14h09.38.577358 -0500,
76,76,0,critical,dhw,20.0,4.0,lower,78.0,78.0,133.0,57.0,57.0,133.0,2,2.923900604248047,None,,,,,0,0,0,0,0,76,76,58,230.60460352897644,,,,,,,,,,,,,,,,,,,,,,,,,,,,,,,,,,,,,,,,,,,,,,,,,,,,,,,,,,,,,,,,,,,,,,,,,,,,,,,,,,78.0,78.0,133.0,57.0,57.0,133.0,4.0,4.1,-164,-254,0,-4,191,-285,230.58841061592102,230.58849334716797,230.591463804245,230.60460352897644,230.7514133453369,230.7514133453369,230.7514133453369,230.7514133453369,230.7514133453369,230.7514133453369,230.7514133453369,233.53421187400818,2,2.923900604248047,None,,,,,,,,,,,,,,,,,,52,4,2025-02-19_14h09.29.454,comp,2024.2.4,57.75456502012451,2025-02-19 14h09.38.577358 -0500,
77,77,0,critical,hdw,20.0,4.0,upper,200.0,125.0,141.0,141.0,125.0,200.0,1,3.005772590637207,None,,,,,0,0,0,0,0,77,77,119,233.55533957481384,,,,,,,,,,,,,,,,,,,,,,,,,,,,,,,,,,,,,,,,,,,,,,,,,,,,,,,,,,,,,,,,,,,,,,,,,,,,,,,,,,200.0,125.0,141.0,141.0,125.0,200.0,4.0,4.2,-229,12,0,-285,266,19,233.5358521938324,233.53596901893616,233.53951811790466,233.55533957481384,233.68675684928894,233.68675684928894,233.68675684928894,233.68675684928894,233.68675684928894,233.68675684928894,233.68675684928894,236.5778524875641,1,3.005772590637207,None,,,,,,,,,,,,,,,,,,52,4,2025-02-19_14h09.29.454,comp,2024.2.4,57.75456502012451,2025-02-19 14h09.38.577358 -0500,
78,78,0,critical,hwd,35.0,1.0,upper,200.0,125.0,125.0,200.0,127.0,127.0,1,2.847036838531494,None,,,,,0,0,0,0,0,78,78,97,236.59354448318481,,,,,,,,,,,,,,,,,,,,,,,,,,,,,,,,,,,,,,,,,,,,,,,,,,,,,,,,,,,,,,,,,,,,,,,,,,,,,,,,,,200.0,125.0,125.0,200.0,127.0,127.0,1.0,1.3,222,-270,480,-267,740,-279,236.57932686805725,236.5794060230255,236.5823724269867,236.59354448318481,236.73498249053955,236.73498249053955,236.73498249053955,236.73498249053955,236.73498249053955,236.73498249053955,236.73498249053955,239.45429396629333,1,2.847036838531494,None,,,,,,,,,,,,,,,,,,52,4,2025-02-19_14h09.29.454,comp,2024.2.4,57.75456502012451,2025-02-19 14h09.38.577358 -0500,
79,79,0,filler_random,None,None,None,None,None,None,None,None,None,None,1,1.9473886489868164,None,,,,,0,0,0,0,0,79,79,144,239.46971464157104,,,,,,,,,,,,,,,,,,,,,,,,,,,,,,,,,,,,,,,,,,,,,,,,,,,,,,,,,,,,,,,,,,,,,,,,,,,,,,,,,,158.4365957103183,130.5596071805922,75.0579830933527,165.8867069366557,104.07563030005872,104.63753189962652,1.0,1.2,-244,-6,0,-6,231,3,239.45598459243774,239.45606517791748,239.459486246109,239.46971464157104,239.6188542842865,239.6188542842865,239.6188542842865,239.6188542842865,239.6188542842865,239.6188542842865,239.6188542842865,241.4207239151001,1,1.9473886489868164,None,,,,,,,,,,,,,,,,,,52,4,2025-02-19_14h09.29.454,comp,2024.2.4,57.75456502012451,2025-02-19 14h09.38.577358 -0500,
80,80,0,filler_random,None,None,None,None,None,None,None,None,None,None,3,4.216428279876709,None,,,,,0,0,0,0,0,80,80,163,241.44017934799194,,,,,,,,,,,,,,,,,,,,,,,,,,,,,,,,,,,,,,,,,,,,,,,,,,,,,,,,,,,,,,,,,,,,,,,,,,,,,,,,,,133.1540098078952,89.3999754436426,96.14720550637614,163.07338357504443,152.6564782576325,113.15469989394691,3.0,3.1,-222,272,0,8,234,-273,241.42234897613525,241.4224317073822,241.42556953430176,241.44017934799194,241.5875699520111,241.5875699520111,241.5875699520111,241.5875699520111,241.5875699520111,241.5875699520111,241.5875699520111,245.67342948913574,3,4.216428279876709,None,,,,,,,,,,,,,,,,,,52,4,2025-02-19_14h09.29.454,comp,2024.2.4,57.75456502012451,2025-02-19 14h09.38.577358 -0500,
81,81,0,critical,whd,20.0,1.0,upper,125.0,200.0,200.0,125.0,141.0,141.0,1,2.599581718444824,None,,,,,0,0,0,0,0,81,81,91,245.6895706653595,,,,,,,,,,,,,,,,,,,,,,,,,,,,,,,,,,,,,,,,,,,,,,,,,,,,,,,,,,,,,,,,,,,,,,,,,,,,,,,,,,125.0,200.0,200.0,125.0,141.0,141.0,1.0,1.2,-258,-15,0,2,229,19,245.67498970031738,245.67506957054138,245.67917132377625,245.6895706653595,245.8399350643158,245.8399350643158,245.8399350643158,245.8399350643158,245.8399350643158,245.8399350643158,245.8399350643158,248.29638838768005,1,2.599581718444824,None,,,,,,,,,,,,,,,,,,52,4,2025-02-19_14h09.29.454,comp,2024.2.4,57.75456502012451,2025-02-19 14h09.38.577358 -0500,
82,82,0,critical,dwh,35.0,1.0,upper,127.0,127.0,125.0,200.0,200.0,125.0,2,3.936630964279175,None,,,,,0,0,0,0,0,82,82,61,248.31260538101196,,,,,,,,,,,,,,,,,,,,,,,,,,,,,,,,,,,,,,,,,,,,,,,,,,,,,,,,,,,,,,,,,,,,,,,,,,,,,,,,,,127.0,127.0,125.0,200.0,200.0,125.0,1.0,1.2,-260,-2,0,17,258,-4,248.2979199886322,248.2980034351349,248.30097031593323,248.31260538101196,248.45533847808838,248.45533847808838,248.45533847808838,248.45533847808838,248.45533847808838,248.45533847808838,248.45533847808838,252.25918102264404,2,3.936630964279175,None,,,,,,,,,,,,,,,,,,52,4,2025-02-19_14h09.29.454,comp,2024.2.4,57.75456502012451,2025-02-19 14h09.38.577358 -0500,
83,83,0,critical,dwh,35.0,2.1,lower,70.0,70.0,57.0,133.0,133.0,57.0,2,5.453412294387817,None,,,,,0,0,0,0,0,83,83,4,252.27530932426453,,,,,,,,,,,,,,,,,,,,,,,,,,,,,,,,,,,,,,,,,,,,,,,,,,,,,,,,,,,,,,,,,,,,,,,,,,,,,,,,,,70.0,70.0,57.0,133.0,133.0,57.0,2.1,2.12,-198,-284,0,-284,191,266,252.26085472106934,252.26093578338623,252.26448392868042,252.27530932426453,252.42825531959534,252.42825531959534,252.42825531959534,252.42825531959534,252.42825531959534,252.42825531959534,252.42825531959534,257.73307490348816,2,5.453412294387817,None,,,,,,,,,,,,,,,,,,52,4,2025-02-19_14h09.29.454,comp,2024.2.4,57.75456502012451,2025-02-19 14h09.38.577358 -0500,
84,84,0,filler_square,None,None,None,None,None,None,None,None,None,None,1,1.3448851108551025,None,,,,,0,0,0,0,0,84,84,186,257.7519781589508,,,,,,,,,,,,,,,,,,,,,,,,,,,,,,,,,,,,,,,,,,,,,,,,,,,,,,,,,,,,,,,,,,,,,,,,,,,,,,,,,,123.05016126241304,123.05016126241304,83.01591302708059,63.23386969499945,57.31874881095985,98.74778840333491,1.0,1.1,-669,259,-480,273,-303,253,257.73487758636475,257.7349545955658,257.7378525733948,257.7519781589508,257.8934326171875,257.8934326171875,257.8934326171875,257.8934326171875,257.8934326171875,257.8934326171875,257.8934326171875,259.10920786857605,1,1.3448851108551025,None,,,,,,,,,,,,,,,,,,52,4,2025-02-19_14h09.29.454,comp,2024.2.4,57.75456502012451,2025-02-19 14h09.38.577358 -0500,
85,85,0,filler_square,None,None,None,None,None,None,None,None,None,None,3,1.5078125,None,,,,,0,0,0,0,0,85,85,192,259.12460684776306,,,,,,,,,,,,,,,,,,,,,,,,,,,,,,,,,,,,,,,,,,,,,,,,,,,,,,,,,,,,,,,,,,,,,,,,,,,,,,,,,,58.1508028422515,57.17780349664009,58.899461940053,58.899461940053,57.23957267460945,58.79552796608223,3.0,3.1,-154,271,0,8,155,-274,259.1109809875488,259.11106038093567,259.11428022384644,259.12460684776306,259.27902936935425,259.27902936935425,259.27902936935425,259.27902936935425,259.27902936935425,259.27902936935425,259.27902936935425,260.64615082740784,3,1.5078125,None,,,,,,,,,,,,,,,,,,52,4,2025-02-19_14h09.29.454,comp,2024.2.4,57.75456502012451,2025-02-19 14h09.38.577358 -0500,
86,86,0,filler_square,None,None,None,None,None,None,None,None,None,None,1,2.08768367767334,None,,,,,0,0,0,0,0,86,86,204,260.66772627830505,,,,,,,,,,,,,,,,,,,,,,,,,,,,,,,,,,,,,,,,,,,,,,,,,,,,,,,,,,,,,,,,,,,,,,,,,,,,,,,,,,82.68709601610446,82.68709601610446,68.32587911189079,76.51014363603319,59.08666328457212,79.28196932522181,2.1,2.12,-176,-279,0,-267,174,253,260.6483175754547,260.6484010219574,260.65196990966797,260.66772627830505,260.81069254875183,260.81069254875183,260.81069254875183,260.81069254875183,260.81069254875183,260.81069254875183,260.81069254875183,262.76191997528076,1,2.08768367767334,None,,,,,,,,,,,,,,,,,,52,4,2025-02-19_14h09.29.454,comp,2024.2.4,57.75456502012451,2025-02-19 14h09.38.577358 -0500,
87,87,0,critical,wdh,35.0,4.0,lower,57.0,133.0,70.0,70.0,133.0,57.0,3,4.781607389450073,None,,,,,0,0,0,0,0,87,87,76,262.77967143058777,,,,,,,,,,,,,,,,,,,,,,,,,,,,,,,,,,,,,,,,,,,,,,,,,,,,,,,,,,,,,,,,,,,,,,,,,,,,,,,,,,57.0,133.0,70.0,70.0,133.0,57.0,4.0,4.1,-198,-280,0,14,160,-250,262.7634162902832,262.76349925994873,262.7665870189667,262.77967143058777,262.92852663993835,262.92852663993835,262.92852663993835,262.92852663993835,262.92852663993835,262.92852663993835,262.92852663993835,267.5657904148102,3,4.781607389450073,None,,,,,,,,,,,,,,,,,,52,4,2025-02-19_14h09.29.454,comp,2024.2.4,57.75456502012451,2025-02-19 14h09.38.577358 -0500,
88,88,0,critical,hwd,35.0,2.1,lower,133.0,57.0,57.0,133.0,70.0,70.0,1,2.122145891189575,None,,,,,0,0,0,0,0,88,88,16,267.5826938152313,,,,,,,,,,,,,,,,,,,,,,,,,,,,,,,,,,,,,,,,,,,,,,,,,,,,,,,,,,,,,,,,,,,,,,,,,,,,,,,,,,133.0,57.0,57.0,133.0,70.0,70.0,2.1,2.11,-191,258,0,285,198,-256,267.5675823688507,267.5677568912506,267.57112765312195,267.5826938152313,267.7288062572479,267.7288062572479,267.7288062572479,267.7288062572479,267.7288062572479,267.7288062572479,267.7288062572479,269.7069787979126,1,2.122145891189575,None,,,,,,,,,,,,,,,,,,52,4,2025-02-19_14h09.29.454,comp,2024.2.4,57.75456502012451,2025-02-19 14h09.38.577358 -0500,
89,89,0,filler_square,None,None,None,None,None,None,None,None,None,None,3,1.845836877822876,None,,,,,0,0,0,0,0,89,89,193,269.7227301597595,,,,,,,,,,,,,,,,,,,,,,,,,,,,,,,,,,,,,,,,,,,,,,,,,,,,,,,,,,,,,,,,,,,,,,,,,,,,,,,,,,64.92515849471826,71.94853880241952,59.28513135490111,57.02682396734913,83.47372238906846,83.47372238906846,4.0,4.2,-160,9,0,-272,166,1,269.70878624916077,269.7088668346405,269.71180534362793,269.7227301597595,269.86969566345215,269.86969566345215,269.86969566345215,269.86969566345215,269.86969566345215,269.86969566345215,269.86969566345215,271.5819978713989,3,1.845836877822876,None,,,,,,,,,,,,,,,,,,52,4,2025-02-19_14h09.29.454,comp,2024.2.4,57.75456502012451,2025-02-19 14h09.38.577358 -0500,
90,90,0,filler_random,None,None,None,None,None,None,None,None,None,None,1,1.107278823852539,None,,,,,0,0,0,0,0,90,90,155,271.59876823425293,,,,,,,,,,,,,,,,,,,,,,,,,,,,,,,,,,,,,,,,,,,,,,,,,,,,,,,,,,,,,,,,,,,,,,,,,,,,,,,,,,154.6103740196922,189.00764365452633,75.49675074485732,114.76079045007714,127.12764104667113,64.61025046425691,3.0,3.1,-248,279,0,1,186,-256,271.58370447158813,271.58378052711487,271.58692169189453,271.59876823425293,271.7508475780487,271.7508475780487,271.7508475780487,271.7508475780487,271.7508475780487,271.7508475780487,271.7508475780487,272.71398425102234,1,1.107278823852539,None,,,,,,,,,,,,,,,,,,52,4,2025-02-19_14h09.29.454,comp,2024.2.4,57.75456502012451,2025-02-19 14h09.38.577358 -0500,
91,91,0,catch,None,None,None,None,None,None,None,None,None,None,2,2.7193331718444824,None,,,,,0,0,0,0,0,91,91,125,272.7371332645416,,,,,,,,,,,,,,,,,,,,,,,,,,,,,,,,,,,,,,,,,,,,,,,,,,,,,,,,,,,,,,,,,,,,,,,,,,,,,,,,,,109,81,177,148,101,89,3.0,3.1,-210,276,0,-2,214,-275,272.71583676338196,272.71591544151306,272.7191696166992,272.7371332645416,272.8820309638977,272.8820309638977,272.8820309638977,272.8820309638977,272.8820309638977,272.8820309638977,272.8820309638977,275.4682762622833,2,2.7193331718444824,None,,,,,,,,,,,,,,,,,,52,4,2025-02-19_14h09.29.454,comp,2024.2.4,57.75456502012451,2025-02-19 14h09.38.577358 -0500,
92,92,0,critical,hdw,35.0,1.0,lower,133.0,57.0,70.0,70.0,57.0,133.0,1,1.999720573425293,None,,,,,0,0,0,0,0,92,92,108,275.48912167549133,,,,,,,,,,,,,,,,,,,,,,,,,,,,,,,,,,,,,,,,,,,,,,,,,,,,,,,,,,,,,,,,,,,,,,,,,,,,,,,,,,133.0,57.0,70.0,70.0,57.0,133.0,1.0,1.3,320,-289,480,-250,678,-275,275.470365524292,275.47044491767883,275.4734094142914,275.48912167549133,275.6331741809845,275.6331741809845,275.6331741809845,275.6331741809845,275.6331741809845,275.6331741809845,275.6331741809845,277.4985980987549,1,1.999720573425293,None,,,,,,,,,,,,,,,,,,52,4,2025-02-19_14h09.29.454,comp,2024.2.4,57.75456502012451,2025-02-19 14h09.38.577358 -0500,
93,93,0,critical,hdw,20.0,1.0,upper,200.0,125.0,141.0,141.0,125.0,200.0,1,3.173635482788086,None,,,,,0,0,0,0,0,93,93,115,277.5154149532318,,,,,,,,,,,,,,,,,,,,,,,,,,,,,,,,,,,,,,,,,,,,,,,,,,,,,,,,,,,,,,,,,,,,,,,,,,,,,,,,,,200.0,125.0,141.0,141.0,125.0,200.0,1.0,1.1,-709,258,-480,274,-214,255,277.50027227401733,277.50035214424133,277.5037648677826,277.5154149532318,277.665646314621,277.665646314621,277.665646314621,277.665646314621,277.665646314621,277.665646314621,277.665646314621,280.700514793396,1,3.173635482788086,None,,,,,,,,,,,,,,,,,,52,4,2025-02-19_14h09.29.454,comp,2024.2.4,57.75456502012451,2025-02-19 14h09.38.577358 -0500,
94,94,0,filler_random,None,None,None,None,None,None,None,None,None,None,3,2.1223995685577393,None,,,,,0,0,0,0,0,94,94,135,280.7181062698364,,,,,,,,,,,,,,,,,,,,,,,,,,,,,,,,,,,,,,,,,,,,,,,,,,,,,,,,,,,,,,,,,,,,,,,,,,,,,,,,,,85.71427366194357,99.38756879271315,170.61927966060597,126.50520056179272,188.23693722365383,133.2079688679789,2.1,2.11,-209,286,0,266,226,-255,280.70251083374023,280.7025942802429,280.7067892551422,280.7181062698364,280.86850333213806,280.86850333213806,280.86850333213806,280.86850333213806,280.86850333213806,280.86850333213806,280.86850333213806,282.85470628738403,3,2.1223995685577393,None,,,,,,,,,,,,,,,,,,52,4,2025-02-19_14h09.29.454,comp,2024.2.4,57.75456502012451,2025-02-19 14h09.38.577358 -0500,
95,95,0,filler_square,None,None,None,None,None,None,None,None,None,None,2,1.6700654029846191,None,,,,,0,0,0,0,0,95,95,178,282.8750424385071,,,,,,,,,,,,,,,,,,,,,,,,,,,,,,,,,,,,,,,,,,,,,,,,,,,,,,,,,,,,,,,,,,,,,,,,,,,,,,,,,,71.70959861166034,91.38075427200508,101.09529500083178,101.09529500083178,76.21020723069596,76.59722187767349,2.1,2.11,-192,262,0,287,185,-252,282.8565459251404,282.8566515445709,282.8600459098816,282.8750424385071,283.0146834850311,283.0146834850311,283.0146834850311,283.0146834850311,283.0146834850311,283.0146834850311,283.0146834850311,284.551855802536,2,1.6700654029846191,None,,,,,,,,,,,,,,,,,,52,4,2025-02-19_14h09.29.454,comp,2024.2.4,57.75456502012451,2025-02-19 14h09.38.577358 -0500,
96,96,0,critical,wdh,20.0,2.1,upper,125.0,200.0,141.0,141.0,200.0,125.0,3,2.4005324840545654,None,,,,,0,0,0,0,0,96,96,35,284.5679609775543,,,,,,,,,,,,,,,,,,,,,,,,,,,,,,,,,,,,,,,,,,,,,,,,,,,,,,,,,,,,,,,,,,,,,,,,,,,,,,,,,,125.0,200.0,141.0,141.0,200.0,125.0,2.1,2.11,-266,288,0,252,229,-269,284.5534722805023,284.5535697937012,284.55711555480957,284.5679609775543,284.72587418556213,284.72587418556213,284.72587418556213,284.72587418556213,284.72587418556213,284.72587418556213,284.72587418556213,286.97843623161316,3,2.4005324840545654,None,,,,,,,,,,,,,,,,,,52,4,2025-02-19_14h09.29.454,comp,2024.2.4,57.75456502012451,2025-02-19 14h09.38.577358 -0500,
97,97,0,critical,dwh,20.0,1.0,upper,141.0,141.0,125.0,200.0,200.0,125.0,3,2.1345813274383545,None,,,,,0,0,0,0,0,97,97,67,286.9945459365845,,,,,,,,,,,,,,,,,,,,,,,,,,,,,,,,,,,,,,,,,,,,,,,,,,,,,,,,,,,,,,,,,,,,,,,,,,,,,,,,,,141.0,141.0,125.0,200.0,200.0,125.0,1.0,1.2,-266,5,0,-17,258,-16,286.97992300987244,286.9799995422363,286.9828853607178,286.9945459365845,287.1360237598419,287.1360237598419,287.1360237598419,287.1360237598419,287.1360237598419,287.1360237598419,287.1360237598419,289.1364002227783,3,2.1345813274383545,None,,,,,,,,,,,,,,,,,,52,4,2025-02-19_14h09.29.454,comp,2024.2.4,57.75456502012451,2025-02-19 14h09.38.577358 -0500,
98,98,0,filler_square,None,None,None,None,None,None,None,None,None,None,3,2.0669946670532227,None,,,,,0,0,0,0,0,98,98,206,289.15798687934875,,,,,,,,,,,,,,,,,,,,,,,,,,,,,,,,,,,,,,,,,,,,,,,,,,,,,,,,,,,,,,,,,,,,,,,,,,,,,,,,,,58.70313014465637,57.990770886654246,63.946769521905594,59.62916555087964,71.23360448348656,71.23360448348656,3.0,3.1,-155,260,0,-14,161,-261,289.1383309364319,289.1384394168854,289.1416804790497,289.15798687934875,289.30322790145874,289.30322790145874,289.30322790145874,289.30322790145874,289.30322790145874,289.30322790145874,289.30322790145874,291.22714614868164,3,2.0669946670532227,None,,,,,,,,,,,,,,,,,,52,4,2025-02-19_14h09.29.454,comp,2024.2.4,57.75456502012451,2025-02-19 14h09.38.577358 -0500,
99,99,0,filler_square,None,None,None,None,None,None,None,None,None,None,2,1.2618741989135742,None,,,,,0,0,0,0,0,99,99,187,291.2427272796631,,,,,,,,,,,,,,,,,,,,,,,,,,,,,,,,,,,,,,,,,,,,,,,,,,,,,,,,,,,,,,,,,,,,,,,,,,,,,,,,,,87.96793377442597,98.4663652532842,122.74454686536795,122.74454686536795,60.758518307184026,81.2111522933457,3.0,3.2,-207,-252,0,14,198,264,291.2290105819702,291.2290918827057,291.23204612731934,291.2427272796631,291.385555267334,291.385555267334,291.385555267334,291.385555267334,291.385555267334,291.385555267334,291.385555267334,292.5203227996826,2,1.2618741989135742,None,,,,,,,,,,,,,,,,,,52,4,2025-02-19_14h09.29.454,comp,2024.2.4,57.75456502012451,2025-02-19 14h09.38.577358 -0500,
100,100,0,critical,dwh,20.0,3.0,lower,78.0,78.0,57.0,133.0,133.0,57.0,3,2.8129961490631104,None,,,,,0,0,0,0,0,100,100,68,292.53953409194946,,,,,,,,,,,,,,,,,,,,,,,,,,,,,,,,,,,,,,,,,,,,,,,,,,,,,,,,,,,,,,,,,,,,,,,,,,,,,,,,,,78.0,78.0,57.0,133.0,133.0,57.0,3.0,3.2,-202,-260,0,2,191,257,292.5219557285309,292.522034406662,292.5253117084503,292.53953409194946,292.68739128112793,292.68739128112793,292.68739128112793,292.68739128112793,292.68739128112793,292.68739128112793,292.68739128112793,295.3550934791565,3,2.8129961490631104,None,,,,,,,,,,,,,,,,,,52,4,2025-02-19_14h09.29.454,comp,2024.2.4,57.75456502012451,2025-02-19 14h09.38.577358 -0500,
101,101,0,filler_random,None,None,None,None,None,None,None,None,None,None,3,1.4788732528686523,None,,,,,0,0,0,0,0,101,101,130,295.37048411369324,,,,,,,,,,,,,,,,,,,,,,,,,,,,,,,,,,,,,,,,,,,,,,,,,,,,,,,,,,,,,,,,,,,,,,,,,,,,,,,,,,100.11572569981351,108.36691360361256,86.15366592807737,182.8854866890046,193.37751283741935,191.60321041807296,3.0,3.2,-242,-252,0,12,283,284,295.35714411735535,295.3572256565094,295.3609552383423,295.37048411369324,295.52331590652466,295.52331590652466,295.52331590652466,295.52331590652466,295.52331590652466,295.52331590652466,295.52331590652466,296.8567957878113,3,1.4788732528686523,None,,,,,,,,,,,,,,,,,,52,4,2025-02-19_14h09.29.454,comp,2024.2.4,57.75456502012451,2025-02-19 14h09.38.577358 -0500,
102,102,0,filler_square,None,None,None,None,None,None,None,None,None,None,1,1.356518268585205,None,,,,,0,0,0,0,0,102,102,177,296.87651467323303,,,,,,,,,,,,,,,,,,,,,,,,,,,,,,,,,,,,,,,,,,,,,,,,,,,,,,,,,,,,,,,,,,,,,,,,,,,,,,,,,,159.51955980226637,159.51955980226637,74.46580877739598,127.99124056163241,69.25084879425609,148.96127891416552,2.2,2.21,-240,-277,0,289,234,267,296.8586869239807,296.8587737083435,296.8621084690094,296.87651467323303,297.027046918869,297.027046918869,297.027046918869,297.027046918869,297.027046918869,297.027046918869,297.027046918869,298.2387421131134,1,1.356518268585205,None,,,,,,,,,,,,,,,,,,52,4,2025-02-19_14h09.29.454,comp,2024.2.4,57.75456502012451,2025-02-19 14h09.38.577358 -0500,
103,103,0,critical,whd,20.0,4.0,upper,125.0,200.0,200.0,125.0,141.0,141.0,1,2.857877492904663,None,,,,,0,0,0,0,0,103,103,95,298.2546935081482,,,,,,,,,,,,,,,,,,,,,,,,,,,,,,,,,,,,,,,,,,,,,,,,,,,,,,,,,,,,,,,,,,,,,,,,,,,,,,,,,,125.0,200.0,200.0,125.0,141.0,141.0,4.0,4.2,-258,-14,0,-283,229,4,298.24029183387756,298.2403736114502,298.24343490600586,298.2546935081482,298.4094305038452,298.4094305038452,298.4094305038452,298.4094305038452,298.4094305038452,298.4094305038452,298.4094305038452,301.13383436203003,1,2.857877492904663,None,,,,,,,,,,,,,,,,,,52,4,2025-02-19_14h09.29.454,comp,2024.2.4,57.75456502012451,2025-02-19 14h09.38.577358 -0500,
104,104,0,filler_square,None,None,None,None,None,None,None,None,None,None,3,1.886608362197876,None,,,,,0,0,0,0,0,104,104,183,301.1483554840088,,,,,,,,,,,,,,,,,,,,,,,,,,,,,,,,,,,,,,,,,,,,,,,,,,,,,,,,,,,,,,,,,,,,,,,,,,,,,,,,,,71.14069302174143,59.506401241011055,78.85534047933152,58.60342816767704,86.27691754695086,86.27691754695086,1.0,1.3,325,-258,480,-288,648,-277,301.134578704834,301.1346380710602,301.1358814239502,301.1483554840088,301.29043316841125,301.29043316841125,301.29043316841125,301.29043316841125,301.29043316841125,301.29043316841125,301.29043316841125,303.0393831729889,3,1.886608362197876,None,,,,,,,,,,,,,,,,,,52,4,2025-02-19_14h09.29.454,comp,2024.2.4,57.75456502012451,2025-02-19 14h09.38.577358 -0500,
105,105,0,critical,hwd,35.0,1.0,lower,133.0,57.0,57.0,133.0,70.0,70.0,1,2.1845881938934326,None,,,,,0,0,0,0,0,105,105,96,303.0559358596802,,,,,,,,,,,,,,,,,,,,,,,,,,,,,,,,,,,,,,,,,,,,,,,,,,,,,,,,,,,,,,,,,,,,,,,,,,,,,,,,,,133.0,57.0,57.0,133.0,70.0,70.0,1.0,1.3,289,-280,480,-282,678,-263,303.04090213775635,303.0409801006317,303.0440435409546,303.0559358596802,303.21057391166687,303.21057391166687,303.21057391166687,303.21057391166687,303.21057391166687,303.21057391166687,303.21057391166687,305.2604982852936,1,2.1845881938934326,None,,,,,,,,,,,,,,,,,,52,4,2025-02-19_14h09.29.454,comp,2024.2.4,57.75456502012451,2025-02-19 14h09.38.577358 -0500,
106,106,0,filler_random,None,None,None,None,None,None,None,None,None,None,1,1.0987279415130615,None,,,,,0,0,0,0,0,106,106,156,305.2779314517975,,,,,,,,,,,,,,,,,,,,,,,,,,,,,,,,,,,,,,,,,,,,,,,,,,,,,,,,,,,,,,,,,,,,,,,,,,,,,,,,,,142.04167874448743,148.30767752390472,173.08834213492128,59.98457279806608,81.10438528809316,66.16032676784785,3.0,3.2,-200,-276,0,-10,159,266,305.2623543739319,305.26243805885315,305.2654619216919,305.2779314517975,305.4247546195984,305.4247546195984,305.4247546195984,305.4247546195984,305.4247546195984,305.4247546195984,305.4247546195984,306.38090467453003,1,1.0987279415130615,None,,,,,,,,,,,,,,,,,,52,4,2025-02-19_14h09.29.454,comp,2024.2.4,57.75456502012451,2025-02-19 14h09.38.577358 -0500,
107,107,0,critical,dhw,35.0,3.0,upper,127.0,127.0,200.0,125.0,125.0,200.0,3,3.0397117137908936,None,,,,,0,0,0,0,0,107,107,51,306.4012248516083,,,,,,,,,,,,,,,,,,,,,,,,,,,,,,,,,,,,,,,,,,,,,,,,,,,,,,,,,,,,,,,,,,,,,,,,,,,,,,,,,,127.0,127.0,200.0,125.0,125.0,200.0,3.0,3.1,-222,259,0,1,258,-251,306.38247418403625,306.38255405426025,306.3854877948761,306.4012248516083,306.5424978733063,306.5424978733063,306.5424978733063,306.5424978733063,306.5424978733063,306.5424978733063,306.5424978733063,309.44729924201965,3,3.0397117137908936,None,,,,,,,,,,,,,,,,,,52,4,2025-02-19_14h09.29.454,comp,2024.2.4,57.75456502012451,2025-02-19 14h09.38.577358 -0500,
108,108,0,critical,dwh,35.0,4.0,upper,127.0,127.0,125.0,200.0,200.0,125.0,2,2.197467088699341,None,,,,,0,0,0,0,0,108,108,65,309.46719002723694,,,,,,,,,,,,,,,,,,,,,,,,,,,,,,,,,,,,,,,,,,,,,,,,,,,,,,,,,,,,,,,,,,,,,,,,,,,,,,,,,,127.0,127.0,125.0,200.0,200.0,125.0,4.0,4.2,-260,-17,0,-264,258,7,309.4488842487335,309.44896721839905,309.4519395828247,309.46719002723694,309.6094720363617,309.6094720363617,309.6094720363617,309.6094720363617,309.6094720363617,309.6094720363617,309.6094720363617,311.6788794994354,2,2.197467088699341,None,,,,,,,,,,,,,,,,,,52,4,2025-02-19_14h09.29.454,comp,2024.2.4,57.75456502012451,2025-02-19 14h09.38.577358 -0500,
109,109,0,filler_random,None,None,None,None,None,None,None,None,None,None,2,1.610121726989746,None,,,,,0,0,0,0,0,109,109,139,311.6947031021118,,,,,,,,,,,,,,,,,,,,,,,,,,,,,,,,,,,,,,,,,,,,,,,,,,,,,,,,,,,,,,,,,,,,,,,,,,,,,,,,,,116.16661339096322,68.90920800560943,195.08659202435476,114.07887802516103,87.06197826207107,175.77261149971946,2.2,2.21,-187,-260,0,270,241,254,311.68071818351746,311.6808514595032,311.684294462204,311.6947031021118,311.8471541404724,311.8471541404724,311.8471541404724,311.8471541404724,311.8471541404724,311.8471541404724,311.8471541404724,313.3190219402313,2,1.610121726989746,None,,,,,,,,,,,,,,,,,,52,4,2025-02-19_14h09.29.454,comp,2024.2.4,57.75456502012451,2025-02-19 14h09.38.577358 -0500,
110,110,0,filler_square,None,None,None,None,None,None,None,None,None,None,2,1.3517951965332031,None,,,,,0,0,0,0,0,110,110,185,313.33740973472595,,,,,,,,,,,,,,,,,,,,,,,,,,,,,,,,,,,,,,,,,,,,,,,,,,,,,,,,,,,,,,,,,,,,,,,,,,,,,,,,,,73.1741535405842,76.42496140882783,88.97496525102929,88.97496525102929,68.12062334913075,57.83325215633781,1.0,1.2,-179,11,0,16,169,2,313.3210391998291,313.3211762905121,313.32423067092896,313.33740973472595,313.4779586791992,313.4779586791992,313.4779586791992,313.4779586791992,313.4779586791992,313.4779586791992,313.4779586791992,314.6927959918976,2,1.3517951965332031,None,,,,,,,,,,,,,,,,,,52,4,2025-02-19_14h09.29.454,comp,2024.2.4,57.75456502012451,2025-02-19 14h09.38.577358 -0500,
111,111,0,filler_square,None,None,None,None,None,None,None,None,None,None,3,1.5397632122039795,None,,,,,0,0,0,0,0,111,111,205,314.7095420360565,,,,,,,,,,,,,,,,,,,,,,,,,,,,,,,,,,,,,,,,,,,,,,,,,,,,,,,,,,,,,,,,,,,,,,,,,,,,,,,,,,57.758439166507046,57.04484511207693,57.00970098220636,57.967728144523626,58.20457637560876,58.20457637560876,2.2,2.21,-154,-259,0,253,154,272,314.6945915222168,314.69469833374023,314.6977231502533,314.7095420360565,314.84951424598694,314.84951424598694,314.84951424598694,314.84951424598694,314.84951424598694,314.84951424598694,314.84951424598694,316.26630425453186,3,1.5397632122039795,None,,,,,,,,,,,,,,,,,,52,4,2025-02-19_14h09.29.454,comp,2024.2.4,57.75456502012451,2025-02-19 14h09.38.577358 -0500,
112,112,0,filler_square,None,None,None,None,None,None,None,None,None,None,3,1.612771987915039,None,,,,,0,0,0,0,0,112,112,199,316.28391218185425,,,,,,,,,,,,,,,,,,,,,,,,,,,,,,,,,,,,,,,,,,,,,,,,,,,,,,,,,,,,,,,,,,,,,,,,,,,,,,,,,,58.96446520320237,63.281040275853094,57.79872846304718,64.14272353614255,66.73689439117787,66.73689439117787,3.0,3.2,-160,-265,0,-9,161,289,316.26818656921387,316.26826763153076,316.2712457180023,316.28391218185425,316.4284198284149,316.4284198284149,316.4284198284149,316.4284198284149,316.4284198284149,316.4284198284149,316.4284198284149,317.91442680358887,3,1.612771987915039,None,,,,,,,,,,,,,,,,,,52,4,2025-02-19_14h09.29.454,comp,2024.2.4,57.75456502012451,2025-02-19 14h09.38.577358 -0500,
113,113,0,critical,hwd,35.0,2.1,lower,133.0,57.0,57.0,133.0,70.0,70.0,1,4.838318347930908,None,,,,,0,0,0,0,0,113,113,40,317.93034410476685,,,,,,,,,,,,,,,,,,,,,,,,,,,,,,,,,,,,,,,,,,,,,,,,,,,,,,,,,,,,,,,,,,,,,,,,,,,,,,,,,,133.0,57.0,57.0,133.0,70.0,70.0,2.1,2.11,-191,287,0,283,198,-283,317.9161021709442,317.9161846637726,317.9201021194458,317.93034410476685,318.0797529220581,318.0797529220581,318.0797529220581,318.0797529220581,318.0797529220581,318.0797529220581,318.0797529220581,322.7841238975525,1,4.838318347930908,None,,,,,,,,,,,,,,,,,,52,4,2025-02-19_14h09.29.454,comp,2024.2.4,57.75456502012451,2025-02-19 14h09.38.577358 -0500,
114,114,0,critical,hdw,35.0,4.0,upper,200.0,125.0,127.0,127.0,125.0,200.0,3,1.6326963901519775,None,,,,,0,0,0,0,0,114,114,113,322.8000268936157,,,,,,,,,,,,,,,,,,,,,,,,,,,,,,,,,,,,,,,,,,,,,,,,,,,,,,,,,,,,,,,,,,,,,,,,,,,,,,,,,,200.0,125.0,127.0,127.0,125.0,200.0,4.0,4.2,-222,-20,0,-276,260,-14,322.78572368621826,322.785804271698,322.78974437713623,322.8000268936157,322.94983673095703,322.94983673095703,322.94983673095703,322.94983673095703,322.94983673095703,322.94983673095703,322.94983673095703,324.4370746612549,3,1.6326963901519775,None,,,,,,,,,,,,,,,,,,52,4,2025-02-19_14h09.29.454,comp,2024.2.4,57.75456502012451,2025-02-19 14h09.38.577358 -0500,
115,115,0,catch,None,None,None,None,None,None,None,None,None,None,1,1.3453667163848877,None,,,,,0,0,0,0,0,115,115,123,324.4552311897278,,,,,,,,,,,,,,,,,,,,,,,,,,,,,,,,,,,,,,,,,,,,,,,,,,,,,,,,,,,,,,,,,,,,,,,,,,,,,,,,,,185,140,101,89,59,131,3.0,3.2,-210,-287,0,16,206,275,324.43899846076965,324.43908071517944,324.442040681839,324.4552311897278,324.59747838974,324.59747838974,324.59747838974,324.59747838974,324.59747838974,324.59747838974,324.59747838974,325.8156940937042,1,1.3453667163848877,None,,,,,,,,,,,,,,,,,,52,4,2025-02-19_14h09.29.454,comp,2024.2.4,57.75456502012451,2025-02-19 14h09.38.577358 -0500,
116,116,0,filler_square,None,None,None,None,None,None,None,None,None,None,3,1.177293062210083,None,,,,,0,0,0,0,0,116,116,203,325.8321475982666,,,,,,,,,,,,,,,,,,,,,,,,,,,,,,,,,,,,,,,,,,,,,,,,,,,,,,,,,,,,,,,,,,,,,,,,,,,,,,,,,,79.7535781514335,73.48970553512551,78.7382802183175,68.39572343661763,96.17348332598658,96.17348332598658,4.0,4.2,-167,-6,0,-286,178,19,325.8176462650299,325.8177855014801,325.82185792922974,325.8321475982666,325.98219990730286,325.98219990730286,325.98219990730286,325.98219990730286,325.98219990730286,325.98219990730286,325.98219990730286,327.0152690410614,3,1.177293062210083,None,,,,,,,,,,,,,,,,,,52,4,2025-02-19_14h09.29.454,comp,2024.2.4,57.75456502012451,2025-02-19 14h09.38.577358 -0500,
117,117,0,filler_square,None,None,None,None,None,None,None,None,None,None,1,1.6585748195648193,None,,,,,0,0,0,0,0,117,117,200,327.03004813194275,,,,,,,,,,,,,,,,,,,,,,,,,,,,,,,,,,,,,,,,,,,,,,,,,,,,,,,,,,,,,,,,,,,,,,,,,,,,,,,,,,191.84790021657895,191.84790021657895,142.79376545645982,148.48713143595774,82.46425024078378,97.05361929895673,2.2,2.21,-266,-258,0,285,219,253,327.0170843601227,327.017165184021,327.0201692581177,327.03004813194275,327.18025279045105,327.18025279045105,327.18025279045105,327.18025279045105,327.18025279045105,327.18025279045105,327.18025279045105,328.7083899974823,1,1.6585748195648193,None,,,,,,,,,,,,,,,,,,52,4,2025-02-19_14h09.29.454,comp,2024.2.4,57.75456502012451,2025-02-19 14h09.38.577358 -0500,
118,118,0,filler_random,None,None,None,None,None,None,None,None,None,None,3,3.322899103164673,None,,,,,0,0,0,0,0,118,118,151,328.7264406681061,,,,,,,,,,,,,,,,,,,,,,,,,,,,,,,,,,,,,,,,,,,,,,,,,,,,,,,,,,,,,,,,,,,,,,,,,,,,,,,,,,123.26820777026322,102.07270529227745,121.63514346104053,118.75214636812892,164.21902269888758,83.20450444033688,1.0,1.3,274,-285,480,-261,677,-276,328.71015548706055,328.71028447151184,328.7135887145996,328.7264406681061,328.86633110046387,328.86633110046387,328.86633110046387,328.86633110046387,328.86633110046387,328.86633110046387,328.86633110046387,332.05749344825745,3,3.322899103164673,None,,,,,,,,,,,,,,,,,,52,4,2025-02-19_14h09.29.454,comp,2024.2.4,57.75456502012451,2025-02-19 14h09.38.577358 -0500,
119,119,0,critical,whd,20.0,1.0,lower,57.0,133.0,133.0,57.0,78.0,78.0,2,2.588298797607422,None,,,,,0,0,0,0,0,119,119,90,332.07696986198425,,,,,,,,,,,,,,,,,,,,,,,,,,,,,,,,,,,,,,,,,,,,,,,,,,,,,,,,,,,,,,,,,,,,,,,,,,,,,,,,,,57.0,133.0,133.0,57.0,78.0,78.0,1.0,1.3,289,-273,480,-257,644,-259,332.05907583236694,332.0591502189636,332.06240677833557,332.07696986198425,332.2167179584503,332.2167179584503,332.2167179584503,332.2167179584503,332.2167179584503,332.2167179584503,332.2167179584503,334.6732449531555,2,2.588298797607422,None,,,,,,,,,,,,,,,,,,52,4,2025-02-19_14h09.29.454,comp,2024.2.4,57.75456502012451,2025-02-19 14h09.38.577358 -0500,
120,120,0,critical,whd,35.0,2.1,upper,125.0,200.0,200.0,125.0,127.0,127.0,1,1.3049800395965576,None,,,,,0,0,0,0,0,120,120,37,334.68871307373047,,,,,,,,,,,,,,,,,,,,,,,,,,,,,,,,,,,,,,,,,,,,,,,,,,,,,,,,,,,,,,,,,,,,,,,,,,,,,,,,,,125.0,200.0,200.0,125.0,127.0,127.0,2.1,2.12,-258,-269,0,-257,222,279,334.67484068870544,334.67492055892944,334.67793107032776,334.68871307373047,334.8334515094757,334.8334515094757,334.8334515094757,334.8334515094757,334.8334515094757,334.8334515094757,334.8334515094757,336.0002830028534,1,1.3049800395965576,None,,,,,,,,,,,,,,,,,,52,4,2025-02-19_14h09.29.454,comp,2024.2.4,57.75456502012451,2025-02-19 14h09.38.577358 -0500,
121,121,0,critical,hdw,35.0,2.1,upper,200.0,125.0,127.0,127.0,125.0,200.0,1,0.7680306434631348,None,,,,,0,0,0,0,0,121,121,45,336.0165481567383,,,,,,,,,,,,,,,,,,,,,,,,,,,,,,,,,,,,,,,,,,,,,,,,,,,,,,,,,,,,,,,,,,,,,,,,,,,,,,,,,,200.0,125.0,127.0,127.0,125.0,200.0,2.1,2.12,-222,-288,0,-270,260,281,336.0017902851105,336.001868724823,336.00501251220703,336.0165481567383,336.1678125858307,336.1678125858307,336.1678125858307,336.1678125858307,336.1678125858307,336.1678125858307,336.1678125858307,336.8044421672821,1,0.7680306434631348,None,,,,,,,,,,,,,,,,,,52,4,2025-02-19_14h09.29.454,comp,2024.2.4,57.75456502012451,2025-02-19 14h09.38.577358 -0500,
122,122,0,critical,hwd,35.0,4.0,lower,133.0,57.0,57.0,133.0,70.0,70.0,1,3.682774066925049,None,,,,,0,0,0,0,0,122,122,100,336.82181787490845,,,,,,,,,,,,,,,,,,,,,,,,,,,,,,,,,,,,,,,,,,,,,,,,,,,,,,,,,,,,,,,,,,,,,,,,,,,,,,,,,,133.0,57.0,57.0,133.0,70.0,70.0,4.0,4.1,-191,-262,0,-18,198,-250,336.8060784339905,336.80615973472595,336.8093411922455,336.82181787490845,336.96789145469666,336.96789145469666,336.96789145469666,336.96789145469666,336.96789145469666,336.96789145469666,336.96789145469666,340.51820182800293,1,3.682774066925049,None,,,,,,,,,,,,,,,,,,52,4,2025-02-19_14h09.29.454,comp,2024.2.4,57.75456502012451,2025-02-19 14h09.38.577358 -0500,
123,123,0,catch,None,None,None,None,None,None,None,None,None,None,3,2.340184211730957,None,,,,,0,0,0,0,0,123,123,121,340.5324776172638,,,,,,,,,,,,,,,,,,,,,,,,,,,,,,,,,,,,,,,,,,,,,,,,,,,,,,,,,,,,,,,,,,,,,,,,,,,,,,,,,,59,131,87,103,192,133,2.2,2.22,-213,279,0,-252,214,-251,340.5200912952423,340.5201668739319,340.5234224796295,340.5324776172638,340.6867105960846,340.6867105960846,340.6867105960846,340.6867105960846,340.6867105960846,340.6867105960846,340.6867105960846,342.88659858703613,3,2.340184211730957,None,,,,,,,,,,,,,,,,,,52,4,2025-02-19_14h09.29.454,comp,2024.2.4,57.75456502012451,2025-02-19 14h09.38.577358 -0500,
124,124,0,critical,hwd,20.0,2.1,lower,133.0,57.0,57.0,133.0,78.0,78.0,1,1.9229702949523926,None,,,,,0,0,0,0,0,124,124,42,342.90214443206787,,,,,,,,,,,,,,,,,,,,,,,,,,,,,,,,,,,,,,,,,,,,,,,,,,,,,,,,,,,,,,,,,,,,,,,,,,,,,,,,,,133.0,57.0,57.0,133.0,78.0,78.0,2.1,2.12,-191,-258,0,-264,202,264,342.8882694244385,342.88834834098816,342.8919162750244,342.90214443206787,343.0509920120239,343.0509920120239,343.0509920120239,343.0509920120239,343.0509920120239,343.0509920120239,343.0509920120239,344.8279798030853,1,1.9229702949523926,None,,,,,,,,,,,,,,,,,,52,4,2025-02-19_14h09.29.454,comp,2024.2.4,57.75456502012451,2025-02-19 14h09.38.577358 -0500,
125,125,0,filler_square,None,None,None,None,None,None,None,None,None,None,3,1.7003445625305176,None,,,,,0,0,0,0,0,125,125,196,344.84434509277344,,,,,,,,,,,,,,,,,,,,,,,,,,,,,,,,,,,,,,,,,,,,,,,,,,,,,,,,,,,,,,,,,,,,,,,,,,,,,,,,,,62.6432153046453,78.66719476723759,66.73496290940851,70.70334608275414,79.85355127956197,79.85355127956197,4.0,4.1,-171,-283,0,-18,171,-286,344.82978081703186,344.8298602104187,344.83276772499084,344.84434509277344,344.99144291877747,344.99144291877747,344.99144291877747,344.99144291877747,344.99144291877747,344.99144291877747,344.99144291877747,346.5490598678589,3,1.7003445625305176,None,,,,,,,,,,,,,,,,,,52,4,2025-02-19_14h09.29.454,comp,2024.2.4,57.75456502012451,2025-02-19 14h09.38.577358 -0500,
126,126,0,critical,wdh,20.0,2.1,lower,57.0,133.0,78.0,78.0,133.0,57.0,3,3.3379287719726562,None,,,,,0,0,0,0,0,126,126,34,346.5672359466553,,,,,,,,,,,,,,,,,,,,,,,,,,,,,,,,,,,,,,,,,,,,,,,,,,,,,,,,,,,,,,,,,,,,,,,,,,,,,,,,,,57.0,133.0,78.0,78.0,133.0,57.0,2.1,2.11,-202,273,0,278,164,-271,346.5507068634033,346.5507872104645,346.5541250705719,346.5672359466553,346.7012679576874,346.7012679576874,346.7012679576874,346.7012679576874,346.7012679576874,346.7012679576874,346.7012679576874,349.9110496044159,3,3.3379287719726562,None,,,,,,,,,,,,,,,,,,52,4,2025-02-19_14h09.29.454,comp,2024.2.4,57.75456502012451,2025-02-19 14h09.38.577358 -0500,
127,127,0,critical,hdw,20.0,2.1,upper,200.0,125.0,141.0,141.0,125.0,200.0,1,2.583639144897461,None,,,,,0,0,0,0,0,127,127,23,349.92955255508423,,,,,,,,,,,,,,,,,,,,,,,,,,,,,,,,,,,,,,,,,,,,,,,,,,,,,,,,,,,,,,,,,,,,,,,,,,,,,,,,,,200.0,125.0,141.0,141.0,125.0,200.0,2.1,2.11,-229,281,0,276,266,-267,349.9125940799713,349.91269755363464,349.91566586494446,349.92955255508423,350.073691368103,350.073691368103,350.073691368103,350.073691368103,350.073691368103,350.073691368103,350.073691368103,352.52983498573303,1,2.583639144897461,None,,,,,,,,,,,,,,,,,,52,4,2025-02-19_14h09.29.454,comp,2024.2.4,57.75456502012451,2025-02-19 14h09.38.577358 -0500,
128,128,0,filler_random,None,None,None,None,None,None,None,None,None,None,3,1.6874501705169678,None,,,,,0,0,0,0,0,128,128,136,352.5462694168091,,,,,,,,,,,,,,,,,,,,,,,,,,,,,,,,,,,,,,,,,,,,,,,,,,,,,,,,,,,,,,,,,,,,,,,,,,,,,,,,,,64.98386873794381,134.32971664039223,153.81142920933283,70.69806248615299,136.7258609664313,151.6478617057328,2.2,2.21,-199,-274,0,270,207,277,352.53164649009705,352.5317733287811,352.53499579429626,352.5462694168091,352.68812012672424,352.68812012672424,352.68812012672424,352.68812012672424,352.68812012672424,352.68812012672424,352.68812012672424,354.23939323425293,3,1.6874501705169678,None,,,,,,,,,,,,,,,,,,52,4,2025-02-19_14h09.29.454,comp,2024.2.4,57.75456502012451,2025-02-19 14h09.38.577358 -0500,
129,129,0,filler_square,None,None,None,None,None,None,None,None,None,None,3,1.5284879207611084,None,,,,,0,0,0,0,0,129,129,175,354.2561435699463,,,,,,,,,,,,,,,,,,,,,,,,,,,,,,,,,,,,,,,,,,,,,,,,,,,,,,,,,,,,,,,,,,,,,,,,,,,,,,,,,,62.61492116657216,57.934401698343585,58.97539093043925,61.967205796267976,78.25284780988078,78.25284780988078,4.0,4.1,-156,-250,0,-1,166,-269,354.24121475219727,354.2412962913513,354.2443883419037,354.2561435699463,354.4055395126343,354.4055395126343,354.4055395126343,354.4055395126343,354.4055395126343,354.4055395126343,354.4055395126343,355.7979950904846,3,1.5284879207611084,None,,,,,,,,,,,,,,,,,,52,4,2025-02-19_14h09.29.454,comp,2024.2.4,57.75456502012451,2025-02-19 14h09.38.577358 -0500,
130,130,0,critical,wdh,20.0,1.0,lower,57.0,133.0,78.0,78.0,133.0,57.0,3,1.8743476867675781,None,,,,,0,0,0,0,0,130,130,78,355.81447887420654,,,,,,,,,,,,,,,,,,,,,,,,,,,,,,,,,,,,,,,,,,,,,,,,,,,,,,,,,,,,,,,,,,,,,,,,,,,,,,,,,,57.0,133.0,78.0,78.0,133.0,57.0,1.0,1.1,-682,260,-480,278,-316,252,355.79969215393066,355.7998278141022,355.8032832145691,355.81447887420654,355.9558503627777,355.9558503627777,355.9558503627777,355.9558503627777,355.9558503627777,355.9558503627777,355.9558503627777,357.7102098464966,3,1.8743476867675781,None,,,,,,,,,,,,,,,,,,52,4,2025-02-19_14h09.29.454,comp,2024.2.4,57.75456502012451,2025-02-19 14h09.38.577358 -0500,
131,131,0,critical,dwh,35.0,2.1,upper,127.0,127.0,125.0,200.0,200.0,125.0,2,1.6620721817016602,None,,,,,0,0,0,0,0,131,131,5,357.7307708263397,,,,,,,,,,,,,,,,,,,,,,,,,,,,,,,,,,,,,,,,,,,,,,,,,,,,,,,,,,,,,,,,,,,,,,,,,,,,,,,,,,127.0,127.0,125.0,200.0,200.0,125.0,2.1,2.11,-260,261,0,257,258,-259,357.7119228839874,357.7120432853699,357.7155818939209,357.7307708263397,357.87466955184937,357.87466955184937,357.87466955184937,357.87466955184937,357.87466955184937,357.87466955184937,357.87466955184937,359.40767884254456,2,1.6620721817016602,None,,,,,,,,,,,,,,,,,,52,4,2025-02-19_14h09.29.454,comp,2024.2.4,57.75456502012451,2025-02-19 14h09.38.577358 -0500,
132,132,0,critical,wdh,35.0,1.0,upper,125.0,200.0,127.0,127.0,200.0,125.0,3,2.040750026702881,None,,,,,0,0,0,0,0,132,132,73,359.4237904548645,,,,,,,,,,,,,,,,,,,,,,,,,,,,,,,,,,,,,,,,,,,,,,,,,,,,,,,,,,,,,,,,,,,,,,,,,,,,,,,,,,125.0,200.0,127.0,127.0,200.0,125.0,1.0,1.3,220,-270,480,-253,702,-278,359.4092175960541,359.4092950820923,359.412522315979,359.4237904548645,359.5639297962189,359.5639297962189,359.5639297962189,359.5639297962189,359.5639297962189,359.5639297962189,359.5639297962189,361.4804072380066,3,2.040750026702881,None,,,,,,,,,,,,,,,,,,52,4,2025-02-19_14h09.29.454,comp,2024.2.4,57.75456502012451,2025-02-19 14h09.38.577358 -0500,
133,133,0,critical,dhw,35.0,2.1,lower,70.0,70.0,133.0,57.0,57.0,133.0,2,1.4870264530181885,None,,,,,0,0,0,0,0,133,133,24,361.5000419616699,,,,,,,,,,,,,,,,,,,,,,,,,,,,,,,,,,,,,,,,,,,,,,,,,,,,,,,,,,,,,,,,,,,,,,,,,,,,,,,,,,70.0,70.0,133.0,57.0,57.0,133.0,2.1,2.11,-160,274,0,269,191,-251,361.4819803237915,361.48205518722534,361.48496675491333,361.5000419616699,361.6428894996643,361.6428894996643,361.6428894996643,361.6428894996643,361.6428894996643,361.6428894996643,361.6428894996643,362.9921565055847,2,1.4870264530181885,None,,,,,,,,,,,,,,,,,,52,4,2025-02-19_14h09.29.454,comp,2024.2.4,57.75456502012451,2025-02-19 14h09.38.577358 -0500,
134,134,0,critical,dhw,35.0,1.0,lower,70.0,70.0,133.0,57.0,57.0,133.0,2,1.6761889457702637,None,,,,,0,0,0,0,0,134,134,48,363.01243686676025,,,,,,,,,,,,,,,,,,,,,,,,,,,,,,,,,,,,,,,,,,,,,,,,,,,,,,,,,,,,,,,,,,,,,,,,,,,,,,,,,,70.0,70.0,133.0,57.0,57.0,133.0,1.0,1.3,320,-282,480,-268,671,-257,362.9937222003937,362.9937992095947,362.99709391593933,363.01243686676025,363.159526348114,363.159526348114,363.159526348114,363.159526348114,363.159526348114,363.159526348114,363.159526348114,364.7037537097931,2,1.6761889457702637,None,,,,,,,,,,,,,,,,,,52,4,2025-02-19_14h09.29.454,comp,2024.2.4,57.75456502012451,2025-02-19 14h09.38.577358 -0500,
135,135,0,critical,wdh,20.0,2.1,lower,57.0,133.0,78.0,78.0,133.0,57.0,3,1.607530117034912,None,,,,,0,0,0,0,0,135,135,10,364.72149419784546,,,,,,,,,,,,,,,,,,,,,,,,,,,,,,,,,,,,,,,,,,,,,,,,,,,,,,,,,,,,,,,,,,,,,,,,,,,,,,,,,,57.0,133.0,78.0,78.0,133.0,57.0,2.1,2.12,-202,-285,0,-285,164,283,364.7053711414337,364.7054500579834,364.7087926864624,364.72149419784546,364.8598532676697,364.8598532676697,364.8598532676697,364.8598532676697,364.8598532676697,364.8598532676697,364.8598532676697,366.3310978412628,3,1.607530117034912,None,,,,,,,,,,,,,,,,,,52,4,2025-02-19_14h09.29.454,comp,2024.2.4,57.75456502012451,2025-02-19 14h09.38.577358 -0500,
136,136,0,critical,wdh,20.0,3.0,upper,125.0,200.0,141.0,141.0,200.0,125.0,1,2.2496321201324463,None,,,,,0,0,0,0,0,136,136,81,366.3510456085205,,,,,,,,,,,,,,,,,,,,,,,,,,,,,,,,,,,,,,,,,,,,,,,,,,,,,,,,,,,,,,,,,,,,,,,,,,,,,,,,,,125.0,200.0,141.0,141.0,200.0,125.0,3.0,3.2,-266,-271,0,-7,229,252,366.332640171051,366.33273458480835,366.3360753059387,366.3510456085205,366.49498891830444,366.49498891830444,366.49498891830444,366.49498891830444,366.49498891830444,366.49498891830444,366.49498891830444,368.6123151779175,1,2.2496321201324463,None,,,,,,,,,,,,,,,,,,52,4,2025-02-19_14h09.29.454,comp,2024.2.4,57.75456502012451,2025-02-19 14h09.38.577358 -0500,
137,137,0,critical,dhw,20.0,3.0,upper,141.0,141.0,200.0,125.0,125.0,200.0,3,2.4670608043670654,None,,,,,0,0,0,0,0,137,137,57,368.629714012146,,,,,,,,,,,,,,,,,,,,,,,,,,,,,,,,,,,,,,,,,,,,,,,,,,,,,,,,,,,,,,,,,,,,,,,,,,,,,,,,,,141.0,141.0,200.0,125.0,125.0,200.0,3.0,3.1,-229,251,0,-1,258,-289,368.61400079727173,368.614137172699,368.6180317401886,368.629714012146,368.7790105342865,368.7790105342865,368.7790105342865,368.7790105342865,368.7790105342865,368.7790105342865,368.7790105342865,371.1120433807373,3,2.4670608043670654,None,,,,,,,,,,,,,,,,,,52,4,2025-02-19_14h09.29.454,comp,2024.2.4,57.75456502012451,2025-02-19 14h09.38.577358 -0500,
138,138,0,critical,whd,35.0,2.1,lower,57.0,133.0,133.0,57.0,70.0,70.0,2,2.961296796798706,None,,,,,0,0,0,0,0,138,138,12,371.12798595428467,,,,,,,,,,,,,,,,,,,,,,,,,,,,,,,,,,,,,,,,,,,,,,,,,,,,,,,,,,,,,,,,,,,,,,,,,,,,,,,,,,57.0,133.0,133.0,57.0,70.0,70.0,2.1,2.11,-191,262,0,280,160,-254,371.1135628223419,371.11367559432983,371.11727929115295,371.12798595428467,371.266813993454,371.266813993454,371.266813993454,371.266813993454,371.266813993454,371.266813993454,371.266813993454,374.09678769111633,2,2.961296796798706,None,,,,,,,,,,,,,,,,,,52,4,2025-02-19_14h09.29.454,comp,2024.2.4,57.75456502012451,2025-02-19 14h09.38.577358 -0500,
139,139,0,critical,whd,35.0,4.0,upper,125.0,200.0,200.0,125.0,127.0,127.0,2,1.2395529747009277,None,,,,,0,0,0,0,0,139,139,89,374.1130814552307,,,,,,,,,,,,,,,,,,,,,,,,,,,,,,,,,,,,,,,,,,,,,,,,,,,,,,,,,,,,,,,,,,,,,,,,,,,,,,,,,,125.0,200.0,200.0,125.0,127.0,127.0,4.0,4.2,-258,-16,0,-260,222,20,374.09842586517334,374.09855246543884,374.10207748413086,374.1130814552307,374.2696828842163,374.2696828842163,374.2696828842163,374.2696828842163,374.2696828842163,374.2696828842163,374.2696828842163,375.3625764846802,2,1.2395529747009277,None,,,,,,,,,,,,,,,,,,52,4,2025-02-19_14h09.29.454,comp,2024.2.4,57.75456502012451,2025-02-19 14h09.38.577358 -0500,
