thisN,thisTrialN,thisRepN,effect,order,distance,config,diag,h_1,w_1,h_2,w_2,h_3,w_3,rect_choice.keys,rect_choice.rt,rect_choice.duration,instructions_loop.thisRepN,instructions_loop.thisTrialN,instructions_loop.thisN,instructions_loop.thisIndex,blocks.thisRepN,blocks.thisTrialN,blocks.thisN,blocks.thisIndex,trials.thisRepN,trials.thisTrialN,trials.thisN,trials.thisIndex,thisRow.t,notes,consent.started,agree_button.started,decline_button.started,consent_img.started,mouse.started,consent.stopped,agree_button.numClicks,agree_button.timesOn,agree_button.timesOff,decline_button.numClicks,decline_button.timesOn,decline_button.timesOff,mouse.x,mouse.y,mouse.leftButton,mouse.midButton,mouse.rightButton,mouse.time,mouse.clicked_name,exp_params.started,exp_params.stopped,welcome.started,welcome_text.started,welcome.stopped,instructions_1.started,instructions_1_text_1.started,instructions_1_text_2.started,key_resp.started,instructions_1.stopped,instructions_loop.key_resp.keys,instructions_loop.key_resp.rt,instructions_loop.key_resp.duration,instructions_2.started,instructions_2_text_1.started,instructions_2_text_2.started,key_resp_2.started,instructions_2.stopped,instructions_loop.key_resp_2.keys,instructions_loop.key_resp_2.rt,instructions_loop.key_resp_2.duration,instructions_3.started,instructions_3_text_1.started,r1_instr3.started,r2_instr3.started,r3_instr3.started,r1_instr3_label.started,r2_instr3_label.started,r3_instr3_label.started,instructions_3_text_3.started,instructions_3_text_4.started,key_resp_3.started,instructions_3.stopped,instructions_loop.key_resp_3.keys,instructions_loop.key_resp_3.rt,instructions_loop.key_resp_3.duration,instructions_4.started,instructions_4_text_1.started,instructions_4_text_3.started,instructions_4_text_2.started,key_resp_4.started,instructions_4.stopped,instructions_loop.key_resp_4.keys,instructions_loop.key_resp_4.rt,instructions_loop.key_resp_4.duration,instructions_5.started,instructions_5_text_1.started,instructions_5_text_2.started,key_resp_5.started,instructions_5.stopped,instructions_loop.key_resp_5.keys,instructions_loop.key_resp_5.rt,instructions_loop.key_resp_5.duration,start_exp.started,start_exp_text.started,key_resp_6.started,start_exp.stopped,key_resp_6.keys,key_resp_6.rt,key_resp_6.duration,h_1_tmp,w_1_tmp,h_2_tmp,w_2_tmp,h_3_tmp,w_3_tmp,config_tmp,config_tmp_1,r_1_x,r_1_y,r_2_x,r_2_y,r_3_x,r_3_y,pre_trial.started,pre_trial.stopped,choice_trial.started,rect_choice.started,r_1.started,r_2.started,r_3.started,r_1_label.started,r_2_label.started,r_3_label.started,prompt.started,choice_trial.stopped,trials.rect_choice.keys,trials.rect_choice.rt,trials.rect_choice.duration,end_block.started,end_block_text.started,end_block.stopped,end.started,end_text.started,key_resp_7.started,end.stopped,key_resp_7.keys,key_resp_7.rt,key_resp_7.duration,debriefing.started,debrief_form.started,end_debrief.started,debriefing.stopped,end_debrief.keys,end_debrief.rt,end_debrief.duration,participant,computer,date,expName,psychopyVersion,frameRate,expStart,
,,,,,,,,,,,,,,,,,,,,,,,,,,,,,,,0.016760587692260742,0.04293632507324219,0.04293632507324219,0.04293632507324219,0.016181230545043945,5.128280401229858,1,[5.084074020385742],[5.084085702896118],0,,,[-59.0],[-499.0],[1],[0],[0],[5.110811471939087],['agree_button'],,,,,,,,,,,,,,,,,,,,,,,,,,,,,,,,,,,,,,,,,,,,,,,,,,,,,,,,,,,,,,,,,,,,,,,,,,,,,,,,,,,,,,,,,,,,,,,,,,,,,,,,,,,53,5,2025-02-19_14h09.22.357,comp,2024.2.4,60.18749470850499,2025-02-19 14h09.30.553126 -0500,
,,,,,,,,,,,,,,,,,,,,,,,,,,,,,,,,,,,,,,,,,,,,,,,,,,5.128745079040527,5.128783226013184,,,,,,,,,,,,,,,,,,,,,,,,,,,,,,,,,,,,,,,,,,,,,,,,,,,,,,,,,,,,,,,,,,,,,,,,,,,,,,,,,,,,,,,,,,,,,,,,,,,,,,,,,53,5,2025-02-19_14h09.22.357,comp,2024.2.4,60.18749470850499,2025-02-19 14h09.30.553126 -0500,
,,,,,,,,,,,,,,,,,,,,,,,,,,,,,,,,,,,,,,,,,,,,,,,,,,,,5.1288065910339355,5.142070770263672,7.1381800174713135,,,,,,,,,,,,,,,,,,,,,,,,,,,,,,,,,,,,,,,,,,,,,,,,,,,,,,,,,,,,,,,,,,,,,,,,,,,,,,,,,,,,,,,,,,,,,,,,,,,,,,53,5,2025-02-19_14h09.22.357,comp,2024.2.4,60.18749470850499,2025-02-19 14h09.30.553126 -0500,
0,0,0,,,,,,,,,,,,,,,0,0,0,0,,,,,,,,,7.1549155712127686,,,,,,,,,,,,,,,,,,,,,,,,,,7.1387245655059814,7.1549155712127686,7.1549155712127686,8.637391328811646,10.855731010437012,space,2.2111406326293945,None,10.855822086334229,10.871595621109009,10.871595621109009,12.371432781219482,14.17202115058899,space,1.787973403930664,None,14.172105312347412,14.193809270858765,14.193809270858765,14.193809270858765,14.193809270858765,14.193809270858765,14.193809270858765,14.193809270858765,14.193809270858765,14.193809270858765,15.671257495880127,17.605730295181274,space,1.9207146167755127,None,17.605813026428223,17.620991468429565,17.620991468429565,17.620991468429565,19.120908737182617,20.722053289413452,space,1.5915296077728271,None,20.722140312194824,20.73780870437622,20.73780870437622,22.2207932472229,23.071825742721558,space,0.8346848487854004,None,23.071934700012207,23.08747696876526,23.08747696876526,23.92171025276184,space,0.8248400688171387,None,,,,,,,,,,,,,,,,,,,,,,,,,,,,,,,,,,,,,,,,,,,,,,,53,5,2025-02-19_14h09.22.357,comp,2024.2.4,60.18749470850499,2025-02-19 14h09.30.553126 -0500,
0,0,0,filler_random,None,None,None,None,None,None,None,None,None,None,2,2.411843776702881,None,,,,,0,0,0,0,0,0,0,143,23.9803307056427,,,,,,,,,,,,,,,,,,,,,,,,,,,,,,,,,,,,,,,,,,,,,,,,,,,,,,,,,,,,,,,,,,,,,,,,,,,,,,,,,169.0822011334522,116.19616669132046,152.2240056412938,181.41484702077116,135.1255668624442,174.22836584881352,1.0,1.2,-245,-5,0,0,274,14,23.966536283493042,23.96658229827881,23.968564748764038,23.9803307056427,24.127886533737183,24.127886533737183,24.127886533737183,24.127886533737183,24.127886533737183,24.127886533737183,24.127886533737183,26.405505657196045,2,2.411843776702881,None,,,,,,,,,,,,,,,,,,53,5,2025-02-19_14h09.22.357,comp,2024.2.4,60.18749470850499,2025-02-19 14h09.30.553126 -0500,
1,1,0,critical,hdw,35.0,2.1,upper,200.0,125.0,127.0,127.0,125.0,200.0,3,2.043614625930786,None,,,,,0,0,0,0,0,1,1,45,26.420679330825806,,,,,,,,,,,,,,,,,,,,,,,,,,,,,,,,,,,,,,,,,,,,,,,,,,,,,,,,,,,,,,,,,,,,,,,,,,,,,,,,,200.0,125.0,127.0,127.0,125.0,200.0,2.1,2.11,-222,280,0,287,260,-282,26.4062979221344,26.406352519989014,26.40836787223816,26.420679330825806,26.571001052856445,26.571001052856445,26.571001052856445,26.571001052856445,26.571001052856445,26.571001052856445,26.571001052856445,28.47209906578064,3,2.043614625930786,None,,,,,,,,,,,,,,,,,,53,5,2025-02-19_14h09.22.357,comp,2024.2.4,60.18749470850499,2025-02-19 14h09.30.553126 -0500,
2,2,0,critical,wdh,20.0,1.0,lower,57.0,133.0,78.0,78.0,133.0,57.0,2,1.833414077758789,None,,,,,0,0,0,0,0,2,2,78,28.4875705242157,,,,,,,,,,,,,,,,,,,,,,,,,,,,,,,,,,,,,,,,,,,,,,,,,,,,,,,,,,,,,,,,,,,,,,,,,,,,,,,,,57.0,133.0,78.0,78.0,133.0,57.0,1.0,1.2,-202,-15,0,-18,164,2,28.47289252281189,28.472934007644653,28.475589752197266,28.4875705242157,28.637613773345947,28.637613773345947,28.637613773345947,28.637613773345947,28.637613773345947,28.637613773345947,28.637613773345947,30.32215118408203,2,1.833414077758789,None,,,,,,,,,,,,,,,,,,53,5,2025-02-19_14h09.22.357,comp,2024.2.4,60.18749470850499,2025-02-19 14h09.30.553126 -0500,
3,3,0,critical,dhw,20.0,1.0,upper,141.0,141.0,200.0,125.0,125.0,200.0,3,1.3338122367858887,None,,,,,0,0,0,0,0,3,3,55,30.337511777877808,,,,,,,,,,,,,,,,,,,,,,,,,,,,,,,,,,,,,,,,,,,,,,,,,,,,,,,,,,,,,,,,,,,,,,,,,,,,,,,,,141.0,141.0,200.0,125.0,125.0,200.0,1.0,1.1,-709,251,-480,253,-222,286,30.322925329208374,30.32296586036682,30.324904918670654,30.337511777877808,30.487580060958862,30.487580060958862,30.487580060958862,30.487580060958862,30.487580060958862,30.487580060958862,30.487580060958862,31.672613382339478,3,1.3338122367858887,None,,,,,,,,,,,,,,,,,,53,5,2025-02-19_14h09.22.357,comp,2024.2.4,60.18749470850499,2025-02-19 14h09.30.553126 -0500,
4,4,0,critical,dwh,20.0,4.0,lower,78.0,78.0,57.0,133.0,133.0,57.0,1,2.5928590297698975,None,,,,,0,0,0,0,0,4,4,70,31.687625885009766,,,,,,,,,,,,,,,,,,,,,,,,,,,,,,,,,,,,,,,,,,,,,,,,,,,,,,,,,,,,,,,,,,,,,,,,,,,,,,,,,78.0,78.0,57.0,133.0,133.0,57.0,4.0,4.2,-202,10,0,-275,191,3,31.6735520362854,31.673595190048218,31.675920724868774,31.687625885009766,31.837520837783813,31.837520837783813,31.837520837783813,31.837520837783813,31.837520837783813,31.837520837783813,31.837520837783813,34.28845834732056,1,2.5928590297698975,None,,,,,,,,,,,,,,,,,,53,5,2025-02-19_14h09.22.357,comp,2024.2.4,60.18749470850499,2025-02-19 14h09.30.553126 -0500,
5,5,0,filler_random,None,None,None,None,None,None,None,None,None,None,2,0.9436824321746826,None,,,,,0,0,0,0,0,5,5,150,34.304484128952026,,,,,,,,,,,,,,,,,,,,,,,,,,,,,,,,,,,,,,,,,,,,,,,,,,,,,,,,,,,,,,,,,,,,,,,,,,,,,,,,,141.11118469727583,84.85486424194285,114.70313031282362,198.4259447712122,98.83373713338544,168.6067397182331,2.1,2.11,-238,265,0,254,280,-263,34.28938627243042,34.289427757263184,34.29171419143677,34.304484128952026,34.45414924621582,34.45414924621582,34.45414924621582,34.45414924621582,34.45414924621582,34.45414924621582,34.45414924621582,35.25527834892273,2,0.9436824321746826,None,,,,,,,,,,,,,,,,,,53,5,2025-02-19_14h09.22.357,comp,2024.2.4,60.18749470850499,2025-02-19 14h09.30.553126 -0500,
6,6,0,catch,None,None,None,None,None,None,None,None,None,None,1,0.883098840713501,None,,,,,0,0,0,0,0,6,6,128,35.27069354057312,,,,,,,,,,,,,,,,,,,,,,,,,,,,,,,,,,,,,,,,,,,,,,,,,,,,,,,,,,,,,,,,,,,,,,,,,,,,,,,,,190,135,123,67,113,77,2.2,2.22,-197,277,0,-268,168,-284,35.25626873970032,35.25632381439209,35.25860857963562,35.27069354057312,35.42120385169983,35.42120385169983,35.42120385169983,35.42120385169983,35.42120385169983,35.42120385169983,35.42120385169983,36.17192053794861,1,0.883098840713501,None,,,,,,,,,,,,,,,,,,53,5,2025-02-19_14h09.22.357,comp,2024.2.4,60.18749470850499,2025-02-19 14h09.30.553126 -0500,
7,7,0,critical,hdw,20.0,2.1,upper,200.0,125.0,141.0,141.0,125.0,200.0,3,1.0679798126220703,None,,,,,0,0,0,0,0,7,7,23,36.18734550476074,,,,,,,,,,,,,,,,,,,,,,,,,,,,,,,,,,,,,,,,,,,,,,,,,,,,,,,,,,,,,,,,,,,,,,,,,,,,,,,,,200.0,125.0,141.0,141.0,125.0,200.0,2.1,2.11,-229,251,0,277,266,-276,36.17274212837219,36.1727831363678,36.175288438797,36.18734550476074,36.337642669677734,36.337642669677734,36.337642669677734,36.337642669677734,36.337642669677734,36.337642669677734,36.337642669677734,37.27199602127075,3,1.0679798126220703,None,,,,,,,,,,,,,,,,,,53,5,2025-02-19_14h09.22.357,comp,2024.2.4,60.18749470850499,2025-02-19 14h09.30.553126 -0500,
8,8,0,critical,dwh,35.0,4.0,upper,127.0,127.0,125.0,200.0,200.0,125.0,2,1.0559980869293213,None,,,,,0,0,0,0,0,8,8,65,37.28727412223816,,,,,,,,,,,,,,,,,,,,,,,,,,,,,,,,,,,,,,,,,,,,,,,,,,,,,,,,,,,,,,,,,,,,,,,,,,,,,,,,,127.0,127.0,125.0,200.0,200.0,125.0,4.0,4.1,-260,-274,0,-9,258,-266,37.27284240722656,37.272883892059326,37.27492666244507,37.28727412223816,37.437530279159546,37.437530279159546,37.437530279159546,37.437530279159546,37.437530279159546,37.437530279159546,37.437530279159546,38.35531282424927,2,1.0559980869293213,None,,,,,,,,,,,,,,,,,,53,5,2025-02-19_14h09.22.357,comp,2024.2.4,60.18749470850499,2025-02-19 14h09.30.553126 -0500,
9,9,0,critical,hdw,20.0,3.0,lower,133.0,57.0,78.0,78.0,57.0,133.0,1,1.4848182201385498,None,,,,,0,0,0,0,0,9,9,116,38.370582580566406,,,,,,,,,,,,,,,,,,,,,,,,,,,,,,,,,,,,,,,,,,,,,,,,,,,,,,,,,,,,,,,,,,,,,,,,,,,,,,,,,133.0,57.0,78.0,78.0,57.0,133.0,3.0,3.2,-164,-289,0,12,202,287,38.35610008239746,38.356141805648804,38.358171463012695,38.370582580566406,38.520824909210205,38.520824909210205,38.520824909210205,38.520824909210205,38.520824909210205,38.520824909210205,38.520824909210205,39.871716022491455,1,1.4848182201385498,None,,,,,,,,,,,,,,,,,,53,5,2025-02-19_14h09.22.357,comp,2024.2.4,60.18749470850499,2025-02-19 14h09.30.553126 -0500,
10,10,0,critical,dhw,35.0,4.0,lower,70.0,70.0,133.0,57.0,57.0,133.0,3,1.400463581085205,None,,,,,0,0,0,0,0,10,10,52,39.88716721534729,,,,,,,,,,,,,,,,,,,,,,,,,,,,,,,,,,,,,,,,,,,,,,,,,,,,,,,,,,,,,,,,,,,,,,,,,,,,,,,,,70.0,70.0,133.0,57.0,57.0,133.0,4.0,4.1,-160,-285,0,-11,191,-267,39.872501373291016,39.87253999710083,39.874884605407715,39.88716721534729,40.03732872009277,40.03732872009277,40.03732872009277,40.03732872009277,40.03732872009277,40.03732872009277,40.03732872009277,41.30508518218994,3,1.400463581085205,None,,,,,,,,,,,,,,,,,,53,5,2025-02-19_14h09.22.357,comp,2024.2.4,60.18749470850499,2025-02-19 14h09.30.553126 -0500,
11,11,0,filler_random,None,None,None,None,None,None,None,None,None,None,1,1.1596553325653076,None,,,,,0,0,0,0,0,11,11,164,41.3205771446228,,,,,,,,,,,,,,,,,,,,,,,,,,,,,,,,,,,,,,,,,,,,,,,,,,,,,,,,,,,,,,,,,,,,,,,,,,,,,,,,,109.97752150128206,163.23497728461626,119.7194456850639,79.53468829538916,155.7602751432886,90.74863666528553,2.1,2.12,-217,-266,0,-286,181,272,41.305992603302,41.3060348033905,41.308127880096436,41.3205771446228,41.47080326080322,41.47080326080322,41.47080326080322,41.47080326080322,41.47080326080322,41.47080326080322,41.47080326080322,42.48860049247742,1,1.1596553325653076,None,,,,,,,,,,,,,,,,,,53,5,2025-02-19_14h09.22.357,comp,2024.2.4,60.18749470850499,2025-02-19 14h09.30.553126 -0500,
12,12,0,critical,whd,35.0,2.1,upper,125.0,200.0,200.0,125.0,127.0,127.0,1,2.0085065364837646,None,,,,,0,0,0,0,0,12,12,13,42.50407528877258,,,,,,,,,,,,,,,,,,,,,,,,,,,,,,,,,,,,,,,,,,,,,,,,,,,,,,,,,,,,,,,,,,,,,,,,,,,,,,,,,125.0,200.0,200.0,125.0,127.0,127.0,2.1,2.12,-258,-265,0,-261,222,261,42.489439725875854,42.48948073387146,42.49195837974548,42.50407528877258,42.654234886169434,42.654234886169434,42.654234886169434,42.654234886169434,42.654234886169434,42.654234886169434,42.654234886169434,44.522013425827026,1,2.0085065364837646,None,,,,,,,,,,,,,,,,,,53,5,2025-02-19_14h09.22.357,comp,2024.2.4,60.18749470850499,2025-02-19 14h09.30.553126 -0500,
13,13,0,catch,None,None,None,None,None,None,None,None,None,None,3,1.111029863357544,None,,,,,0,0,0,0,0,13,13,126,44.53736448287964,,,,,,,,,,,,,,,,,,,,,,,,,,,,,,,,,,,,,,,,,,,,,,,,,,,,,,,,,,,,,,,,,,,,,,,,,,,,,,,,,59,131,116,74,196,129,2.1,2.11,-198,280,0,275,198,-279,44.52306604385376,44.523108959198,44.525625705718994,44.53736448287964,44.687419176101685,44.687419176101685,44.687419176101685,44.687419176101685,44.687419176101685,44.687419176101685,44.687419176101685,45.65536451339722,3,1.111029863357544,None,,,,,,,,,,,,,,,,,,53,5,2025-02-19_14h09.22.357,comp,2024.2.4,60.18749470850499,2025-02-19 14h09.30.553126 -0500,
14,14,0,critical,wdh,35.0,1.0,upper,125.0,200.0,127.0,127.0,200.0,125.0,1,0.9933376312255859,None,,,,,0,0,0,0,0,14,14,73,45.670809268951416,,,,,,,,,,,,,,,,,,,,,,,,,,,,,,,,,,,,,,,,,,,,,,,,,,,,,,,,,,,,,,,,,,,,,,,,,,,,,,,,,125.0,200.0,127.0,127.0,200.0,125.0,1.0,1.3,220,-285,480,-274,702,-266,45.65615272521973,45.65619707107544,45.65827655792236,45.670809268951416,45.8207573890686,45.8207573890686,45.8207573890686,45.8207573890686,45.8207573890686,45.8207573890686,45.8207573890686,46.671900510787964,1,0.9933376312255859,None,,,,,,,,,,,,,,,,,,53,5,2025-02-19_14h09.22.357,comp,2024.2.4,60.18749470850499,2025-02-19 14h09.30.553126 -0500,
15,15,0,critical,hwd,35.0,2.1,upper,200.0,125.0,125.0,200.0,127.0,127.0,2,1.8249132633209229,None,,,,,0,0,0,0,0,15,15,17,46.687400102615356,,,,,,,,,,,,,,,,,,,,,,,,,,,,,,,,,,,,,,,,,,,,,,,,,,,,,,,,,,,,,,,,,,,,,,,,,,,,,,,,,200.0,125.0,125.0,200.0,127.0,127.0,2.1,2.12,-258,-272,0,-279,260,280,46.67271900177002,46.672759771347046,46.67510986328125,46.687400102615356,46.83753180503845,46.83753180503845,46.83753180503845,46.83753180503845,46.83753180503845,46.83753180503845,46.83753180503845,48.52197289466858,2,1.8249132633209229,None,,,,,,,,,,,,,,,,,,53,5,2025-02-19_14h09.22.357,comp,2024.2.4,60.18749470850499,2025-02-19 14h09.30.553126 -0500,
16,16,0,critical,wdh,35.0,3.0,lower,57.0,133.0,70.0,70.0,133.0,57.0,1,1.4167895317077637,None,,,,,0,0,0,0,0,16,16,74,48.53740978240967,,,,,,,,,,,,,,,,,,,,,,,,,,,,,,,,,,,,,,,,,,,,,,,,,,,,,,,,,,,,,,,,,,,,,,,,,,,,,,,,,57.0,133.0,70.0,70.0,133.0,57.0,3.0,3.1,-198,264,0,17,160,-266,48.522784948349,48.52282643318176,48.525203227996826,48.53740978240967,48.687206506729126,48.687206506729126,48.687206506729126,48.687206506729126,48.687206506729126,48.687206506729126,48.687206506729126,49.9554705619812,1,1.4167895317077637,None,,,,,,,,,,,,,,,,,,53,5,2025-02-19_14h09.22.357,comp,2024.2.4,60.18749470850499,2025-02-19 14h09.30.553126 -0500,
17,17,0,critical,hwd,20.0,1.0,upper,200.0,125.0,125.0,200.0,141.0,141.0,2,1.6613154411315918,None,,,,,0,0,0,0,0,17,17,103,49.97073245048523,,,,,,,,,,,,,,,,,,,,,,,,,,,,,,,,,,,,,,,,,,,,,,,,,,,,,,,,,,,,,,,,,,,,,,,,,,,,,,,,,200.0,125.0,125.0,200.0,141.0,141.0,1.0,1.2,-258,-15,0,-16,266,-10,49.9562611579895,49.956316232681274,49.95907974243164,49.97073245048523,50.12088966369629,50.12088966369629,50.12088966369629,50.12088966369629,50.12088966369629,50.12088966369629,50.12088966369629,51.638582944869995,2,1.6613154411315918,None,,,,,,,,,,,,,,,,,,53,5,2025-02-19_14h09.22.357,comp,2024.2.4,60.18749470850499,2025-02-19 14h09.30.553126 -0500,
18,18,0,critical,dhw,20.0,2.1,upper,141.0,141.0,200.0,125.0,125.0,200.0,3,1.2741036415100098,None,,,,,0,0,0,0,0,18,18,3,51.65398383140564,,,,,,,,,,,,,,,,,,,,,,,,,,,,,,,,,,,,,,,,,,,,,,,,,,,,,,,,,,,,,,,,,,,,,,,,,,,,,,,,,141.0,141.0,200.0,125.0,125.0,200.0,2.1,2.11,-229,264,0,263,258,-279,51.6394989490509,51.63953900337219,51.641952991485596,51.65398383140564,51.80409526824951,51.80409526824951,51.80409526824951,51.80409526824951,51.80409526824951,51.80409526824951,51.80409526824951,52.9385986328125,3,1.2741036415100098,None,,,,,,,,,,,,,,,,,,53,5,2025-02-19_14h09.22.357,comp,2024.2.4,60.18749470850499,2025-02-19 14h09.30.553126 -0500,
19,19,0,filler_random,None,None,None,None,None,None,None,None,None,None,2,1.0312936305999756,None,,,,,0,0,0,0,0,19,19,162,52.95417523384094,,,,,,,,,,,,,,,,,,,,,,,,,,,,,,,,,,,,,,,,,,,,,,,,,,,,,,,,,,,,,,,,,,,,,,,,,,,,,,,,,197.2212403861712,65.92654672525032,195.53217907908356,125.60839026975975,58.24259320660421,57.487323188018905,1.0,1.3,288,-283,480,-271,668,-283,52.93951892852783,52.93956136703491,52.941932916641235,52.95417523384094,53.104005575180054,53.104005575180054,53.104005575180054,53.104005575180054,53.104005575180054,53.104005575180054,53.104005575180054,53.98851704597473,2,1.0312936305999756,None,,,,,,,,,,,,,,,,,,53,5,2025-02-19_14h09.22.357,comp,2024.2.4,60.18749470850499,2025-02-19 14h09.30.553126 -0500,
20,20,0,critical,hwd,35.0,3.0,upper,200.0,125.0,125.0,200.0,127.0,127.0,2,0.8671095371246338,None,,,,,0,0,0,0,0,20,20,99,54.00421190261841,,,,,,,,,,,,,,,,,,,,,,,,,,,,,,,,,,,,,,,,,,,,,,,,,,,,,,,,,,,,,,,,,,,,,,,,,,,,,,,,,200.0,125.0,125.0,200.0,127.0,127.0,3.0,3.2,-258,-251,0,10,260,254,53.98929262161255,53.9893479347229,53.991384744644165,54.00421190261841,54.15407609939575,54.15407609939575,54.15407609939575,54.15407609939575,54.15407609939575,54.15407609939575,54.15407609939575,54.88853478431702,2,0.8671095371246338,None,,,,,,,,,,,,,,,,,,53,5,2025-02-19_14h09.22.357,comp,2024.2.4,60.18749470850499,2025-02-19 14h09.30.553126 -0500,
21,21,0,filler_square,None,None,None,None,None,None,None,None,None,None,2,1.0247440338134766,None,,,,,0,0,0,0,0,21,21,183,54.90385675430298,,,,,,,,,,,,,,,,,,,,,,,,,,,,,,,,,,,,,,,,,,,,,,,,,,,,,,,,,,,,,,,,,,,,,,,,,,,,,,,,,81.32592218273221,101.57299497709411,122.46931904600866,122.46931904600866,66.04830676619333,108.15383225230576,2.1,2.12,-208,-265,0,-283,211,265,54.88951301574707,54.889554023742676,54.89184355735779,54.90385675430298,55.05398464202881,55.05398464202881,55.05398464202881,55.05398464202881,55.05398464202881,55.05398464202881,55.05398464202881,55.938295125961304,2,1.0247440338134766,None,,,,,,,,,,,,,,,,,,53,5,2025-02-19_14h09.22.357,comp,2024.2.4,60.18749470850499,2025-02-19 14h09.30.553126 -0500,
22,22,0,critical,dhw,35.0,3.0,upper,127.0,127.0,200.0,125.0,125.0,200.0,3,1.2213094234466553,None,,,,,0,0,0,0,0,22,22,51,55.95397901535034,,,,,,,,,,,,,,,,,,,,,,,,,,,,,,,,,,,,,,,,,,,,,,,,,,,,,,,,,,,,,,,,,,,,,,,,,,,,,,,,,127.0,127.0,200.0,125.0,125.0,200.0,3.0,3.2,-222,-272,0,-9,258,283,55.939096212387085,55.939136266708374,55.941155195236206,55.95397901535034,56.10407495498657,56.10407495498657,56.10407495498657,56.10407495498657,56.10407495498657,56.10407495498657,56.10407495498657,57.18850636482239,3,1.2213094234466553,None,,,,,,,,,,,,,,,,,,53,5,2025-02-19_14h09.22.357,comp,2024.2.4,60.18749470850499,2025-02-19 14h09.30.553126 -0500,
23,23,0,critical,hdw,20.0,3.0,upper,200.0,125.0,141.0,141.0,125.0,200.0,3,1.4516088962554932,None,,,,,0,0,0,0,0,23,23,117,57.203760862350464,,,,,,,,,,,,,,,,,,,,,,,,,,,,,,,,,,,,,,,,,,,,,,,,,,,,,,,,,,,,,,,,,,,,,,,,,,,,,,,,,200.0,125.0,141.0,141.0,125.0,200.0,3.0,3.1,-229,250,0,2,266,-281,57.18929100036621,57.189345836639404,57.191635608673096,57.203760862350464,57.354071617126465,57.354071617126465,57.354071617126465,57.354071617126465,57.354071617126465,57.354071617126465,57.354071617126465,58.67192578315735,3,1.4516088962554932,None,,,,,,,,,,,,,,,,,,53,5,2025-02-19_14h09.22.357,comp,2024.2.4,60.18749470850499,2025-02-19 14h09.30.553126 -0500,
24,24,0,filler_square,None,None,None,None,None,None,None,None,None,None,2,0.8720965385437012,None,,,,,0,0,0,0,0,24,24,194,58.68701481819153,,,,,,,,,,,,,,,,,,,,,,,,,,,,,,,,,,,,,,,,,,,,,,,,,,,,,,,,,,,,,,,,,,,,,,,,,,,,,,,,,101.20310044385351,104.14885222069253,117.50059569190674,117.50059569190674,98.32487706588698,73.98760684782079,3.0,3.1,-207,281,0,-18,192,-264,58.67286777496338,58.672908306121826,58.67525315284729,58.68701481819153,58.83733630180359,58.83733630180359,58.83733630180359,58.83733630180359,58.83733630180359,58.83733630180359,58.83733630180359,59.5717453956604,2,0.8720965385437012,None,,,,,,,,,,,,,,,,,,53,5,2025-02-19_14h09.22.357,comp,2024.2.4,60.18749470850499,2025-02-19 14h09.30.553126 -0500,
25,25,0,critical,hwd,20.0,2.1,lower,133.0,57.0,57.0,133.0,78.0,78.0,1,1.4770636558532715,None,,,,,0,0,0,0,0,25,25,42,59.587078332901,,,,,,,,,,,,,,,,,,,,,,,,,,,,,,,,,,,,,,,,,,,,,,,,,,,,,,,,,,,,,,,,,,,,,,,,,,,,,,,,,133.0,57.0,57.0,133.0,78.0,78.0,2.1,2.12,-191,-260,0,-279,202,283,59.572537899017334,59.572577714920044,59.5749077796936,59.587078332901,59.73722767829895,59.73722767829895,59.73722767829895,59.73722767829895,59.73722767829895,59.73722767829895,59.73722767829895,61.071643114089966,1,1.4770636558532715,None,,,,,,,,,,,,,,,,,,53,5,2025-02-19_14h09.22.357,comp,2024.2.4,60.18749470850499,2025-02-19 14h09.30.553126 -0500,
26,26,0,critical,dhw,35.0,4.0,upper,127.0,127.0,200.0,125.0,125.0,200.0,3,1.2983498573303223,None,,,,,0,0,0,0,0,26,26,53,61.08741068840027,,,,,,,,,,,,,,,,,,,,,,,,,,,,,,,,,,,,,,,,,,,,,,,,,,,,,,,,,,,,,,,,,,,,,,,,,,,,,,,,,127.0,127.0,200.0,125.0,125.0,200.0,4.0,4.2,-222,-17,0,-262,258,19,61.072444915771484,61.07248497009277,61.07481932640076,61.08741068840027,61.237489461898804,61.237489461898804,61.237489461898804,61.237489461898804,61.237489461898804,61.237489461898804,61.237489461898804,62.38859724998474,3,1.2983498573303223,None,,,,,,,,,,,,,,,,,,53,5,2025-02-19_14h09.22.357,comp,2024.2.4,60.18749470850499,2025-02-19 14h09.30.553126 -0500,
27,27,0,critical,dwh,35.0,2.1,upper,127.0,127.0,125.0,200.0,200.0,125.0,2,1.1246240139007568,None,,,,,0,0,0,0,0,27,27,29,62.40394330024719,,,,,,,,,,,,,,,,,,,,,,,,,,,,,,,,,,,,,,,,,,,,,,,,,,,,,,,,,,,,,,,,,,,,,,,,,,,,,,,,,127.0,127.0,125.0,200.0,200.0,125.0,2.1,2.11,-260,255,0,272,258,-250,62.38950252532959,62.38954305648804,62.39189863204956,62.40394330024719,62.554078102111816,62.554078102111816,62.554078102111816,62.554078102111816,62.554078102111816,62.554078102111816,62.554078102111816,63.53847694396973,2,1.1246240139007568,None,,,,,,,,,,,,,,,,,,53,5,2025-02-19_14h09.22.357,comp,2024.2.4,60.18749470850499,2025-02-19 14h09.30.553126 -0500,
28,28,0,filler_random,None,None,None,None,None,None,None,None,None,None,3,1.5890507698059082,None,,,,,0,0,0,0,0,28,28,163,63.55413031578064,,,,,,,,,,,,,,,,,,,,,,,,,,,,,,,,,,,,,,,,,,,,,,,,,,,,,,,,,,,,,,,,,,,,,,,,,,,,,,,,,115.80382507593183,124.896306742395,157.57864992444922,142.3846369413386,157.69104974638532,148.09198997169264,3.0,3.1,-230,276,0,-15,241,-267,63.53936958312988,63.53941226005554,63.5414674282074,63.55413031578064,63.70406532287598,63.70406532287598,63.70406532287598,63.70406532287598,63.70406532287598,63.70406532287598,63.70406532287598,65.1552484035492,3,1.5890507698059082,None,,,,,,,,,,,,,,,,,,53,5,2025-02-19_14h09.22.357,comp,2024.2.4,60.18749470850499,2025-02-19 14h09.30.553126 -0500,
29,29,0,filler_random,None,None,None,None,None,None,None,None,None,None,1,0.9255683422088623,None,,,,,0,0,0,0,0,29,29,160,65.1703622341156,,,,,,,,,,,,,,,,,,,,,,,,,,,,,,,,,,,,,,,,,,,,,,,,,,,,,,,,,,,,,,,,,,,,,,,,,,,,,,,,,195.08252997680728,194.42446732731247,108.23745722392965,101.07531990663901,113.99865849407942,167.15230518243513,2.1,2.12,-244,-287,0,-267,230,267,65.15617513656616,65.15621709823608,65.158451795578,65.1703622341156,65.3207015991211,65.3207015991211,65.3207015991211,65.3207015991211,65.3207015991211,65.3207015991211,65.3207015991211,66.105220079422,1,0.9255683422088623,None,,,,,,,,,,,,,,,,,,53,5,2025-02-19_14h09.22.357,comp,2024.2.4,60.18749470850499,2025-02-19 14h09.30.553126 -0500,
30,30,0,filler_random,None,None,None,None,None,None,None,None,None,None,1,1.279766321182251,None,,,,,0,0,0,0,0,30,30,149,66.12065529823303,,,,,,,,,,,,,,,,,,,,,,,,,,,,,,,,,,,,,,,,,,,,,,,,,,,,,,,,,,,,,,,,,,,,,,,,,,,,,,,,,97.1237114529061,198.1052629169093,74.11193859745902,110.3392807064321,150.0681687359624,75.95601062029507,3.0,3.1,-250,267,0,-9,189,-279,66.10617637634277,66.10621857643127,66.10859799385071,66.12065529823303,66.27058386802673,66.27058386802673,66.27058386802673,66.27058386802673,66.27058386802673,66.27058386802673,66.27058386802673,67.40514326095581,1,1.279766321182251,None,,,,,,,,,,,,,,,,,,53,5,2025-02-19_14h09.22.357,comp,2024.2.4,60.18749470850499,2025-02-19 14h09.30.553126 -0500,
31,31,0,critical,whd,20.0,2.1,lower,57.0,133.0,133.0,57.0,78.0,78.0,2,2.259498119354248,None,,,,,0,0,0,0,0,31,31,14,67.42059421539307,,,,,,,,,,,,,,,,,,,,,,,,,,,,,,,,,,,,,,,,,,,,,,,,,,,,,,,,,,,,,,,,,,,,,,,,,,,,,,,,,57.0,133.0,133.0,57.0,78.0,78.0,2.1,2.11,-191,267,0,274,164,-265,67.40591359138489,67.40595316886902,67.4083878993988,67.42059421539307,67.58745980262756,67.58745980262756,67.58745980262756,67.58745980262756,67.58745980262756,67.58745980262756,67.58745980262756,69.6882860660553,2,2.259498119354248,None,,,,,,,,,,,,,,,,,,53,5,2025-02-19_14h09.22.357,comp,2024.2.4,60.18749470850499,2025-02-19 14h09.30.553126 -0500,
32,32,0,critical,hdw,20.0,1.0,upper,200.0,125.0,141.0,141.0,125.0,200.0,3,2.7760398387908936,None,,,,,0,0,0,0,0,32,32,115,69.70389199256897,,,,,,,,,,,,,,,,,,,,,,,,,,,,,,,,,,,,,,,,,,,,,,,,,,,,,,,,,,,,,,,,,,,,,,,,,,,,,,,,,200.0,125.0,141.0,141.0,125.0,200.0,1.0,1.3,251,-272,480,-269,746,-287,69.68907713890076,69.68911623954773,69.69121408462524,69.70389199256897,69.85396313667297,69.85396313667297,69.85396313667297,69.85396313667297,69.85396313667297,69.85396313667297,69.85396313667297,72.4885241985321,3,2.7760398387908936,None,,,,,,,,,,,,,,,,,,53,5,2025-02-19_14h09.22.357,comp,2024.2.4,60.18749470850499,2025-02-19 14h09.30.553126 -0500,
33,33,0,filler_square,None,None,None,None,None,None,None,None,None,None,1,1.167053461074829,None,,,,,0,0,0,0,0,33,33,171,72.50405740737915,,,,,,,,,,,,,,,,,,,,,,,,,,,,,,,,,,,,,,,,,,,,,,,,,,,,,,,,,,,,,,,,,,,,,,,,,,,,,,,,,161.42342242921444,161.42342242921444,89.7765343861645,77.22076543399947,123.16003653906861,141.21315377473536,1.0,1.1,-695,288,-480,260,-275,266,72.48948001861572,72.48952317237854,72.4919023513794,72.50405740737915,72.6538622379303,72.6538622379303,72.6538622379303,72.6538622379303,72.6538622379303,72.6538622379303,72.6538622379303,73.68817949295044,1,1.167053461074829,None,,,,,,,,,,,,,,,,,,53,5,2025-02-19_14h09.22.357,comp,2024.2.4,60.18749470850499,2025-02-19 14h09.30.553126 -0500,
34,34,0,catch,None,None,None,None,None,None,None,None,None,None,2,0.9514944553375244,None,,,,,0,0,0,0,0,34,34,127,73.70366311073303,,,,,,,,,,,,,,,,,,,,,,,,,,,,,,,,,,,,,,,,,,,,,,,,,,,,,,,,,,,,,,,,,,,,,,,,,,,,,,,,,97,93,191,134,98,92,2.1,2.12,-210,-260,0,-258,209,260,73.68924927711487,73.68929076194763,73.69182443618774,73.70366311073303,73.85396194458008,73.85396194458008,73.85396194458008,73.85396194458008,73.85396194458008,73.85396194458008,73.85396194458008,74.67168736457825,2,0.9514944553375244,None,,,,,,,,,,,,,,,,,,53,5,2025-02-19_14h09.22.357,comp,2024.2.4,60.18749470850499,2025-02-19 14h09.30.553126 -0500,
35,35,0,filler_random,None,None,None,None,None,None,None,None,None,None,2,0.7608864307403564,None,,,,,0,0,0,0,0,35,35,156,74.6870858669281,,,,,,,,,,,,,,,,,,,,,,,,,,,,,,,,,,,,,,,,,,,,,,,,,,,,,,,,,,,,,,,,,,,,,,,,,,,,,,,,,166.87630230167792,83.54959616030474,119.13943615937289,197.13936511184926,74.51209573147162,91.23776981259182,3.0,3.1,-236,288,0,-2,240,-253,74.6726553440094,74.67269539833069,74.67580556869507,74.6870858669281,74.83729290962219,74.83729290962219,74.83729290962219,74.83729290962219,74.83729290962219,74.83729290962219,74.83729290962219,75.45497703552246,2,0.7608864307403564,None,,,,,,,,,,,,,,,,,,53,5,2025-02-19_14h09.22.357,comp,2024.2.4,60.18749470850499,2025-02-19 14h09.30.553126 -0500,
36,36,0,critical,whd,35.0,3.0,lower,57.0,133.0,133.0,57.0,70.0,70.0,2,1.4254746437072754,None,,,,,0,0,0,0,0,36,36,86,75.47039318084717,,,,,,,,,,,,,,,,,,,,,,,,,,,,,,,,,,,,,,,,,,,,,,,,,,,,,,,,,,,,,,,,,,,,,,,,,,,,,,,,,57.0,133.0,133.0,57.0,70.0,70.0,3.0,3.2,-191,-274,0,12,160,280,75.45577192306519,75.45581316947937,75.45786738395691,75.47039318084717,75.62054514884949,75.62054514884949,75.62054514884949,75.62054514884949,75.62054514884949,75.62054514884949,75.62054514884949,76.90484571456909,2,1.4254746437072754,None,,,,,,,,,,,,,,,,,,53,5,2025-02-19_14h09.22.357,comp,2024.2.4,60.18749470850499,2025-02-19 14h09.30.553126 -0500,
37,37,0,filler_random,None,None,None,None,None,None,None,None,None,None,1,1.6866796016693115,None,,,,,0,0,0,0,0,37,37,155,76.92047452926636,,,,,,,,,,,,,,,,,,,,,,,,,,,,,,,,,,,,,,,,,,,,,,,,,,,,,,,,,,,,,,,,,,,,,,,,,,,,,,,,,134.8438231049172,194.8465296159827,186.8766301490132,138.17033653528142,104.51029523756766,135.08973498572544,1.0,1.2,-263,-17,0,16,233,6,76.90574026107788,76.90578150749207,76.90818810462952,76.92047452926636,77.07067942619324,77.07067942619324,77.07067942619324,77.07067942619324,77.07067942619324,77.07067942619324,77.07067942619324,78.62181973457336,1,1.6866796016693115,None,,,,,,,,,,,,,,,,,,53,5,2025-02-19_14h09.22.357,comp,2024.2.4,60.18749470850499,2025-02-19 14h09.30.553126 -0500,
38,38,0,filler_square,None,None,None,None,None,None,None,None,None,None,3,0.9548687934875488,None,,,,,0,0,0,0,0,38,38,190,78.63699913024902,,,,,,,,,,,,,,,,,,,,,,,,,,,,,,,,,,,,,,,,,,,,,,,,,,,,,,,,,,,,,,,,,,,,,,,,,,,,,,,,,62.54539475665056,61.47629549529934,73.4831455631367,59.25537651372064,76.97645266345576,76.97645266345576,2.1,2.11,-156,288,0,273,164,-271,78.62282299995422,78.62286472320557,78.62523436546326,78.63699913024902,78.78702282905579,78.78702282905579,78.78702282905579,78.78702282905579,78.78702282905579,78.78702282905579,78.78702282905579,79.6051299571991,3,0.9548687934875488,None,,,,,,,,,,,,,,,,,,53,5,2025-02-19_14h09.22.357,comp,2024.2.4,60.18749470850499,2025-02-19 14h09.30.553126 -0500,
39,39,0,critical,dhw,20.0,2.1,lower,78.0,78.0,133.0,57.0,57.0,133.0,3,1.7548954486846924,None,,,,,0,0,0,0,0,39,39,26,79.62025117874146,,,,,,,,,,,,,,,,,,,,,,,,,,,,,,,,,,,,,,,,,,,,,,,,,,,,,,,,,,,,,,,,,,,,,,,,,,,,,,,,,78.0,78.0,133.0,57.0,57.0,133.0,2.1,2.11,-164,256,0,270,191,-260,79.60604882240295,79.60609030723572,79.60819864273071,79.62025117874146,79.77036619186401,79.77036619186401,79.77036619186401,79.77036619186401,79.77036619186401,79.77036619186401,79.77036619186401,81.38826251029968,3,1.7548954486846924,None,,,,,,,,,,,,,,,,,,53,5,2025-02-19_14h09.22.357,comp,2024.2.4,60.18749470850499,2025-02-19 14h09.30.553126 -0500,
40,40,0,catch,None,None,None,None,None,None,None,None,None,None,3,0.8514022827148438,None,,,,,0,0,0,0,0,40,40,129,81.40367293357849,,,,,,,,,,,,,,,,,,,,,,,,,,,,,,,,,,,,,,,,,,,,,,,,,,,,,,,,,,,,,,,,,,,,,,,,,,,,,,,,,96,94,100,90,141,184,4.0,4.2,-188,13,0,-287,233,6,81.38927841186523,81.38933110237122,81.39126896858215,81.40367293357849,81.55394840240479,81.55394840240479,81.55394840240479,81.55394840240479,81.55394840240479,81.55394840240479,81.55394840240479,82.27145075798035,3,0.8514022827148438,None,,,,,,,,,,,,,,,,,,53,5,2025-02-19_14h09.22.357,comp,2024.2.4,60.18749470850499,2025-02-19 14h09.30.553126 -0500,
41,41,0,critical,hwd,20.0,4.0,lower,133.0,57.0,57.0,133.0,78.0,78.0,2,1.1449310779571533,None,,,,,0,0,0,0,0,41,41,106,82.28684639930725,,,,,,,,,,,,,,,,,,,,,,,,,,,,,,,,,,,,,,,,,,,,,,,,,,,,,,,,,,,,,,,,,,,,,,,,,,,,,,,,,133.0,57.0,57.0,133.0,78.0,78.0,4.0,4.1,-191,-255,0,15,202,-283,82.27222990989685,82.2722704410553,82.27457976341248,82.28684639930725,82.43736219406128,82.43736219406128,82.43736219406128,82.43736219406128,82.43736219406128,82.43736219406128,82.43736219406128,83.438157081604,2,1.1449310779571533,None,,,,,,,,,,,,,,,,,,53,5,2025-02-19_14h09.22.357,comp,2024.2.4,60.18749470850499,2025-02-19 14h09.30.553126 -0500,
42,42,0,critical,wdh,20.0,2.1,upper,125.0,200.0,141.0,141.0,200.0,125.0,3,0.8837552070617676,None,,,,,0,0,0,0,0,42,42,11,83.45381665229797,,,,,,,,,,,,,,,,,,,,,,,,,,,,,,,,,,,,,,,,,,,,,,,,,,,,,,,,,,,,,,,,,,,,,,,,,,,,,,,,,125.0,200.0,141.0,141.0,200.0,125.0,2.1,2.12,-266,-284,0,-272,229,286,83.43895196914673,83.43899154663086,83.44150424003601,83.45381665229797,83.60404396057129,83.60404396057129,83.60404396057129,83.60404396057129,83.60404396057129,83.60404396057129,83.60404396057129,84.33890557289124,3,0.8837552070617676,None,,,,,,,,,,,,,,,,,,53,5,2025-02-19_14h09.22.357,comp,2024.2.4,60.18749470850499,2025-02-19 14h09.30.553126 -0500,
43,43,0,filler_random,None,None,None,None,None,None,None,None,None,None,2,1.1172115802764893,None,,,,,0,0,0,0,0,43,43,136,84.35383176803589,,,,,,,,,,,,,,,,,,,,,,,,,,,,,,,,,,,,,,,,,,,,,,,,,,,,,,,,,,,,,,,,,,,,,,,,,,,,,,,,,126.47458669308357,101.5271901866224,156.15013915850108,163.4164261439259,124.54243319177381,151.71741183465974,4.0,4.1,-228,-283,0,-13,254,-255,84.33983016014099,84.33987331390381,84.3419303894043,84.35383176803589,84.50404930114746,84.50404930114746,84.50404930114746,84.50404930114746,84.50404930114746,84.50404930114746,84.50404930114746,85.48818325996399,2,1.1172115802764893,None,,,,,,,,,,,,,,,,,,53,5,2025-02-19_14h09.22.357,comp,2024.2.4,60.18749470850499,2025-02-19 14h09.30.553126 -0500,
44,44,0,filler_random,None,None,None,None,None,None,None,None,None,None,1,1.7194337844848633,None,,,,,0,0,0,0,0,44,44,145,85.50355172157288,,,,,,,,,,,,,,,,,,,,,,,,,,,,,,,,,,,,,,,,,,,,,,,,,,,,,,,,,,,,,,,,,,,,,,,,,,,,,,,,,169.4334256108432,119.17656267696736,172.01104298987767,106.69476560042727,83.3890803435133,67.01242243886281,2.1,2.11,-209,266,0,254,183,-263,85.4890604019165,85.48909997940063,85.49101042747498,85.50355172157288,85.65373349189758,85.65373349189758,85.65373349189758,85.65373349189758,85.65373349189758,85.65373349189758,85.65373349189758,87.23821568489075,1,1.7194337844848633,None,,,,,,,,,,,,,,,,,,53,5,2025-02-19_14h09.22.357,comp,2024.2.4,60.18749470850499,2025-02-19 14h09.30.553126 -0500,
45,45,0,critical,wdh,20.0,3.0,upper,125.0,200.0,141.0,141.0,200.0,125.0,3,1.6671488285064697,None,,,,,0,0,0,0,0,45,45,81,87.2535572052002,,,,,,,,,,,,,,,,,,,,,,,,,,,,,,,,,,,,,,,,,,,,,,,,,,,,,,,,,,,,,,,,,,,,,,,,,,,,,,,,,125.0,200.0,141.0,141.0,200.0,125.0,3.0,3.1,-266,279,0,-19,229,-282,87.23900008201599,87.23904275894165,87.24102687835693,87.2535572052002,87.40384912490845,87.40384912490845,87.40384912490845,87.40384912490845,87.40384912490845,87.40384912490845,87.40384912490845,88.93861770629883,3,1.6671488285064697,None,,,,,,,,,,,,,,,,,,53,5,2025-02-19_14h09.22.357,comp,2024.2.4,60.18749470850499,2025-02-19 14h09.30.553126 -0500,
46,46,0,filler_square,None,None,None,None,None,None,None,None,None,None,1,0.8855102062225342,None,,,,,0,0,0,0,0,46,46,170,88.95363545417786,,,,,,,,,,,,,,,,,,,,,,,,,,,,,,,,,,,,,,,,,,,,,,,,,,,,,,,,,,,,,,,,,,,,,,,,,,,,,,,,,113.25937369397151,113.25937369397151,98.60922194342014,64.1408653657051,66.50020081796144,59.406796545986715,1.0,1.3,295,-264,480,-269,638,-276,88.93960547447205,88.93964767456055,88.94171500205994,88.95363545417786,89.10369443893433,89.10369443893433,89.10369443893433,89.10369443893433,89.10369443893433,89.10369443893433,89.10369443893433,89.85478687286377,1,0.8855102062225342,None,,,,,,,,,,,,,,,,,,53,5,2025-02-19_14h09.22.357,comp,2024.2.4,60.18749470850499,2025-02-19 14h09.30.553126 -0500,
47,47,0,critical,wdh,20.0,2.1,lower,57.0,133.0,78.0,78.0,133.0,57.0,2,2.3615148067474365,None,,,,,0,0,0,0,0,47,47,34,89.87021088600159,,,,,,,,,,,,,,,,,,,,,,,,,,,,,,,,,,,,,,,,,,,,,,,,,,,,,,,,,,,,,,,,,,,,,,,,,,,,,,,,,57.0,133.0,78.0,78.0,133.0,57.0,2.1,2.11,-202,254,0,279,164,-286,89.8555862903595,89.85562896728516,89.85802674293518,89.87021088600159,90.02029824256897,90.02029824256897,90.02029824256897,90.02029824256897,90.02029824256897,90.02029824256897,90.02029824256897,92.23807621002197,2,2.3615148067474365,None,,,,,,,,,,,,,,,,,,53,5,2025-02-19_14h09.22.357,comp,2024.2.4,60.18749470850499,2025-02-19 14h09.30.553126 -0500,
48,48,0,filler_square,None,None,None,None,None,None,None,None,None,None,1,1.0581812858581543,None,,,,,0,0,0,0,0,48,48,180,92.2537772655487,,,,,,,,,,,,,,,,,,,,,,,,,,,,,,,,,,,,,,,,,,,,,,,,,,,,,,,,,,,,,,,,,,,,,,,,,,,,,,,,,137.32554000547128,137.32554000547128,69.90672881019148,124.56184347989029,84.10351684847856,71.79957371993535,2.2,2.22,-227,267,0,-258,194,-280,92.23903751373291,92.2390809059143,92.24159526824951,92.2537772655487,92.40374565124512,92.40374565124512,92.40374565124512,92.40374565124512,92.40374565124512,92.40374565124512,92.40374565124512,93.3214910030365,1,1.0581812858581543,None,,,,,,,,,,,,,,,,,,53,5,2025-02-19_14h09.22.357,comp,2024.2.4,60.18749470850499,2025-02-19 14h09.30.553126 -0500,
49,49,0,critical,hdw,35.0,1.0,upper,200.0,125.0,127.0,127.0,125.0,200.0,3,1.183607816696167,None,,,,,0,0,0,0,0,49,49,109,93.3371033668518,,,,,,,,,,,,,,,,,,,,,,,,,,,,,,,,,,,,,,,,,,,,,,,,,,,,,,,,,,,,,,,,,,,,,,,,,,,,,,,,,200.0,125.0,127.0,127.0,125.0,200.0,1.0,1.2,-222,15,0,12,260,2,93.32224535942078,93.32228708267212,93.32555937767029,93.3371033668518,93.48712968826294,93.48712968826294,93.48712968826294,93.48712968826294,93.48712968826294,93.48712968826294,93.48712968826294,94.53816103935242,3,1.183607816696167,None,,,,,,,,,,,,,,,,,,53,5,2025-02-19_14h09.22.357,comp,2024.2.4,60.18749470850499,2025-02-19 14h09.30.553126 -0500,
50,50,0,filler_random,None,None,None,None,None,None,None,None,None,None,1,1.1341190338134766,None,,,,,0,0,0,0,0,50,50,133,94.55356979370117,,,,,,,,,,,,,,,,,,,,,,,,,,,,,,,,,,,,,,,,,,,,,,,,,,,,,,,,,,,,,,,,,,,,,,,,,,,,,,,,,168.48212313400117,153.43312830776492,92.64441684086049,154.42750511576142,70.23062619790144,72.4506478781617,2.1,2.12,-250,-263,0,-276,209,253,94.53907895088196,94.53911972045898,94.54167246818542,94.55356979370117,94.7036509513855,94.7036509513855,94.7036509513855,94.7036509513855,94.7036509513855,94.7036509513855,94.7036509513855,95.7048671245575,1,1.1341190338134766,None,,,,,,,,,,,,,,,,,,53,5,2025-02-19_14h09.22.357,comp,2024.2.4,60.18749470850499,2025-02-19 14h09.30.553126 -0500,
51,51,0,critical,dhw,20.0,1.0,lower,78.0,78.0,133.0,57.0,57.0,133.0,1,1.4955894947052002,None,,,,,0,0,0,0,0,51,51,54,95.72019076347351,,,,,,,,,,,,,,,,,,,,,,,,,,,,,,,,,,,,,,,,,,,,,,,,,,,,,,,,,,,,,,,,,,,,,,,,,,,,,,,,,78.0,78.0,133.0,57.0,57.0,133.0,1.0,1.3,316,-265,480,-259,671,-271,95.7056782245636,95.70571756362915,95.70812845230103,95.72019076347351,95.87021160125732,95.87021160125732,95.87021160125732,95.87021160125732,95.87021160125732,95.87021160125732,95.87021160125732,97.22146606445312,1,1.4955894947052002,None,,,,,,,,,,,,,,,,,,53,5,2025-02-19_14h09.22.357,comp,2024.2.4,60.18749470850499,2025-02-19 14h09.30.553126 -0500,
52,52,0,filler_square,None,None,None,None,None,None,None,None,None,None,2,0.7165632247924805,None,,,,,0,0,0,0,0,52,52,178,97.23700213432312,,,,,,,,,,,,,,,,,,,,,,,,,,,,,,,,,,,,,,,,,,,,,,,,,,,,,,,,,,,,,,,,,,,,,,,,,,,,,,,,,92.34598101462365,91.98408981075961,133.6521234192711,133.6521234192711,108.92012015884275,60.492907750021395,2.2,2.21,-209,-278,0,274,193,290,97.22282099723816,97.22286319732666,97.2249321937561,97.23700213432312,97.38741993904114,97.38741993904114,97.38741993904114,97.38741993904114,97.38741993904114,97.38741993904114,97.38741993904114,97.9549069404602,2,0.7165632247924805,None,,,,,,,,,,,,,,,,,,53,5,2025-02-19_14h09.22.357,comp,2024.2.4,60.18749470850499,2025-02-19 14h09.30.553126 -0500,
53,53,0,filler_random,None,None,None,None,None,None,None,None,None,None,2,0.7885141372680664,None,,,,,0,0,0,0,0,53,53,169,97.9703106880188,,,,,,,,,,,,,,,,,,,,,,,,,,,,,,,,,,,,,,,,,,,,,,,,,,,,,,,,,,,,,,,,,,,,,,,,,,,,,,,,,190.9944844671973,75.47543987589756,133.74611237478678,130.97608710455336,122.7570053956781,165.006404028678,2.2,2.21,-199,-266,0,261,244,290,97.95582294464111,97.95586323738098,97.9583261013031,97.9703106880188,98.12036967277527,98.12036967277527,98.12036967277527,98.12036967277527,98.12036967277527,98.12036967277527,98.12036967277527,98.77158713340759,2,0.7885141372680664,None,,,,,,,,,,,,,,,,,,53,5,2025-02-19_14h09.22.357,comp,2024.2.4,60.18749470850499,2025-02-19 14h09.30.553126 -0500,
54,54,0,filler_random,None,None,None,None,None,None,None,None,None,None,2,0.6768629550933838,None,,,,,0,0,0,0,0,54,54,142,98.78686881065369,,,,,,,,,,,,,,,,,,,,,,,,,,,,,,,,,,,,,,,,,,,,,,,,,,,,,,,,,,,,,,,,,,,,,,,,,,,,,,,,,96.44663253076371,107.72553738528994,175.8774247340349,150.03498010360258,114.58641316705236,88.04959355505672,2.1,2.11,-225,286,0,256,215,-271,98.77249789237976,98.77253913879395,98.77488470077515,98.78686881065369,98.93710589408875,98.93710589408875,98.93710589408875,98.93710589408875,98.93710589408875,98.93710589408875,98.93710589408875,99.47188568115234,2,0.6768629550933838,None,,,,,,,,,,,,,,,,,,53,5,2025-02-19_14h09.22.357,comp,2024.2.4,60.18749470850499,2025-02-19 14h09.30.553126 -0500,
55,55,0,critical,wdh,35.0,4.0,upper,125.0,200.0,127.0,127.0,200.0,125.0,3,1.5839083194732666,None,,,,,0,0,0,0,0,55,55,77,99.48720812797546,,,,,,,,,,,,,,,,,,,,,,,,,,,,,,,,,,,,,,,,,,,,,,,,,,,,,,,,,,,,,,,,,,,,,,,,,,,,,,,,,125.0,200.0,127.0,127.0,200.0,125.0,4.0,4.1,-260,-274,0,-4,222,-261,99.4727110862732,99.47275304794312,99.47479820251465,99.48720812797546,99.63719010353088,99.63719010353088,99.63719010353088,99.63719010353088,99.63719010353088,99.63719010353088,99.63719010353088,101.08818078041077,3,1.5839083194732666,None,,,,,,,,,,,,,,,,,,53,5,2025-02-19_14h09.22.357,comp,2024.2.4,60.18749470850499,2025-02-19 14h09.30.553126 -0500,
56,56,0,filler_random,None,None,None,None,None,None,None,None,None,None,2,0.8504536151885986,None,,,,,0,0,0,0,0,56,56,138,101.10351800918579,,,,,,,,,,,,,,,,,,,,,,,,,,,,,,,,,,,,,,,,,,,,,,,,,,,,,,,,,,,,,,,,,,,,,,,,,,,,,,,,,66.85080464676915,89.74981097006636,114.57935074353236,187.54452053859492,104.07080908940375,97.6115092309008,2.2,2.22,-235,254,0,-260,239,-281,101.08910655975342,101.0891466140747,101.09122514724731,101.10351800918579,101.25366401672363,101.25366401672363,101.25366401672363,101.25366401672363,101.25366401672363,101.25366401672363,101.25366401672363,101.97152853012085,2,0.8504536151885986,None,,,,,,,,,,,,,,,,,,53,5,2025-02-19_14h09.22.357,comp,2024.2.4,60.18749470850499,2025-02-19 14h09.30.553126 -0500,
57,57,0,filler_random,None,None,None,None,None,None,None,None,None,None,2,0.7174572944641113,None,,,,,0,0,0,0,0,57,57,159,101.98679661750793,,,,,,,,,,,,,,,,,,,,,,,,,,,,,,,,,,,,,,,,,,,,,,,,,,,,,,,,,,,,,,,,,,,,,,,,,,,,,,,,,90.82112318701598,146.9725231088537,159.633505860666,161.15399772271184,64.41706567444277,58.44183278767221,2.1,2.11,-250,251,0,287,206,-258,101.97243762016296,101.97247838973999,101.97487139701843,101.98679661750793,102.13700103759766,102.13700103759766,102.13700103759766,102.13700103759766,102.13700103759766,102.13700103759766,102.13700103759766,102.72137475013733,2,0.7174572944641113,None,,,,,,,,,,,,,,,,,,53,5,2025-02-19_14h09.22.357,comp,2024.2.4,60.18749470850499,2025-02-19 14h09.30.553126 -0500,
58,58,0,filler_random,None,None,None,None,None,None,None,None,None,None,3,0.878852367401123,None,,,,,0,0,0,0,0,58,58,165,102.73676586151123,,,,,,,,,,,,,,,,,,,,,,,,,,,,,,,,,,,,,,,,,,,,,,,,,,,,,,,,,,,,,,,,,,,,,,,,,,,,,,,,,111.9151460408663,116.20231180980144,92.15288482217208,107.0162295494279,196.20910591032128,99.99427605347076,1.0,1.1,-688,283,-480,278,-280,282,102.72227358818054,102.72233033180237,102.7246105670929,102.73676586151123,102.88699698448181,102.88699698448181,102.88699698448181,102.88699698448181,102.88699698448181,102.88699698448181,102.88699698448181,103.62145733833313,3,0.878852367401123,None,,,,,,,,,,,,,,,,,,53,5,2025-02-19_14h09.22.357,comp,2024.2.4,60.18749470850499,2025-02-19 14h09.30.553126 -0500,
59,59,0,critical,hdw,20.0,2.1,lower,133.0,57.0,78.0,78.0,57.0,133.0,1,0.8834116458892822,None,,,,,0,0,0,0,0,59,59,22,103.63697600364685,,,,,,,,,,,,,,,,,,,,,,,,,,,,,,,,,,,,,,,,,,,,,,,,,,,,,,,,,,,,,,,,,,,,,,,,,,,,,,,,,133.0,57.0,78.0,78.0,57.0,133.0,2.1,2.11,-164,262,0,273,202,-261,103.6222608089447,103.62231492996216,103.62433314323425,103.63697600364685,103.78734540939331,103.78734540939331,103.78734540939331,103.78734540939331,103.78734540939331,103.78734540939331,103.78734540939331,104.5215995311737,1,0.8834116458892822,None,,,,,,,,,,,,,,,,,,53,5,2025-02-19_14h09.22.357,comp,2024.2.4,60.18749470850499,2025-02-19 14h09.30.553126 -0500,
60,60,0,filler_random,None,None,None,None,None,None,None,None,None,None,2,0.7907187938690186,None,,,,,0,0,0,0,0,60,60,140,104.53700399398804,,,,,,,,,,,,,,,,,,,,,,,,,,,,,,,,,,,,,,,,,,,,,,,,,,,,,,,,,,,,,,,,,,,,,,,,,,,,,,,,,89.98946648945056,84.3926376472274,153.4347547676408,161.54127133009223,123.53904898968952,110.5257413569339,3.0,3.2,-219,-286,0,-17,232,282,104.52247929573059,104.5225203037262,104.52501773834229,104.53700399398804,104.68696904182434,104.68696904182434,104.68696904182434,104.68696904182434,104.68696904182434,104.68696904182434,104.68696904182434,105.33811664581299,2,0.7907187938690186,None,,,,,,,,,,,,,,,,,,53,5,2025-02-19_14h09.22.357,comp,2024.2.4,60.18749470850499,2025-02-19 14h09.30.553126 -0500,
61,61,0,critical,hwd,35.0,2.1,upper,200.0,125.0,125.0,200.0,127.0,127.0,1,0.8620126247406006,None,,,,,0,0,0,0,0,61,61,41,105.3537085056305,,,,,,,,,,,,,,,,,,,,,,,,,,,,,,,,,,,,,,,,,,,,,,,,,,,,,,,,,,,,,,,,,,,,,,,,,,,,,,,,,200.0,125.0,125.0,200.0,127.0,127.0,2.1,2.12,-258,-254,0,-268,260,261,105.33893060684204,105.33897042274475,105.34098219871521,105.3537085056305,105.50393414497375,105.50393414497375,105.50393414497375,105.50393414497375,105.50393414497375,105.50393414497375,105.50393414497375,106.22160911560059,1,0.8620126247406006,None,,,,,,,,,,,,,,,,,,53,5,2025-02-19_14h09.22.357,comp,2024.2.4,60.18749470850499,2025-02-19 14h09.30.553126 -0500,
62,62,0,filler_random,None,None,None,None,None,None,None,None,None,None,3,0.9164044857025146,None,,,,,0,0,0,0,0,62,62,137,106.23708438873291,,,,,,,,,,,,,,,,,,,,,,,,,,,,,,,,,,,,,,,,,,,,,,,,,,,,,,,,,,,,,,,,,,,,,,,,,,,,,,,,,81.47485065128276,165.30917439988383,151.9740924233993,71.88389269420168,183.3349146351091,154.4251478542887,2.1,2.11,-215,259,0,258,209,-282,106.22250699996948,106.22254800796509,106.22461342811584,106.23708438873291,106.38717722892761,106.38717722892761,106.38717722892761,106.38717722892761,106.38717722892761,106.38717722892761,106.38717722892761,107.15503001213074,3,0.9164044857025146,None,,,,,,,,,,,,,,,,,,53,5,2025-02-19_14h09.22.357,comp,2024.2.4,60.18749470850499,2025-02-19 14h09.30.553126 -0500,
63,63,0,critical,dwh,35.0,1.0,lower,70.0,70.0,57.0,133.0,133.0,57.0,2,1.3253672122955322,None,,,,,0,0,0,0,0,63,63,60,107.17025113105774,,,,,,,,,,,,,,,,,,,,,,,,,,,,,,,,,,,,,,,,,,,,,,,,,,,,,,,,,,,,,,,,,,,,,,,,,,,,,,,,,70.0,70.0,57.0,133.0,133.0,57.0,1.0,1.2,-198,-14,0,16,191,0,107.15582990646362,107.15587186813354,107.15799140930176,107.17025113105774,107.32046318054199,107.32046318054199,107.32046318054199,107.32046318054199,107.32046318054199,107.32046318054199,107.32046318054199,108.50466442108154,2,1.3253672122955322,None,,,,,,,,,,,,,,,,,,53,5,2025-02-19_14h09.22.357,comp,2024.2.4,60.18749470850499,2025-02-19 14h09.30.553126 -0500,
64,64,0,critical,wdh,35.0,1.0,lower,57.0,133.0,70.0,70.0,133.0,57.0,3,1.4705018997192383,None,,,,,0,0,0,0,0,64,64,72,108.52026009559631,,,,,,,,,,,,,,,,,,,,,,,,,,,,,,,,,,,,,,,,,,,,,,,,,,,,,,,,,,,,,,,,,,,,,,,,,,,,,,,,,57.0,133.0,70.0,70.0,133.0,57.0,1.0,1.2,-198,5,0,-8,160,20,108.50544452667236,108.50548601150513,108.50742530822754,108.52026009559631,108.67026424407959,108.67026424407959,108.67026424407959,108.67026424407959,108.67026424407959,108.67026424407959,108.67026424407959,110.00465750694275,3,1.4705018997192383,None,,,,,,,,,,,,,,,,,,53,5,2025-02-19_14h09.22.357,comp,2024.2.4,60.18749470850499,2025-02-19 14h09.30.553126 -0500,
65,65,0,critical,hwd,20.0,1.0,lower,133.0,57.0,57.0,133.0,78.0,78.0,2,1.0519320964813232,None,,,,,0,0,0,0,0,65,65,102,110.0201210975647,,,,,,,,,,,,,,,,,,,,,,,,,,,,,,,,,,,,,,,,,,,,,,,,,,,,,,,,,,,,,,,,,,,,,,,,,,,,,,,,,133.0,57.0,57.0,133.0,78.0,78.0,1.0,1.3,289,-285,480,-270,682,-286,110.00544691085815,110.00548672676086,110.00754976272583,110.0201210975647,110.17031812667847,110.17031812667847,110.17031812667847,110.17031812667847,110.17031812667847,110.17031812667847,110.17031812667847,111.08794903755188,2,1.0519320964813232,None,,,,,,,,,,,,,,,,,,53,5,2025-02-19_14h09.22.357,comp,2024.2.4,60.18749470850499,2025-02-19 14h09.30.553126 -0500,
66,66,0,filler_square,None,None,None,None,None,None,None,None,None,None,2,0.9844841957092285,None,,,,,0,0,0,0,0,66,66,208,111.10337352752686,,,,,,,,,,,,,,,,,,,,,,,,,,,,,,,,,,,,,,,,,,,,,,,,,,,,,,,,,,,,,,,,,,,,,,,,,,,,,,,,,163.57299704632567,126.19696768142406,187.16620635419517,187.16620635419517,60.410377236773094,180.65879235883733,3.0,3.2,-253,-255,0,8,280,252,111.08890986442566,111.08895111083984,111.09144830703735,111.10337352752686,111.25366282463074,111.25366282463074,111.25366282463074,111.25366282463074,111.25366282463074,111.25366282463074,111.25366282463074,112.10480427742004,2,0.9844841957092285,None,,,,,,,,,,,,,,,,,,53,5,2025-02-19_14h09.22.357,comp,2024.2.4,60.18749470850499,2025-02-19 14h09.30.553126 -0500,
67,67,0,critical,wdh,20.0,2.1,upper,125.0,200.0,141.0,141.0,200.0,125.0,3,1.8546171188354492,None,,,,,0,0,0,0,0,67,67,35,112.12024259567261,,,,,,,,,,,,,,,,,,,,,,,,,,,,,,,,,,,,,,,,,,,,,,,,,,,,,,,,,,,,,,,,,,,,,,,,,,,,,,,,,125.0,200.0,141.0,141.0,200.0,125.0,2.1,2.11,-266,288,0,286,229,-281,112.10561895370483,112.10565996170044,112.10814070701599,112.12024259567261,112.27048659324646,112.27048659324646,112.27048659324646,112.27048659324646,112.27048659324646,112.27048659324646,112.27048659324646,113.9881579875946,3,1.8546171188354492,None,,,,,,,,,,,,,,,,,,53,5,2025-02-19_14h09.22.357,comp,2024.2.4,60.18749470850499,2025-02-19 14h09.30.553126 -0500,
68,68,0,critical,whd,35.0,2.1,lower,57.0,133.0,133.0,57.0,70.0,70.0,2,0.9171342849731445,None,,,,,0,0,0,0,0,68,68,36,114.00331854820251,,,,,,,,,,,,,,,,,,,,,,,,,,,,,,,,,,,,,,,,,,,,,,,,,,,,,,,,,,,,,,,,,,,,,,,,,,,,,,,,,57.0,133.0,133.0,57.0,70.0,70.0,2.1,2.12,-191,-276,0,-288,160,288,113.98899364471436,113.98903369903564,113.99160552024841,114.00331854820251,114.15366244316101,114.15366244316101,114.15366244316101,114.15366244316101,114.15366244316101,114.15366244316101,114.15366244316101,114.93793797492981,2,0.9171342849731445,None,,,,,,,,,,,,,,,,,,53,5,2025-02-19_14h09.22.357,comp,2024.2.4,60.18749470850499,2025-02-19 14h09.30.553126 -0500,
69,69,0,critical,dwh,20.0,2.1,lower,78.0,78.0,57.0,133.0,133.0,57.0,3,1.0854921340942383,None,,,,,0,0,0,0,0,69,69,6,114.95337414741516,,,,,,,,,,,,,,,,,,,,,,,,,,,,,,,,,,,,,,,,,,,,,,,,,,,,,,,,,,,,,,,,,,,,,,,,,,,,,,,,,78.0,78.0,57.0,133.0,133.0,57.0,2.1,2.12,-202,-268,0,-273,191,277,114.93892192840576,114.93896198272705,114.94145846366882,114.95337414741516,115.10339975357056,115.10339975357056,115.10339975357056,115.10339975357056,115.10339975357056,115.10339975357056,115.10339975357056,116.05465483665466,3,1.0854921340942383,None,,,,,,,,,,,,,,,,,,53,5,2025-02-19_14h09.22.357,comp,2024.2.4,60.18749470850499,2025-02-19 14h09.30.553126 -0500,
70,70,0,catch,None,None,None,None,None,None,None,None,None,None,2,0.7454531192779541,None,,,,,0,0,0,0,0,70,70,120,116.07014894485474,,,,,,,,,,,,,,,,,,,,,,,,,,,,,,,,,,,,,,,,,,,,,,,,,,,,,,,,,,,,,,,,,,,,,,,,,,,,,,,,,76,114,181,144,67,123,3.0,3.2,-225,-253,0,-2,230,276,116.05569672584534,116.0557382106781,116.05811977386475,116.07014894485474,116.22024488449097,116.22024488449097,116.22024488449097,116.22024488449097,116.22024488449097,116.22024488449097,116.22024488449097,116.8214430809021,2,0.7454531192779541,None,,,,,,,,,,,,,,,,,,53,5,2025-02-19_14h09.22.357,comp,2024.2.4,60.18749470850499,2025-02-19 14h09.30.553126 -0500,
71,71,0,catch,None,None,None,None,None,None,None,None,None,None,2,1.0911993980407715,None,,,,,0,0,0,0,0,71,71,122,116.83697724342346,,,,,,,,,,,,,,,,,,,,,,,,,,,,,,,,,,,,,,,,,,,,,,,,,,,,,,,,,,,,,,,,,,,,,,,,,,,,,,,,,78,112,195,130,69,121,4.0,4.2,-217,-17,0,-276,222,-16,116.82247114181519,116.82251238822937,116.82457232475281,116.83697724342346,116.98692536354065,116.98692536354065,116.98692536354065,116.98692536354065,116.98692536354065,116.98692536354065,116.98692536354065,117.93805766105652,2,1.0911993980407715,None,,,,,,,,,,,,,,,,,,53,5,2025-02-19_14h09.22.357,comp,2024.2.4,60.18749470850499,2025-02-19 14h09.30.553126 -0500,
72,72,0,critical,wdh,35.0,2.1,lower,57.0,133.0,70.0,70.0,133.0,57.0,3,1.2780821323394775,None,,,,,0,0,0,0,0,72,72,8,117.953533411026,,,,,,,,,,,,,,,,,,,,,,,,,,,,,,,,,,,,,,,,,,,,,,,,,,,,,,,,,,,,,,,,,,,,,,,,,,,,,,,,,57.0,133.0,70.0,70.0,133.0,57.0,2.1,2.12,-198,-288,0,-284,160,267,117.93889284133911,117.93893313407898,117.94140148162842,117.953533411026,118.10348439216614,118.10348439216614,118.10348439216614,118.10348439216614,118.10348439216614,118.10348439216614,118.10348439216614,119.2379035949707,3,1.2780821323394775,None,,,,,,,,,,,,,,,,,,53,5,2025-02-19_14h09.22.357,comp,2024.2.4,60.18749470850499,2025-02-19 14h09.30.553126 -0500,
73,73,0,critical,hwd,35.0,2.1,lower,133.0,57.0,57.0,133.0,70.0,70.0,1,1.0833115577697754,None,,,,,0,0,0,0,0,73,73,40,119.25358438491821,,,,,,,,,,,,,,,,,,,,,,,,,,,,,,,,,,,,,,,,,,,,,,,,,,,,,,,,,,,,,,,,,,,,,,,,,,,,,,,,,133.0,57.0,57.0,133.0,70.0,70.0,2.1,2.12,-191,-268,0,-252,198,288,119.2387011051178,119.2387421131134,119.24120211601257,119.25358438491821,119.40340304374695,119.40340304374695,119.40340304374695,119.40340304374695,119.40340304374695,119.40340304374695,119.40340304374695,120.338210105896,1,1.0833115577697754,None,,,,,,,,,,,,,,,,,,53,5,2025-02-19_14h09.22.357,comp,2024.2.4,60.18749470850499,2025-02-19 14h09.30.553126 -0500,
74,74,0,critical,hwd,35.0,2.1,lower,133.0,57.0,57.0,133.0,70.0,70.0,1,0.9101057052612305,None,,,,,0,0,0,0,0,74,74,16,120.35360169410706,,,,,,,,,,,,,,,,,,,,,,,,,,,,,,,,,,,,,,,,,,,,,,,,,,,,,,,,,,,,,,,,,,,,,,,,,,,,,,,,,133.0,57.0,57.0,133.0,70.0,70.0,2.1,2.12,-191,-256,0,-264,198,275,120.33901596069336,120.33905959129333,120.34152483940125,120.35360169410706,120.50340175628662,120.50340175628662,120.50340175628662,120.50340175628662,120.50340175628662,120.50340175628662,120.50340175628662,121.27114820480347,1,0.9101057052612305,None,,,,,,,,,,,,,,,,,,53,5,2025-02-19_14h09.22.357,comp,2024.2.4,60.18749470850499,2025-02-19 14h09.30.553126 -0500,
75,75,0,catch,None,None,None,None,None,None,None,None,None,None,3,1.0086421966552734,None,,,,,0,0,0,0,0,75,75,125,121.2869930267334,,,,,,,,,,,,,,,,,,,,,,,,,,,,,,,,,,,,,,,,,,,,,,,,,,,,,,,,,,,,,,,,,,,,,,,,,,,,,,,,,80,110,109,81,145,180,2.2,2.22,-192,258,0,-285,226,-267,121.27222442626953,121.27226758003235,121.27523732185364,121.2869930267334,121.43694949150085,121.43694949150085,121.43694949150085,121.43694949150085,121.43694949150085,121.43694949150085,121.43694949150085,122.30466055870056,3,1.0086421966552734,None,,,,,,,,,,,,,,,,,,53,5,2025-02-19_14h09.22.357,comp,2024.2.4,60.18749470850499,2025-02-19 14h09.30.553126 -0500,
76,76,0,filler_square,None,None,None,None,None,None,None,None,None,None,2,0.8712050914764404,None,,,,,0,0,0,0,0,76,76,175,122.32031059265137,,,,,,,,,,,,,,,,,,,,,,,,,,,,,,,,,,,,,,,,,,,,,,,,,,,,,,,,,,,,,,,,,,,,,,,,,,,,,,,,,99.0062424776186,120.68403368213109,137.26074506606113,137.26074506606113,132.58315291379301,81.61833573109955,3.0,3.1,-225,284,0,15,205,-273,122.3056435585022,122.30568480491638,122.3077392578125,122.32031059265137,122.47019863128662,122.47019863128662,122.47019863128662,122.47019863128662,122.47019863128662,122.47019863128662,122.47019863128662,123.2046320438385,2,0.8712050914764404,None,,,,,,,,,,,,,,,,,,53,5,2025-02-19_14h09.22.357,comp,2024.2.4,60.18749470850499,2025-02-19 14h09.30.553126 -0500,
77,77,0,critical,dhw,35.0,3.0,lower,70.0,70.0,133.0,57.0,57.0,133.0,2,1.859959363937378,None,,,,,0,0,0,0,0,77,77,50,123.21987128257751,,,,,,,,,,,,,,,,,,,,,,,,,,,,,,,,,,,,,,,,,,,,,,,,,,,,,,,,,,,,,,,,,,,,,,,,,,,,,,,,,70.0,70.0,133.0,57.0,57.0,133.0,3.0,3.1,-160,280,0,-10,191,-261,123.20540976524353,123.20545101165771,123.20778393745422,123.21987128257751,123.37014436721802,123.37014436721802,123.37014436721802,123.37014436721802,123.37014436721802,123.37014436721802,123.37014436721802,125.0878655910492,2,1.859959363937378,None,,,,,,,,,,,,,,,,,,53,5,2025-02-19_14h09.22.357,comp,2024.2.4,60.18749470850499,2025-02-19 14h09.30.553126 -0500,
78,78,0,critical,wdh,20.0,1.0,upper,125.0,200.0,141.0,141.0,200.0,125.0,3,3.128110647201538,None,,,,,0,0,0,0,0,78,78,79,125.10346007347107,,,,,,,,,,,,,,,,,,,,,,,,,,,,,,,,,,,,,,,,,,,,,,,,,,,,,,,,,,,,,,,,,,,,,,,,,,,,,,,,,125.0,200.0,141.0,141.0,200.0,125.0,1.0,1.2,-266,12,0,-7,229,-12,125.08862090110779,125.08866143226624,125.09109258651733,125.10346007347107,125.25356864929199,125.25356864929199,125.25356864929199,125.25356864929199,125.25356864929199,125.25356864929199,125.25356864929199,128.2382254600525,3,3.128110647201538,None,,,,,,,,,,,,,,,,,,53,5,2025-02-19_14h09.22.357,comp,2024.2.4,60.18749470850499,2025-02-19 14h09.30.553126 -0500,
79,79,0,critical,dwh,20.0,1.0,lower,78.0,78.0,57.0,133.0,133.0,57.0,2,0.794008731842041,None,,,,,0,0,0,0,0,79,79,66,128.25357294082642,,,,,,,,,,,,,,,,,,,,,,,,,,,,,,,,,,,,,,,,,,,,,,,,,,,,,,,,,,,,,,,,,,,,,,,,,,,,,,,,,78.0,78.0,57.0,133.0,133.0,57.0,1.0,1.2,-202,-9,0,-20,191,-15,128.23900842666626,128.23905062675476,128.24156212806702,128.25357294082642,128.40332341194153,128.40332341194153,128.40332341194153,128.40332341194153,128.40332341194153,128.40332341194153,128.40332341194153,129.0544834136963,2,0.794008731842041,None,,,,,,,,,,,,,,,,,,53,5,2025-02-19_14h09.22.357,comp,2024.2.4,60.18749470850499,2025-02-19 14h09.30.553126 -0500,
80,80,0,critical,whd,35.0,4.0,lower,57.0,133.0,133.0,57.0,70.0,70.0,1,1.8088769912719727,None,,,,,0,0,0,0,0,80,80,88,129.0706329345703,,,,,,,,,,,,,,,,,,,,,,,,,,,,,,,,,,,,,,,,,,,,,,,,,,,,,,,,,,,,,,,,,,,,,,,,,,,,,,,,,57.0,133.0,133.0,57.0,70.0,70.0,4.0,4.2,-191,-9,0,-255,160,-5,129.05527997016907,129.0553379058838,129.057391166687,129.0706329345703,129.22009348869324,129.22009348869324,129.22009348869324,129.22009348869324,129.22009348869324,129.22009348869324,129.22009348869324,130.88791370391846,1,1.8088769912719727,None,,,,,,,,,,,,,,,,,,53,5,2025-02-19_14h09.22.357,comp,2024.2.4,60.18749470850499,2025-02-19 14h09.30.553126 -0500,
81,81,0,filler_random,None,None,None,None,None,None,None,None,None,None,3,1.3921678066253662,None,,,,,0,0,0,0,0,81,81,161,130.90355443954468,,,,,,,,,,,,,,,,,,,,,,,,,,,,,,,,,,,,,,,,,,,,,,,,,,,,,,,,,,,,,,,,,,,,,,,,,,,,,,,,,111.46731827515553,61.160632238010436,59.919670113383035,139.2427864028171,60.72318583978012,193.84434953653943,1.0,1.3,284,-275,480,-282,743,-272,130.88892197608948,130.88896417617798,130.8914394378662,130.90355443954468,131.05333709716797,131.05333709716797,131.05333709716797,131.05333709716797,131.05333709716797,131.05333709716797,131.05333709716797,132.30459451675415,3,1.3921678066253662,None,,,,,,,,,,,,,,,,,,53,5,2025-02-19_14h09.22.357,comp,2024.2.4,60.18749470850499,2025-02-19 14h09.30.553126 -0500,
82,82,0,filler_random,None,None,None,None,None,None,None,None,None,None,3,1.775162696838379,None,,,,,0,0,0,0,0,82,82,131,132.32035160064697,,,,,,,,,,,,,,,,,,,,,,,,,,,,,,,,,,,,,,,,,,,,,,,,,,,,,,,,,,,,,,,,,,,,,,,,,,,,,,,,,171.73467704828113,71.39919113082645,65.39881364010883,151.21414082302329,106.80332215905224,89.92180194776648,1.0,1.1,-687,270,-480,283,-263,276,132.30549836158752,132.3055386543274,132.30760836601257,132.32035160064697,132.4701280593872,132.4701280593872,132.4701280593872,132.4701280593872,132.4701280593872,132.4701280593872,132.4701280593872,134.1044843196869,3,1.775162696838379,None,,,,,,,,,,,,,,,,,,53,5,2025-02-19_14h09.22.357,comp,2024.2.4,60.18749470850499,2025-02-19 14h09.30.553126 -0500,
83,83,0,critical,hwd,20.0,4.0,upper,200.0,125.0,125.0,200.0,141.0,141.0,2,1.3836290836334229,None,,,,,0,0,0,0,0,83,83,107,134.1201741695404,,,,,,,,,,,,,,,,,,,,,,,,,,,,,,,,,,,,,,,,,,,,,,,,,,,,,,,,,,,,,,,,,,,,,,,,,,,,,,,,,200.0,125.0,125.0,200.0,141.0,141.0,4.0,4.1,-258,-252,0,2,266,-280,134.10521745681763,134.10525631904602,134.10721492767334,134.1201741695404,134.2702510356903,134.2702510356903,134.2702510356903,134.2702510356903,134.2702510356903,134.2702510356903,134.2702510356903,135.52147459983826,2,1.3836290836334229,None,,,,,,,,,,,,,,,,,,53,5,2025-02-19_14h09.22.357,comp,2024.2.4,60.18749470850499,2025-02-19 14h09.30.553126 -0500,
84,84,0,filler_random,None,None,None,None,None,None,None,None,None,None,2,1.094895839691162,None,,,,,0,0,0,0,0,84,84,153,135.53666353225708,,,,,,,,,,,,,,,,,,,,,,,,,,,,,,,,,,,,,,,,,,,,,,,,,,,,,,,,,,,,,,,,,,,,,,,,,,,,,,,,,135.34292892495773,68.08260055254975,171.5961294442388,81.9733453522306,91.7487939568812,70.68670660388344,2.1,2.11,-171,269,0,261,172,-271,135.5223994255066,135.52243947982788,135.52451539039612,135.53666353225708,135.68667268753052,135.68667268753052,135.68667268753052,135.68667268753052,135.68667268753052,135.68667268753052,135.68667268753052,136.63814687728882,2,1.094895839691162,None,,,,,,,,,,,,,,,,,,53,5,2025-02-19_14h09.22.357,comp,2024.2.4,60.18749470850499,2025-02-19 14h09.30.553126 -0500,
85,85,0,filler_square,None,None,None,None,None,None,None,None,None,None,1,1.5693182945251465,None,,,,,0,0,0,0,0,85,85,192,136.65341186523438,,,,,,,,,,,,,,,,,,,,,,,,,,,,,,,,,,,,,,,,,,,,,,,,,,,,,,,,,,,,,,,,,,,,,,,,,,,,,,,,,99.61646380586906,99.61646380586906,67.90147734019234,61.07190149766881,85.00530380106815,96.86287022669464,3.0,3.2,-176,-251,0,2,175,254,136.63909459114075,136.63913559913635,136.64142751693726,136.65341186523438,136.80357146263123,136.80357146263123,136.80357146263123,136.80357146263123,136.80357146263123,136.80357146263123,136.80357146263123,138.23782896995544,1,1.5693182945251465,None,,,,,,,,,,,,,,,,,,53,5,2025-02-19_14h09.22.357,comp,2024.2.4,60.18749470850499,2025-02-19 14h09.30.553126 -0500,
86,86,0,filler_square,None,None,None,None,None,None,None,None,None,None,2,1.9215216636657715,None,,,,,0,0,0,0,0,86,86,206,138.2532298564911,,,,,,,,,,,,,,,,,,,,,,,,,,,,,,,,,,,,,,,,,,,,,,,,,,,,,,,,,,,,,,,,,,,,,,,,,,,,,,,,,59.17942669471437,57.56197630960758,70.57601035604658,70.57601035604658,64.86736553620587,64.18800554874181,1.0,1.3,320,-275,480,-263,643,-257,138.23879384994507,138.23883438110352,138.24121236801147,138.2532298564911,138.4032859802246,138.4032859802246,138.4032859802246,138.4032859802246,138.4032859802246,138.4032859802246,138.4032859802246,140.1878206729889,2,1.9215216636657715,None,,,,,,,,,,,,,,,,,,53,5,2025-02-19_14h09.22.357,comp,2024.2.4,60.18749470850499,2025-02-19 14h09.30.553126 -0500,
87,87,0,critical,hwd,35.0,4.0,upper,200.0,125.0,125.0,200.0,127.0,127.0,2,1.2923593521118164,None,,,,,0,0,0,0,0,87,87,101,140.20314049720764,,,,,,,,,,,,,,,,,,,,,,,,,,,,,,,,,,,,,,,,,,,,,,,,,,,,,,,,,,,,,,,,,,,,,,,,,,,,,,,,,200.0,125.0,125.0,200.0,127.0,127.0,4.0,4.1,-258,-259,0,-7,260,-269,140.1886007785797,140.18864107131958,140.19100642204285,140.20314049720764,140.35393047332764,140.35393047332764,140.35393047332764,140.35393047332764,140.35393047332764,140.35393047332764,140.35393047332764,141.50465512275696,2,1.2923593521118164,None,,,,,,,,,,,,,,,,,,53,5,2025-02-19_14h09.22.357,comp,2024.2.4,60.18749470850499,2025-02-19 14h09.30.553126 -0500,
88,88,0,critical,whd,20.0,1.0,lower,57.0,133.0,133.0,57.0,78.0,78.0,3,1.334502935409546,None,,,,,0,0,0,0,0,88,88,90,141.52018785476685,,,,,,,,,,,,,,,,,,,,,,,,,,,,,,,,,,,,,,,,,,,,,,,,,,,,,,,,,,,,,,,,,,,,,,,,,,,,,,,,,57.0,133.0,133.0,57.0,78.0,78.0,1.0,1.2,-191,-18,0,16,164,2,141.50545120239258,141.50549244880676,141.5075433254242,141.52018785476685,141.6699743270874,141.6699743270874,141.6699743270874,141.6699743270874,141.6699743270874,141.6699743270874,141.6699743270874,142.87103533744812,3,1.334502935409546,None,,,,,,,,,,,,,,,,,,53,5,2025-02-19_14h09.22.357,comp,2024.2.4,60.18749470850499,2025-02-19 14h09.30.553126 -0500,
89,89,0,filler_random,None,None,None,None,None,None,None,None,None,None,3,0.9133191108703613,None,,,,,0,0,0,0,0,89,89,158,142.886483669281,,,,,,,,,,,,,,,,,,,,,,,,,,,,,,,,,,,,,,,,,,,,,,,,,,,,,,,,,,,,,,,,,,,,,,,,,,,,,,,,,114.37700290509571,159.74373278947522,99.25617688724694,113.2934682982974,188.79465716523188,169.63407609271744,1.0,1.1,-713,277,-480,261,-243,273,142.8719606399536,142.87200236320496,142.87451577186584,142.886483669281,143.03684306144714,143.03684306144714,143.03684306144714,143.03684306144714,143.03684306144714,143.03684306144714,143.03684306144714,143.80465364456177,3,0.9133191108703613,None,,,,,,,,,,,,,,,,,,53,5,2025-02-19_14h09.22.357,comp,2024.2.4,60.18749470850499,2025-02-19 14h09.30.553126 -0500,
90,90,0,critical,hdw,35.0,3.0,lower,133.0,57.0,70.0,70.0,57.0,133.0,3,1.1165673732757568,None,,,,,0,0,0,0,0,90,90,110,143.82015228271484,,,,,,,,,,,,,,,,,,,,,,,,,,,,,,,,,,,,,,,,,,,,,,,,,,,,,,,,,,,,,,,,,,,,,,,,,,,,,,,,,133.0,57.0,70.0,70.0,57.0,133.0,3.0,3.2,-160,-278,0,-14,198,264,143.80544233322144,143.80548286437988,143.80754566192627,143.82015228271484,143.96993279457092,143.96993279457092,143.96993279457092,143.96993279457092,143.96993279457092,143.96993279457092,143.96993279457092,144.9543867111206,3,1.1165673732757568,None,,,,,,,,,,,,,,,,,,53,5,2025-02-19_14h09.22.357,comp,2024.2.4,60.18749470850499,2025-02-19 14h09.30.553126 -0500,
91,91,0,critical,wdh,20.0,3.0,lower,57.0,133.0,78.0,78.0,133.0,57.0,3,0.9831900596618652,None,,,,,0,0,0,0,0,91,91,80,144.96981978416443,,,,,,,,,,,,,,,,,,,,,,,,,,,,,,,,,,,,,,,,,,,,,,,,,,,,,,,,,,,,,,,,,,,,,,,,,,,,,,,,,57.0,133.0,78.0,78.0,133.0,57.0,3.0,3.2,-202,-283,0,-6,164,276,144.95516061782837,144.95520162582397,144.9574794769287,144.96981978416443,145.1199550628662,145.1199550628662,145.1199550628662,145.1199550628662,145.1199550628662,145.1199550628662,145.1199550628662,145.9544551372528,3,0.9831900596618652,None,,,,,,,,,,,,,,,,,,53,5,2025-02-19_14h09.22.357,comp,2024.2.4,60.18749470850499,2025-02-19 14h09.30.553126 -0500,
92,92,0,critical,hdw,35.0,2.1,lower,133.0,57.0,70.0,70.0,57.0,133.0,2,1.1173765659332275,None,,,,,0,0,0,0,0,92,92,20,145.97004866600037,,,,,,,,,,,,,,,,,,,,,,,,,,,,,,,,,,,,,,,,,,,,,,,,,,,,,,,,,,,,,,,,,,,,,,,,,,,,,,,,,133.0,57.0,70.0,70.0,57.0,133.0,2.1,2.11,-160,275,0,279,198,-284,145.95523619651794,145.95527720451355,145.95726823806763,145.97004866600037,146.12002420425415,146.12002420425415,146.12002420425415,146.12002420425415,146.12002420425415,146.12002420425415,146.12002420425415,147.1044569015503,2,1.1173765659332275,None,,,,,,,,,,,,,,,,,,53,5,2025-02-19_14h09.22.357,comp,2024.2.4,60.18749470850499,2025-02-19 14h09.30.553126 -0500,
93,93,0,critical,hwd,20.0,2.1,lower,133.0,57.0,57.0,133.0,78.0,78.0,3,1.1435511112213135,None,,,,,0,0,0,0,0,93,93,18,147.11984872817993,,,,,,,,,,,,,,,,,,,,,,,,,,,,,,,,,,,,,,,,,,,,,,,,,,,,,,,,,,,,,,,,,,,,,,,,,,,,,,,,,133.0,57.0,57.0,133.0,78.0,78.0,2.1,2.11,-191,273,0,261,202,-259,147.10521030426025,147.1052496433258,147.10749220848083,147.11984872817993,147.27003502845764,147.27003502845764,147.27003502845764,147.27003502845764,147.27003502845764,147.27003502845764,147.27003502845764,148.27122473716736,3,1.1435511112213135,None,,,,,,,,,,,,,,,,,,53,5,2025-02-19_14h09.22.357,comp,2024.2.4,60.18749470850499,2025-02-19 14h09.30.553126 -0500,
94,94,0,critical,whd,35.0,3.0,upper,125.0,200.0,200.0,125.0,127.0,127.0,2,1.2002911567687988,None,,,,,0,0,0,0,0,94,94,87,148.28688383102417,,,,,,,,,,,,,,,,,,,,,,,,,,,,,,,,,,,,,,,,,,,,,,,,,,,,,,,,,,,,,,,,,,,,,,,,,,,,,,,,,125.0,200.0,200.0,125.0,127.0,127.0,3.0,3.1,-258,257,0,18,222,-252,148.27201557159424,148.27205753326416,148.2745521068573,148.28688383102417,148.43685746192932,148.43685746192932,148.43685746192932,148.43685746192932,148.43685746192932,148.43685746192932,148.43685746192932,149.50460529327393,2,1.2002911567687988,None,,,,,,,,,,,,,,,,,,53,5,2025-02-19_14h09.22.357,comp,2024.2.4,60.18749470850499,2025-02-19 14h09.30.553126 -0500,
95,95,0,critical,hwd,35.0,1.0,upper,200.0,125.0,125.0,200.0,127.0,127.0,2,1.3435404300689697,None,,,,,0,0,0,0,0,95,95,97,149.51985001564026,,,,,,,,,,,,,,,,,,,,,,,,,,,,,,,,,,,,,,,,,,,,,,,,,,,,,,,,,,,,,,,,,,,,,,,,,,,,,,,,,200.0,125.0,125.0,200.0,127.0,127.0,1.0,1.3,222,-282,480,-260,740,-269,149.50539445877075,149.50543642044067,149.50785040855408,149.51985001564026,149.6702721118927,149.6702721118927,149.6702721118927,149.6702721118927,149.6702721118927,149.6702721118927,149.6702721118927,150.87122440338135,2,1.3435404300689697,None,,,,,,,,,,,,,,,,,,53,5,2025-02-19_14h09.22.357,comp,2024.2.4,60.18749470850499,2025-02-19 14h09.30.553126 -0500,
96,96,0,critical,hdw,20.0,2.1,lower,133.0,57.0,78.0,78.0,57.0,133.0,2,2.2087748050689697,None,,,,,0,0,0,0,0,96,96,46,150.88666582107544,,,,,,,,,,,,,,,,,,,,,,,,,,,,,,,,,,,,,,,,,,,,,,,,,,,,,,,,,,,,,,,,,,,,,,,,,,,,,,,,,133.0,57.0,78.0,78.0,57.0,133.0,2.1,2.11,-164,256,0,282,202,-268,150.8720202445984,150.872061252594,150.8742163181305,150.88666582107544,151.0368115901947,151.0368115901947,151.0368115901947,151.0368115901947,151.0368115901947,151.0368115901947,151.0368115901947,153.1043839454651,2,2.2087748050689697,None,,,,,,,,,,,,,,,,,,53,5,2025-02-19_14h09.22.357,comp,2024.2.4,60.18749470850499,2025-02-19 14h09.30.553126 -0500,
97,97,0,critical,hdw,35.0,1.0,lower,133.0,57.0,70.0,70.0,57.0,133.0,2,1.4382972717285156,None,,,,,0,0,0,0,0,97,97,108,153.12015628814697,,,,,,,,,,,,,,,,,,,,,,,,,,,,,,,,,,,,,,,,,,,,,,,,,,,,,,,,,,,,,,,,,,,,,,,,,,,,,,,,,133.0,57.0,70.0,70.0,57.0,133.0,1.0,1.2,-160,-18,0,-9,198,7,153.10516619682312,153.10520815849304,153.1073820590973,153.12015628814697,153.27000308036804,153.27000308036804,153.27000308036804,153.27000308036804,153.27000308036804,153.27000308036804,153.27000308036804,154.57119846343994,2,1.4382972717285156,None,,,,,,,,,,,,,,,,,,53,5,2025-02-19_14h09.22.357,comp,2024.2.4,60.18749470850499,2025-02-19 14h09.30.553126 -0500,
98,98,0,critical,whd,20.0,3.0,upper,125.0,200.0,200.0,125.0,141.0,141.0,2,1.3089754581451416,None,,,,,0,0,0,0,0,98,98,93,154.58653044700623,,,,,,,,,,,,,,,,,,,,,,,,,,,,,,,,,,,,,,,,,,,,,,,,,,,,,,,,,,,,,,,,,,,,,,,,,,,,,,,,,125.0,200.0,200.0,125.0,141.0,141.0,3.0,3.2,-258,-284,0,-1,229,276,154.5719861984253,154.572026014328,154.5747036933899,154.58653044700623,154.73707580566406,154.73707580566406,154.73707580566406,154.73707580566406,154.73707580566406,154.73707580566406,154.73707580566406,155.90467238426208,2,1.3089754581451416,None,,,,,,,,,,,,,,,,,,53,5,2025-02-19_14h09.22.357,comp,2024.2.4,60.18749470850499,2025-02-19 14h09.30.553126 -0500,
99,99,0,filler_square,None,None,None,None,None,None,None,None,None,None,2,0.8866145610809326,None,,,,,0,0,0,0,0,99,99,191,155.9201226234436,,,,,,,,,,,,,,,,,,,,,,,,,,,,,,,,,,,,,,,,,,,,,,,,,,,,,,,,,,,,,,,,,,,,,,,,,,,,,,,,,64.90822971037316,64.90822971037316,58.27002634265672,62.34627379868401,63.205588960286924,57.66533115275251,3.0,3.2,-160,-283,0,20,156,289,155.90561270713806,155.90565299987793,155.90771460533142,155.9201226234436,156.05364155769348,156.05364155769348,156.05364155769348,156.05364155769348,156.05364155769348,156.05364155769348,156.05364155769348,156.82107615470886,2,0.8866145610809326,None,,,,,,,,,,,,,,,,,,53,5,2025-02-19_14h09.22.357,comp,2024.2.4,60.18749470850499,2025-02-19 14h09.30.553126 -0500,
100,100,0,critical,hdw,20.0,4.0,lower,133.0,57.0,78.0,78.0,57.0,133.0,2,1.7060952186584473,None,,,,,0,0,0,0,0,100,100,118,156.83636856079102,,,,,,,,,,,,,,,,,,,,,,,,,,,,,,,,,,,,,,,,,,,,,,,,,,,,,,,,,,,,,,,,,,,,,,,,,,,,,,,,,133.0,57.0,78.0,78.0,57.0,133.0,4.0,4.2,-164,0,0,-280,202,15,156.8218710422516,156.8219130039215,156.82443141937256,156.83636856079102,156.9866144657135,156.9866144657135,156.9866144657135,156.9866144657135,156.9866144657135,156.9866144657135,156.9866144657135,158.55443239212036,2,1.7060952186584473,None,,,,,,,,,,,,,,,,,,53,5,2025-02-19_14h09.22.357,comp,2024.2.4,60.18749470850499,2025-02-19 14h09.30.553126 -0500,
101,101,0,filler_square,None,None,None,None,None,None,None,None,None,None,3,1.0936415195465088,None,,,,,0,0,0,0,0,101,101,173,158.56973838806152,,,,,,,,,,,,,,,,,,,,,,,,,,,,,,,,,,,,,,,,,,,,,,,,,,,,,,,,,,,,,,,,,,,,,,,,,,,,,,,,,94.12970498941343,114.30512410295502,99.00119177646661,124.78689246268306,131.8302323382534,131.8302323382534,2.2,2.22,-216,272,0,-253,224,-250,158.5553638935089,158.555406332016,158.55771207809448,158.56973838806152,158.71999764442444,158.71999764442444,158.71999764442444,158.71999764442444,158.71999764442444,158.71999764442444,158.71999764442444,159.67103099822998,3,1.0936415195465088,None,,,,,,,,,,,,,,,,,,53,5,2025-02-19_14h09.22.357,comp,2024.2.4,60.18749470850499,2025-02-19 14h09.30.553126 -0500,
102,102,0,filler_square,None,None,None,None,None,None,None,None,None,None,2,0.9847736358642578,None,,,,,0,0,0,0,0,102,102,200,159.68664693832397,,,,,,,,,,,,,,,,,,,,,,,,,,,,,,,,,,,,,,,,,,,,,,,,,,,,,,,,,,,,,,,,,,,,,,,,,,,,,,,,,57.2665883580108,57.97533363537392,58.847019685514624,58.847019685514624,57.39497924981854,58.32586072591089,2.2,2.22,-154,263,0,-277,155,-259,159.67204999923706,159.6720905303955,159.6746392250061,159.68664693832397,159.83649969100952,159.83649969100952,159.83649969100952,159.83649969100952,159.83649969100952,159.83649969100952,159.83649969100952,160.68765687942505,2,0.9847736358642578,None,,,,,,,,,,,,,,,,,,53,5,2025-02-19_14h09.22.357,comp,2024.2.4,60.18749470850499,2025-02-19 14h09.30.553126 -0500,
103,103,0,filler_random,None,None,None,None,None,None,None,None,None,None,1,1.784212589263916,None,,,,,0,0,0,0,0,103,103,154,160.7031180858612,,,,,,,,,,,,,,,,,,,,,,,,,,,,,,,,,,,,,,,,,,,,,,,,,,,,,,,,,,,,,,,,,,,,,,,,,,,,,,,,,193.80341740378776,196.5537473768847,154.08860797410458,192.3800756113631,164.79451430976474,74.89235610444484,2.1,2.12,-290,-252,0,-275,230,262,160.68855237960815,160.6885929107666,160.6909556388855,160.7031180858612,160.8534882068634,160.8534882068634,160.8534882068634,160.8534882068634,160.8534882068634,160.8534882068634,160.8534882068634,162.50453281402588,1,1.784212589263916,None,,,,,,,,,,,,,,,,,,53,5,2025-02-19_14h09.22.357,comp,2024.2.4,60.18749470850499,2025-02-19 14h09.30.553126 -0500,
104,104,0,filler_random,None,None,None,None,None,None,None,None,None,None,3,1.343526840209961,None,,,,,0,0,0,0,0,104,104,152,162.51980137825012,,,,,,,,,,,,,,,,,,,,,,,,,,,,,,,,,,,,,,,,,,,,,,,,,,,,,,,,,,,,,,,,,,,,,,,,,,,,,,,,,150.5307838749564,110.38046785556367,103.09074833758959,132.6151763682471,185.5350010613215,93.74790199401197,2.1,2.12,-217,-272,0,-275,209,284,162.50546002388,162.50550246238708,162.50757265090942,162.51980137825012,162.67000770568848,162.67000770568848,162.67000770568848,162.67000770568848,162.67000770568848,162.67000770568848,162.67000770568848,163.87107610702515,3,1.343526840209961,None,,,,,,,,,,,,,,,,,,53,5,2025-02-19_14h09.22.357,comp,2024.2.4,60.18749470850499,2025-02-19 14h09.30.553126 -0500,
105,105,0,critical,hwd,35.0,1.0,lower,133.0,57.0,57.0,133.0,70.0,70.0,2,1.1199843883514404,None,,,,,0,0,0,0,0,105,105,96,163.88659620285034,,,,,,,,,,,,,,,,,,,,,,,,,,,,,,,,,,,,,,,,,,,,,,,,,,,,,,,,,,,,,,,,,,,,,,,,,,,,,,,,,133.0,57.0,57.0,133.0,70.0,70.0,1.0,1.2,-191,18,0,1,198,9,163.8718581199646,163.8718991279602,163.87431502342224,163.88659620285034,164.0365424156189,164.0365424156189,164.0365424156189,164.0365424156189,164.0365424156189,164.0365424156189,164.0365424156189,165.02105522155762,2,1.1199843883514404,None,,,,,,,,,,,,,,,,,,53,5,2025-02-19_14h09.22.357,comp,2024.2.4,60.18749470850499,2025-02-19 14h09.30.553126 -0500,
106,106,0,filler_random,None,None,None,None,None,None,None,None,None,None,3,1.5327565670013428,None,,,,,0,0,0,0,0,106,106,168,165.0363929271698,,,,,,,,,,,,,,,,,,,,,,,,,,,,,,,,,,,,,,,,,,,,,,,,,,,,,,,,,,,,,,,,,,,,,,,,,,,,,,,,,122.64802116915261,139.04677345204072,173.66105084237853,75.09739056633195,97.32435630715355,158.372341076578,2.1,2.12,-203,-282,0,-276,213,286,165.0220227241516,165.02206540107727,165.02454900741577,165.0363929271698,165.18698644638062,165.18698644638062,165.18698644638062,165.18698644638062,165.18698644638062,165.18698644638062,165.18698644638062,166.57129573822021,3,1.5327565670013428,None,,,,,,,,,,,,,,,,,,53,5,2025-02-19_14h09.22.357,comp,2024.2.4,60.18749470850499,2025-02-19 14h09.30.553126 -0500,
107,107,0,critical,dhw,35.0,2.1,upper,127.0,127.0,200.0,125.0,125.0,200.0,3,1.0520811080932617,None,,,,,0,0,0,0,0,107,107,25,166.58662223815918,,,,,,,,,,,,,,,,,,,,,,,,,,,,,,,,,,,,,,,,,,,,,,,,,,,,,,,,,,,,,,,,,,,,,,,,,,,,,,,,,127.0,127.0,200.0,125.0,125.0,200.0,2.1,2.12,-222,-264,0,-260,258,266,166.57208228111267,166.57212281227112,166.57425594329834,166.58662223815918,166.73673057556152,166.73673057556152,166.73673057556152,166.73673057556152,166.73673057556152,166.73673057556152,166.73673057556152,167.654550075531,3,1.0520811080932617,None,,,,,,,,,,,,,,,,,,53,5,2025-02-19_14h09.22.357,comp,2024.2.4,60.18749470850499,2025-02-19 14h09.30.553126 -0500,
108,108,0,filler_square,None,None,None,None,None,None,None,None,None,None,1,1.2247698307037354,None,,,,,0,0,0,0,0,108,108,198,167.67054986953735,,,,,,,,,,,,,,,,,,,,,,,,,,,,,,,,,,,,,,,,,,,,,,,,,,,,,,,,,,,,,,,,,,,,,,,,,,,,,,,,,129.1334705077257,129.1334705077257,125.58286232862987,116.44800498676955,95.92074483423762,88.21193783318749,4.0,4.2,-219,-20,0,-259,198,8,167.6556088924408,167.65564942359924,167.65800786018372,167.67054986953735,167.81999826431274,167.81999826431274,167.81999826431274,167.81999826431274,167.81999826431274,167.81999826431274,167.81999826431274,168.90426659584045,1,1.2247698307037354,None,,,,,,,,,,,,,,,,,,53,5,2025-02-19_14h09.22.357,comp,2024.2.4,60.18749470850499,2025-02-19 14h09.30.553126 -0500,
109,109,0,filler_random,None,None,None,None,None,None,None,None,None,None,2,0.7345104217529297,None,,,,,0,0,0,0,0,109,109,144,168.91990303993225,,,,,,,,,,,,,,,,,,,,,,,,,,,,,,,,,,,,,,,,,,,,,,,,,,,,,,,,,,,,,,,,,,,,,,,,,,,,,,,,,138.20899665874464,137.55018695033075,144.3150956932156,198.36894447705942,95.11668668094119,157.28345976165974,1.0,1.2,-264,3,0,7,274,5,168.9051477909088,168.90518975257874,168.90727162361145,168.91990303993225,169.0703639984131,169.0703639984131,169.0703639984131,169.0703639984131,169.0703639984131,169.0703639984131,169.0703639984131,169.6710968017578,2,0.7345104217529297,None,,,,,,,,,,,,,,,,,,53,5,2025-02-19_14h09.22.357,comp,2024.2.4,60.18749470850499,2025-02-19 14h09.30.553126 -0500,
110,110,0,filler_random,None,None,None,None,None,None,None,None,None,None,3,1.9680900573730469,None,,,,,0,0,0,0,0,110,110,146,169.6864082813263,,,,,,,,,,,,,,,,,,,,,,,,,,,,,,,,,,,,,,,,,,,,,,,,,,,,,,,,,,,,,,,,,,,,,,,,,,,,,,,,,184.08334217261176,110.81052409856086,152.50582650001044,102.35592785087601,150.93816825042595,128.76475316128995,2.2,2.21,-203,-280,0,287,212,265,169.6720039844513,169.67204523086548,169.67457795143127,169.6864082813263,169.83671832084656,169.83671832084656,169.83671832084656,169.83671832084656,169.83671832084656,169.83671832084656,169.83671832084656,171.67101192474365,3,1.9680900573730469,None,,,,,,,,,,,,,,,,,,53,5,2025-02-19_14h09.22.357,comp,2024.2.4,60.18749470850499,2025-02-19 14h09.30.553126 -0500,
111,111,0,critical,dwh,20.0,3.0,upper,141.0,141.0,125.0,200.0,200.0,125.0,2,1.1044676303863525,None,,,,,0,0,0,0,0,111,111,69,171.68631744384766,,,,,,,,,,,,,,,,,,,,,,,,,,,,,,,,,,,,,,,,,,,,,,,,,,,,,,,,,,,,,,,,,,,,,,,,,,,,,,,,,141.0,141.0,125.0,200.0,200.0,125.0,3.0,3.1,-266,272,0,5,258,-290,171.67182612419128,171.6718668937683,171.67434787750244,171.68631744384766,171.83666682243347,171.83666682243347,171.83666682243347,171.83666682243347,171.83666682243347,171.83666682243347,171.83666682243347,172.80460572242737,2,1.1044676303863525,None,,,,,,,,,,,,,,,,,,53,5,2025-02-19_14h09.22.357,comp,2024.2.4,60.18749470850499,2025-02-19 14h09.30.553126 -0500,
112,112,0,filler_random,None,None,None,None,None,None,None,None,None,None,3,1.6598246097564697,None,,,,,0,0,0,0,0,112,112,130,172.81980633735657,,,,,,,,,,,,,,,,,,,,,,,,,,,,,,,,,,,,,,,,,,,,,,,,,,,,,,,,,,,,,,,,,,,,,,,,,,,,,,,,,87.65371834402622,189.06838502612888,58.206817371510844,100.11827454489416,129.25785671634367,161.70147343588008,2.2,2.21,-241,-265,0,273,227,268,172.8054974079132,172.8055374622345,172.80758213996887,172.81980633735657,172.96991157531738,172.96991157531738,172.96991157531738,172.96991157531738,172.96991157531738,172.96991157531738,172.96991157531738,174.4876799583435,3,1.6598246097564697,None,,,,,,,,,,,,,,,,,,53,5,2025-02-19_14h09.22.357,comp,2024.2.4,60.18749470850499,2025-02-19 14h09.30.553126 -0500,
113,113,0,critical,hdw,20.0,4.0,upper,200.0,125.0,141.0,141.0,125.0,200.0,3,1.7035303115844727,None,,,,,0,0,0,0,0,113,113,119,174.5031599998474,,,,,,,,,,,,,,,,,,,,,,,,,,,,,,,,,,,,,,,,,,,,,,,,,,,,,,,,,,,,,,,,,,,,,,,,,,,,,,,,,200.0,125.0,141.0,141.0,125.0,200.0,4.0,4.2,-229,18,0,-266,266,19,174.4884204864502,174.48845911026,174.49075508117676,174.5031599998474,174.6533226966858,174.6533226966858,174.6533226966858,174.6533226966858,174.6533226966858,174.6533226966858,174.6533226966858,176.22111630439758,3,1.7035303115844727,None,,,,,,,,,,,,,,,,,,53,5,2025-02-19_14h09.22.357,comp,2024.2.4,60.18749470850499,2025-02-19 14h09.30.553126 -0500,
114,114,0,filler_square,None,None,None,None,None,None,None,None,None,None,2,1.370190143585205,None,,,,,0,0,0,0,0,114,114,195,176.23636198043823,,,,,,,,,,,,,,,,,,,,,,,,,,,,,,,,,,,,,,,,,,,,,,,,,,,,,,,,,,,,,,,,,,,,,,,,,,,,,,,,,95.91233255222045,69.35577712365297,145.62763518039537,145.62763518039537,78.9309036653942,68.04524912588022,1.0,1.1,-683,274,-480,287,-277,279,176.22207760810852,176.2221179008484,176.22466683387756,176.23636198043823,176.38652539253235,176.38652539253235,176.38652539253235,176.38652539253235,176.38652539253235,176.38652539253235,176.38652539253235,177.62107610702515,2,1.370190143585205,None,,,,,,,,,,,,,,,,,,53,5,2025-02-19_14h09.22.357,comp,2024.2.4,60.18749470850499,2025-02-19 14h09.30.553126 -0500,
115,115,0,filler_square,None,None,None,None,None,None,None,None,None,None,2,3.2180449962615967,None,,,,,0,0,0,0,0,115,115,177,177.63636684417725,,,,,,,,,,,,,,,,,,,,,,,,,,,,,,,,,,,,,,,,,,,,,,,,,,,,,,,,,,,,,,,,,,,,,,,,,,,,,,,,,58.1600022396575,59.472187799529536,59.643714788792536,61.413994322989666,61.656662499036216,61.656662499036216,3.0,3.1,-156,255,0,-17,158,-280,177.62203311920166,177.62207317352295,177.62455201148987,177.63636684417725,177.78631567955017,177.78631567955017,177.78631567955017,177.78631567955017,177.78631567955017,177.78631567955017,177.78631567955017,180.87090873718262,2,3.2180449962615967,None,,,,,,,,,,,,,,,,,,53,5,2025-02-19_14h09.22.357,comp,2024.2.4,60.18749470850499,2025-02-19 14h09.30.553126 -0500,
116,116,0,filler_random,None,None,None,None,None,None,None,None,None,None,3,1.8827543258666992,None,,,,,0,0,0,0,0,116,116,167,180.88635897636414,,,,,,,,,,,,,,,,,,,,,,,,,,,,,,,,,,,,,,,,,,,,,,,,,,,,,,,,,,,,,,,,,,,,,,,,,,,,,,,,,127.12531763335355,75.21813319123686,138.16994328798893,66.1190142757857,186.9282459295161,61.06146048442691,3.0,3.2,-167,-270,0,-10,160,262,180.87180948257446,180.87184977531433,180.87438654899597,180.88635897636414,181.03636169433594,181.03636169433594,181.03636169433594,181.03636169433594,181.03636169433594,181.03636169433594,181.03636169433594,182.787456035614,3,1.8827543258666992,None,,,,,,,,,,,,,,,,,,53,5,2025-02-19_14h09.22.357,comp,2024.2.4,60.18749470850499,2025-02-19 14h09.30.553126 -0500,
117,117,0,filler_square,None,None,None,None,None,None,None,None,None,None,1,1.6603190898895264,None,,,,,0,0,0,0,0,117,117,197,182.80292344093323,,,,,,,,,,,,,,,,,,,,,,,,,,,,,,,,,,,,,,,,,,,,,,,,,,,,,,,,,,,,,,,,,,,,,,,,,,,,,,,,,86.96183819168022,84.2773450524821,88.11508171752621,88.11508171752621,76.87482939621046,81.25964994088693,2.2,2.22,-182,284,0,-287,181,-255,182.78842067718506,182.78846263885498,182.79079866409302,182.80292344093323,182.95292782783508,182.95292782783508,182.95292782783508,182.95292782783508,182.95292782783508,182.95292782783508,182.95292782783508,184.47079133987427,1,1.6603190898895264,None,,,,,,,,,,,,,,,,,,53,5,2025-02-19_14h09.22.357,comp,2024.2.4,60.18749470850499,2025-02-19 14h09.30.553126 -0500,
118,118,0,catch,None,None,None,None,None,None,None,None,None,None,3,1.2500648498535156,None,,,,,0,0,0,0,0,118,118,121,184.48649406433105,,,,,,,,,,,,,,,,,,,,,,,,,,,,,,,,,,,,,,,,,,,,,,,,,,,,,,,,,,,,,,,,,,,,,,,,,,,,,,,,,64,126,120,70,198,127,3.0,3.1,-194,285,0,9,194,-287,184.47181701660156,184.47185754776,184.4742455482483,184.48649406433105,184.63682436943054,184.63682436943054,184.63682436943054,184.63682436943054,184.63682436943054,184.63682436943054,184.63682436943054,185.73781609535217,3,1.2500648498535156,None,,,,,,,,,,,,,,,,,,53,5,2025-02-19_14h09.22.357,comp,2024.2.4,60.18749470850499,2025-02-19 14h09.30.553126 -0500,
119,119,0,critical,dwh,20.0,3.0,lower,78.0,78.0,57.0,133.0,133.0,57.0,3,2.237860679626465,None,,,,,0,0,0,0,0,119,119,68,185.75324749946594,,,,,,,,,,,,,,,,,,,,,,,,,,,,,,,,,,,,,,,,,,,,,,,,,,,,,,,,,,,,,,,,,,,,,,,,,,,,,,,,,78.0,78.0,57.0,133.0,133.0,57.0,3.0,3.2,-202,-255,0,8,191,277,185.73860621452332,185.7386486530304,185.7409861087799,185.75324749946594,185.903333902359,185.903333902359,185.903333902359,185.903333902359,185.903333902359,185.903333902359,185.903333902359,188.00418519973755,3,2.237860679626465,None,,,,,,,,,,,,,,,,,,53,5,2025-02-19_14h09.22.357,comp,2024.2.4,60.18749470850499,2025-02-19 14h09.30.553126 -0500,
120,120,0,filler_square,None,None,None,None,None,None,None,None,None,None,2,1.187046766281128,None,,,,,0,0,0,0,0,120,120,184,188.01965355873108,,,,,,,,,,,,,,,,,,,,,,,,,,,,,,,,,,,,,,,,,,,,,,,,,,,,,,,,,,,,,,,,,,,,,,,,,,,,,,,,,189.56033159045847,189.56033159045847,178.37868499584926,187.99816927387596,71.00206000244606,88.87647768238136,1.0,1.1,-765,289,-480,261,-246,254,188.0051395893097,188.00517964363098,188.00723791122437,188.01965355873108,188.16993284225464,188.16993284225464,188.16993284225464,188.16993284225464,188.16993284225464,188.16993284225464,188.16993284225464,189.221088886261,2,1.187046766281128,None,,,,,,,,,,,,,,,,,,53,5,2025-02-19_14h09.22.357,comp,2024.2.4,60.18749470850499,2025-02-19 14h09.30.553126 -0500,
121,121,0,critical,whd,20.0,4.0,upper,125.0,200.0,200.0,125.0,141.0,141.0,3,1.9324924945831299,None,,,,,0,0,0,0,0,121,121,95,189.2362768650055,,,,,,,,,,,,,,,,,,,,,,,,,,,,,,,,,,,,,,,,,,,,,,,,,,,,,,,,,,,,,,,,,,,,,,,,,,,,,,,,,125.0,200.0,200.0,125.0,141.0,141.0,4.0,4.2,-258,-19,0,-276,229,14,189.22198390960693,189.22202444076538,189.2241837978363,189.2362768650055,189.38667917251587,189.38667917251587,189.38667917251587,189.38667917251587,189.38667917251587,189.38667917251587,189.38667917251587,191.17114806175232,3,1.9324924945831299,None,,,,,,,,,,,,,,,,,,53,5,2025-02-19_14h09.22.357,comp,2024.2.4,60.18749470850499,2025-02-19 14h09.30.553126 -0500,
122,122,0,critical,dwh,20.0,2.1,upper,141.0,141.0,125.0,200.0,200.0,125.0,3,1.3664538860321045,None,,,,,0,0,0,0,0,122,122,31,191.18637013435364,,,,,,,,,,,,,,,,,,,,,,,,,,,,,,,,,,,,,,,,,,,,,,,,,,,,,,,,,,,,,,,,,,,,,,,,,,,,,,,,,141.0,141.0,125.0,200.0,200.0,125.0,2.1,2.12,-266,-257,0,-289,258,255,191.17197823524475,191.17202067375183,191.17412424087524,191.18637013435364,191.33662581443787,191.33662581443787,191.33662581443787,191.33662581443787,191.33662581443787,191.33662581443787,191.33662581443787,192.5543487071991,3,1.3664538860321045,None,,,,,,,,,,,,,,,,,,53,5,2025-02-19_14h09.22.357,comp,2024.2.4,60.18749470850499,2025-02-19 14h09.30.553126 -0500,
123,123,0,critical,dwh,35.0,4.0,lower,70.0,70.0,57.0,133.0,133.0,57.0,2,1.1829359531402588,None,,,,,0,0,0,0,0,123,123,64,192.5697536468506,,,,,,,,,,,,,,,,,,,,,,,,,,,,,,,,,,,,,,,,,,,,,,,,,,,,,,,,,,,,,,,,,,,,,,,,,,,,,,,,,70.0,70.0,57.0,133.0,133.0,57.0,4.0,4.1,-198,-280,0,1,191,-273,192.5551347732544,192.5551779270172,192.55726957321167,192.5697536468506,192.71983218193054,192.71983218193054,192.71983218193054,192.71983218193054,192.71983218193054,192.71983218193054,192.71983218193054,193.75409936904907,2,1.1829359531402588,None,,,,,,,,,,,,,,,,,,53,5,2025-02-19_14h09.22.357,comp,2024.2.4,60.18749470850499,2025-02-19 14h09.30.553126 -0500,
124,124,0,filler_random,None,None,None,None,None,None,None,None,None,None,1,1.6211555004119873,None,,,,,0,0,0,0,0,124,124,148,193.7698357105255,,,,,,,,,,,,,,,,,,,,,,,,,,,,,,,,,,,,,,,,,,,,,,,,,,,,,,,,,,,,,,,,,,,,,,,,,,,,,,,,,191.38619011139198,99.54167607052044,129.1968397973636,145.40869832609715,161.95724159638792,107.45350330493861,2.1,2.11,-218,280,0,280,222,-283,193.75496459007263,193.75500416755676,193.7568588256836,193.7698357105255,193.91985869407654,193.91985869407654,193.91985869407654,193.91985869407654,193.91985869407654,193.91985869407654,193.91985869407654,195.40413284301758,1,1.6211555004119873,None,,,,,,,,,,,,,,,,,,53,5,2025-02-19_14h09.22.357,comp,2024.2.4,60.18749470850499,2025-02-19 14h09.30.553126 -0500,
125,125,0,critical,hdw,35.0,4.0,lower,133.0,57.0,70.0,70.0,57.0,133.0,3,1.1003715991973877,None,,,,,0,0,0,0,0,125,125,112,195.4194507598877,,,,,,,,,,,,,,,,,,,,,,,,,,,,,,,,,,,,,,,,,,,,,,,,,,,,,,,,,,,,,,,,,,,,,,,,,,,,,,,,,133.0,57.0,70.0,70.0,57.0,133.0,4.0,4.2,-160,12,0,-288,198,-6,195.40494179725647,195.4049813747406,195.40759682655334,195.4194507598877,195.56962418556213,195.56962418556213,195.56962418556213,195.56962418556213,195.56962418556213,195.56962418556213,195.56962418556213,196.53727674484253,3,1.1003715991973877,None,,,,,,,,,,,,,,,,,,53,5,2025-02-19_14h09.22.357,comp,2024.2.4,60.18749470850499,2025-02-19 14h09.30.553126 -0500,
126,126,0,critical,dwh,35.0,3.0,lower,70.0,70.0,57.0,133.0,133.0,57.0,2,1.9747505187988281,None,,,,,0,0,0,0,0,126,126,62,196.5527834892273,,,,,,,,,,,,,,,,,,,,,,,,,,,,,,,,,,,,,,,,,,,,,,,,,,,,,,,,,,,,,,,,,,,,,,,,,,,,,,,,,70.0,70.0,57.0,133.0,133.0,57.0,3.0,3.1,-198,283,0,-1,191,-286,196.53803181648254,196.53806972503662,196.54014945030212,196.5527834892273,196.70303511619568,196.70303511619568,196.70303511619568,196.70303511619568,196.70303511619568,196.70303511619568,196.70303511619568,198.53739213943481,2,1.9747505187988281,None,,,,,,,,,,,,,,,,,,53,5,2025-02-19_14h09.22.357,comp,2024.2.4,60.18749470850499,2025-02-19 14h09.30.553126 -0500,
127,127,0,critical,dwh,20.0,2.1,lower,78.0,78.0,57.0,133.0,133.0,57.0,3,1.7100701332092285,None,,,,,0,0,0,0,0,127,127,30,198.55308198928833,,,,,,,,,,,,,,,,,,,,,,,,,,,,,,,,,,,,,,,,,,,,,,,,,,,,,,,,,,,,,,,,,,,,,,,,,,,,,,,,,78.0,78.0,57.0,133.0,133.0,57.0,2.1,2.12,-202,-275,0,-277,191,270,198.53815078735352,198.53819036483765,198.54037141799927,198.55308198928833,198.7030348777771,198.7030348777771,198.7030348777771,198.7030348777771,198.7030348777771,198.7030348777771,198.7030348777771,200.27148008346558,3,1.7100701332092285,None,,,,,,,,,,,,,,,,,,53,5,2025-02-19_14h09.22.357,comp,2024.2.4,60.18749470850499,2025-02-19 14h09.30.553126 -0500,
128,128,0,critical,hdw,35.0,2.1,lower,133.0,57.0,70.0,70.0,57.0,133.0,1,1.6494274139404297,None,,,,,0,0,0,0,0,128,128,44,200.28699851036072,,,,,,,,,,,,,,,,,,,,,,,,,,,,,,,,,,,,,,,,,,,,,,,,,,,,,,,,,,,,,,,,,,,,,,,,,,,,,,,,,133.0,57.0,70.0,70.0,57.0,133.0,2.1,2.11,-160,278,0,284,198,-290,200.27224826812744,200.27228808403015,200.2742042541504,200.28699851036072,200.4365315437317,200.4365315437317,200.4365315437317,200.4365315437317,200.4365315437317,200.4365315437317,200.4365315437317,201.95410776138306,1,1.6494274139404297,None,,,,,,,,,,,,,,,,,,53,5,2025-02-19_14h09.22.357,comp,2024.2.4,60.18749470850499,2025-02-19 14h09.30.553126 -0500,
129,129,0,filler_square,None,None,None,None,None,None,None,None,None,None,1,1.3668005466461182,None,,,,,0,0,0,0,0,129,129,193,201.96960020065308,,,,,,,,,,,,,,,,,,,,,,,,,,,,,,,,,,,,,,,,,,,,,,,,,,,,,,,,,,,,,,,,,,,,,,,,,,,,,,,,,73.7704708778454,73.7704708778454,67.93327579780463,71.30145548913254,65.97898084224379,64.94772233833612,2.1,2.11,-169,288,0,272,164,-259,201.9550907611847,201.9551305770874,201.9576153755188,201.96960020065308,202.1196768283844,202.1196768283844,202.1196768283844,202.1196768283844,202.1196768283844,202.1196768283844,202.1196768283844,203.3539252281189,1,1.3668005466461182,None,,,,,,,,,,,,,,,,,,53,5,2025-02-19_14h09.22.357,comp,2024.2.4,60.18749470850499,2025-02-19 14h09.30.553126 -0500,
130,130,0,critical,dhw,35.0,2.1,upper,127.0,127.0,200.0,125.0,125.0,200.0,3,1.0936598777770996,None,,,,,0,0,0,0,0,130,130,1,203.36937046051025,,,,,,,,,,,,,,,,,,,,,,,,,,,,,,,,,,,,,,,,,,,,,,,,,,,,,,,,,,,,,,,,,,,,,,,,,,,,,,,,,127.0,127.0,200.0,125.0,125.0,200.0,2.1,2.12,-222,-253,0,-256,258,283,203.35471034049988,203.35475039482117,203.35719513893127,203.36937046051025,203.5200231075287,203.5200231075287,203.5200231075287,203.5200231075287,203.5200231075287,203.5200231075287,203.5200231075287,204.4709415435791,3,1.0936598777770996,None,,,,,,,,,,,,,,,,,,53,5,2025-02-19_14h09.22.357,comp,2024.2.4,60.18749470850499,2025-02-19 14h09.30.553126 -0500,
131,131,0,catch,None,None,None,None,None,None,None,None,None,None,3,0.9131953716278076,None,,,,,0,0,0,0,0,131,131,124,204.48637986183167,,,,,,,,,,,,,,,,,,,,,,,,,,,,,,,,,,,,,,,,,,,,,,,,,,,,,,,,,,,,,,,,,,,,,,,,,,,,,,,,,111,79,126,64,169,156,3.0,3.1,-168,282,0,-2,206,-252,204.47195267677307,204.4719934463501,204.47459888458252,204.48637986183167,204.6364893913269,204.6364893913269,204.6364893913269,204.6364893913269,204.6364893913269,204.6364893913269,204.6364893913269,205.40414834022522,3,0.9131953716278076,None,,,,,,,,,,,,,,,,,,53,5,2025-02-19_14h09.22.357,comp,2024.2.4,60.18749470850499,2025-02-19 14h09.30.553126 -0500,
132,132,0,filler_square,None,None,None,None,None,None,None,None,None,None,3,1.2752978801727295,None,,,,,0,0,0,0,0,132,132,188,205.41967606544495,,,,,,,,,,,,,,,,,,,,,,,,,,,,,,,,,,,,,,,,,,,,,,,,,,,,,,,,,,,,,,,,,,,,,,,,,,,,,,,,,60.6394418000372,60.45997163631341,62.91994125178637,60.97586518991039,63.49979764619975,63.49979764619975,4.0,4.2,-157,17,0,-285,158,3,205.40512323379517,205.40516567230225,205.4072253704071,205.41967606544495,205.56962847709656,205.56962847709656,205.56962847709656,205.56962847709656,205.56962847709656,205.56962847709656,205.56962847709656,206.70387315750122,3,1.2752978801727295,None,,,,,,,,,,,,,,,,,,53,5,2025-02-19_14h09.22.357,comp,2024.2.4,60.18749470850499,2025-02-19 14h09.30.553126 -0500,
133,133,0,critical,hdw,35.0,2.1,upper,200.0,125.0,127.0,127.0,125.0,200.0,1,1.4335176944732666,None,,,,,0,0,0,0,0,133,133,21,206.71963763237,,,,,,,,,,,,,,,,,,,,,,,,,,,,,,,,,,,,,,,,,,,,,,,,,,,,,,,,,,,,,,,,,,,,,,,,,,,,,,,,,200.0,125.0,127.0,127.0,125.0,200.0,2.1,2.12,-222,-253,0,-263,260,280,206.70462346076965,206.70466136932373,206.70697569847107,206.71963763237,206.86974096298218,206.86974096298218,206.86974096298218,206.86974096298218,206.86974096298218,206.86974096298218,206.86974096298218,208.15457725524902,1,1.4335176944732666,None,,,,,,,,,,,,,,,,,,53,5,2025-02-19_14h09.22.357,comp,2024.2.4,60.18749470850499,2025-02-19 14h09.30.553126 -0500,
134,134,0,filler_random,None,None,None,None,None,None,None,None,None,None,2,0.8296418190002441,None,,,,,0,0,0,0,0,134,134,151,208.16973090171814,,,,,,,,,,,,,,,,,,,,,,,,,,,,,,,,,,,,,,,,,,,,,,,,,,,,,,,,,,,,,,,,,,,,,,,,,,,,,,,,,139.78158489105178,124.22609854619266,193.81243434701983,162.14628226307326,99.04253296721265,192.39968775273147,3.0,3.1,-239,275,0,-10,273,-275,208.15547108650208,208.15551209449768,208.1578197479248,208.16973090171814,208.3198699951172,208.3198699951172,208.3198699951172,208.3198699951172,208.3198699951172,208.3198699951172,208.3198699951172,209.0042600631714,2,0.8296418190002441,None,,,,,,,,,,,,,,,,,,53,5,2025-02-19_14h09.22.357,comp,2024.2.4,60.18749470850499,2025-02-19 14h09.30.553126 -0500,
135,135,0,filler_square,None,None,None,None,None,None,None,None,None,None,3,0.9385547637939453,None,,,,,0,0,0,0,0,135,135,174,209.01957893371582,,,,,,,,,,,,,,,,,,,,,,,,,,,,,,,,,,,,,,,,,,,,,,,,,,,,,,,,,,,,,,,,,,,,,,,,,,,,,,,,,71.59989242505026,70.89290777557477,58.450619516888516,57.745524533173864,79.85892776693258,79.85892776693258,3.0,3.1,-160,261,0,-8,165,-262,209.00518012046814,209.0052194595337,209.0071828365326,209.01957893371582,209.1695306301117,209.1695306301117,209.1695306301117,209.1695306301117,209.1695306301117,209.1695306301117,209.1695306301117,209.9705514907837,3,0.9385547637939453,None,,,,,,,,,,,,,,,,,,53,5,2025-02-19_14h09.22.357,comp,2024.2.4,60.18749470850499,2025-02-19 14h09.30.553126 -0500,
136,136,0,critical,dhw,20.0,4.0,upper,141.0,141.0,200.0,125.0,125.0,200.0,2,0.9827687740325928,None,,,,,0,0,0,0,0,136,136,59,209.98604655265808,,,,,,,,,,,,,,,,,,,,,,,,,,,,,,,,,,,,,,,,,,,,,,,,,,,,,,,,,,,,,,,,,,,,,,,,,,,,,,,,,141.0,141.0,200.0,125.0,125.0,200.0,4.0,4.1,-229,-251,0,-16,258,-259,209.97134470939636,209.97138714790344,209.97365021705627,209.98604655265808,210.13635635375977,210.13635635375977,210.13635635375977,210.13635635375977,210.13635635375977,210.13635635375977,210.13635635375977,210.97098350524902,2,0.9827687740325928,None,,,,,,,,,,,,,,,,,,53,5,2025-02-19_14h09.22.357,comp,2024.2.4,60.18749470850499,2025-02-19 14h09.30.553126 -0500,
137,137,0,critical,wdh,35.0,4.0,lower,57.0,133.0,70.0,70.0,133.0,57.0,3,0.9982311725616455,None,,,,,0,0,0,0,0,137,137,76,210.98628997802734,,,,,,,,,,,,,,,,,,,,,,,,,,,,,,,,,,,,,,,,,,,,,,,,,,,,,,,,,,,,,,,,,,,,,,,,,,,,,,,,,57.0,133.0,70.0,70.0,133.0,57.0,4.0,4.2,-198,-11,0,-282,160,-5,210.97177648544312,210.97181701660156,210.9739215373993,210.98628997802734,211.1363489627838,211.1363489627838,211.1363489627838,211.1363489627838,211.1363489627838,211.1363489627838,211.1363489627838,211.9874346256256,3,0.9982311725616455,None,,,,,,,,,,,,,,,,,,53,5,2025-02-19_14h09.22.357,comp,2024.2.4,60.18749470850499,2025-02-19 14h09.30.553126 -0500,
138,138,0,critical,dwh,35.0,2.1,lower,70.0,70.0,57.0,133.0,133.0,57.0,3,0.9711174964904785,None,,,,,0,0,0,0,0,138,138,4,212.00312423706055,,,,,,,,,,,,,,,,,,,,,,,,,,,,,,,,,,,,,,,,,,,,,,,,,,,,,,,,,,,,,,,,,,,,,,,,,,,,,,,,,70.0,70.0,57.0,133.0,133.0,57.0,2.1,2.11,-198,284,0,278,191,-277,211.9882161617279,211.98825597763062,211.99028778076172,212.00312423706055,212.15280485153198,212.15280485153198,212.15280485153198,212.15280485153198,212.15280485153198,212.15280485153198,212.15280485153198,212.98740005493164,3,0.9711174964904785,None,,,,,,,,,,,,,,,,,,53,5,2025-02-19_14h09.22.357,comp,2024.2.4,60.18749470850499,2025-02-19 14h09.30.553126 -0500,
139,139,0,critical,dhw,20.0,2.1,lower,78.0,78.0,133.0,57.0,57.0,133.0,3,1.550431489944458,None,,,,,0,0,0,0,0,139,139,2,213.0025794506073,,,,,,,,,,,,,,,,,,,,,,,,,,,,,,,,,,,,,,,,,,,,,,,,,,,,,,,,,,,,,,,,,,,,,,,,,,,,,,,,,78.0,78.0,133.0,57.0,57.0,133.0,2.1,2.11,-164,255,0,290,191,-284,212.9881682395935,212.98820877075195,212.99043941497803,213.0025794506073,213.15299701690674,213.15299701690674,213.15299701690674,213.15299701690674,213.15299701690674,213.15299701690674,213.15299701690674,214.57072830200195,3,1.550431489944458,None,,,,,,,,,,,,,,,,,,53,5,2025-02-19_14h09.22.357,comp,2024.2.4,60.18749470850499,2025-02-19 14h09.30.553126 -0500,
