thisN,thisTrialN,thisRepN,effect,order,distance,config,diag,h_1,w_1,h_2,w_2,h_3,w_3,rect_choice.keys,rect_choice.rt,rect_choice.duration,instructions_loop.thisRepN,instructions_loop.thisTrialN,instructions_loop.thisN,instructions_loop.thisIndex,blocks.thisRepN,blocks.thisTrialN,blocks.thisN,blocks.thisIndex,trials.thisRepN,trials.thisTrialN,trials.thisN,trials.thisIndex,thisRow.t,notes,consent.started,agree_button.started,decline_button.started,consent_img.started,mouse.started,consent.stopped,agree_button.numClicks,agree_button.timesOn,agree_button.timesOff,decline_button.numClicks,decline_button.timesOn,decline_button.timesOff,mouse.x,mouse.y,mouse.leftButton,mouse.midButton,mouse.rightButton,mouse.time,mouse.clicked_name,exp_params.started,exp_params.stopped,welcome.started,welcome_text.started,welcome.stopped,instructions_1.started,instructions_1_text_1.started,instructions_1_text_2.started,key_resp.started,instructions_1.stopped,instructions_loop.key_resp.keys,instructions_loop.key_resp.rt,instructions_loop.key_resp.duration,instructions_2.started,instructions_2_text_1.started,instructions_2_text_2.started,key_resp_2.started,instructions_2.stopped,instructions_loop.key_resp_2.keys,instructions_loop.key_resp_2.rt,instructions_loop.key_resp_2.duration,instructions_3.started,instructions_3_text_1.started,r1_instr3.started,r2_instr3.started,r3_instr3.started,r1_instr3_label.started,r2_instr3_label.started,r3_instr3_label.started,instructions_3_text_3.started,instructions_3_text_4.started,key_resp_3.started,instructions_3.stopped,instructions_loop.key_resp_3.keys,instructions_loop.key_resp_3.rt,instructions_loop.key_resp_3.duration,instructions_4.started,instructions_4_text_1.started,instructions_4_text_3.started,instructions_4_text_2.started,key_resp_4.started,instructions_4.stopped,instructions_loop.key_resp_4.keys,instructions_loop.key_resp_4.rt,instructions_loop.key_resp_4.duration,instructions_5.started,instructions_5_text_1.started,instructions_5_text_2.started,key_resp_5.started,instructions_5.stopped,instructions_loop.key_resp_5.keys,instructions_loop.key_resp_5.rt,instructions_loop.key_resp_5.duration,start_exp.started,start_exp_text.started,key_resp_6.started,start_exp.stopped,key_resp_6.keys,key_resp_6.rt,key_resp_6.duration,h_1_tmp,w_1_tmp,h_2_tmp,w_2_tmp,h_3_tmp,w_3_tmp,config_tmp,config_tmp_1,r_1_x,r_1_y,r_2_x,r_2_y,r_3_x,r_3_y,pre_trial.started,pre_trial.stopped,choice_trial.started,rect_choice.started,r_1.started,r_2.started,r_3.started,r_1_label.started,r_2_label.started,r_3_label.started,prompt.started,choice_trial.stopped,trials.rect_choice.keys,trials.rect_choice.rt,trials.rect_choice.duration,end_block.started,end_block_text.started,end_block.stopped,end.started,end_text.started,key_resp_7.started,end.stopped,key_resp_7.keys,key_resp_7.rt,key_resp_7.duration,debriefing.started,debrief_form.started,end_debrief.started,debriefing.stopped,end_debrief.keys,end_debrief.rt,end_debrief.duration,participant,computer,date,expName,psychopyVersion,frameRate,expStart,
,,,,,,,,,,,,,,,,,,,,,,,,,,,,,,,0.01538848876953125,0.03221750259399414,0.03221750259399414,0.03221750259399414,0.015186071395874023,31.997979402542114,1,[31.9631450176239],[31.96316695213318],0,,,"[-479.0, -89.0]","[101.0, -494.0]","[1, 1]","[0, 0]","[0, 0]","[23.239307641983032, 31.98202419281006]","[None, 'agree_button']",,,,,,,,,,,,,,,,,,,,,,,,,,,,,,,,,,,,,,,,,,,,,,,,,,,,,,,,,,,,,,,,,,,,,,,,,,,,,,,,,,,,,,,,,,,,,,,,,,,,,,,,,,,54,1,2025-02-19_15h53.32.854,comp,2024.2.4,57.66150995118235,2025-02-19 15h53.45.561168 -0500,
,,,,,,,,,,,,,,,,,,,,,,,,,,,,,,,,,,,,,,,,,,,,,,,,,,31.998714923858643,31.998782873153687,,,,,,,,,,,,,,,,,,,,,,,,,,,,,,,,,,,,,,,,,,,,,,,,,,,,,,,,,,,,,,,,,,,,,,,,,,,,,,,,,,,,,,,,,,,,,,,,,,,,,,,,,54,1,2025-02-19_15h53.32.854,comp,2024.2.4,57.66150995118235,2025-02-19 15h53.45.561168 -0500,
,,,,,,,,,,,,,,,,,,,,,,,,,,,,,,,,,,,,,,,,,,,,,,,,,,,,31.998825788497925,32.01469111442566,34.0066020488739,,,,,,,,,,,,,,,,,,,,,,,,,,,,,,,,,,,,,,,,,,,,,,,,,,,,,,,,,,,,,,,,,,,,,,,,,,,,,,,,,,,,,,,,,,,,,,,,,,,,,,54,1,2025-02-19_15h53.32.854,comp,2024.2.4,57.66150995118235,2025-02-19 15h53.45.561168 -0500,
0,0,0,,,,,,,,,,,,,,,0,0,0,0,,,,,,,,,34.02335596084595,,,,,,,,,,,,,,,,,,,,,,,,,,34.007556438446045,34.02335596084595,34.02335596084595,35.50979804992676,36.85922145843506,space,1.3390696048736572,None,36.8593647480011,36.87355613708496,36.87355613708496,38.37474012374878,47.36225771903992,space,8.985260725021362,None,47.3624062538147,47.39132738113403,47.39132738113403,47.39132738113403,47.39132738113403,47.39132738113403,47.39132738113403,47.39132738113403,47.39132738113403,47.39132738113403,48.860230684280396,52.74727535247803,space,3.867840051651001,None,52.74743056297302,52.7689688205719,52.7689688205719,52.7689688205719,54.25459098815918,58.446913957595825,space,4.177455186843872,None,58.447067975997925,58.462358236312866,58.462358236312866,59.962636947631836,61.55184507369995,space,1.5733919143676758,None,61.55203723907471,61.57014608383179,61.57014608383179,62.53322434425354,space,0.9584348201751709,None,,,,,,,,,,,,,,,,,,,,,,,,,,,,,,,,,,,,,,,,,,,,,,,54,1,2025-02-19_15h53.32.854,comp,2024.2.4,57.66150995118235,2025-02-19 15h53.45.561168 -0500,
0,0,0,critical,hwd,35.0,2.1,lower,133.0,57.0,57.0,133.0,70.0,70.0,2,8.110182285308838,None,,,,,0,0,0,0,0,0,0,40,62.609941720962524,,,,,,,,,,,,,,,,,,,,,,,,,,,,,,,,,,,,,,,,,,,,,,,,,,,,,,,,,,,,,,,,,,,,,,,,,,,,,,,,,133.0,57.0,57.0,133.0,70.0,70.0,2.1,2.11,-191,269,0,263,198,-288,62.59282875061035,62.59288311004639,62.59475374221802,62.609941720962524,62.75788998603821,62.75788998603821,62.75788998603821,62.75788998603821,62.75788998603821,62.75788998603821,62.75788998603821,70.73636364936829,2,8.110182285308838,None,,,,,,,,,,,,,,,,,,54,1,2025-02-19_15h53.32.854,comp,2024.2.4,57.66150995118235,2025-02-19 15h53.45.561168 -0500,
1,1,0,critical,wdh,35.0,3.0,upper,125.0,200.0,127.0,127.0,200.0,125.0,1,3.928804397583008,None,,,,,0,0,0,0,0,1,1,75,70.7515606880188,,,,,,,,,,,,,,,,,,,,,,,,,,,,,,,,,,,,,,,,,,,,,,,,,,,,,,,,,,,,,,,,,,,,,,,,,,,,,,,,,125.0,200.0,127.0,127.0,200.0,125.0,3.0,3.2,-260,-266,0,15,222,266,70.73792505264282,70.73799920082092,70.74129700660706,70.7515606880188,70.90086340904236,70.90086340904236,70.90086340904236,70.90086340904236,70.90086340904236,70.90086340904236,70.90086340904236,74.68806958198547,1,3.928804397583008,None,,,,,,,,,,,,,,,,,,54,1,2025-02-19_15h53.32.854,comp,2024.2.4,57.66150995118235,2025-02-19 15h53.45.561168 -0500,
2,2,0,critical,whd,20.0,3.0,upper,125.0,200.0,200.0,125.0,141.0,141.0,2,3.384291887283325,None,,,,,0,0,0,0,0,2,2,93,74.70437097549438,,,,,,,,,,,,,,,,,,,,,,,,,,,,,,,,,,,,,,,,,,,,,,,,,,,,,,,,,,,,,,,,,,,,,,,,,,,,,,,,,125.0,200.0,200.0,125.0,141.0,141.0,3.0,3.1,-258,265,0,10,229,-282,74.68954467773438,74.68962144851685,74.69360518455505,74.70437097549438,74.85079526901245,74.85079526901245,74.85079526901245,74.85079526901245,74.85079526901245,74.85079526901245,74.85079526901245,78.0940809249878,2,3.384291887283325,None,,,,,,,,,,,,,,,,,,54,1,2025-02-19_15h53.32.854,comp,2024.2.4,57.66150995118235,2025-02-19 15h53.45.561168 -0500,
3,3,0,critical,hwd,20.0,3.0,lower,133.0,57.0,57.0,133.0,78.0,78.0,3,2.425340175628662,None,,,,,0,0,0,0,0,3,3,104,78.11073088645935,,,,,,,,,,,,,,,,,,,,,,,,,,,,,,,,,,,,,,,,,,,,,,,,,,,,,,,,,,,,,,,,,,,,,,,,,,,,,,,,,133.0,57.0,57.0,133.0,78.0,78.0,3.0,3.1,-191,262,0,-16,202,-274,78.0956494808197,78.09572458267212,78.09898662567139,78.11073088645935,78.2544333934784,78.2544333934784,78.2544333934784,78.2544333934784,78.2544333934784,78.2544333934784,78.2544333934784,80.5419852733612,3,2.425340175628662,None,,,,,,,,,,,,,,,,,,54,1,2025-02-19_15h53.32.854,comp,2024.2.4,57.66150995118235,2025-02-19 15h53.45.561168 -0500,
4,4,0,critical,dhw,35.0,3.0,lower,70.0,70.0,133.0,57.0,57.0,133.0,1,4.431025981903076,None,,,,,0,0,0,0,0,4,4,50,80.56106281280518,,,,,,,,,,,,,,,,,,,,,,,,,,,,,,,,,,,,,,,,,,,,,,,,,,,,,,,,,,,,,,,,,,,,,,,,,,,,,,,,,70.0,70.0,133.0,57.0,57.0,133.0,3.0,3.2,-160,-263,0,-12,191,266,80.54370617866516,80.54378271102905,80.5470335483551,80.56106281280518,80.71072697639465,80.71072697639465,80.71072697639465,80.71072697639465,80.71072697639465,80.71072697639465,80.71072697639465,85.00422382354736,1,4.431025981903076,None,,,,,,,,,,,,,,,,,,54,1,2025-02-19_15h53.32.854,comp,2024.2.4,57.66150995118235,2025-02-19 15h53.45.561168 -0500,
5,5,0,critical,hdw,35.0,2.1,upper,200.0,125.0,127.0,127.0,125.0,200.0,1,1.4916267395019531,None,,,,,0,0,0,0,0,5,5,21,85.02052330970764,,,,,,,,,,,,,,,,,,,,,,,,,,,,,,,,,,,,,,,,,,,,,,,,,,,,,,,,,,,,,,,,,,,,,,,,,,,,,,,,,200.0,125.0,127.0,127.0,125.0,200.0,2.1,2.12,-222,-265,0,-283,260,256,85.0058159828186,85.00589227676392,85.00919032096863,85.02052330970764,85.16276454925537,85.16276454925537,85.16276454925537,85.16276454925537,85.16276454925537,85.16276454925537,85.16276454925537,86.52342224121094,1,1.4916267395019531,None,,,,,,,,,,,,,,,,,,54,1,2025-02-19_15h53.32.854,comp,2024.2.4,57.66150995118235,2025-02-19 15h53.45.561168 -0500,
6,6,0,critical,dhw,20.0,2.1,upper,141.0,141.0,200.0,125.0,125.0,200.0,3,1.760848045349121,None,,,,,0,0,0,0,0,6,6,27,86.54330396652222,,,,,,,,,,,,,,,,,,,,,,,,,,,,,,,,,,,,,,,,,,,,,,,,,,,,,,,,,,,,,,,,,,,,,,,,,,,,,,,,,141.0,141.0,200.0,125.0,125.0,200.0,2.1,2.11,-229,257,0,267,258,-275,86.5249445438385,86.52502346038818,86.52815413475037,86.54330396652222,86.69097375869751,86.69097375869751,86.69097375869751,86.69097375869751,86.69097375869751,86.69097375869751,86.69097375869751,88.3099992275238,3,1.760848045349121,None,,,,,,,,,,,,,,,,,,54,1,2025-02-19_15h53.32.854,comp,2024.2.4,57.66150995118235,2025-02-19 15h53.45.561168 -0500,
7,7,0,critical,dwh,20.0,3.0,upper,141.0,141.0,125.0,200.0,200.0,125.0,2,2.1674318313598633,None,,,,,0,0,0,0,0,7,7,69,88.32853865623474,,,,,,,,,,,,,,,,,,,,,,,,,,,,,,,,,,,,,,,,,,,,,,,,,,,,,,,,,,,,,,,,,,,,,,,,,,,,,,,,,141.0,141.0,125.0,200.0,200.0,125.0,3.0,3.1,-266,275,0,-16,258,-257,88.311683177948,88.31176257133484,88.31541562080383,88.32853865623474,88.47342157363892,88.47342157363892,88.47342157363892,88.47342157363892,88.47342157363892,88.47342157363892,88.47342157363892,90.50843691825867,2,2.1674318313598633,None,,,,,,,,,,,,,,,,,,54,1,2025-02-19_15h53.32.854,comp,2024.2.4,57.66150995118235,2025-02-19 15h53.45.561168 -0500,
8,8,0,critical,wdh,35.0,2.1,upper,125.0,200.0,127.0,127.0,200.0,125.0,1,2.0643982887268066,None,,,,,0,0,0,0,0,8,8,33,90.52763819694519,,,,,,,,,,,,,,,,,,,,,,,,,,,,,,,,,,,,,,,,,,,,,,,,,,,,,,,,,,,,,,,,,,,,,,,,,,,,,,,,,125.0,200.0,127.0,127.0,200.0,125.0,2.1,2.11,-260,258,0,284,222,-265,90.50995540618896,90.51003003120422,90.51307487487793,90.52763819694519,90.67500233650208,90.67500233650208,90.67500233650208,90.67500233650208,90.67500233650208,90.67500233650208,90.67500233650208,92.6085696220398,1,2.0643982887268066,None,,,,,,,,,,,,,,,,,,54,1,2025-02-19_15h53.32.854,comp,2024.2.4,57.66150995118235,2025-02-19 15h53.45.561168 -0500,
9,9,0,filler_random,None,None,None,None,None,None,None,None,None,None,3,2.351599931716919,None,,,,,0,0,0,0,0,9,9,158,92.6245424747467,,,,,,,,,,,,,,,,,,,,,,,,,,,,,,,,,,,,,,,,,,,,,,,,,,,,,,,,,,,,,,,,,,,,,,,,,,,,,,,,,140.64266788180743,82.49189827224839,156.7394636334305,107.21096497239773,139.90865775936675,198.5226870912073,3.0,3.2,-191,-267,0,-15,249,257,92.6102225780487,92.6102979183197,92.61342024803162,92.6245424747467,92.76517295837402,92.76517295837402,92.76517295837402,92.76517295837402,92.76517295837402,92.76517295837402,92.76517295837402,94.99312901496887,3,2.351599931716919,None,,,,,,,,,,,,,,,,,,54,1,2025-02-19_15h53.32.854,comp,2024.2.4,57.66150995118235,2025-02-19 15h53.45.561168 -0500,
10,10,0,filler_random,None,None,None,None,None,None,None,None,None,None,3,4.126264572143555,None,,,,,0,0,0,0,0,10,10,155,95.00983023643494,,,,,,,,,,,,,,,,,,,,,,,,,,,,,,,,,,,,,,,,,,,,,,,,,,,,,,,,,,,,,,,,,,,,,,,,,,,,,,,,,91.80508852490127,103.39021261283689,62.67883359829942,130.62739444858926,74.88763164279129,141.66733832330388,2.2,2.22,-213,284,0,-276,232,-260,94.99485349655151,94.99492835998535,94.99822068214417,95.00983023643494,95.16084146499634,95.16084146499634,95.16084146499634,95.16084146499634,95.16084146499634,95.16084146499634,95.16084146499634,99.15252256393433,3,4.126264572143555,None,,,,,,,,,,,,,,,,,,54,1,2025-02-19_15h53.32.854,comp,2024.2.4,57.66150995118235,2025-02-19 15h53.45.561168 -0500,
11,11,0,filler_square,None,None,None,None,None,None,None,None,None,None,1,6.998692512512207,None,,,,,0,0,0,0,0,11,11,178,99.16985940933228,,,,,,,,,,,,,,,,,,,,,,,,,,,,,,,,,,,,,,,,,,,,,,,,,,,,,,,,,,,,,,,,,,,,,,,,,,,,,,,,,57.447820970823685,57.103611352105425,57.481927467912485,57.05584052397629,57.55718297154529,57.55718297154529,3.0,3.2,-153,-273,0,-15,153,251,99.15423703193665,99.15431308746338,99.1571958065033,99.16985940933228,99.3112404346466,99.3112404346466,99.3112404346466,99.3112404346466,99.3112404346466,99.3112404346466,99.3112404346466,106.18294715881348,1,6.998692512512207,None,,,,,,,,,,,,,,,,,,54,1,2025-02-19_15h53.32.854,comp,2024.2.4,57.66150995118235,2025-02-19 15h53.45.561168 -0500,
12,12,0,critical,dwh,20.0,1.0,upper,141.0,141.0,125.0,200.0,200.0,125.0,2,4.938964605331421,None,,,,,0,0,0,0,0,12,12,67,106.19721579551697,,,,,,,,,,,,,,,,,,,,,,,,,,,,,,,,,,,,,,,,,,,,,,,,,,,,,,,,,,,,,,,,,,,,,,,,,,,,,,,,,141.0,141.0,125.0,200.0,200.0,125.0,1.0,1.1,-746,251,-480,252,-222,285,106.18466901779175,106.18476176261902,106.18814539909363,106.19721579551697,106.34444427490234,106.34444427490234,106.34444427490234,106.34444427490234,106.34444427490234,106.34444427490234,106.34444427490234,111.14927387237549,2,4.938964605331421,None,,,,,,,,,,,,,,,,,,54,1,2025-02-19_15h53.32.854,comp,2024.2.4,57.66150995118235,2025-02-19 15h53.45.561168 -0500,
13,13,0,filler_square,None,None,None,None,None,None,None,None,None,None,3,4.051100254058838,None,,,,,0,0,0,0,0,13,13,188,111.16499614715576,,,,,,,,,,,,,,,,,,,,,,,,,,,,,,,,,,,,,,,,,,,,,,,,,,,,,,,,,,,,,,,,,,,,,,,,,,,,,,,,,95.244521294567,150.6889533706072,174.26738325416522,174.26738325416522,111.30550192257955,120.04095280020222,2.1,2.12,-258,-286,0,-274,243,266,111.1511058807373,111.15118432044983,111.15438795089722,111.16499614715576,111.31989312171936,111.31989312171936,111.31989312171936,111.31989312171936,111.31989312171936,111.31989312171936,111.31989312171936,115.23440837860107,3,4.051100254058838,None,,,,,,,,,,,,,,,,,,54,1,2025-02-19_15h53.32.854,comp,2024.2.4,57.66150995118235,2025-02-19 15h53.45.561168 -0500,
14,14,0,critical,hdw,20.0,1.0,upper,200.0,125.0,141.0,141.0,125.0,200.0,3,3.1698856353759766,None,,,,,0,0,0,0,0,14,14,115,115.2542564868927,,,,,,,,,,,,,,,,,,,,,,,,,,,,,,,,,,,,,,,,,,,,,,,,,,,,,,,,,,,,,,,,,,,,,,,,,,,,,,,,,200.0,125.0,141.0,141.0,125.0,200.0,1.0,1.1,-709,269,-480,261,-214,285,115.23591160774231,115.23598766326904,115.23960661888123,115.2542564868927,115.39227104187012,115.39227104187012,115.39227104187012,115.39227104187012,115.39227104187012,115.39227104187012,115.39227104187012,118.43687987327576,3,3.1698856353759766,None,,,,,,,,,,,,,,,,,,54,1,2025-02-19_15h53.32.854,comp,2024.2.4,57.66150995118235,2025-02-19 15h53.45.561168 -0500,
15,15,0,critical,hdw,35.0,2.1,upper,200.0,125.0,127.0,127.0,125.0,200.0,3,1.9628195762634277,None,,,,,0,0,0,0,0,15,15,45,118.45339703559875,,,,,,,,,,,,,,,,,,,,,,,,,,,,,,,,,,,,,,,,,,,,,,,,,,,,,,,,,,,,,,,,,,,,,,,,,,,,,,,,,200.0,125.0,127.0,127.0,125.0,200.0,2.1,2.12,-222,-284,0,-285,260,278,118.43859004974365,118.43866777420044,118.44229793548584,118.45339703559875,118.60116720199585,118.60116720199585,118.60116720199585,118.60116720199585,118.60116720199585,118.60116720199585,118.60116720199585,120.41910481452942,3,1.9628195762634277,None,,,,,,,,,,,,,,,,,,54,1,2025-02-19_15h53.32.854,comp,2024.2.4,57.66150995118235,2025-02-19 15h53.45.561168 -0500,
16,16,0,critical,dhw,20.0,1.0,lower,78.0,78.0,133.0,57.0,57.0,133.0,1,2.9084296226501465,None,,,,,0,0,0,0,0,16,16,54,120.43653345108032,,,,,,,,,,,,,,,,,,,,,,,,,,,,,,,,,,,,,,,,,,,,,,,,,,,,,,,,,,,,,,,,,,,,,,,,,,,,,,,,,78.0,78.0,133.0,57.0,57.0,133.0,1.0,1.1,-644,261,-480,277,-289,266,120.42057204246521,120.42065095901489,120.42350792884827,120.43653345108032,120.58379101753235,120.58379101753235,120.58379101753235,120.58379101753235,120.58379101753235,120.58379101753235,120.58379101753235,123.35255098342896,1,2.9084296226501465,None,,,,,,,,,,,,,,,,,,54,1,2025-02-19_15h53.32.854,comp,2024.2.4,57.66150995118235,2025-02-19 15h53.45.561168 -0500,
17,17,0,filler_random,None,None,None,None,None,None,None,None,None,None,2,7.791810989379883,None,,,,,0,0,0,0,0,17,17,140,123.36822152137756,,,,,,,,,,,,,,,,,,,,,,,,,,,,,,,,,,,,,,,,,,,,,,,,,,,,,,,,,,,,,,,,,,,,,,,,,,,,,,,,,182.49906708938903,84.64822437444589,191.2949953899519,149.95314078437718,151.91291871066787,157.7239128380598,1.0,1.1,-693,271,-480,278,-230,252,123.35425281524658,123.35432934761047,123.35751533508301,123.36822152137756,123.51792287826538,123.51792287826538,123.51792287826538,123.51792287826538,123.51792287826538,123.51792287826538,123.51792287826538,131.17083382606506,2,7.791810989379883,None,,,,,,,,,,,,,,,,,,54,1,2025-02-19_15h53.32.854,comp,2024.2.4,57.66150995118235,2025-02-19 15h53.45.561168 -0500,
18,18,0,filler_square,None,None,None,None,None,None,None,None,None,None,2,3.1282548904418945,None,,,,,0,0,0,0,0,18,18,184,131.19208478927612,,,,,,,,,,,,,,,,,,,,,,,,,,,,,,,,,,,,,,,,,,,,,,,,,,,,,,,,,,,,,,,,,,,,,,,,,,,,,,,,,71.84931563448053,64.1018703891293,76.5587391928308,76.5587391928308,70.14280118399707,70.60060132588978,2.2,2.22,-166,253,0,-267,170,-283,131.17280554771423,131.1728835105896,131.1761291027069,131.19208478927612,131.3385145664215,131.3385145664215,131.3385145664215,131.3385145664215,131.3385145664215,131.3385145664215,131.3385145664215,134.34012937545776,2,3.1282548904418945,None,,,,,,,,,,,,,,,,,,54,1,2025-02-19_15h53.32.854,comp,2024.2.4,57.66150995118235,2025-02-19 15h53.45.561168 -0500,
19,19,0,critical,hdw,35.0,1.0,upper,200.0,125.0,127.0,127.0,125.0,200.0,3,2.955218553543091,None,,,,,0,0,0,0,0,19,19,109,134.35686326026917,,,,,,,,,,,,,,,,,,,,,,,,,,,,,,,,,,,,,,,,,,,,,,,,,,,,,,,,,,,,,,,,,,,,,,,,,,,,,,,,,200.0,125.0,127.0,127.0,125.0,200.0,1.0,1.1,-702,275,-480,281,-220,289,134.3417637348175,134.34185028076172,134.34528422355652,134.35686326026917,134.5083372592926,134.5083372592926,134.5083372592926,134.5083372592926,134.5083372592926,134.5083372592926,134.5083372592926,137.3228144645691,3,2.955218553543091,None,,,,,,,,,,,,,,,,,,54,1,2025-02-19_15h53.32.854,comp,2024.2.4,57.66150995118235,2025-02-19 15h53.45.561168 -0500,
20,20,0,filler_square,None,None,None,None,None,None,None,None,None,None,3,2.2442429065704346,None,,,,,0,0,0,0,0,20,20,186,137.33983826637268,,,,,,,,,,,,,,,,,,,,,,,,,,,,,,,,,,,,,,,,,,,,,,,,,,,,,,,,,,,,,,,,,,,,,,,,,,,,,,,,,125.55310140748573,113.14913807527972,84.02995533209821,71.99757728934028,134.07270281999968,134.07270281999968,2.1,2.12,-189,-273,0,-259,199,259,137.32460141181946,137.32470273971558,137.32801413536072,137.33983826637268,137.4905776977539,137.4905776977539,137.4905776977539,137.4905776977539,137.4905776977539,137.4905776977539,137.4905776977539,139.60017824172974,3,2.2442429065704346,None,,,,,,,,,,,,,,,,,,54,1,2025-02-19_15h53.32.854,comp,2024.2.4,57.66150995118235,2025-02-19 15h53.45.561168 -0500,
21,21,0,filler_random,None,None,None,None,None,None,None,None,None,None,2,1.9506042003631592,None,,,,,0,0,0,0,0,21,21,147,139.61802196502686,,,,,,,,,,,,,,,,,,,,,,,,,,,,,,,,,,,,,,,,,,,,,,,,,,,,,,,,,,,,,,,,,,,,,,,,,,,,,,,,,69.8204427869236,61.50207021812338,141.5583479402482,124.70470859342844,59.13010895836348,186.2571517229282,2.1,2.11,-189,278,0,283,251,-290,139.60201263427734,139.60214376449585,139.60543751716614,139.61802196502686,139.7588996887207,139.7588996887207,139.7588996887207,139.7588996887207,139.7588996887207,139.7588996887207,139.7588996887207,141.5740134716034,2,1.9506042003631592,None,,,,,,,,,,,,,,,,,,54,1,2025-02-19_15h53.32.854,comp,2024.2.4,57.66150995118235,2025-02-19 15h53.45.561168 -0500,
22,22,0,filler_square,None,None,None,None,None,None,None,None,None,None,1,1.762040376663208,None,,,,,0,0,0,0,0,22,22,195,141.59066605567932,,,,,,,,,,,,,,,,,,,,,,,,,,,,,,,,,,,,,,,,,,,,,,,,,,,,,,,,,,,,,,,,,,,,,,,,,,,,,,,,,180.89476215330012,180.89476215330012,96.48162402634736,137.69623999216844,147.3049811877466,72.76216163501341,3.0,3.1,-255,259,0,-19,201,-261,141.57578468322754,141.57586288452148,141.57893872261047,141.59066605567932,141.74160885810852,141.74160885810852,141.74160885810852,141.74160885810852,141.74160885810852,141.74160885810852,141.74160885810852,143.35779309272766,1,1.762040376663208,None,,,,,,,,,,,,,,,,,,54,1,2025-02-19_15h53.32.854,comp,2024.2.4,57.66150995118235,2025-02-19 15h53.45.561168 -0500,
23,23,0,critical,dwh,20.0,2.1,lower,78.0,78.0,57.0,133.0,133.0,57.0,1,2.8179514408111572,None,,,,,0,0,0,0,0,23,23,30,143.374125957489,,,,,,,,,,,,,,,,,,,,,,,,,,,,,,,,,,,,,,,,,,,,,,,,,,,,,,,,,,,,,,,,,,,,,,,,,,,,,,,,,78.0,78.0,57.0,133.0,133.0,57.0,2.1,2.11,-202,256,0,276,191,-286,143.35927176475525,143.35934805870056,143.36243271827698,143.374125957489,143.5252652168274,143.5252652168274,143.5252652168274,143.5252652168274,143.5252652168274,143.5252652168274,143.5252652168274,146.20839500427246,1,2.8179514408111572,None,,,,,,,,,,,,,,,,,,54,1,2025-02-19_15h53.32.854,comp,2024.2.4,57.66150995118235,2025-02-19 15h53.45.561168 -0500,
24,24,0,filler_square,None,None,None,None,None,None,None,None,None,None,3,1.3432972431182861,None,,,,,0,0,0,0,0,24,24,177,146.2247965335846,,,,,,,,,,,,,,,,,,,,,,,,,,,,,,,,,,,,,,,,,,,,,,,,,,,,,,,,,,,,,,,,,,,,,,,,,,,,,,,,,126.34702743390105,152.73225569337356,96.72412541023908,111.10793667148585,154.46719127000702,154.46719127000702,2.1,2.12,-228,-270,0,-270,229,266,146.21031618118286,146.21039485931396,146.21359872817993,146.2247965335846,146.36590814590454,146.36590814590454,146.36590814590454,146.36590814590454,146.36590814590454,146.36590814590454,146.36590814590454,147.58103847503662,3,1.3432972431182861,None,,,,,,,,,,,,,,,,,,54,1,2025-02-19_15h53.32.854,comp,2024.2.4,57.66150995118235,2025-02-19 15h53.45.561168 -0500,
25,25,0,critical,whd,35.0,4.0,upper,125.0,200.0,200.0,125.0,127.0,127.0,1,1.8635871410369873,None,,,,,0,0,0,0,0,25,25,89,147.6006212234497,,,,,,,,,,,,,,,,,,,,,,,,,,,,,,,,,,,,,,,,,,,,,,,,,,,,,,,,,,,,,,,,,,,,,,,,,,,,,,,,,125.0,200.0,200.0,125.0,127.0,127.0,4.0,4.2,-258,-18,0,-277,222,-16,147.58262848854065,147.58270621299744,147.58558630943298,147.6006212234497,147.74392533302307,147.74392533302307,147.74392533302307,147.74392533302307,147.74392533302307,147.74392533302307,147.74392533302307,149.4787096977234,1,1.8635871410369873,None,,,,,,,,,,,,,,,,,,54,1,2025-02-19_15h53.32.854,comp,2024.2.4,57.66150995118235,2025-02-19 15h53.45.561168 -0500,
26,26,0,critical,dhw,20.0,2.1,upper,141.0,141.0,200.0,125.0,125.0,200.0,3,1.5791923999786377,None,,,,,0,0,0,0,0,26,26,3,149.49403858184814,,,,,,,,,,,,,,,,,,,,,,,,,,,,,,,,,,,,,,,,,,,,,,,,,,,,,,,,,,,,,,,,,,,,,,,,,,,,,,,,,141.0,141.0,200.0,125.0,125.0,200.0,2.1,2.12,-229,-267,0,-258,258,252,149.4803011417389,149.48042368888855,149.48377513885498,149.49403858184814,149.6438386440277,149.6438386440277,149.6438386440277,149.6438386440277,149.6438386440277,149.6438386440277,149.6438386440277,151.077974319458,3,1.5791923999786377,None,,,,,,,,,,,,,,,,,,54,1,2025-02-19_15h53.32.854,comp,2024.2.4,57.66150995118235,2025-02-19 15h53.45.561168 -0500,
27,27,0,filler_random,None,None,None,None,None,None,None,None,None,None,1,2.171090841293335,None,,,,,0,0,0,0,0,27,27,153,151.0931625366211,,,,,,,,,,,,,,,,,,,,,,,,,,,,,,,,,,,,,,,,,,,,,,,,,,,,,,,,,,,,,,,,,,,,,,,,,,,,,,,,,93.50485190293084,143.06797140797457,114.51778278851172,57.77828695390384,124.87786022309193,93.31570049521102,3.0,3.1,-196,273,0,-4,172,-275,151.07986569404602,151.07996535301208,151.08329224586487,151.0931625366211,151.2437744140625,151.2437744140625,151.2437744140625,151.2437744140625,151.2437744140625,151.2437744140625,151.2437744140625,153.2789225578308,1,2.171090841293335,None,,,,,,,,,,,,,,,,,,54,1,2025-02-19_15h53.32.854,comp,2024.2.4,57.66150995118235,2025-02-19 15h53.45.561168 -0500,
28,28,0,filler_random,None,None,None,None,None,None,None,None,None,None,3,1.225276231765747,None,,,,,0,0,0,0,0,28,28,154,153.2948019504547,,,,,,,,,,,,,,,,,,,,,,,,,,,,,,,,,,,,,,,,,,,,,,,,,,,,,,,,,,,,,,,,,,,,,,,,,,,,,,,,,62.281625566774665,132.41206585249847,128.18807336329763,66.56832076929942,173.89822400400573,144.02859609750422,3.0,3.1,-195,254,0,19,201,-252,153.28073263168335,153.28086709976196,153.28440237045288,153.2948019504547,153.44330716133118,153.44330716133118,153.44330716133118,153.44330716133118,153.44330716133118,153.44330716133118,153.44330716133118,154.53628587722778,3,1.225276231765747,None,,,,,,,,,,,,,,,,,,54,1,2025-02-19_15h53.32.854,comp,2024.2.4,57.66150995118235,2025-02-19 15h53.45.561168 -0500,
29,29,0,critical,hwd,35.0,4.0,lower,133.0,57.0,57.0,133.0,70.0,70.0,2,6.007750511169434,None,,,,,0,0,0,0,0,29,29,100,154.55253052711487,,,,,,,,,,,,,,,,,,,,,,,,,,,,,,,,,,,,,,,,,,,,,,,,,,,,,,,,,,,,,,,,,,,,,,,,,,,,,,,,,133.0,57.0,57.0,133.0,70.0,70.0,4.0,4.2,-191,1,0,-264,198,-17,154.537930727005,154.53800749778748,154.54124236106873,154.55253052711487,154.69904685020447,154.69904685020447,154.69904685020447,154.69904685020447,154.69904685020447,154.69904685020447,154.69904685020447,160.5647795200348,2,6.007750511169434,None,,,,,,,,,,,,,,,,,,54,1,2025-02-19_15h53.32.854,comp,2024.2.4,57.66150995118235,2025-02-19 15h53.45.561168 -0500,
30,30,0,critical,dhw,35.0,2.1,upper,127.0,127.0,200.0,125.0,125.0,200.0,2,2.8440654277801514,None,,,,,0,0,0,0,0,30,30,1,160.5807454586029,,,,,,,,,,,,,,,,,,,,,,,,,,,,,,,,,,,,,,,,,,,,,,,,,,,,,,,,,,,,,,,,,,,,,,,,,,,,,,,,,127.0,127.0,200.0,125.0,125.0,200.0,2.1,2.12,-222,-262,0,-276,258,268,160.5662796497345,160.56635808944702,160.56978964805603,160.5807454586029,160.73000574111938,160.73000574111938,160.73000574111938,160.73000574111938,160.73000574111938,160.73000574111938,160.73000574111938,163.43305706977844,2,2.8440654277801514,None,,,,,,,,,,,,,,,,,,54,1,2025-02-19_15h53.32.854,comp,2024.2.4,57.66150995118235,2025-02-19 15h53.45.561168 -0500,
31,31,0,filler_square,None,None,None,None,None,None,None,None,None,None,3,1.5186033248901367,None,,,,,0,0,0,0,0,31,31,189,163.44955968856812,,,,,,,,,,,,,,,,,,,,,,,,,,,,,,,,,,,,,,,,,,,,,,,,,,,,,,,,,,,,,,,,,,,,,,,,,,,,,,,,,94.06006441817374,78.99414423538065,163.31639097115686,70.78163652953762,180.30134994964055,180.30134994964055,3.0,3.2,-171,-275,0,13,222,251,163.43496203422546,163.43509244918823,163.43882989883423,163.44955968856812,163.59828281402588,163.59828281402588,163.59828281402588,163.59828281402588,163.59828281402588,163.59828281402588,163.59828281402588,164.98699808120728,3,1.5186033248901367,None,,,,,,,,,,,,,,,,,,54,1,2025-02-19_15h53.32.854,comp,2024.2.4,57.66150995118235,2025-02-19 15h53.45.561168 -0500,
32,32,0,critical,wdh,20.0,4.0,lower,57.0,133.0,78.0,78.0,133.0,57.0,2,2.3143646717071533,None,,,,,0,0,0,0,0,32,32,82,165.00621557235718,,,,,,,,,,,,,,,,,,,,,,,,,,,,,,,,,,,,,,,,,,,,,,,,,,,,,,,,,,,,,,,,,,,,,,,,,,,,,,,,,57.0,133.0,78.0,78.0,133.0,57.0,4.0,4.2,-202,14,0,-254,164,10,164.98850107192993,164.98857736587524,164.9914207458496,165.00621557235718,165.1497790813446,165.1497790813446,165.1497790813446,165.1497790813446,165.1497790813446,165.1497790813446,165.1497790813446,167.33737134933472,2,2.3143646717071533,None,,,,,,,,,,,,,,,,,,54,1,2025-02-19_15h53.32.854,comp,2024.2.4,57.66150995118235,2025-02-19 15h53.45.561168 -0500,
33,33,0,critical,hwd,20.0,4.0,lower,133.0,57.0,57.0,133.0,78.0,78.0,2,4.811266899108887,None,,,,,0,0,0,0,0,33,33,106,167.35702252388,,,,,,,,,,,,,,,,,,,,,,,,,,,,,,,,,,,,,,,,,,,,,,,,,,,,,,,,,,,,,,,,,,,,,,,,,,,,,,,,,133.0,57.0,57.0,133.0,78.0,78.0,4.0,4.1,-191,-276,0,15,202,-254,167.3388843536377,167.33896112442017,167.34180760383606,167.35702252388,167.5049831867218,167.5049831867218,167.5049831867218,167.5049831867218,167.5049831867218,167.5049831867218,167.5049831867218,172.17062616348267,2,4.811266899108887,None,,,,,,,,,,,,,,,,,,54,1,2025-02-19_15h53.32.854,comp,2024.2.4,57.66150995118235,2025-02-19 15h53.45.561168 -0500,
34,34,0,critical,hdw,35.0,1.0,lower,133.0,57.0,70.0,70.0,57.0,133.0,1,4.661954164505005,None,,,,,0,0,0,0,0,34,34,108,172.18655920028687,,,,,,,,,,,,,,,,,,,,,,,,,,,,,,,,,,,,,,,,,,,,,,,,,,,,,,,,,,,,,,,,,,,,,,,,,,,,,,,,,133.0,57.0,70.0,70.0,57.0,133.0,1.0,1.3,320,-278,480,-265,678,-273,172.17227602005005,172.17239618301392,172.17569065093994,172.18655920028687,172.3332302570343,172.3332302570343,172.3332302570343,172.3332302570343,172.3332302570343,172.3332302570343,172.3332302570343,176.85822296142578,1,4.661954164505005,None,,,,,,,,,,,,,,,,,,54,1,2025-02-19_15h53.32.854,comp,2024.2.4,57.66150995118235,2025-02-19 15h53.45.561168 -0500,
35,35,0,critical,dwh,35.0,1.0,upper,127.0,127.0,125.0,200.0,200.0,125.0,2,4.156668186187744,None,,,,,0,0,0,0,0,35,35,61,176.87582230567932,,,,,,,,,,,,,,,,,,,,,,,,,,,,,,,,,,,,,,,,,,,,,,,,,,,,,,,,,,,,,,,,,,,,,,,,,,,,,,,,,127.0,127.0,125.0,200.0,200.0,125.0,1.0,1.3,220,-289,480,-280,738,-278,176.859765291214,176.85984468460083,176.86271929740906,176.87582230567932,177.01929640769958,177.01929640769958,177.01929640769958,177.01929640769958,177.01929640769958,177.01929640769958,177.01929640769958,181.03788304328918,2,4.156668186187744,None,,,,,,,,,,,,,,,,,,54,1,2025-02-19_15h53.32.854,comp,2024.2.4,57.66150995118235,2025-02-19 15h53.45.561168 -0500,
36,36,0,filler_random,None,None,None,None,None,None,None,None,None,None,1,1.5751054286956787,None,,,,,0,0,0,0,0,36,36,130,181.05719804763794,,,,,,,,,,,,,,,,,,,,,,,,,,,,,,,,,,,,,,,,,,,,,,,,,,,,,,,,,,,,,,,,,,,,,,,,,,,,,,,,,122.12253620742332,184.1457287624732,123.49450784561364,68.85155412970235,113.97925251552725,133.04264052932416,1.0,1.1,-702,257,-480,277,-283,279,181.03954768180847,181.03962635993958,181.04342341423035,181.05719804763794,181.20450806617737,181.20450806617737,181.20450806617737,181.20450806617737,181.20450806617737,181.20450806617737,181.20450806617737,182.64491534233093,1,1.5751054286956787,None,,,,,,,,,,,,,,,,,,54,1,2025-02-19_15h53.32.854,comp,2024.2.4,57.66150995118235,2025-02-19 15h53.45.561168 -0500,
37,37,0,filler_square,None,None,None,None,None,None,None,None,None,None,1,1.511115550994873,None,,,,,0,0,0,0,0,37,37,209,182.66530346870422,,,,,,,,,,,,,,,,,,,,,,,,,,,,,,,,,,,,,,,,,,,,,,,,,,,,,,,,,,,,,,,,,,,,,,,,,,,,,,,,,142.7755166705624,142.7755166705624,120.93153901557949,77.92300468344092,100.46712734492193,134.93472377417598,1.0,1.2,-206,19,0,11,202,-19,182.6466805934906,182.64675998687744,182.64971804618835,182.66530346870422,182.8011736869812,182.8011736869812,182.8011736869812,182.8011736869812,182.8011736869812,182.8011736869812,182.8011736869812,184.19266629219055,1,1.511115550994873,None,,,,,,,,,,,,,,,,,,54,1,2025-02-19_15h53.32.854,comp,2024.2.4,57.66150995118235,2025-02-19 15h53.45.561168 -0500,
38,38,0,critical,whd,35.0,3.0,upper,125.0,200.0,200.0,125.0,127.0,127.0,2,3.9727706909179688,None,,,,,0,0,0,0,0,38,38,87,184.21169447898865,,,,,,,,,,,,,,,,,,,,,,,,,,,,,,,,,,,,,,,,,,,,,,,,,,,,,,,,,,,,,,,,,,,,,,,,,,,,,,,,,125.0,200.0,200.0,125.0,127.0,127.0,3.0,3.1,-258,283,0,-16,222,-258,184.19420504570007,184.19428062438965,184.19717049598694,184.21169447898865,184.35550618171692,184.35550618171692,184.35550618171692,184.35550618171692,184.35550618171692,184.35550618171692,184.35550618171692,188.1896731853485,2,3.9727706909179688,None,,,,,,,,,,,,,,,,,,54,1,2025-02-19_15h53.32.854,comp,2024.2.4,57.66150995118235,2025-02-19 15h53.45.561168 -0500,
39,39,0,filler_square,None,None,None,None,None,None,None,None,None,None,2,2.0972087383270264,None,,,,,0,0,0,0,0,39,39,207,188.2075550556183,,,,,,,,,,,,,,,,,,,,,,,,,,,,,,,,,,,,,,,,,,,,,,,,,,,,,,,,,,,,,,,,,,,,,,,,,,,,,,,,,150.32614354394127,137.5417469606108,156.00483063959604,156.00483063959604,149.47074849601543,89.56065369396102,4.0,4.1,-243,-274,0,-6,219,-278,188.19135451316833,188.1914324760437,188.19446969032288,188.2075550556183,188.35685801506042,188.35685801506042,188.35685801506042,188.35685801506042,188.35685801506042,188.35685801506042,188.35685801506042,190.3115804195404,2,2.0972087383270264,None,,,,,,,,,,,,,,,,,,54,1,2025-02-19_15h53.32.854,comp,2024.2.4,57.66150995118235,2025-02-19 15h53.45.561168 -0500,
40,40,0,filler_square,None,None,None,None,None,None,None,None,None,None,3,1.2636096477508545,None,,,,,0,0,0,0,0,40,40,201,190.32856249809265,,,,,,,,,,,,,,,,,,,,,,,,,,,,,,,,,,,,,,,,,,,,,,,,,,,,,,,,,,,,,,,,,,,,,,,,,,,,,,,,,65.38084509860056,130.05591649111662,131.6743207253786,82.97213276724014,146.30476314211512,146.30476314211512,4.0,4.1,-203,-278,0,11,211,-288,190.3135221004486,190.31360483169556,190.316752910614,190.32856249809265,190.4719295501709,190.4719295501709,190.4719295501709,190.4719295501709,190.4719295501709,190.4719295501709,190.4719295501709,191.60653924942017,3,1.2636096477508545,None,,,,,,,,,,,,,,,,,,54,1,2025-02-19_15h53.32.854,comp,2024.2.4,57.66150995118235,2025-02-19 15h53.45.561168 -0500,
41,41,0,catch,None,None,None,None,None,None,None,None,None,None,1,1.5209052562713623,None,,,,,0,0,0,0,0,41,41,128,191.6233992576599,,,,,,,,,,,,,,,,,,,,,,,,,,,,,,,,,,,,,,,,,,,,,,,,,,,,,,,,,,,,,,,,,,,,,,,,,,,,,,,,,131,194,131,59,117,73,4.0,4.2,-222,9,0,-280,162,9,191.60833525657654,191.60841345787048,191.61158776283264,191.6233992576599,191.7746193408966,191.7746193408966,191.7746193408966,191.7746193408966,191.7746193408966,191.7746193408966,191.7746193408966,193.15883469581604,1,1.5209052562713623,None,,,,,,,,,,,,,,,,,,54,1,2025-02-19_15h53.32.854,comp,2024.2.4,57.66150995118235,2025-02-19 15h53.45.561168 -0500,
42,42,0,catch,None,None,None,None,None,None,None,None,None,None,2,1.1700439453125,None,,,,,0,0,0,0,0,42,42,129,193.17417240142822,,,,,,,,,,,,,,,,,,,,,,,,,,,,,,,,,,,,,,,,,,,,,,,,,,,,,,,,,,,,,,,,,,,,,,,,,,,,,,,,,84,106,172,153,66,124,2.1,2.11,-226,260,0,277,234,-281,193.16068649291992,193.16079831123352,193.16391801834106,193.17417240142822,193.3202826976776,193.3202826976776,193.3202826976776,193.3202826976776,193.3202826976776,193.3202826976776,193.3202826976776,194.3586823940277,2,1.1700439453125,None,,,,,,,,,,,,,,,,,,54,1,2025-02-19_15h53.32.854,comp,2024.2.4,57.66150995118235,2025-02-19 15h53.45.561168 -0500,
43,43,0,critical,whd,35.0,1.0,lower,57.0,133.0,133.0,57.0,70.0,70.0,1,1.7303531169891357,None,,,,,0,0,0,0,0,43,43,84,194.3742425441742,,,,,,,,,,,,,,,,,,,,,,,,,,,,,,,,,,,,,,,,,,,,,,,,,,,,,,,,,,,,,,,,,,,,,,,,,,,,,,,,,57.0,133.0,133.0,57.0,70.0,70.0,1.0,1.2,-191,9,0,14,160,2,194.36025953292847,194.36033630371094,194.3638949394226,194.3742425441742,194.52687859535217,194.52687859535217,194.52687859535217,194.52687859535217,194.52687859535217,194.52687859535217,194.52687859535217,196.10762405395508,1,1.7303531169891357,None,,,,,,,,,,,,,,,,,,54,1,2025-02-19_15h53.32.854,comp,2024.2.4,57.66150995118235,2025-02-19 15h53.45.561168 -0500,
44,44,0,filler_random,None,None,None,None,None,None,None,None,None,None,1,1.7399342060089111,None,,,,,0,0,0,0,0,44,44,137,196.12421321868896,,,,,,,,,,,,,,,,,,,,,,,,,,,,,,,,,,,,,,,,,,,,,,,,,,,,,,,,,,,,,,,,,,,,,,,,,,,,,,,,,138.35920973821794,193.85994610582702,177.54411892129264,74.87458532857377,141.60841111829117,103.75106317430738,2.2,2.22,-230,284,0,-271,185,-254,196.10939645767212,196.10955786705017,196.1128900051117,196.12421321868896,196.27423644065857,196.27423644065857,196.27423644065857,196.27423644065857,196.27423644065857,196.27423644065857,196.27423644065857,197.87514638900757,1,1.7399342060089111,None,,,,,,,,,,,,,,,,,,54,1,2025-02-19_15h53.32.854,comp,2024.2.4,57.66150995118235,2025-02-19 15h53.45.561168 -0500,
45,45,0,critical,dwh,35.0,3.0,lower,70.0,70.0,57.0,133.0,133.0,57.0,2,3.4049572944641113,None,,,,,0,0,0,0,0,45,45,62,197.89119958877563,,,,,,,,,,,,,,,,,,,,,,,,,,,,,,,,,,,,,,,,,,,,,,,,,,,,,,,,,,,,,,,,,,,,,,,,,,,,,,,,,70.0,70.0,57.0,133.0,133.0,57.0,3.0,3.2,-198,-278,0,15,191,278,197.8766393661499,197.87671542167664,197.87982368469238,197.89119958877563,198.0471489429474,198.0471489429474,198.0471489429474,198.0471489429474,198.0471489429474,198.0471489429474,198.0471489429474,201.30992984771729,2,3.4049572944641113,None,,,,,,,,,,,,,,,,,,54,1,2025-02-19_15h53.32.854,comp,2024.2.4,57.66150995118235,2025-02-19 15h53.45.561168 -0500,
46,46,0,filler_random,None,None,None,None,None,None,None,None,None,None,2,1.6594386100769043,None,,,,,0,0,0,0,0,46,46,138,201.32550191879272,,,,,,,,,,,,,,,,,,,,,,,,,,,,,,,,,,,,,,,,,,,,,,,,,,,,,,,,,,,,,,,,,,,,,,,,,,,,,,,,,78.32519703087962,195.79184638372465,95.12037547957195,177.6530644435477,67.38422383940392,172.28047142651045,3.0,3.1,-283,269,0,-4,271,-256,201.31155824661255,201.3116331100464,201.31482768058777,201.32550191879272,201.4805462360382,201.4805462360382,201.4805462360382,201.4805462360382,201.4805462360382,201.4805462360382,201.4805462360382,202.9947452545166,2,1.6594386100769043,None,,,,,,,,,,,,,,,,,,54,1,2025-02-19_15h53.32.854,comp,2024.2.4,57.66150995118235,2025-02-19 15h53.45.561168 -0500,
47,47,0,critical,wdh,35.0,4.0,upper,125.0,200.0,127.0,127.0,200.0,125.0,3,3.3732597827911377,None,,,,,0,0,0,0,0,47,47,77,203.01086401939392,,,,,,,,,,,,,,,,,,,,,,,,,,,,,,,,,,,,,,,,,,,,,,,,,,,,,,,,,,,,,,,,,,,,,,,,,,,,,,,,,125.0,200.0,127.0,127.0,200.0,125.0,4.0,4.2,-260,-17,0,-262,222,9,202.99637484550476,202.99648189544678,202.99999594688416,203.01086401939392,203.15830659866333,203.15830659866333,203.15830659866333,203.15830659866333,203.15830659866333,203.15830659866333,203.15830659866333,206.39446687698364,3,3.3732597827911377,None,,,,,,,,,,,,,,,,,,54,1,2025-02-19_15h53.32.854,comp,2024.2.4,57.66150995118235,2025-02-19 15h53.45.561168 -0500,
48,48,0,filler_square,None,None,None,None,None,None,None,None,None,None,1,3.3560924530029297,None,,,,,0,0,0,0,0,48,48,180,206.41256880760193,,,,,,,,,,,,,,,,,,,,,,,,,,,,,,,,,,,,,,,,,,,,,,,,,,,,,,,,,,,,,,,,,,,,,,,,,,,,,,,,,141.042667410459,141.042667410459,118.9008804246569,124.37140564245387,58.00907753497804,134.00316058843867,2.1,2.12,-229,-271,0,-274,225,250,206.39619994163513,206.39627814292908,206.39947700500488,206.41256880760193,206.56242060661316,206.56242060661316,206.56242060661316,206.56242060661316,206.56242060661316,206.56242060661316,206.56242060661316,209.78084254264832,1,3.3560924530029297,None,,,,,,,,,,,,,,,,,,54,1,2025-02-19_15h53.32.854,comp,2024.2.4,57.66150995118235,2025-02-19 15h53.45.561168 -0500,
49,49,0,filler_square,None,None,None,None,None,None,None,None,None,None,3,1.219120740890503,None,,,,,0,0,0,0,0,49,49,181,209.79710364341736,,,,,,,,,,,,,,,,,,,,,,,,,,,,,,,,,,,,,,,,,,,,,,,,,,,,,,,,,,,,,,,,,,,,,,,,,,,,,,,,,116.34053417684773,108.60945736249369,71.30765716501126,86.46352108170852,179.0290243182452,179.0290243182452,2.2,2.22,-194,262,0,-263,229,-271,209.7827343940735,209.78281593322754,209.78621196746826,209.79710364341736,209.94299006462097,209.94299006462097,209.94299006462097,209.94299006462097,209.94299006462097,209.94299006462097,209.94299006462097,211.03001761436462,3,1.219120740890503,None,,,,,,,,,,,,,,,,,,54,1,2025-02-19_15h53.32.854,comp,2024.2.4,57.66150995118235,2025-02-19 15h53.45.561168 -0500,
50,50,0,filler_square,None,None,None,None,None,None,None,None,None,None,1,3.1293914318084717,None,,,,,0,0,0,0,0,50,50,193,211.04722094535828,,,,,,,,,,,,,,,,,,,,,,,,,,,,,,,,,,,,,,,,,,,,,,,,,,,,,,,,,,,,,,,,,,,,,,,,,,,,,,,,,58.182945665663404,57.53207489435447,58.373084580761294,57.64614088299006,58.91000692449689,58.91000692449689,4.0,4.1,-154,-279,0,-12,154,-270,211.03177094459534,211.03184700012207,211.03488993644714,211.04722094535828,211.19652271270752,211.19652271270752,211.19652271270752,211.19652271270752,211.19652271270752,211.19652271270752,211.19652271270752,214.18222284317017,1,3.1293914318084717,None,,,,,,,,,,,,,,,,,,54,1,2025-02-19_15h53.32.854,comp,2024.2.4,57.66150995118235,2025-02-19 15h53.45.561168 -0500,
51,51,0,critical,wdh,20.0,4.0,upper,125.0,200.0,141.0,141.0,200.0,125.0,1,3.7780373096466064,None,,,,,0,0,0,0,0,51,51,83,214.19854044914246,,,,,,,,,,,,,,,,,,,,,,,,,,,,,,,,,,,,,,,,,,,,,,,,,,,,,,,,,,,,,,,,,,,,,,,,,,,,,,,,,125.0,200.0,141.0,141.0,200.0,125.0,4.0,4.2,-266,2,0,-274,229,-11,214.18374609947205,214.183824300766,214.18778681755066,214.19854044914246,214.34661149978638,214.34661149978638,214.34661149978638,214.34661149978638,214.34661149978638,214.34661149978638,214.34661149978638,217.9872488975525,1,3.7780373096466064,None,,,,,,,,,,,,,,,,,,54,1,2025-02-19_15h53.32.854,comp,2024.2.4,57.66150995118235,2025-02-19 15h53.45.561168 -0500,
52,52,0,critical,dhw,35.0,3.0,upper,127.0,127.0,200.0,125.0,125.0,200.0,2,1.272425651550293,None,,,,,0,0,0,0,0,52,52,51,218.0078592300415,,,,,,,,,,,,,,,,,,,,,,,,,,,,,,,,,,,,,,,,,,,,,,,,,,,,,,,,,,,,,,,,,,,,,,,,,,,,,,,,,127.0,127.0,200.0,125.0,125.0,200.0,3.0,3.2,-222,-257,0,10,258,261,217.98910236358643,217.98918318748474,217.99209761619568,218.0078592300415,218.14899849891663,218.14899849891663,218.14899849891663,218.14899849891663,218.14899849891663,218.14899849891663,218.14899849891663,219.29889369010925,2,1.272425651550293,None,,,,,,,,,,,,,,,,,,54,1,2025-02-19_15h53.32.854,comp,2024.2.4,57.66150995118235,2025-02-19 15h53.45.561168 -0500,
53,53,0,critical,wdh,20.0,2.1,upper,125.0,200.0,141.0,141.0,200.0,125.0,3,1.533663272857666,None,,,,,0,0,0,0,0,53,53,11,219.31455373764038,,,,,,,,,,,,,,,,,,,,,,,,,,,,,,,,,,,,,,,,,,,,,,,,,,,,,,,,,,,,,,,,,,,,,,,,,,,,,,,,,125.0,200.0,141.0,141.0,200.0,125.0,2.1,2.12,-266,-263,0,-258,229,286,219.30037927627563,219.3004710674286,219.30362057685852,219.31455373764038,219.47093677520752,219.47093677520752,219.47093677520752,219.47093677520752,219.47093677520752,219.47093677520752,219.47093677520752,220.86639285087585,3,1.533663272857666,None,,,,,,,,,,,,,,,,,,54,1,2025-02-19_15h53.32.854,comp,2024.2.4,57.66150995118235,2025-02-19 15h53.45.561168 -0500,
54,54,0,filler_square,None,None,None,None,None,None,None,None,None,None,2,6.798897743225098,None,,,,,0,0,0,0,0,54,54,205,220.88186597824097,,,,,,,,,,,,,,,,,,,,,,,,,,,,,,,,,,,,,,,,,,,,,,,,,,,,,,,,,,,,,,,,,,,,,,,,,,,,,,,,,59.66349814500332,59.66349814500332,58.31725413506207,57.252212029732135,58.86560034575251,58.276417061092324,4.0,4.1,-154,-254,0,6,154,-275,220.86815237998962,220.86823081970215,220.8715796470642,220.88186597824097,221.0393567085266,221.0393567085266,221.0393567085266,221.0393567085266,221.0393567085266,221.0393567085266,221.0393567085266,227.68709588050842,2,6.798897743225098,None,,,,,,,,,,,,,,,,,,54,1,2025-02-19_15h53.32.854,comp,2024.2.4,57.66150995118235,2025-02-19 15h53.45.561168 -0500,
55,55,0,critical,wdh,20.0,1.0,upper,125.0,200.0,141.0,141.0,200.0,125.0,3,0.0009396076202392578,None,,,,,0,0,0,0,0,55,55,79,227.70326471328735,,,,,,,,,,,,,,,,,,,,,,,,,,,,,,,,,,,,,,,,,,,,,,,,,,,,,,,,,,,,,,,,,,,,,,,,,,,,,,,,,125.0,200.0,141.0,141.0,200.0,125.0,1.0,1.2,-266,14,0,-4,229,-13,227.6886022090912,227.68867945671082,227.6916332244873,227.70326471328735,,,,,,,,227.7163007259369,3,0.0009396076202392578,None,,,,,,,,,,,,,,,,,,54,1,2025-02-19_15h53.32.854,comp,2024.2.4,57.66150995118235,2025-02-19 15h53.45.561168 -0500,
56,56,0,filler_random,None,None,None,None,None,None,None,None,None,None,1,None,None,,,,,0,0,0,0,0,56,56,142,227.73644137382507,,,,,,,,,,,,,,,,,,,,,,,,,,,,,,,,,,,,,,,,,,,,,,,,,,,,,,,,,,,,,,,,,,,,,,,,,,,,,,,,,146.77229933869836,136.3634913911954,131.23605468458814,104.93675295772601,135.38406885279784,107.19538083338159,4.0,4.1,-217,-281,0,15,202,-275,227.71799087524414,227.71806693077087,227.7209780216217,227.73644137382507,,,,,,,,227.81899189949036,1,None,None,,,,,,,,,,,,,,,,,,54,1,2025-02-19_15h53.32.854,comp,2024.2.4,57.66150995118235,2025-02-19 15h53.45.561168 -0500,
57,57,0,critical,dhw,35.0,1.0,upper,127.0,127.0,200.0,125.0,125.0,200.0,2,11.037935256958008,None,,,,,0,0,0,0,0,57,57,49,227.8345010280609,,,,,,,,,,,,,,,,,,,,,,,,,,,,,,,,,,,,,,,,,,,,,,,,,,,,,,,,,,,,,,,,,,,,,,,,,,,,,,,,,127.0,127.0,200.0,125.0,125.0,200.0,1.0,1.1,-702,259,-480,282,-222,284,227.82059168815613,227.8206708431244,227.82405710220337,227.8345010280609,227.98510646820068,227.98510646820068,227.98510646820068,227.98510646820068,227.98510646820068,227.98510646820068,227.98510646820068,238.87783575057983,2,11.037935256958008,None,,,,,,,,,,,,,,,,,,54,1,2025-02-19_15h53.32.854,comp,2024.2.4,57.66150995118235,2025-02-19 15h53.45.561168 -0500,
58,58,0,critical,hdw,35.0,4.0,upper,200.0,125.0,127.0,127.0,125.0,200.0,1,2.3660762310028076,None,,,,,0,0,0,0,0,58,58,113,238.89887738227844,,,,,,,,,,,,,,,,,,,,,,,,,,,,,,,,,,,,,,,,,,,,,,,,,,,,,,,,,,,,,,,,,,,,,,,,,,,,,,,,,200.0,125.0,127.0,127.0,125.0,200.0,4.0,4.2,-222,0,0,-274,260,-20,238.87940406799316,238.87953281402588,238.88304162025452,238.89887738227844,239.04051089286804,239.04051089286804,239.04051089286804,239.04051089286804,239.04051089286804,239.04051089286804,239.04051089286804,241.2718825340271,1,2.3660762310028076,None,,,,,,,,,,,,,,,,,,54,1,2025-02-19_15h53.32.854,comp,2024.2.4,57.66150995118235,2025-02-19 15h53.45.561168 -0500,
59,59,0,critical,hdw,35.0,2.1,lower,133.0,57.0,70.0,70.0,57.0,133.0,2,1.452073335647583,None,,,,,0,0,0,0,0,59,59,20,241.29216361045837,,,,,,,,,,,,,,,,,,,,,,,,,,,,,,,,,,,,,,,,,,,,,,,,,,,,,,,,,,,,,,,,,,,,,,,,,,,,,,,,,133.0,57.0,70.0,70.0,57.0,133.0,2.1,2.12,-160,-273,0,-283,198,288,241.27348065376282,241.27355909347534,241.27682304382324,241.29216361045837,241.43621850013733,241.43621850013733,241.43621850013733,241.43621850013733,241.43621850013733,241.43621850013733,241.43621850013733,242.7556447982788,2,1.452073335647583,None,,,,,,,,,,,,,,,,,,54,1,2025-02-19_15h53.32.854,comp,2024.2.4,57.66150995118235,2025-02-19 15h53.45.561168 -0500,
60,60,0,critical,hdw,20.0,2.1,upper,200.0,125.0,141.0,141.0,125.0,200.0,3,1.7063262462615967,None,,,,,0,0,0,0,0,60,60,23,242.77387189865112,,,,,,,,,,,,,,,,,,,,,,,,,,,,,,,,,,,,,,,,,,,,,,,,,,,,,,,,,,,,,,,,,,,,,,,,,,,,,,,,,200.0,125.0,141.0,141.0,125.0,200.0,2.1,2.11,-229,258,0,262,266,-253,242.75721621513367,242.75729393959045,242.76085829734802,242.77387189865112,242.91326308250427,242.91326308250427,242.91326308250427,242.91326308250427,242.91326308250427,242.91326308250427,242.91326308250427,244.49562048912048,3,1.7063262462615967,None,,,,,,,,,,,,,,,,,,54,1,2025-02-19_15h53.32.854,comp,2024.2.4,57.66150995118235,2025-02-19 15h53.45.561168 -0500,
61,61,0,critical,dwh,35.0,2.1,lower,70.0,70.0,57.0,133.0,133.0,57.0,1,2.1200649738311768,None,,,,,0,0,0,0,0,61,61,28,244.51274180412292,,,,,,,,,,,,,,,,,,,,,,,,,,,,,,,,,,,,,,,,,,,,,,,,,,,,,,,,,,,,,,,,,,,,,,,,,,,,,,,,,70.0,70.0,57.0,133.0,133.0,57.0,2.1,2.12,-198,-284,0,-268,191,263,244.49714517593384,244.497220993042,244.50022435188293,244.51274180412292,244.65690898895264,244.65690898895264,244.65690898895264,244.65690898895264,244.65690898895264,244.65690898895264,244.65690898895264,246.64189863204956,1,2.1200649738311768,None,,,,,,,,,,,,,,,,,,54,1,2025-02-19_15h53.32.854,comp,2024.2.4,57.66150995118235,2025-02-19 15h53.45.561168 -0500,
62,62,0,critical,dwh,35.0,3.0,upper,127.0,127.0,125.0,200.0,200.0,125.0,2,1.1967017650604248,None,,,,,0,0,0,0,0,62,62,63,246.65953993797302,,,,,,,,,,,,,,,,,,,,,,,,,,,,,,,,,,,,,,,,,,,,,,,,,,,,,,,,,,,,,,,,,,,,,,,,,,,,,,,,,127.0,127.0,125.0,200.0,200.0,125.0,3.0,3.2,-260,-255,0,-20,258,252,246.64334678649902,246.64342403411865,246.64635705947876,246.65953993797302,246.80500292778015,246.80500292778015,246.80500292778015,246.80500292778015,246.80500292778015,246.80500292778015,246.80500292778015,247.87442541122437,2,1.1967017650604248,None,,,,,,,,,,,,,,,,,,54,1,2025-02-19_15h53.32.854,comp,2024.2.4,57.66150995118235,2025-02-19 15h53.45.561168 -0500,
63,63,0,critical,whd,35.0,2.1,lower,57.0,133.0,133.0,57.0,70.0,70.0,3,1.315507411956787,None,,,,,0,0,0,0,0,63,63,36,247.89274382591248,,,,,,,,,,,,,,,,,,,,,,,,,,,,,,,,,,,,,,,,,,,,,,,,,,,,,,,,,,,,,,,,,,,,,,,,,,,,,,,,,57.0,133.0,133.0,57.0,70.0,70.0,2.1,2.11,-191,254,0,259,160,-254,247.87592458724976,247.8760004043579,247.87909269332886,247.89274382591248,248.0417504310608,248.0417504310608,248.0417504310608,248.0417504310608,248.0417504310608,248.0417504310608,248.0417504310608,249.22507286071777,3,1.315507411956787,None,,,,,,,,,,,,,,,,,,54,1,2025-02-19_15h53.32.854,comp,2024.2.4,57.66150995118235,2025-02-19 15h53.45.561168 -0500,
64,64,0,filler_random,None,None,None,None,None,None,None,None,None,None,3,1.2641241550445557,None,,,,,0,0,0,0,0,64,64,168,249.24071645736694,,,,,,,,,,,,,,,,,,,,,,,,,,,,,,,,,,,,,,,,,,,,,,,,,,,,,,,,,,,,,,,,,,,,,,,,,,,,,,,,,178.55737602796307,111.99823538396203,195.82649319042642,90.14279509601573,136.98248447616876,159.8709430813288,1.0,1.1,-677,266,-480,253,-259,254,249.2268841266632,249.2270073890686,249.23035860061646,249.24071645736694,249.38983964920044,249.38983964920044,249.38983964920044,249.38983964920044,249.38983964920044,249.38983964920044,249.38983964920044,250.5111060142517,3,1.2641241550445557,None,,,,,,,,,,,,,,,,,,54,1,2025-02-19_15h53.32.854,comp,2024.2.4,57.66150995118235,2025-02-19 15h53.45.561168 -0500,
65,65,0,filler_square,None,None,None,None,None,None,None,None,None,None,2,1.0727427005767822,None,,,,,0,0,0,0,0,65,65,170,250.5280430316925,,,,,,,,,,,,,,,,,,,,,,,,,,,,,,,,,,,,,,,,,,,,,,,,,,,,,,,,,,,,,,,,,,,,,,,,,,,,,,,,,165.26748514852068,90.40888025059263,184.71234728100995,184.71234728100995,59.869323033839805,77.92587204852045,2.2,2.21,-234,-280,0,260,227,287,250.51337718963623,250.5135359764099,250.51711440086365,250.5280430316925,250.6760847568512,250.6760847568512,250.6760847568512,250.6760847568512,250.6760847568512,250.6760847568512,250.6760847568512,251.60299277305603,2,1.0727427005767822,None,,,,,,,,,,,,,,,,,,54,1,2025-02-19_15h53.32.854,comp,2024.2.4,57.66150995118235,2025-02-19 15h53.45.561168 -0500,
66,66,0,critical,dwh,35.0,4.0,lower,70.0,70.0,57.0,133.0,133.0,57.0,2,5.5185863971710205,None,,,,,0,0,0,0,0,66,66,64,251.61831045150757,,,,,,,,,,,,,,,,,,,,,,,,,,,,,,,,,,,,,,,,,,,,,,,,,,,,,,,,,,,,,,,,,,,,,,,,,,,,,,,,,70.0,70.0,57.0,133.0,133.0,57.0,4.0,4.1,-198,-278,0,1,191,-251,251.6045241355896,251.60460662841797,251.60743618011475,251.61831045150757,251.7568747997284,251.7568747997284,251.7568747997284,251.7568747997284,251.7568747997284,251.7568747997284,251.7568747997284,257.1445415019989,2,5.5185863971710205,None,,,,,,,,,,,,,,,,,,54,1,2025-02-19_15h53.32.854,comp,2024.2.4,57.66150995118235,2025-02-19 15h53.45.561168 -0500,
67,67,0,filler_random,None,None,None,None,None,None,None,None,None,None,1,1.9284005165100098,None,,,,,0,0,0,0,0,67,67,136,257.16061639785767,,,,,,,,,,,,,,,,,,,,,,,,,,,,,,,,,,,,,,,,,,,,,,,,,,,,,,,,,,,,,,,,,,,,,,,,,,,,,,,,,89.21855319953451,142.6125456268877,117.50125202413761,86.78751174230277,66.27153540381711,65.85650768590807,1.0,1.3,269,-274,480,-264,652,-285,257.1464762687683,257.1465730667114,257.1499297618866,257.16061639785767,257.31180143356323,257.31180143356323,257.31180143356323,257.31180143356323,257.31180143356323,257.31180143356323,257.31180143356323,259.0955045223236,1,1.9284005165100098,None,,,,,,,,,,,,,,,,,,54,1,2025-02-19_15h53.32.854,comp,2024.2.4,57.66150995118235,2025-02-19 15h53.45.561168 -0500,
68,68,0,critical,dhw,20.0,3.0,lower,78.0,78.0,133.0,57.0,57.0,133.0,2,2.946542501449585,None,,,,,0,0,0,0,0,68,68,56,259.1102468967438,,,,,,,,,,,,,,,,,,,,,,,,,,,,,,,,,,,,,,,,,,,,,,,,,,,,,,,,,,,,,,,,,,,,,,,,,,,,,,,,,78.0,78.0,133.0,57.0,57.0,133.0,3.0,3.2,-164,-281,0,-10,191,269,259.09705114364624,259.0971279144287,259.10037636756897,259.1102468967438,259.2605690956116,259.2605690956116,259.2605690956116,259.2605690956116,259.2605690956116,259.2605690956116,259.2605690956116,262.0635862350464,2,2.946542501449585,None,,,,,,,,,,,,,,,,,,54,1,2025-02-19_15h53.32.854,comp,2024.2.4,57.66150995118235,2025-02-19 15h53.45.561168 -0500,
69,69,0,critical,whd,20.0,2.1,lower,57.0,133.0,133.0,57.0,78.0,78.0,2,3.4807207584381104,None,,,,,0,0,0,0,0,69,69,14,262.0799527168274,,,,,,,,,,,,,,,,,,,,,,,,,,,,,,,,,,,,,,,,,,,,,,,,,,,,,,,,,,,,,,,,,,,,,,,,,,,,,,,,,57.0,133.0,133.0,57.0,78.0,78.0,2.1,2.11,-191,276,0,271,164,-272,262.06514024734497,262.06521797180176,262.06918382644653,262.0799527168274,262.2315661907196,262.2315661907196,262.2315661907196,262.2315661907196,262.2315661907196,262.2315661907196,262.2315661907196,265.566517829895,2,3.4807207584381104,None,,,,,,,,,,,,,,,,,,54,1,2025-02-19_15h53.32.854,comp,2024.2.4,57.66150995118235,2025-02-19 15h53.45.561168 -0500,
70,70,0,filler_random,None,None,None,None,None,None,None,None,None,None,2,2.058061361312866,None,,,,,0,0,0,0,0,70,70,167,265.58309674263,,,,,,,,,,,,,,,,,,,,,,,,,,,,,,,,,,,,,,,,,,,,,,,,,,,,,,,,,,,,,,,,,,,,,,,,,,,,,,,,,164.32960862374688,112.09588230732138,116.12965095357495,194.32421988028196,178.65770367827503,104.51795119066088,4.0,4.1,-249,-256,0,4,245,-265,265.56851863861084,265.56859588623047,265.5723674297333,265.58309674263,265.7297897338867,265.7297897338867,265.7297897338867,265.7297897338867,265.7297897338867,265.7297897338867,265.7297897338867,267.6478729248047,2,2.058061361312866,None,,,,,,,,,,,,,,,,,,54,1,2025-02-19_15h53.32.854,comp,2024.2.4,57.66150995118235,2025-02-19 15h53.45.561168 -0500,
71,71,0,critical,hdw,35.0,3.0,lower,133.0,57.0,70.0,70.0,57.0,133.0,3,2.632079839706421,None,,,,,0,0,0,0,0,71,71,110,267.6642236709595,,,,,,,,,,,,,,,,,,,,,,,,,,,,,,,,,,,,,,,,,,,,,,,,,,,,,,,,,,,,,,,,,,,,,,,,,,,,,,,,,133.0,57.0,70.0,70.0,57.0,133.0,3.0,3.1,-160,288,0,6,198,-271,267.6493730545044,267.6494767665863,267.6534333229065,267.6642236709595,267.81424927711487,267.81424927711487,267.81424927711487,267.81424927711487,267.81424927711487,267.81424927711487,267.81424927711487,270.298668384552,3,2.632079839706421,None,,,,,,,,,,,,,,,,,,54,1,2025-02-19_15h53.32.854,comp,2024.2.4,57.66150995118235,2025-02-19 15h53.45.561168 -0500,
72,72,0,critical,dhw,35.0,2.1,upper,127.0,127.0,200.0,125.0,125.0,200.0,2,2.0850276947021484,None,,,,,0,0,0,0,0,72,72,25,270.3153431415558,,,,,,,,,,,,,,,,,,,,,,,,,,,,,,,,,,,,,,,,,,,,,,,,,,,,,,,,,,,,,,,,,,,,,,,,,,,,,,,,,127.0,127.0,200.0,125.0,125.0,200.0,2.1,2.11,-222,260,0,254,258,-253,270.3002989292145,270.30039501190186,270.3039035797119,270.3153431415558,270.4636046886444,270.4636046886444,270.4636046886444,270.4636046886444,270.4636046886444,270.4636046886444,270.4636046886444,272.41589641571045,2,2.0850276947021484,None,,,,,,,,,,,,,,,,,,54,1,2025-02-19_15h53.32.854,comp,2024.2.4,57.66150995118235,2025-02-19 15h53.45.561168 -0500,
73,73,0,critical,wdh,20.0,3.0,upper,125.0,200.0,141.0,141.0,200.0,125.0,1,1.7213785648345947,None,,,,,0,0,0,0,0,73,73,81,272.4310619831085,,,,,,,,,,,,,,,,,,,,,,,,,,,,,,,,,,,,,,,,,,,,,,,,,,,,,,,,,,,,,,,,,,,,,,,,,,,,,,,,,125.0,200.0,141.0,141.0,200.0,125.0,3.0,3.2,-266,-289,0,11,229,266,272.41730642318726,272.41738200187683,272.42083644866943,272.4310619831085,272.5807592868805,272.5807592868805,272.5807592868805,272.5807592868805,272.5807592868805,272.5807592868805,272.5807592868805,274.1572675704956,1,1.7213785648345947,None,,,,,,,,,,,,,,,,,,54,1,2025-02-19_15h53.32.854,comp,2024.2.4,57.66150995118235,2025-02-19 15h53.45.561168 -0500,
74,74,0,filler_square,None,None,None,None,None,None,None,None,None,None,2,1.6473569869995117,None,,,,,0,0,0,0,0,74,74,194,274.1775414943695,,,,,,,,,,,,,,,,,,,,,,,,,,,,,,,,,,,,,,,,,,,,,,,,,,,,,,,,,,,,,,,,,,,,,,,,,,,,,,,,,91.23727167672132,138.1482209077651,187.79929852395736,187.79929852395736,76.95461791899521,131.29579924386053,2.2,2.21,-259,-272,0,268,256,268,274.15923404693604,274.1593129634857,274.1624357700348,274.1775414943695,274.3163330554962,274.3163330554962,274.3163330554962,274.3163330554962,274.3163330554962,274.3163330554962,274.3163330554962,275.83287930488586,2,1.6473569869995117,None,,,,,,,,,,,,,,,,,,54,1,2025-02-19_15h53.32.854,comp,2024.2.4,57.66150995118235,2025-02-19 15h53.45.561168 -0500,
75,75,0,critical,dwh,20.0,2.1,upper,141.0,141.0,125.0,200.0,200.0,125.0,1,5.395865201950073,None,,,,,0,0,0,0,0,75,75,31,275.85266518592834,,,,,,,,,,,,,,,,,,,,,,,,,,,,,,,,,,,,,,,,,,,,,,,,,,,,,,,,,,,,,,,,,,,,,,,,,,,,,,,,,141.0,141.0,125.0,200.0,200.0,125.0,2.1,2.11,-266,260,0,265,258,-289,275.83435225486755,275.83442854881287,275.8376181125641,275.85266518592834,276.0005922317505,276.0005922317505,276.0005922317505,276.0005922317505,276.0005922317505,276.0005922317505,276.0005922317505,281.25474858283997,1,5.395865201950073,None,,,,,,,,,,,,,,,,,,54,1,2025-02-19_15h53.32.854,comp,2024.2.4,57.66150995118235,2025-02-19 15h53.45.561168 -0500,
76,76,0,critical,whd,20.0,3.0,lower,57.0,133.0,133.0,57.0,78.0,78.0,1,1.1664671897888184,None,,,,,0,0,0,0,0,76,76,92,281.273845911026,,,,,,,,,,,,,,,,,,,,,,,,,,,,,,,,,,,,,,,,,,,,,,,,,,,,,,,,,,,,,,,,,,,,,,,,,,,,,,,,,57.0,133.0,133.0,57.0,78.0,78.0,3.0,3.1,-191,264,0,-7,164,-288,281.2562656402588,281.2563445568085,281.25930643081665,281.273845911026,281.4195148944855,281.4195148944855,281.4195148944855,281.4195148944855,281.4195148944855,281.4195148944855,281.4195148944855,282.4517242908478,1,1.1664671897888184,None,,,,,,,,,,,,,,,,,,54,1,2025-02-19_15h53.32.854,comp,2024.2.4,57.66150995118235,2025-02-19 15h53.45.561168 -0500,
77,77,0,critical,hwd,35.0,1.0,upper,200.0,125.0,125.0,200.0,127.0,127.0,1,1.3312976360321045,None,,,,,0,0,0,0,0,77,77,97,282.4692668914795,,,,,,,,,,,,,,,,,,,,,,,,,,,,,,,,,,,,,,,,,,,,,,,,,,,,,,,,,,,,,,,,,,,,,,,,,,,,,,,,,200.0,125.0,125.0,200.0,127.0,127.0,1.0,1.3,222,-268,480,-268,740,-279,282.45321393013,282.45328974723816,282.4561903476715,282.4692668914795,282.6193437576294,282.6193437576294,282.6193437576294,282.6193437576294,282.6193437576294,282.6193437576294,282.6193437576294,283.82284784317017,1,1.3312976360321045,None,,,,,,,,,,,,,,,,,,54,1,2025-02-19_15h53.32.854,comp,2024.2.4,57.66150995118235,2025-02-19 15h53.45.561168 -0500,
78,78,0,critical,wdh,20.0,1.0,lower,57.0,133.0,78.0,78.0,133.0,57.0,1,1.7589492797851562,None,,,,,0,0,0,0,0,78,78,78,283.84136986732483,,,,,,,,,,,,,,,,,,,,,,,,,,,,,,,,,,,,,,,,,,,,,,,,,,,,,,,,,,,,,,,,,,,,,,,,,,,,,,,,,57.0,133.0,78.0,78.0,133.0,57.0,1.0,1.1,-682,252,-480,276,-316,256,283.8243911266327,283.82459139823914,283.8277521133423,283.84136986732483,283.98688220977783,283.98688220977783,283.98688220977783,283.98688220977783,283.98688220977783,283.98688220977783,283.98688220977783,285.6036880016327,1,1.7589492797851562,None,,,,,,,,,,,,,,,,,,54,1,2025-02-19_15h53.32.854,comp,2024.2.4,57.66150995118235,2025-02-19 15h53.45.561168 -0500,
79,79,0,critical,wdh,20.0,3.0,lower,57.0,133.0,78.0,78.0,133.0,57.0,3,4.468940496444702,None,,,,,0,0,0,0,0,79,79,80,285.61950731277466,,,,,,,,,,,,,,,,,,,,,,,,,,,,,,,,,,,,,,,,,,,,,,,,,,,,,,,,,,,,,,,,,,,,,,,,,,,,,,,,,57.0,133.0,78.0,78.0,133.0,57.0,3.0,3.1,-202,290,0,-12,164,-267,285.6052677631378,285.60534834861755,285.6087296009064,285.61950731277466,285.774032831192,285.774032831192,285.774032831192,285.774032831192,285.774032831192,285.774032831192,285.774032831192,290.10588097572327,3,4.468940496444702,None,,,,,,,,,,,,,,,,,,54,1,2025-02-19_15h53.32.854,comp,2024.2.4,57.66150995118235,2025-02-19 15h53.45.561168 -0500,
80,80,0,critical,hwd,35.0,2.1,lower,133.0,57.0,57.0,133.0,70.0,70.0,2,4.27764105796814,None,,,,,0,0,0,0,0,80,80,16,290.1232099533081,,,,,,,,,,,,,,,,,,,,,,,,,,,,,,,,,,,,,,,,,,,,,,,,,,,,,,,,,,,,,,,,,,,,,,,,,,,,,,,,,133.0,57.0,57.0,133.0,70.0,70.0,2.1,2.12,-191,-270,0,-255,198,289,290.1073217391968,290.107394695282,290.1105673313141,290.1232099533081,290.2717821598053,290.2717821598053,290.2717821598053,290.2717821598053,290.2717821598053,290.2717821598053,290.2717821598053,294.4045960903168,2,4.27764105796814,None,,,,,,,,,,,,,,,,,,54,1,2025-02-19_15h53.32.854,comp,2024.2.4,57.66150995118235,2025-02-19 15h53.45.561168 -0500,
81,81,0,filler_square,None,None,None,None,None,None,None,None,None,None,1,0.8118093013763428,None,,,,,0,0,0,0,0,81,81,192,294.42110872268677,,,,,,,,,,,,,,,,,,,,,,,,,,,,,,,,,,,,,,,,,,,,,,,,,,,,,,,,,,,,,,,,,,,,,,,,,,,,,,,,,153.28548390209798,153.28548390209798,116.74335419933459,127.50783935310994,143.42327574078473,59.01651541565478,3.0,3.2,-236,-263,0,-20,189,254,294.40637826919556,294.406476020813,294.40936613082886,294.42110872268677,294.5751106739044,294.5751106739044,294.5751106739044,294.5751106739044,294.5751106739044,294.5751106739044,294.5751106739044,295.2401659488678,1,0.8118093013763428,None,,,,,,,,,,,,,,,,,,54,1,2025-02-19_15h53.32.854,comp,2024.2.4,57.66150995118235,2025-02-19 15h53.45.561168 -0500,
82,82,0,filler_square,None,None,None,None,None,None,None,None,None,None,1,1.3522350788116455,None,,,,,0,0,0,0,0,82,82,200,295.25607776641846,,,,,,,,,,,,,,,,,,,,,,,,,,,,,,,,,,,,,,,,,,,,,,,,,,,,,,,,,,,,,,,,,,,,,,,,,,,,,,,,,78.33458552219736,78.33458552219736,58.332844768769924,57.41850073618965,59.32682172070669,57.314684187629,2.1,2.12,-164,-281,0,-260,153,277,295.2420103549957,295.2420883178711,295.2454752922058,295.25607776641846,295.411390542984,295.411390542984,295.411390542984,295.411390542984,295.411390542984,295.411390542984,295.411390542984,296.62366557121277,1,1.3522350788116455,None,,,,,,,,,,,,,,,,,,54,1,2025-02-19_15h53.32.854,comp,2024.2.4,57.66150995118235,2025-02-19 15h53.45.561168 -0500,
83,83,0,critical,hdw,20.0,4.0,upper,200.0,125.0,141.0,141.0,125.0,200.0,3,2.7051918506622314,None,,,,,0,0,0,0,0,83,83,119,296.6392788887024,,,,,,,,,,,,,,,,,,,,,,,,,,,,,,,,,,,,,,,,,,,,,,,,,,,,,,,,,,,,,,,,,,,,,,,,,,,,,,,,,200.0,125.0,141.0,141.0,125.0,200.0,4.0,4.1,-229,-280,0,8,266,-279,296.6253128051758,296.62539052963257,296.6289303302765,296.6392788887024,296.7940356731415,296.7940356731415,296.7940356731415,296.7940356731415,296.7940356731415,296.7940356731415,296.7940356731415,299.3609585762024,3,2.7051918506622314,None,,,,,,,,,,,,,,,,,,54,1,2025-02-19_15h53.32.854,comp,2024.2.4,57.66150995118235,2025-02-19 15h53.45.561168 -0500,
84,84,0,critical,dhw,20.0,4.0,lower,78.0,78.0,133.0,57.0,57.0,133.0,3,0.9604091644287109,None,,,,,0,0,0,0,0,84,84,58,299.3764190673828,,,,,,,,,,,,,,,,,,,,,,,,,,,,,,,,,,,,,,,,,,,,,,,,,,,,,,,,,,,,,,,,,,,,,,,,,,,,,,,,,78.0,78.0,133.0,57.0,57.0,133.0,4.0,4.1,-164,-275,0,3,191,-261,299.36255502700806,299.3626868724823,299.3660614490509,299.3764190673828,299.52443170547485,299.52443170547485,299.52443170547485,299.52443170547485,299.52443170547485,299.52443170547485,299.52443170547485,300.3422236442566,3,0.9604091644287109,None,,,,,,,,,,,,,,,,,,54,1,2025-02-19_15h53.32.854,comp,2024.2.4,57.66150995118235,2025-02-19 15h53.45.561168 -0500,
85,85,0,filler_square,None,None,None,None,None,None,None,None,None,None,1,1.1381134986877441,None,,,,,0,0,0,0,0,85,85,187,300.35839319229126,,,,,,,,,,,,,,,,,,,,,,,,,,,,,,,,,,,,,,,,,,,,,,,,,,,,,,,,,,,,,,,,,,,,,,,,,,,,,,,,,132.80987318402305,132.80987318402305,126.17032058684663,88.51580025814997,108.31727625687441,71.7034966174312,2.1,2.12,-207,-277,0,-257,176,280,300.34413957595825,300.3442211151123,300.34756207466125,300.35839319229126,300.5076231956482,300.5076231956482,300.5076231956482,300.5076231956482,300.5076231956482,300.5076231956482,300.5076231956482,301.5093023777008,1,1.1381134986877441,None,,,,,,,,,,,,,,,,,,54,1,2025-02-19_15h53.32.854,comp,2024.2.4,57.66150995118235,2025-02-19 15h53.45.561168 -0500,
86,86,0,filler_random,None,None,None,None,None,None,None,None,None,None,3,1.3454585075378418,None,,,,,0,0,0,0,0,86,86,135,301.5272078514099,,,,,,,,,,,,,,,,,,,,,,,,,,,,,,,,,,,,,,,,,,,,,,,,,,,,,,,,,,,,,,,,,,,,,,,,,,,,,,,,,75.22484444913735,100.76436962472388,170.79818946736987,90.68142701027976,165.43187055773475,128.9360713339064,4.0,4.2,-192,20,0,-255,206,-15,301.51103687286377,301.51111578941345,301.5142619609833,301.5272078514099,301.67663764953613,301.67663764953613,301.67663764953613,301.67663764953613,301.67663764953613,301.67663764953613,301.67663764953613,302.87505745887756,3,1.3454585075378418,None,,,,,,,,,,,,,,,,,,54,1,2025-02-19_15h53.32.854,comp,2024.2.4,57.66150995118235,2025-02-19 15h53.45.561168 -0500,
87,87,0,critical,hdw,35.0,2.1,lower,133.0,57.0,70.0,70.0,57.0,133.0,3,1.610069990158081,None,,,,,0,0,0,0,0,87,87,44,302.8945634365082,,,,,,,,,,,,,,,,,,,,,,,,,,,,,,,,,,,,,,,,,,,,,,,,,,,,,,,,,,,,,,,,,,,,,,,,,,,,,,,,,133.0,57.0,70.0,70.0,57.0,133.0,2.1,2.12,-160,-259,0,-273,198,279,302.87654185295105,302.8766198158264,302.8795704841614,302.8945634365082,303.0425503253937,303.0425503253937,303.0425503253937,303.0425503253937,303.0425503253937,303.0425503253937,303.0425503253937,304.5083634853363,3,1.610069990158081,None,,,,,,,,,,,,,,,,,,54,1,2025-02-19_15h53.32.854,comp,2024.2.4,57.66150995118235,2025-02-19 15h53.45.561168 -0500,
88,88,0,critical,hwd,20.0,1.0,upper,200.0,125.0,125.0,200.0,141.0,141.0,2,1.475895643234253,None,,,,,0,0,0,0,0,88,88,103,304.52454686164856,,,,,,,,,,,,,,,,,,,,,,,,,,,,,,,,,,,,,,,,,,,,,,,,,,,,,,,,,,,,,,,,,,,,,,,,,,,,,,,,,200.0,125.0,125.0,200.0,141.0,141.0,1.0,1.3,222,-253,480,-279,746,-274,304.5098764896393,304.50995326042175,304.51303791999817,304.52454686164856,304.67940640449524,304.67940640449524,304.67940640449524,304.67940640449524,304.67940640449524,304.67940640449524,304.67940640449524,306.01762533187866,2,1.475895643234253,None,,,,,,,,,,,,,,,,,,54,1,2025-02-19_15h53.32.854,comp,2024.2.4,57.66150995118235,2025-02-19 15h53.45.561168 -0500,
89,89,0,critical,whd,35.0,2.1,upper,125.0,200.0,200.0,125.0,127.0,127.0,2,1.3075389862060547,None,,,,,0,0,0,0,0,89,89,13,306.03679370880127,,,,,,,,,,,,,,,,,,,,,,,,,,,,,,,,,,,,,,,,,,,,,,,,,,,,,,,,,,,,,,,,,,,,,,,,,,,,,,,,,125.0,200.0,200.0,125.0,127.0,127.0,2.1,2.12,-258,-265,0,-285,222,286,306.01917338371277,306.01924991607666,306.022656917572,306.03679370880127,306.1765878200531,306.1765878200531,306.1765878200531,306.1765878200531,306.1765878200531,306.1765878200531,306.1765878200531,307.3630619049072,2,1.3075389862060547,None,,,,,,,,,,,,,,,,,,54,1,2025-02-19_15h53.32.854,comp,2024.2.4,57.66150995118235,2025-02-19 15h53.45.561168 -0500,
90,90,0,filler_random,None,None,None,None,None,None,None,None,None,None,2,1.2588286399841309,None,,,,,0,0,0,0,0,90,90,156,307.3815243244171,,,,,,,,,,,,,,,,,,,,,,,,,,,,,,,,,,,,,,,,,,,,,,,,,,,,,,,,,,,,,,,,,,,,,,,,,,,,,,,,,137.73670295055183,137.65494732356524,184.12057910357643,169.66073803938013,69.74978956034272,142.22806550447095,2.1,2.11,-250,253,0,252,252,-257,307.36504197120667,307.3651750087738,307.3682518005371,307.3815243244171,307.5274291038513,307.5274291038513,307.5274291038513,307.5274291038513,307.5274291038513,307.5274291038513,307.5274291038513,308.64394211769104,2,1.2588286399841309,None,,,,,,,,,,,,,,,,,,54,1,2025-02-19_15h53.32.854,comp,2024.2.4,57.66150995118235,2025-02-19 15h53.45.561168 -0500,
91,91,0,critical,hdw,20.0,3.0,lower,133.0,57.0,78.0,78.0,57.0,133.0,3,1.6761951446533203,None,,,,,0,0,0,0,0,91,91,116,308.6601736545563,,,,,,,,,,,,,,,,,,,,,,,,,,,,,,,,,,,,,,,,,,,,,,,,,,,,,,,,,,,,,,,,,,,,,,,,,,,,,,,,,133.0,57.0,78.0,78.0,57.0,133.0,3.0,3.2,-164,-276,0,-10,202,269,308.64547538757324,308.64559984207153,308.6492884159088,308.6601736545563,308.7977194786072,308.7977194786072,308.7977194786072,308.7977194786072,308.7977194786072,308.7977194786072,308.7977194786072,310.3455460071564,3,1.6761951446533203,None,,,,,,,,,,,,,,,,,,54,1,2025-02-19_15h53.32.854,comp,2024.2.4,57.66150995118235,2025-02-19 15h53.45.561168 -0500,
92,92,0,critical,dwh,35.0,2.1,upper,127.0,127.0,125.0,200.0,200.0,125.0,2,0.9830179214477539,None,,,,,0,0,0,0,0,92,92,5,310.36155247688293,,,,,,,,,,,,,,,,,,,,,,,,,,,,,,,,,,,,,,,,,,,,,,,,,,,,,,,,,,,,,,,,,,,,,,,,,,,,,,,,,127.0,127.0,125.0,200.0,200.0,125.0,2.1,2.12,-260,-284,0,-252,258,270,310.3472149372101,310.34729409217834,310.3507432937622,310.36155247688293,310.515109539032,310.515109539032,310.515109539032,310.515109539032,310.515109539032,310.515109539032,310.515109539032,311.36151242256165,2,0.9830179214477539,None,,,,,,,,,,,,,,,,,,54,1,2025-02-19_15h53.32.854,comp,2024.2.4,57.66150995118235,2025-02-19 15h53.45.561168 -0500,
93,93,0,critical,dwh,20.0,2.1,lower,78.0,78.0,57.0,133.0,133.0,57.0,1,1.9334907531738281,None,,,,,0,0,0,0,0,93,93,6,311.3788962364197,,,,,,,,,,,,,,,,,,,,,,,,,,,,,,,,,,,,,,,,,,,,,,,,,,,,,,,,,,,,,,,,,,,,,,,,,,,,,,,,,78.0,78.0,57.0,133.0,133.0,57.0,2.1,2.12,-202,-271,0,-266,191,251,311.3629825115204,311.3630588054657,311.36620473861694,311.3788962364197,311.5333526134491,311.5333526134491,311.5333526134491,311.5333526134491,311.5333526134491,311.5333526134491,311.5333526134491,313.32784032821655,1,1.9334907531738281,None,,,,,,,,,,,,,,,,,,54,1,2025-02-19_15h53.32.854,comp,2024.2.4,57.66150995118235,2025-02-19 15h53.45.561168 -0500,
94,94,0,critical,hwd,35.0,4.0,upper,200.0,125.0,125.0,200.0,127.0,127.0,2,0.8975296020507812,None,,,,,0,0,0,0,0,94,94,101,313.3435306549072,,,,,,,,,,,,,,,,,,,,,,,,,,,,,,,,,,,,,,,,,,,,,,,,,,,,,,,,,,,,,,,,,,,,,,,,,,,,,,,,,200.0,125.0,125.0,200.0,127.0,127.0,4.0,4.2,-258,-1,0,-257,260,18,313.3292803764343,313.329354763031,313.3324248790741,313.3435306549072,313.50357818603516,313.50357818603516,313.50357818603516,313.50357818603516,313.50357818603516,313.50357818603516,313.50357818603516,314.24595069885254,2,0.8975296020507812,None,,,,,,,,,,,,,,,,,,54,1,2025-02-19_15h53.32.854,comp,2024.2.4,57.66150995118235,2025-02-19 15h53.45.561168 -0500,
95,95,0,filler_square,None,None,None,None,None,None,None,None,None,None,2,1.0901899337768555,None,,,,,0,0,0,0,0,95,95,206,314.26280975341797,,,,,,,,,,,,,,,,,,,,,,,,,,,,,,,,,,,,,,,,,,,,,,,,,,,,,,,,,,,,,,,,,,,,,,,,,,,,,,,,,158.23734268631557,100.83777295469058,152.80318172507612,147.82909713549904,169.15964344383616,169.15964344383616,4.0,4.2,-220,0,0,-279,254,-5,314.2478687763214,314.2479486465454,314.25135135650635,314.26280975341797,314.412278175354,314.412278175354,314.412278175354,314.412278175354,314.412278175354,314.412278175354,314.412278175354,315.3631706237793,2,1.0901899337768555,None,,,,,,,,,,,,,,,,,,54,1,2025-02-19_15h53.32.854,comp,2024.2.4,57.66150995118235,2025-02-19 15h53.45.561168 -0500,
96,96,0,critical,hwd,35.0,2.1,upper,200.0,125.0,125.0,200.0,127.0,127.0,1,2.294050455093384,None,,,,,0,0,0,0,0,96,96,41,315.37910175323486,,,,,,,,,,,,,,,,,,,,,,,,,,,,,,,,,,,,,,,,,,,,,,,,,,,,,,,,,,,,,,,,,,,,,,,,,,,,,,,,,200.0,125.0,125.0,200.0,127.0,127.0,2.1,2.11,-258,255,0,274,260,-258,315.36466431617737,315.36474323272705,315.36808466911316,315.37910175323486,315.5371992588043,315.5371992588043,315.5371992588043,315.5371992588043,315.5371992588043,315.5371992588043,315.5371992588043,317.6806607246399,1,2.294050455093384,None,,,,,,,,,,,,,,,,,,54,1,2025-02-19_15h53.32.854,comp,2024.2.4,57.66150995118235,2025-02-19 15h53.45.561168 -0500,
97,97,0,filler_random,None,None,None,None,None,None,None,None,None,None,1,1.1107120513916016,None,,,,,0,0,0,0,0,97,97,141,317.69803977012634,,,,,,,,,,,,,,,,,,,,,,,,,,,,,,,,,,,,,,,,,,,,,,,,,,,,,,,,,,,,,,,,,,,,,,,,,,,,,,,,,125.08158779547529,159.51878566480264,199.36987961501234,84.39802634744186,65.54258504036402,150.15339009149562,3.0,3.1,-218,261,0,-7,213,-274,317.68229603767395,317.6823744773865,317.68639612197876,317.69803977012634,317.8347136974335,317.8347136974335,317.8347136974335,317.8347136974335,317.8347136974335,317.8347136974335,317.8347136974335,318.8148889541626,1,1.1107120513916016,None,,,,,,,,,,,,,,,,,,54,1,2025-02-19_15h53.32.854,comp,2024.2.4,57.66150995118235,2025-02-19 15h53.45.561168 -0500,
98,98,0,filler_random,None,None,None,None,None,None,None,None,None,None,1,2.3093676567077637,None,,,,,0,0,0,0,0,98,98,161,318.83551692962646,,,,,,,,,,,,,,,,,,,,,,,,,,,,,,,,,,,,,,,,,,,,,,,,,,,,,,,,,,,,,,,,,,,,,,,,,,,,,,,,,178.18280469533332,198.70403073841842,132.88620989069204,67.77557096556224,192.6372187162681,158.20181873667966,4.0,4.2,-229,13,0,-250,209,-15,318.81650280952454,318.8165822029114,318.8196978569031,318.83551692962646,318.97955989837646,318.97955989837646,318.97955989837646,318.97955989837646,318.97955989837646,318.97955989837646,318.97955989837646,321.1482744216919,1,2.3093676567077637,None,,,,,,,,,,,,,,,,,,54,1,2025-02-19_15h53.32.854,comp,2024.2.4,57.66150995118235,2025-02-19 15h53.45.561168 -0500,
99,99,0,critical,wdh,35.0,1.0,upper,125.0,200.0,127.0,127.0,200.0,125.0,1,3.621128559112549,None,,,,,0,0,0,0,0,99,99,73,321.16319704055786,,,,,,,,,,,,,,,,,,,,,,,,,,,,,,,,,,,,,,,,,,,,,,,,,,,,,,,,,,,,,,,,,,,,,,,,,,,,,,,,,125.0,200.0,127.0,127.0,200.0,125.0,1.0,1.1,-740,264,-480,273,-258,256,321.1498131752014,321.1498908996582,321.15315532684326,321.16319704055786,321.3135097026825,321.3135097026825,321.3135097026825,321.3135097026825,321.3135097026825,321.3135097026825,321.3135097026825,324.80170702934265,1,3.621128559112549,None,,,,,,,,,,,,,,,,,,54,1,2025-02-19_15h53.32.854,comp,2024.2.4,57.66150995118235,2025-02-19 15h53.45.561168 -0500,
100,100,0,critical,hwd,35.0,1.0,lower,133.0,57.0,57.0,133.0,70.0,70.0,1,3.4319634437561035,None,,,,,0,0,0,0,0,100,100,96,324.8167951107025,,,,,,,,,,,,,,,,,,,,,,,,,,,,,,,,,,,,,,,,,,,,,,,,,,,,,,,,,,,,,,,,,,,,,,,,,,,,,,,,,133.0,57.0,57.0,133.0,70.0,70.0,1.0,1.3,289,-273,480,-254,678,-275,324.803347826004,324.80342531204224,324.80652832984924,324.8167951107025,324.96557116508484,324.96557116508484,324.96557116508484,324.96557116508484,324.96557116508484,324.96557116508484,324.96557116508484,328.27005529403687,1,3.4319634437561035,None,,,,,,,,,,,,,,,,,,54,1,2025-02-19_15h53.32.854,comp,2024.2.4,57.66150995118235,2025-02-19 15h53.45.561168 -0500,
101,101,0,filler_square,None,None,None,None,None,None,None,None,None,None,1,1.1542248725891113,None,,,,,0,0,0,0,0,101,101,197,328.2875590324402,,,,,,,,,,,,,,,,,,,,,,,,,,,,,,,,,,,,,,,,,,,,,,,,,,,,,,,,,,,,,,,,,,,,,,,,,,,,,,,,,127.40601120598218,127.40601120598218,63.5188276717133,90.61709873834681,127.2567487834092,89.92782562604668,1.0,1.3,275,-266,480,-269,666,-271,328.271933555603,328.27202320098877,328.2750549316406,328.2875590324402,328.43328380584717,328.43328380584717,328.43328380584717,328.43328380584717,328.43328380584717,328.43328380584717,328.43328380584717,329.45174837112427,1,1.1542248725891113,None,,,,,,,,,,,,,,,,,,54,1,2025-02-19_15h53.32.854,comp,2024.2.4,57.66150995118235,2025-02-19 15h53.45.561168 -0500,
102,102,0,critical,whd,20.0,2.1,upper,125.0,200.0,200.0,125.0,141.0,141.0,2,1.9472393989562988,None,,,,,0,0,0,0,0,102,102,39,329.4696762561798,,,,,,,,,,,,,,,,,,,,,,,,,,,,,,,,,,,,,,,,,,,,,,,,,,,,,,,,,,,,,,,,,,,,,,,,,,,,,,,,,125.0,200.0,200.0,125.0,141.0,141.0,2.1,2.12,-258,-283,0,-254,229,281,329.4532117843628,329.4532914161682,329.45651507377625,329.4696762561798,329.6170129776001,329.6170129776001,329.6170129776001,329.6170129776001,329.6170129776001,329.6170129776001,329.6170129776001,331.42375230789185,2,1.9472393989562988,None,,,,,,,,,,,,,,,,,,54,1,2025-02-19_15h53.32.854,comp,2024.2.4,57.66150995118235,2025-02-19 15h53.45.561168 -0500,
103,103,0,critical,dwh,35.0,2.1,lower,70.0,70.0,57.0,133.0,133.0,57.0,2,2.0853569507598877,None,,,,,0,0,0,0,0,103,103,4,331.4435510635376,,,,,,,,,,,,,,,,,,,,,,,,,,,,,,,,,,,,,,,,,,,,,,,,,,,,,,,,,,,,,,,,,,,,,,,,,,,,,,,,,70.0,70.0,57.0,133.0,133.0,57.0,2.1,2.11,-198,253,0,283,191,-271,331.42533707618713,331.4254205226898,331.42868399620056,331.4435510635376,331.5826017856598,331.5826017856598,331.5826017856598,331.5826017856598,331.5826017856598,331.5826017856598,331.5826017856598,333.5341727733612,2,2.0853569507598877,None,,,,,,,,,,,,,,,,,,54,1,2025-02-19_15h53.32.854,comp,2024.2.4,57.66150995118235,2025-02-19 15h53.45.561168 -0500,
104,104,0,critical,wdh,20.0,2.1,lower,57.0,133.0,78.0,78.0,133.0,57.0,2,1.3783857822418213,None,,,,,0,0,0,0,0,104,104,10,333.5506434440613,,,,,,,,,,,,,,,,,,,,,,,,,,,,,,,,,,,,,,,,,,,,,,,,,,,,,,,,,,,,,,,,,,,,,,,,,,,,,,,,,57.0,133.0,78.0,78.0,133.0,57.0,2.1,2.11,-202,272,0,287,164,-289,333.5358085632324,333.5358853340149,333.53908014297485,333.5506434440613,333.7023756504059,333.7023756504059,333.7023756504059,333.7023756504059,333.7023756504059,333.7023756504059,333.7023756504059,334.93555545806885,2,1.3783857822418213,None,,,,,,,,,,,,,,,,,,54,1,2025-02-19_15h53.32.854,comp,2024.2.4,57.66150995118235,2025-02-19 15h53.45.561168 -0500,
105,105,0,critical,whd,20.0,4.0,lower,57.0,133.0,133.0,57.0,78.0,78.0,3,1.385319709777832,None,,,,,0,0,0,0,0,105,105,94,334.95102977752686,,,,,,,,,,,,,,,,,,,,,,,,,,,,,,,,,,,,,,,,,,,,,,,,,,,,,,,,,,,,,,,,,,,,,,,,,,,,,,,,,57.0,133.0,133.0,57.0,78.0,78.0,4.0,4.1,-191,-256,0,3,164,-288,334.9370074272156,334.93708419799805,334.9404137134552,334.95102977752686,335.1018261909485,335.1018261909485,335.1018261909485,335.1018261909485,335.1018261909485,335.1018261909485,335.1018261909485,336.3499791622162,3,1.385319709777832,None,,,,,,,,,,,,,,,,,,54,1,2025-02-19_15h53.32.854,comp,2024.2.4,57.66150995118235,2025-02-19 15h53.45.561168 -0500,
106,106,0,filler_square,None,None,None,None,None,None,None,None,None,None,2,1.081937313079834,None,,,,,0,0,0,0,0,106,106,185,336.36678743362427,,,,,,,,,,,,,,,,,,,,,,,,,,,,,,,,,,,,,,,,,,,,,,,,,,,,,,,,,,,,,,,,,,,,,,,,,,,,,,,,,86.2147848291466,78.90816092932351,100.81627562974667,100.81627562974667,64.80682663313725,86.29709587253194,3.0,3.1,-186,258,0,-7,190,-258,336.35169982910156,336.35177636146545,336.3546130657196,336.36678743362427,336.5225555896759,336.5225555896759,336.5225555896759,336.5225555896759,336.5225555896759,336.5225555896759,336.5225555896759,337.4520938396454,2,1.081937313079834,None,,,,,,,,,,,,,,,,,,54,1,2025-02-19_15h53.32.854,comp,2024.2.4,57.66150995118235,2025-02-19 15h53.45.561168 -0500,
107,107,0,filler_random,None,None,None,None,None,None,None,None,None,None,3,1.5888440608978271,None,,,,,0,0,0,0,0,107,107,143,337.46785497665405,,,,,,,,,,,,,,,,,,,,,,,,,,,,,,,,,,,,,,,,,,,,,,,,,,,,,,,,,,,,,,,,,,,,,,,,,,,,,,,,,137.1450116485542,109.9196787031656,111.42106092796634,118.27810937340618,123.61485103401589,126.49903245868886,2.2,2.21,-210,-253,0,260,218,265,337.4537675380707,337.4538462162018,337.45699548721313,337.46785497665405,337.61660623550415,337.61660623550415,337.61660623550415,337.61660623550415,337.61660623550415,337.61660623550415,337.61660623550415,339.0602979660034,3,1.5888440608978271,None,,,,,,,,,,,,,,,,,,54,1,2025-02-19_15h53.32.854,comp,2024.2.4,57.66150995118235,2025-02-19 15h53.45.561168 -0500,
108,108,0,critical,dhw,20.0,2.1,lower,78.0,78.0,133.0,57.0,57.0,133.0,3,3.672013998031616,None,,,,,0,0,0,0,0,108,108,2,339.0776708126068,,,,,,,,,,,,,,,,,,,,,,,,,,,,,,,,,,,,,,,,,,,,,,,,,,,,,,,,,,,,,,,,,,,,,,,,,,,,,,,,,78.0,78.0,133.0,57.0,57.0,133.0,2.1,2.11,-164,281,0,287,191,-288,339.06183385849,339.0619115829468,339.0647883415222,339.0776708126068,339.22003078460693,339.22003078460693,339.22003078460693,339.22003078460693,339.22003078460693,339.22003078460693,339.22003078460693,342.76200461387634,3,3.672013998031616,None,,,,,,,,,,,,,,,,,,54,1,2025-02-19_15h53.32.854,comp,2024.2.4,57.66150995118235,2025-02-19 15h53.45.561168 -0500,
109,109,0,filler_square,None,None,None,None,None,None,None,None,None,None,3,2.0914156436920166,None,,,,,0,0,0,0,0,109,109,176,342.7731113433838,,,,,,,,,,,,,,,,,,,,,,,,,,,,,,,,,,,,,,,,,,,,,,,,,,,,,,,,,,,,,,,,,,,,,,,,,,,,,,,,,83.87103017268234,91.4180275324738,90.68533580926004,94.43098053542178,148.45633152706424,148.45633152706424,4.0,4.2,-189,-9,0,-283,217,16,342.762478351593,342.7624969482422,342.76322960853577,342.7731113433838,342.91981649398804,342.91981649398804,342.91981649398804,342.91981649398804,342.91981649398804,342.91981649398804,342.91981649398804,344.87626576423645,3,2.0914156436920166,None,,,,,,,,,,,,,,,,,,54,1,2025-02-19_15h53.32.854,comp,2024.2.4,57.66150995118235,2025-02-19 15h53.45.561168 -0500,
110,110,0,filler_square,None,None,None,None,None,None,None,None,None,None,3,2.6603355407714844,None,,,,,0,0,0,0,0,110,110,208,344.8929126262665,,,,,,,,,,,,,,,,,,,,,,,,,,,,,,,,,,,,,,,,,,,,,,,,,,,,,,,,,,,,,,,,,,,,,,,,,,,,,,,,,73.69405292348068,86.99157741145657,78.22886784481435,110.36209240872749,111.8614166168964,111.8614166168964,3.0,3.1,-195,272,0,14,207,-273,344.8781177997589,344.87819743156433,344.8810715675354,344.8929126262665,345.04614090919495,345.04614090919495,345.04614090919495,345.04614090919495,345.04614090919495,345.04614090919495,345.04614090919495,347.55909967422485,3,2.6603355407714844,None,,,,,,,,,,,,,,,,,,54,1,2025-02-19_15h53.32.854,comp,2024.2.4,57.66150995118235,2025-02-19 15h53.45.561168 -0500,
111,111,0,catch,None,None,None,None,None,None,None,None,None,None,1,0.8399691581726074,None,,,,,0,0,0,0,0,111,111,127,347.5772292613983,,,,,,,,,,,,,,,,,,,,,,,,,,,,,,,,,,,,,,,,,,,,,,,,,,,,,,,,,,,,,,,,,,,,,,,,,,,,,,,,,194,131,116,74,80,110,2.1,2.12,-198,-287,0,-269,188,268,347.5611605644226,347.561243057251,347.5641350746155,347.5772292613983,347.7233986854553,347.7233986854553,347.7233986854553,347.7233986854553,347.7233986854553,347.7233986854553,347.7233986854553,348.42364168167114,1,0.8399691581726074,None,,,,,,,,,,,,,,,,,,54,1,2025-02-19_15h53.32.854,comp,2024.2.4,57.66150995118235,2025-02-19 15h53.45.561168 -0500,
112,112,0,critical,wdh,35.0,2.1,lower,57.0,133.0,70.0,70.0,133.0,57.0,2,1.464893102645874,None,,,,,0,0,0,0,0,112,112,8,348.4399924278259,,,,,,,,,,,,,,,,,,,,,,,,,,,,,,,,,,,,,,,,,,,,,,,,,,,,,,,,,,,,,,,,,,,,,,,,,,,,,,,,,57.0,133.0,70.0,70.0,133.0,57.0,2.1,2.11,-198,269,0,256,160,-259,348.42517614364624,348.425253868103,348.42927145957947,348.4399924278259,348.5908315181732,348.5908315181732,348.5908315181732,348.5908315181732,348.5908315181732,348.5908315181732,348.5908315181732,349.92324113845825,2,1.464893102645874,None,,,,,,,,,,,,,,,,,,54,1,2025-02-19_15h53.32.854,comp,2024.2.4,57.66150995118235,2025-02-19 15h53.45.561168 -0500,
113,113,0,critical,hdw,20.0,2.1,lower,133.0,57.0,78.0,78.0,57.0,133.0,2,2.730842113494873,None,,,,,0,0,0,0,0,113,113,22,349.941611289978,,,,,,,,,,,,,,,,,,,,,,,,,,,,,,,,,,,,,,,,,,,,,,,,,,,,,,,,,,,,,,,,,,,,,,,,,,,,,,,,,133.0,57.0,78.0,78.0,57.0,133.0,2.1,2.12,-164,-290,0,-280,202,253,349.924880027771,349.92495584487915,349.9283528327942,349.941611289978,350.0915193557739,350.0915193557739,350.0915193557739,350.0915193557739,350.0915193557739,350.0915193557739,350.0915193557739,352.6895160675049,2,2.730842113494873,None,,,,,,,,,,,,,,,,,,54,1,2025-02-19_15h53.32.854,comp,2024.2.4,57.66150995118235,2025-02-19 15h53.45.561168 -0500,
114,114,0,critical,dhw,20.0,1.0,upper,141.0,141.0,200.0,125.0,125.0,200.0,2,3.059997081756592,None,,,,,0,0,0,0,0,114,114,55,352.7087574005127,,,,,,,,,,,,,,,,,,,,,,,,,,,,,,,,,,,,,,,,,,,,,,,,,,,,,,,,,,,,,,,,,,,,,,,,,,,,,,,,,141.0,141.0,200.0,125.0,125.0,200.0,1.0,1.1,-709,272,-480,255,-222,281,352.6909945011139,352.69107031822205,352.6939458847046,352.7087574005127,352.86916613578796,352.86916613578796,352.86916613578796,352.86916613578796,352.86916613578796,352.86916613578796,352.86916613578796,355.7715814113617,2,3.059997081756592,None,,,,,,,,,,,,,,,,,,54,1,2025-02-19_15h53.32.854,comp,2024.2.4,57.66150995118235,2025-02-19 15h53.45.561168 -0500,
115,115,0,filler_random,None,None,None,None,None,None,None,None,None,None,1,1.0283381938934326,None,,,,,0,0,0,0,0,115,115,146,355.78859853744507,,,,,,,,,,,,,,,,,,,,,,,,,,,,,,,,,,,,,,,,,,,,,,,,,,,,,,,,,,,,,,,,,,,,,,,,,,,,,,,,,159.1806325019058,136.06398166644607,65.61625166314982,121.18331802958589,118.60579087126243,118.04626462664247,1.0,1.1,-705,282,-480,275,-264,266,355.77344608306885,355.7735810279846,355.7768886089325,355.78859853744507,355.92597460746765,355.92597460746765,355.92597460746765,355.92597460746765,355.92597460746765,355.92597460746765,355.92597460746765,356.8227229118347,1,1.0283381938934326,None,,,,,,,,,,,,,,,,,,54,1,2025-02-19_15h53.32.854,comp,2024.2.4,57.66150995118235,2025-02-19 15h53.45.561168 -0500,
116,116,0,filler_square,None,None,None,None,None,None,None,None,None,None,2,0.9369702339172363,None,,,,,0,0,0,0,0,116,116,183,356.8395700454712,,,,,,,,,,,,,,,,,,,,,,,,,,,,,,,,,,,,,,,,,,,,,,,,,,,,,,,,,,,,,,,,,,,,,,,,,,,,,,,,,85.06981664589358,132.8113723731684,146.0730213610447,146.0730213610447,92.85501644647216,106.59382352414156,3.0,3.1,-235,282,0,14,222,-285,356.82468819618225,356.82476687431335,356.82795572280884,356.8395700454712,356.9749710559845,356.9749710559845,356.9749710559845,356.9749710559845,356.9749710559845,356.9749710559845,356.9749710559845,357.7930197715759,2,0.9369702339172363,None,,,,,,,,,,,,,,,,,,54,1,2025-02-19_15h53.32.854,comp,2024.2.4,57.66150995118235,2025-02-19 15h53.45.561168 -0500,
117,117,0,critical,dwh,20.0,1.0,lower,78.0,78.0,57.0,133.0,133.0,57.0,3,2.730114459991455,None,,,,,0,0,0,0,0,117,117,66,357.80687737464905,,,,,,,,,,,,,,,,,,,,,,,,,,,,,,,,,,,,,,,,,,,,,,,,,,,,,,,,,,,,,,,,,,,,,,,,,,,,,,,,,78.0,78.0,57.0,133.0,133.0,57.0,1.0,1.2,-202,-11,0,-4,191,-17,357.7944321632385,357.7945284843445,357.79769802093506,357.80687737464905,357.96193408966064,357.96193408966064,357.96193408966064,357.96193408966064,357.96193408966064,357.96193408966064,357.96193408966064,360.5408420562744,3,2.730114459991455,None,,,,,,,,,,,,,,,,,,54,1,2025-02-19_15h53.32.854,comp,2024.2.4,57.66150995118235,2025-02-19 15h53.45.561168 -0500,
118,118,0,critical,hwd,20.0,2.1,lower,133.0,57.0,57.0,133.0,78.0,78.0,1,2.066035270690918,None,,,,,0,0,0,0,0,118,118,18,360.55835008621216,,,,,,,,,,,,,,,,,,,,,,,,,,,,,,,,,,,,,,,,,,,,,,,,,,,,,,,,,,,,,,,,,,,,,,,,,,,,,,,,,133.0,57.0,57.0,133.0,78.0,78.0,2.1,2.11,-191,259,0,270,202,-283,360.54237627983093,360.54247784614563,360.54578709602356,360.55835008621216,360.7189784049988,360.7189784049988,360.7189784049988,360.7189784049988,360.7189784049988,360.7189784049988,360.7189784049988,362.6437692642212,1,2.066035270690918,None,,,,,,,,,,,,,,,,,,54,1,2025-02-19_15h53.32.854,comp,2024.2.4,57.66150995118235,2025-02-19 15h53.45.561168 -0500,
119,119,0,critical,hdw,35.0,4.0,lower,133.0,57.0,70.0,70.0,57.0,133.0,3,1.9583969116210938,None,,,,,0,0,0,0,0,119,119,112,362.659654378891,,,,,,,,,,,,,,,,,,,,,,,,,,,,,,,,,,,,,,,,,,,,,,,,,,,,,,,,,,,,,,,,,,,,,,,,,,,,,,,,,133.0,57.0,70.0,70.0,57.0,133.0,4.0,4.1,-160,-253,0,16,198,-273,362.6452445983887,362.64532017707825,362.64860939979553,362.659654378891,362.80704641342163,362.80704641342163,362.80704641342163,362.80704641342163,362.80704641342163,362.80704641342163,362.80704641342163,364.628662109375,3,1.9583969116210938,None,,,,,,,,,,,,,,,,,,54,1,2025-02-19_15h53.32.854,comp,2024.2.4,57.66150995118235,2025-02-19 15h53.45.561168 -0500,
120,120,0,critical,dhw,20.0,4.0,upper,141.0,141.0,200.0,125.0,125.0,200.0,3,1.5883245468139648,None,,,,,0,0,0,0,0,120,120,59,364.6452076435089,,,,,,,,,,,,,,,,,,,,,,,,,,,,,,,,,,,,,,,,,,,,,,,,,,,,,,,,,,,,,,,,,,,,,,,,,,,,,,,,,141.0,141.0,200.0,125.0,125.0,200.0,4.0,4.1,-229,-259,0,-13,258,-260,364.6302297115326,364.6303086280823,364.6343433856964,364.6452076435089,364.7931966781616,364.7931966781616,364.7931966781616,364.7931966781616,364.7931966781616,364.7931966781616,364.7931966781616,366.2491674423218,3,1.5883245468139648,None,,,,,,,,,,,,,,,,,,54,1,2025-02-19_15h53.32.854,comp,2024.2.4,57.66150995118235,2025-02-19 15h53.45.561168 -0500,
121,121,0,filler_square,None,None,None,None,None,None,None,None,None,None,1,0.7752289772033691,None,,,,,0,0,0,0,0,121,121,202,366.26560616493225,,,,,,,,,,,,,,,,,,,,,,,,,,,,,,,,,,,,,,,,,,,,,,,,,,,,,,,,,,,,,,,,,,,,,,,,,,,,,,,,,183.9704062228837,183.9704062228837,135.1967604283023,78.80047032990906,74.1120561667361,59.55782038445345,2.1,2.11,-227,263,0,263,165,-257,366.25115275382996,366.2512333393097,366.25439453125,366.26560616493225,366.41288137435913,366.41288137435913,366.41288137435913,366.41288137435913,366.41288137435913,366.41288137435913,366.41288137435913,367.04485750198364,1,0.7752289772033691,None,,,,,,,,,,,,,,,,,,54,1,2025-02-19_15h53.32.854,comp,2024.2.4,57.66150995118235,2025-02-19 15h53.45.561168 -0500,
122,122,0,critical,hwd,20.0,4.0,upper,200.0,125.0,125.0,200.0,141.0,141.0,2,1.4647085666656494,None,,,,,0,0,0,0,0,122,122,107,367.06381368637085,,,,,,,,,,,,,,,,,,,,,,,,,,,,,,,,,,,,,,,,,,,,,,,,,,,,,,,,,,,,,,,,,,,,,,,,,,,,,,,,,200.0,125.0,125.0,200.0,141.0,141.0,4.0,4.2,-258,-18,0,-281,266,3,367.04630041122437,367.04637694358826,367.04937195777893,367.06381368637085,367.20032835006714,367.20032835006714,367.20032835006714,367.20032835006714,367.20032835006714,367.20032835006714,367.20032835006714,368.5457327365875,2,1.4647085666656494,None,,,,,,,,,,,,,,,,,,54,1,2025-02-19_15h53.32.854,comp,2024.2.4,57.66150995118235,2025-02-19 15h53.45.561168 -0500,
123,123,0,critical,dwh,35.0,1.0,lower,70.0,70.0,57.0,133.0,133.0,57.0,3,2.0398507118225098,None,,,,,0,0,0,0,0,123,123,60,368.5607671737671,,,,,,,,,,,,,,,,,,,,,,,,,,,,,,,,,,,,,,,,,,,,,,,,,,,,,,,,,,,,,,,,,,,,,,,,,,,,,,,,,70.0,70.0,57.0,133.0,133.0,57.0,1.0,1.3,282,-275,480,-285,671,-264,368.54717230796814,368.54724860191345,368.55035161972046,368.5607671737671,368.7110004425049,368.7110004425049,368.7110004425049,368.7110004425049,368.7110004425049,368.7110004425049,368.7110004425049,370.61467933654785,3,2.0398507118225098,None,,,,,,,,,,,,,,,,,,54,1,2025-02-19_15h53.32.854,comp,2024.2.4,57.66150995118235,2025-02-19 15h53.45.561168 -0500,
124,124,0,filler_random,None,None,None,None,None,None,None,None,None,None,1,1.714418649673462,None,,,,,0,0,0,0,0,124,124,159,370.63011741638184,,,,,,,,,,,,,,,,,,,,,,,,,,,,,,,,,,,,,,,,,,,,,,,,,,,,,,,,,,,,,,,,,,,,,,,,,,,,,,,,,159.55497012425624,198.98992549904776,133.07604558439658,101.52849883795767,182.39755676157807,146.05244480286257,4.0,4.1,-246,-264,0,-16,220,-252,370.61655926704407,370.6166400909424,370.61982893943787,370.63011741638184,370.7805588245392,370.7805588245392,370.7805588245392,370.7805588245392,370.7805588245392,370.7805588245392,370.7805588245392,372.3552153110504,1,1.714418649673462,None,,,,,,,,,,,,,,,,,,54,1,2025-02-19_15h53.32.854,comp,2024.2.4,57.66150995118235,2025-02-19 15h53.45.561168 -0500,
125,125,0,critical,wdh,20.0,2.1,lower,57.0,133.0,78.0,78.0,133.0,57.0,3,3.9086642265319824,None,,,,,0,0,0,0,0,125,125,34,372.37180519104004,,,,,,,,,,,,,,,,,,,,,,,,,,,,,,,,,,,,,,,,,,,,,,,,,,,,,,,,,,,,,,,,,,,,,,,,,,,,,,,,,57.0,133.0,78.0,78.0,133.0,57.0,2.1,2.12,-202,-277,0,-283,164,265,372.35686326026917,372.3569402694702,372.3601474761963,372.37180519104004,372.51416993141174,372.51416993141174,372.51416993141174,372.51416993141174,372.51416993141174,372.51416993141174,372.51416993141174,376.2828686237335,3,3.9086642265319824,None,,,,,,,,,,,,,,,,,,54,1,2025-02-19_15h53.32.854,comp,2024.2.4,57.66150995118235,2025-02-19 15h53.45.561168 -0500,
126,126,0,filler_random,None,None,None,None,None,None,None,None,None,None,3,1.437809944152832,None,,,,,0,0,0,0,0,126,126,157,376.29878997802734,,,,,,,,,,,,,,,,,,,,,,,,,,,,,,,,,,,,,,,,,,,,,,,,,,,,,,,,,,,,,,,,,,,,,,,,,,,,,,,,,106.84990255946516,193.425976327833,113.28569286798283,114.54542326175847,194.94084985028897,189.04917556911354,3.0,3.1,-250,284,0,-6,248,-257,376.284615278244,376.2847180366516,376.2880461215973,376.29878997802734,376.4463312625885,376.4463312625885,376.4463312625885,376.4463312625885,376.4463312625885,376.4463312625885,376.4463312625885,377.7538959980011,3,1.437809944152832,None,,,,,,,,,,,,,,,,,,54,1,2025-02-19_15h53.32.854,comp,2024.2.4,57.66150995118235,2025-02-19 15h53.45.561168 -0500,
127,127,0,critical,whd,20.0,4.0,upper,125.0,200.0,200.0,125.0,141.0,141.0,2,1.3817343711853027,None,,,,,0,0,0,0,0,127,127,95,377.7709789276123,,,,,,,,,,,,,,,,,,,,,,,,,,,,,,,,,,,,,,,,,,,,,,,,,,,,,,,,,,,,,,,,,,,,,,,,,,,,,,,,,125.0,200.0,200.0,125.0,141.0,141.0,4.0,4.2,-258,6,0,-287,229,19,377.7553255558014,377.75540351867676,377.75829005241394,377.7709789276123,377.91612124443054,377.91612124443054,377.91612124443054,377.91612124443054,377.91612124443054,377.91612124443054,377.91612124443054,379.1686999797821,2,1.3817343711853027,None,,,,,,,,,,,,,,,,,,54,1,2025-02-19_15h53.32.854,comp,2024.2.4,57.66150995118235,2025-02-19 15h53.45.561168 -0500,
128,128,0,filler_square,None,None,None,None,None,None,None,None,None,None,1,1.4241125583648682,None,,,,,0,0,0,0,0,128,128,199,379.18449354171753,,,,,,,,,,,,,,,,,,,,,,,,,,,,,,,,,,,,,,,,,,,,,,,,,,,,,,,,,,,,,,,,,,,,,,,,,,,,,,,,,80.73025653302358,76.13320643599181,124.74433372845334,124.74433372845334,109.41275985615385,117.09404340756433,2.1,2.11,-196,268,0,286,217,-284,379.17067790031433,379.1707592010498,379.1741087436676,379.18449354171753,379.33343529701233,379.33343529701233,379.33343529701233,379.33343529701233,379.33343529701233,379.33343529701233,379.33343529701233,380.62457156181335,1,1.4241125583648682,None,,,,,,,,,,,,,,,,,,54,1,2025-02-19_15h53.32.854,comp,2024.2.4,57.66150995118235,2025-02-19 15h53.45.561168 -0500,
129,129,0,critical,hdw,20.0,4.0,lower,133.0,57.0,78.0,78.0,57.0,133.0,3,1.4799785614013672,None,,,,,0,0,0,0,0,129,129,118,380.64049100875854,,,,,,,,,,,,,,,,,,,,,,,,,,,,,,,,,,,,,,,,,,,,,,,,,,,,,,,,,,,,,,,,,,,,,,,,,,,,,,,,,133.0,57.0,78.0,78.0,57.0,133.0,4.0,4.1,-164,-257,0,4,202,-288,380.6261034011841,380.626179933548,380.63003492355347,380.64049100875854,380.7855498790741,380.7855498790741,380.7855498790741,380.7855498790741,380.7855498790741,380.7855498790741,380.7855498790741,382.1299481391907,3,1.4799785614013672,None,,,,,,,,,,,,,,,,,,54,1,2025-02-19_15h53.32.854,comp,2024.2.4,57.66150995118235,2025-02-19 15h53.45.561168 -0500,
130,130,0,critical,dwh,20.0,2.1,upper,141.0,141.0,125.0,200.0,200.0,125.0,3,1.5747551918029785,None,,,,,0,0,0,0,0,130,130,7,382.14574933052063,,,,,,,,,,,,,,,,,,,,,,,,,,,,,,,,,,,,,,,,,,,,,,,,,,,,,,,,,,,,,,,,,,,,,,,,,,,,,,,,,141.0,141.0,125.0,200.0,200.0,125.0,2.1,2.11,-266,251,0,260,258,-254,382.1315727233887,382.1316497325897,382.134916305542,382.14574933052063,382.2944231033325,382.2944231033325,382.2944231033325,382.2944231033325,382.2944231033325,382.2944231033325,382.2944231033325,383.737074136734,3,1.5747551918029785,None,,,,,,,,,,,,,,,,,,54,1,2025-02-19_15h53.32.854,comp,2024.2.4,57.66150995118235,2025-02-19 15h53.45.561168 -0500,
131,131,0,catch,None,None,None,None,None,None,None,None,None,None,3,1.1083934307098389,None,,,,,0,0,0,0,0,131,131,124,383.756219625473,,,,,,,,,,,,,,,,,,,,,,,,,,,,,,,,,,,,,,,,,,,,,,,,,,,,,,,,,,,,,,,,,,,,,,,,,,,,,,,,,63,127,79,111,162,163,3.0,3.1,-215,255,0,-11,233,-277,383.73925137519836,383.7393431663513,383.74298906326294,383.756219625473,383.9015898704529,383.9015898704529,383.9015898704529,383.9015898704529,383.9015898704529,383.9015898704529,383.9015898704529,384.8773295879364,3,1.1083934307098389,None,,,,,,,,,,,,,,,,,,54,1,2025-02-19_15h53.32.854,comp,2024.2.4,57.66150995118235,2025-02-19 15h53.45.561168 -0500,
132,132,0,filler_random,None,None,None,None,None,None,None,None,None,None,2,0.9653024673461914,None,,,,,0,0,0,0,0,132,132,151,384.89136266708374,,,,,,,,,,,,,,,,,,,,,,,,,,,,,,,,,,,,,,,,,,,,,,,,,,,,,,,,,,,,,,,,,,,,,,,,,,,,,,,,,92.65513046104182,150.49752242851125,171.03385736476017,185.62949762352056,124.46604883601292,106.85887621800335,4.0,4.1,-264,-288,0,5,242,-284,384.87894344329834,384.8790194988251,384.8818893432617,384.89136266708374,385.03552055358887,385.03552055358887,385.03552055358887,385.03552055358887,385.03552055358887,385.03552055358887,385.03552055358887,385.87513542175293,2,0.9653024673461914,None,,,,,,,,,,,,,,,,,,54,1,2025-02-19_15h53.32.854,comp,2024.2.4,57.66150995118235,2025-02-19 15h53.45.561168 -0500,
133,133,0,filler_square,None,None,None,None,None,None,None,None,None,None,3,5.990768194198608,None,,,,,0,0,0,0,0,133,133,182,385.8901627063751,,,,,,,,,,,,,,,,,,,,,,,,,,,,,,,,,,,,,,,,,,,,,,,,,,,,,,,,,,,,,,,,,,,,,,,,,,,,,,,,,57.94587831927184,57.94587831927184,57.482536199538586,57.605129876980705,57.28247036858549,57.49157218183249,2.2,2.22,-154,280,0,-275,154,-264,385.8768973350525,385.87697315216064,385.87982058525085,385.8901627063751,386.03484559059143,386.03484559059143,386.03484559059143,386.03484559059143,386.03484559059143,386.03484559059143,386.03484559059143,391.8875684738159,3,5.990768194198608,None,,,,,,,,,,,,,,,,,,54,1,2025-02-19_15h53.32.854,comp,2024.2.4,57.66150995118235,2025-02-19 15h53.45.561168 -0500,
134,134,0,filler_square,None,None,None,None,None,None,None,None,None,None,1,3.36128830909729,None,,,,,0,0,0,0,0,134,134,203,391.9031562805176,,,,,,,,,,,,,,,,,,,,,,,,,,,,,,,,,,,,,,,,,,,,,,,,,,,,,,,,,,,,,,,,,,,,,,,,,,,,,,,,,84.33107543235967,84.33107543235967,83.05815113643331,74.48512265853788,72.94695923664942,80.70985277116364,2.2,2.22,-175,267,0,-266,174,-252,391.8893530368805,391.88943243026733,391.8924672603607,391.9031562805176,392.0532500743866,392.0532500743866,392.0532500743866,392.0532500743866,392.0532500743866,392.0532500743866,392.0532500743866,395.27577233314514,1,3.36128830909729,None,,,,,,,,,,,,,,,,,,54,1,2025-02-19_15h53.32.854,comp,2024.2.4,57.66150995118235,2025-02-19 15h53.45.561168 -0500,
135,135,0,filler_square,None,None,None,None,None,None,None,None,None,None,1,3.0819015502929688,None,,,,,0,0,0,0,0,135,135,179,395.295779466629,,,,,,,,,,,,,,,,,,,,,,,,,,,,,,,,,,,,,,,,,,,,,,,,,,,,,,,,,,,,,,,,,,,,,,,,,,,,,,,,,170.3428919742135,170.3428919742135,157.99126086145054,98.09864724177385,169.78395563288313,152.13637499345467,1.0,1.2,-230,-6,0,-14,221,-2,395.27747631073,395.27755904197693,395.2804002761841,395.295779466629,395.4379312992096,395.4379312992096,395.4379312992096,395.4379312992096,395.4379312992096,395.4379312992096,395.4379312992096,398.389687538147,1,3.0819015502929688,None,,,,,,,,,,,,,,,,,,54,1,2025-02-19_15h53.32.854,comp,2024.2.4,57.66150995118235,2025-02-19 15h53.45.561168 -0500,
136,136,0,critical,hwd,20.0,2.1,lower,133.0,57.0,57.0,133.0,78.0,78.0,3,3.827260971069336,None,,,,,0,0,0,0,0,136,136,42,398.4059615135193,,,,,,,,,,,,,,,,,,,,,,,,,,,,,,,,,,,,,,,,,,,,,,,,,,,,,,,,,,,,,,,,,,,,,,,,,,,,,,,,,133.0,57.0,57.0,133.0,78.0,78.0,2.1,2.11,-191,281,0,256,202,-250,398.39122915267944,398.39130425453186,398.39524698257446,398.4059615135193,398.55947637557983,398.55947637557983,398.55947637557983,398.55947637557983,398.55947637557983,398.55947637557983,398.55947637557983,402.2406578063965,3,3.827260971069336,None,,,,,,,,,,,,,,,,,,54,1,2025-02-19_15h53.32.854,comp,2024.2.4,57.66150995118235,2025-02-19 15h53.45.561168 -0500,
137,137,0,critical,dwh,35.0,4.0,upper,127.0,127.0,125.0,200.0,200.0,125.0,1,1.5116033554077148,None,,,,,0,0,0,0,0,137,137,65,402.25722789764404,,,,,,,,,,,,,,,,,,,,,,,,,,,,,,,,,,,,,,,,,,,,,,,,,,,,,,,,,,,,,,,,,,,,,,,,,,,,,,,,,127.0,127.0,125.0,200.0,200.0,125.0,4.0,4.1,-260,-286,0,-2,258,-258,402.24222779273987,402.2423150539398,402.24619460105896,402.25722789764404,402.4154224395752,402.4154224395752,402.4154224395752,402.4154224395752,402.4154224395752,402.4154224395752,402.4154224395752,403.77574467658997,1,1.5116033554077148,None,,,,,,,,,,,,,,,,,,54,1,2025-02-19_15h53.32.854,comp,2024.2.4,57.66150995118235,2025-02-19 15h53.45.561168 -0500,
138,138,0,filler_random,None,None,None,None,None,None,None,None,None,None,1,1.0479645729064941,None,,,,,0,0,0,0,0,138,138,163,403.79252529144287,,,,,,,,,,,,,,,,,,,,,,,,,,,,,,,,,,,,,,,,,,,,,,,,,,,,,,,,,,,,,,,,,,,,,,,,,,,,,,,,,69.7308424086455,145.81911574723247,110.28274189425285,141.2561553441191,197.66694729664732,72.7618025675882,3.0,3.2,-240,-280,0,-11,203,276,403.7775740623474,403.7776551246643,403.7810974121094,403.79252529144287,403.94399094581604,403.94399094581604,403.94399094581604,403.94399094581604,403.94399094581604,403.94399094581604,403.94399094581604,404.85756611824036,1,1.0479645729064941,None,,,,,,,,,,,,,,,,,,54,1,2025-02-19_15h53.32.854,comp,2024.2.4,57.66150995118235,2025-02-19 15h53.45.561168 -0500,
139,139,0,filler_random,None,None,None,None,None,None,None,None,None,None,2,1.12772536277771,None,,,,,0,0,0,0,0,139,139,132,404.87326312065125,,,,,,,,,,,,,,,,,,,,,,,,,,,,,,,,,,,,,,,,,,,,,,,,,,,,,,,,,,,,,,,,,,,,,,,,,,,,,,,,,142.0165159880221,123.13974954893214,148.54730904217007,161.7675331587866,144.66183107746224,118.84846919989471,2.2,2.21,-238,-255,0,274,236,270,404.8593406677246,404.8594739437103,404.86286425590515,404.87326312065125,405.0269181728363,405.0269181728363,405.0269181728363,405.0269181728363,405.0269181728363,405.0269181728363,405.0269181728363,406.0088040828705,2,1.12772536277771,None,,,,,,,,,,,,,,,,,,54,1,2025-02-19_15h53.32.854,comp,2024.2.4,57.66150995118235,2025-02-19 15h53.45.561168 -0500,
140,140,0,critical,dwh,20.0,4.0,upper,141.0,141.0,125.0,200.0,200.0,125.0,2,3.423029899597168,None,,,,,0,0,0,0,0,140,140,71,406.02548694610596,,,,,,,,,,,,,,,,,,,,,,,,,,,,,,,,,,,,,,,,,,,,,,,,,,,,,,,,,,,,,,,,,,,,,,,,,,,,,,,,,141.0,141.0,125.0,200.0,200.0,125.0,4.0,4.2,-266,5,0,-260,258,13,406.0103385448456,406.0104150772095,406.01379203796387,406.02548694610596,406.18086767196655,406.18086767196655,406.18086767196655,406.18086767196655,406.18086767196655,406.18086767196655,406.18086767196655,409.46104168891907,2,3.423029899597168,None,,,,,,,,,,,,,,,,,,54,1,2025-02-19_15h53.32.854,comp,2024.2.4,57.66150995118235,2025-02-19 15h53.45.561168 -0500,
