thisN,thisTrialN,thisRepN,effect,order,distance,config,diag,h_1,w_1,h_2,w_2,h_3,w_3,rect_choice.keys,rect_choice.rt,rect_choice.duration,instructions_loop.thisRepN,instructions_loop.thisTrialN,instructions_loop.thisN,instructions_loop.thisIndex,blocks.thisRepN,blocks.thisTrialN,blocks.thisN,blocks.thisIndex,trials.thisRepN,trials.thisTrialN,trials.thisN,trials.thisIndex,thisRow.t,notes,consent.started,agree_button.started,decline_button.started,consent_img.started,mouse.started,consent.stopped,agree_button.numClicks,agree_button.timesOn,agree_button.timesOff,decline_button.numClicks,decline_button.timesOn,decline_button.timesOff,mouse.x,mouse.y,mouse.leftButton,mouse.midButton,mouse.rightButton,mouse.time,mouse.clicked_name,exp_params.started,exp_params.stopped,welcome.started,welcome_text.started,welcome_text.stopped,welcome.stopped,instructions_1.started,instructions_1_text_1.started,instructions_1_text_2.started,key_resp.started,instructions_1.stopped,instructions_loop.key_resp.keys,instructions_loop.key_resp.rt,instructions_loop.key_resp.duration,instructions_2.started,instructions_2_text_1.started,instructions_2_text_2.started,key_resp_2.started,instructions_2.stopped,instructions_loop.key_resp_2.keys,instructions_loop.key_resp_2.rt,instructions_loop.key_resp_2.duration,instructions_3.started,instructions_3_text_1.started,r1_instr3.started,r2_instr3.started,r3_instr3.started,r1_instr3_label.started,r2_instr3_label.started,r3_instr3_label.started,instructions_3_text_3.started,instructions_3_text_4.started,key_resp_3.started,instructions_3.stopped,instructions_loop.key_resp_3.keys,instructions_loop.key_resp_3.rt,instructions_loop.key_resp_3.duration,instructions_4.started,instructions_4_text_1.started,instructions_4_text_3.started,instructions_4_text_2.started,key_resp_4.started,instructions_4.stopped,instructions_loop.key_resp_4.keys,instructions_loop.key_resp_4.rt,instructions_loop.key_resp_4.duration,instructions_5.started,instructions_5_text_1.started,instructions_5_text_2.started,key_resp_5.started,instructions_5.stopped,instructions_loop.key_resp_5.keys,instructions_loop.key_resp_5.rt,instructions_loop.key_resp_5.duration,start_exp.started,start_exp_text.started,key_resp_6.started,start_exp.stopped,key_resp_6.keys,key_resp_6.rt,key_resp_6.duration,h_1_tmp,w_1_tmp,h_2_tmp,w_2_tmp,h_3_tmp,w_3_tmp,config_tmp,config_tmp_1,r_1_x,r_1_y,r_2_x,r_2_y,r_3_x,r_3_y,pre_trial.started,pre_trial.stopped,choice_trial.started,rect_choice.started,r_1.started,r_2.started,r_3.started,r_1_label.started,r_2_label.started,r_3_label.started,prompt.started,choice_trial.stopped,trials.rect_choice.keys,trials.rect_choice.rt,trials.rect_choice.duration,end_block.started,end_block_text.started,end_block.stopped,end.started,end_text.started,key_resp_7.started,end.stopped,key_resp_7.keys,key_resp_7.rt,key_resp_7.duration,debriefing.started,debrief_form.started,end_debrief.started,debriefing.stopped,end_debrief.keys,end_debrief.rt,end_debrief.duration,participant,computer,date,expName,psychopyVersion,frameRate,expStart,
,,,,,,,,,,,,,,,,,,,,,,,,,,,,,,,0.014812469482421875,0.036432504653930664,0.036432504653930664,0.036432504653930664,0.014616727828979492,69.99022221565247,1,[69.9517617225647],[69.95178079605103],0,,,[-82.0],[-501.0],[1],[0],[0],[69.97484993934631],['agree_button'],,,,,,,,,,,,,,,,,,,,,,,,,,,,,,,,,,,,,,,,,,,,,,,,,,,,,,,,,,,,,,,,,,,,,,,,,,,,,,,,,,,,,,,,,,,,,,,,,,,,,,,,,,,,55,2,2025-02-19_15h53.57.881,comp,2024.2.4,57.366083701362385,2025-02-19 15h54.10.971989 -0500,
,,,,,,,,,,,,,,,,,,,,,,,,,,,,,,,,,,,,,,,,,,,,,,,,,,69.99071073532104,69.99076724052429,,,,,,,,,,,,,,,,,,,,,,,,,,,,,,,,,,,,,,,,,,,,,,,,,,,,,,,,,,,,,,,,,,,,,,,,,,,,,,,,,,,,,,,,,,,,,,,,,,,,,,,,,,55,2,2025-02-19_15h53.57.881,comp,2024.2.4,57.366083701362385,2025-02-19 15h54.10.971989 -0500,
,,,,,,,,,,,,,,,,,,,,,,,,,,,,,,,,,,,,,,,,,,,,,,,,,,,,69.99080514907837,70.00547981262207,72.00908732414246,71.99067401885986,,,,,,,,,,,,,,,,,,,,,,,,,,,,,,,,,,,,,,,,,,,,,,,,,,,,,,,,,,,,,,,,,,,,,,,,,,,,,,,,,,,,,,,,,,,,,,,,,,,,,,55,2,2025-02-19_15h53.57.881,comp,2024.2.4,57.366083701362385,2025-02-19 15h54.10.971989 -0500,
0,0,0,,,,,,,,,,,,,,,0,0,0,0,,,,,,,,,72.00908732414246,,,,,,,,,,,,,,,,,,,,,,,,,,,71.99151945114136,72.00908732414246,72.00908732414246,73.49307131767273,77.44595074653625,space,3.943128824234009,None,77.4460916519165,77.462486743927,77.462486743927,78.9469244480133,84.38148403167725,space,5.425753831863403,None,84.38163423538208,84.41314721107483,84.41314721107483,84.41314721107483,84.41314721107483,84.41314721107483,84.41314721107483,84.41314721107483,84.41314721107483,84.41314721107483,85.8871169090271,93.38556504249573,space,7.493585824966431,None,93.38572287559509,93.40667700767517,93.40667700767517,93.40667700767517,94.89972376823425,108.92325186729431,space,14.008622646331787,None,108.92340636253357,108.93863821029663,108.93863821029663,110.43802404403687,112.32518410682678,space,1.8701446056365967,None,112.32537603378296,112.33655524253845,112.33655524253845,113.92598581314087,space,1.580228328704834,None,,,,,,,,,,,,,,,,,,,,,,,,,,,,,,,,,,,,,,,,,,,,,,,55,2,2025-02-19_15h53.57.881,comp,2024.2.4,57.366083701362385,2025-02-19 15h54.10.971989 -0500,
0,0,0,critical,hdw,20.0,1.0,upper,200.0,125.0,141.0,141.0,125.0,200.0,3,8.18672800064087,None,,,,,0,0,0,0,0,0,0,115,114.00207352638245,,,,,,,,,,,,,,,,,,,,,,,,,,,,,,,,,,,,,,,,,,,,,,,,,,,,,,,,,,,,,,,,,,,,,,,,,,,,,,,,,,200.0,125.0,141.0,141.0,125.0,200.0,1.0,1.1,-709,278,-480,253,-214,278,113.98564720153809,113.98568606376648,113.98711037635803,114.00207352638245,114.14985203742981,114.14985203742981,114.14985203742981,114.14985203742981,114.14985203742981,114.14985203742981,114.14985203742981,122.19440603256226,3,8.18672800064087,None,,,,,,,,,,,,,,,,,,55,2,2025-02-19_15h53.57.881,comp,2024.2.4,57.366083701362385,2025-02-19 15h54.10.971989 -0500,
1,1,0,critical,wdh,20.0,3.0,lower,57.0,133.0,78.0,78.0,133.0,57.0,3,7.265700101852417,None,,,,,0,0,0,0,0,1,1,80,122.21057510375977,,,,,,,,,,,,,,,,,,,,,,,,,,,,,,,,,,,,,,,,,,,,,,,,,,,,,,,,,,,,,,,,,,,,,,,,,,,,,,,,,,57.0,133.0,78.0,78.0,133.0,57.0,3.0,3.1,-202,267,0,8,164,-267,122.19593620300293,122.19601321220398,122.19948196411133,122.21057510375977,122.35964226722717,122.35964226722717,122.35964226722717,122.35964226722717,122.35964226722717,122.35964226722717,122.35964226722717,129.48010540008545,3,7.265700101852417,None,,,,,,,,,,,,,,,,,,55,2,2025-02-19_15h53.57.881,comp,2024.2.4,57.366083701362385,2025-02-19 15h54.10.971989 -0500,
2,2,0,catch,None,None,None,None,None,None,None,None,None,None,1,2.123242139816284,None,,,,,0,0,0,0,0,2,2,125,129.49704670906067,,,,,,,,,,,,,,,,,,,,,,,,,,,,,,,,,,,,,,,,,,,,,,,,,,,,,,,,,,,,,,,,,,,,,,,,,,,,,,,,,,136,189,124,66,120,70,4.0,4.1,-224,-272,0,9,164,-282,129.48198866844177,129.48206400871277,129.48618912696838,129.49704670906067,129.6453514099121,129.6453514099121,129.6453514099121,129.6453514099121,129.6453514099121,129.6453514099121,129.6453514099121,131.63308668136597,1,2.123242139816284,None,,,,,,,,,,,,,,,,,,55,2,2025-02-19_15h53.57.881,comp,2024.2.4,57.366083701362385,2025-02-19 15h54.10.971989 -0500,
3,3,0,critical,hdw,35.0,1.0,upper,200.0,125.0,127.0,127.0,125.0,200.0,3,6.39241886138916,None,,,,,0,0,0,0,0,3,3,109,131.65214490890503,,,,,,,,,,,,,,,,,,,,,,,,,,,,,,,,,,,,,,,,,,,,,,,,,,,,,,,,,,,,,,,,,,,,,,,,,,,,,,,,,,200.0,125.0,127.0,127.0,125.0,200.0,1.0,1.2,-222,-9,0,0,260,11,131.6346414089203,131.6347141265869,131.638090133667,131.65214490890503,131.79915595054626,131.79915595054626,131.79915595054626,131.79915595054626,131.79915595054626,131.79915595054626,131.79915595054626,138.05175805091858,3,6.39241886138916,None,,,,,,,,,,,,,,,,,,55,2,2025-02-19_15h53.57.881,comp,2024.2.4,57.366083701362385,2025-02-19 15h54.10.971989 -0500,
4,4,0,filler_random,None,None,None,None,None,None,None,None,None,None,1,2.459423065185547,None,,,,,0,0,0,0,0,4,4,141,138.07290029525757,,,,,,,,,,,,,,,,,,,,,,,,,,,,,,,,,,,,,,,,,,,,,,,,,,,,,,,,,,,,,,,,,,,,,,,,,,,,,,,,,,156.4894665372526,198.4426788535288,125.71266650953707,92.61265801357459,179.6650962732614,148.61557724201867,1.0,1.3,238,-270,480,-272,697,-279,138.05352425575256,138.05360674858093,138.05704522132874,138.07290029525757,138.21582674980164,138.21582674980164,138.21582674980164,138.21582674980164,138.21582674980164,138.21582674980164,138.21582674980164,140.5503749847412,1,2.459423065185547,None,,,,,,,,,,,,,,,,,,55,2,2025-02-19_15h53.57.881,comp,2024.2.4,57.366083701362385,2025-02-19 15h54.10.971989 -0500,
5,5,0,critical,hwd,35.0,2.1,upper,200.0,125.0,125.0,200.0,127.0,127.0,2,2.3220653533935547,None,,,,,0,0,0,0,0,5,5,17,140.57034754753113,,,,,,,,,,,,,,,,,,,,,,,,,,,,,,,,,,,,,,,,,,,,,,,,,,,,,,,,,,,,,,,,,,,,,,,,,,,,,,,,,,200.0,125.0,125.0,200.0,127.0,127.0,2.1,2.12,-258,-251,0,-286,260,284,140.55187964439392,140.55195116996765,140.55509424209595,140.57034754753113,140.7161819934845,140.7161819934845,140.7161819934845,140.7161819934845,140.7161819934845,140.7161819934845,140.7161819934845,142.902272939682,2,2.3220653533935547,None,,,,,,,,,,,,,,,,,,55,2,2025-02-19_15h53.57.881,comp,2024.2.4,57.366083701362385,2025-02-19 15h54.10.971989 -0500,
6,6,0,filler_square,None,None,None,None,None,None,None,None,None,None,3,2.4779255390167236,None,,,,,0,0,0,0,0,6,6,201,142.91874980926514,,,,,,,,,,,,,,,,,,,,,,,,,,,,,,,,,,,,,,,,,,,,,,,,,,,,,,,,,,,,,,,,,,,,,,,,,,,,,,,,,,134.74533515220872,134.74533515220872,86.21228487026238,62.21406759792032,125.11146414371792,128.2125245470628,1.0,1.1,-674,285,-480,263,-289,251,142.9042365550995,142.90431237220764,142.90795278549194,142.91874980926514,143.06740593910217,143.06740593910217,143.06740593910217,143.06740593910217,143.06740593910217,143.06740593910217,143.06740593910217,145.40241169929504,3,2.4779255390167236,None,,,,,,,,,,,,,,,,,,55,2,2025-02-19_15h53.57.881,comp,2024.2.4,57.366083701362385,2025-02-19 15h54.10.971989 -0500,
7,7,0,filler_random,None,None,None,None,None,None,None,None,None,None,3,1.370079517364502,None,,,,,0,0,0,0,0,7,7,153,145.41825246810913,,,,,,,,,,,,,,,,,,,,,,,,,,,,,,,,,,,,,,,,,,,,,,,,,,,,,,,,,,,,,,,,,,,,,,,,,,,,,,,,,,110.13192768352901,110.59832279325414,109.80587875618649,138.20717337822617,150.64539467492625,195.10479877600906,3.0,3.2,-220,-278,0,15,263,262,145.40409231185913,145.40416502952576,145.4076144695282,145.41825246810913,145.568256855011,145.568256855011,145.568256855011,145.568256855011,145.568256855011,145.568256855011,145.568256855011,146.80140042304993,3,1.370079517364502,None,,,,,,,,,,,,,,,,,,55,2,2025-02-19_15h53.57.881,comp,2024.2.4,57.366083701362385,2025-02-19 15h54.10.971989 -0500,
8,8,0,filler_random,None,None,None,None,None,None,None,None,None,None,1,1.9748196601867676,None,,,,,0,0,0,0,0,8,8,159,146.82150769233704,,,,,,,,,,,,,,,,,,,,,,,,,,,,,,,,,,,,,,,,,,,,,,,,,,,,,,,,,,,,,,,,,,,,,,,,,,,,,,,,,,161.9588999258719,161.59193716239247,68.17771873881682,152.1938027560929,147.63034330347887,71.6266422418398,2.1,2.12,-253,-286,0,-284,208,273,146.8030993938446,146.8031723499298,146.80652451515198,146.82150769233704,146.95620250701904,146.95620250701904,146.95620250701904,146.95620250701904,146.95620250701904,146.95620250701904,146.95620250701904,148.8061683177948,1,1.9748196601867676,None,,,,,,,,,,,,,,,,,,55,2,2025-02-19_15h53.57.881,comp,2024.2.4,57.366083701362385,2025-02-19 15h54.10.971989 -0500,
9,9,0,filler_square,None,None,None,None,None,None,None,None,None,None,2,1.8774206638336182,None,,,,,0,0,0,0,0,9,9,203,148.8231508731842,,,,,,,,,,,,,,,,,,,,,,,,,,,,,,,,,,,,,,,,,,,,,,,,,,,,,,,,,,,,,,,,,,,,,,,,,,,,,,,,,,73.4981888676401,90.98221449122609,192.4666991970169,192.4666991970169,153.30860692882965,98.22333496290943,3.0,3.2,-238,-263,0,-10,241,253,148.80813455581665,148.80821347236633,148.81149220466614,148.8231508731842,148.97237634658813,148.97237634658813,148.97237634658813,148.97237634658813,148.97237634658813,148.97237634658813,148.97237634658813,150.70254349708557,2,1.8774206638336182,None,,,,,,,,,,,,,,,,,,55,2,2025-02-19_15h53.57.881,comp,2024.2.4,57.366083701362385,2025-02-19 15h54.10.971989 -0500,
10,10,0,critical,hwd,20.0,4.0,upper,200.0,125.0,125.0,200.0,141.0,141.0,3,3.700984477996826,None,,,,,0,0,0,0,0,10,10,107,150.71932315826416,,,,,,,,,,,,,,,,,,,,,,,,,,,,,,,,,,,,,,,,,,,,,,,,,,,,,,,,,,,,,,,,,,,,,,,,,,,,,,,,,,200.0,125.0,125.0,200.0,141.0,141.0,4.0,4.2,-258,17,0,-283,266,4,150.70412850379944,150.7042019367218,150.70757937431335,150.71932315826416,150.8729910850525,150.8729910850525,150.8729910850525,150.8729910850525,150.8729910850525,150.8729910850525,150.8729910850525,154.43733501434326,3,3.700984477996826,None,,,,,,,,,,,,,,,,,,55,2,2025-02-19_15h53.57.881,comp,2024.2.4,57.366083701362385,2025-02-19 15h54.10.971989 -0500,
11,11,0,critical,hdw,35.0,2.1,upper,200.0,125.0,127.0,127.0,125.0,200.0,3,2.2715375423431396,None,,,,,0,0,0,0,0,11,11,21,154.45274901390076,,,,,,,,,,,,,,,,,,,,,,,,,,,,,,,,,,,,,,,,,,,,,,,,,,,,,,,,,,,,,,,,,,,,,,,,,,,,,,,,,,200.0,125.0,127.0,127.0,125.0,200.0,2.1,2.11,-222,251,0,253,260,-286,154.43878412246704,154.43885684013367,154.44206357002258,154.45274901390076,154.60668540000916,154.60668540000916,154.60668540000916,154.60668540000916,154.60668540000916,154.60668540000916,154.60668540000916,156.74005222320557,3,2.2715375423431396,None,,,,,,,,,,,,,,,,,,55,2,2025-02-19_15h53.57.881,comp,2024.2.4,57.366083701362385,2025-02-19 15h54.10.971989 -0500,
12,12,0,filler_square,None,None,None,None,None,None,None,None,None,None,2,1.5574860572814941,None,,,,,0,0,0,0,0,12,12,204,156.75879216194153,,,,,,,,,,,,,,,,,,,,,,,,,,,,,,,,,,,,,,,,,,,,,,,,,,,,,,,,,,,,,,,,,,,,,,,,,,,,,,,,,,60.83899698205954,95.19552526041402,104.42524710313438,104.42524710313438,66.13074706355775,77.72703247888467,4.0,4.1,-196,-268,0,-18,187,-268,156.74217319488525,156.7422480583191,156.74606490135193,156.75879216194153,156.90477657318115,156.90477657318115,156.90477657318115,156.90477657318115,156.90477657318115,156.90477657318115,156.90477657318115,158.32714009284973,2,1.5574860572814941,None,,,,,,,,,,,,,,,,,,55,2,2025-02-19_15h53.57.881,comp,2024.2.4,57.366083701362385,2025-02-19 15h54.10.971989 -0500,
13,13,0,critical,whd,20.0,1.0,upper,125.0,200.0,200.0,125.0,141.0,141.0,2,2.3062546253204346,None,,,,,0,0,0,0,0,13,13,91,158.34688234329224,,,,,,,,,,,,,,,,,,,,,,,,,,,,,,,,,,,,,,,,,,,,,,,,,,,,,,,,,,,,,,,,,,,,,,,,,,,,,,,,,,125.0,200.0,200.0,125.0,141.0,141.0,1.0,1.1,-738,273,-480,281,-251,278,158.32870197296143,158.32877588272095,158.331787109375,158.34688234329224,158.48982644081116,158.48982644081116,158.48982644081116,158.48982644081116,158.48982644081116,158.48982644081116,158.48982644081116,160.6613428592682,2,2.3062546253204346,None,,,,,,,,,,,,,,,,,,55,2,2025-02-19_15h53.57.881,comp,2024.2.4,57.366083701362385,2025-02-19 15h54.10.971989 -0500,
14,14,0,filler_square,None,None,None,None,None,None,None,None,None,None,1,1.2465465068817139,None,,,,,0,0,0,0,0,14,14,192,160.67846822738647,,,,,,,,,,,,,,,,,,,,,,,,,,,,,,,,,,,,,,,,,,,,,,,,,,,,,,,,,,,,,,,,,,,,,,,,,,,,,,,,,,158.56553994896484,158.56553994896484,65.41597606148275,61.05599619190567,111.00146398069779,130.22592884452928,1.0,1.2,-206,-7,0,3,192,4,160.66331696510315,160.66339588165283,160.66670560836792,160.67846822738647,160.82190537452698,160.82190537452698,160.82190537452698,160.82190537452698,160.82190537452698,160.82190537452698,160.82190537452698,161.93250370025635,1,1.2465465068817139,None,,,,,,,,,,,,,,,,,,55,2,2025-02-19_15h53.57.881,comp,2024.2.4,57.366083701362385,2025-02-19 15h54.10.971989 -0500,
15,15,0,critical,dhw,20.0,2.1,upper,141.0,141.0,200.0,125.0,125.0,200.0,3,2.063527822494507,None,,,,,0,0,0,0,0,15,15,27,161.94918179512024,,,,,,,,,,,,,,,,,,,,,,,,,,,,,,,,,,,,,,,,,,,,,,,,,,,,,,,,,,,,,,,,,,,,,,,,,,,,,,,,,,141.0,141.0,200.0,125.0,125.0,200.0,2.1,2.12,-229,-255,0,-282,258,257,161.93408370018005,161.9341595172882,161.93757605552673,161.94918179512024,162.09156250953674,162.09156250953674,162.09156250953674,162.09156250953674,162.09156250953674,162.09156250953674,162.09156250953674,164.02633452415466,3,2.063527822494507,None,,,,,,,,,,,,,,,,,,55,2,2025-02-19_15h53.57.881,comp,2024.2.4,57.366083701362385,2025-02-19 15h54.10.971989 -0500,
16,16,0,critical,hwd,35.0,4.0,lower,133.0,57.0,57.0,133.0,70.0,70.0,2,4.378647089004517,None,,,,,0,0,0,0,0,16,16,100,164.04191517829895,,,,,,,,,,,,,,,,,,,,,,,,,,,,,,,,,,,,,,,,,,,,,,,,,,,,,,,,,,,,,,,,,,,,,,,,,,,,,,,,,,133.0,57.0,57.0,133.0,70.0,70.0,4.0,4.2,-191,12,0,-282,198,9,164.02811074256897,164.02823424339294,164.03169512748718,164.04191517829895,164.1931631565094,164.1931631565094,164.1931631565094,164.1931631565094,164.1931631565094,164.1931631565094,164.1931631565094,168.42671155929565,2,4.378647089004517,None,,,,,,,,,,,,,,,,,,55,2,2025-02-19_15h53.57.881,comp,2024.2.4,57.366083701362385,2025-02-19 15h54.10.971989 -0500,
17,17,0,filler_square,None,None,None,None,None,None,None,None,None,None,3,3.108916759490967,None,,,,,0,0,0,0,0,17,17,198,168.4479579925537,,,,,,,,,,,,,,,,,,,,,,,,,,,,,,,,,,,,,,,,,,,,,,,,,,,,,,,,,,,,,,,,,,,,,,,,,,,,,,,,,,112.78044750604076,70.1788411516223,67.74292095507299,107.91396531225843,124.28368242860353,124.28368242860353,4.0,4.2,-185,-15,0,-285,212,-15,168.42852139472961,168.4286503791809,168.43197226524353,168.4479579925537,168.59584188461304,168.59584188461304,168.59584188461304,168.59584188461304,168.59584188461304,168.59584188461304,168.59584188461304,171.57556438446045,3,3.108916759490967,None,,,,,,,,,,,,,,,,,,55,2,2025-02-19_15h53.57.881,comp,2024.2.4,57.366083701362385,2025-02-19 15h54.10.971989 -0500,
18,18,0,critical,dhw,20.0,3.0,lower,78.0,78.0,133.0,57.0,57.0,133.0,2,2.036982536315918,None,,,,,0,0,0,0,0,18,18,56,171.59174990653992,,,,,,,,,,,,,,,,,,,,,,,,,,,,,,,,,,,,,,,,,,,,,,,,,,,,,,,,,,,,,,,,,,,,,,,,,,,,,,,,,,78.0,78.0,133.0,57.0,57.0,133.0,3.0,3.1,-164,270,0,-1,191,-273,171.57706212997437,171.57713294029236,171.5803987979889,171.59174990653992,171.74619245529175,171.74619245529175,171.74619245529175,171.74619245529175,171.74619245529175,171.74619245529175,171.74619245529175,173.63105845451355,2,2.036982536315918,None,,,,,,,,,,,,,,,,,,55,2,2025-02-19_15h53.57.881,comp,2024.2.4,57.366083701362385,2025-02-19 15h54.10.971989 -0500,
19,19,0,critical,dwh,20.0,4.0,lower,78.0,78.0,57.0,133.0,133.0,57.0,2,2.1633098125457764,None,,,,,0,0,0,0,0,19,19,70,173.6490261554718,,,,,,,,,,,,,,,,,,,,,,,,,,,,,,,,,,,,,,,,,,,,,,,,,,,,,,,,,,,,,,,,,,,,,,,,,,,,,,,,,,78.0,78.0,57.0,133.0,133.0,57.0,4.0,4.1,-202,-260,0,-6,191,-262,173.63297653198242,173.63305735588074,173.63606452941895,173.6490261554718,173.79405164718628,173.79405164718628,173.79405164718628,173.79405164718628,173.79405164718628,173.79405164718628,173.79405164718628,175.82776498794556,2,2.1633098125457764,None,,,,,,,,,,,,,,,,,,55,2,2025-02-19_15h53.57.881,comp,2024.2.4,57.366083701362385,2025-02-19 15h54.10.971989 -0500,
20,20,0,critical,dwh,20.0,2.1,upper,141.0,141.0,125.0,200.0,200.0,125.0,3,2.8494369983673096,None,,,,,0,0,0,0,0,20,20,7,175.8435516357422,,,,,,,,,,,,,,,,,,,,,,,,,,,,,,,,,,,,,,,,,,,,,,,,,,,,,,,,,,,,,,,,,,,,,,,,,,,,,,,,,,141.0,141.0,125.0,200.0,200.0,125.0,2.1,2.12,-266,-261,0,-253,258,277,175.82930159568787,175.8293740749359,175.83299708366394,175.8435516357422,175.99357318878174,175.99357318878174,175.99357318878174,175.99357318878174,175.99357318878174,175.99357318878174,175.99357318878174,178.6955394744873,3,2.8494369983673096,None,,,,,,,,,,,,,,,,,,55,2,2025-02-19_15h53.57.881,comp,2024.2.4,57.366083701362385,2025-02-19 15h54.10.971989 -0500,
21,21,0,filler_square,None,None,None,None,None,None,None,None,None,None,3,0.9881517887115479,None,,,,,0,0,0,0,0,21,21,187,178.71242237091064,,,,,,,,,,,,,,,,,,,,,,,,,,,,,,,,,,,,,,,,,,,,,,,,,,,,,,,,,,,,,,,,,,,,,,,,,,,,,,,,,,85.54628214538688,91.88692475296315,113.32111250345368,77.79933365272355,132.77459943930205,132.77459943930205,3.0,3.2,-181,-279,0,-7,201,284,178.69745445251465,178.69757294654846,178.70175457000732,178.71242237091064,178.86298513412476,178.86298513412476,178.86298513412476,178.86298513412476,178.86298513412476,178.86298513412476,178.86298513412476,179.7148563861847,3,0.9881517887115479,None,,,,,,,,,,,,,,,,,,55,2,2025-02-19_15h53.57.881,comp,2024.2.4,57.366083701362385,2025-02-19 15h54.10.971989 -0500,
22,22,0,catch,None,None,None,None,None,None,None,None,None,None,3,1.6248633861541748,None,,,,,0,0,0,0,0,22,22,128,179.73145604133606,,,,,,,,,,,,,,,,,,,,,,,,,,,,,,,,,,,,,,,,,,,,,,,,,,,,,,,,,,,,,,,,,,,,,,,,,,,,,,,,,,114,76,121,69,154,171,2.1,2.11,-168,261,0,281,216,-285,179.7168309688568,179.7169051170349,179.7208571434021,179.73145604133606,179.88083052635193,179.88083052635193,179.88083052635193,179.88083052635193,179.88083052635193,179.88083052635193,179.88083052635193,181.36621046066284,3,1.6248633861541748,None,,,,,,,,,,,,,,,,,,55,2,2025-02-19_15h53.57.881,comp,2024.2.4,57.366083701362385,2025-02-19 15h54.10.971989 -0500,
23,23,0,critical,wdh,35.0,2.1,lower,57.0,133.0,70.0,70.0,133.0,57.0,1,4.309831142425537,None,,,,,0,0,0,0,0,23,23,32,181.38304901123047,,,,,,,,,,,,,,,,,,,,,,,,,,,,,,,,,,,,,,,,,,,,,,,,,,,,,,,,,,,,,,,,,,,,,,,,,,,,,,,,,,57.0,133.0,70.0,70.0,133.0,57.0,2.1,2.11,-198,290,0,260,160,-280,181.3678548336029,181.36794185638428,181.37140154838562,181.38304901123047,181.5301694869995,181.5301694869995,181.5301694869995,181.5301694869995,181.5301694869995,181.5301694869995,181.5301694869995,185.69587635993958,1,4.309831142425537,None,,,,,,,,,,,,,,,,,,55,2,2025-02-19_15h53.57.881,comp,2024.2.4,57.366083701362385,2025-02-19 15h54.10.971989 -0500,
24,24,0,critical,dwh,35.0,4.0,upper,127.0,127.0,125.0,200.0,200.0,125.0,3,2.235865831375122,None,,,,,0,0,0,0,0,24,24,65,185.71270656585693,,,,,,,,,,,,,,,,,,,,,,,,,,,,,,,,,,,,,,,,,,,,,,,,,,,,,,,,,,,,,,,,,,,,,,,,,,,,,,,,,,127.0,127.0,125.0,200.0,200.0,125.0,4.0,4.1,-260,-270,0,-10,258,-273,185.69746708869934,185.69754219055176,185.70108485221863,185.71270656585693,185.86409497261047,185.86409497261047,185.86409497261047,185.86409497261047,185.86409497261047,185.86409497261047,185.86409497261047,187.96504187583923,3,2.235865831375122,None,,,,,,,,,,,,,,,,,,55,2,2025-02-19_15h53.57.881,comp,2024.2.4,57.366083701362385,2025-02-19 15h54.10.971989 -0500,
25,25,0,filler_square,None,None,None,None,None,None,None,None,None,None,3,1.1124677658081055,None,,,,,0,0,0,0,0,25,25,174,187.98046779632568,,,,,,,,,,,,,,,,,,,,,,,,,,,,,,,,,,,,,,,,,,,,,,,,,,,,,,,,,,,,,,,,,,,,,,,,,,,,,,,,,,61.54548038000038,128.41972313861172,159.28387798628208,112.52831414148842,164.45184359522528,164.45184359522528,1.0,1.2,-216,-10,0,14,234,-4,187.966783285141,187.9668571949005,187.97025513648987,187.98046779632568,188.13250875473022,188.13250875473022,188.13250875473022,188.13250875473022,188.13250875473022,188.13250875473022,188.13250875473022,189.0978548526764,3,1.1124677658081055,None,,,,,,,,,,,,,,,,,,55,2,2025-02-19_15h53.57.881,comp,2024.2.4,57.366083701362385,2025-02-19 15h54.10.971989 -0500,
26,26,0,filler_square,None,None,None,None,None,None,None,None,None,None,1,1.5912952423095703,None,,,,,0,0,0,0,0,26,26,196,189.1177899837494,,,,,,,,,,,,,,,,,,,,,,,,,,,,,,,,,,,,,,,,,,,,,,,,,,,,,,,,,,,,,,,,,,,,,,,,,,,,,,,,,,153.77050426255948,153.77050426255948,126.1899541838436,112.54559097200098,111.86576455503877,63.24259964245896,2.2,2.22,-229,278,0,-283,184,-262,189.09962344169617,189.09969782829285,189.10282468795776,189.1177899837494,189.2653522491455,189.2653522491455,189.2653522491455,189.2653522491455,189.2653522491455,189.2653522491455,189.2653522491455,190.71631026268005,1,1.5912952423095703,None,,,,,,,,,,,,,,,,,,55,2,2025-02-19_15h53.57.881,comp,2024.2.4,57.366083701362385,2025-02-19 15h54.10.971989 -0500,
27,27,0,critical,dhw,35.0,2.1,lower,70.0,70.0,133.0,57.0,57.0,133.0,3,2.6968863010406494,None,,,,,0,0,0,0,0,27,27,0,190.73187494277954,,,,,,,,,,,,,,,,,,,,,,,,,,,,,,,,,,,,,,,,,,,,,,,,,,,,,,,,,,,,,,,,,,,,,,,,,,,,,,,,,,70.0,70.0,133.0,57.0,57.0,133.0,2.1,2.12,-160,-260,0,-252,191,260,190.71781468391418,190.71788835525513,190.72128820419312,190.73187494277954,190.88452100753784,190.88452100753784,190.88452100753784,190.88452100753784,190.88452100753784,190.88452100753784,190.88452100753784,193.4343364238739,3,2.6968863010406494,None,,,,,,,,,,,,,,,,,,55,2,2025-02-19_15h53.57.881,comp,2024.2.4,57.366083701362385,2025-02-19 15h54.10.971989 -0500,
28,28,0,filler_square,None,None,None,None,None,None,None,None,None,None,3,1.0106227397918701,None,,,,,0,0,0,0,0,28,28,175,193.4503357410431,,,,,,,,,,,,,,,,,,,,,,,,,,,,,,,,,,,,,,,,,,,,,,,,,,,,,,,,,,,,,,,,,,,,,,,,,,,,,,,,,,62.57453502381824,112.39746926032026,63.47647642369479,97.68854313600744,130.4778427573205,130.4778427573205,2.1,2.12,-201,-279,0,-287,210,277,193.43605399131775,193.43612790107727,193.4390594959259,193.4503357410431,193.60418820381165,193.60418820381165,193.60418820381165,193.60418820381165,193.60418820381165,193.60418820381165,193.60418820381165,194.46505546569824,3,1.0106227397918701,None,,,,,,,,,,,,,,,,,,55,2,2025-02-19_15h53.57.881,comp,2024.2.4,57.366083701362385,2025-02-19 15h54.10.971989 -0500,
29,29,0,critical,hwd,20.0,1.0,upper,200.0,125.0,125.0,200.0,141.0,141.0,2,2.1230990886688232,None,,,,,0,0,0,0,0,29,29,103,194.481600522995,,,,,,,,,,,,,,,,,,,,,,,,,,,,,,,,,,,,,,,,,,,,,,,,,,,,,,,,,,,,,,,,,,,,,,,,,,,,,,,,,,200.0,125.0,125.0,200.0,141.0,141.0,1.0,1.1,-738,275,-480,252,-214,283,194.46663546562195,194.46672987937927,194.47008872032166,194.481600522995,194.6257667541504,194.6257667541504,194.6257667541504,194.6257667541504,194.6257667541504,194.6257667541504,194.6257667541504,196.62318348884583,2,2.1230990886688232,None,,,,,,,,,,,,,,,,,,55,2,2025-02-19_15h53.57.881,comp,2024.2.4,57.366083701362385,2025-02-19 15h54.10.971989 -0500,
30,30,0,critical,wdh,20.0,4.0,upper,125.0,200.0,141.0,141.0,200.0,125.0,1,2.325880289077759,None,,,,,0,0,0,0,0,30,30,83,196.63855600357056,,,,,,,,,,,,,,,,,,,,,,,,,,,,,,,,,,,,,,,,,,,,,,,,,,,,,,,,,,,,,,,,,,,,,,,,,,,,,,,,,,125.0,200.0,141.0,141.0,200.0,125.0,4.0,4.1,-266,-259,0,1,229,-252,196.62477612495422,196.62485551834106,196.6282036304474,196.63855600357056,196.7844762802124,196.7844762802124,196.7844762802124,196.7844762802124,196.7844762802124,196.7844762802124,196.7844762802124,198.97504043579102,1,2.325880289077759,None,,,,,,,,,,,,,,,,,,55,2,2025-02-19_15h53.57.881,comp,2024.2.4,57.366083701362385,2025-02-19 15h54.10.971989 -0500,
31,31,0,filler_square,None,None,None,None,None,None,None,None,None,None,1,1.6223328113555908,None,,,,,0,0,0,0,0,31,31,181,198.9905025959015,,,,,,,,,,,,,,,,,,,,,,,,,,,,,,,,,,,,,,,,,,,,,,,,,,,,,,,,,,,,,,,,,,,,,,,,,,,,,,,,,,151.56116729558266,151.56116729558266,120.74970086190643,132.77729018326988,81.66759202748521,134.71675955570498,4.0,4.2,-238,2,0,-264,230,1,198.97673177719116,198.9768078327179,198.97975945472717,198.9905025959015,199.13633799552917,199.13633799552917,199.13633799552917,199.13633799552917,199.13633799552917,199.13633799552917,199.13633799552917,200.6180820465088,1,1.6223328113555908,None,,,,,,,,,,,,,,,,,,55,2,2025-02-19_15h53.57.881,comp,2024.2.4,57.366083701362385,2025-02-19 15h54.10.971989 -0500,
32,32,0,critical,wdh,35.0,1.0,upper,125.0,200.0,127.0,127.0,200.0,125.0,1,1.586540937423706,None,,,,,0,0,0,0,0,32,32,73,200.6338770389557,,,,,,,,,,,,,,,,,,,,,,,,,,,,,,,,,,,,,,,,,,,,,,,,,,,,,,,,,,,,,,,,,,,,,,,,,,,,,,,,,,125.0,200.0,127.0,127.0,200.0,125.0,1.0,1.1,-740,286,-480,259,-258,255,200.61962890625,200.6197018623352,200.62303709983826,200.6338770389557,200.78371024131775,200.78371024131775,200.78371024131775,200.78371024131775,200.78371024131775,200.78371024131775,200.78371024131775,202.23775029182434,1,1.586540937423706,None,,,,,,,,,,,,,,,,,,55,2,2025-02-19_15h53.57.881,comp,2024.2.4,57.366083701362385,2025-02-19 15h54.10.971989 -0500,
33,33,0,filler_random,None,None,None,None,None,None,None,None,None,None,2,1.9333767890930176,None,,,,,0,0,0,0,0,33,33,138,202.25515985488892,,,,,,,,,,,,,,,,,,,,,,,,,,,,,,,,,,,,,,,,,,,,,,,,,,,,,,,,,,,,,,,,,,,,,,,,,,,,,,,,,,99.21852904073373,62.955075143022725,109.73607052400095,129.4389545202249,63.413768438468175,143.23992815066345,1.0,1.3,288,-255,480,-253,712,-260,202.2393867969513,202.23953485488892,202.2425136566162,202.25515985488892,202.40520071983337,202.40520071983337,202.40520071983337,202.40520071983337,202.40520071983337,202.40520071983337,202.40520071983337,204.20060300827026,2,1.9333767890930176,None,,,,,,,,,,,,,,,,,,55,2,2025-02-19_15h53.57.881,comp,2024.2.4,57.366083701362385,2025-02-19 15h54.10.971989 -0500,
34,34,0,filler_square,None,None,None,None,None,None,None,None,None,None,1,1.6157031059265137,None,,,,,0,0,0,0,0,34,34,189,204.22134399414062,,,,,,,,,,,,,,,,,,,,,,,,,,,,,,,,,,,,,,,,,,,,,,,,,,,,,,,,,,,,,,,,,,,,,,,,,,,,,,,,,,136.83393996930357,136.83393996930357,92.65803508921118,73.06119698627265,123.33687037501045,69.80960991186853,4.0,4.1,-201,-277,0,-12,167,-269,204.20236945152283,204.20247864723206,204.20540261268616,204.22134399414062,204.37739992141724,204.37739992141724,204.37739992141724,204.37739992141724,204.37739992141724,204.37739992141724,204.37739992141724,205.83919548988342,1,1.6157031059265137,None,,,,,,,,,,,,,,,,,,55,2,2025-02-19_15h53.57.881,comp,2024.2.4,57.366083701362385,2025-02-19 15h54.10.971989 -0500,
35,35,0,filler_square,None,None,None,None,None,None,None,None,None,None,2,1.4387481212615967,None,,,,,0,0,0,0,0,35,35,193,205.85495114326477,,,,,,,,,,,,,,,,,,,,,,,,,,,,,,,,,,,,,,,,,,,,,,,,,,,,,,,,,,,,,,,,,,,,,,,,,,,,,,,,,,96.87230968751035,75.30782281893887,118.57517192784863,118.57517192784863,62.951426019767126,58.716256292663736,2.1,2.12,-193,-285,0,-253,185,289,205.84113359451294,205.84121322631836,205.844402551651,205.85495114326477,206.00416922569275,206.00416922569275,206.00416922569275,206.00416922569275,206.00416922569275,206.00416922569275,206.00416922569275,207.30461955070496,2,1.4387481212615967,None,,,,,,,,,,,,,,,,,,55,2,2025-02-19_15h53.57.881,comp,2024.2.4,57.366083701362385,2025-02-19 15h54.10.971989 -0500,
36,36,0,critical,wdh,35.0,2.1,lower,57.0,133.0,70.0,70.0,133.0,57.0,3,3.1639983654022217,None,,,,,0,0,0,0,0,36,36,8,207.32070899009705,,,,,,,,,,,,,,,,,,,,,,,,,,,,,,,,,,,,,,,,,,,,,,,,,,,,,,,,,,,,,,,,,,,,,,,,,,,,,,,,,,57.0,133.0,70.0,70.0,133.0,57.0,2.1,2.11,-198,251,0,288,160,-263,207.30620217323303,207.30627727508545,207.30988669395447,207.32070899009705,207.46953916549683,207.46953916549683,207.46953916549683,207.46953916549683,207.46953916549683,207.46953916549683,207.46953916549683,210.48786163330078,3,3.1639983654022217,None,,,,,,,,,,,,,,,,,,55,2,2025-02-19_15h53.57.881,comp,2024.2.4,57.366083701362385,2025-02-19 15h54.10.971989 -0500,
37,37,0,critical,hwd,20.0,4.0,lower,133.0,57.0,57.0,133.0,78.0,78.0,1,2.772043228149414,None,,,,,0,0,0,0,0,37,37,106,210.50453567504883,,,,,,,,,,,,,,,,,,,,,,,,,,,,,,,,,,,,,,,,,,,,,,,,,,,,,,,,,,,,,,,,,,,,,,,,,,,,,,,,,,133.0,57.0,57.0,133.0,78.0,78.0,4.0,4.2,-191,-12,0,-279,202,-13,210.4894483089447,210.48953223228455,210.49290013313293,210.50453567504883,210.6598834991455,210.6598834991455,210.6598834991455,210.6598834991455,210.6598834991455,210.6598834991455,210.6598834991455,213.2919614315033,1,2.772043228149414,None,,,,,,,,,,,,,,,,,,55,2,2025-02-19_15h53.57.881,comp,2024.2.4,57.366083701362385,2025-02-19 15h54.10.971989 -0500,
38,38,0,filler_square,None,None,None,None,None,None,None,None,None,None,2,2.793714761734009,None,,,,,0,0,0,0,0,38,38,185,213.307275056839,,,,,,,,,,,,,,,,,,,,,,,,,,,,,,,,,,,,,,,,,,,,,,,,,,,,,,,,,,,,,,,,,,,,,,,,,,,,,,,,,,78.64585109127512,61.18609253377935,82.82520761530216,82.82520761530216,68.84350067480094,63.91895979807464,4.0,4.1,-168,-286,0,17,169,-259,213.29393768310547,213.29403257369995,213.2970633506775,213.307275056839,213.45589780807495,213.45589780807495,213.45589780807495,213.45589780807495,213.45589780807495,213.45589780807495,213.45589780807495,216.10757756233215,2,2.793714761734009,None,,,,,,,,,,,,,,,,,,55,2,2025-02-19_15h53.57.881,comp,2024.2.4,57.366083701362385,2025-02-19 15h54.10.971989 -0500,
39,39,0,critical,dhw,20.0,3.0,upper,141.0,141.0,200.0,125.0,125.0,200.0,3,2.0492310523986816,None,,,,,0,0,0,0,0,39,39,57,216.12371277809143,,,,,,,,,,,,,,,,,,,,,,,,,,,,,,,,,,,,,,,,,,,,,,,,,,,,,,,,,,,,,,,,,,,,,,,,,,,,,,,,,,141.0,141.0,200.0,125.0,125.0,200.0,3.0,3.2,-229,-275,0,20,258,274,216.1090109348297,216.10908436775208,216.1124997138977,216.12371277809143,216.27000451087952,216.27000451087952,216.27000451087952,216.27000451087952,216.27000451087952,216.27000451087952,216.27000451087952,218.17556929588318,3,2.0492310523986816,None,,,,,,,,,,,,,,,,,,55,2,2025-02-19_15h53.57.881,comp,2024.2.4,57.366083701362385,2025-02-19 15h54.10.971989 -0500,
40,40,0,filler_square,None,None,None,None,None,None,None,None,None,None,3,0.8685741424560547,None,,,,,0,0,0,0,0,40,40,190,218.19198346138,,,,,,,,,,,,,,,,,,,,,,,,,,,,,,,,,,,,,,,,,,,,,,,,,,,,,,,,,,,,,,,,,,,,,,,,,,,,,,,,,,119.13083772014919,152.8914158438315,122.18451106742889,155.4212800031912,185.63081355544907,185.63081355544907,2.1,2.12,-250,-270,0,-275,267,268,218.17733216285706,218.177494764328,218.18116569519043,218.19198346138,218.3381962776184,218.3381962776184,218.3381962776184,218.3381962776184,218.3381962776184,218.3381962776184,218.3381962776184,219.07338166236877,3,0.8685741424560547,None,,,,,,,,,,,,,,,,,,55,2,2025-02-19_15h53.57.881,comp,2024.2.4,57.366083701362385,2025-02-19 15h54.10.971989 -0500,
41,41,0,critical,dwh,20.0,2.1,upper,141.0,141.0,125.0,200.0,200.0,125.0,2,1.5709729194641113,None,,,,,0,0,0,0,0,41,41,31,219.08945989608765,,,,,,,,,,,,,,,,,,,,,,,,,,,,,,,,,,,,,,,,,,,,,,,,,,,,,,,,,,,,,,,,,,,,,,,,,,,,,,,,,,141.0,141.0,125.0,200.0,200.0,125.0,2.1,2.11,-266,280,0,260,258,-284,219.07488775253296,219.07496237754822,219.07834243774414,219.08945989608765,219.23069667816162,219.23069667816162,219.23069667816162,219.23069667816162,219.23069667816162,219.23069667816162,219.23069667816162,220.6753613948822,2,1.5709729194641113,None,,,,,,,,,,,,,,,,,,55,2,2025-02-19_15h53.57.881,comp,2024.2.4,57.366083701362385,2025-02-19 15h54.10.971989 -0500,
42,42,0,catch,None,None,None,None,None,None,None,None,None,None,2,1.0102810859680176,None,,,,,0,0,0,0,0,42,42,127,220.69167137145996,,,,,,,,,,,,,,,,,,,,,,,,,,,,,,,,,,,,,,,,,,,,,,,,,,,,,,,,,,,,,,,,,,,,,,,,,,,,,,,,,,116,74,192,133,128,62,3.0,3.1,-200,272,0,3,194,-261,220.67725276947021,220.6773281097412,220.68146800994873,220.69167137145996,220.8485496044159,220.8485496044159,220.8485496044159,220.8485496044159,220.8485496044159,220.8485496044159,220.8485496044159,221.7086935043335,2,1.0102810859680176,None,,,,,,,,,,,,,,,,,,55,2,2025-02-19_15h53.57.881,comp,2024.2.4,57.366083701362385,2025-02-19 15h54.10.971989 -0500,
43,43,0,catch,None,None,None,None,None,None,None,None,None,None,1,1.4218411445617676,None,,,,,0,0,0,0,0,43,43,126,221.72697281837463,,,,,,,,,,,,,,,,,,,,,,,,,,,,,,,,,,,,,,,,,,,,,,,,,,,,,,,,,,,,,,,,,,,,,,,,,,,,,,,,,,138,187,114,76,62,128,1.0,1.2,-228,-7,0,-19,198,0,221.71059799194336,221.7106761932373,221.71384382247925,221.72697281837463,221.87473583221436,221.87473583221436,221.87473583221436,221.87473583221436,221.87473583221436,221.87473583221436,221.87473583221436,223.15802383422852,1,1.4218411445617676,None,,,,,,,,,,,,,,,,,,55,2,2025-02-19_15h53.57.881,comp,2024.2.4,57.366083701362385,2025-02-19 15h54.10.971989 -0500,
44,44,0,critical,dwh,35.0,1.0,lower,70.0,70.0,57.0,133.0,133.0,57.0,2,3.894888162612915,None,,,,,0,0,0,0,0,44,44,60,223.17433738708496,,,,,,,,,,,,,,,,,,,,,,,,,,,,,,,,,,,,,,,,,,,,,,,,,,,,,,,,,,,,,,,,,,,,,,,,,,,,,,,,,,70.0,70.0,57.0,133.0,133.0,57.0,1.0,1.3,282,-278,480,-253,671,-289,223.15949034690857,223.1595664024353,223.1625518798828,223.17433738708496,223.3304877281189,223.3304877281189,223.3304877281189,223.3304877281189,223.3304877281189,223.3304877281189,223.3304877281189,227.07590579986572,2,3.894888162612915,None,,,,,,,,,,,,,,,,,,55,2,2025-02-19_15h53.57.881,comp,2024.2.4,57.366083701362385,2025-02-19 15h54.10.971989 -0500,
45,45,0,filler_square,None,None,None,None,None,None,None,None,None,None,2,3.5837953090667725,None,,,,,0,0,0,0,0,45,45,191,227.09300565719604,,,,,,,,,,,,,,,,,,,,,,,,,,,,,,,,,,,,,,,,,,,,,,,,,,,,,,,,,,,,,,,,,,,,,,,,,,,,,,,,,,94.1195966659516,94.1195966659516,89.22122626500993,92.79770204666025,64.82173769343495,86.46744826661377,1.0,1.3,291,-278,480,-280,666,-289,227.0777997970581,227.07792162895203,227.081289768219,227.09300565719604,227.250892162323,227.250892162323,227.250892162323,227.250892162323,227.250892162323,227.250892162323,227.250892162323,230.69440698623657,2,3.5837953090667725,None,,,,,,,,,,,,,,,,,,55,2,2025-02-19_15h53.57.881,comp,2024.2.4,57.366083701362385,2025-02-19 15h54.10.971989 -0500,
46,46,0,critical,dhw,35.0,2.1,lower,70.0,70.0,133.0,57.0,57.0,133.0,3,2.498361587524414,None,,,,,0,0,0,0,0,46,46,24,230.71414399147034,,,,,,,,,,,,,,,,,,,,,,,,,,,,,,,,,,,,,,,,,,,,,,,,,,,,,,,,,,,,,,,,,,,,,,,,,,,,,,,,,,70.0,70.0,133.0,57.0,57.0,133.0,2.1,2.11,-160,267,0,282,191,-251,230.69597578048706,230.6960484981537,230.69949913024902,230.71414399147034,230.85360431671143,230.85360431671143,230.85360431671143,230.85360431671143,230.85360431671143,230.85360431671143,230.85360431671143,233.22877883911133,3,2.498361587524414,None,,,,,,,,,,,,,,,,,,55,2,2025-02-19_15h53.57.881,comp,2024.2.4,57.366083701362385,2025-02-19 15h54.10.971989 -0500,
47,47,0,filler_random,None,None,None,None,None,None,None,None,None,None,3,1.4755489826202393,None,,,,,0,0,0,0,0,47,47,168,233.24928879737854,,,,,,,,,,,,,,,,,,,,,,,,,,,,,,,,,,,,,,,,,,,,,,,,,,,,,,,,,,,,,,,,,,,,,,,,,,,,,,,,,,64.74778994162114,177.98909908403164,135.44609037778125,85.80418986266604,123.98855248887311,171.1502051291883,2.2,2.22,-228,255,0,-289,224,-252,233.23065447807312,233.23073172569275,233.23417925834656,233.24928879737854,233.3959882259369,233.3959882259369,233.3959882259369,233.3959882259369,233.3959882259369,233.3959882259369,233.3959882259369,234.72882294654846,3,1.4755489826202393,None,,,,,,,,,,,,,,,,,,55,2,2025-02-19_15h53.57.881,comp,2024.2.4,57.366083701362385,2025-02-19 15h54.10.971989 -0500,
48,48,0,catch,None,None,None,None,None,None,None,None,None,None,2,1.4641187191009521,None,,,,,0,0,0,0,0,48,48,123,234.74883317947388,,,,,,,,,,,,,,,,,,,,,,,,,,,,,,,,,,,,,,,,,,,,,,,,,,,,,,,,,,,,,,,,,,,,,,,,,,,,,,,,,,66,124,130,195,113,77,1.0,1.2,-256,4,0,-7,232,15,234.73078799247742,234.7308750152588,234.73414945602417,234.74883317947388,234.89800691604614,234.89800691604614,234.89800691604614,234.89800691604614,234.89800691604614,234.89800691604614,234.89800691604614,236.21675968170166,2,1.4641187191009521,None,,,,,,,,,,,,,,,,,,55,2,2025-02-19_15h53.57.881,comp,2024.2.4,57.366083701362385,2025-02-19 15h54.10.971989 -0500,
49,49,0,catch,None,None,None,None,None,None,None,None,None,None,1,1.0206611156463623,None,,,,,0,0,0,0,0,49,49,121,236.23373293876648,,,,,,,,,,,,,,,,,,,,,,,,,,,,,,,,,,,,,,,,,,,,,,,,,,,,,,,,,,,,,,,,,,,,,,,,,,,,,,,,,,148,177,62,128,131,59,4.0,4.2,-248,-7,0,-264,190,8,236.2188560962677,236.21895241737366,236.2221908569336,236.23373293876648,236.37958216667175,236.37958216667175,236.37958216667175,236.37958216667175,236.37958216667175,236.37958216667175,236.37958216667175,237.26499581336975,1,1.0206611156463623,None,,,,,,,,,,,,,,,,,,55,2,2025-02-19_15h53.57.881,comp,2024.2.4,57.366083701362385,2025-02-19 15h54.10.971989 -0500,
50,50,0,catch,None,None,None,None,None,None,None,None,None,None,3,1.5878076553344727,None,,,,,0,0,0,0,0,50,50,122,237.28194069862366,,,,,,,,,,,,,,,,,,,,,,,,,,,,,,,,,,,,,,,,,,,,,,,,,,,,,,,,,,,,,,,,,,,,,,,,,,,,,,,,,,106,84,65,125,150,175,3.0,3.1,-200,285,0,12,246,-286,237.26708126068115,237.26721096038818,237.27123618125916,237.28194069862366,237.4228310585022,237.4228310585022,237.4228310585022,237.4228310585022,237.4228310585022,237.4228310585022,237.4228310585022,238.88095831871033,3,1.5878076553344727,None,,,,,,,,,,,,,,,,,,55,2,2025-02-19_15h53.57.881,comp,2024.2.4,57.366083701362385,2025-02-19 15h54.10.971989 -0500,
51,51,0,filler_square,None,None,None,None,None,None,None,None,None,None,2,1.3152847290039062,None,,,,,0,0,0,0,0,51,51,176,238.89755702018738,,,,,,,,,,,,,,,,,,,,,,,,,,,,,,,,,,,,,,,,,,,,,,,,,,,,,,,,,,,,,,,,,,,,,,,,,,,,,,,,,,64.47180468850938,109.48283656179049,113.6584168532136,113.6584168532136,79.00675300849927,100.02040021697303,2.1,2.11,-208,253,0,252,203,-250,238.88276886940002,238.88284373283386,238.88615345954895,238.89755702018738,239.04669952392578,239.04669952392578,239.04669952392578,239.04669952392578,239.04669952392578,239.04669952392578,239.04669952392578,240.21573734283447,2,1.3152847290039062,None,,,,,,,,,,,,,,,,,,55,2,2025-02-19_15h53.57.881,comp,2024.2.4,57.366083701362385,2025-02-19 15h54.10.971989 -0500,
52,52,0,filler_square,None,None,None,None,None,None,None,None,None,None,2,0.9890537261962891,None,,,,,0,0,0,0,0,52,52,194,240.23146390914917,,,,,,,,,,,,,,,,,,,,,,,,,,,,,,,,,,,,,,,,,,,,,,,,,,,,,,,,,,,,,,,,,,,,,,,,,,,,,,,,,,81.69421939667933,87.92549563686427,103.39161874369071,103.39161874369071,75.82007749656535,74.11060698522684,3.0,3.1,-192,283,0,2,185,-274,240.21761631965637,240.21770238876343,240.22090125083923,240.23146390914917,240.38102269172668,240.38102269172668,240.38102269172668,240.38102269172668,240.38102269172668,240.38102269172668,240.38102269172668,241.23589968681335,2,0.9890537261962891,None,,,,,,,,,,,,,,,,,,55,2,2025-02-19_15h53.57.881,comp,2024.2.4,57.366083701362385,2025-02-19 15h54.10.971989 -0500,
53,53,0,critical,whd,20.0,2.1,lower,57.0,133.0,133.0,57.0,78.0,78.0,2,2.7755110263824463,None,,,,,0,0,0,0,0,53,53,38,241.2535572052002,,,,,,,,,,,,,,,,,,,,,,,,,,,,,,,,,,,,,,,,,,,,,,,,,,,,,,,,,,,,,,,,,,,,,,,,,,,,,,,,,,57.0,133.0,133.0,57.0,78.0,78.0,2.1,2.12,-191,-284,0,-253,164,260,241.23741030693054,241.23751616477966,241.24086570739746,241.2535572052002,241.39895296096802,241.39895296096802,241.39895296096802,241.39895296096802,241.39895296096802,241.39895296096802,241.39895296096802,244.03937220573425,2,2.7755110263824463,None,,,,,,,,,,,,,,,,,,55,2,2025-02-19_15h53.57.881,comp,2024.2.4,57.366083701362385,2025-02-19 15h54.10.971989 -0500,
54,54,0,critical,wdh,20.0,2.1,lower,57.0,133.0,78.0,78.0,133.0,57.0,1,3.120368242263794,None,,,,,0,0,0,0,0,54,54,10,244.06021428108215,,,,,,,,,,,,,,,,,,,,,,,,,,,,,,,,,,,,,,,,,,,,,,,,,,,,,,,,,,,,,,,,,,,,,,,,,,,,,,,,,,57.0,133.0,78.0,78.0,133.0,57.0,2.1,2.12,-202,-254,0,-254,164,260,244.0409893989563,244.04106497764587,244.04446697235107,244.06021428108215,244.19963216781616,244.19963216781616,244.19963216781616,244.19963216781616,244.19963216781616,244.19963216781616,244.19963216781616,247.1843752861023,1,3.120368242263794,None,,,,,,,,,,,,,,,,,,55,2,2025-02-19_15h53.57.881,comp,2024.2.4,57.366083701362385,2025-02-19 15h54.10.971989 -0500,
55,55,0,critical,hwd,35.0,3.0,lower,133.0,57.0,57.0,133.0,70.0,70.0,2,2.5004804134368896,None,,,,,0,0,0,0,0,55,55,98,247.20018219947815,,,,,,,,,,,,,,,,,,,,,,,,,,,,,,,,,,,,,,,,,,,,,,,,,,,,,,,,,,,,,,,,,,,,,,,,,,,,,,,,,,133.0,57.0,57.0,133.0,70.0,70.0,3.0,3.1,-191,281,0,0,198,-264,247.1859414577484,247.18601655960083,247.18953728675842,247.20018219947815,247.34791016578674,247.34791016578674,247.34791016578674,247.34791016578674,247.34791016578674,247.34791016578674,247.34791016578674,249.71784853935242,2,2.5004804134368896,None,,,,,,,,,,,,,,,,,,55,2,2025-02-19_15h53.57.881,comp,2024.2.4,57.366083701362385,2025-02-19 15h54.10.971989 -0500,
56,56,0,critical,whd,35.0,4.0,upper,125.0,200.0,200.0,125.0,127.0,127.0,2,3.55940842628479,None,,,,,0,0,0,0,0,56,56,89,249.73312997817993,,,,,,,,,,,,,,,,,,,,,,,,,,,,,,,,,,,,,,,,,,,,,,,,,,,,,,,,,,,,,,,,,,,,,,,,,,,,,,,,,,125.0,200.0,200.0,125.0,127.0,127.0,4.0,4.2,-258,16,0,-258,222,17,249.7193021774292,249.71937489509583,249.7229208946228,249.73312997817993,249.88745594024658,249.88745594024658,249.88745594024658,249.88745594024658,249.88745594024658,249.88745594024658,249.88745594024658,253.3020737171173,2,3.55940842628479,None,,,,,,,,,,,,,,,,,,55,2,2025-02-19_15h53.57.881,comp,2024.2.4,57.366083701362385,2025-02-19 15h54.10.971989 -0500,
57,57,0,critical,hdw,20.0,3.0,upper,200.0,125.0,141.0,141.0,125.0,200.0,1,3.478044033050537,None,,,,,0,0,0,0,0,57,57,117,253.31858777999878,,,,,,,,,,,,,,,,,,,,,,,,,,,,,,,,,,,,,,,,,,,,,,,,,,,,,,,,,,,,,,,,,,,,,,,,,,,,,,,,,,200.0,125.0,141.0,141.0,125.0,200.0,3.0,3.2,-229,-286,0,5,266,278,253.30356645584106,253.3036596775055,253.30712270736694,253.31858777999878,253.45792436599731,253.45792436599731,253.45792436599731,253.45792436599731,253.45792436599731,253.45792436599731,253.45792436599731,256.8076078891754,1,3.478044033050537,None,,,,,,,,,,,,,,,,,,55,2,2025-02-19_15h53.57.881,comp,2024.2.4,57.366083701362385,2025-02-19 15h54.10.971989 -0500,
58,58,0,critical,dwh,20.0,1.0,lower,78.0,78.0,57.0,133.0,133.0,57.0,2,1.5970697402954102,None,,,,,0,0,0,0,0,58,58,66,256.8237636089325,,,,,,,,,,,,,,,,,,,,,,,,,,,,,,,,,,,,,,,,,,,,,,,,,,,,,,,,,,,,,,,,,,,,,,,,,,,,,,,,,,78.0,78.0,57.0,133.0,133.0,57.0,1.0,1.1,-682,266,-480,279,-289,253,256.80919766426086,256.8092739582062,256.81221556663513,256.8237636089325,256.9672291278839,256.9672291278839,256.9672291278839,256.9672291278839,256.9672291278839,256.9672291278839,256.9672291278839,258.4381194114685,2,1.5970697402954102,None,,,,,,,,,,,,,,,,,,55,2,2025-02-19_15h53.57.881,comp,2024.2.4,57.366083701362385,2025-02-19 15h54.10.971989 -0500,
59,59,0,filler_random,None,None,None,None,None,None,None,None,None,None,2,5.327755689620972,None,,,,,0,0,0,0,0,59,59,140,258.45293068885803,,,,,,,,,,,,,,,,,,,,,,,,,,,,,,,,,,,,,,,,,,,,,,,,,,,,,,,,,,,,,,,,,,,,,,,,,,,,,,,,,,187.45294023780298,77.14309280025314,113.16855095668365,186.47575935533308,178.20301778738065,111.25777902502671,3.0,3.1,-228,276,0,4,245,-288,258.4399268627167,258.44005608558655,258.44359850883484,258.45293068885803,258.59155106544495,258.59155106544495,258.59155106544495,258.59155106544495,258.59155106544495,258.59155106544495,258.59155106544495,263.7974534034729,2,5.327755689620972,None,,,,,,,,,,,,,,,,,,55,2,2025-02-19_15h53.57.881,comp,2024.2.4,57.366083701362385,2025-02-19 15h54.10.971989 -0500,
60,60,0,critical,dhw,35.0,3.0,lower,70.0,70.0,133.0,57.0,57.0,133.0,2,4.736269474029541,None,,,,,0,0,0,0,0,60,60,50,263.81229281425476,,,,,,,,,,,,,,,,,,,,,,,,,,,,,,,,,,,,,,,,,,,,,,,,,,,,,,,,,,,,,,,,,,,,,,,,,,,,,,,,,,70.0,70.0,133.0,57.0,57.0,133.0,3.0,3.2,-160,-262,0,20,191,259,263.79890060424805,263.7989733219147,263.80190896987915,263.81229281425476,263.9551134109497,263.9551134109497,263.9551134109497,263.9551134109497,263.9551134109497,263.9551134109497,263.9551134109497,268.5578501224518,2,4.736269474029541,None,,,,,,,,,,,,,,,,,,55,2,2025-02-19_15h53.57.881,comp,2024.2.4,57.366083701362385,2025-02-19 15h54.10.971989 -0500,
61,61,0,catch,None,None,None,None,None,None,None,None,None,None,3,2.5017833709716797,None,,,,,0,0,0,0,0,61,61,124,268.57509207725525,,,,,,,,,,,,,,,,,,,,,,,,,,,,,,,,,,,,,,,,,,,,,,,,,,,,,,,,,,,,,,,,,,,,,,,,,,,,,,,,,,93,97,63,127,197,128,2.1,2.12,-208,-278,0,-255,224,276,268.5598785877228,268.5599744319916,268.56320905685425,268.57509207725525,268.72336196899414,268.72336196899414,268.72336196899414,268.72336196899414,268.72336196899414,268.72336196899414,268.72336196899414,271.0947177410126,3,2.5017833709716797,None,,,,,,,,,,,,,,,,,,55,2,2025-02-19_15h53.57.881,comp,2024.2.4,57.366083701362385,2025-02-19 15h54.10.971989 -0500,
62,62,0,critical,dwh,35.0,2.1,upper,127.0,127.0,125.0,200.0,200.0,125.0,2,3.955350875854492,None,,,,,0,0,0,0,0,62,62,5,271.1138219833374,,,,,,,,,,,,,,,,,,,,,,,,,,,,,,,,,,,,,,,,,,,,,,,,,,,,,,,,,,,,,,,,,,,,,,,,,,,,,,,,,,127.0,127.0,125.0,200.0,200.0,125.0,2.1,2.11,-260,280,0,285,258,-280,271.0967855453491,271.0968608856201,271.0999050140381,271.1138219833374,271.2583632469177,271.2583632469177,271.2583632469177,271.2583632469177,271.2583632469177,271.2583632469177,271.2583632469177,275.0748875141144,2,3.955350875854492,None,,,,,,,,,,,,,,,,,,55,2,2025-02-19_15h53.57.881,comp,2024.2.4,57.366083701362385,2025-02-19 15h54.10.971989 -0500,
63,63,0,critical,dwh,35.0,2.1,lower,70.0,70.0,57.0,133.0,133.0,57.0,3,1.9308879375457764,None,,,,,0,0,0,0,0,63,63,28,275.09052872657776,,,,,,,,,,,,,,,,,,,,,,,,,,,,,,,,,,,,,,,,,,,,,,,,,,,,,,,,,,,,,,,,,,,,,,,,,,,,,,,,,,70.0,70.0,57.0,133.0,133.0,57.0,2.1,2.12,-198,-276,0,-261,191,290,275.0763490200043,275.0764238834381,275.079549074173,275.09052872657776,275.24732065200806,275.24732065200806,275.24732065200806,275.24732065200806,275.24732065200806,275.24732065200806,275.24732065200806,277.02629804611206,3,1.9308879375457764,None,,,,,,,,,,,,,,,,,,55,2,2025-02-19_15h53.57.881,comp,2024.2.4,57.366083701362385,2025-02-19 15h54.10.971989 -0500,
64,64,0,filler_random,None,None,None,None,None,None,None,None,None,None,2,2.434741735458374,None,,,,,0,0,0,0,0,64,64,133,277.04251885414124,,,,,,,,,,,,,,,,,,,,,,,,,,,,,,,,,,,,,,,,,,,,,,,,,,,,,,,,,,,,,,,,,,,,,,,,,,,,,,,,,,70.59617756292502,113.4891231429044,195.33970584239194,151.3229802459312,199.0649904414677,123.66897622825259,2.2,2.22,-228,266,0,-258,233,-285,277.02809381484985,277.0282082557678,277.0316605567932,277.04251885414124,277.19340896606445,277.19340896606445,277.19340896606445,277.19340896606445,277.19340896606445,277.19340896606445,277.19340896606445,279.47956800460815,2,2.434741735458374,None,,,,,,,,,,,,,,,,,,55,2,2025-02-19_15h53.57.881,comp,2024.2.4,57.366083701362385,2025-02-19 15h54.10.971989 -0500,
65,65,0,filler_random,None,None,None,None,None,None,None,None,None,None,2,1.7314071655273438,None,,,,,0,0,0,0,0,65,65,155,279.4971306324005,,,,,,,,,,,,,,,,,,,,,,,,,,,,,,,,,,,,,,,,,,,,,,,,,,,,,,,,,,,,,,,,,,,,,,,,,,,,,,,,,,129.1618720612085,81.92103655506804,86.30268554688375,178.49138810817186,159.68001236109518,61.57021507011373,2.1,2.12,-226,-253,0,-259,216,252,279.48145723342896,279.48158168792725,279.4855558872223,279.4971306324005,279.64367055892944,279.64367055892944,279.64367055892944,279.64367055892944,279.64367055892944,279.64367055892944,279.64367055892944,281.2444586753845,2,1.7314071655273438,None,,,,,,,,,,,,,,,,,,55,2,2025-02-19_15h53.57.881,comp,2024.2.4,57.366083701362385,2025-02-19 15h54.10.971989 -0500,
66,66,0,critical,dhw,20.0,1.0,lower,78.0,78.0,133.0,57.0,57.0,133.0,1,6.266674518585205,None,,,,,0,0,0,0,0,66,66,54,281.25863695144653,,,,,,,,,,,,,,,,,,,,,,,,,,,,,,,,,,,,,,,,,,,,,,,,,,,,,,,,,,,,,,,,,,,,,,,,,,,,,,,,,,78.0,78.0,133.0,57.0,57.0,133.0,1.0,1.3,316,-250,480,-252,671,-274,281.2460114955902,281.2460856437683,281.2493567466736,281.25863695144653,281.4110507965088,281.4110507965088,281.4110507965088,281.4110507965088,281.4110507965088,281.4110507965088,281.4110507965088,287.529673576355,1,6.266674518585205,None,,,,,,,,,,,,,,,,,,55,2,2025-02-19_15h53.57.881,comp,2024.2.4,57.366083701362385,2025-02-19 15h54.10.971989 -0500,
67,67,0,critical,whd,20.0,1.0,lower,57.0,133.0,133.0,57.0,78.0,78.0,2,2.5872576236724854,None,,,,,0,0,0,0,0,67,67,90,287.54541087150574,,,,,,,,,,,,,,,,,,,,,,,,,,,,,,,,,,,,,,,,,,,,,,,,,,,,,,,,,,,,,,,,,,,,,,,,,,,,,,,,,,57.0,133.0,133.0,57.0,78.0,78.0,1.0,1.1,-671,250,-480,283,-316,253,287.5312349796295,287.5313079357147,287.53472805023193,287.54541087150574,287.69402050971985,287.69402050971985,287.69402050971985,287.69402050971985,287.69402050971985,287.69402050971985,287.69402050971985,290.14548420906067,2,2.5872576236724854,None,,,,,,,,,,,,,,,,,,55,2,2025-02-19_15h53.57.881,comp,2024.2.4,57.366083701362385,2025-02-19 15h54.10.971989 -0500,
68,68,0,critical,dhw,20.0,2.1,upper,141.0,141.0,200.0,125.0,125.0,200.0,3,1.7634868621826172,None,,,,,0,0,0,0,0,68,68,3,290.16110920906067,,,,,,,,,,,,,,,,,,,,,,,,,,,,,,,,,,,,,,,,,,,,,,,,,,,,,,,,,,,,,,,,,,,,,,,,,,,,,,,,,,141.0,141.0,200.0,125.0,125.0,200.0,2.1,2.12,-229,-253,0,-257,258,276,290.1469819545746,290.1470561027527,290.1499934196472,290.16110920906067,290.30986976623535,290.30986976623535,290.30986976623535,290.30986976623535,290.30986976623535,290.30986976623535,290.30986976623535,291.934663772583,3,1.7634868621826172,None,,,,,,,,,,,,,,,,,,55,2,2025-02-19_15h53.57.881,comp,2024.2.4,57.366083701362385,2025-02-19 15h54.10.971989 -0500,
69,69,0,critical,dwh,20.0,3.0,upper,141.0,141.0,125.0,200.0,200.0,125.0,2,1.5024480819702148,None,,,,,0,0,0,0,0,69,69,69,291.9505248069763,,,,,,,,,,,,,,,,,,,,,,,,,,,,,,,,,,,,,,,,,,,,,,,,,,,,,,,,,,,,,,,,,,,,,,,,,,,,,,,,,,141.0,141.0,125.0,200.0,200.0,125.0,3.0,3.2,-266,-288,0,-16,258,282,291.9363970756531,291.9365622997284,291.9396803379059,291.9505248069763,292.0925524234772,292.0925524234772,292.0925524234772,292.0925524234772,292.0925524234772,292.0925524234772,292.0925524234772,293.46185183525085,2,1.5024480819702148,None,,,,,,,,,,,,,,,,,,55,2,2025-02-19_15h53.57.881,comp,2024.2.4,57.366083701362385,2025-02-19 15h54.10.971989 -0500,
70,70,0,filler_random,None,None,None,None,None,None,None,None,None,None,1,1.1333427429199219,None,,,,,0,0,0,0,0,70,70,143,293.4795503616333,,,,,,,,,,,,,,,,,,,,,,,,,,,,,,,,,,,,,,,,,,,,,,,,,,,,,,,,,,,,,,,,,,,,,,,,,,,,,,,,,,136.55873918758996,183.41647206691798,113.15698515765743,197.84980357090424,57.27608592626908,76.50524324262926,2.2,2.22,-287,283,0,-286,233,-271,293.46354484558105,293.46361684799194,293.4669408798218,293.4795503616333,293.6284110546112,293.6284110546112,293.6284110546112,293.6284110546112,293.6284110546112,293.6284110546112,293.6284110546112,294.63106203079224,1,1.1333427429199219,None,,,,,,,,,,,,,,,,,,55,2,2025-02-19_15h53.57.881,comp,2024.2.4,57.366083701362385,2025-02-19 15h54.10.971989 -0500,
71,71,0,filler_square,None,None,None,None,None,None,None,None,None,None,2,6.156440258026123,None,,,,,0,0,0,0,0,71,71,188,294.6481816768646,,,,,,,,,,,,,,,,,,,,,,,,,,,,,,,,,,,,,,,,,,,,,,,,,,,,,,,,,,,,,,,,,,,,,,,,,,,,,,,,,,71.2941929459777,66.37427446991677,71.33577153213955,71.33577153213955,67.3072500386285,68.37257873917639,3.0,3.2,-165,-282,0,-4,166,257,294.63279128074646,294.6328649520874,294.63606905937195,294.6481816768646,294.8052268028259,294.8052268028259,294.8052268028259,294.8052268028259,294.8052268028259,294.8052268028259,294.8052268028259,300.81735038757324,2,6.156440258026123,None,,,,,,,,,,,,,,,,,,55,2,2025-02-19_15h53.57.881,comp,2024.2.4,57.366083701362385,2025-02-19 15h54.10.971989 -0500,
72,72,0,critical,dwh,35.0,4.0,lower,70.0,70.0,57.0,133.0,133.0,57.0,2,2.137756824493408,None,,,,,0,0,0,0,0,72,72,64,300.8353955745697,,,,,,,,,,,,,,,,,,,,,,,,,,,,,,,,,,,,,,,,,,,,,,,,,,,,,,,,,,,,,,,,,,,,,,,,,,,,,,,,,,70.0,70.0,57.0,133.0,133.0,57.0,4.0,4.1,-198,-289,0,14,191,-252,300.81885862350464,300.81893157958984,300.822279214859,300.8353955745697,300.9841101169586,300.9841101169586,300.9841101169586,300.9841101169586,300.9841101169586,300.9841101169586,300.9841101169586,302.9843273162842,2,2.137756824493408,None,,,,,,,,,,,,,,,,,,55,2,2025-02-19_15h53.57.881,comp,2024.2.4,57.366083701362385,2025-02-19 15h54.10.971989 -0500,
73,73,0,critical,hwd,20.0,1.0,lower,133.0,57.0,57.0,133.0,78.0,78.0,2,1.4765009880065918,None,,,,,0,0,0,0,0,73,73,102,303.00063729286194,,,,,,,,,,,,,,,,,,,,,,,,,,,,,,,,,,,,,,,,,,,,,,,,,,,,,,,,,,,,,,,,,,,,,,,,,,,,,,,,,,133.0,57.0,57.0,133.0,78.0,78.0,1.0,1.1,-671,252,-480,283,-278,283,302.98594903945923,302.9860236644745,302.98959398269653,303.00063729286194,303.1488628387451,303.1488628387451,303.1488628387451,303.1488628387451,303.1488628387451,303.1488628387451,303.1488628387451,304.4860374927521,2,1.4765009880065918,None,,,,,,,,,,,,,,,,,,55,2,2025-02-19_15h53.57.881,comp,2024.2.4,57.366083701362385,2025-02-19 15h54.10.971989 -0500,
74,74,0,critical,wdh,35.0,3.0,lower,57.0,133.0,70.0,70.0,133.0,57.0,3,2.182995319366455,None,,,,,0,0,0,0,0,74,74,74,304.50164341926575,,,,,,,,,,,,,,,,,,,,,,,,,,,,,,,,,,,,,,,,,,,,,,,,,,,,,,,,,,,,,,,,,,,,,,,,,,,,,,,,,,57.0,133.0,70.0,70.0,133.0,57.0,3.0,3.2,-198,-253,0,9,160,252,304.4874794483185,304.48755645751953,304.49097752571106,304.50164341926575,304.65455651283264,304.65455651283264,304.65455651283264,304.65455651283264,304.65455651283264,304.65455651283264,304.65455651283264,306.7057731151581,3,2.182995319366455,None,,,,,,,,,,,,,,,,,,55,2,2025-02-19_15h53.57.881,comp,2024.2.4,57.366083701362385,2025-02-19 15h54.10.971989 -0500,
75,75,0,critical,dwh,35.0,3.0,upper,127.0,127.0,125.0,200.0,200.0,125.0,2,2.1849308013916016,None,,,,,0,0,0,0,0,75,75,63,306.72422194480896,,,,,,,,,,,,,,,,,,,,,,,,,,,,,,,,,,,,,,,,,,,,,,,,,,,,,,,,,,,,,,,,,,,,,,,,,,,,,,,,,,127.0,127.0,125.0,200.0,200.0,125.0,3.0,3.2,-260,-269,0,13,258,269,306.7073392868042,306.70741176605225,306.71094393730164,306.72422194480896,306.87023186683655,306.87023186683655,306.87023186683655,306.87023186683655,306.87023186683655,306.87023186683655,306.87023186683655,308.9256844520569,2,2.1849308013916016,None,,,,,,,,,,,,,,,,,,55,2,2025-02-19_15h53.57.881,comp,2024.2.4,57.366083701362385,2025-02-19 15h54.10.971989 -0500,
76,76,0,critical,whd,35.0,2.1,lower,57.0,133.0,133.0,57.0,70.0,70.0,2,1.796907901763916,None,,,,,0,0,0,0,0,76,76,36,308.94394421577454,,,,,,,,,,,,,,,,,,,,,,,,,,,,,,,,,,,,,,,,,,,,,,,,,,,,,,,,,,,,,,,,,,,,,,,,,,,,,,,,,,57.0,133.0,133.0,57.0,70.0,70.0,2.1,2.12,-191,-250,0,-267,160,262,308.9271762371063,308.92724871635437,308.93020820617676,308.94394421577454,309.0916302204132,309.0916302204132,309.0916302204132,309.0916302204132,309.0916302204132,309.0916302204132,309.0916302204132,310.7539086341858,2,1.796907901763916,None,,,,,,,,,,,,,,,,,,55,2,2025-02-19_15h53.57.881,comp,2024.2.4,57.366083701362385,2025-02-19 15h54.10.971989 -0500,
77,77,0,filler_square,None,None,None,None,None,None,None,None,None,None,3,1.7223105430603027,None,,,,,0,0,0,0,0,77,77,180,310.7702763080597,,,,,,,,,,,,,,,,,,,,,,,,,,,,,,,,,,,,,,,,,,,,,,,,,,,,,,,,,,,,,,,,,,,,,,,,,,,,,,,,,,147.57804242567806,60.649019672615374,104.9860597639479,80.8600079497935,166.29263027347434,166.29263027347434,3.0,3.1,-167,256,0,-12,220,-259,310.7559463977814,310.7560212612152,310.7598762512207,310.7702763080597,310.91862058639526,310.91862058639526,310.91862058639526,310.91862058639526,310.91862058639526,310.91862058639526,310.91862058639526,312.5031371116638,3,1.7223105430603027,None,,,,,,,,,,,,,,,,,,55,2,2025-02-19_15h53.57.881,comp,2024.2.4,57.366083701362385,2025-02-19 15h54.10.971989 -0500,
78,78,0,filler_square,None,None,None,None,None,None,None,None,None,None,1,1.4256982803344727,None,,,,,0,0,0,0,0,78,78,207,312.5233190059662,,,,,,,,,,,,,,,,,,,,,,,,,,,,,,,,,,,,,,,,,,,,,,,,,,,,,,,,,,,,,,,,,,,,,,,,,,,,,,,,,,106.11913134259402,106.11913134259402,87.10525421280417,75.26857108383453,78.58558448905274,62.57878731354064,1.0,1.3,293,-276,480,-274,645,-262,312.50484323501587,312.5049171447754,312.5081272125244,312.5233190059662,312.67081689834595,312.67081689834595,312.67081689834595,312.67081689834595,312.67081689834595,312.67081689834595,312.67081689834595,313.9536859989166,1,1.4256982803344727,None,,,,,,,,,,,,,,,,,,55,2,2025-02-19_15h53.57.881,comp,2024.2.4,57.366083701362385,2025-02-19 15h54.10.971989 -0500,
79,79,0,critical,hdw,20.0,2.1,lower,133.0,57.0,78.0,78.0,57.0,133.0,3,2.170759677886963,None,,,,,0,0,0,0,0,79,79,46,313.969975233078,,,,,,,,,,,,,,,,,,,,,,,,,,,,,,,,,,,,,,,,,,,,,,,,,,,,,,,,,,,,,,,,,,,,,,,,,,,,,,,,,,133.0,57.0,78.0,78.0,57.0,133.0,2.1,2.12,-164,-260,0,-273,202,268,313.95513439178467,313.95520973205566,313.95838689804077,313.969975233078,314.1214017868042,314.1214017868042,314.1214017868042,314.1214017868042,314.1214017868042,314.1214017868042,314.1214017868042,316.1562783718109,3,2.170759677886963,None,,,,,,,,,,,,,,,,,,55,2,2025-02-19_15h53.57.881,comp,2024.2.4,57.366083701362385,2025-02-19 15h54.10.971989 -0500,
80,80,0,critical,hwd,20.0,2.1,upper,200.0,125.0,125.0,200.0,141.0,141.0,1,1.6803793907165527,None,,,,,0,0,0,0,0,80,80,19,316.1724200248718,,,,,,,,,,,,,,,,,,,,,,,,,,,,,,,,,,,,,,,,,,,,,,,,,,,,,,,,,,,,,,,,,,,,,,,,,,,,,,,,,,200.0,125.0,125.0,200.0,141.0,141.0,2.1,2.11,-258,270,0,260,266,-281,316.157906293869,316.15797781944275,316.1615741252899,316.1724200248718,316.323055267334,316.323055267334,316.323055267334,316.323055267334,316.323055267334,316.323055267334,316.323055267334,317.85645174980164,1,1.6803793907165527,None,,,,,,,,,,,,,,,,,,55,2,2025-02-19_15h53.57.881,comp,2024.2.4,57.366083701362385,2025-02-19 15h54.10.971989 -0500,
81,81,0,critical,hwd,35.0,3.0,upper,200.0,125.0,125.0,200.0,127.0,127.0,2,1.661144495010376,None,,,,,0,0,0,0,0,81,81,99,317.8721923828125,,,,,,,,,,,,,,,,,,,,,,,,,,,,,,,,,,,,,,,,,,,,,,,,,,,,,,,,,,,,,,,,,,,,,,,,,,,,,,,,,,200.0,125.0,125.0,200.0,127.0,127.0,3.0,3.2,-258,-270,0,14,260,288,317.857946395874,317.85802149772644,317.86124658584595,317.8721923828125,318.0214548110962,318.0214548110962,318.0214548110962,318.0214548110962,318.0214548110962,318.0214548110962,318.0214548110962,319.5403711795807,2,1.661144495010376,None,,,,,,,,,,,,,,,,,,55,2,2025-02-19_15h53.57.881,comp,2024.2.4,57.366083701362385,2025-02-19 15h54.10.971989 -0500,
82,82,0,critical,wdh,20.0,2.1,upper,125.0,200.0,141.0,141.0,200.0,125.0,1,1.8099217414855957,None,,,,,0,0,0,0,0,82,82,35,319.5547547340393,,,,,,,,,,,,,,,,,,,,,,,,,,,,,,,,,,,,,,,,,,,,,,,,,,,,,,,,,,,,,,,,,,,,,,,,,,,,,,,,,,125.0,200.0,141.0,141.0,200.0,125.0,2.1,2.12,-266,-256,0,-280,229,290,319.54187417030334,319.5419499874115,319.5452871322632,319.5547547340393,319.6942584514618,319.6942584514618,319.6942584514618,319.6942584514618,319.6942584514618,319.6942584514618,319.6942584514618,321.37599992752075,1,1.8099217414855957,None,,,,,,,,,,,,,,,,,,55,2,2025-02-19_15h53.57.881,comp,2024.2.4,57.366083701362385,2025-02-19 15h54.10.971989 -0500,
83,83,0,filler_square,None,None,None,None,None,None,None,None,None,None,1,1.3963563442230225,None,,,,,0,0,0,0,0,83,83,200,321.39259123802185,,,,,,,,,,,,,,,,,,,,,,,,,,,,,,,,,,,,,,,,,,,,,,,,,,,,,,,,,,,,,,,,,,,,,,,,,,,,,,,,,,193.18493528680074,193.18493528680074,135.25211478304482,178.7753830221984,66.33125209946645,100.53031563853331,1.0,1.3,198,-273,480,-261,716,-285,321.3781650066376,321.3782608509064,321.38174867630005,321.39259123802185,321.5444960594177,321.5444960594177,321.5444960594177,321.5444960594177,321.5444960594177,321.5444960594177,321.5444960594177,322.80694007873535,1,1.3963563442230225,None,,,,,,,,,,,,,,,,,,55,2,2025-02-19_15h53.57.881,comp,2024.2.4,57.366083701362385,2025-02-19 15h54.10.971989 -0500,
84,84,0,filler_square,None,None,None,None,None,None,None,None,None,None,1,1.9577414989471436,None,,,,,0,0,0,0,0,84,84,202,322.82301092147827,,,,,,,,,,,,,,,,,,,,,,,,,,,,,,,,,,,,,,,,,,,,,,,,,,,,,,,,,,,,,,,,,,,,,,,,,,,,,,,,,,130.46917074331463,119.66298215954427,79.85404356091395,114.64125605985478,142.56318956733207,142.56318956733207,3.0,3.2,-213,-275,0,15,225,283,322.80866622924805,322.8087396621704,322.81188440322876,322.82301092147827,322.9779145717621,322.9779145717621,322.9779145717621,322.9779145717621,322.9779145717621,322.9779145717621,322.9779145717621,324.79841351509094,1,1.9577414989471436,None,,,,,,,,,,,,,,,,,,55,2,2025-02-19_15h53.57.881,comp,2024.2.4,57.366083701362385,2025-02-19 15h54.10.971989 -0500,
85,85,0,filler_square,None,None,None,None,None,None,None,None,None,None,1,5.5158374309539795,None,,,,,0,0,0,0,0,85,85,209,324.81759333610535,,,,,,,,,,,,,,,,,,,,,,,,,,,,,,,,,,,,,,,,,,,,,,,,,,,,,,,,,,,,,,,,,,,,,,,,,,,,,,,,,,57.26596538277633,63.57403719775246,59.21538597859721,63.68805113852554,63.93437242489145,63.93437242489145,4.0,4.2,-160,12,0,-264,160,-18,324.8001825809479,324.800256729126,324.80319237709045,324.81759333610535,324.95883774757385,324.95883774757385,324.95883774757385,324.95883774757385,324.95883774757385,324.95883774757385,324.95883774757385,330.3432295322418,1,5.5158374309539795,None,,,,,,,,,,,,,,,,,,55,2,2025-02-19_15h53.57.881,comp,2024.2.4,57.366083701362385,2025-02-19 15h54.10.971989 -0500,
86,86,0,critical,dhw,35.0,4.0,lower,70.0,70.0,133.0,57.0,57.0,133.0,2,3.9426488876342773,None,,,,,0,0,0,0,0,86,86,52,330.35881900787354,,,,,,,,,,,,,,,,,,,,,,,,,,,,,,,,,,,,,,,,,,,,,,,,,,,,,,,,,,,,,,,,,,,,,,,,,,,,,,,,,,70.0,70.0,133.0,57.0,57.0,133.0,4.0,4.2,-160,13,0,-286,191,-11,330.34469866752625,330.3447723388672,330.3481283187866,330.35881900787354,330.510183095932,330.510183095932,330.510183095932,330.510183095932,330.510183095932,330.510183095932,330.510183095932,334.31122970581055,2,3.9426488876342773,None,,,,,,,,,,,,,,,,,,55,2,2025-02-19_15h53.57.881,comp,2024.2.4,57.366083701362385,2025-02-19 15h54.10.971989 -0500,
87,87,0,filler_random,None,None,None,None,None,None,None,None,None,None,1,1.046020269393921,None,,,,,0,0,0,0,0,87,87,161,334.3271312713623,,,,,,,,,,,,,,,,,,,,,,,,,,,,,,,,,,,,,,,,,,,,,,,,,,,,,,,,,,,,,,,,,,,,,,,,,,,,,,,,,,125.6839372213345,170.5729784262027,101.5872136917825,151.6966150538446,86.38376780667815,114.28109800682944,2.2,2.22,-257,255,0,-285,229,-286,334.31295800209045,334.3130338191986,334.31645035743713,334.3271312713623,334.47635531425476,334.47635531425476,334.47635531425476,334.47635531425476,334.47635531425476,334.47635531425476,334.47635531425476,335.3798236846924,1,1.046020269393921,None,,,,,,,,,,,,,,,,,,55,2,2025-02-19_15h53.57.881,comp,2024.2.4,57.366083701362385,2025-02-19 15h54.10.971989 -0500,
88,88,0,filler_random,None,None,None,None,None,None,None,None,None,None,3,1.6725049018859863,None,,,,,0,0,0,0,0,88,88,162,335.39618468284607,,,,,,,,,,,,,,,,,,,,,,,,,,,,,,,,,,,,,,,,,,,,,,,,,,,,,,,,,,,,,,,,,,,,,,,,,,,,,,,,,,143.93866316535514,91.09925445143509,93.23265516910979,94.5213207706125,166.7128997969295,191.0202187143895,2.1,2.11,-189,288,0,280,239,-281,335.3816316127777,335.381707906723,335.3853027820587,335.39618468284607,335.5455858707428,335.5455858707428,335.5455858707428,335.5455858707428,335.5455858707428,335.5455858707428,335.5455858707428,337.08037877082825,3,1.6725049018859863,None,,,,,,,,,,,,,,,,,,55,2,2025-02-19_15h53.57.881,comp,2024.2.4,57.366083701362385,2025-02-19 15h54.10.971989 -0500,
89,89,0,critical,wdh,20.0,1.0,upper,125.0,200.0,141.0,141.0,200.0,125.0,1,5.223820924758911,None,,,,,0,0,0,0,0,89,89,79,337.1012005805969,,,,,,,,,,,,,,,,,,,,,,,,,,,,,,,,,,,,,,,,,,,,,,,,,,,,,,,,,,,,,,,,,,,,,,,,,,,,,,,,,,125.0,200.0,141.0,141.0,200.0,125.0,1.0,1.1,-746,252,-480,280,-251,257,337.08188486099243,337.08195972442627,337.0853703022003,337.1012005805969,337.24631667137146,337.24631667137146,337.24631667137146,337.24631667137146,337.24631667137146,337.24631667137146,337.24631667137146,342.3295464515686,1,5.223820924758911,None,,,,,,,,,,,,,,,,,,55,2,2025-02-19_15h53.57.881,comp,2024.2.4,57.366083701362385,2025-02-19 15h54.10.971989 -0500,
90,90,0,critical,dhw,35.0,1.0,upper,127.0,127.0,200.0,125.0,125.0,200.0,2,1.1491026878356934,None,,,,,0,0,0,0,0,90,90,49,342.34557485580444,,,,,,,,,,,,,,,,,,,,,,,,,,,,,,,,,,,,,,,,,,,,,,,,,,,,,,,,,,,,,,,,,,,,,,,,,,,,,,,,,,127.0,127.0,200.0,125.0,125.0,200.0,1.0,1.2,-222,-11,0,2,258,19,342.33100390434265,342.33107709884644,342.3345241546631,342.34557485580444,342.4981667995453,342.4981667995453,342.4981667995453,342.4981667995453,342.4981667995453,342.4981667995453,342.4981667995453,343.4966661930084,2,1.1491026878356934,None,,,,,,,,,,,,,,,,,,55,2,2025-02-19_15h53.57.881,comp,2024.2.4,57.366083701362385,2025-02-19 15h54.10.971989 -0500,
91,91,0,critical,wdh,20.0,3.0,upper,125.0,200.0,141.0,141.0,200.0,125.0,3,1.4968390464782715,None,,,,,0,0,0,0,0,91,91,81,343.5163161754608,,,,,,,,,,,,,,,,,,,,,,,,,,,,,,,,,,,,,,,,,,,,,,,,,,,,,,,,,,,,,,,,,,,,,,,,,,,,,,,,,,125.0,200.0,141.0,141.0,200.0,125.0,3.0,3.1,-266,283,0,-20,229,-269,343.49817514419556,343.49824833869934,343.50139927864075,343.5163161754608,343.6641311645508,343.6641311645508,343.6641311645508,343.6641311645508,343.6641311645508,343.6641311645508,343.6641311645508,345.0170521736145,3,1.4968390464782715,None,,,,,,,,,,,,,,,,,,55,2,2025-02-19_15h53.57.881,comp,2024.2.4,57.366083701362385,2025-02-19 15h54.10.971989 -0500,
92,92,0,critical,dwh,35.0,3.0,lower,70.0,70.0,57.0,133.0,133.0,57.0,2,2.7091948986053467,None,,,,,0,0,0,0,0,92,92,62,345.03313755989075,,,,,,,,,,,,,,,,,,,,,,,,,,,,,,,,,,,,,,,,,,,,,,,,,,,,,,,,,,,,,,,,,,,,,,,,,,,,,,,,,,70.0,70.0,57.0,133.0,133.0,57.0,3.0,3.1,-198,253,0,-10,191,-264,345.0187602043152,345.01883721351624,345.02249002456665,345.03313755989075,345.18096947669983,345.18096947669983,345.18096947669983,345.18096947669983,345.18096947669983,345.18096947669983,345.18096947669983,347.7474732398987,2,2.7091948986053467,None,,,,,,,,,,,,,,,,,,55,2,2025-02-19_15h53.57.881,comp,2024.2.4,57.366083701362385,2025-02-19 15h54.10.971989 -0500,
93,93,0,critical,whd,20.0,2.1,upper,125.0,200.0,200.0,125.0,141.0,141.0,1,3.1046807765960693,None,,,,,0,0,0,0,0,93,93,15,347.7642307281494,,,,,,,,,,,,,,,,,,,,,,,,,,,,,,,,,,,,,,,,,,,,,,,,,,,,,,,,,,,,,,,,,,,,,,,,,,,,,,,,,,125.0,200.0,200.0,125.0,141.0,141.0,2.1,2.11,-258,255,0,266,229,-275,347.74899888038635,347.74907302856445,347.75246572494507,347.7642307281494,347.91818594932556,347.91818594932556,347.91818594932556,347.91818594932556,347.91818594932556,347.91818594932556,347.91818594932556,350.8876540660858,1,3.1046807765960693,None,,,,,,,,,,,,,,,,,,55,2,2025-02-19_15h53.57.881,comp,2024.2.4,57.366083701362385,2025-02-19 15h54.10.971989 -0500,
94,94,0,critical,hwd,20.0,2.1,lower,133.0,57.0,57.0,133.0,78.0,78.0,3,1.9881441593170166,None,,,,,0,0,0,0,0,94,94,18,350.9047429561615,,,,,,,,,,,,,,,,,,,,,,,,,,,,,,,,,,,,,,,,,,,,,,,,,,,,,,,,,,,,,,,,,,,,,,,,,,,,,,,,,,133.0,57.0,57.0,133.0,78.0,78.0,2.1,2.12,-191,-263,0,-270,202,257,350.8891487121582,350.8892226219177,350.89217138290405,350.9047429561615,351.04982352256775,351.04982352256775,351.04982352256775,351.04982352256775,351.04982352256775,351.04982352256775,351.04982352256775,352.90294766426086,3,1.9881441593170166,None,,,,,,,,,,,,,,,,,,55,2,2025-02-19_15h53.57.881,comp,2024.2.4,57.366083701362385,2025-02-19 15h54.10.971989 -0500,
95,95,0,filler_square,None,None,None,None,None,None,None,None,None,None,3,1.8125181198120117,None,,,,,0,0,0,0,0,95,95,178,352.92028975486755,,,,,,,,,,,,,,,,,,,,,,,,,,,,,,,,,,,,,,,,,,,,,,,,,,,,,,,,,,,,,,,,,,,,,,,,,,,,,,,,,,87.54771979351744,66.89445424816151,79.04828523558578,160.40814139181202,167.1624221704763,167.1624221704763,2.1,2.11,-210,283,0,264,260,-265,352.9050726890564,352.9051516056061,352.90863490104675,352.92028975486755,353.06662464141846,353.06662464141846,353.06662464141846,353.06662464141846,353.06662464141846,353.06662464141846,353.06662464141846,354.7390375137329,3,1.8125181198120117,None,,,,,,,,,,,,,,,,,,55,2,2025-02-19_15h53.57.881,comp,2024.2.4,57.366083701362385,2025-02-19 15h54.10.971989 -0500,
96,96,0,filler_random,None,None,None,None,None,None,None,None,None,None,1,1.8480310440063477,None,,,,,0,0,0,0,0,96,96,130,354.7568395137787,,,,,,,,,,,,,,,,,,,,,,,,,,,,,,,,,,,,,,,,,,,,,,,,,,,,,,,,,,,,,,,,,,,,,,,,,,,,,,,,,,110.09638101493873,172.27022848081475,61.921502107314446,193.58738961331656,180.10690680451495,123.42965492827679,2.2,2.21,-279,-270,0,274,255,254,354.74077820777893,354.7408549785614,354.7438063621521,354.7568395137787,354.90090775489807,354.90090775489807,354.90090775489807,354.90090775489807,354.90090775489807,354.90090775489807,354.90090775489807,356.61926794052124,1,1.8480310440063477,None,,,,,,,,,,,,,,,,,,55,2,2025-02-19_15h53.57.881,comp,2024.2.4,57.366083701362385,2025-02-19 15h54.10.971989 -0500,
97,97,0,critical,hdw,35.0,4.0,upper,200.0,125.0,127.0,127.0,125.0,200.0,3,2.4260215759277344,None,,,,,0,0,0,0,0,97,97,113,356.63477873802185,,,,,,,,,,,,,,,,,,,,,,,,,,,,,,,,,,,,,,,,,,,,,,,,,,,,,,,,,,,,,,,,,,,,,,,,,,,,,,,,,,200.0,125.0,127.0,127.0,125.0,200.0,4.0,4.1,-222,-271,0,-7,260,-282,356.6208848953247,356.62095761299133,356.6244173049927,356.63477873802185,356.77795577049255,356.77795577049255,356.77795577049255,356.77795577049255,356.77795577049255,356.77795577049255,356.77795577049255,359.07809615135193,3,2.4260215759277344,None,,,,,,,,,,,,,,,,,,55,2,2025-02-19_15h53.57.881,comp,2024.2.4,57.366083701362385,2025-02-19 15h54.10.971989 -0500,
98,98,0,critical,whd,35.0,3.0,upper,125.0,200.0,200.0,125.0,127.0,127.0,1,3.495079755783081,None,,,,,0,0,0,0,0,98,98,87,359.0936532020569,,,,,,,,,,,,,,,,,,,,,,,,,,,,,,,,,,,,,,,,,,,,,,,,,,,,,,,,,,,,,,,,,,,,,,,,,,,,,,,,,,125.0,200.0,200.0,125.0,127.0,127.0,3.0,3.1,-258,268,0,9,222,-260,359.0797083377838,359.079781293869,359.0831301212311,359.0936532020569,359.26141023635864,359.26141023635864,359.26141023635864,359.26141023635864,359.26141023635864,359.26141023635864,359.26141023635864,362.60676527023315,1,3.495079755783081,None,,,,,,,,,,,,,,,,,,55,2,2025-02-19_15h53.57.881,comp,2024.2.4,57.366083701362385,2025-02-19 15h54.10.971989 -0500,
99,99,0,critical,whd,35.0,2.1,lower,57.0,133.0,133.0,57.0,70.0,70.0,2,3.542273998260498,None,,,,,0,0,0,0,0,99,99,12,362.6230149269104,,,,,,,,,,,,,,,,,,,,,,,,,,,,,,,,,,,,,,,,,,,,,,,,,,,,,,,,,,,,,,,,,,,,,,,,,,,,,,,,,,57.0,133.0,133.0,57.0,70.0,70.0,2.1,2.11,-191,266,0,280,160,-272,362.60838651657104,362.6085271835327,362.6118960380554,362.6230149269104,362.7699546813965,362.7699546813965,362.7699546813965,362.7699546813965,362.7699546813965,362.7699546813965,362.7699546813965,366.1711437702179,2,3.542273998260498,None,,,,,,,,,,,,,,,,,,55,2,2025-02-19_15h53.57.881,comp,2024.2.4,57.366083701362385,2025-02-19 15h54.10.971989 -0500,
100,100,0,filler_random,None,None,None,None,None,None,None,None,None,None,1,1.5688581466674805,None,,,,,0,0,0,0,0,100,100,158,366.1879563331604,,,,,,,,,,,,,,,,,,,,,,,,,,,,,,,,,,,,,,,,,,,,,,,,,,,,,,,,,,,,,,,,,,,,,,,,,,,,,,,,,,132.46497448106146,172.04323468894657,157.56328829723992,78.84764614801409,148.55008491754782,95.0619140598723,2.1,2.12,-221,-267,0,-254,183,272,366.17306637763977,366.17314553260803,366.1772906780243,366.1879563331604,366.34035634994507,366.34035634994507,366.34035634994507,366.34035634994507,366.34035634994507,366.34035634994507,366.34035634994507,367.77548718452454,1,1.5688581466674805,None,,,,,,,,,,,,,,,,,,55,2,2025-02-19_15h53.57.881,comp,2024.2.4,57.366083701362385,2025-02-19 15h54.10.971989 -0500,
101,101,0,filler_random,None,None,None,None,None,None,None,None,None,None,2,1.1216537952423096,None,,,,,0,0,0,0,0,101,101,169,367.79525685310364,,,,,,,,,,,,,,,,,,,,,,,,,,,,,,,,,,,,,,,,,,,,,,,,,,,,,,,,,,,,,,,,,,,,,,,,,,,,,,,,,,78.05129204512805,84.27246314205993,154.0423958153117,81.25900354479349,100.46875263885502,64.91795820406458,1.0,1.2,-179,-17,0,-1,169,9,367.7774612903595,367.77759623527527,367.7807238101959,367.79525685310364,367.9386990070343,367.9386990070343,367.9386990070343,367.9386990070343,367.9386990070343,367.9386990070343,367.9386990070343,368.93404507637024,2,1.1216537952423096,None,,,,,,,,,,,,,,,,,,55,2,2025-02-19_15h53.57.881,comp,2024.2.4,57.366083701362385,2025-02-19 15h54.10.971989 -0500,
102,102,0,filler_square,None,None,None,None,None,None,None,None,None,None,1,3.4688022136688232,None,,,,,0,0,0,0,0,102,102,206,368.95208644866943,,,,,,,,,,,,,,,,,,,,,,,,,,,,,,,,,,,,,,,,,,,,,,,,,,,,,,,,,,,,,,,,,,,,,,,,,,,,,,,,,,81.39218212957823,81.39218212957823,68.08339025316633,58.97934997449937,77.53517406860809,64.534776010215,2.1,2.11,-166,290,0,287,158,-285,368.9359667301178,368.9360954761505,368.93936944007874,368.95208644866943,369.091402053833,369.091402053833,369.091402053833,369.091402053833,369.091402053833,369.091402053833,369.091402053833,372.4330222606659,1,3.4688022136688232,None,,,,,,,,,,,,,,,,,,55,2,2025-02-19_15h53.57.881,comp,2024.2.4,57.366083701362385,2025-02-19 15h54.10.971989 -0500,
103,103,0,critical,hwd,20.0,3.0,lower,133.0,57.0,57.0,133.0,78.0,78.0,3,4.075014352798462,None,,,,,0,0,0,0,0,103,103,104,372.4498128890991,,,,,,,,,,,,,,,,,,,,,,,,,,,,,,,,,,,,,,,,,,,,,,,,,,,,,,,,,,,,,,,,,,,,,,,,,,,,,,,,,,133.0,57.0,57.0,133.0,78.0,78.0,3.0,3.1,-191,256,0,16,202,-271,372.4345576763153,372.43463253974915,372.4379794597626,372.4498128890991,372.59052658081055,372.59052658081055,372.59052658081055,372.59052658081055,372.59052658081055,372.59052658081055,372.59052658081055,376.54109358787537,3,4.075014352798462,None,,,,,,,,,,,,,,,,,,55,2,2025-02-19_15h53.57.881,comp,2024.2.4,57.366083701362385,2025-02-19 15h54.10.971989 -0500,
104,104,0,filler_square,None,None,None,None,None,None,None,None,None,None,1,1.6383640766143799,None,,,,,0,0,0,0,0,104,104,171,376.55840611457825,,,,,,,,,,,,,,,,,,,,,,,,,,,,,,,,,,,,,,,,,,,,,,,,,,,,,,,,,,,,,,,,,,,,,,,,,,,,,,,,,,176.26029760610547,176.26029760610547,108.95928757215987,82.31341738911942,118.62398843235118,131.2536550380471,1.0,1.1,-705,285,-480,258,-277,275,376.54307556152344,376.54314970970154,376.5473005771637,376.55840611457825,376.70553636550903,376.70553636550903,376.70553636550903,376.70553636550903,376.70553636550903,376.70553636550903,376.70553636550903,378.21174001693726,1,1.6383640766143799,None,,,,,,,,,,,,,,,,,,55,2,2025-02-19_15h53.57.881,comp,2024.2.4,57.366083701362385,2025-02-19 15h54.10.971989 -0500,
105,105,0,critical,wdh,20.0,1.0,lower,57.0,133.0,78.0,78.0,133.0,57.0,3,1.660776138305664,None,,,,,0,0,0,0,0,105,105,78,378.23212122917175,,,,,,,,,,,,,,,,,,,,,,,,,,,,,,,,,,,,,,,,,,,,,,,,,,,,,,,,,,,,,,,,,,,,,,,,,,,,,,,,,,57.0,133.0,78.0,78.0,133.0,57.0,1.0,1.3,278,-254,480,-263,644,-281,378.21333408355713,378.2134065628052,378.2168731689453,378.23212122917175,378.37486457824707,378.37486457824707,378.37486457824707,378.37486457824707,378.37486457824707,378.37486457824707,378.37486457824707,379.8949329853058,3,1.660776138305664,None,,,,,,,,,,,,,,,,,,55,2,2025-02-19_15h53.57.881,comp,2024.2.4,57.366083701362385,2025-02-19 15h54.10.971989 -0500,
106,106,0,critical,hwd,20.0,3.0,upper,200.0,125.0,125.0,200.0,141.0,141.0,2,15.832836627960205,None,,,,,0,0,0,0,0,106,106,105,379.9159917831421,,,,,,,,,,,,,,,,,,,,,,,,,,,,,,,,,,,,,,,,,,,,,,,,,,,,,,,,,,,,,,,,,,,,,,,,,,,,,,,,,,200.0,125.0,125.0,200.0,141.0,141.0,3.0,3.1,-258,288,0,-1,266,-255,379.8967981338501,379.8969268798828,379.90025067329407,379.9159917831421,380.0595552921295,380.0595552921295,380.0595552921295,380.0595552921295,380.0595552921295,380.0595552921295,380.0595552921295,395.76576495170593,2,15.832836627960205,None,,,,,,,,,,,,,,,,,,55,2,2025-02-19_15h53.57.881,comp,2024.2.4,57.366083701362385,2025-02-19 15h54.10.971989 -0500,
107,107,0,filler_square,None,None,None,None,None,None,None,None,None,None,2,1.0074970722198486,None,,,,,0,0,0,0,0,107,107,208,395.7819359302521,,,,,,,,,,,,,,,,,,,,,,,,,,,,,,,,,,,,,,,,,,,,,,,,,,,,,,,,,,,,,,,,,,,,,,,,,,,,,,,,,,144.44238629580087,138.8564193523074,167.54118363677202,167.54118363677202,160.40196974982905,99.4113777465051,1.0,1.1,-729,273,-480,280,-251,261,395.7678949832916,395.76797223091125,395.77167201042175,395.7819359302521,395.93046522140503,395.93046522140503,395.93046522140503,395.93046522140503,395.93046522140503,395.93046522140503,395.93046522140503,396.7975902557373,2,1.0074970722198486,None,,,,,,,,,,,,,,,,,,55,2,2025-02-19_15h53.57.881,comp,2024.2.4,57.366083701362385,2025-02-19 15h54.10.971989 -0500,
108,108,0,filler_random,None,None,None,None,None,None,None,None,None,None,1,1.13602876663208,None,,,,,0,0,0,0,0,108,108,137,396.81299328804016,,,,,,,,,,,,,,,,,,,,,,,,,,,,,,,,,,,,,,,,,,,,,,,,,,,,,,,,,,,,,,,,,,,,,,,,,,,,,,,,,,187.763524380001,100.778864788973,147.26063494567452,80.5189504238586,178.91588607242522,81.59689633423548,1.0,1.2,-187,-16,0,5,177,-11,396.7992136478424,396.799289226532,396.80241298675537,396.81299328804016,396.9687237739563,396.9687237739563,396.9687237739563,396.9687237739563,396.9687237739563,396.9687237739563,396.9687237739563,397.96640968322754,1,1.13602876663208,None,,,,,,,,,,,,,,,,,,55,2,2025-02-19_15h53.57.881,comp,2024.2.4,57.366083701362385,2025-02-19 15h54.10.971989 -0500,
109,109,0,critical,dwh,20.0,4.0,upper,141.0,141.0,125.0,200.0,200.0,125.0,2,0.9185411930084229,None,,,,,0,0,0,0,0,109,109,71,397.9822955131531,,,,,,,,,,,,,,,,,,,,,,,,,,,,,,,,,,,,,,,,,,,,,,,,,,,,,,,,,,,,,,,,,,,,,,,,,,,,,,,,,,141.0,141.0,125.0,200.0,200.0,125.0,4.0,4.1,-266,-265,0,-5,258,-258,397.96803975105286,397.968115568161,397.9720366001129,397.9822955131531,398.1188850402832,398.1188850402832,398.1188850402832,398.1188850402832,398.1188850402832,398.1188850402832,398.1188850402832,398.9148223400116,2,0.9185411930084229,None,,,,,,,,,,,,,,,,,,55,2,2025-02-19_15h53.57.881,comp,2024.2.4,57.366083701362385,2025-02-19 15h54.10.971989 -0500,
110,110,0,critical,dwh,20.0,1.0,upper,141.0,141.0,125.0,200.0,200.0,125.0,2,0.818305492401123,None,,,,,0,0,0,0,0,110,110,67,398.930557012558,,,,,,,,,,,,,,,,,,,,,,,,,,,,,,,,,,,,,,,,,,,,,,,,,,,,,,,,,,,,,,,,,,,,,,,,,,,,,,,,,,141.0,141.0,125.0,200.0,200.0,125.0,1.0,1.2,-266,9,0,-6,258,5,398.91620564460754,398.9162771701813,398.92033076286316,398.930557012558,399.0825147628784,399.0825147628784,399.0825147628784,399.0825147628784,399.0825147628784,399.0825147628784,399.0825147628784,399.7643942832947,2,0.818305492401123,None,,,,,,,,,,,,,,,,,,55,2,2025-02-19_15h53.57.881,comp,2024.2.4,57.366083701362385,2025-02-19 15h54.10.971989 -0500,
111,111,0,filler_random,None,None,None,None,None,None,None,None,None,None,2,1.165036678314209,None,,,,,0,0,0,0,0,111,111,154,399.7842197418213,,,,,,,,,,,,,,,,,,,,,,,,,,,,,,,,,,,,,,,,,,,,,,,,,,,,,,,,,,,,,,,,,,,,,,,,,,,,,,,,,,84.34369775070077,97.90182041395244,99.89763042437536,175.50056418966835,73.80227293024828,61.87759422883718,4.0,4.1,-233,-290,0,-13,215,-256,399.7661859989166,399.76627373695374,399.7696409225464,399.7842197418213,399.9231626987457,399.9231626987457,399.9231626987457,399.9231626987457,399.9231626987457,399.9231626987457,399.9231626987457,400.9563386440277,2,1.165036678314209,None,,,,,,,,,,,,,,,,,,55,2,2025-02-19_15h53.57.881,comp,2024.2.4,57.366083701362385,2025-02-19 15h54.10.971989 -0500,
112,112,0,critical,whd,20.0,3.0,upper,125.0,200.0,200.0,125.0,141.0,141.0,1,1.4759135246276855,None,,,,,0,0,0,0,0,112,112,93,400.9769985675812,,,,,,,,,,,,,,,,,,,,,,,,,,,,,,,,,,,,,,,,,,,,,,,,,,,,,,,,,,,,,,,,,,,,,,,,,,,,,,,,,,125.0,200.0,200.0,125.0,141.0,141.0,3.0,3.1,-258,255,0,16,229,-254,400.9579243659973,400.9579977989197,400.96135902404785,400.9769985675812,401.11560320854187,401.11560320854187,401.11560320854187,401.11560320854187,401.11560320854187,401.11560320854187,401.11560320854187,402.4660658836365,1,1.4759135246276855,None,,,,,,,,,,,,,,,,,,55,2,2025-02-19_15h53.57.881,comp,2024.2.4,57.366083701362385,2025-02-19 15h54.10.971989 -0500,
113,113,0,critical,whd,35.0,1.0,upper,125.0,200.0,200.0,125.0,127.0,127.0,1,1.180185079574585,None,,,,,0,0,0,0,0,113,113,85,402.48129963874817,,,,,,,,,,,,,,,,,,,,,,,,,,,,,,,,,,,,,,,,,,,,,,,,,,,,,,,,,,,,,,,,,,,,,,,,,,,,,,,,,,125.0,200.0,200.0,125.0,127.0,127.0,1.0,1.3,222,-287,480,-259,702,-260,402.4675588607788,402.46765327453613,402.4710011482239,402.48129963874817,402.6330153942108,402.6330153942108,402.6330153942108,402.6330153942108,402.6330153942108,402.6330153942108,402.6330153942108,403.66362166404724,1,1.180185079574585,None,,,,,,,,,,,,,,,,,,55,2,2025-02-19_15h53.57.881,comp,2024.2.4,57.366083701362385,2025-02-19 15h54.10.971989 -0500,
114,114,0,filler_random,None,None,None,None,None,None,None,None,None,None,2,0.9082179069519043,None,,,,,0,0,0,0,0,114,114,157,403.6812946796417,,,,,,,,,,,,,,,,,,,,,,,,,,,,,,,,,,,,,,,,,,,,,,,,,,,,,,,,,,,,,,,,,,,,,,,,,,,,,,,,,,123.4115428504954,132.34561010325416,191.92889204219222,188.00554176294983,119.86064083943026,89.13893733170484,2.2,2.21,-256,-286,0,276,235,290,403.66523718833923,403.6652936935425,403.6686942577362,403.6812946796417,403.8290662765503,403.8290662765503,403.8290662765503,403.8290662765503,403.8290662765503,403.8290662765503,403.8290662765503,404.60091757774353,2,0.9082179069519043,None,,,,,,,,,,,,,,,,,,55,2,2025-02-19_15h53.57.881,comp,2024.2.4,57.366083701362385,2025-02-19 15h54.10.971989 -0500,
115,115,0,critical,dhw,35.0,4.0,upper,127.0,127.0,200.0,125.0,125.0,200.0,2,2.2038862705230713,None,,,,,0,0,0,0,0,115,115,53,404.6169533729553,,,,,,,,,,,,,,,,,,,,,,,,,,,,,,,,,,,,,,,,,,,,,,,,,,,,,,,,,,,,,,,,,,,,,,,,,,,,,,,,,,127.0,127.0,200.0,125.0,125.0,200.0,4.0,4.2,-222,-10,0,-288,258,-7,404.6025216579437,404.6025996208191,404.6062681674957,404.6169533729553,404.76834058761597,404.76834058761597,404.76834058761597,404.76834058761597,404.76834058761597,404.76834058761597,404.76834058761597,406.8386516571045,2,2.2038862705230713,None,,,,,,,,,,,,,,,,,,55,2,2025-02-19_15h53.57.881,comp,2024.2.4,57.366083701362385,2025-02-19 15h54.10.971989 -0500,
116,116,0,critical,hdw,35.0,2.1,lower,133.0,57.0,70.0,70.0,57.0,133.0,1,2.855039596557617,None,,,,,0,0,0,0,0,116,116,20,406.8548016548157,,,,,,,,,,,,,,,,,,,,,,,,,,,,,,,,,,,,,,,,,,,,,,,,,,,,,,,,,,,,,,,,,,,,,,,,,,,,,,,,,,133.0,57.0,70.0,70.0,57.0,133.0,2.1,2.12,-160,-270,0,-287,198,258,406.84048295021057,406.84061908721924,406.8445734977722,406.8548016548157,407.00628113746643,407.00628113746643,407.00628113746643,407.00628113746643,407.00628113746643,407.00628113746643,407.00628113746643,409.71644830703735,1,2.855039596557617,None,,,,,,,,,,,,,,,,,,55,2,2025-02-19_15h53.57.881,comp,2024.2.4,57.366083701362385,2025-02-19 15h54.10.971989 -0500,
117,117,0,critical,dwh,35.0,2.1,lower,70.0,70.0,57.0,133.0,133.0,57.0,2,1.6485681533813477,None,,,,,0,0,0,0,0,117,117,4,409.7327127456665,,,,,,,,,,,,,,,,,,,,,,,,,,,,,,,,,,,,,,,,,,,,,,,,,,,,,,,,,,,,,,,,,,,,,,,,,,,,,,,,,,70.0,70.0,57.0,133.0,133.0,57.0,2.1,2.12,-198,-277,0,-257,191,284,409.7179503440857,409.71802401542664,409.7209415435791,409.7327127456665,409.8848512172699,409.8848512172699,409.8848512172699,409.8848512172699,409.8848512172699,409.8848512172699,409.8848512172699,411.38404631614685,2,1.6485681533813477,None,,,,,,,,,,,,,,,,,,55,2,2025-02-19_15h53.57.881,comp,2024.2.4,57.366083701362385,2025-02-19 15h54.10.971989 -0500,
118,118,0,critical,hdw,20.0,2.1,lower,133.0,57.0,78.0,78.0,57.0,133.0,1,1.145308017730713,None,,,,,0,0,0,0,0,118,118,22,411.40360736846924,,,,,,,,,,,,,,,,,,,,,,,,,,,,,,,,,,,,,,,,,,,,,,,,,,,,,,,,,,,,,,,,,,,,,,,,,,,,,,,,,,133.0,57.0,78.0,78.0,57.0,133.0,2.1,2.11,-164,277,0,277,202,-279,411.38556122779846,411.3856346607208,411.38873767852783,411.40360736846924,411.55553221702576,411.55553221702576,411.55553221702576,411.55553221702576,411.55553221702576,411.55553221702576,411.55553221702576,412.55229139328003,1,1.145308017730713,None,,,,,,,,,,,,,,,,,,55,2,2025-02-19_15h53.57.881,comp,2024.2.4,57.366083701362385,2025-02-19 15h54.10.971989 -0500,
119,119,0,filler_random,None,None,None,None,None,None,None,None,None,None,3,1.597160816192627,None,,,,,0,0,0,0,0,119,119,147,412.56819915771484,,,,,,,,,,,,,,,,,,,,,,,,,,,,,,,,,,,,,,,,,,,,,,,,,,,,,,,,,,,,,,,,,,,,,,,,,,,,,,,,,,77.09405732072113,81.03765674121209,86.67787908614791,84.35137111445655,168.91196519203731,77.82688208512698,2.2,2.22,-179,284,0,-282,177,-285,412.55403304100037,412.5541093349457,412.55750942230225,412.56819915771484,412.71941328048706,412.71941328048706,412.71941328048706,412.71941328048706,412.71941328048706,412.71941328048706,412.71941328048706,414.1748459339142,3,1.597160816192627,None,,,,,,,,,,,,,,,,,,55,2,2025-02-19_15h53.57.881,comp,2024.2.4,57.366083701362385,2025-02-19 15h54.10.971989 -0500,
120,120,0,filler_random,None,None,None,None,None,None,None,None,None,None,1,1.3715345859527588,None,,,,,0,0,0,0,0,120,120,132,414.1939413547516,,,,,,,,,,,,,,,,,,,,,,,,,,,,,,,,,,,,,,,,,,,,,,,,,,,,,,,,,,,,,,,,,,,,,,,,,,,,,,,,,,160.94111071201286,169.86472738953785,175.00909010406434,126.32380412655348,67.08836911451954,185.4514498188591,1.0,1.2,-244,-19,0,-4,252,-2,414.17650604248047,414.1765797138214,414.1799228191376,414.1939413547516,414.3363332748413,414.3363332748413,414.3363332748413,414.3363332748413,414.3363332748413,414.3363332748413,414.3363332748413,415.5684504508972,1,1.3715345859527588,None,,,,,,,,,,,,,,,,,,55,2,2025-02-19_15h53.57.881,comp,2024.2.4,57.366083701362385,2025-02-19 15h54.10.971989 -0500,
121,121,0,critical,whd,20.0,2.1,lower,57.0,133.0,133.0,57.0,78.0,78.0,2,2.0203499794006348,None,,,,,0,0,0,0,0,121,121,14,415.58452916145325,,,,,,,,,,,,,,,,,,,,,,,,,,,,,,,,,,,,,,,,,,,,,,,,,,,,,,,,,,,,,,,,,,,,,,,,,,,,,,,,,,57.0,133.0,133.0,57.0,78.0,78.0,2.1,2.11,-191,254,0,289,164,-278,415.56988549232483,415.5699601173401,415.57286620140076,415.58452916145325,415.7335116863251,415.7335116863251,415.7335116863251,415.7335116863251,415.7335116863251,415.7335116863251,415.7335116863251,417.61789441108704,2,2.0203499794006348,None,,,,,,,,,,,,,,,,,,55,2,2025-02-19_15h53.57.881,comp,2024.2.4,57.366083701362385,2025-02-19 15h54.10.971989 -0500,
122,122,0,critical,wdh,20.0,2.1,upper,125.0,200.0,141.0,141.0,200.0,125.0,1,1.3792235851287842,None,,,,,0,0,0,0,0,122,122,11,417.6343295574188,,,,,,,,,,,,,,,,,,,,,,,,,,,,,,,,,,,,,,,,,,,,,,,,,,,,,,,,,,,,,,,,,,,,,,,,,,,,,,,,,,125.0,200.0,141.0,141.0,200.0,125.0,2.1,2.12,-266,-280,0,-265,229,288,417.61939430236816,417.6194968223572,417.6228725910187,417.6343295574188,417.7867341041565,417.7867341041565,417.7867341041565,417.7867341041565,417.7867341041565,417.7867341041565,417.7867341041565,419.02004623413086,1,1.3792235851287842,None,,,,,,,,,,,,,,,,,,55,2,2025-02-19_15h53.57.881,comp,2024.2.4,57.366083701362385,2025-02-19 15h54.10.971989 -0500,
123,123,0,filler_square,None,None,None,None,None,None,None,None,None,None,3,1.6003990173339844,None,,,,,0,0,0,0,0,123,123,186,419.0365288257599,,,,,,,,,,,,,,,,,,,,,,,,,,,,,,,,,,,,,,,,,,,,,,,,,,,,,,,,,,,,,,,,,,,,,,,,,,,,,,,,,,101.79804611455941,140.25681874975152,103.39958963591403,63.6735768128714,142.7276730843809,142.7276730843809,2.2,2.21,-198,-275,0,288,199,263,419.02181935310364,419.0218930244446,419.02499985694885,419.0365288257599,419.1929934024811,419.1929934024811,419.1929934024811,419.1929934024811,419.1929934024811,419.1929934024811,419.1929934024811,420.6568377017975,3,1.6003990173339844,None,,,,,,,,,,,,,,,,,,55,2,2025-02-19_15h53.57.881,comp,2024.2.4,57.366083701362385,2025-02-19 15h54.10.971989 -0500,
124,124,0,critical,hwd,35.0,2.1,upper,200.0,125.0,125.0,200.0,127.0,127.0,2,2.082956314086914,None,,,,,0,0,0,0,0,124,124,41,420.6739857196808,,,,,,,,,,,,,,,,,,,,,,,,,,,,,,,,,,,,,,,,,,,,,,,,,,,,,,,,,,,,,,,,,,,,,,,,,,,,,,,,,,200.0,125.0,125.0,200.0,127.0,127.0,2.1,2.11,-258,284,0,255,260,-267,420.6584002971649,420.6584942340851,420.66140961647034,420.6739857196808,420.8201653957367,420.8201653957367,420.8201653957367,420.8201653957367,420.8201653957367,420.8201653957367,420.8201653957367,422.7711753845215,2,2.082956314086914,None,,,,,,,,,,,,,,,,,,55,2,2025-02-19_15h53.57.881,comp,2024.2.4,57.366083701362385,2025-02-19 15h54.10.971989 -0500,
125,125,0,critical,hdw,35.0,4.0,lower,133.0,57.0,70.0,70.0,57.0,133.0,1,1.529876708984375,None,,,,,0,0,0,0,0,125,125,112,422.78756523132324,,,,,,,,,,,,,,,,,,,,,,,,,,,,,,,,,,,,,,,,,,,,,,,,,,,,,,,,,,,,,,,,,,,,,,,,,,,,,,,,,,133.0,57.0,70.0,70.0,57.0,133.0,4.0,4.1,-160,-275,0,6,198,-286,422.7728033065796,422.7728750705719,422.77625250816345,422.78756523132324,422.9272210597992,422.9272210597992,422.9272210597992,422.9272210597992,422.9272210597992,422.9272210597992,422.9272210597992,424.3218276500702,1,1.529876708984375,None,,,,,,,,,,,,,,,,,,55,2,2025-02-19_15h53.57.881,comp,2024.2.4,57.366083701362385,2025-02-19 15h54.10.971989 -0500,
126,126,0,critical,hwd,20.0,2.1,upper,200.0,125.0,125.0,200.0,141.0,141.0,2,1.5864965915679932,None,,,,,0,0,0,0,0,126,126,43,424.33846831321716,,,,,,,,,,,,,,,,,,,,,,,,,,,,,,,,,,,,,,,,,,,,,,,,,,,,,,,,,,,,,,,,,,,,,,,,,,,,,,,,,,200.0,125.0,125.0,200.0,141.0,141.0,2.1,2.12,-258,-258,0,-266,266,261,424.3233506679535,424.3234214782715,424.3268029689789,424.33846831321716,424.4881229400635,424.4881229400635,424.4881229400635,424.4881229400635,424.4881229400635,424.4881229400635,424.4881229400635,425.92882442474365,2,1.5864965915679932,None,,,,,,,,,,,,,,,,,,55,2,2025-02-19_15h53.57.881,comp,2024.2.4,57.366083701362385,2025-02-19 15h54.10.971989 -0500,
127,127,0,critical,hdw,20.0,1.0,lower,133.0,57.0,78.0,78.0,57.0,133.0,1,1.3202219009399414,None,,,,,0,0,0,0,0,127,127,114,425.94906210899353,,,,,,,,,,,,,,,,,,,,,,,,,,,,,,,,,,,,,,,,,,,,,,,,,,,,,,,,,,,,,,,,,,,,,,,,,,,,,,,,,,133.0,57.0,78.0,78.0,57.0,133.0,1.0,1.2,-164,-4,0,-4,202,2,425.9302890300751,425.9303617477417,425.9333760738373,425.94906210899353,426.0859971046448,426.0859971046448,426.0859971046448,426.0859971046448,426.0859971046448,426.0859971046448,426.0859971046448,427.27262592315674,1,1.3202219009399414,None,,,,,,,,,,,,,,,,,,55,2,2025-02-19_15h53.57.881,comp,2024.2.4,57.366083701362385,2025-02-19 15h54.10.971989 -0500,
128,128,0,filler_square,None,None,None,None,None,None,None,None,None,None,2,2.2126152515411377,None,,,,,0,0,0,0,0,128,128,173,427.2891342639923,,,,,,,,,,,,,,,,,,,,,,,,,,,,,,,,,,,,,,,,,,,,,,,,,,,,,,,,,,,,,,,,,,,,,,,,,,,,,,,,,,73.99630853330665,113.99328404066546,96.27656635815276,107.08828872388173,115.09198991067962,115.09198991067962,3.0,3.2,-207,-282,0,-19,207,253,427.2743310928345,427.2744047641754,427.27762365341187,427.2891342639923,427.4400930404663,427.4400930404663,427.4400930404663,427.4400930404663,427.4400930404663,427.4400930404663,427.4400930404663,429.50781750679016,2,2.2126152515411377,None,,,,,,,,,,,,,,,,,,55,2,2025-02-19_15h53.57.881,comp,2024.2.4,57.366083701362385,2025-02-19 15h54.10.971989 -0500,
129,129,0,critical,hwd,35.0,2.1,lower,133.0,57.0,57.0,133.0,70.0,70.0,1,1.225799798965454,None,,,,,0,0,0,0,0,129,129,40,429.5241630077362,,,,,,,,,,,,,,,,,,,,,,,,,,,,,,,,,,,,,,,,,,,,,,,,,,,,,,,,,,,,,,,,,,,,,,,,,,,,,,,,,,133.0,57.0,57.0,133.0,70.0,70.0,2.1,2.11,-191,262,0,281,198,-255,429.50928950309753,429.5093641281128,429.5134892463684,429.5241630077362,429.67488646507263,429.67488646507263,429.67488646507263,429.67488646507263,429.67488646507263,429.67488646507263,429.67488646507263,430.75706481933594,1,1.225799798965454,None,,,,,,,,,,,,,,,,,,55,2,2025-02-19_15h53.57.881,comp,2024.2.4,57.366083701362385,2025-02-19 15h54.10.971989 -0500,
130,130,0,filler_square,None,None,None,None,None,None,None,None,None,None,3,1.420128583908081,None,,,,,0,0,0,0,0,130,130,184,430.77767634391785,,,,,,,,,,,,,,,,,,,,,,,,,,,,,,,,,,,,,,,,,,,,,,,,,,,,,,,,,,,,,,,,,,,,,,,,,,,,,,,,,,72.17931101524144,79.91712014316597,79.5824118564199,124.49448777369754,177.6756164955358,177.6756164955358,2.1,2.12,-198,-264,0,-267,247,272,430.75883960723877,430.7589135169983,430.76202630996704,430.77767634391785,430.92553782463074,430.92553782463074,430.92553782463074,430.92553782463074,430.92553782463074,430.92553782463074,430.92553782463074,432.2072432041168,3,1.420128583908081,None,,,,,,,,,,,,,,,,,,55,2,2025-02-19_15h53.57.881,comp,2024.2.4,57.366083701362385,2025-02-19 15h54.10.971989 -0500,
131,131,0,critical,whd,20.0,4.0,lower,57.0,133.0,133.0,57.0,78.0,78.0,1,1.9855692386627197,None,,,,,0,0,0,0,0,131,131,94,432.22748470306396,,,,,,,,,,,,,,,,,,,,,,,,,,,,,,,,,,,,,,,,,,,,,,,,,,,,,,,,,,,,,,,,,,,,,,,,,,,,,,,,,,57.0,133.0,133.0,57.0,78.0,78.0,4.0,4.1,-191,-289,0,-10,164,-290,432.2088131904602,432.2088875770569,432.2122039794922,432.22748470306396,432.3738901615143,432.3738901615143,432.3738901615143,432.3738901615143,432.3738901615143,432.3738901615143,432.3738901615143,434.22704243659973,1,1.9855692386627197,None,,,,,,,,,,,,,,,,,,55,2,2025-02-19_15h53.57.881,comp,2024.2.4,57.366083701362385,2025-02-19 15h54.10.971989 -0500,
132,132,0,filler_square,None,None,None,None,None,None,None,None,None,None,3,1.5465114116668701,None,,,,,0,0,0,0,0,132,132,182,434.2425181865692,,,,,,,,,,,,,,,,,,,,,,,,,,,,,,,,,,,,,,,,,,,,,,,,,,,,,,,,,,,,,,,,,,,,,,,,,,,,,,,,,,61.49098403677252,110.2438555510021,65.60039220398885,117.28099518785638,122.8512982842668,122.8512982842668,3.0,3.1,-210,268,0,-17,216,-288,434.22890877723694,434.2289819717407,434.232296705246,434.2425181865692,434.39111137390137,434.39111137390137,434.39111137390137,434.39111137390137,434.39111137390137,434.39111137390137,434.39111137390137,435.80521726608276,3,1.5465114116668701,None,,,,,,,,,,,,,,,,,,55,2,2025-02-19_15h53.57.881,comp,2024.2.4,57.366083701362385,2025-02-19 15h54.10.971989 -0500,
133,133,0,critical,hdw,20.0,4.0,upper,200.0,125.0,141.0,141.0,125.0,200.0,1,1.2723946571350098,None,,,,,0,0,0,0,0,133,133,119,435.8206379413605,,,,,,,,,,,,,,,,,,,,,,,,,,,,,,,,,,,,,,,,,,,,,,,,,,,,,,,,,,,,,,,,,,,,,,,,,,,,,,,,,,200.0,125.0,141.0,141.0,125.0,200.0,4.0,4.2,-229,-2,0,-281,266,14,435.8067591190338,435.8068311214447,435.8102147579193,435.8206379413605,435.9604036808014,435.9604036808014,435.9604036808014,435.9604036808014,435.9604036808014,435.9604036808014,435.9604036808014,437.11402916908264,1,1.2723946571350098,None,,,,,,,,,,,,,,,,,,55,2,2025-02-19_15h53.57.881,comp,2024.2.4,57.366083701362385,2025-02-19 15h54.10.971989 -0500,
134,134,0,filler_random,None,None,None,None,None,None,None,None,None,None,2,1.8873400688171387,None,,,,,0,0,0,0,0,134,134,136,437.1339387893677,,,,,,,,,,,,,,,,,,,,,,,,,,,,,,,,,,,,,,,,,,,,,,,,,,,,,,,,,,,,,,,,,,,,,,,,,,,,,,,,,,164.3849078863547,119.01707028863761,195.54376058401863,127.69961945406301,165.7900688856854,195.0075157867926,2.1,2.11,-219,263,0,289,257,-273,437.115846157074,437.1159188747406,437.1190130710602,437.1339387893677,437.2778060436249,437.2778060436249,437.2778060436249,437.2778060436249,437.2778060436249,437.2778060436249,437.2778060436249,439.0283546447754,2,1.8873400688171387,None,,,,,,,,,,,,,,,,,,55,2,2025-02-19_15h53.57.881,comp,2024.2.4,57.366083701362385,2025-02-19 15h54.10.971989 -0500,
135,135,0,critical,dwh,35.0,1.0,upper,127.0,127.0,125.0,200.0,200.0,125.0,2,1.9127073287963867,None,,,,,0,0,0,0,0,135,135,61,439.0443344116211,,,,,,,,,,,,,,,,,,,,,,,,,,,,,,,,,,,,,,,,,,,,,,,,,,,,,,,,,,,,,,,,,,,,,,,,,,,,,,,,,,127.0,127.0,125.0,200.0,200.0,125.0,1.0,1.1,-740,273,-480,271,-222,266,439.02999901771545,439.03008341789246,439.03367280960083,439.0443344116211,439.1927876472473,439.1927876472473,439.1927876472473,439.1927876472473,439.1927876472473,439.1927876472473,439.1927876472473,440.961519241333,2,1.9127073287963867,None,,,,,,,,,,,,,,,,,,55,2,2025-02-19_15h53.57.881,comp,2024.2.4,57.366083701362385,2025-02-19 15h54.10.971989 -0500,
136,136,0,critical,wdh,20.0,2.1,lower,57.0,133.0,78.0,78.0,133.0,57.0,1,4.1792778968811035,None,,,,,0,0,0,0,0,136,136,34,440.9780535697937,,,,,,,,,,,,,,,,,,,,,,,,,,,,,,,,,,,,,,,,,,,,,,,,,,,,,,,,,,,,,,,,,,,,,,,,,,,,,,,,,,57.0,133.0,78.0,78.0,133.0,57.0,2.1,2.11,-202,274,0,274,164,-253,440.9630515575409,440.96312737464905,440.9672923088074,440.9780535697937,441.1262454986572,441.1262454986572,441.1262454986572,441.1262454986572,441.1262454986572,441.1262454986572,441.1262454986572,445.16156911849976,1,4.1792778968811035,None,,,,,,,,,,,,,,,,,,55,2,2025-02-19_15h53.57.881,comp,2024.2.4,57.366083701362385,2025-02-19 15h54.10.971989 -0500,
137,137,0,filler_square,None,None,None,None,None,None,None,None,None,None,1,0.8828446865081787,None,,,,,0,0,0,0,0,137,137,179,445.1782019138336,,,,,,,,,,,,,,,,,,,,,,,,,,,,,,,,,,,,,,,,,,,,,,,,,,,,,,,,,,,,,,,,,,,,,,,,,,,,,,,,,,174.36795379826088,174.36795379826088,146.2374631647711,63.14099776073316,152.20485792549965,81.30380472261953,2.1,2.11,-215,260,0,280,168,-267,445.1633322238922,445.1634063720703,445.1665086746216,445.1782019138336,445.3318910598755,445.3318910598755,445.3318910598755,445.3318910598755,445.3318910598755,445.3318910598755,445.3318910598755,446.0656957626343,1,0.8828446865081787,None,,,,,,,,,,,,,,,,,,55,2,2025-02-19_15h53.57.881,comp,2024.2.4,57.366083701362385,2025-02-19 15h54.10.971989 -0500,
138,138,0,critical,hdw,20.0,3.0,lower,133.0,57.0,78.0,78.0,57.0,133.0,1,1.889786958694458,None,,,,,0,0,0,0,0,138,138,116,446.08360147476196,,,,,,,,,,,,,,,,,,,,,,,,,,,,,,,,,,,,,,,,,,,,,,,,,,,,,,,,,,,,,,,,,,,,,,,,,,,,,,,,,,133.0,57.0,78.0,78.0,57.0,133.0,3.0,3.2,-164,-262,0,2,202,266,446.06750321388245,446.06763529777527,446.0708100795746,446.08360147476196,446.22918462753296,446.22918462753296,446.22918462753296,446.22918462753296,446.22918462753296,446.22918462753296,446.22918462753296,447.98120975494385,1,1.889786958694458,None,,,,,,,,,,,,,,,,,,55,2,2025-02-19_15h53.57.881,comp,2024.2.4,57.366083701362385,2025-02-19 15h54.10.971989 -0500,
139,139,0,critical,hwd,35.0,1.0,upper,200.0,125.0,125.0,200.0,127.0,127.0,1,4.618867874145508,None,,,,,0,0,0,0,0,139,139,97,448.00209164619446,,,,,,,,,,,,,,,,,,,,,,,,,,,,,,,,,,,,,,,,,,,,,,,,,,,,,,,,,,,,,,,,,,,,,,,,,,,,,,,,,,200.0,125.0,125.0,200.0,127.0,127.0,1.0,1.3,222,-256,480,-278,740,-288,447.9828543663025,447.9829273223877,447.98626470565796,448.00209164619446,448.148907661438,448.148907661438,448.148907661438,448.148907661438,448.148907661438,448.148907661438,448.148907661438,452.6306540966034,1,4.618867874145508,None,,,,,,,,,,,,,,,,,,55,2,2025-02-19_15h53.57.881,comp,2024.2.4,57.366083701362385,2025-02-19 15h54.10.971989 -0500,
