thisN,thisTrialN,thisRepN,effect,order,distance,config,diag,h_1,w_1,h_2,w_2,h_3,w_3,rect_choice.keys,rect_choice.rt,rect_choice.duration,instructions_loop.thisRepN,instructions_loop.thisTrialN,instructions_loop.thisN,instructions_loop.thisIndex,blocks.thisRepN,blocks.thisTrialN,blocks.thisN,blocks.thisIndex,trials.thisRepN,trials.thisTrialN,trials.thisN,trials.thisIndex,thisRow.t,notes,consent.started,agree_button.started,decline_button.started,consent_img.started,mouse.started,consent.stopped,agree_button.numClicks,agree_button.timesOn,agree_button.timesOff,decline_button.numClicks,decline_button.timesOn,decline_button.timesOff,mouse.x,mouse.y,mouse.leftButton,mouse.midButton,mouse.rightButton,mouse.time,mouse.clicked_name,exp_params.started,exp_params.stopped,welcome.started,welcome_text.started,welcome.stopped,instructions_1.started,instructions_1_text_1.started,instructions_1_text_2.started,key_resp.started,instructions_1.stopped,instructions_loop.key_resp.keys,instructions_loop.key_resp.rt,instructions_loop.key_resp.duration,instructions_2.started,instructions_2_text_1.started,instructions_2_text_2.started,key_resp_2.started,instructions_2.stopped,instructions_loop.key_resp_2.keys,instructions_loop.key_resp_2.rt,instructions_loop.key_resp_2.duration,instructions_3.started,instructions_3_text_1.started,r1_instr3.started,r2_instr3.started,r3_instr3.started,r1_instr3_label.started,r2_instr3_label.started,r3_instr3_label.started,instructions_3_text_3.started,instructions_3_text_4.started,key_resp_3.started,instructions_3.stopped,instructions_loop.key_resp_3.keys,instructions_loop.key_resp_3.rt,instructions_loop.key_resp_3.duration,instructions_4.started,instructions_4_text_1.started,instructions_4_text_3.started,instructions_4_text_2.started,key_resp_4.started,instructions_4.stopped,instructions_loop.key_resp_4.keys,instructions_loop.key_resp_4.rt,instructions_loop.key_resp_4.duration,instructions_5.started,instructions_5_text_1.started,instructions_5_text_2.started,key_resp_5.started,instructions_5.stopped,instructions_loop.key_resp_5.keys,instructions_loop.key_resp_5.rt,instructions_loop.key_resp_5.duration,start_exp.started,start_exp_text.started,key_resp_6.started,start_exp.stopped,key_resp_6.keys,key_resp_6.rt,key_resp_6.duration,h_1_tmp,w_1_tmp,h_2_tmp,w_2_tmp,h_3_tmp,w_3_tmp,config_tmp,config_tmp_1,r_1_x,r_1_y,r_2_x,r_2_y,r_3_x,r_3_y,pre_trial.started,pre_trial.stopped,choice_trial.started,rect_choice.started,r_1.started,r_2.started,r_3.started,r_1_label.started,r_2_label.started,r_3_label.started,prompt.started,choice_trial.stopped,trials.rect_choice.keys,trials.rect_choice.rt,trials.rect_choice.duration,end_block.started,end_block_text.started,end_block.stopped,end.started,end_text.started,key_resp_7.started,end.stopped,key_resp_7.keys,key_resp_7.rt,key_resp_7.duration,debriefing.started,debrief_form.started,end_debrief.started,debriefing.stopped,end_debrief.keys,end_debrief.rt,end_debrief.duration,participant,computer,date,expName,psychopyVersion,frameRate,expStart,
,,,,,,,,,,,,,,,,,,,,,,,,,,,,,,,0.01536417007446289,0.04181098937988281,0.04181098937988281,0.04181098937988281,0.014889717102050781,16.410751581192017,1,[16.36770534515381],[16.367716312408447],0,,,[-74.0],[-503.0],[1],[0],[0],[16.39486026763916],['agree_button'],,,,,,,,,,,,,,,,,,,,,,,,,,,,,,,,,,,,,,,,,,,,,,,,,,,,,,,,,,,,,,,,,,,,,,,,,,,,,,,,,,,,,,,,,,,,,,,,,,,,,,,,,,,56,3,2025-02-19_15h54.31.648,comp,2024.2.4,61.85404153093142,2025-02-19 15h54.40.403345 -0500,
,,,,,,,,,,,,,,,,,,,,,,,,,,,,,,,,,,,,,,,,,,,,,,,,,,16.411014080047607,16.411049365997314,,,,,,,,,,,,,,,,,,,,,,,,,,,,,,,,,,,,,,,,,,,,,,,,,,,,,,,,,,,,,,,,,,,,,,,,,,,,,,,,,,,,,,,,,,,,,,,,,,,,,,,,,56,3,2025-02-19_15h54.31.648,comp,2024.2.4,61.85404153093142,2025-02-19 15h54.40.403345 -0500,
,,,,,,,,,,,,,,,,,,,,,,,,,,,,,,,,,,,,,,,,,,,,,,,,,,,,16.411072492599487,16.424563884735107,18.41289448738098,,,,,,,,,,,,,,,,,,,,,,,,,,,,,,,,,,,,,,,,,,,,,,,,,,,,,,,,,,,,,,,,,,,,,,,,,,,,,,,,,,,,,,,,,,,,,,,,,,,,,,56,3,2025-02-19_15h54.31.648,comp,2024.2.4,61.85404153093142,2025-02-19 15h54.40.403345 -0500,
0,0,0,,,,,,,,,,,,,,,0,0,0,0,,,,,,,,,18.429988861083984,,,,,,,,,,,,,,,,,,,,,,,,,,18.413464069366455,18.429988861083984,18.429988861083984,19.91335892677307,22.04824161529541,space,2.122215986251831,None,22.048325061798096,22.063050508499146,22.063050508499146,23.562893390655518,28.780508995056152,space,5.200674533843994,None,28.780595064163208,28.80234384536743,28.80234384536743,28.80234384536743,28.80234384536743,28.80234384536743,28.80234384536743,28.80234384536743,28.80234384536743,28.80234384536743,30.279926300048828,37.01446509361267,space,6.716989994049072,None,37.014551877975464,37.02980446815491,37.02980446815491,37.02980446815491,38.52958798408508,43.614041566848755,space,5.074847936630249,None,43.61412787437439,43.629753828048706,43.629753828048706,45.12935471534729,47.98050403594971,space,2.842911958694458,None,47.980616092681885,47.99633049964905,47.99633049964905,49.71379637718201,space,1.7119190692901611,None,,,,,,,,,,,,,,,,,,,,,,,,,,,,,,,,,,,,,,,,,,,,,,,56,3,2025-02-19_15h54.31.648,comp,2024.2.4,61.85404153093142,2025-02-19 15h54.40.403345 -0500,
0,0,0,filler_random,None,None,None,None,None,None,None,None,None,None,2,10.133744716644287,None,,,,,0,0,0,0,0,0,0,138,49.774336099624634,,,,,,,,,,,,,,,,,,,,,,,,,,,,,,,,,,,,,,,,,,,,,,,,,,,,,,,,,,,,,,,,,,,,,,,,,,,,,,,,,153.52927220027755,77.58792156497083,177.86316542846816,111.46653670853897,90.89836400756471,154.69786028204481,1.0,1.1,-671,262,-480,273,-251,257,49.76066565513611,49.76071310043335,49.76271295547485,49.774336099624634,49.91941738128662,49.91941738128662,49.91941738128662,49.91941738128662,49.91941738128662,49.91941738128662,49.91941738128662,59.913955211639404,2,10.133744716644287,None,,,,,,,,,,,,,,,,,,56,3,2025-02-19_15h54.31.648,comp,2024.2.4,61.85404153093142,2025-02-19 15h54.40.403345 -0500,
1,1,0,critical,dwh,20.0,2.1,upper,141.0,141.0,125.0,200.0,200.0,125.0,2,11.258504390716553,None,,,,,0,0,0,0,0,1,1,7,59.92956805229187,,,,,,,,,,,,,,,,,,,,,,,,,,,,,,,,,,,,,,,,,,,,,,,,,,,,,,,,,,,,,,,,,,,,,,,,,,,,,,,,,141.0,141.0,125.0,200.0,200.0,125.0,2.1,2.11,-266,266,0,258,258,-252,59.914748430252075,59.91478991508484,59.91726636886597,59.92956805229187,60.07970404624939,60.07970404624939,60.07970404624939,60.07970404624939,60.07970404624939,60.07970404624939,60.07970404624939,71.19735765457153,2,11.258504390716553,None,,,,,,,,,,,,,,,,,,56,3,2025-02-19_15h54.31.648,comp,2024.2.4,61.85404153093142,2025-02-19 15h54.40.403345 -0500,
2,2,0,critical,whd,20.0,3.0,lower,57.0,133.0,133.0,57.0,78.0,78.0,3,3.999847412109375,None,,,,,0,0,0,0,0,2,2,92,71.21289014816284,,,,,,,,,,,,,,,,,,,,,,,,,,,,,,,,,,,,,,,,,,,,,,,,,,,,,,,,,,,,,,,,,,,,,,,,,,,,,,,,,57.0,133.0,133.0,57.0,78.0,78.0,3.0,3.1,-191,278,0,1,164,-253,71.19817519187927,71.19821643829346,71.20033812522888,71.21289014816284,71.36256122589111,71.36256122589111,71.36256122589111,71.36256122589111,71.36256122589111,71.36256122589111,71.36256122589111,75.23043179512024,3,3.999847412109375,None,,,,,,,,,,,,,,,,,,56,3,2025-02-19_15h54.31.648,comp,2024.2.4,61.85404153093142,2025-02-19 15h54.40.403345 -0500,
3,3,0,filler_random,None,None,None,None,None,None,None,None,None,None,3,5.637286186218262,None,,,,,0,0,0,0,0,3,3,132,75.24587082862854,,,,,,,,,,,,,,,,,,,,,,,,,,,,,,,,,,,,,,,,,,,,,,,,,,,,,,,,,,,,,,,,,,,,,,,,,,,,,,,,,84.17993758073709,62.80025897575776,69.15271120015466,64.68441275566079,199.5446376647998,174.21203246198738,2.2,2.21,-160,-272,0,257,215,278,75.23138046264648,75.2314236164093,75.23355174064636,75.24587082862854,75.39608120918274,75.39608120918274,75.39608120918274,75.39608120918274,75.39608120918274,75.39608120918274,75.39608120918274,80.89731049537659,3,5.637286186218262,None,,,,,,,,,,,,,,,,,,56,3,2025-02-19_15h54.31.648,comp,2024.2.4,61.85404153093142,2025-02-19 15h54.40.403345 -0500,
4,4,0,critical,hwd,35.0,4.0,upper,200.0,125.0,125.0,200.0,127.0,127.0,2,10.748637914657593,None,,,,,0,0,0,0,0,4,4,101,80.9128303527832,,,,,,,,,,,,,,,,,,,,,,,,,,,,,,,,,,,,,,,,,,,,,,,,,,,,,,,,,,,,,,,,,,,,,,,,,,,,,,,,,200.0,125.0,125.0,200.0,127.0,127.0,4.0,4.2,-258,-4,0,-261,260,-5,80.89809513092041,80.89892196655273,80.90095043182373,80.9128303527832,81.062814950943,81.062814950943,81.062814950943,81.062814950943,81.062814950943,81.062814950943,81.062814950943,91.66396522521973,2,10.748637914657593,None,,,,,,,,,,,,,,,,,,56,3,2025-02-19_15h54.31.648,comp,2024.2.4,61.85404153093142,2025-02-19 15h54.40.403345 -0500,
5,5,0,critical,hdw,35.0,2.1,upper,200.0,125.0,127.0,127.0,125.0,200.0,3,5.052059173583984,None,,,,,0,0,0,0,0,5,5,21,91.67924880981445,,,,,,,,,,,,,,,,,,,,,,,,,,,,,,,,,,,,,,,,,,,,,,,,,,,,,,,,,,,,,,,,,,,,,,,,,,,,,,,,,200.0,125.0,127.0,127.0,125.0,200.0,2.1,2.12,-222,-284,0,-277,260,289,91.66475868225098,91.66479825973511,91.66689920425415,91.67924880981445,91.82936954498291,91.82936954498291,91.82936954498291,91.82936954498291,91.82936954498291,91.82936954498291,91.82936954498291,96.74710845947266,3,5.052059173583984,None,,,,,,,,,,,,,,,,,,56,3,2025-02-19_15h54.31.648,comp,2024.2.4,61.85404153093142,2025-02-19 15h54.40.403345 -0500,
6,6,0,filler_square,None,None,None,None,None,None,None,None,None,None,1,6.2339372634887695,None,,,,,0,0,0,0,0,6,6,201,96.76228070259094,,,,,,,,,,,,,,,,,,,,,,,,,,,,,,,,,,,,,,,,,,,,,,,,,,,,,,,,,,,,,,,,,,,,,,,,,,,,,,,,,182.12921182606073,182.12921182606073,157.89821748520947,158.60058685765955,124.48485755892116,108.88079134360713,2.2,2.21,-266,-254,0,262,230,260,96.74802684783936,96.74806618690491,96.75031447410583,96.76228070259094,96.91270279884338,96.91270279884338,96.91270279884338,96.91270279884338,96.91270279884338,96.91270279884338,96.91270279884338,102.99734783172607,1,6.2339372634887695,None,,,,,,,,,,,,,,,,,,56,3,2025-02-19_15h54.31.648,comp,2024.2.4,61.85404153093142,2025-02-19 15h54.40.403345 -0500,
7,7,0,filler_square,None,None,None,None,None,None,None,None,None,None,2,5.038408041000366,None,,,,,0,0,0,0,0,7,7,180,103.01262903213501,,,,,,,,,,,,,,,,,,,,,,,,,,,,,,,,,,,,,,,,,,,,,,,,,,,,,,,,,,,,,,,,,,,,,,,,,,,,,,,,,61.002381703235,70.14031365600088,75.46295391367015,75.46295391367015,68.64889828836246,68.1893032632185,1.0,1.2,-169,10,0,15,168,1,102.99840712547302,102.99846363067627,103.00098776817322,103.01262903213501,103.16235780715942,103.16235780715942,103.16235780715942,103.16235780715942,103.16235780715942,103.16235780715942,103.16235780715942,108.06375074386597,2,5.038408041000366,None,,,,,,,,,,,,,,,,,,56,3,2025-02-19_15h54.31.648,comp,2024.2.4,61.85404153093142,2025-02-19 15h54.40.403345 -0500,
8,8,0,critical,whd,20.0,4.0,upper,125.0,200.0,200.0,125.0,141.0,141.0,1,10.58316969871521,None,,,,,0,0,0,0,0,8,8,95,108.07879376411438,,,,,,,,,,,,,,,,,,,,,,,,,,,,,,,,,,,,,,,,,,,,,,,,,,,,,,,,,,,,,,,,,,,,,,,,,,,,,,,,,125.0,200.0,200.0,125.0,141.0,141.0,4.0,4.1,-258,-273,0,1,229,-261,108.064528465271,108.06456899642944,108.06696796417236,108.07879376411438,108.22929310798645,108.22929310798645,108.22929310798645,108.22929310798645,108.22929310798645,108.22929310798645,108.22929310798645,118.68036150932312,1,10.58316969871521,None,,,,,,,,,,,,,,,,,,56,3,2025-02-19_15h54.31.648,comp,2024.2.4,61.85404153093142,2025-02-19 15h54.40.403345 -0500,
9,9,0,filler_square,None,None,None,None,None,None,None,None,None,None,1,6.244023323059082,None,,,,,0,0,0,0,0,9,9,174,118.69564938545227,,,,,,,,,,,,,,,,,,,,,,,,,,,,,,,,,,,,,,,,,,,,,,,,,,,,,,,,,,,,,,,,,,,,,,,,,,,,,,,,,163.58575057753433,163.58575057753433,57.89999527524226,116.92685312355806,89.51331062859263,142.87224930016754,2.2,2.22,-236,267,0,-259,226,-259,118.6813292503357,118.68137001991272,118.6834454536438,118.69564938545227,118.84573221206665,118.84573221206665,118.84573221206665,118.84573221206665,118.84573221206665,118.84573221206665,118.84573221206665,124.94675207138062,1,6.244023323059082,None,,,,,,,,,,,,,,,,,,56,3,2025-02-19_15h54.31.648,comp,2024.2.4,61.85404153093142,2025-02-19 15h54.40.403345 -0500,
10,10,0,critical,dwh,20.0,2.1,upper,141.0,141.0,125.0,200.0,200.0,125.0,2,3.9682881832122803,None,,,,,0,0,0,0,0,10,10,31,124.96276617050171,,,,,,,,,,,,,,,,,,,,,,,,,,,,,,,,,,,,,,,,,,,,,,,,,,,,,,,,,,,,,,,,,,,,,,,,,,,,,,,,,141.0,141.0,125.0,200.0,200.0,125.0,2.1,2.12,-266,-262,0,-255,258,281,124.9475646018982,124.94760751724243,124.94972968101501,124.96276617050171,125.11260485649109,125.11260485649109,125.11260485649109,125.11260485649109,125.11260485649109,125.11260485649109,125.11260485649109,128.94686937332153,2,3.9682881832122803,None,,,,,,,,,,,,,,,,,,56,3,2025-02-19_15h54.31.648,comp,2024.2.4,61.85404153093142,2025-02-19 15h54.40.403345 -0500,
11,11,0,filler_random,None,None,None,None,None,None,None,None,None,None,1,3.5526328086853027,None,,,,,0,0,0,0,0,11,11,139,128.96216559410095,,,,,,,,,,,,,,,,,,,,,,,,,,,,,,,,,,,,,,,,,,,,,,,,,,,,,,,,,,,,,,,,,,,,,,,,,,,,,,,,,195.42564804424384,149.55482091896286,82.54055003245492,176.1115260946828,159.95890781425612,116.0646264845441,4.0,4.2,-259,-3,0,-263,242,3,128.94777417182922,128.9478166103363,128.95034170150757,128.96216559410095,129.11242985725403,129.11242985725403,129.11242985725403,129.11242985725403,129.11242985725403,129.11242985725403,129.11242985725403,132.53014492988586,1,3.5526328086853027,None,,,,,,,,,,,,,,,,,,56,3,2025-02-19_15h54.31.648,comp,2024.2.4,61.85404153093142,2025-02-19 15h54.40.403345 -0500,
12,12,0,critical,dwh,20.0,4.0,upper,141.0,141.0,125.0,200.0,200.0,125.0,2,7.001484394073486,None,,,,,0,0,0,0,0,12,12,71,132.54539704322815,,,,,,,,,,,,,,,,,,,,,,,,,,,,,,,,,,,,,,,,,,,,,,,,,,,,,,,,,,,,,,,,,,,,,,,,,,,,,,,,,141.0,141.0,125.0,200.0,200.0,125.0,4.0,4.2,-266,-16,0,-256,258,8,132.53094458580017,132.53098559379578,132.53328680992126,132.54539704322815,132.69580388069153,132.69580388069153,132.69580388069153,132.69580388069153,132.69580388069153,132.69580388069153,132.69580388069153,139.56349968910217,2,7.001484394073486,None,,,,,,,,,,,,,,,,,,56,3,2025-02-19_15h54.31.648,comp,2024.2.4,61.85404153093142,2025-02-19 15h54.40.403345 -0500,
13,13,0,critical,wdh,20.0,3.0,upper,125.0,200.0,141.0,141.0,200.0,125.0,1,13.671921730041504,None,,,,,0,0,0,0,0,13,13,81,139.5787272453308,,,,,,,,,,,,,,,,,,,,,,,,,,,,,,,,,,,,,,,,,,,,,,,,,,,,,,,,,,,,,,,,,,,,,,,,,,,,,,,,,125.0,200.0,141.0,141.0,200.0,125.0,3.0,3.2,-266,-288,0,12,229,256,139.56428337097168,139.5643219947815,139.56668257713318,139.5787272453308,139.72904539108276,139.72904539108276,139.72904539108276,139.72904539108276,139.72904539108276,139.72904539108276,139.72904539108276,153.26355361938477,1,13.671921730041504,None,,,,,,,,,,,,,,,,,,56,3,2025-02-19_15h54.31.648,comp,2024.2.4,61.85404153093142,2025-02-19 15h54.40.403345 -0500,
14,14,0,filler_square,None,None,None,None,None,None,None,None,None,None,1,2.3413612842559814,None,,,,,0,0,0,0,0,14,14,172,153.27869606018066,,,,,,,,,,,,,,,,,,,,,,,,,,,,,,,,,,,,,,,,,,,,,,,,,,,,,,,,,,,,,,,,,,,,,,,,,,,,,,,,,86.56184138177487,86.56184138177487,61.48103601872252,69.26961783295287,65.85183363660282,70.09838628128752,3.0,3.2,-174,-269,0,12,166,271,153.2645401954651,153.26458096504211,153.26693415641785,153.27869606018066,153.42870807647705,153.42870807647705,153.42870807647705,153.42870807647705,153.42870807647705,153.42870807647705,153.42870807647705,155.62976169586182,1,2.3413612842559814,None,,,,,,,,,,,,,,,,,,56,3,2025-02-19_15h54.31.648,comp,2024.2.4,61.85404153093142,2025-02-19 15h54.40.403345 -0500,
15,15,0,critical,wdh,35.0,3.0,lower,57.0,133.0,70.0,70.0,133.0,57.0,1,6.0210981369018555,None,,,,,0,0,0,0,0,15,15,74,155.6456036567688,,,,,,,,,,,,,,,,,,,,,,,,,,,,,,,,,,,,,,,,,,,,,,,,,,,,,,,,,,,,,,,,,,,,,,,,,,,,,,,,,57.0,133.0,70.0,70.0,133.0,57.0,3.0,3.2,-198,-258,0,-7,160,273,155.63053369522095,155.63057374954224,155.6329905986786,155.6456036567688,155.79536962509155,155.79536962509155,155.79536962509155,155.79536962509155,155.79536962509155,155.79536962509155,155.79536962509155,161.67988228797913,1,6.0210981369018555,None,,,,,,,,,,,,,,,,,,56,3,2025-02-19_15h54.31.648,comp,2024.2.4,61.85404153093142,2025-02-19 15h54.40.403345 -0500,
16,16,0,critical,dhw,20.0,4.0,lower,78.0,78.0,133.0,57.0,57.0,133.0,3,5.643493175506592,None,,,,,0,0,0,0,0,16,16,58,161.69591903686523,,,,,,,,,,,,,,,,,,,,,,,,,,,,,,,,,,,,,,,,,,,,,,,,,,,,,,,,,,,,,,,,,,,,,,,,,,,,,,,,,78.0,78.0,133.0,57.0,57.0,133.0,4.0,4.2,-164,-13,0,-265,191,10,161.68066692352295,161.68070602416992,161.68324637413025,161.69591903686523,161.84527969360352,161.84527969360352,161.84527969360352,161.84527969360352,161.84527969360352,161.84527969360352,161.84527969360352,167.34640264511108,3,5.643493175506592,None,,,,,,,,,,,,,,,,,,56,3,2025-02-19_15h54.31.648,comp,2024.2.4,61.85404153093142,2025-02-19 15h54.40.403345 -0500,
17,17,0,critical,hwd,35.0,4.0,lower,133.0,57.0,57.0,133.0,70.0,70.0,2,6.393229007720947,None,,,,,0,0,0,0,0,17,17,100,167.36212706565857,,,,,,,,,,,,,,,,,,,,,,,,,,,,,,,,,,,,,,,,,,,,,,,,,,,,,,,,,,,,,,,,,,,,,,,,,,,,,,,,,133.0,57.0,57.0,133.0,70.0,70.0,4.0,4.1,-191,-275,0,2,198,-256,167.347181558609,167.34722471237183,167.34932470321655,167.36212706565857,167.511892080307,167.511892080307,167.511892080307,167.511892080307,167.511892080307,167.511892080307,167.511892080307,173.76309323310852,2,6.393229007720947,None,,,,,,,,,,,,,,,,,,56,3,2025-02-19_15h54.31.648,comp,2024.2.4,61.85404153093142,2025-02-19 15h54.40.403345 -0500,
18,18,0,filler_square,None,None,None,None,None,None,None,None,None,None,1,3.64103627204895,None,,,,,0,0,0,0,0,18,18,202,173.77878379821777,,,,,,,,,,,,,,,,,,,,,,,,,,,,,,,,,,,,,,,,,,,,,,,,,,,,,,,,,,,,,,,,,,,,,,,,,,,,,,,,,159.21981165740118,159.21981165740118,134.05328836041195,82.09729518730013,113.54601564702656,143.37408224519848,2.1,2.12,-217,-259,0,-272,209,272,173.76404976844788,173.76408982276917,173.76629424095154,173.77878379821777,173.9288294315338,173.9288294315338,173.9288294315338,173.9288294315338,173.9288294315338,173.9288294315338,173.9288294315338,177.42978239059448,1,3.64103627204895,None,,,,,,,,,,,,,,,,,,56,3,2025-02-19_15h54.31.648,comp,2024.2.4,61.85404153093142,2025-02-19 15h54.40.403345 -0500,
19,19,0,filler_random,None,None,None,None,None,None,None,None,None,None,2,2.389068841934204,None,,,,,0,0,0,0,0,19,19,159,177.44543194770813,,,,,,,,,,,,,,,,,,,,,,,,,,,,,,,,,,,,,,,,,,,,,,,,,,,,,,,,,,,,,,,,,,,,,,,,,,,,,,,,,71.56507431108045,121.41303424390651,130.97290582742818,178.5804613788032,123.47259250933247,145.73654349922748,4.0,4.1,-246,-268,0,-9,258,-267,177.43070888519287,177.4307520389557,177.43319249153137,177.44543194770813,177.59537196159363,177.59537196159363,177.59537196159363,177.59537196159363,177.59537196159363,177.59537196159363,177.59537196159363,179.8466420173645,2,2.389068841934204,None,,,,,,,,,,,,,,,,,,56,3,2025-02-19_15h54.31.648,comp,2024.2.4,61.85404153093142,2025-02-19 15h54.40.403345 -0500,
20,20,0,filler_square,None,None,None,None,None,None,None,None,None,None,3,3.7579329013824463,None,,,,,0,0,0,0,0,20,20,171,179.86183047294617,,,,,,,,,,,,,,,,,,,,,,,,,,,,,,,,,,,,,,,,,,,,,,,,,,,,,,,,,,,,,,,,,,,,,,,,,,,,,,,,,125.76069226509556,111.33150255316005,111.60463686469743,95.68924083284867,126.65731225450979,126.65731225450979,3.0,3.2,-200,-266,0,10,207,273,179.84762334823608,179.84766507148743,179.8501193523407,179.86183047294617,180.01198601722717,180.01198601722717,180.01198601722717,180.01198601722717,180.01198601722717,180.01198601722717,180.01198601722717,183.62979745864868,3,3.7579329013824463,None,,,,,,,,,,,,,,,,,,56,3,2025-02-19_15h54.31.648,comp,2024.2.4,61.85404153093142,2025-02-19 15h54.40.403345 -0500,
21,21,0,critical,hdw,20.0,3.0,lower,133.0,57.0,78.0,78.0,57.0,133.0,3,7.061817169189453,None,,,,,0,0,0,0,0,21,21,116,183.64544081687927,,,,,,,,,,,,,,,,,,,,,,,,,,,,,,,,,,,,,,,,,,,,,,,,,,,,,,,,,,,,,,,,,,,,,,,,,,,,,,,,,133.0,57.0,78.0,78.0,57.0,133.0,3.0,3.1,-164,272,0,-12,202,-269,183.63061141967773,183.63065218925476,183.6327681541443,183.64544081687927,183.79518461227417,183.79518461227417,183.79518461227417,183.79518461227417,183.79518461227417,183.79518461227417,183.79518461227417,190.71288323402405,3,7.061817169189453,None,,,,,,,,,,,,,,,,,,56,3,2025-02-19_15h54.31.648,comp,2024.2.4,61.85404153093142,2025-02-19 15h54.40.403345 -0500,
22,22,0,critical,dwh,35.0,2.1,lower,70.0,70.0,57.0,133.0,133.0,57.0,2,6.266724586486816,None,,,,,0,0,0,0,0,22,22,28,190.72863101959229,,,,,,,,,,,,,,,,,,,,,,,,,,,,,,,,,,,,,,,,,,,,,,,,,,,,,,,,,,,,,,,,,,,,,,,,,,,,,,,,,70.0,70.0,57.0,133.0,133.0,57.0,2.1,2.11,-198,264,0,277,191,-271,190.7136721611023,190.71371340751648,190.71618747711182,190.72863101959229,190.87843942642212,190.87843942642212,190.87843942642212,190.87843942642212,190.87843942642212,190.87843942642212,190.87843942642212,196.99648022651672,2,6.266724586486816,None,,,,,,,,,,,,,,,,,,56,3,2025-02-19_15h54.31.648,comp,2024.2.4,61.85404153093142,2025-02-19 15h54.40.403345 -0500,
23,23,0,critical,whd,35.0,4.0,upper,125.0,200.0,200.0,125.0,127.0,127.0,2,10.511266469955444,None,,,,,0,0,0,0,0,23,23,89,197.0119149684906,,,,,,,,,,,,,,,,,,,,,,,,,,,,,,,,,,,,,,,,,,,,,,,,,,,,,,,,,,,,,,,,,,,,,,,,,,,,,,,,,125.0,200.0,200.0,125.0,127.0,127.0,4.0,4.2,-258,-2,0,-276,222,18,196.99726796150208,196.997332572937,196.99991703033447,197.0119149684906,197.16197848320007,197.16197848320007,197.16197848320007,197.16197848320007,197.16197848320007,197.16197848320007,197.16197848320007,207.5296220779419,2,10.511266469955444,None,,,,,,,,,,,,,,,,,,56,3,2025-02-19_15h54.31.648,comp,2024.2.4,61.85404153093142,2025-02-19 15h54.40.403345 -0500,
24,24,0,catch,None,None,None,None,None,None,None,None,None,None,1,2.593897819519043,None,,,,,0,0,0,0,0,24,24,121,207.5452778339386,,,,,,,,,,,,,,,,,,,,,,,,,,,,,,,,,,,,,,,,,,,,,,,,,,,,,,,,,,,,,,,,,,,,,,,,,,,,,,,,,140,185,77,113,58,132,2.1,2.12,-245,-258,0,-290,218,281,207.5306842327118,207.53072595596313,207.53320956230164,207.5452778339386,207.69520235061646,207.69520235061646,207.69520235061646,207.69520235061646,207.69520235061646,207.69520235061646,207.69520235061646,210.14619088172913,1,2.593897819519043,None,,,,,,,,,,,,,,,,,,56,3,2025-02-19_15h54.31.648,comp,2024.2.4,61.85404153093142,2025-02-19 15h54.40.403345 -0500,
25,25,0,filler_square,None,None,None,None,None,None,None,None,None,None,1,2.9686050415039062,None,,,,,0,0,0,0,0,25,25,209,210.16184091567993,,,,,,,,,,,,,,,,,,,,,,,,,,,,,,,,,,,,,,,,,,,,,,,,,,,,,,,,,,,,,,,,,,,,,,,,,,,,,,,,,150.13859062510613,132.1021961590725,150.27870054796048,150.27870054796048,120.45410292118488,62.243195075165644,2.2,2.21,-237,-285,0,266,202,252,210.1471312046051,210.14718198776245,210.14930653572083,210.16184091567993,210.31186938285828,210.31186938285828,210.31186938285828,210.31186938285828,210.31186938285828,210.31186938285828,210.31186938285828,213.14626264572144,1,2.9686050415039062,None,,,,,,,,,,,,,,,,,,56,3,2025-02-19_15h54.31.648,comp,2024.2.4,61.85404153093142,2025-02-19 15h54.40.403345 -0500,
26,26,0,catch,None,None,None,None,None,None,None,None,None,None,1,3.5935535430908203,None,,,,,0,0,0,0,0,26,26,129,213.16161036491394,,,,,,,,,,,,,,,,,,,,,,,,,,,,,,,,,,,,,,,,,,,,,,,,,,,,,,,,,,,,,,,,,,,,,,,,,,,,,,,,,173,152,133,57,119,71,4.0,4.1,-200,-271,0,-12,160,-285,213.14733958244324,213.14738249778748,213.14952397346497,213.16161036491394,213.31193256378174,213.31193256378174,213.31193256378174,213.31193256378174,213.31193256378174,213.31193256378174,213.31193256378174,216.76296758651733,1,3.5935535430908203,None,,,,,,,,,,,,,,,,,,56,3,2025-02-19_15h54.31.648,comp,2024.2.4,61.85404153093142,2025-02-19 15h54.40.403345 -0500,
27,27,0,filler_random,None,None,None,None,None,None,None,None,None,None,1,1.800110101699829,None,,,,,0,0,0,0,0,27,27,163,216.77855706214905,,,,,,,,,,,,,,,,,,,,,,,,,,,,,,,,,,,,,,,,,,,,,,,,,,,,,,,,,,,,,,,,,,,,,,,,,,,,,,,,,123.91727622926416,157.09579576111713,72.62102061979121,157.46504834025342,91.19823367276439,75.02076672639232,4.0,4.1,-253,-280,0,-18,212,-250,216.76388001441956,216.7639217376709,216.76639318466187,216.77855706214905,216.9284267425537,216.9284267425537,216.9284267425537,216.9284267425537,216.9284267425537,216.9284267425537,216.9284267425537,218.59604382514954,1,1.800110101699829,None,,,,,,,,,,,,,,,,,,56,3,2025-02-19_15h54.31.648,comp,2024.2.4,61.85404153093142,2025-02-19 15h54.40.403345 -0500,
28,28,0,critical,dwh,35.0,1.0,lower,70.0,70.0,57.0,133.0,133.0,57.0,2,4.1915576457977295,None,,,,,0,0,0,0,0,28,28,60,218.61146235466003,,,,,,,,,,,,,,,,,,,,,,,,,,,,,,,,,,,,,,,,,,,,,,,,,,,,,,,,,,,,,,,,,,,,,,,,,,,,,,,,,70.0,70.0,57.0,133.0,133.0,57.0,1.0,1.1,-678,261,-480,265,-289,274,218.59680724143982,218.59684491157532,218.59880709648132,218.61146235466003,218.76166105270386,218.76166105270386,218.76166105270386,218.76166105270386,218.76166105270386,218.76166105270386,218.76166105270386,222.8127760887146,2,4.1915576457977295,None,,,,,,,,,,,,,,,,,,56,3,2025-02-19_15h54.31.648,comp,2024.2.4,61.85404153093142,2025-02-19 15h54.40.403345 -0500,
29,29,0,filler_random,None,None,None,None,None,None,None,None,None,None,2,2.1019580364227295,None,,,,,0,0,0,0,0,29,29,162,222.82845854759216,,,,,,,,,,,,,,,,,,,,,,,,,,,,,,,,,,,,,,,,,,,,,,,,,,,,,,,,,,,,,,,,,,,,,,,,,,,,,,,,,126.33180687538218,123.35578991324405,177.09482885351377,131.62245187896502,116.43275114499382,135.40692076268928,2.2,2.22,-223,278,0,-268,230,-251,222.81369400024414,222.81373643875122,222.81617140769958,222.82845854759216,222.97869992256165,222.97869992256165,222.97869992256165,222.97869992256165,222.97869992256165,222.97869992256165,222.97869992256165,224.94618844985962,2,2.1019580364227295,None,,,,,,,,,,,,,,,,,,56,3,2025-02-19_15h54.31.648,comp,2024.2.4,61.85404153093142,2025-02-19 15h54.40.403345 -0500,
30,30,0,filler_random,None,None,None,None,None,None,None,None,None,None,1,2.345651865005493,None,,,,,0,0,0,0,0,30,30,165,224.9613721370697,,,,,,,,,,,,,,,,,,,,,,,,,,,,,,,,,,,,,,,,,,,,,,,,,,,,,,,,,,,,,,,,,,,,,,,,,,,,,,,,,160.10934959646696,147.48991151877766,147.1868254128588,149.23988430577612,96.65851954084728,175.6018478681719,3.0,3.2,-244,-256,0,5,258,282,224.94707322120667,224.94711327552795,224.9494206905365,224.9613721370697,225.1118242740631,225.1118242740631,225.1118242740631,225.1118242740631,225.1118242740631,225.1118242740631,225.1118242740631,227.31290125846863,1,2.345651865005493,None,,,,,,,,,,,,,,,,,,56,3,2025-02-19_15h54.31.648,comp,2024.2.4,61.85404153093142,2025-02-19 15h54.40.403345 -0500,
31,31,0,filler_square,None,None,None,None,None,None,None,None,None,None,3,3.4426887035369873,None,,,,,0,0,0,0,0,31,31,177,227.3283314704895,,,,,,,,,,,,,,,,,,,,,,,,,,,,,,,,,,,,,,,,,,,,,,,,,,,,,,,,,,,,,,,,,,,,,,,,,,,,,,,,,59.49558566175267,91.98408683028245,62.70605826219637,73.02516599933875,94.99565909007543,94.99565909007543,1.0,1.3,301,-261,480,-271,660,-285,227.3138189315796,227.31385850906372,227.31641936302185,227.3283314704895,227.4782145023346,227.4782145023346,227.4782145023346,227.4782145023346,227.4782145023346,227.4782145023346,227.4782145023346,230.7792890071869,3,3.4426887035369873,None,,,,,,,,,,,,,,,,,,56,3,2025-02-19_15h54.31.648,comp,2024.2.4,61.85404153093142,2025-02-19 15h54.40.403345 -0500,
32,32,0,filler_square,None,None,None,None,None,None,None,None,None,None,1,1.7122268676757812,None,,,,,0,0,0,0,0,32,32,173,230.79503679275513,,,,,,,,,,,,,,,,,,,,,,,,,,,,,,,,,,,,,,,,,,,,,,,,,,,,,,,,,,,,,,,,,,,,,,,,,,,,,,,,,117.0841719559588,117.0841719559588,65.37337969481457,82.7702514436231,70.26608040180463,71.13650229658523,1.0,1.3,284,-279,480,-283,653,-269,230.78026580810547,230.7803077697754,230.78272032737732,230.79503679275513,230.9448754787445,230.9448754787445,230.9448754787445,230.9448754787445,230.9448754787445,230.9448754787445,230.9448754787445,232.51269507408142,1,1.7122268676757812,None,,,,,,,,,,,,,,,,,,56,3,2025-02-19_15h54.31.648,comp,2024.2.4,61.85404153093142,2025-02-19 15h54.40.403345 -0500,
33,33,0,filler_square,None,None,None,None,None,None,None,None,None,None,2,1.6504440307617188,None,,,,,0,0,0,0,0,33,33,206,232.5283842086792,,,,,,,,,,,,,,,,,,,,,,,,,,,,,,,,,,,,,,,,,,,,,,,,,,,,,,,,,,,,,,,,,,,,,,,,,,,,,,,,,67.24779246398799,82.67240817346001,151.06936641680085,151.06936641680085,94.9158122428789,128.794986277219,2.1,2.11,-213,283,0,278,236,-269,232.51366090774536,232.51370286941528,232.51613092422485,232.5283842086792,232.678484916687,232.678484916687,232.678484916687,232.678484916687,232.678484916687,232.678484916687,232.678484916687,234.19608974456787,2,1.6504440307617188,None,,,,,,,,,,,,,,,,,,56,3,2025-02-19_15h54.31.648,comp,2024.2.4,61.85404153093142,2025-02-19 15h54.40.403345 -0500,
34,34,0,critical,hwd,20.0,2.1,upper,200.0,125.0,125.0,200.0,141.0,141.0,1,4.849210977554321,None,,,,,0,0,0,0,0,34,34,43,234.2113642692566,,,,,,,,,,,,,,,,,,,,,,,,,,,,,,,,,,,,,,,,,,,,,,,,,,,,,,,,,,,,,,,,,,,,,,,,,,,,,,,,,200.0,125.0,125.0,200.0,141.0,141.0,2.1,2.12,-258,-274,0,-277,266,278,234.19688177108765,234.1969223022461,234.19895911216736,234.2113642692566,234.36185503005981,234.36185503005981,234.36185503005981,234.36185503005981,234.36185503005981,234.36185503005981,234.36185503005981,239.062983751297,1,4.849210977554321,None,,,,,,,,,,,,,,,,,,56,3,2025-02-19_15h54.31.648,comp,2024.2.4,61.85404153093142,2025-02-19 15h54.40.403345 -0500,
35,35,0,critical,dhw,20.0,1.0,upper,141.0,141.0,200.0,125.0,125.0,200.0,3,7.076611757278442,None,,,,,0,0,0,0,0,35,35,55,239.07826447486877,,,,,,,,,,,,,,,,,,,,,,,,,,,,,,,,,,,,,,,,,,,,,,,,,,,,,,,,,,,,,,,,,,,,,,,,,,,,,,,,,141.0,141.0,200.0,125.0,125.0,200.0,1.0,1.1,-709,280,-480,274,-222,265,239.06378197669983,239.06382203102112,239.06588339805603,239.07826447486877,239.22840332984924,239.22840332984924,239.22840332984924,239.22840332984924,239.22840332984924,239.22840332984924,239.22840332984924,246.16267204284668,3,7.076611757278442,None,,,,,,,,,,,,,,,,,,56,3,2025-02-19_15h54.31.648,comp,2024.2.4,61.85404153093142,2025-02-19 15h54.40.403345 -0500,
36,36,0,critical,dhw,20.0,2.1,lower,78.0,78.0,133.0,57.0,57.0,133.0,2,2.616431951522827,None,,,,,0,0,0,0,0,36,36,2,246.1785945892334,,,,,,,,,,,,,,,,,,,,,,,,,,,,,,,,,,,,,,,,,,,,,,,,,,,,,,,,,,,,,,,,,,,,,,,,,,,,,,,,,78.0,78.0,133.0,57.0,57.0,133.0,2.1,2.12,-164,-272,0,-255,191,274,246.16346549987793,246.16350650787354,246.16564297676086,246.1785945892334,246.32817029953003,246.32817029953003,246.32817029953003,246.32817029953003,246.32817029953003,246.32817029953003,246.32817029953003,248.79614973068237,2,2.616431951522827,None,,,,,,,,,,,,,,,,,,56,3,2025-02-19_15h54.31.648,comp,2024.2.4,61.85404153093142,2025-02-19 15h54.40.403345 -0500,
37,37,0,filler_random,None,None,None,None,None,None,None,None,None,None,1,3.7593069076538086,None,,,,,0,0,0,0,0,37,37,164,248.81156945228577,,,,,,,,,,,,,,,,,,,,,,,,,,,,,,,,,,,,,,,,,,,,,,,,,,,,,,,,,,,,,,,,,,,,,,,,,,,,,,,,,168.95408950178654,154.88647408566192,146.50001748282935,84.5253395212583,123.05099338062023,175.18009803387304,1.0,1.2,-216,-12,0,-19,226,1,248.79701948165894,248.79706025123596,248.79959344863892,248.81156945228577,248.96155285835266,248.96155285835266,248.96155285835266,248.96155285835266,248.96155285835266,248.96155285835266,248.96155285835266,252.5793924331665,1,3.7593069076538086,None,,,,,,,,,,,,,,,,,,56,3,2025-02-19_15h54.31.648,comp,2024.2.4,61.85404153093142,2025-02-19 15h54.40.403345 -0500,
38,38,0,critical,dhw,20.0,2.1,upper,141.0,141.0,200.0,125.0,125.0,200.0,3,2.296632766723633,None,,,,,0,0,0,0,0,38,38,3,252.5948188304901,,,,,,,,,,,,,,,,,,,,,,,,,,,,,,,,,,,,,,,,,,,,,,,,,,,,,,,,,,,,,,,,,,,,,,,,,,,,,,,,,141.0,141.0,200.0,125.0,125.0,200.0,2.1,2.12,-229,-285,0,-270,258,258,252.58017373085022,252.58021354675293,252.58257961273193,252.5948188304901,252.74500679969788,252.74500679969788,252.74500679969788,252.74500679969788,252.74500679969788,252.74500679969788,252.74500679969788,254.8962950706482,3,2.296632766723633,None,,,,,,,,,,,,,,,,,,56,3,2025-02-19_15h54.31.648,comp,2024.2.4,61.85404153093142,2025-02-19 15h54.40.403345 -0500,
39,39,0,filler_random,None,None,None,None,None,None,None,None,None,None,2,6.395155906677246,None,,,,,0,0,0,0,0,39,39,152,254.9115960597992,,,,,,,,,,,,,,,,,,,,,,,,,,,,,,,,,,,,,,,,,,,,,,,,,,,,,,,,,,,,,,,,,,,,,,,,,,,,,,,,,157.41371065917753,72.87582711843896,198.56643188845027,113.64713467963128,65.18407319039676,145.1180641571386,1.0,1.1,-669,270,-480,272,-255,278,254.89720726013184,254.89724683761597,254.89927673339844,254.9115960597992,255.0614469051361,255.0614469051361,255.0614469051361,255.0614469051361,255.0614469051361,255.0614469051361,255.0614469051361,261.31256437301636,2,6.395155906677246,None,,,,,,,,,,,,,,,,,,56,3,2025-02-19_15h54.31.648,comp,2024.2.4,61.85404153093142,2025-02-19 15h54.40.403345 -0500,
40,40,0,critical,hdw,20.0,3.0,upper,200.0,125.0,141.0,141.0,125.0,200.0,3,3.6108527183532715,None,,,,,0,0,0,0,0,40,40,117,261.3281309604645,,,,,,,,,,,,,,,,,,,,,,,,,,,,,,,,,,,,,,,,,,,,,,,,,,,,,,,,,,,,,,,,,,,,,,,,,,,,,,,,,200.0,125.0,141.0,141.0,125.0,200.0,3.0,3.2,-229,-261,0,-12,266,267,261.31333327293396,261.3133749961853,261.31569623947144,261.3281309604645,261.4781930446625,261.4781930446625,261.4781930446625,261.4781930446625,261.4781930446625,261.4781930446625,261.4781930446625,264.9461500644684,3,3.6108527183532715,None,,,,,,,,,,,,,,,,,,56,3,2025-02-19_15h54.31.648,comp,2024.2.4,61.85404153093142,2025-02-19 15h54.40.403345 -0500,
41,41,0,critical,hwd,20.0,2.1,upper,200.0,125.0,125.0,200.0,141.0,141.0,3,10.936516284942627,None,,,,,0,0,0,0,0,41,41,19,264.9615333080292,,,,,,,,,,,,,,,,,,,,,,,,,,,,,,,,,,,,,,,,,,,,,,,,,,,,,,,,,,,,,,,,,,,,,,,,,,,,,,,,,200.0,125.0,125.0,200.0,141.0,141.0,2.1,2.12,-258,-267,0,-276,266,272,264.9469630718231,264.9470040798187,264.94913029670715,264.9615333080292,265.11151146888733,265.11151146888733,265.11151146888733,265.11151146888733,265.11151146888733,265.11151146888733,265.11151146888733,275.91259241104126,3,10.936516284942627,None,,,,,,,,,,,,,,,,,,56,3,2025-02-19_15h54.31.648,comp,2024.2.4,61.85404153093142,2025-02-19 15h54.40.403345 -0500,
42,42,0,critical,hwd,20.0,2.1,lower,133.0,57.0,57.0,133.0,78.0,78.0,3,3.858915328979492,None,,,,,0,0,0,0,0,42,42,18,275.92780208587646,,,,,,,,,,,,,,,,,,,,,,,,,,,,,,,,,,,,,,,,,,,,,,,,,,,,,,,,,,,,,,,,,,,,,,,,,,,,,,,,,133.0,57.0,57.0,133.0,78.0,78.0,2.1,2.12,-191,-268,0,-277,202,262,275.91338562965393,275.91342520713806,275.91581535339355,275.92780208587646,276.07787704467773,276.07787704467773,276.07787704467773,276.07787704467773,276.07787704467773,276.07787704467773,276.07787704467773,279.79560923576355,3,3.858915328979492,None,,,,,,,,,,,,,,,,,,56,3,2025-02-19_15h54.31.648,comp,2024.2.4,61.85404153093142,2025-02-19 15h54.40.403345 -0500,
43,43,0,filler_square,None,None,None,None,None,None,None,None,None,None,3,2.2544875144958496,None,,,,,0,0,0,0,0,43,43,192,279.8113796710968,,,,,,,,,,,,,,,,,,,,,,,,,,,,,,,,,,,,,,,,,,,,,,,,,,,,,,,,,,,,,,,,,,,,,,,,,,,,,,,,,101.96627002888495,132.39734084296617,73.92438237673781,69.62016431190544,145.60503775314064,145.60503775314064,2.2,2.21,-197,-280,0,252,204,268,279.7965934276581,279.7966344356537,279.7987720966339,279.8113796710968,279.96134877204895,279.96134877204895,279.96134877204895,279.96134877204895,279.96134877204895,279.96134877204895,279.96134877204895,282.07908844947815,3,2.2544875144958496,None,,,,,,,,,,,,,,,,,,56,3,2025-02-19_15h54.31.648,comp,2024.2.4,61.85404153093142,2025-02-19 15h54.40.403345 -0500,
44,44,0,critical,wdh,35.0,2.1,upper,125.0,200.0,127.0,127.0,200.0,125.0,1,1.9006476402282715,None,,,,,0,0,0,0,0,44,44,33,282.09436678886414,,,,,,,,,,,,,,,,,,,,,,,,,,,,,,,,,,,,,,,,,,,,,,,,,,,,,,,,,,,,,,,,,,,,,,,,,,,,,,,,,125.0,200.0,127.0,127.0,200.0,125.0,2.1,2.12,-260,-290,0,-287,222,268,282.0799067020416,282.07994747161865,282.0820097923279,282.09436678886414,282.2447738647461,282.2447738647461,282.2447738647461,282.2447738647461,282.2447738647461,282.2447738647461,282.2447738647461,284.012494802475,1,1.9006476402282715,None,,,,,,,,,,,,,,,,,,56,3,2025-02-19_15h54.31.648,comp,2024.2.4,61.85404153093142,2025-02-19 15h54.40.403345 -0500,
45,45,0,filler_square,None,None,None,None,None,None,None,None,None,None,3,5.57513427734375,None,,,,,0,0,0,0,0,45,45,188,284.0277826786041,,,,,,,,,,,,,,,,,,,,,,,,,,,,,,,,,,,,,,,,,,,,,,,,,,,,,,,,,,,,,,,,,,,,,,,,,,,,,,,,,57.0172807326801,57.403340597209684,57.60898755992374,57.60898755992374,57.42127301804123,57.37610338275745,2.1,2.12,-154,-268,0,-288,153,261,284.0134379863739,284.0134780406952,284.01586866378784,284.0277826786041,284.17781615257263,284.17781615257263,284.17781615257263,284.17781615257263,284.17781615257263,284.17781615257263,284.17781615257263,289.6121971607208,3,5.57513427734375,None,,,,,,,,,,,,,,,,,,56,3,2025-02-19_15h54.31.648,comp,2024.2.4,61.85404153093142,2025-02-19 15h54.40.403345 -0500,
46,46,0,critical,dhw,35.0,3.0,lower,70.0,70.0,133.0,57.0,57.0,133.0,3,2.990922451019287,None,,,,,0,0,0,0,0,46,46,50,289.62806963920593,,,,,,,,,,,,,,,,,,,,,,,,,,,,,,,,,,,,,,,,,,,,,,,,,,,,,,,,,,,,,,,,,,,,,,,,,,,,,,,,,70.0,70.0,133.0,57.0,57.0,133.0,3.0,3.1,-160,250,0,19,191,-279,289.612979888916,289.6130220890045,289.6151051521301,289.62806963920593,289.7777919769287,289.7777919769287,289.7777919769287,289.7777919769287,289.7777919769287,289.7777919769287,289.7777919769287,292.62889766693115,3,2.990922451019287,None,,,,,,,,,,,,,,,,,,56,3,2025-02-19_15h54.31.648,comp,2024.2.4,61.85404153093142,2025-02-19 15h54.40.403345 -0500,
47,47,0,critical,hdw,35.0,4.0,upper,200.0,125.0,127.0,127.0,125.0,200.0,1,7.588930606842041,None,,,,,0,0,0,0,0,47,47,113,292.6447241306305,,,,,,,,,,,,,,,,,,,,,,,,,,,,,,,,,,,,,,,,,,,,,,,,,,,,,,,,,,,,,,,,,,,,,,,,,,,,,,,,,200.0,125.0,127.0,127.0,125.0,200.0,4.0,4.1,-222,-281,0,12,260,-275,292.62971925735474,292.62976121902466,292.6319525241852,292.6447241306305,292.7946834564209,292.7946834564209,292.7946834564209,292.7946834564209,292.7946834564209,292.7946834564209,292.7946834564209,300.2459166049957,1,7.588930606842041,None,,,,,,,,,,,,,,,,,,56,3,2025-02-19_15h54.31.648,comp,2024.2.4,61.85404153093142,2025-02-19 15h54.40.403345 -0500,
48,48,0,critical,hdw,20.0,2.1,lower,133.0,57.0,78.0,78.0,57.0,133.0,3,2.783371925354004,None,,,,,0,0,0,0,0,48,48,46,300.2610559463501,,,,,,,,,,,,,,,,,,,,,,,,,,,,,,,,,,,,,,,,,,,,,,,,,,,,,,,,,,,,,,,,,,,,,,,,,,,,,,,,,133.0,57.0,78.0,78.0,57.0,133.0,2.1,2.12,-164,-284,0,-279,202,288,300.2467167377472,300.2467577457428,300.24879598617554,300.2610559463501,300.41105484962463,300.41105484962463,300.41105484962463,300.41105484962463,300.41105484962463,300.41105484962463,300.41105484962463,303.0457253456116,3,2.783371925354004,None,,,,,,,,,,,,,,,,,,56,3,2025-02-19_15h54.31.648,comp,2024.2.4,61.85404153093142,2025-02-19 15h54.40.403345 -0500,
49,49,0,filler_square,None,None,None,None,None,None,None,None,None,None,1,2.004526138305664,None,,,,,0,0,0,0,0,49,49,196,303.06119990348816,,,,,,,,,,,,,,,,,,,,,,,,,,,,,,,,,,,,,,,,,,,,,,,,,,,,,,,,,,,,,,,,,,,,,,,,,,,,,,,,,191.45998949627273,191.45998949627273,169.22404790419,168.90666564185494,57.14314888879435,62.11896407327954,2.2,2.21,-276,-283,0,271,212,279,303.0466992855072,303.04674196243286,303.0496048927307,303.06119990348816,303.21122097969055,303.21122097969055,303.21122097969055,303.21122097969055,303.21122097969055,303.21122097969055,303.21122097969055,305.07917523384094,1,2.004526138305664,None,,,,,,,,,,,,,,,,,,56,3,2025-02-19_15h54.31.648,comp,2024.2.4,61.85404153093142,2025-02-19 15h54.40.403345 -0500,
50,50,0,critical,wdh,35.0,3.0,upper,125.0,200.0,127.0,127.0,200.0,125.0,3,12.476412773132324,None,,,,,0,0,0,0,0,50,50,75,305.0942406654358,,,,,,,,,,,,,,,,,,,,,,,,,,,,,,,,,,,,,,,,,,,,,,,,,,,,,,,,,,,,,,,,,,,,,,,,,,,,,,,,,125.0,200.0,127.0,127.0,200.0,125.0,3.0,3.1,-260,287,0,10,222,-269,305.07996559143066,305.0800061225891,305.08230996131897,305.0942406654358,305.24452471733093,305.24452471733093,305.24452471733093,305.24452471733093,305.24452471733093,305.24452471733093,305.24452471733093,317.57892870903015,3,12.476412773132324,None,,,,,,,,,,,,,,,,,,56,3,2025-02-19_15h54.31.648,comp,2024.2.4,61.85404153093142,2025-02-19 15h54.40.403345 -0500,
51,51,0,critical,whd,35.0,3.0,upper,125.0,200.0,200.0,125.0,127.0,127.0,1,2.1034059524536133,None,,,,,0,0,0,0,0,51,51,87,317.59438729286194,,,,,,,,,,,,,,,,,,,,,,,,,,,,,,,,,,,,,,,,,,,,,,,,,,,,,,,,,,,,,,,,,,,,,,,,,,,,,,,,,125.0,200.0,200.0,125.0,127.0,127.0,3.0,3.2,-258,-256,0,-13,222,258,317.57971239089966,317.57975363731384,317.5822968482971,317.59438729286194,317.74447321891785,317.74447321891785,317.74447321891785,317.74447321891785,317.74447321891785,317.74447321891785,317.74447321891785,319.71233916282654,1,2.1034059524536133,None,,,,,,,,,,,,,,,,,,56,3,2025-02-19_15h54.31.648,comp,2024.2.4,61.85404153093142,2025-02-19 15h54.40.403345 -0500,
52,52,0,critical,wdh,35.0,4.0,upper,125.0,200.0,127.0,127.0,200.0,125.0,3,2.291459798812866,None,,,,,0,0,0,0,0,52,52,77,319.7275516986847,,,,,,,,,,,,,,,,,,,,,,,,,,,,,,,,,,,,,,,,,,,,,,,,,,,,,,,,,,,,,,,,,,,,,,,,,,,,,,,,,125.0,200.0,127.0,127.0,200.0,125.0,4.0,4.2,-260,-6,0,-259,222,-8,319.713116645813,319.71316933631897,319.71531224250793,319.7275516986847,319.87788820266724,319.87788820266724,319.87788820266724,319.87788820266724,319.87788820266724,319.87788820266724,319.87788820266724,322.02901339530945,3,2.291459798812866,None,,,,,,,,,,,,,,,,,,56,3,2025-02-19_15h54.31.648,comp,2024.2.4,61.85404153093142,2025-02-19 15h54.40.403345 -0500,
53,53,0,filler_square,None,None,None,None,None,None,None,None,None,None,1,3.6777994632720947,None,,,,,0,0,0,0,0,53,53,198,322.044545173645,,,,,,,,,,,,,,,,,,,,,,,,,,,,,,,,,,,,,,,,,,,,,,,,,,,,,,,,,,,,,,,,,,,,,,,,,,,,,,,,,120.24583406066995,120.24583406066995,102.09018904212566,76.28759761554015,112.86281001841795,106.33913320089269,1.0,1.2,-194,-19,0,-6,187,14,322.0299768447876,322.03001952171326,322.03249764442444,322.044545173645,322.1941502094269,322.1941502094269,322.1941502094269,322.1941502094269,322.1941502094269,322.1941502094269,322.1941502094269,325.7290606498718,1,3.6777994632720947,None,,,,,,,,,,,,,,,,,,56,3,2025-02-19_15h54.31.648,comp,2024.2.4,61.85404153093142,2025-02-19 15h54.40.403345 -0500,
54,54,0,critical,hdw,35.0,2.1,upper,200.0,125.0,127.0,127.0,125.0,200.0,3,2.4419355392456055,None,,,,,0,0,0,0,0,54,54,45,325.74444341659546,,,,,,,,,,,,,,,,,,,,,,,,,,,,,,,,,,,,,,,,,,,,,,,,,,,,,,,,,,,,,,,,,,,,,,,,,,,,,,,,,200.0,125.0,127.0,127.0,125.0,200.0,2.1,2.11,-222,258,0,262,260,-279,325.7298700809479,325.72991013526917,325.7326021194458,325.74444341659546,325.8944923877716,325.8944923877716,325.8944923877716,325.8944923877716,325.8944923877716,325.8944923877716,325.8944923877716,328.1956651210785,3,2.4419355392456055,None,,,,,,,,,,,,,,,,,,56,3,2025-02-19_15h54.31.648,comp,2024.2.4,61.85404153093142,2025-02-19 15h54.40.403345 -0500,
55,55,0,critical,dwh,20.0,3.0,lower,78.0,78.0,57.0,133.0,133.0,57.0,2,5.249089479446411,None,,,,,0,0,0,0,0,55,55,68,328.21112179756165,,,,,,,,,,,,,,,,,,,,,,,,,,,,,,,,,,,,,,,,,,,,,,,,,,,,,,,,,,,,,,,,,,,,,,,,,,,,,,,,,78.0,78.0,57.0,133.0,133.0,57.0,3.0,3.2,-202,-256,0,-6,191,269,328.1964735984802,328.1965169906616,328.19864320755005,328.21112179756165,328.36084628105164,328.36084628105164,328.36084628105164,328.36084628105164,328.36084628105164,328.36084628105164,328.36084628105164,333.4621431827545,2,5.249089479446411,None,,,,,,,,,,,,,,,,,,56,3,2025-02-19_15h54.31.648,comp,2024.2.4,61.85404153093142,2025-02-19 15h54.40.403345 -0500,
56,56,0,critical,hwd,35.0,3.0,upper,200.0,125.0,125.0,200.0,127.0,127.0,2,2.613670587539673,None,,,,,0,0,0,0,0,56,56,99,333.4777717590332,,,,,,,,,,,,,,,,,,,,,,,,,,,,,,,,,,,,,,,,,,,,,,,,,,,,,,,,,,,,,,,,,,,,,,,,,,,,,,,,,200.0,125.0,125.0,200.0,127.0,127.0,3.0,3.2,-258,-286,0,-3,260,250,333.46297311782837,333.46301531791687,333.465128660202,333.4777717590332,333.6276857852936,333.6276857852936,333.6276857852936,333.6276857852936,333.6276857852936,333.6276857852936,333.6276857852936,336.09562706947327,2,2.613670587539673,None,,,,,,,,,,,,,,,,,,56,3,2025-02-19_15h54.31.648,comp,2024.2.4,61.85404153093142,2025-02-19 15h54.40.403345 -0500,
57,57,0,critical,hdw,20.0,2.1,upper,200.0,125.0,141.0,141.0,125.0,200.0,3,2.6026737689971924,None,,,,,0,0,0,0,0,57,57,47,336.1109757423401,,,,,,,,,,,,,,,,,,,,,,,,,,,,,,,,,,,,,,,,,,,,,,,,,,,,,,,,,,,,,,,,,,,,,,,,,,,,,,,,,200.0,125.0,141.0,141.0,125.0,200.0,2.1,2.11,-229,277,0,272,266,-263,336.09640765190125,336.09644889831543,336.09856367111206,336.1109757423401,336.26102924346924,336.26102924346924,336.26102924346924,336.26102924346924,336.26102924346924,336.26102924346924,336.26102924346924,338.72885370254517,3,2.6026737689971924,None,,,,,,,,,,,,,,,,,,56,3,2025-02-19_15h54.31.648,comp,2024.2.4,61.85404153093142,2025-02-19 15h54.40.403345 -0500,
58,58,0,filler_square,None,None,None,None,None,None,None,None,None,None,1,2.0503737926483154,None,,,,,0,0,0,0,0,58,58,182,338.7440195083618,,,,,,,,,,,,,,,,,,,,,,,,,,,,,,,,,,,,,,,,,,,,,,,,,,,,,,,,,,,,,,,,,,,,,,,,,,,,,,,,,87.65362145142936,87.65362145142936,82.3054002974715,78.99299934191282,71.57311311036234,62.49937328401909,2.2,2.21,-179,-256,0,265,167,262,338.72981882095337,338.72986102104187,338.7319679260254,338.7440195083618,338.89426374435425,338.89426374435425,338.89426374435425,338.89426374435425,338.89426374435425,338.89426374435425,338.89426374435425,340.7955279350281,1,2.0503737926483154,None,,,,,,,,,,,,,,,,,,56,3,2025-02-19_15h54.31.648,comp,2024.2.4,61.85404153093142,2025-02-19 15h54.40.403345 -0500,
59,59,0,critical,dwh,35.0,4.0,upper,127.0,127.0,125.0,200.0,200.0,125.0,3,2.1345624923706055,None,,,,,0,0,0,0,0,59,59,65,340.8109698295593,,,,,,,,,,,,,,,,,,,,,,,,,,,,,,,,,,,,,,,,,,,,,,,,,,,,,,,,,,,,,,,,,,,,,,,,,,,,,,,,,127.0,127.0,125.0,200.0,200.0,125.0,4.0,4.1,-260,-268,0,-14,258,-271,340.79629945755005,340.7963409423828,340.7984404563904,340.8109698295593,340.9610638618469,340.9610638618469,340.9610638618469,340.9610638618469,340.9610638618469,340.9610638618469,340.9610638618469,342.96223282814026,3,2.1345624923706055,None,,,,,,,,,,,,,,,,,,56,3,2025-02-19_15h54.31.648,comp,2024.2.4,61.85404153093142,2025-02-19 15h54.40.403345 -0500,
60,60,0,critical,whd,35.0,4.0,lower,57.0,133.0,133.0,57.0,70.0,70.0,1,3.2880759239196777,None,,,,,0,0,0,0,0,60,60,88,342.97734785079956,,,,,,,,,,,,,,,,,,,,,,,,,,,,,,,,,,,,,,,,,,,,,,,,,,,,,,,,,,,,,,,,,,,,,,,,,,,,,,,,,57.0,133.0,133.0,57.0,70.0,70.0,4.0,4.1,-191,-279,0,11,160,-290,342.9630126953125,342.9630537033081,342.96537017822266,342.97734785079956,343.12744903564453,343.12744903564453,343.12744903564453,343.12744903564453,343.12744903564453,343.12744903564453,343.12744903564453,346.2786190509796,1,3.2880759239196777,None,,,,,,,,,,,,,,,,,,56,3,2025-02-19_15h54.31.648,comp,2024.2.4,61.85404153093142,2025-02-19 15h54.40.403345 -0500,
61,61,0,filler_random,None,None,None,None,None,None,None,None,None,None,3,3.317253351211548,None,,,,,0,0,0,0,0,61,61,142,346.2938902378082,,,,,,,,,,,,,,,,,,,,,,,,,,,,,,,,,,,,,,,,,,,,,,,,,,,,,,,,,,,,,,,,,,,,,,,,,,,,,,,,,140.06902517626725,183.58222856146142,125.58801139025884,87.52980306177223,185.02800583682296,124.20553359808747,2.2,2.21,-232,-257,0,280,202,274,346.27953696250916,346.2795777320862,346.28200912475586,346.2938902378082,346.44432520866394,346.44432520866394,346.44432520866394,346.44432520866394,346.44432520866394,346.44432520866394,346.44432520866394,349.6287431716919,3,3.317253351211548,None,,,,,,,,,,,,,,,,,,56,3,2025-02-19_15h54.31.648,comp,2024.2.4,61.85404153093142,2025-02-19 15h54.40.403345 -0500,
62,62,0,critical,dhw,35.0,2.1,lower,70.0,70.0,133.0,57.0,57.0,133.0,3,3.9834742546081543,None,,,,,0,0,0,0,0,62,62,0,349.6440749168396,,,,,,,,,,,,,,,,,,,,,,,,,,,,,,,,,,,,,,,,,,,,,,,,,,,,,,,,,,,,,,,,,,,,,,,,,,,,,,,,,70.0,70.0,133.0,57.0,57.0,133.0,2.1,2.11,-160,269,0,261,191,-270,349.62954020500183,349.6295819282532,349.63203525543213,349.6440749168396,349.7941687107086,349.7941687107086,349.7941687107086,349.7941687107086,349.7941687107086,349.7941687107086,349.7941687107086,353.64619755744934,3,3.9834742546081543,None,,,,,,,,,,,,,,,,,,56,3,2025-02-19_15h54.31.648,comp,2024.2.4,61.85404153093142,2025-02-19 15h54.40.403345 -0500,
63,63,0,critical,hdw,20.0,4.0,upper,200.0,125.0,141.0,141.0,125.0,200.0,3,6.42706561088562,None,,,,,0,0,0,0,0,63,63,119,353.66364789009094,,,,,,,,,,,,,,,,,,,,,,,,,,,,,,,,,,,,,,,,,,,,,,,,,,,,,,,,,,,,,,,,,,,,,,,,,,,,,,,,,200.0,125.0,141.0,141.0,125.0,200.0,4.0,4.2,-229,-9,0,-286,266,-9,353.6471149921417,353.6471846103668,353.65229964256287,353.66364789009094,353.810879945755,353.810879945755,353.810879945755,353.810879945755,353.810879945755,353.810879945755,353.810879945755,360.09555435180664,3,6.42706561088562,None,,,,,,,,,,,,,,,,,,56,3,2025-02-19_15h54.31.648,comp,2024.2.4,61.85404153093142,2025-02-19 15h54.40.403345 -0500,
64,64,0,catch,None,None,None,None,None,None,None,None,None,None,1,2.866983652114868,None,,,,,0,0,0,0,0,64,64,125,360.11095786094666,,,,,,,,,,,,,,,,,,,,,,,,,,,,,,,,,,,,,,,,,,,,,,,,,,,,,,,,,,,,,,,,,,,,,,,,,,,,,,,,,175,150,124,66,104,86,2.2,2.21,-204,-264,0,277,172,290,360.09658885002136,360.0966308116913,360.098751783371,360.11095786094666,360.2608244419098,360.2608244419098,360.2608244419098,360.2608244419098,360.2608244419098,360.2608244419098,360.2608244419098,362.99515104293823,1,2.866983652114868,None,,,,,,,,,,,,,,,,,,56,3,2025-02-19_15h54.31.648,comp,2024.2.4,61.85404153093142,2025-02-19 15h54.40.403345 -0500,
65,65,0,critical,dwh,20.0,3.0,upper,141.0,141.0,125.0,200.0,200.0,125.0,2,7.575511932373047,None,,,,,0,0,0,0,0,65,65,69,363.01053261756897,,,,,,,,,,,,,,,,,,,,,,,,,,,,,,,,,,,,,,,,,,,,,,,,,,,,,,,,,,,,,,,,,,,,,,,,,,,,,,,,,141.0,141.0,125.0,200.0,200.0,125.0,3.0,3.2,-266,-278,0,4,258,283,362.9959647655487,362.99600434303284,362.9980595111847,363.01053261756897,363.1611223220825,363.1611223220825,363.1611223220825,363.1611223220825,363.1611223220825,363.1611223220825,363.1611223220825,370.5952773094177,2,7.575511932373047,None,,,,,,,,,,,,,,,,,,56,3,2025-02-19_15h54.31.648,comp,2024.2.4,61.85404153093142,2025-02-19 15h54.40.403345 -0500,
66,66,0,critical,dhw,35.0,2.1,upper,127.0,127.0,200.0,125.0,125.0,200.0,3,3.070833206176758,None,,,,,0,0,0,0,0,66,66,1,370.61104011535645,,,,,,,,,,,,,,,,,,,,,,,,,,,,,,,,,,,,,,,,,,,,,,,,,,,,,,,,,,,,,,,,,,,,,,,,,,,,,,,,,127.0,127.0,200.0,125.0,125.0,200.0,2.1,2.12,-222,-251,0,-289,258,260,370.5960268974304,370.5960671901703,370.5980682373047,370.61104011535645,370.760794878006,370.760794878006,370.760794878006,370.760794878006,370.760794878006,370.760794878006,370.760794878006,373.6953933238983,3,3.070833206176758,None,,,,,,,,,,,,,,,,,,56,3,2025-02-19_15h54.31.648,comp,2024.2.4,61.85404153093142,2025-02-19 15h54.40.403345 -0500,
67,67,0,filler_random,None,None,None,None,None,None,None,None,None,None,2,2.8274216651916504,None,,,,,0,0,0,0,0,67,67,131,373.71052646636963,,,,,,,,,,,,,,,,,,,,,,,,,,,,,,,,,,,,,,,,,,,,,,,,,,,,,,,,,,,,,,,,,,,,,,,,,,,,,,,,,139.7804312923273,134.58288743024866,196.11061935769092,80.29487313207258,58.27333002379375,198.85432226801356,2.2,2.22,-203,273,0,-275,236,-257,373.69631361961365,373.6963562965393,373.69846773147583,373.71052646636963,373.86072182655334,373.86072182655334,373.86072182655334,373.86072182655334,373.86072182655334,373.86072182655334,373.86072182655334,376.5451023578644,2,2.8274216651916504,None,,,,,,,,,,,,,,,,,,56,3,2025-02-19_15h54.31.648,comp,2024.2.4,61.85404153093142,2025-02-19 15h54.40.403345 -0500,
68,68,0,critical,dwh,35.0,1.0,upper,127.0,127.0,125.0,200.0,200.0,125.0,3,14.698731660842896,None,,,,,0,0,0,0,0,68,68,61,376.56071281433105,,,,,,,,,,,,,,,,,,,,,,,,,,,,,,,,,,,,,,,,,,,,,,,,,,,,,,,,,,,,,,,,,,,,,,,,,,,,,,,,,127.0,127.0,125.0,200.0,200.0,125.0,1.0,1.1,-740,272,-480,266,-222,269,376.5459041595459,376.5459454059601,376.548054933548,376.56071281433105,376.7107286453247,376.7107286453247,376.7107286453247,376.7107286453247,376.7107286453247,376.7107286453247,376.7107286453247,391.2619001865387,3,14.698731660842896,None,,,,,,,,,,,,,,,,,,56,3,2025-02-19_15h54.31.648,comp,2024.2.4,61.85404153093142,2025-02-19 15h54.40.403345 -0500,
69,69,0,critical,hdw,35.0,1.0,upper,200.0,125.0,127.0,127.0,125.0,200.0,3,2.517096519470215,None,,,,,0,0,0,0,0,69,69,109,391.27723813056946,,,,,,,,,,,,,,,,,,,,,,,,,,,,,,,,,,,,,,,,,,,,,,,,,,,,,,,,,,,,,,,,,,,,,,,,,,,,,,,,,200.0,125.0,127.0,127.0,125.0,200.0,1.0,1.1,-702,281,-480,266,-220,254,391.2627215385437,391.26276206970215,391.26490235328674,391.27723813056946,391.42731189727783,391.42731189727783,391.42731189727783,391.42731189727783,391.42731189727783,391.42731189727783,391.42731189727783,393.79550981521606,3,2.517096519470215,None,,,,,,,,,,,,,,,,,,56,3,2025-02-19_15h54.31.648,comp,2024.2.4,61.85404153093142,2025-02-19 15h54.40.403345 -0500,
70,70,0,filler_square,None,None,None,None,None,None,None,None,None,None,2,1.4167282581329346,None,,,,,0,0,0,0,0,70,70,204,393.81076312065125,,,,,,,,,,,,,,,,,,,,,,,,,,,,,,,,,,,,,,,,,,,,,,,,,,,,,,,,,,,,,,,,,,,,,,,,,,,,,,,,,94.1611211015288,115.98150337275935,195.76513017904048,195.76513017904048,98.36375219527864,64.66100236895232,3.0,3.1,-252,275,0,-19,226,-251,393.79645323753357,393.79649448394775,393.79861307144165,393.81076312065125,393.96060943603516,393.96060943603516,393.96060943603516,393.96060943603516,393.96060943603516,393.96060943603516,393.96060943603516,395.2451958656311,2,1.4167282581329346,None,,,,,,,,,,,,,,,,,,56,3,2025-02-19_15h54.31.648,comp,2024.2.4,61.85404153093142,2025-02-19 15h54.40.403345 -0500,
71,71,0,critical,wdh,20.0,2.1,lower,57.0,133.0,78.0,78.0,133.0,57.0,1,5.941595554351807,None,,,,,0,0,0,0,0,71,71,10,395.2603106498718,,,,,,,,,,,,,,,,,,,,,,,,,,,,,,,,,,,,,,,,,,,,,,,,,,,,,,,,,,,,,,,,,,,,,,,,,,,,,,,,,57.0,133.0,78.0,78.0,133.0,57.0,2.1,2.12,-202,-277,0,-264,164,254,395.24598264694214,395.24602341651917,395.2483034133911,395.2603106498718,395.4104526042938,395.4104526042938,395.4104526042938,395.4104526042938,395.4104526042938,395.4104526042938,395.4104526042938,401.2115159034729,1,5.941595554351807,None,,,,,,,,,,,,,,,,,,56,3,2025-02-19_15h54.31.648,comp,2024.2.4,61.85404153093142,2025-02-19 15h54.40.403345 -0500,
72,72,0,critical,hdw,20.0,1.0,lower,133.0,57.0,78.0,78.0,57.0,133.0,3,2.6485862731933594,None,,,,,0,0,0,0,0,72,72,114,401.22721576690674,,,,,,,,,,,,,,,,,,,,,,,,,,,,,,,,,,,,,,,,,,,,,,,,,,,,,,,,,,,,,,,,,,,,,,,,,,,,,,,,,133.0,57.0,78.0,78.0,57.0,133.0,1.0,1.1,-644,281,-480,262,-278,266,401.2122948169708,401.21233558654785,401.2146668434143,401.22721576690674,401.37713861465454,401.37713861465454,401.37713861465454,401.37713861465454,401.37713861465454,401.37713861465454,401.37713861465454,403.87821412086487,3,2.6485862731933594,None,,,,,,,,,,,,,,,,,,56,3,2025-02-19_15h54.31.648,comp,2024.2.4,61.85404153093142,2025-02-19 15h54.40.403345 -0500,
73,73,0,filler_square,None,None,None,None,None,None,None,None,None,None,3,1.907900094985962,None,,,,,0,0,0,0,0,73,73,179,403.8939824104309,,,,,,,,,,,,,,,,,,,,,,,,,,,,,,,,,,,,,,,,,,,,,,,,,,,,,,,,,,,,,,,,,,,,,,,,,,,,,,,,,60.051607660761825,68.44385003763486,86.30483828042077,106.47434406462992,116.3218943683865,116.3218943683865,4.0,4.1,-183,-253,0,2,207,-267,403.87914276123047,403.87919783592224,403.88133668899536,403.8939824104309,404.0437345504761,404.0437345504761,404.0437345504761,404.0437345504761,404.0437345504761,404.0437345504761,404.0437345504761,405.8114540576935,3,1.907900094985962,None,,,,,,,,,,,,,,,,,,56,3,2025-02-19_15h54.31.648,comp,2024.2.4,61.85404153093142,2025-02-19 15h54.40.403345 -0500,
74,74,0,critical,dhw,35.0,4.0,upper,127.0,127.0,200.0,125.0,125.0,200.0,3,1.8482306003570557,None,,,,,0,0,0,0,0,74,74,53,405.827171087265,,,,,,,,,,,,,,,,,,,,,,,,,,,,,,,,,,,,,,,,,,,,,,,,,,,,,,,,,,,,,,,,,,,,,,,,,,,,,,,,,127.0,127.0,200.0,125.0,125.0,200.0,4.0,4.1,-222,-259,0,-17,258,-276,405.81223487854004,405.8122761249542,405.81466484069824,405.827171087265,405.97719979286194,405.97719979286194,405.97719979286194,405.97719979286194,405.97719979286194,405.97719979286194,405.97719979286194,407.67852997779846,3,1.8482306003570557,None,,,,,,,,,,,,,,,,,,56,3,2025-02-19_15h54.31.648,comp,2024.2.4,61.85404153093142,2025-02-19 15h54.40.403345 -0500,
75,75,0,critical,dwh,20.0,1.0,upper,141.0,141.0,125.0,200.0,200.0,125.0,3,3.1877944469451904,None,,,,,0,0,0,0,0,75,75,67,407.6939423084259,,,,,,,,,,,,,,,,,,,,,,,,,,,,,,,,,,,,,,,,,,,,,,,,,,,,,,,,,,,,,,,,,,,,,,,,,,,,,,,,,141.0,141.0,125.0,200.0,200.0,125.0,1.0,1.1,-746,285,-480,285,-222,286,407.67930030822754,407.67934012413025,407.68170619010925,407.6939423084259,407.84396386146545,407.84396386146545,407.84396386146545,407.84396386146545,407.84396386146545,407.84396386146545,407.84396386146545,410.89522647857666,3,3.1877944469451904,None,,,,,,,,,,,,,,,,,,56,3,2025-02-19_15h54.31.648,comp,2024.2.4,61.85404153093142,2025-02-19 15h54.40.403345 -0500,
76,76,0,filler_square,None,None,None,None,None,None,None,None,None,None,1,2.507917642593384,None,,,,,0,0,0,0,0,76,76,200,410.91034173965454,,,,,,,,,,,,,,,,,,,,,,,,,,,,,,,,,,,,,,,,,,,,,,,,,,,,,,,,,,,,,,,,,,,,,,,,,,,,,,,,,74.41790546196954,74.41790546196954,58.763856994354654,68.29262758074222,65.77348904280821,66.36071656341862,2.2,2.21,-167,-273,0,288,163,268,410.89618396759033,410.896226644516,410.89832162857056,410.91034173965454,411.06025648117065,411.06025648117065,411.06025648117065,411.06025648117065,411.06025648117065,411.06025648117065,411.06025648117065,413.4280445575714,1,2.507917642593384,None,,,,,,,,,,,,,,,,,,56,3,2025-02-19_15h54.31.648,comp,2024.2.4,61.85404153093142,2025-02-19 15h54.40.403345 -0500,
77,77,0,filler_random,None,None,None,None,None,None,None,None,None,None,3,1.533527135848999,None,,,,,0,0,0,0,0,77,77,155,413.44389367103577,,,,,,,,,,,,,,,,,,,,,,,,,,,,,,,,,,,,,,,,,,,,,,,,,,,,,,,,,,,,,,,,,,,,,,,,,,,,,,,,,80.30232070928693,96.11138556548048,98.40863749222231,129.70002902558093,148.35588746927218,146.87856666538653,1.0,1.2,-209,-19,0,-19,234,13,413.4289629459381,413.4290060997009,413.4315457344055,413.44389367103577,413.59379053115845,413.59379053115845,413.59379053115845,413.59379053115845,413.59379053115845,413.59379053115845,413.59379053115845,414.9784700870514,3,1.533527135848999,None,,,,,,,,,,,,,,,,,,56,3,2025-02-19_15h54.31.648,comp,2024.2.4,61.85404153093142,2025-02-19 15h54.40.403345 -0500,
78,78,0,critical,hdw,20.0,4.0,lower,133.0,57.0,78.0,78.0,57.0,133.0,3,9.238942384719849,None,,,,,0,0,0,0,0,78,78,118,414.9938623905182,,,,,,,,,,,,,,,,,,,,,,,,,,,,,,,,,,,,,,,,,,,,,,,,,,,,,,,,,,,,,,,,,,,,,,,,,,,,,,,,,133.0,57.0,78.0,78.0,57.0,133.0,4.0,4.2,-164,1,0,-277,202,8,414.9793589115143,414.9794008731842,414.9817969799042,414.9938623905182,415.14381194114685,415.14381194114685,415.14381194114685,415.14381194114685,415.14381194114685,415.14381194114685,415.14381194114685,424.24507331848145,3,9.238942384719849,None,,,,,,,,,,,,,,,,,,56,3,2025-02-19_15h54.31.648,comp,2024.2.4,61.85404153093142,2025-02-19 15h54.40.403345 -0500,
79,79,0,catch,None,None,None,None,None,None,None,None,None,None,3,1.7726802825927734,None,,,,,0,0,0,0,0,79,79,128,424.2600646018982,,,,,,,,,,,,,,,,,,,,,,,,,,,,,,,,,,,,,,,,,,,,,,,,,,,,,,,,,,,,,,,,,,,,,,,,,,,,,,,,,122,68,107,83,155,170,3.0,3.2,-172,-256,0,17,222,273,424.24611163139343,424.24616503715515,424.24876499176025,424.2600646018982,424.41035413742065,424.41035413742065,424.41035413742065,424.41035413742065,424.41035413742065,424.41035413742065,424.41035413742065,426.0451748371124,3,1.7726802825927734,None,,,,,,,,,,,,,,,,,,56,3,2025-02-19_15h54.31.648,comp,2024.2.4,61.85404153093142,2025-02-19 15h54.40.403345 -0500,
80,80,0,filler_square,None,None,None,None,None,None,None,None,None,None,1,4.371916770935059,None,,,,,0,0,0,0,0,80,80,178,426.0608432292938,,,,,,,,,,,,,,,,,,,,,,,,,,,,,,,,,,,,,,,,,,,,,,,,,,,,,,,,,,,,,,,,,,,,,,,,,,,,,,,,,77.69851011416563,77.69851011416563,73.2991424259301,73.5878865523214,66.74503508563008,72.39072302361024,3.0,3.1,-172,280,0,-14,169,-280,426.04611992836,426.04617261886597,426.0497498512268,426.0608432292938,426.2101879119873,426.2101879119873,426.2101879119873,426.2101879119873,426.2101879119873,426.2101879119873,426.2101879119873,430.44490694999695,1,4.371916770935059,None,,,,,,,,,,,,,,,,,,56,3,2025-02-19_15h54.31.648,comp,2024.2.4,61.85404153093142,2025-02-19 15h54.40.403345 -0500,
81,81,0,filler_random,None,None,None,None,None,None,None,None,None,None,1,2.030306816101074,None,,,,,0,0,0,0,0,81,81,167,430.46007466316223,,,,,,,,,,,,,,,,,,,,,,,,,,,,,,,,,,,,,,,,,,,,,,,,,,,,,,,,,,,,,,,,,,,,,,,,,,,,,,,,,155.2117226446801,117.17025756534609,70.53443252784703,100.09089720895241,149.4146281423053,77.38435982977123,2.1,2.12,-205,-278,0,-265,185,280,430.4457743167877,430.44581294059753,430.4482777118683,430.46007466316223,430.6103141307831,430.6103141307831,430.6103141307831,430.6103141307831,430.6103141307831,430.6103141307831,430.6103141307831,432.4950280189514,1,2.030306816101074,None,,,,,,,,,,,,,,,,,,56,3,2025-02-19_15h54.31.648,comp,2024.2.4,61.85404153093142,2025-02-19 15h54.40.403345 -0500,
82,82,0,critical,hwd,20.0,4.0,lower,133.0,57.0,57.0,133.0,78.0,78.0,3,2.56528639793396,None,,,,,0,0,0,0,0,82,82,106,432.51040959358215,,,,,,,,,,,,,,,,,,,,,,,,,,,,,,,,,,,,,,,,,,,,,,,,,,,,,,,,,,,,,,,,,,,,,,,,,,,,,,,,,133.0,57.0,57.0,133.0,78.0,78.0,4.0,4.2,-191,17,0,-284,202,5,432.4958539009094,432.4958941936493,432.4985628128052,432.51040959358215,432.6602556705475,432.6602556705475,432.6602556705475,432.6602556705475,432.6602556705475,432.6602556705475,432.6602556705475,435.07802844047546,3,2.56528639793396,None,,,,,,,,,,,,,,,,,,56,3,2025-02-19_15h54.31.648,comp,2024.2.4,61.85404153093142,2025-02-19 15h54.40.403345 -0500,
83,83,0,critical,whd,35.0,2.1,upper,125.0,200.0,200.0,125.0,127.0,127.0,2,2.635254383087158,None,,,,,0,0,0,0,0,83,83,13,435.0936987400055,,,,,,,,,,,,,,,,,,,,,,,,,,,,,,,,,,,,,,,,,,,,,,,,,,,,,,,,,,,,,,,,,,,,,,,,,,,,,,,,,125.0,200.0,200.0,125.0,127.0,127.0,2.1,2.12,-258,-288,0,-265,222,261,435.07881355285645,435.0788540840149,435.08107352256775,435.0936987400055,435.24370288848877,435.24370288848877,435.24370288848877,435.24370288848877,435.24370288848877,435.24370288848877,435.24370288848877,437.7447757720947,2,2.635254383087158,None,,,,,,,,,,,,,,,,,,56,3,2025-02-19_15h54.31.648,comp,2024.2.4,61.85404153093142,2025-02-19 15h54.40.403345 -0500,
84,84,0,filler_random,None,None,None,None,None,None,None,None,None,None,3,2.761470317840576,None,,,,,0,0,0,0,0,84,84,168,437.76008129119873,,,,,,,,,,,,,,,,,,,,,,,,,,,,,,,,,,,,,,,,,,,,,,,,,,,,,,,,,,,,,,,,,,,,,,,,,,,,,,,,,143.507811701813,65.97151564328922,77.56899282174584,79.2866434615515,166.96349832393022,65.29188226205791,3.0,3.2,-169,-257,0,19,168,262,437.745637178421,437.74567580223083,437.7480971813202,437.76008129119873,437.9102466106415,437.9102466106415,437.9102466106415,437.9102466106415,437.9102466106415,437.9102466106415,437.9102466106415,440.5279448032379,3,2.761470317840576,None,,,,,,,,,,,,,,,,,,56,3,2025-02-19_15h54.31.648,comp,2024.2.4,61.85404153093142,2025-02-19 15h54.40.403345 -0500,
85,85,0,filler_random,None,None,None,None,None,None,None,None,None,None,3,3.089026689529419,None,,,,,0,0,0,0,0,85,85,151,440.54359674453735,,,,,,,,,,,,,,,,,,,,,,,,,,,,,,,,,,,,,,,,,,,,,,,,,,,,,,,,,,,,,,,,,,,,,,,,,,,,,,,,,106.29240056119791,75.40738846930267,139.64550084204313,166.7814010739604,192.8249908284645,156.53429415843792,4.0,4.1,-217,-272,0,-6,258,-271,440.5288259983063,440.52886509895325,440.5313997268677,440.54359674453735,440.69369101524353,440.69369101524353,440.69369101524353,440.69369101524353,440.69369101524353,440.69369101524353,440.69369101524353,443.64528155326843,3,3.089026689529419,None,,,,,,,,,,,,,,,,,,56,3,2025-02-19_15h54.31.648,comp,2024.2.4,61.85404153093142,2025-02-19 15h54.40.403345 -0500,
86,86,0,filler_square,None,None,None,None,None,None,None,None,None,None,3,3.7414331436157227,None,,,,,0,0,0,0,0,86,86,176,443.66013503074646,,,,,,,,,,,,,,,,,,,,,,,,,,,,,,,,,,,,,,,,,,,,,,,,,,,,,,,,,,,,,,,,,,,,,,,,,,,,,,,,,77.36152323345217,77.19265734266754,84.53769130693408,68.80636784611528,87.92498557709976,87.92498557709976,1.0,1.1,-649,269,-480,278,-306,285,443.6462779045105,443.64632058143616,443.64843368530273,443.66013503074646,443.8101963996887,443.8101963996887,443.8101963996887,443.8101963996887,443.8101963996887,443.8101963996887,443.8101963996887,447.41119265556335,3,3.7414331436157227,None,,,,,,,,,,,,,,,,,,56,3,2025-02-19_15h54.31.648,comp,2024.2.4,61.85404153093142,2025-02-19 15h54.40.403345 -0500,
87,87,0,critical,dhw,35.0,1.0,upper,127.0,127.0,200.0,125.0,125.0,200.0,2,3.901736259460449,None,,,,,0,0,0,0,0,87,87,49,447.4270968437195,,,,,,,,,,,,,,,,,,,,,,,,,,,,,,,,,,,,,,,,,,,,,,,,,,,,,,,,,,,,,,,,,,,,,,,,,,,,,,,,,127.0,127.0,200.0,125.0,125.0,200.0,1.0,1.3,258,-251,480,-280,738,-277,447.41195940971375,447.41200041770935,447.41407203674316,447.4270968437195,447.57695746421814,447.57695746421814,447.57695746421814,447.57695746421814,447.57695746421814,447.57695746421814,447.57695746421814,451.344717502594,2,3.901736259460449,None,,,,,,,,,,,,,,,,,,56,3,2025-02-19_15h54.31.648,comp,2024.2.4,61.85404153093142,2025-02-19 15h54.40.403345 -0500,
88,88,0,critical,wdh,20.0,1.0,lower,57.0,133.0,78.0,78.0,133.0,57.0,3,7.115403175354004,None,,,,,0,0,0,0,0,88,88,78,451.36010336875916,,,,,,,,,,,,,,,,,,,,,,,,,,,,,,,,,,,,,,,,,,,,,,,,,,,,,,,,,,,,,,,,,,,,,,,,,,,,,,,,,57.0,133.0,78.0,78.0,133.0,57.0,1.0,1.1,-682,281,-480,272,-316,255,451.3454854488373,451.34552526474,451.3479657173157,451.36010336875916,451.51011204719543,451.51011204719543,451.51011204719543,451.51011204719543,451.51011204719543,451.51011204719543,451.51011204719543,458.4778425693512,3,7.115403175354004,None,,,,,,,,,,,,,,,,,,56,3,2025-02-19_15h54.31.648,comp,2024.2.4,61.85404153093142,2025-02-19 15h54.40.403345 -0500,
89,89,0,filler_random,None,None,None,None,None,None,None,None,None,None,3,1.419874668121338,None,,,,,0,0,0,0,0,89,89,160,458.4935019016266,,,,,,,,,,,,,,,,,,,,,,,,,,,,,,,,,,,,,,,,,,,,,,,,,,,,,,,,,,,,,,,,,,,,,,,,,,,,,,,,,71.2475414812087,68.50057581724826,149.65691499411025,158.15054803040584,134.62653202714915,191.82691186861427,4.0,4.2,-209,12,0,-261,271,8,458.4787669181824,458.47880935668945,458.48150515556335,458.4935019016266,458.6437485218048,458.6437485218048,458.6437485218048,458.6437485218048,458.6437485218048,458.6437485218048,458.6437485218048,459.9279704093933,3,1.419874668121338,None,,,,,,,,,,,,,,,,,,56,3,2025-02-19_15h54.31.648,comp,2024.2.4,61.85404153093142,2025-02-19 15h54.40.403345 -0500,
90,90,0,critical,wdh,20.0,3.0,lower,57.0,133.0,78.0,78.0,133.0,57.0,3,2.347132444381714,None,,,,,0,0,0,0,0,90,90,80,459.9432120323181,,,,,,,,,,,,,,,,,,,,,,,,,,,,,,,,,,,,,,,,,,,,,,,,,,,,,,,,,,,,,,,,,,,,,,,,,,,,,,,,,57.0,133.0,78.0,78.0,133.0,57.0,3.0,3.2,-202,-282,0,11,164,277,459.92873978614807,459.92878103256226,459.9308898448944,459.9432120323181,460.09335350990295,460.09335350990295,460.09335350990295,460.09335350990295,460.09335350990295,460.09335350990295,460.09335350990295,462.2945091724396,3,2.347132444381714,None,,,,,,,,,,,,,,,,,,56,3,2025-02-19_15h54.31.648,comp,2024.2.4,61.85404153093142,2025-02-19 15h54.40.403345 -0500,
91,91,0,critical,whd,35.0,2.1,upper,125.0,200.0,200.0,125.0,127.0,127.0,1,2.0755295753479004,None,,,,,0,0,0,0,0,91,91,37,462.310124874115,,,,,,,,,,,,,,,,,,,,,,,,,,,,,,,,,,,,,,,,,,,,,,,,,,,,,,,,,,,,,,,,,,,,,,,,,,,,,,,,,125.0,200.0,200.0,125.0,127.0,127.0,2.1,2.12,-258,-288,0,-253,222,282,462.295303106308,462.2953448295593,462.2974479198456,462.310124874115,462.4601147174835,462.4601147174835,462.4601147174835,462.4601147174835,462.4601147174835,462.4601147174835,462.4601147174835,464.39488196372986,1,2.0755295753479004,None,,,,,,,,,,,,,,,,,,56,3,2025-02-19_15h54.31.648,comp,2024.2.4,61.85404153093142,2025-02-19 15h54.40.403345 -0500,
92,92,0,critical,hwd,35.0,2.1,lower,133.0,57.0,57.0,133.0,70.0,70.0,2,6.233255386352539,None,,,,,0,0,0,0,0,92,92,16,464.4102318286896,,,,,,,,,,,,,,,,,,,,,,,,,,,,,,,,,,,,,,,,,,,,,,,,,,,,,,,,,,,,,,,,,,,,,,,,,,,,,,,,,133.0,57.0,57.0,133.0,70.0,70.0,2.1,2.11,-191,271,0,287,198,-270,464.39567017555237,464.39571237564087,464.39781975746155,464.4102318286896,464.5598850250244,464.5598850250244,464.5598850250244,464.5598850250244,464.5598850250244,464.5598850250244,464.5598850250244,470.64467215538025,2,6.233255386352539,None,,,,,,,,,,,,,,,,,,56,3,2025-02-19_15h54.31.648,comp,2024.2.4,61.85404153093142,2025-02-19 15h54.40.403345 -0500,
93,93,0,critical,dwh,35.0,4.0,lower,70.0,70.0,57.0,133.0,133.0,57.0,2,2.236523151397705,None,,,,,0,0,0,0,0,93,93,64,470.6600675582886,,,,,,,,,,,,,,,,,,,,,,,,,,,,,,,,,,,,,,,,,,,,,,,,,,,,,,,,,,,,,,,,,,,,,,,,,,,,,,,,,70.0,70.0,57.0,133.0,133.0,57.0,4.0,4.2,-198,-3,0,-278,191,8,470.6454517841339,470.64549446105957,470.6476061344147,470.6600675582886,470.8099021911621,470.8099021911621,470.8099021911621,470.8099021911621,470.8099021911621,470.8099021911621,470.8099021911621,472.91105675697327,2,2.236523151397705,None,,,,,,,,,,,,,,,,,,56,3,2025-02-19_15h54.31.648,comp,2024.2.4,61.85404153093142,2025-02-19 15h54.40.403345 -0500,
94,94,0,critical,dwh,35.0,3.0,upper,127.0,127.0,125.0,200.0,200.0,125.0,2,2.6181282997131348,None,,,,,0,0,0,0,0,94,94,63,472.9264786243439,,,,,,,,,,,,,,,,,,,,,,,,,,,,,,,,,,,,,,,,,,,,,,,,,,,,,,,,,,,,,,,,,,,,,,,,,,,,,,,,,127.0,127.0,125.0,200.0,200.0,125.0,3.0,3.2,-260,-270,0,5,258,286,472.9118552207947,472.9118959903717,472.9139633178711,472.9264786243439,473.0767617225647,473.0767617225647,473.0767617225647,473.0767617225647,473.0767617225647,473.0767617225647,473.0767617225647,475.5612280368805,2,2.6181282997131348,None,,,,,,,,,,,,,,,,,,56,3,2025-02-19_15h54.31.648,comp,2024.2.4,61.85404153093142,2025-02-19 15h54.40.403345 -0500,
95,95,0,critical,dwh,20.0,4.0,lower,78.0,78.0,57.0,133.0,133.0,57.0,2,4.192962884902954,None,,,,,0,0,0,0,0,95,95,70,475.57642459869385,,,,,,,,,,,,,,,,,,,,,,,,,,,,,,,,,,,,,,,,,,,,,,,,,,,,,,,,,,,,,,,,,,,,,,,,,,,,,,,,,78.0,78.0,57.0,133.0,133.0,57.0,4.0,4.2,-202,5,0,-289,191,-9,475.5619876384735,475.5620276927948,475.5642993450165,475.57642459869385,475.7265205383301,475.7265205383301,475.7265205383301,475.7265205383301,475.7265205383301,475.7265205383301,475.7265205383301,479.7776372432709,2,4.192962884902954,None,,,,,,,,,,,,,,,,,,56,3,2025-02-19_15h54.31.648,comp,2024.2.4,61.85404153093142,2025-02-19 15h54.40.403345 -0500,
96,96,0,critical,dwh,20.0,2.1,lower,78.0,78.0,57.0,133.0,133.0,57.0,1,2.3601036071777344,None,,,,,0,0,0,0,0,96,96,6,479.7933700084686,,,,,,,,,,,,,,,,,,,,,,,,,,,,,,,,,,,,,,,,,,,,,,,,,,,,,,,,,,,,,,,,,,,,,,,,,,,,,,,,,78.0,78.0,57.0,133.0,133.0,57.0,2.1,2.11,-202,256,0,276,191,-280,479.77844738960266,479.77848768234253,479.78098464012146,479.7933700084686,479.9432592391968,479.9432592391968,479.9432592391968,479.9432592391968,479.9432592391968,479.9432592391968,479.9432592391968,482.16097044944763,1,2.3601036071777344,None,,,,,,,,,,,,,,,,,,56,3,2025-02-19_15h54.31.648,comp,2024.2.4,61.85404153093142,2025-02-19 15h54.40.403345 -0500,
97,97,0,critical,hdw,20.0,2.1,upper,200.0,125.0,141.0,141.0,125.0,200.0,3,1.8336257934570312,None,,,,,0,0,0,0,0,97,97,23,482.1766903400421,,,,,,,,,,,,,,,,,,,,,,,,,,,,,,,,,,,,,,,,,,,,,,,,,,,,,,,,,,,,,,,,,,,,,,,,,,,,,,,,,200.0,125.0,141.0,141.0,125.0,200.0,2.1,2.11,-229,255,0,273,266,-284,482.16179943084717,482.1618399620056,482.1645576953888,482.1766903400421,482.3266911506653,482.3266911506653,482.3266911506653,482.3266911506653,482.3266911506653,482.3266911506653,482.3266911506653,484.0279440879822,3,1.8336257934570312,None,,,,,,,,,,,,,,,,,,56,3,2025-02-19_15h54.31.648,comp,2024.2.4,61.85404153093142,2025-02-19 15h54.40.403345 -0500,
98,98,0,filler_random,None,None,None,None,None,None,None,None,None,None,3,2.3173410892486572,None,,,,,0,0,0,0,0,98,98,161,484.0432095527649,,,,,,,,,,,,,,,,,,,,,,,,,,,,,,,,,,,,,,,,,,,,,,,,,,,,,,,,,,,,,,,,,,,,,,,,,,,,,,,,,117.96210631561223,152.98286187696436,88.73047431744875,136.61237079155256,141.83909819409348,191.8225575294886,1.0,1.1,-721,264,-480,286,-220,289,484.02886486053467,484.028906583786,484.0314176082611,484.0432095527649,484.1932940483093,484.1932940483093,484.1932940483093,484.1932940483093,484.1932940483093,484.1932940483093,484.1932940483093,486.3778145313263,3,2.3173410892486572,None,,,,,,,,,,,,,,,,,,56,3,2025-02-19_15h54.31.648,comp,2024.2.4,61.85404153093142,2025-02-19 15h54.40.403345 -0500,
99,99,0,filler_square,None,None,None,None,None,None,None,None,None,None,3,1.4500927925109863,None,,,,,0,0,0,0,0,99,99,189,486.39319109916687,,,,,,,,,,,,,,,,,,,,,,,,,,,,,,,,,,,,,,,,,,,,,,,,,,,,,,,,,,,,,,,,,,,,,,,,,,,,,,,,,74.7846005775828,57.54965108637057,93.57162837193144,58.23942527169184,119.49599356622508,119.49599356622508,2.2,2.21,-154,-261,0,276,185,253,486.37878584861755,486.3788273334503,486.3813042640686,486.39319109916687,486.5431754589081,486.5431754589081,486.5431754589081,486.5431754589081,486.5431754589081,486.5431754589081,486.5431754589081,487.8445088863373,3,1.4500927925109863,None,,,,,,,,,,,,,,,,,,56,3,2025-02-19_15h54.31.648,comp,2024.2.4,61.85404153093142,2025-02-19 15h54.40.403345 -0500,
100,100,0,critical,whd,20.0,2.1,upper,125.0,200.0,200.0,125.0,141.0,141.0,2,5.388401746749878,None,,,,,0,0,0,0,0,100,100,15,487.85991311073303,,,,,,,,,,,,,,,,,,,,,,,,,,,,,,,,,,,,,,,,,,,,,,,,,,,,,,,,,,,,,,,,,,,,,,,,,,,,,,,,,125.0,200.0,200.0,125.0,141.0,141.0,2.1,2.11,-258,284,0,281,229,-253,487.84529852867126,487.8453402519226,487.8478629589081,487.85991311073303,488.01009249687195,488.01009249687195,488.01009249687195,488.01009249687195,488.01009249687195,488.01009249687195,488.01009249687195,493.26117420196533,2,5.388401746749878,None,,,,,,,,,,,,,,,,,,56,3,2025-02-19_15h54.31.648,comp,2024.2.4,61.85404153093142,2025-02-19 15h54.40.403345 -0500,
101,101,0,catch,None,None,None,None,None,None,None,None,None,None,3,1.3824310302734375,None,,,,,0,0,0,0,0,101,101,126,493.27638149261475,,,,,,,,,,,,,,,,,,,,,,,,,,,,,,,,,,,,,,,,,,,,,,,,,,,,,,,,,,,,,,,,,,,,,,,,,,,,,,,,,67,123,75,115,156,169,3.0,3.1,-215,276,0,15,238,-281,493.2622103691101,493.2622528076172,493.2643852233887,493.27638149261475,493.4266095161438,493.4266095161438,493.4266095161438,493.4266095161438,493.4266095161438,493.4266095161438,493.4266095161438,494.6610870361328,3,1.3824310302734375,None,,,,,,,,,,,,,,,,,,56,3,2025-02-19_15h54.31.648,comp,2024.2.4,61.85404153093142,2025-02-19 15h54.40.403345 -0500,
102,102,0,critical,wdh,35.0,1.0,upper,125.0,200.0,127.0,127.0,200.0,125.0,3,1.8045856952667236,None,,,,,0,0,0,0,0,102,102,73,494.67649483680725,,,,,,,,,,,,,,,,,,,,,,,,,,,,,,,,,,,,,,,,,,,,,,,,,,,,,,,,,,,,,,,,,,,,,,,,,,,,,,,,,125.0,200.0,127.0,127.0,200.0,125.0,1.0,1.2,-260,-5,0,-2,222,2,494.66182494163513,494.6618638038635,494.6638889312744,494.67649483680725,494.82661724090576,494.82661724090576,494.82661724090576,494.82661724090576,494.82661724090576,494.82661724090576,494.82661724090576,496.4944267272949,3,1.8045856952667236,None,,,,,,,,,,,,,,,,,,56,3,2025-02-19_15h54.31.648,comp,2024.2.4,61.85404153093142,2025-02-19 15h54.40.403345 -0500,
103,103,0,filler_square,None,None,None,None,None,None,None,None,None,None,3,1.7331840991973877,None,,,,,0,0,0,0,0,103,103,181,496.5096802711487,,,,,,,,,,,,,,,,,,,,,,,,,,,,,,,,,,,,,,,,,,,,,,,,,,,,,,,,,,,,,,,,,,,,,,,,,,,,,,,,,154.11715137834494,144.93981370880567,68.76496338723562,139.21620711985665,177.69449769884835,177.69449769884835,1.0,1.2,-238,-20,0,-7,254,14,496.4953866004944,496.4954264163971,496.49778509140015,496.5096802711487,496.65997290611267,496.65997290611267,496.65997290611267,496.65997290611267,496.65997290611267,496.65997290611267,496.65997290611267,498.24455547332764,3,1.7331840991973877,None,,,,,,,,,,,,,,,,,,56,3,2025-02-19_15h54.31.648,comp,2024.2.4,61.85404153093142,2025-02-19 15h54.40.403345 -0500,
104,104,0,critical,dhw,35.0,1.0,lower,70.0,70.0,133.0,57.0,57.0,133.0,3,6.38840389251709,None,,,,,0,0,0,0,0,104,104,48,498.2599370479584,,,,,,,,,,,,,,,,,,,,,,,,,,,,,,,,,,,,,,,,,,,,,,,,,,,,,,,,,,,,,,,,,,,,,,,,,,,,,,,,,70.0,70.0,133.0,57.0,57.0,133.0,1.0,1.2,-160,-20,0,-12,191,-14,498.24533557891846,498.2453770637512,498.24782133102417,498.2599370479584,498.40980219841003,498.40980219841003,498.40980219841003,498.40980219841003,498.40980219841003,498.40980219841003,498.40980219841003,504.6609299182892,3,6.38840389251709,None,,,,,,,,,,,,,,,,,,56,3,2025-02-19_15h54.31.648,comp,2024.2.4,61.85404153093142,2025-02-19 15h54.40.403345 -0500,
105,105,0,critical,dhw,20.0,3.0,upper,141.0,141.0,200.0,125.0,125.0,200.0,2,6.741173982620239,None,,,,,0,0,0,0,0,105,105,57,504.6762752532959,,,,,,,,,,,,,,,,,,,,,,,,,,,,,,,,,,,,,,,,,,,,,,,,,,,,,,,,,,,,,,,,,,,,,,,,,,,,,,,,,141.0,141.0,200.0,125.0,125.0,200.0,3.0,3.2,-229,-284,0,1,258,274,504.6617240905762,504.6617646217346,504.66446900367737,504.6762752532959,504.8265368938446,504.8265368938446,504.8265368938446,504.8265368938446,504.8265368938446,504.8265368938446,504.8265368938446,511.42770433425903,2,6.741173982620239,None,,,,,,,,,,,,,,,,,,56,3,2025-02-19_15h54.31.648,comp,2024.2.4,61.85404153093142,2025-02-19 15h54.40.403345 -0500,
106,106,0,filler_random,None,None,None,None,None,None,None,None,None,None,2,1.501155138015747,None,,,,,0,0,0,0,0,106,106,146,511.44322085380554,,,,,,,,,,,,,,,,,,,,,,,,,,,,,,,,,,,,,,,,,,,,,,,,,,,,,,,,,,,,,,,,,,,,,,,,,,,,,,,,,78.16269686988258,68.90545626233784,192.72409786928722,165.18471572231874,127.39925237087441,87.12439828767863,4.0,4.2,-213,4,0,-255,222,-6,511.4286279678345,511.42866802215576,511.43078541755676,511.44322085380554,511.593079328537,511.593079328537,511.593079328537,511.593079328537,511.593079328537,511.593079328537,511.593079328537,512.9608981609344,2,1.501155138015747,None,,,,,,,,,,,,,,,,,,56,3,2025-02-19_15h54.31.648,comp,2024.2.4,61.85404153093142,2025-02-19 15h54.40.403345 -0500,
107,107,0,critical,dhw,35.0,4.0,lower,70.0,70.0,133.0,57.0,57.0,133.0,3,2.0559356212615967,None,,,,,0,0,0,0,0,107,107,52,512.976211309433,,,,,,,,,,,,,,,,,,,,,,,,,,,,,,,,,,,,,,,,,,,,,,,,,,,,,,,,,,,,,,,,,,,,,,,,,,,,,,,,,70.0,70.0,133.0,57.0,57.0,133.0,4.0,4.2,-160,0,0,-265,191,-6,512.961677312851,512.9617183208466,512.9642300605774,512.976211309433,513.1263563632965,513.1263563632965,513.1263563632965,513.1263563632965,513.1263563632965,513.1263563632965,513.1263563632965,515.0443966388702,3,2.0559356212615967,None,,,,,,,,,,,,,,,,,,56,3,2025-02-19_15h54.31.648,comp,2024.2.4,61.85404153093142,2025-02-19 15h54.40.403345 -0500,
108,108,0,filler_random,None,None,None,None,None,None,None,None,None,None,1,3.9581470489501953,None,,,,,0,0,0,0,0,108,108,158,515.0595226287842,,,,,,,,,,,,,,,,,,,,,,,,,,,,,,,,,,,,,,,,,,,,,,,,,,,,,,,,,,,,,,,,,,,,,,,,,,,,,,,,,175.0428462845813,65.5958236023157,66.09103649551886,156.54491406608238,79.1943703776894,110.44947395149906,1.0,1.3,273,-252,480,-250,709,-276,515.0453062057495,515.0453474521637,515.0474398136139,515.0595226287842,515.2097656726837,515.2097656726837,515.2097656726837,515.2097656726837,515.2097656726837,515.2097656726837,515.2097656726837,519.0274872779846,1,3.9581470489501953,None,,,,,,,,,,,,,,,,,,56,3,2025-02-19_15h54.31.648,comp,2024.2.4,61.85404153093142,2025-02-19 15h54.40.403345 -0500,
109,109,0,filler_square,None,None,None,None,None,None,None,None,None,None,1,3.021099328994751,None,,,,,0,0,0,0,0,109,109,191,519.0431888103485,,,,,,,,,,,,,,,,,,,,,,,,,,,,,,,,,,,,,,,,,,,,,,,,,,,,,,,,,,,,,,,,,,,,,,,,,,,,,,,,,123.14798077753295,123.14798077753295,101.46296063309269,73.6678987782811,112.17555666145687,102.34788518244324,3.0,3.1,-194,262,0,1,184,-288,519.0284371376038,519.0284798145294,519.0305926799774,519.0431888103485,519.1930272579193,519.1930272579193,519.1930272579193,519.1930272579193,519.1930272579193,519.1930272579193,519.1930272579193,522.077511548996,1,3.021099328994751,None,,,,,,,,,,,,,,,,,,56,3,2025-02-19_15h54.31.648,comp,2024.2.4,61.85404153093142,2025-02-19 15h54.40.403345 -0500,
110,110,0,critical,dwh,20.0,2.1,lower,78.0,78.0,57.0,133.0,133.0,57.0,3,7.692309856414795,None,,,,,0,0,0,0,0,110,110,30,522.0927565097809,,,,,,,,,,,,,,,,,,,,,,,,,,,,,,,,,,,,,,,,,,,,,,,,,,,,,,,,,,,,,,,,,,,,,,,,,,,,,,,,,78.0,78.0,57.0,133.0,133.0,57.0,2.1,2.11,-202,274,0,266,191,-282,522.0783045291901,522.0783448219299,522.0807383060455,522.0927565097809,522.2428891658783,522.2428891658783,522.2428891658783,522.2428891658783,522.2428891658783,522.2428891658783,522.2428891658783,529.7940580844879,3,7.692309856414795,None,,,,,,,,,,,,,,,,,,56,3,2025-02-19_15h54.31.648,comp,2024.2.4,61.85404153093142,2025-02-19 15h54.40.403345 -0500,
111,111,0,filler_square,None,None,None,None,None,None,None,None,None,None,2,2.0382747650146484,None,,,,,0,0,0,0,0,111,111,185,529.8097875118256,,,,,,,,,,,,,,,,,,,,,,,,,,,,,,,,,,,,,,,,,,,,,,,,,,,,,,,,,,,,,,,,,,,,,,,,,,,,,,,,,59.69411225491952,67.51694454444373,75.94016929310246,75.94016929310246,73.85535591419082,74.82200822420896,4.0,4.2,-168,10,0,-278,171,-1,529.795045375824,529.7950875759125,529.7976455688477,529.8097875118256,529.9594640731812,529.9594640731812,529.9594640731812,529.9594640731812,529.9594640731812,529.9594640731812,529.9594640731812,531.8607490062714,2,2.0382747650146484,None,,,,,,,,,,,,,,,,,,56,3,2025-02-19_15h54.31.648,comp,2024.2.4,61.85404153093142,2025-02-19 15h54.40.403345 -0500,
112,112,0,critical,hdw,35.0,3.0,upper,200.0,125.0,127.0,127.0,125.0,200.0,3,2.187971591949463,None,,,,,0,0,0,0,0,112,112,111,531.8761887550354,,,,,,,,,,,,,,,,,,,,,,,,,,,,,,,,,,,,,,,,,,,,,,,,,,,,,,,,,,,,,,,,,,,,,,,,,,,,,,,,,200.0,125.0,127.0,127.0,125.0,200.0,3.0,3.2,-222,-263,0,9,260,271,531.8615701198578,531.8616108894348,531.8641746044159,531.8761887550354,532.026385307312,532.026385307312,532.026385307312,532.026385307312,532.026385307312,532.026385307312,532.026385307312,534.077526807785,3,2.187971591949463,None,,,,,,,,,,,,,,,,,,56,3,2025-02-19_15h54.31.648,comp,2024.2.4,61.85404153093142,2025-02-19 15h54.40.403345 -0500,
113,113,0,critical,hdw,20.0,1.0,upper,200.0,125.0,141.0,141.0,125.0,200.0,1,3.867436170578003,None,,,,,0,0,0,0,0,113,113,115,534.0927724838257,,,,,,,,,,,,,,,,,,,,,,,,,,,,,,,,,,,,,,,,,,,,,,,,,,,,,,,,,,,,,,,,,,,,,,,,,,,,,,,,,200.0,125.0,141.0,141.0,125.0,200.0,1.0,1.2,-229,6,0,-18,266,11,534.0783035755157,534.0783448219299,534.0807089805603,534.0927724838257,534.2430326938629,534.2430326938629,534.2430326938629,534.2430326938629,534.2430326938629,534.2430326938629,534.2430326938629,537.9775755405426,1,3.867436170578003,None,,,,,,,,,,,,,,,,,,56,3,2025-02-19_15h54.31.648,comp,2024.2.4,61.85404153093142,2025-02-19 15h54.40.403345 -0500,
114,114,0,filler_random,None,None,None,None,None,None,None,None,None,None,2,1.8005192279815674,None,,,,,0,0,0,0,0,114,114,137,537.9926736354828,,,,,,,,,,,,,,,,,,,,,,,,,,,,,,,,,,,,,,,,,,,,,,,,,,,,,,,,,,,,,,,,,,,,,,,,,,,,,,,,,91.86880021569935,135.90264693475498,107.652220069706,181.98664952598278,106.97045798828422,100.16622580343277,4.0,4.2,-255,-5,0,-257,237,-1,537.9784700870514,537.9785108566284,537.9809424877167,537.9926736354828,538.1429779529572,538.1429779529572,538.1429779529572,538.1429779529572,538.1429779529572,538.1429779529572,538.1429779529572,539.8107118606567,2,1.8005192279815674,None,,,,,,,,,,,,,,,,,,56,3,2025-02-19_15h54.31.648,comp,2024.2.4,61.85404153093142,2025-02-19 15h54.40.403345 -0500,
115,115,0,critical,dhw,20.0,2.1,lower,78.0,78.0,133.0,57.0,57.0,133.0,3,2.7751967906951904,None,,,,,0,0,0,0,0,115,115,26,539.8260593414307,,,,,,,,,,,,,,,,,,,,,,,,,,,,,,,,,,,,,,,,,,,,,,,,,,,,,,,,,,,,,,,,,,,,,,,,,,,,,,,,,78.0,78.0,133.0,57.0,57.0,133.0,2.1,2.11,-164,260,0,264,191,-256,539.8115117549896,539.8115530014038,539.8139495849609,539.8260593414307,539.9761126041412,539.9761126041412,539.9761126041412,539.9761126041412,539.9761126041412,539.9761126041412,539.9761126041412,542.6105587482452,3,2.7751967906951904,None,,,,,,,,,,,,,,,,,,56,3,2025-02-19_15h54.31.648,comp,2024.2.4,61.85404153093142,2025-02-19 15h54.40.403345 -0500,
116,116,0,critical,whd,20.0,2.1,upper,125.0,200.0,200.0,125.0,141.0,141.0,2,2.621633529663086,None,,,,,0,0,0,0,0,116,116,39,542.6263461112976,,,,,,,,,,,,,,,,,,,,,,,,,,,,,,,,,,,,,,,,,,,,,,,,,,,,,,,,,,,,,,,,,,,,,,,,,,,,,,,,,125.0,200.0,200.0,125.0,141.0,141.0,2.1,2.11,-258,290,0,274,229,-270,542.6113793849945,542.6114211082458,542.6138114929199,542.6263461112976,542.776340007782,542.776340007782,542.776340007782,542.776340007782,542.776340007782,542.776340007782,542.776340007782,545.260849237442,2,2.621633529663086,None,,,,,,,,,,,,,,,,,,56,3,2025-02-19_15h54.31.648,comp,2024.2.4,61.85404153093142,2025-02-19 15h54.40.403345 -0500,
117,117,0,critical,wdh,35.0,4.0,lower,57.0,133.0,70.0,70.0,133.0,57.0,1,2.0927584171295166,None,,,,,0,0,0,0,0,117,117,76,545.2761294841766,,,,,,,,,,,,,,,,,,,,,,,,,,,,,,,,,,,,,,,,,,,,,,,,,,,,,,,,,,,,,,,,,,,,,,,,,,,,,,,,,57.0,133.0,70.0,70.0,133.0,57.0,4.0,4.1,-198,-253,0,9,160,-270,545.2616536617279,545.2616949081421,545.2642209529877,545.2761294841766,545.4260764122009,545.4260764122009,545.4260764122009,545.4260764122009,545.4260764122009,545.4260764122009,545.4260764122009,547.377133846283,1,2.0927584171295166,None,,,,,,,,,,,,,,,,,,56,3,2025-02-19_15h54.31.648,comp,2024.2.4,61.85404153093142,2025-02-19 15h54.40.403345 -0500,
118,118,0,critical,dwh,35.0,3.0,lower,70.0,70.0,57.0,133.0,133.0,57.0,2,1.5841784477233887,None,,,,,0,0,0,0,0,118,118,62,547.3929767608643,,,,,,,,,,,,,,,,,,,,,,,,,,,,,,,,,,,,,,,,,,,,,,,,,,,,,,,,,,,,,,,,,,,,,,,,,,,,,,,,,70.0,70.0,57.0,133.0,133.0,57.0,3.0,3.2,-198,-266,0,19,191,269,547.3779330253601,547.3779740333557,547.3802733421326,547.3929767608643,547.5427560806274,547.5427560806274,547.5427560806274,547.5427560806274,547.5427560806274,547.5427560806274,547.5427560806274,548.9783225059509,2,1.5841784477233887,None,,,,,,,,,,,,,,,,,,56,3,2025-02-19_15h54.31.648,comp,2024.2.4,61.85404153093142,2025-02-19 15h54.40.403345 -0500,
119,119,0,critical,wdh,35.0,2.1,lower,57.0,133.0,70.0,70.0,133.0,57.0,1,4.55951452255249,None,,,,,0,0,0,0,0,119,119,32,548.9933662414551,,,,,,,,,,,,,,,,,,,,,,,,,,,,,,,,,,,,,,,,,,,,,,,,,,,,,,,,,,,,,,,,,,,,,,,,,,,,,,,,,57.0,133.0,70.0,70.0,133.0,57.0,2.1,2.12,-198,-273,0,-256,160,272,548.9791076183319,548.9791486263275,548.9811961650848,548.9933662414551,549.1434781551361,549.1434781551361,549.1434781551361,549.1434781551361,549.1434781551361,549.1434781551361,549.1434781551361,553.5604610443115,1,4.55951452255249,None,,,,,,,,,,,,,,,,,,56,3,2025-02-19_15h54.31.648,comp,2024.2.4,61.85404153093142,2025-02-19 15h54.40.403345 -0500,
120,120,0,filler_square,None,None,None,None,None,None,None,None,None,None,1,4.304422378540039,None,,,,,0,0,0,0,0,120,120,190,553.5762128829956,,,,,,,,,,,,,,,,,,,,,,,,,,,,,,,,,,,,,,,,,,,,,,,,,,,,,,,,,,,,,,,,,,,,,,,,,,,,,,,,,73.59054132146174,73.59054132146174,61.17253852188846,68.27019679454948,58.10970004728522,72.59734817400755,4.0,4.1,-167,-256,0,5,166,-265,553.56143450737,553.5614767074585,553.5636069774628,553.5762128829956,553.7260525226593,553.7260525226593,553.7260525226593,553.7260525226593,553.7260525226593,553.7260525226593,553.7260525226593,557.8938624858856,1,4.304422378540039,None,,,,,,,,,,,,,,,,,,56,3,2025-02-19_15h54.31.648,comp,2024.2.4,61.85404153093142,2025-02-19 15h54.40.403345 -0500,
121,121,0,filler_square,None,None,None,None,None,None,None,None,None,None,1,2.308121681213379,None,,,,,0,0,0,0,0,121,121,194,557.9092299938202,,,,,,,,,,,,,,,,,,,,,,,,,,,,,,,,,,,,,,,,,,,,,,,,,,,,,,,,,,,,,,,,,,,,,,,,,,,,,,,,,130.37200436041732,130.37200436041732,85.36284736925882,100.47996504678342,68.59464273047547,123.48454674445611,1.0,1.3,269,-275,480,-287,688,-286,557.8948109149933,557.8948509693146,557.8973548412323,557.9092299938202,558.0595226287842,558.0595226287842,558.0595226287842,558.0595226287842,558.0595226287842,558.0595226287842,558.0595226287842,560.227142572403,1,2.308121681213379,None,,,,,,,,,,,,,,,,,,56,3,2025-02-19_15h54.31.648,comp,2024.2.4,61.85404153093142,2025-02-19 15h54.40.403345 -0500,
122,122,0,critical,whd,35.0,3.0,lower,57.0,133.0,133.0,57.0,70.0,70.0,2,2.2778282165527344,None,,,,,0,0,0,0,0,122,122,86,560.242917060852,,,,,,,,,,,,,,,,,,,,,,,,,,,,,,,,,,,,,,,,,,,,,,,,,,,,,,,,,,,,,,,,,,,,,,,,,,,,,,,,,57.0,133.0,133.0,57.0,70.0,70.0,3.0,3.2,-191,-278,0,19,160,286,560.2279646396637,560.228006362915,560.2302446365356,560.242917060852,560.3927478790283,560.3927478790283,560.3927478790283,560.3927478790283,560.3927478790283,560.3927478790283,560.3927478790283,562.527102470398,2,2.2778282165527344,None,,,,,,,,,,,,,,,,,,56,3,2025-02-19_15h54.31.648,comp,2024.2.4,61.85404153093142,2025-02-19 15h54.40.403345 -0500,
123,123,0,critical,whd,20.0,4.0,lower,57.0,133.0,133.0,57.0,78.0,78.0,1,2.315650224685669,None,,,,,0,0,0,0,0,123,123,94,562.5426962375641,,,,,,,,,,,,,,,,,,,,,,,,,,,,,,,,,,,,,,,,,,,,,,,,,,,,,,,,,,,,,,,,,,,,,,,,,,,,,,,,,57.0,133.0,133.0,57.0,78.0,78.0,4.0,4.1,-191,-265,0,12,164,-277,562.5278608798981,562.5279006958008,562.5300843715668,562.5426962375641,562.6926724910736,562.6926724910736,562.6926724910736,562.6926724910736,562.6926724910736,562.6926724910736,562.6926724910736,564.8604965209961,1,2.315650224685669,None,,,,,,,,,,,,,,,,,,56,3,2025-02-19_15h54.31.648,comp,2024.2.4,61.85404153093142,2025-02-19 15h54.40.403345 -0500,
124,124,0,critical,wdh,20.0,4.0,lower,57.0,133.0,78.0,78.0,133.0,57.0,3,1.4678492546081543,None,,,,,0,0,0,0,0,124,124,82,564.8761224746704,,,,,,,,,,,,,,,,,,,,,,,,,,,,,,,,,,,,,,,,,,,,,,,,,,,,,,,,,,,,,,,,,,,,,,,,,,,,,,,,,57.0,133.0,78.0,78.0,133.0,57.0,4.0,4.1,-202,-289,0,-20,164,-281,564.8613173961639,564.8613574504852,564.863486289978,564.8761224746704,565.0259182453156,565.0259182453156,565.0259182453156,565.0259182453156,565.0259182453156,565.0259182453156,565.0259182453156,566.3604516983032,3,1.4678492546081543,None,,,,,,,,,,,,,,,,,,56,3,2025-02-19_15h54.31.648,comp,2024.2.4,61.85404153093142,2025-02-19 15h54.40.403345 -0500,
125,125,0,filler_square,None,None,None,None,None,None,None,None,None,None,2,1.3449153900146484,None,,,,,0,0,0,0,0,125,125,199,566.3758351802826,,,,,,,,,,,,,,,,,,,,,,,,,,,,,,,,,,,,,,,,,,,,,,,,,,,,,,,,,,,,,,,,,,,,,,,,,,,,,,,,,85.12718482567794,103.57744349735825,187.23727522219505,187.23727522219505,179.98178600770217,107.09873583932148,2.1,2.11,-241,258,0,275,243,-275,566.3613951206207,566.3614361286163,566.3638007640839,566.3758351802826,566.5261313915253,566.5261313915253,566.5261313915253,566.5261313915253,566.5261313915253,566.5261313915253,566.5261313915253,567.7274401187897,2,1.3449153900146484,None,,,,,,,,,,,,,,,,,,56,3,2025-02-19_15h54.31.648,comp,2024.2.4,61.85404153093142,2025-02-19 15h54.40.403345 -0500,
126,126,0,filler_random,None,None,None,None,None,None,None,None,None,None,1,1.450376033782959,None,,,,,0,0,0,0,0,126,126,169,567.7427911758423,,,,,,,,,,,,,,,,,,,,,,,,,,,,,,,,,,,,,,,,,,,,,,,,,,,,,,,,,,,,,,,,,,,,,,,,,,,,,,,,,192.25818022769639,189.77423793200416,155.8277274825127,160.42582889804052,63.536756831685004,146.41176938479555,3.0,3.2,-271,-263,0,-9,249,257,567.7283487319946,567.7283895015717,567.7307741641998,567.7427911758423,567.8930349349976,567.8930349349976,567.8930349349976,567.8930349349976,567.8930349349976,567.8930349349976,567.8930349349976,569.2107050418854,1,1.450376033782959,None,,,,,,,,,,,,,,,,,,56,3,2025-02-19_15h54.31.648,comp,2024.2.4,61.85404153093142,2025-02-19 15h54.40.403345 -0500,
127,127,0,critical,dhw,35.0,2.1,lower,70.0,70.0,133.0,57.0,57.0,133.0,2,1.6547768115997314,None,,,,,0,0,0,0,0,127,127,24,569.2258539199829,,,,,,,,,,,,,,,,,,,,,,,,,,,,,,,,,,,,,,,,,,,,,,,,,,,,,,,,,,,,,,,,,,,,,,,,,,,,,,,,,70.0,70.0,133.0,57.0,57.0,133.0,2.1,2.12,-160,-275,0,-283,191,264,569.2114913463593,569.211531162262,569.2139179706573,569.2258539199829,569.3758542537689,569.3758542537689,569.3758542537689,569.3758542537689,569.3758542537689,569.3758542537689,569.3758542537689,570.8938546180725,2,1.6547768115997314,None,,,,,,,,,,,,,,,,,,56,3,2025-02-19_15h54.31.648,comp,2024.2.4,61.85404153093142,2025-02-19 15h54.40.403345 -0500,
128,128,0,filler_random,None,None,None,None,None,None,None,None,None,None,2,1.8674254417419434,None,,,,,0,0,0,0,0,128,128,130,570.9090986251831,,,,,,,,,,,,,,,,,,,,,,,,,,,,,,,,,,,,,,,,,,,,,,,,,,,,,,,,,,,,,,,,,,,,,,,,,,,,,,,,,85.55319360381066,108.39614021916732,110.87761954768693,118.34363097356362,86.29498548212207,97.35446140086273,2.1,2.12,-209,-255,0,-257,204,254,570.8947381973267,570.8947792053223,570.8969564437866,570.9090986251831,571.0591411590576,571.0591411590576,571.0591411590576,571.0591411590576,571.0591411590576,571.0591411590576,571.0591411590576,572.7937295436859,2,1.8674254417419434,None,,,,,,,,,,,,,,,,,,56,3,2025-02-19_15h54.31.648,comp,2024.2.4,61.85404153093142,2025-02-19 15h54.40.403345 -0500,
129,129,0,critical,whd,35.0,2.1,lower,57.0,133.0,133.0,57.0,70.0,70.0,3,3.2001638412475586,None,,,,,0,0,0,0,0,129,129,12,572.8091895580292,,,,,,,,,,,,,,,,,,,,,,,,,,,,,,,,,,,,,,,,,,,,,,,,,,,,,,,,,,,,,,,,,,,,,,,,,,,,,,,,,57.0,133.0,133.0,57.0,70.0,70.0,2.1,2.12,-191,-261,0,-289,160,256,572.794563293457,572.7946047782898,572.7970967292786,572.8091895580292,572.9591951370239,572.9591951370239,572.9591951370239,572.9591951370239,572.9591951370239,572.9591951370239,572.9591951370239,576.0270071029663,3,3.2001638412475586,None,,,,,,,,,,,,,,,,,,56,3,2025-02-19_15h54.31.648,comp,2024.2.4,61.85404153093142,2025-02-19 15h54.40.403345 -0500,
130,130,0,critical,whd,20.0,1.0,lower,57.0,133.0,133.0,57.0,78.0,78.0,1,2.326127767562866,None,,,,,0,0,0,0,0,130,130,90,576.0425124168396,,,,,,,,,,,,,,,,,,,,,,,,,,,,,,,,,,,,,,,,,,,,,,,,,,,,,,,,,,,,,,,,,,,,,,,,,,,,,,,,,57.0,133.0,133.0,57.0,78.0,78.0,1.0,1.3,289,-279,480,-266,644,-272,576.0278415679932,576.0278823375702,576.0299615859985,576.0425124168396,576.1926198005676,576.1926198005676,576.1926198005676,576.1926198005676,576.1926198005676,576.1926198005676,576.1926198005676,578.3769092559814,1,2.326127767562866,None,,,,,,,,,,,,,,,,,,56,3,2025-02-19_15h54.31.648,comp,2024.2.4,61.85404153093142,2025-02-19 15h54.40.403345 -0500,
131,131,0,filler_square,None,None,None,None,None,None,None,None,None,None,2,10.58359980583191,None,,,,,0,0,0,0,0,131,131,195,578.3927865028381,,,,,,,,,,,,,,,,,,,,,,,,,,,,,,,,,,,,,,,,,,,,,,,,,,,,,,,,,,,,,,,,,,,,,,,,,,,,,,,,,95.10615510016977,78.05335495203451,123.19760585773003,123.19760585773003,85.35729159450118,65.13377379793847,4.0,4.1,-197,-260,0,10,190,-290,578.3778796195984,578.3779211044312,578.3805344104767,578.3927865028381,578.54252576828,578.54252576828,578.54252576828,578.54252576828,578.54252576828,578.54252576828,578.54252576828,588.9937074184418,2,10.58359980583191,None,,,,,,,,,,,,,,,,,,56,3,2025-02-19_15h54.31.648,comp,2024.2.4,61.85404153093142,2025-02-19 15h54.40.403345 -0500,
132,132,0,filler_square,None,None,None,None,None,None,None,None,None,None,2,1.7754387855529785,None,,,,,0,0,0,0,0,132,132,205,589.0090651512146,,,,,,,,,,,,,,,,,,,,,,,,,,,,,,,,,,,,,,,,,,,,,,,,,,,,,,,,,,,,,,,,,,,,,,,,,,,,,,,,,88.66018131470989,115.63575109827785,141.03276174719406,141.03276174719406,135.3797309136785,59.98205387635586,4.0,4.1,-224,-254,0,-6,197,-260,588.9946708679199,588.9947109222412,588.9971401691437,589.0090651512146,589.1593203544617,589.1593203544617,589.1593203544617,589.1593203544617,589.1593203544617,589.1593203544617,589.1593203544617,590.7936985492706,2,1.7754387855529785,None,,,,,,,,,,,,,,,,,,56,3,2025-02-19_15h54.31.648,comp,2024.2.4,61.85404153093142,2025-02-19 15h54.40.403345 -0500,
133,133,0,filler_random,None,None,None,None,None,None,None,None,None,None,3,2.0866386890411377,None,,,,,0,0,0,0,0,133,133,147,590.8093037605286,,,,,,,,,,,,,,,,,,,,,,,,,,,,,,,,,,,,,,,,,,,,,,,,,,,,,,,,,,,,,,,,,,,,,,,,,,,,,,,,,67.52580930248745,63.51898640476985,143.33946206316864,64.6428037409966,88.17369597716156,170.55313250665827,1.0,1.1,-640,290,-480,265,-266,263,590.7946367263794,590.7946801185608,590.7972784042358,590.8093037605286,590.9591073989868,590.9591073989868,590.9591073989868,590.9591073989868,590.9591073989868,590.9591073989868,590.9591073989868,592.9103872776031,3,2.0866386890411377,None,,,,,,,,,,,,,,,,,,56,3,2025-02-19_15h54.31.648,comp,2024.2.4,61.85404153093142,2025-02-19 15h54.40.403345 -0500,
134,134,0,filler_random,None,None,None,None,None,None,None,None,None,None,1,4.417866230010986,None,,,,,0,0,0,0,0,134,134,153,592.9258413314819,,,,,,,,,,,,,,,,,,,,,,,,,,,,,,,,,,,,,,,,,,,,,,,,,,,,,,,,,,,,,,,,,,,,,,,,,,,,,,,,,159.20819276007774,189.25056101965347,188.19625976227363,106.01534564832565,195.05818847178057,123.11855875606058,3.0,3.1,-244,277,0,1,211,-258,592.911328792572,592.911370754242,592.9134843349457,592.9258413314819,593.0760335922241,593.0760335922241,593.0760335922241,593.0760335922241,593.0760335922241,593.0760335922241,593.0760335922241,597.3604745864868,1,4.417866230010986,None,,,,,,,,,,,,,,,,,,56,3,2025-02-19_15h54.31.648,comp,2024.2.4,61.85404153093142,2025-02-19 15h54.40.403345 -0500,
135,135,0,catch,None,None,None,None,None,None,None,None,None,None,1,1.8880739212036133,None,,,,,0,0,0,0,0,135,135,122,597.3757748603821,,,,,,,,,,,,,,,,,,,,,,,,,,,,,,,,,,,,,,,,,,,,,,,,,,,,,,,,,,,,,,,,,,,,,,,,,,,,,,,,,132,193,88,102,72,118,4.0,4.2,-244,5,0,-281,206,-3,597.3615202903748,597.361563205719,597.3636848926544,597.3757748603821,597.5259017944336,597.5259017944336,597.5259017944336,597.5259017944336,597.5259017944336,597.5259017944336,597.5259017944336,599.2770342826843,1,1.8880739212036133,None,,,,,,,,,,,,,,,,,,56,3,2025-02-19_15h54.31.648,comp,2024.2.4,61.85404153093142,2025-02-19 15h54.40.403345 -0500,
136,136,0,filler_random,None,None,None,None,None,None,None,None,None,None,3,1.8923630714416504,None,,,,,0,0,0,0,0,136,136,135,599.2922077178955,,,,,,,,,,,,,,,,,,,,,,,,,,,,,,,,,,,,,,,,,,,,,,,,,,,,,,,,,,,,,,,,,,,,,,,,,,,,,,,,,60.66726034993353,88.78156842738095,150.364706627582,181.3212758039498,148.4051259197872,194.89596470881523,3.0,3.2,-231,-273,0,-8,284,250,599.2779197692871,599.2779586315155,599.2800440788269,599.2922077178955,599.4425423145294,599.4425423145294,599.4425423145294,599.4425423145294,599.4425423145294,599.4425423145294,599.4425423145294,601.1937716007233,3,1.8923630714416504,None,,,,,,,,,,,,,,,,,,56,3,2025-02-19_15h54.31.648,comp,2024.2.4,61.85404153093142,2025-02-19 15h54.40.403345 -0500,
137,137,0,critical,hwd,20.0,1.0,upper,200.0,125.0,125.0,200.0,141.0,141.0,2,2.750683307647705,None,,,,,0,0,0,0,0,137,137,103,601.2092068195343,,,,,,,,,,,,,,,,,,,,,,,,,,,,,,,,,,,,,,,,,,,,,,,,,,,,,,,,,,,,,,,,,,,,,,,,,,,,,,,,,200.0,125.0,125.0,200.0,141.0,141.0,1.0,1.1,-738,255,-480,269,-214,288,601.1946094036102,601.1946504116058,601.1967720985413,601.2092068195343,601.3593130111694,601.3593130111694,601.3593130111694,601.3593130111694,601.3593130111694,601.3593130111694,601.3593130111694,603.9772543907166,2,2.750683307647705,None,,,,,,,,,,,,,,,,,,56,3,2025-02-19_15h54.31.648,comp,2024.2.4,61.85404153093142,2025-02-19 15h54.40.403345 -0500,
138,138,0,critical,whd,20.0,1.0,upper,125.0,200.0,200.0,125.0,141.0,141.0,2,2.160365104675293,None,,,,,0,0,0,0,0,138,138,91,603.9922828674316,,,,,,,,,,,,,,,,,,,,,,,,,,,,,,,,,,,,,,,,,,,,,,,,,,,,,,,,,,,,,,,,,,,,,,,,,,,,,,,,,125.0,200.0,200.0,125.0,141.0,141.0,1.0,1.1,-738,275,-480,258,-251,269,603.9780180454254,603.9780566692352,603.9801251888275,603.9922828674316,604.1426982879639,604.1426982879639,604.1426982879639,604.1426982879639,604.1426982879639,604.1426982879639,604.1426982879639,606.1605179309845,2,2.160365104675293,None,,,,,,,,,,,,,,,,,,56,3,2025-02-19_15h54.31.648,comp,2024.2.4,61.85404153093142,2025-02-19 15h54.40.403345 -0500,
139,139,0,filler_random,None,None,None,None,None,None,None,None,None,None,2,3.016749620437622,None,,,,,0,0,0,0,0,139,139,156,606.1759645938873,,,,,,,,,,,,,,,,,,,,,,,,,,,,,,,,,,,,,,,,,,,,,,,,,,,,,,,,,,,,,,,,,,,,,,,,,,,,,,,,,71.01330533893848,107.51800097180006,155.82979018075463,123.73377669954584,132.9398705652091,140.56268929995346,4.0,4.2,-212,-1,0,-269,228,20,606.1614174842834,606.161459684372,606.1635873317719,606.1759645938873,606.3258764743805,606.3258764743805,606.3258764743805,606.3258764743805,606.3258764743805,606.3258764743805,606.3258764743805,609.2102999687195,2,3.016749620437622,None,,,,,,,,,,,,,,,,,,56,3,2025-02-19_15h54.31.648,comp,2024.2.4,61.85404153093142,2025-02-19 15h54.40.403345 -0500,
140,140,0,filler_random,None,None,None,None,None,None,None,None,None,None,3,1.605891466140747,None,,,,,0,0,0,0,0,140,140,133,609.2256536483765,,,,,,,,,,,,,,,,,,,,,,,,,,,,,,,,,,,,,,,,,,,,,,,,,,,,,,,,,,,,,,,,,,,,,,,,,,,,,,,,,140.3247564084976,67.73735081597489,60.8874705447866,87.84969416401259,190.53682611705813,192.52931298371666,1.0,1.3,306,-286,480,-288,716,-256,609.2112390995026,609.2112817764282,609.2133858203888,609.2256536483765,609.3758628368378,609.3758628368378,609.3758628368378,609.3758628368378,609.3758628368378,609.3758628368378,609.3758628368378,610.8439729213715,3,1.605891466140747,None,,,,,,,,,,,,,,,,,,56,3,2025-02-19_15h54.31.648,comp,2024.2.4,61.85404153093142,2025-02-19 15h54.40.403345 -0500,
