thisN,thisTrialN,thisRepN,effect,order,distance,config,diag,h_1,w_1,h_2,w_2,h_3,w_3,rect_choice.keys,rect_choice.rt,rect_choice.duration,instructions_loop.thisRepN,instructions_loop.thisTrialN,instructions_loop.thisN,instructions_loop.thisIndex,blocks.thisRepN,blocks.thisTrialN,blocks.thisN,blocks.thisIndex,trials.thisRepN,trials.thisTrialN,trials.thisN,trials.thisIndex,thisRow.t,notes,consent.started,agree_button.started,decline_button.started,consent_img.started,mouse.started,consent.stopped,agree_button.numClicks,agree_button.timesOn,agree_button.timesOff,decline_button.numClicks,decline_button.timesOn,decline_button.timesOff,mouse.x,mouse.y,mouse.leftButton,mouse.midButton,mouse.rightButton,mouse.time,mouse.clicked_name,exp_params.started,exp_params.stopped,welcome.started,welcome_text.started,welcome.stopped,instructions_1.started,instructions_1_text_1.started,instructions_1_text_2.started,key_resp.started,instructions_1.stopped,instructions_loop.key_resp.keys,instructions_loop.key_resp.rt,instructions_loop.key_resp.duration,instructions_2.started,instructions_2_text_1.started,instructions_2_text_2.started,key_resp_2.started,instructions_2.stopped,instructions_loop.key_resp_2.keys,instructions_loop.key_resp_2.rt,instructions_loop.key_resp_2.duration,instructions_3.started,instructions_3_text_1.started,r1_instr3.started,r2_instr3.started,r3_instr3.started,r1_instr3_label.started,r2_instr3_label.started,r3_instr3_label.started,instructions_3_text_3.started,instructions_3_text_4.started,key_resp_3.started,instructions_3.stopped,instructions_loop.key_resp_3.keys,instructions_loop.key_resp_3.rt,instructions_loop.key_resp_3.duration,instructions_4.started,instructions_4_text_1.started,instructions_4_text_3.started,instructions_4_text_2.started,key_resp_4.started,instructions_4.stopped,instructions_loop.key_resp_4.keys,instructions_loop.key_resp_4.rt,instructions_loop.key_resp_4.duration,instructions_5.started,instructions_5_text_1.started,instructions_5_text_2.started,key_resp_5.started,instructions_5.stopped,instructions_loop.key_resp_5.keys,instructions_loop.key_resp_5.rt,instructions_loop.key_resp_5.duration,start_exp.started,start_exp_text.started,key_resp_6.started,start_exp.stopped,key_resp_6.keys,key_resp_6.rt,key_resp_6.duration,h_1_tmp,w_1_tmp,h_2_tmp,w_2_tmp,h_3_tmp,w_3_tmp,config_tmp,config_tmp_1,r_1_x,r_1_y,r_2_x,r_2_y,r_3_x,r_3_y,pre_trial.started,pre_trial.stopped,choice_trial.started,rect_choice.started,r_1.started,r_2.started,r_3.started,r_1_label.started,r_2_label.started,r_3_label.started,prompt.started,choice_trial.stopped,trials.rect_choice.keys,trials.rect_choice.rt,trials.rect_choice.duration,end_block.started,end_block_text.started,end_block.stopped,end.started,end_text.started,key_resp_7.started,end.stopped,key_resp_7.keys,key_resp_7.rt,key_resp_7.duration,debriefing.started,debrief_form.started,end_debrief.started,debriefing.stopped,end_debrief.keys,end_debrief.rt,end_debrief.duration,participant,computer,date,expName,psychopyVersion,frameRate,expStart,
,,,,,,,,,,,,,,,,,,,,,,,,,,,,,,,0.015112161636352539,0.0392756462097168,0.0392756462097168,0.0392756462097168,0.014917373657226562,10.37784743309021,1,[10.336184024810791],[10.336206674575806],0,,,[-92.0],[-517.0],[1],[0],[0],[10.362133502960205],['agree_button'],,,,,,,,,,,,,,,,,,,,,,,,,,,,,,,,,,,,,,,,,,,,,,,,,,,,,,,,,,,,,,,,,,,,,,,,,,,,,,,,,,,,,,,,,,,,,,,,,,,,,,,,,,,57,4,2025-02-19_15h57.29.971,comp,2024.2.4,57.784164098438126,2025-02-19 15h57.42.191003 -0500,
,,,,,,,,,,,,,,,,,,,,,,,,,,,,,,,,,,,,,,,,,,,,,,,,,,10.378393650054932,10.378460168838501,,,,,,,,,,,,,,,,,,,,,,,,,,,,,,,,,,,,,,,,,,,,,,,,,,,,,,,,,,,,,,,,,,,,,,,,,,,,,,,,,,,,,,,,,,,,,,,,,,,,,,,,,57,4,2025-02-19_15h57.29.971,comp,2024.2.4,57.784164098438126,2025-02-19 15h57.42.191003 -0500,
,,,,,,,,,,,,,,,,,,,,,,,,,,,,,,,,,,,,,,,,,,,,,,,,,,,,10.378504514694214,10.396476745605469,12.384105682373047,,,,,,,,,,,,,,,,,,,,,,,,,,,,,,,,,,,,,,,,,,,,,,,,,,,,,,,,,,,,,,,,,,,,,,,,,,,,,,,,,,,,,,,,,,,,,,,,,,,,,,57,4,2025-02-19_15h57.29.971,comp,2024.2.4,57.784164098438126,2025-02-19 15h57.42.191003 -0500,
0,0,0,,,,,,,,,,,,,,,0,0,0,0,,,,,,,,,12.40064787864685,,,,,,,,,,,,,,,,,,,,,,,,,,12.385003566741943,12.40064787864685,12.40064787864685,13.884689569473267,16.321871995925903,space,2.4298713207244873,None,16.322016954421997,16.337249040603638,16.337249040603638,17.838443756103516,21.288515090942383,space,3.444183349609375,None,21.28866171836853,21.31934428215027,21.31934428215027,21.31934428215027,21.31934428215027,21.31934428215027,21.31934428215027,21.31934428215027,21.31934428215027,21.31934428215027,22.790446519851685,26.986884593963623,space,4.188015699386597,None,26.987048625946045,27.005478143692017,27.005478143692017,27.005478143692017,28.489444971084595,32.70906400680542,space,4.216358184814453,None,32.70924997329712,32.724610328674316,32.724610328674316,34.21265435218811,34.65641117095947,space,0.4380819797515869,None,34.656607151031494,34.672258377075195,34.672258377075195,35.86204814910889,space,1.1855802536010742,None,,,,,,,,,,,,,,,,,,,,,,,,,,,,,,,,,,,,,,,,,,,,,,,57,4,2025-02-19_15h57.29.971,comp,2024.2.4,57.784164098438126,2025-02-19 15h57.42.191003 -0500,
0,0,0,filler_square,None,None,None,None,None,None,None,None,None,None,2,2.8524105548858643,None,,,,,0,0,0,0,0,0,0,189,35.94138813018799,,,,,,,,,,,,,,,,,,,,,,,,,,,,,,,,,,,,,,,,,,,,,,,,,,,,,,,,,,,,,,,,,,,,,,,,,,,,,,,,,68.41525981518213,163.32600620505784,185.0570702605782,185.0570702605782,113.9948291785454,172.67581833479335,2.2,2.22,-270,268,0,-252,275,-259,35.92437386512756,35.92440700531006,35.92609262466431,35.94138813018799,36.088327407836914,36.088327407836914,36.088327407836914,36.088327407836914,36.088327407836914,36.088327407836914,36.088327407836914,38.81086802482605,2,2.8524105548858643,None,,,,,,,,,,,,,,,,,,57,4,2025-02-19_15h57.29.971,comp,2024.2.4,57.784164098438126,2025-02-19 15h57.42.191003 -0500,
1,1,0,filler_square,None,None,None,None,None,None,None,None,None,None,1,4.744046211242676,None,,,,,0,0,0,0,0,1,1,174,38.83385419845581,,,,,,,,,,,,,,,,,,,,,,,,,,,,,,,,,,,,,,,,,,,,,,,,,,,,,,,,,,,,,,,,,,,,,,,,,,,,,,,,,66.14717464023514,66.14717464023514,63.72996740037304,61.89583059170798,58.7893958568166,64.09342369895202,4.0,4.2,-160,4,0,-251,159,2,38.81276559829712,38.81288290023804,38.81612992286682,38.83385419845581,38.976882219314575,38.976882219314575,38.976882219314575,38.976882219314575,38.976882219314575,38.976882219314575,38.976882219314575,43.592761754989624,1,4.744046211242676,None,,,,,,,,,,,,,,,,,,57,4,2025-02-19_15h57.29.971,comp,2024.2.4,57.784164098438126,2025-02-19 15h57.42.191003 -0500,
2,2,0,critical,dwh,20.0,2.1,lower,78.0,78.0,57.0,133.0,133.0,57.0,3,5.185772180557251,None,,,,,0,0,0,0,0,2,2,6,43.60855674743652,,,,,,,,,,,,,,,,,,,,,,,,,,,,,,,,,,,,,,,,,,,,,,,,,,,,,,,,,,,,,,,,,,,,,,,,,,,,,,,,,78.0,78.0,57.0,133.0,133.0,57.0,2.1,2.12,-202,-268,0,-267,191,269,43.59434962272644,43.5944299697876,43.59769892692566,43.60855674743652,43.744569540023804,43.744569540023804,43.744569540023804,43.744569540023804,43.744569540023804,43.744569540023804,43.744569540023804,48.81298756599426,3,5.185772180557251,None,,,,,,,,,,,,,,,,,,57,4,2025-02-19_15h57.29.971,comp,2024.2.4,57.784164098438126,2025-02-19 15h57.42.191003 -0500,
3,3,0,filler_random,None,None,None,None,None,None,None,None,None,None,3,3.3726558685302734,None,,,,,0,0,0,0,0,3,3,134,48.82908797264099,,,,,,,,,,,,,,,,,,,,,,,,,,,,,,,,,,,,,,,,,,,,,,,,,,,,,,,,,,,,,,,,,,,,,,,,,,,,,,,,,183.84246636054496,61.43564295207722,141.4982015433796,135.98312973646193,140.5655188630522,152.29850876368175,3.0,3.1,-195,260,0,-4,240,-281,48.81480836868286,48.81493878364563,48.818108797073364,48.82908797264099,48.978978633880615,48.978978633880615,48.978978633880615,48.978978633880615,48.978978633880615,48.978978633880615,48.978978633880615,52.21495175361633,3,3.3726558685302734,None,,,,,,,,,,,,,,,,,,57,4,2025-02-19_15h57.29.971,comp,2024.2.4,57.784164098438126,2025-02-19 15h57.42.191003 -0500,
4,4,0,critical,wdh,35.0,2.1,upper,125.0,200.0,127.0,127.0,200.0,125.0,3,5.347432851791382,None,,,,,0,0,0,0,0,4,4,33,52.231032848358154,,,,,,,,,,,,,,,,,,,,,,,,,,,,,,,,,,,,,,,,,,,,,,,,,,,,,,,,,,,,,,,,,,,,,,,,,,,,,,,,,125.0,200.0,127.0,127.0,200.0,125.0,2.1,2.11,-260,266,0,260,222,-284,52.21659517288208,52.2166690826416,52.22046613693237,52.231032848358154,52.37961721420288,52.37961721420288,52.37961721420288,52.37961721420288,52.37961721420288,52.37961721420288,52.37961721420288,57.58440852165222,3,5.347432851791382,None,,,,,,,,,,,,,,,,,,57,4,2025-02-19_15h57.29.971,comp,2024.2.4,57.784164098438126,2025-02-19 15h57.42.191003 -0500,
5,5,0,critical,hwd,20.0,3.0,lower,133.0,57.0,57.0,133.0,78.0,78.0,1,6.561108827590942,None,,,,,0,0,0,0,0,5,5,104,57.60131883621216,,,,,,,,,,,,,,,,,,,,,,,,,,,,,,,,,,,,,,,,,,,,,,,,,,,,,,,,,,,,,,,,,,,,,,,,,,,,,,,,,133.0,57.0,57.0,133.0,78.0,78.0,3.0,3.1,-191,280,0,11,202,-282,57.585965394973755,57.58609199523926,57.589812994003296,57.60131883621216,57.748361110687256,57.748361110687256,57.748361110687256,57.748361110687256,57.748361110687256,57.748361110687256,57.748361110687256,64.16926503181458,1,6.561108827590942,None,,,,,,,,,,,,,,,,,,57,4,2025-02-19_15h57.29.971,comp,2024.2.4,57.784164098438126,2025-02-19 15h57.42.191003 -0500,
6,6,0,critical,whd,20.0,2.1,upper,125.0,200.0,200.0,125.0,141.0,141.0,1,4.12882399559021,None,,,,,0,0,0,0,0,6,6,15,64.1856620311737,,,,,,,,,,,,,,,,,,,,,,,,,,,,,,,,,,,,,,,,,,,,,,,,,,,,,,,,,,,,,,,,,,,,,,,,,,,,,,,,,125.0,200.0,200.0,125.0,141.0,141.0,2.1,2.12,-258,-290,0,-283,229,259,64.17071747779846,64.17079257965088,64.17414355278015,64.1856620311737,64.33610701560974,64.33610701560974,64.33610701560974,64.33610701560974,64.33610701560974,64.33610701560974,64.33610701560974,68.31879115104675,1,4.12882399559021,None,,,,,,,,,,,,,,,,,,57,4,2025-02-19_15h57.29.971,comp,2024.2.4,57.784164098438126,2025-02-19 15h57.42.191003 -0500,
7,7,0,critical,hdw,20.0,4.0,upper,200.0,125.0,141.0,141.0,125.0,200.0,1,6.70691442489624,None,,,,,0,0,0,0,0,7,7,119,68.33493685722351,,,,,,,,,,,,,,,,,,,,,,,,,,,,,,,,,,,,,,,,,,,,,,,,,,,,,,,,,,,,,,,,,,,,,,,,,,,,,,,,,200.0,125.0,141.0,141.0,125.0,200.0,4.0,4.1,-229,-271,0,-9,266,-265,68.32037591934204,68.32045030593872,68.3232569694519,68.33493685722351,68.48673582077026,68.48673582077026,68.48673582077026,68.48673582077026,68.48673582077026,68.48673582077026,68.48673582077026,75.05472683906555,1,6.70691442489624,None,,,,,,,,,,,,,,,,,,57,4,2025-02-19_15h57.29.971,comp,2024.2.4,57.784164098438126,2025-02-19 15h57.42.191003 -0500,
8,8,0,filler_square,None,None,None,None,None,None,None,None,None,None,1,1.922260046005249,None,,,,,0,0,0,0,0,8,8,209,75.07338500022888,,,,,,,,,,,,,,,,,,,,,,,,,,,,,,,,,,,,,,,,,,,,,,,,,,,,,,,,,,,,,,,,,,,,,,,,,,,,,,,,,136.1731278157245,136.1731278157245,103.26892181031599,74.1780451044931,69.53647771120848,129.84283304757065,2.1,2.11,-201,280,0,286,198,-286,75.05647420883179,75.05654788017273,75.05970454216003,75.07338500022888,75.22205376625061,75.22205376625061,75.22205376625061,75.22205376625061,75.22205376625061,75.22205376625061,75.22205376625061,77.00584483146667,1,1.922260046005249,None,,,,,,,,,,,,,,,,,,57,4,2025-02-19_15h57.29.971,comp,2024.2.4,57.784164098438126,2025-02-19 15h57.42.191003 -0500,
9,9,0,filler_random,None,None,None,None,None,None,None,None,None,None,3,1.9634342193603516,None,,,,,0,0,0,0,0,9,9,161,77.02241253852844,,,,,,,,,,,,,,,,,,,,,,,,,,,,,,,,,,,,,,,,,,,,,,,,,,,,,,,,,,,,,,,,,,,,,,,,,,,,,,,,,67.85379842200862,178.77904582358946,171.05244047623182,151.87306972802554,180.8655053266386,136.5711314833738,1.0,1.3,219,-254,480,-254,720,-268,77.00755333900452,77.00763010978699,77.01164364814758,77.02241253852844,77.17426943778992,77.17426943778992,77.17426943778992,77.17426943778992,77.17426943778992,77.17426943778992,77.17426943778992,78.99043154716492,3,1.9634342193603516,None,,,,,,,,,,,,,,,,,,57,4,2025-02-19_15h57.29.971,comp,2024.2.4,57.784164098438126,2025-02-19 15h57.42.191003 -0500,
10,10,0,filler_square,None,None,None,None,None,None,None,None,None,None,1,1.3637495040893555,None,,,,,0,0,0,0,0,10,10,207,79.00641965866089,,,,,,,,,,,,,,,,,,,,,,,,,,,,,,,,,,,,,,,,,,,,,,,,,,,,,,,,,,,,,,,,,,,,,,,,,,,,,,,,,112.58801693703262,112.58801693703262,72.5961033034649,96.79142364242088,57.36364728350578,94.47035738982314,1.0,1.2,-201,3,0,-4,192,1,78.992258310318,78.99233913421631,78.9956865310669,79.00641965866089,79.15859460830688,79.15859460830688,79.15859460830688,79.15859460830688,79.15859460830688,79.15859460830688,79.15859460830688,80.372145652771,1,1.3637495040893555,None,,,,,,,,,,,,,,,,,,57,4,2025-02-19_15h57.29.971,comp,2024.2.4,57.784164098438126,2025-02-19 15h57.42.191003 -0500,
11,11,0,critical,dhw,35.0,2.1,lower,70.0,70.0,133.0,57.0,57.0,133.0,3,2.1824076175689697,None,,,,,0,0,0,0,0,11,11,24,80.38843750953674,,,,,,,,,,,,,,,,,,,,,,,,,,,,,,,,,,,,,,,,,,,,,,,,,,,,,,,,,,,,,,,,,,,,,,,,,,,,,,,,,70.0,70.0,133.0,57.0,57.0,133.0,2.1,2.12,-160,-260,0,-260,191,276,80.37361979484558,80.37369394302368,80.37669157981873,80.38843750953674,80.5424976348877,80.5424976348877,80.5424976348877,80.5424976348877,80.5424976348877,80.5424976348877,80.5424976348877,82.57754278182983,3,2.1824076175689697,None,,,,,,,,,,,,,,,,,,57,4,2025-02-19_15h57.29.971,comp,2024.2.4,57.784164098438126,2025-02-19 15h57.42.191003 -0500,
12,12,0,critical,hwd,20.0,2.1,lower,133.0,57.0,57.0,133.0,78.0,78.0,1,5.528724670410156,None,,,,,0,0,0,0,0,12,12,42,82.5933403968811,,,,,,,,,,,,,,,,,,,,,,,,,,,,,,,,,,,,,,,,,,,,,,,,,,,,,,,,,,,,,,,,,,,,,,,,,,,,,,,,,133.0,57.0,57.0,133.0,78.0,78.0,2.1,2.12,-191,-277,0,-276,202,260,82.57925868034363,82.57934403419495,82.58260345458984,82.5933403968811,82.73999643325806,82.73999643325806,82.73999643325806,82.73999643325806,82.73999643325806,82.73999643325806,82.73999643325806,88.13310885429382,1,5.528724670410156,None,,,,,,,,,,,,,,,,,,57,4,2025-02-19_15h57.29.971,comp,2024.2.4,57.784164098438126,2025-02-19 15h57.42.191003 -0500,
13,13,0,critical,whd,20.0,3.0,lower,57.0,133.0,133.0,57.0,78.0,78.0,2,4.011235952377319,None,,,,,0,0,0,0,0,13,13,92,88.15058469772339,,,,,,,,,,,,,,,,,,,,,,,,,,,,,,,,,,,,,,,,,,,,,,,,,,,,,,,,,,,,,,,,,,,,,,,,,,,,,,,,,57.0,133.0,133.0,57.0,78.0,78.0,3.0,3.1,-191,279,0,-20,164,-286,88.13464212417603,88.13471841812134,88.13753986358643,88.15058469772339,88.29451870918274,88.29451870918274,88.29451870918274,88.29451870918274,88.29451870918274,88.29451870918274,88.29451870918274,92.1765763759613,2,4.011235952377319,None,,,,,,,,,,,,,,,,,,57,4,2025-02-19_15h57.29.971,comp,2024.2.4,57.784164098438126,2025-02-19 15h57.42.191003 -0500,
14,14,0,filler_random,None,None,None,None,None,None,None,None,None,None,3,1.2626676559448242,None,,,,,0,0,0,0,0,14,14,159,92.19554734230042,,,,,,,,,,,,,,,,,,,,,,,,,,,,,,,,,,,,,,,,,,,,,,,,,,,,,,,,,,,,,,,,,,,,,,,,,,,,,,,,,64.63042475417014,82.90724137793394,70.77712277740513,151.2319914269555,167.7659921873467,148.4969290994996,2.1,2.12,-213,-257,0,-267,246,264,92.17823457717896,92.17831015586853,92.18125581741333,92.19554734230042,92.34376382827759,92.34376382827759,92.34376382827759,92.34376382827759,92.34376382827759,92.34376382827759,92.34376382827759,93.4678807258606,3,1.2626676559448242,None,,,,,,,,,,,,,,,,,,57,4,2025-02-19_15h57.29.971,comp,2024.2.4,57.784164098438126,2025-02-19 15h57.42.191003 -0500,
15,15,0,critical,dhw,35.0,1.0,upper,127.0,127.0,200.0,125.0,125.0,200.0,2,4.926486015319824,None,,,,,0,0,0,0,0,15,15,49,93.48390603065491,,,,,,,,,,,,,,,,,,,,,,,,,,,,,,,,,,,,,,,,,,,,,,,,,,,,,,,,,,,,,,,,,,,,,,,,,,,,,,,,,127.0,127.0,200.0,125.0,125.0,200.0,1.0,1.2,-222,-2,0,-19,258,8,93.4694230556488,93.46949791908264,93.47237873077393,93.48390603065491,93.62673759460449,93.62673759460449,93.62673759460449,93.62673759460449,93.62673759460449,93.62673759460449,93.62673759460449,98.41675209999084,2,4.926486015319824,None,,,,,,,,,,,,,,,,,,57,4,2025-02-19_15h57.29.971,comp,2024.2.4,57.784164098438126,2025-02-19 15h57.42.191003 -0500,
16,16,0,critical,hdw,20.0,2.1,lower,133.0,57.0,78.0,78.0,57.0,133.0,1,2.821213960647583,None,,,,,0,0,0,0,0,16,16,22,98.43740105628967,,,,,,,,,,,,,,,,,,,,,,,,,,,,,,,,,,,,,,,,,,,,,,,,,,,,,,,,,,,,,,,,,,,,,,,,,,,,,,,,,133.0,57.0,78.0,78.0,57.0,133.0,2.1,2.12,-164,-264,0,-278,202,273,98.41838002204895,98.41845560073853,98.42170929908752,98.43740105628967,98.58102202415466,98.58102202415466,98.58102202415466,98.58102202415466,98.58102202415466,98.58102202415466,98.58102202415466,101.26571416854858,1,2.821213960647583,None,,,,,,,,,,,,,,,,,,57,4,2025-02-19_15h57.29.971,comp,2024.2.4,57.784164098438126,2025-02-19 15h57.42.191003 -0500,
17,17,0,filler_square,None,None,None,None,None,None,None,None,None,None,2,4.047097682952881,None,,,,,0,0,0,0,0,17,17,177,101.28276753425598,,,,,,,,,,,,,,,,,,,,,,,,,,,,,,,,,,,,,,,,,,,,,,,,,,,,,,,,,,,,,,,,,,,,,,,,,,,,,,,,,150.23966388304376,94.0382690080261,155.7975688516211,155.7975688516211,62.82738201879491,128.86971857999427,4.0,4.1,-221,-277,0,-7,238,-255,101.26779580116272,101.26787877082825,101.27108335494995,101.28276753425598,101.43108677864075,101.43108677864075,101.43108677864075,101.43108677864075,101.43108677864075,101.43108677864075,101.43108677864075,105.34734582901001,2,4.047097682952881,None,,,,,,,,,,,,,,,,,,57,4,2025-02-19_15h57.29.971,comp,2024.2.4,57.784164098438126,2025-02-19 15h57.42.191003 -0500,
18,18,0,catch,None,None,None,None,None,None,None,None,None,None,1,1.166327953338623,None,,,,,0,0,0,0,0,18,18,122,105.3635036945343,,,,,,,,,,,,,,,,,,,,,,,,,,,,,,,,,,,,,,,,,,,,,,,,,,,,,,,,,,,,,,,,,,,,,,,,,,,,,,,,,144,181,121,69,61,129,2.1,2.11,-221,260,0,265,195,-274,105.34919118881226,105.3492693901062,105.35229063034058,105.3635036945343,105.5173008441925,105.5173008441925,105.5173008441925,105.5173008441925,105.5173008441925,105.5173008441925,105.5173008441925,106.53181886672974,1,1.166327953338623,None,,,,,,,,,,,,,,,,,,57,4,2025-02-19_15h57.29.971,comp,2024.2.4,57.784164098438126,2025-02-19 15h57.42.191003 -0500,
19,19,0,filler_random,None,None,None,None,None,None,None,None,None,None,2,3.077932596206665,None,,,,,0,0,0,0,0,19,19,160,106.54825711250305,,,,,,,,,,,,,,,,,,,,,,,,,,,,,,,,,,,,,,,,,,,,,,,,,,,,,,,,,,,,,,,,,,,,,,,,,,,,,,,,,149.03392863814202,119.66223537077428,131.14312297417234,183.01563755658913,100.50003698175108,183.97567136526482,3.0,3.2,-247,-286,0,-9,279,275,106.53357911109924,106.5337028503418,106.53692245483398,106.54825711250305,106.6971275806427,106.6971275806427,106.6971275806427,106.6971275806427,106.6971275806427,106.6971275806427,106.6971275806427,109.63350200653076,2,3.077932596206665,None,,,,,,,,,,,,,,,,,,57,4,2025-02-19_15h57.29.971,comp,2024.2.4,57.784164098438126,2025-02-19 15h57.42.191003 -0500,
20,20,0,critical,wdh,35.0,2.1,upper,125.0,200.0,127.0,127.0,200.0,125.0,3,1.272266149520874,None,,,,,0,0,0,0,0,20,20,9,109.64954996109009,,,,,,,,,,,,,,,,,,,,,,,,,,,,,,,,,,,,,,,,,,,,,,,,,,,,,,,,,,,,,,,,,,,,,,,,,,,,,,,,,125.0,200.0,127.0,127.0,200.0,125.0,2.1,2.12,-260,-283,0,-286,222,251,109.63510155677795,109.63521194458008,109.63877630233765,109.64954996109009,109.79785966873169,109.79785966873169,109.79785966873169,109.79785966873169,109.79785966873169,109.79785966873169,109.79785966873169,110.93409657478333,3,1.272266149520874,None,,,,,,,,,,,,,,,,,,57,4,2025-02-19_15h57.29.971,comp,2024.2.4,57.784164098438126,2025-02-19 15h57.42.191003 -0500,
21,21,0,filler_square,None,None,None,None,None,None,None,None,None,None,1,1.283613681793213,None,,,,,0,0,0,0,0,21,21,195,110.95024681091309,,,,,,,,,,,,,,,,,,,,,,,,,,,,,,,,,,,,,,,,,,,,,,,,,,,,,,,,,,,,,,,,,,,,,,,,,,,,,,,,,129.3702016404817,129.3702016404817,89.17628361473147,116.78165420220441,93.54217931786897,90.9321539330369,1.0,1.2,-219,-7,0,17,200,6,110.93579459190369,110.93589568138123,110.93883943557739,110.95024681091309,111.10085701942444,111.10085701942444,111.10085701942444,111.10085701942444,111.10085701942444,111.10085701942444,111.10085701942444,112.24937891960144,1,1.283613681793213,None,,,,,,,,,,,,,,,,,,57,4,2025-02-19_15h57.29.971,comp,2024.2.4,57.784164098438126,2025-02-19 15h57.42.191003 -0500,
22,22,0,filler_random,None,None,None,None,None,None,None,None,None,None,2,4.193151473999023,None,,,,,0,0,0,0,0,22,22,146,112.26536679267883,,,,,,,,,,,,,,,,,,,,,,,,,,,,,,,,,,,,,,,,,,,,,,,,,,,,,,,,,,,,,,,,,,,,,,,,,,,,,,,,,145.45415440509652,57.76883556627532,88.05404160760351,122.45733998566752,69.94829208496961,66.12405798502063,3.0,3.1,-186,258,0,10,190,-268,112.25104856491089,112.25112342834473,112.25438189506531,112.26536679267883,112.41752433776855,112.41752433776855,112.41752433776855,112.41752433776855,112.41752433776855,112.41752433776855,112.41752433776855,116.47838592529297,2,4.193151473999023,None,,,,,,,,,,,,,,,,,,57,4,2025-02-19_15h57.29.971,comp,2024.2.4,57.784164098438126,2025-02-19 15h57.42.191003 -0500,
23,23,0,critical,wdh,35.0,2.1,lower,57.0,133.0,70.0,70.0,133.0,57.0,3,2.370460271835327,None,,,,,0,0,0,0,0,23,23,32,116.49573636054993,,,,,,,,,,,,,,,,,,,,,,,,,,,,,,,,,,,,,,,,,,,,,,,,,,,,,,,,,,,,,,,,,,,,,,,,,,,,,,,,,57.0,133.0,70.0,70.0,133.0,57.0,2.1,2.11,-198,276,0,274,160,-266,116.47998666763306,116.48005890846252,116.4832832813263,116.49573636054993,116.63537526130676,116.63537526130676,116.63537526130676,116.63537526130676,116.63537526130676,116.63537526130676,116.63537526130676,118.88484239578247,3,2.370460271835327,None,,,,,,,,,,,,,,,,,,57,4,2025-02-19_15h57.29.971,comp,2024.2.4,57.784164098438126,2025-02-19 15h57.42.191003 -0500,
24,24,0,filler_square,None,None,None,None,None,None,None,None,None,None,1,0.9740564823150635,None,,,,,0,0,0,0,0,24,24,199,118.90114903450012,,,,,,,,,,,,,,,,,,,,,,,,,,,,,,,,,,,,,,,,,,,,,,,,,,,,,,,,,,,,,,,,,,,,,,,,,,,,,,,,,164.08272770438444,164.08272770438444,125.32780798039994,139.62419642731646,130.5419630864332,65.02011902254233,3.0,3.2,-248,-283,0,12,198,264,118.88663458824158,118.8867084980011,118.88989567756653,118.90114903450012,119.04111194610596,119.04111194610596,119.04111194610596,119.04111194610596,119.04111194610596,119.04111194610596,119.04111194610596,119.88608312606812,1,0.9740564823150635,None,,,,,,,,,,,,,,,,,,57,4,2025-02-19_15h57.29.971,comp,2024.2.4,57.784164098438126,2025-02-19 15h57.42.191003 -0500,
25,25,0,critical,whd,20.0,1.0,upper,125.0,200.0,200.0,125.0,141.0,141.0,2,1.8286654949188232,None,,,,,0,0,0,0,0,25,25,91,119.90178489685059,,,,,,,,,,,,,,,,,,,,,,,,,,,,,,,,,,,,,,,,,,,,,,,,,,,,,,,,,,,,,,,,,,,,,,,,,,,,,,,,,125.0,200.0,200.0,125.0,141.0,141.0,1.0,1.2,-258,8,0,15,229,-9,119.88762211799622,119.887699842453,119.89099836349487,119.90178489685059,120.05822038650513,120.05822038650513,120.05822038650513,120.05822038650513,120.05822038650513,120.05822038650513,120.05822038650513,121.73708367347717,2,1.8286654949188232,None,,,,,,,,,,,,,,,,,,57,4,2025-02-19_15h57.29.971,comp,2024.2.4,57.784164098438126,2025-02-19 15h57.42.191003 -0500,
26,26,0,critical,whd,35.0,3.0,lower,57.0,133.0,133.0,57.0,70.0,70.0,2,1.833164930343628,None,,,,,0,0,0,0,0,26,26,86,121.75269317626953,,,,,,,,,,,,,,,,,,,,,,,,,,,,,,,,,,,,,,,,,,,,,,,,,,,,,,,,,,,,,,,,,,,,,,,,,,,,,,,,,57.0,133.0,133.0,57.0,70.0,70.0,3.0,3.1,-191,272,0,1,160,-267,121.73857045173645,121.73864555358887,121.74200963973999,121.75269317626953,121.90062308311462,121.90062308311462,121.90062308311462,121.90062308311462,121.90062308311462,121.90062308311462,121.90062308311462,123.60572481155396,2,1.833164930343628,None,,,,,,,,,,,,,,,,,,57,4,2025-02-19_15h57.29.971,comp,2024.2.4,57.784164098438126,2025-02-19 15h57.42.191003 -0500,
27,27,0,critical,whd,35.0,2.1,upper,125.0,200.0,200.0,125.0,127.0,127.0,1,2.2512755393981934,None,,,,,0,0,0,0,0,27,27,13,123.62337279319763,,,,,,,,,,,,,,,,,,,,,,,,,,,,,,,,,,,,,,,,,,,,,,,,,,,,,,,,,,,,,,,,,,,,,,,,,,,,,,,,,125.0,200.0,200.0,125.0,127.0,127.0,2.1,2.12,-258,-279,0,-255,222,290,123.60740876197815,123.60748434066772,123.61088728904724,123.62337279319763,123.77024173736572,123.77024173736572,123.77024173736572,123.77024173736572,123.77024173736572,123.77024173736572,123.77024173736572,125.87857365608215,1,2.2512755393981934,None,,,,,,,,,,,,,,,,,,57,4,2025-02-19_15h57.29.971,comp,2024.2.4,57.784164098438126,2025-02-19 15h57.42.191003 -0500,
28,28,0,filler_random,None,None,None,None,None,None,None,None,None,None,2,1.7548103332519531,None,,,,,0,0,0,0,0,28,28,133,125.89537692070007,,,,,,,,,,,,,,,,,,,,,,,,,,,,,,,,,,,,,,,,,,,,,,,,,,,,,,,,,,,,,,,,,,,,,,,,,,,,,,,,,195.25810294344134,169.51989386560822,153.17474435107135,197.83062272615,87.76086461293076,81.30719130893115,1.0,1.2,-280,-20,0,-7,236,-15,125.88033986091614,125.8804657459259,125.88371229171753,125.89537692070007,126.03857827186584,126.03857827186584,126.03857827186584,126.03857827186584,126.03857827186584,126.03857827186584,126.03857827186584,127.65480446815491,2,1.7548103332519531,None,,,,,,,,,,,,,,,,,,57,4,2025-02-19_15h57.29.971,comp,2024.2.4,57.784164098438126,2025-02-19 15h57.42.191003 -0500,
29,29,0,critical,hdw,20.0,1.0,upper,200.0,125.0,141.0,141.0,125.0,200.0,1,1.4920704364776611,None,,,,,0,0,0,0,0,29,29,115,127.6702492237091,,,,,,,,,,,,,,,,,,,,,,,,,,,,,,,,,,,,,,,,,,,,,,,,,,,,,,,,,,,,,,,,,,,,,,,,,,,,,,,,,200.0,125.0,141.0,141.0,125.0,200.0,1.0,1.2,-229,-8,0,2,266,5,127.65626883506775,127.6563413143158,127.65965986251831,127.6702492237091,127.82540822029114,127.82540822029114,127.82540822029114,127.82540822029114,127.82540822029114,127.82540822029114,127.82540822029114,129.1797592639923,1,1.4920704364776611,None,,,,,,,,,,,,,,,,,,57,4,2025-02-19_15h57.29.971,comp,2024.2.4,57.784164098438126,2025-02-19 15h57.42.191003 -0500,
30,30,0,filler_square,None,None,None,None,None,None,None,None,None,None,3,1.460324764251709,None,,,,,0,0,0,0,0,30,30,198,129.19766187667847,,,,,,,,,,,,,,,,,,,,,,,,,,,,,,,,,,,,,,,,,,,,,,,,,,,,,,,,,,,,,,,,,,,,,,,,,,,,,,,,,65.01026740301204,159.4955024056803,75.44990928339766,137.4635208287025,166.87526298137723,166.87526298137723,1.0,1.1,-724,283,-480,272,-232,274,129.18172025680542,129.18179512023926,129.1849000453949,129.19766187667847,129.33982801437378,129.33982801437378,129.33982801437378,129.33982801437378,129.33982801437378,129.33982801437378,129.33982801437378,130.67604207992554,3,1.460324764251709,None,,,,,,,,,,,,,,,,,,57,4,2025-02-19_15h57.29.971,comp,2024.2.4,57.784164098438126,2025-02-19 15h57.42.191003 -0500,
31,31,0,critical,hdw,35.0,2.1,lower,133.0,57.0,70.0,70.0,57.0,133.0,1,2.3251523971557617,None,,,,,0,0,0,0,0,31,31,20,130.69331884384155,,,,,,,,,,,,,,,,,,,,,,,,,,,,,,,,,,,,,,,,,,,,,,,,,,,,,,,,,,,,,,,,,,,,,,,,,,,,,,,,,133.0,57.0,70.0,70.0,57.0,133.0,2.1,2.12,-160,-266,0,-280,198,282,130.67764401435852,130.67772030830383,130.68070530891418,130.69331884384155,130.84460830688477,130.84460830688477,130.84460830688477,130.84460830688477,130.84460830688477,130.84460830688477,130.84460830688477,133.0250689983368,1,2.3251523971557617,None,,,,,,,,,,,,,,,,,,57,4,2025-02-19_15h57.29.971,comp,2024.2.4,57.784164098438126,2025-02-19 15h57.42.191003 -0500,
32,32,0,critical,dhw,20.0,3.0,upper,141.0,141.0,200.0,125.0,125.0,200.0,3,5.137235164642334,None,,,,,0,0,0,0,0,32,32,57,133.0407338142395,,,,,,,,,,,,,,,,,,,,,,,,,,,,,,,,,,,,,,,,,,,,,,,,,,,,,,,,,,,,,,,,,,,,,,,,,,,,,,,,,141.0,141.0,200.0,125.0,125.0,200.0,3.0,3.1,-229,266,0,9,258,-254,133.0265758037567,133.02665448188782,133.02962923049927,133.0407338142395,133.1906862258911,133.1906862258911,133.1906862258911,133.1906862258911,133.1906862258911,133.1906862258911,133.1906862258911,138.19158697128296,3,5.137235164642334,None,,,,,,,,,,,,,,,,,,57,4,2025-02-19_15h57.29.971,comp,2024.2.4,57.784164098438126,2025-02-19 15h57.42.191003 -0500,
33,33,0,catch,None,None,None,None,None,None,None,None,None,None,2,1.026228904724121,None,,,,,0,0,0,0,0,33,33,126,138.2075915336609,,,,,,,,,,,,,,,,,,,,,,,,,,,,,,,,,,,,,,,,,,,,,,,,,,,,,,,,,,,,,,,,,,,,,,,,,,,,,,,,,110,80,183,142,86,104,4.0,4.1,-207,-283,0,-17,219,-268,138.19346857070923,138.19354462623596,138.19637775421143,138.2075915336609,138.35899353027344,138.35899353027344,138.35899353027344,138.35899353027344,138.35899353027344,138.35899353027344,138.35899353027344,139.24381017684937,2,1.026228904724121,None,,,,,,,,,,,,,,,,,,57,4,2025-02-19_15h57.29.971,comp,2024.2.4,57.784164098438126,2025-02-19 15h57.42.191003 -0500,
34,34,0,critical,hdw,20.0,2.1,upper,200.0,125.0,141.0,141.0,125.0,200.0,3,1.1740527153015137,None,,,,,0,0,0,0,0,34,34,23,139.25989246368408,,,,,,,,,,,,,,,,,,,,,,,,,,,,,,,,,,,,,,,,,,,,,,,,,,,,,,,,,,,,,,,,,,,,,,,,,,,,,,,,,200.0,125.0,141.0,141.0,125.0,200.0,2.1,2.11,-229,264,0,263,266,-284,139.2454056739807,139.24548387527466,139.24852228164673,139.25989246368408,139.408438205719,139.408438205719,139.408438205719,139.408438205719,139.408438205719,139.408438205719,139.408438205719,140.45029640197754,3,1.1740527153015137,None,,,,,,,,,,,,,,,,,,57,4,2025-02-19_15h57.29.971,comp,2024.2.4,57.784164098438126,2025-02-19 15h57.42.191003 -0500,
35,35,0,critical,dhw,35.0,2.1,upper,127.0,127.0,200.0,125.0,125.0,200.0,2,1.1733200550079346,None,,,,,0,0,0,0,0,35,35,1,140.46900057792664,,,,,,,,,,,,,,,,,,,,,,,,,,,,,,,,,,,,,,,,,,,,,,,,,,,,,,,,,,,,,,,,,,,,,,,,,,,,,,,,,127.0,127.0,200.0,125.0,125.0,200.0,2.1,2.11,-222,273,0,268,258,-256,140.45174956321716,140.45182156562805,140.45466256141663,140.46900057792664,140.60958695411682,140.60958695411682,140.60958695411682,140.60958695411682,140.60958695411682,140.60958695411682,140.60958695411682,141.64596009254456,2,1.1733200550079346,None,,,,,,,,,,,,,,,,,,57,4,2025-02-19_15h57.29.971,comp,2024.2.4,57.784164098438126,2025-02-19 15h57.42.191003 -0500,
36,36,0,filler_random,None,None,None,None,None,None,None,None,None,None,2,0.9550271034240723,None,,,,,0,0,0,0,0,36,36,166,141.6643044948578,,,,,,,,,,,,,,,,,,,,,,,,,,,,,,,,,,,,,,,,,,,,,,,,,,,,,,,,,,,,,,,,,,,,,,,,,,,,,,,,,114.06261789000533,144.76071729306716,183.73475620960454,156.99938313349435,121.33949213200599,101.37097865059907,4.0,4.2,-247,9,0,-253,225,-8,141.64775037765503,141.64785504341125,141.65129971504211,141.6643044948578,141.80965209007263,141.80965209007263,141.80965209007263,141.80965209007263,141.80965209007263,141.80965209007263,141.80965209007263,142.6254541873932,2,0.9550271034240723,None,,,,,,,,,,,,,,,,,,57,4,2025-02-19_15h57.29.971,comp,2024.2.4,57.784164098438126,2025-02-19 15h57.42.191003 -0500,
37,37,0,critical,hwd,20.0,4.0,lower,133.0,57.0,57.0,133.0,78.0,78.0,1,1.231217861175537,None,,,,,0,0,0,0,0,37,37,106,142.6429090499878,,,,,,,,,,,,,,,,,,,,,,,,,,,,,,,,,,,,,,,,,,,,,,,,,,,,,,,,,,,,,,,,,,,,,,,,,,,,,,,,,133.0,57.0,57.0,133.0,78.0,78.0,4.0,4.1,-191,-283,0,8,202,-288,142.62702083587646,142.627094745636,142.6306173801422,142.6429090499878,142.79383158683777,142.79383158683777,142.79383158683777,142.79383158683777,142.79383158683777,142.79383158683777,142.79383158683777,143.88509607315063,1,1.231217861175537,None,,,,,,,,,,,,,,,,,,57,4,2025-02-19_15h57.29.971,comp,2024.2.4,57.784164098438126,2025-02-19 15h57.42.191003 -0500,
38,38,0,filler_square,None,None,None,None,None,None,None,None,None,None,1,1.7400987148284912,None,,,,,0,0,0,0,0,38,38,191,143.90180110931396,,,,,,,,,,,,,,,,,,,,,,,,,,,,,,,,,,,,,,,,,,,,,,,,,,,,,,,,,,,,,,,,,,,,,,,,,,,,,,,,,122.34829410754942,122.34829410754942,59.286901776178176,68.45433203993043,72.67290754473689,116.24977842740871,2.1,2.11,-191,256,0,267,188,-270,143.88714838027954,143.88725399971008,143.89037990570068,143.90180110931396,144.04399800300598,144.04399800300598,144.04399800300598,144.04399800300598,144.04399800300598,144.04399800300598,144.04399800300598,145.64408683776855,1,1.7400987148284912,None,,,,,,,,,,,,,,,,,,57,4,2025-02-19_15h57.29.971,comp,2024.2.4,57.784164098438126,2025-02-19 15h57.42.191003 -0500,
39,39,0,critical,dhw,20.0,4.0,lower,78.0,78.0,133.0,57.0,57.0,133.0,3,4.781691312789917,None,,,,,0,0,0,0,0,39,39,58,145.6606113910675,,,,,,,,,,,,,,,,,,,,,,,,,,,,,,,,,,,,,,,,,,,,,,,,,,,,,,,,,,,,,,,,,,,,,,,,,,,,,,,,,78.0,78.0,133.0,57.0,57.0,133.0,4.0,4.1,-164,-259,0,-18,191,-278,145.64564108848572,145.6457211971283,145.64974093437195,145.6606113910675,145.8097231388092,145.8097231388092,145.8097231388092,145.8097231388092,145.8097231388092,145.8097231388092,145.8097231388092,150.4472086429596,3,4.781691312789917,None,,,,,,,,,,,,,,,,,,57,4,2025-02-19_15h57.29.971,comp,2024.2.4,57.784164098438126,2025-02-19 15h57.42.191003 -0500,
40,40,0,filler_square,None,None,None,None,None,None,None,None,None,None,1,1.3941190242767334,None,,,,,0,0,0,0,0,40,40,208,150.46385192871094,,,,,,,,,,,,,,,,,,,,,,,,,,,,,,,,,,,,,,,,,,,,,,,,,,,,,,,,,,,,,,,,,,,,,,,,,,,,,,,,,102.09563607737991,102.09563607737991,60.161820209018536,98.14491704268487,93.08008302408524,67.60331539211592,3.0,3.1,-196,252,0,-10,179,-255,150.4493420124054,150.44942378997803,150.45298075675964,150.46385192871094,150.61851048469543,150.61851048469543,150.61851048469543,150.61851048469543,150.61851048469543,150.61851048469543,150.61851048469543,151.86281776428223,1,1.3941190242767334,None,,,,,,,,,,,,,,,,,,57,4,2025-02-19_15h57.29.971,comp,2024.2.4,57.784164098438126,2025-02-19 15h57.42.191003 -0500,
41,41,0,critical,hdw,20.0,3.0,lower,133.0,57.0,78.0,78.0,57.0,133.0,1,1.570981740951538,None,,,,,0,0,0,0,0,41,41,116,151.879065990448,,,,,,,,,,,,,,,,,,,,,,,,,,,,,,,,,,,,,,,,,,,,,,,,,,,,,,,,,,,,,,,,,,,,,,,,,,,,,,,,,133.0,57.0,78.0,78.0,57.0,133.0,3.0,3.1,-164,262,0,-13,202,-282,151.864520072937,151.86459827423096,151.8683078289032,151.879065990448,152.02775597572327,152.02775597572327,152.02775597572327,152.02775597572327,152.02775597572327,152.02775597572327,152.02775597572327,153.46314358711243,1,1.570981740951538,None,,,,,,,,,,,,,,,,,,57,4,2025-02-19_15h57.29.971,comp,2024.2.4,57.784164098438126,2025-02-19 15h57.42.191003 -0500,
42,42,0,filler_square,None,None,None,None,None,None,None,None,None,None,1,0.802945613861084,None,,,,,0,0,0,0,0,42,42,200,153.47937083244324,,,,,,,,,,,,,,,,,,,,,,,,,,,,,,,,,,,,,,,,,,,,,,,,,,,,,,,,,,,,,,,,,,,,,,,,,,,,,,,,,197.09458253721718,197.09458253721718,173.48179115375473,103.53175148779675,194.6757750610852,58.53541559635118,3.0,3.2,-246,-254,0,19,177,278,153.4649784564972,153.46505331993103,153.46903038024902,153.47937083244324,153.6293261051178,153.6293261051178,153.6293261051178,153.6293261051178,153.6293261051178,153.6293261051178,153.6293261051178,154.30040645599365,1,0.802945613861084,None,,,,,,,,,,,,,,,,,,57,4,2025-02-19_15h57.29.971,comp,2024.2.4,57.784164098438126,2025-02-19 15h57.42.191003 -0500,
43,43,0,critical,whd,20.0,2.1,lower,57.0,133.0,133.0,57.0,78.0,78.0,2,4.148316860198975,None,,,,,0,0,0,0,0,43,43,38,154.31756210327148,,,,,,,,,,,,,,,,,,,,,,,,,,,,,,,,,,,,,,,,,,,,,,,,,,,,,,,,,,,,,,,,,,,,,,,,,,,,,,,,,57.0,133.0,133.0,57.0,78.0,78.0,2.1,2.12,-191,-281,0,-260,164,271,154.301988363266,154.30206441879272,154.30493211746216,154.31756210327148,154.46379828453064,154.46379828453064,154.46379828453064,154.46379828453064,154.46379828453064,154.46379828453064,154.46379828453064,158.4813928604126,2,4.148316860198975,None,,,,,,,,,,,,,,,,,,57,4,2025-02-19_15h57.29.971,comp,2024.2.4,57.784164098438126,2025-02-19 15h57.42.191003 -0500,
44,44,0,filler_random,None,None,None,None,None,None,None,None,None,None,1,2.9133799076080322,None,,,,,0,0,0,0,0,44,44,132,158.49709463119507,,,,,,,,,,,,,,,,,,,,,,,,,,,,,,,,,,,,,,,,,,,,,,,,,,,,,,,,,,,,,,,,,,,,,,,,,,,,,,,,,166.4763882798324,145.67856221463538,130.14677526082986,145.18729448114988,97.99565722652423,130.01956386392555,4.0,4.2,-241,16,0,-284,234,-9,158.48318767547607,158.48326992988586,158.48669743537903,158.49709463119507,158.6519296169281,158.6519296169281,158.6519296169281,158.6519296169281,158.6519296169281,158.6519296169281,158.6519296169281,161.41562795639038,1,2.9133799076080322,None,,,,,,,,,,,,,,,,,,57,4,2025-02-19_15h57.29.971,comp,2024.2.4,57.784164098438126,2025-02-19 15h57.42.191003 -0500,
45,45,0,filler_random,None,None,None,None,None,None,None,None,None,None,2,5.618315696716309,None,,,,,0,0,0,0,0,45,45,147,161.43206572532654,,,,,,,,,,,,,,,,,,,,,,,,,,,,,,,,,,,,,,,,,,,,,,,,,,,,,,,,,,,,,,,,,,,,,,,,,,,,,,,,,92.99425912852845,186.61668320816872,128.15321047547636,195.092981717214,107.13025564407712,88.473653195421,2.1,2.12,-287,-259,0,-259,238,258,161.41720819473267,161.41728520393372,161.4212248325348,161.43206572532654,161.58434557914734,161.58434557914734,161.58434557914734,161.58434557914734,161.58434557914734,161.58434557914734,161.58434557914734,167.06712770462036,2,5.618315696716309,None,,,,,,,,,,,,,,,,,,57,4,2025-02-19_15h57.29.971,comp,2024.2.4,57.784164098438126,2025-02-19 15h57.42.191003 -0500,
46,46,0,filler_random,None,None,None,None,None,None,None,None,None,None,1,1.6796724796295166,None,,,,,0,0,0,0,0,46,46,137,167.0829575061798,,,,,,,,,,,,,,,,,,,,,,,,,,,,,,,,,,,,,,,,,,,,,,,,,,,,,,,,,,,,,,,,,,,,,,,,,,,,,,,,,133.81021914893506,156.95736990568366,75.3041260935874,97.8598221471936,144.64484438458436,85.8274287032288,1.0,1.3,257,-263,480,-285,668,-276,167.06907200813293,167.0691523551941,167.07266521453857,167.0829575061798,167.23296236991882,167.23296236991882,167.23296236991882,167.23296236991882,167.23296236991882,167.23296236991882,167.23296236991882,168.76761198043823,1,1.6796724796295166,None,,,,,,,,,,,,,,,,,,57,4,2025-02-19_15h57.29.971,comp,2024.2.4,57.784164098438126,2025-02-19 15h57.42.191003 -0500,
47,47,0,critical,hwd,35.0,1.0,upper,200.0,125.0,125.0,200.0,127.0,127.0,2,2.586582899093628,None,,,,,0,0,0,0,0,47,47,97,168.78338408470154,,,,,,,,,,,,,,,,,,,,,,,,,,,,,,,,,,,,,,,,,,,,,,,,,,,,,,,,,,,,,,,,,,,,,,,,,,,,,,,,,200.0,125.0,125.0,200.0,127.0,127.0,1.0,1.2,-258,0,0,-15,260,-12,168.76914930343628,168.76928281784058,168.7726423740387,168.78338408470154,168.93271565437317,168.93271565437317,168.93271565437317,168.93271565437317,168.93271565437317,168.93271565437317,168.93271565437317,171.3850862979889,2,2.586582899093628,None,,,,,,,,,,,,,,,,,,57,4,2025-02-19_15h57.29.971,comp,2024.2.4,57.784164098438126,2025-02-19 15h57.42.191003 -0500,
48,48,0,filler_square,None,None,None,None,None,None,None,None,None,None,2,2.02492356300354,None,,,,,0,0,0,0,0,48,48,181,171.4009394645691,,,,,,,,,,,,,,,,,,,,,,,,,,,,,,,,,,,,,,,,,,,,,,,,,,,,,,,,,,,,,,,,,,,,,,,,,,,,,,,,,71.07683250448898,96.95934146783812,143.25278616259692,143.25278616259692,79.40800642319986,126.3574300046014,3.0,3.1,-216,284,0,9,231,-271,171.3872091770172,171.3872880935669,171.3906500339508,171.4009394645691,171.55237364768982,171.55237364768982,171.55237364768982,171.55237364768982,171.55237364768982,171.55237364768982,171.55237364768982,173.4357614517212,2,2.02492356300354,None,,,,,,,,,,,,,,,,,,57,4,2025-02-19_15h57.29.971,comp,2024.2.4,57.784164098438126,2025-02-19 15h57.42.191003 -0500,
49,49,0,filler_random,None,None,None,None,None,None,None,None,None,None,3,2.1812686920166016,None,,,,,0,0,0,0,0,49,49,150,173.45273065567017,,,,,,,,,,,,,,,,,,,,,,,,,,,,,,,,,,,,,,,,,,,,,,,,,,,,,,,,,,,,,,,,,,,,,,,,,,,,,,,,,109.31731625614935,114.76162162488126,85.2500850961141,79.86044219919137,170.69910637209364,66.90221570951604,2.2,2.21,-193,-270,0,273,169,277,173.4376380443573,173.43772959709167,173.441020488739,173.45273065567017,173.60295009613037,173.60295009613037,173.60295009613037,173.60295009613037,173.60295009613037,173.60295009613037,173.60295009613037,175.6531264781952,3,2.1812686920166016,None,,,,,,,,,,,,,,,,,,57,4,2025-02-19_15h57.29.971,comp,2024.2.4,57.784164098438126,2025-02-19 15h57.42.191003 -0500,
50,50,0,critical,whd,35.0,2.1,lower,57.0,133.0,133.0,57.0,70.0,70.0,1,3.7294347286224365,None,,,,,0,0,0,0,0,50,50,36,175.67311215400696,,,,,,,,,,,,,,,,,,,,,,,,,,,,,,,,,,,,,,,,,,,,,,,,,,,,,,,,,,,,,,,,,,,,,,,,,,,,,,,,,57.0,133.0,133.0,57.0,70.0,70.0,2.1,2.11,-191,262,0,270,160,-286,175.65475749969482,175.65483021736145,175.6580741405487,175.67311215400696,175.81999707221985,175.81999707221985,175.81999707221985,175.81999707221985,175.81999707221985,175.81999707221985,175.81999707221985,179.4081506729126,1,3.7294347286224365,None,,,,,,,,,,,,,,,,,,57,4,2025-02-19_15h57.29.971,comp,2024.2.4,57.784164098438126,2025-02-19 15h57.42.191003 -0500,
51,51,0,critical,hwd,35.0,4.0,lower,133.0,57.0,57.0,133.0,70.0,70.0,1,5.518470525741577,None,,,,,0,0,0,0,0,51,51,100,179.42790293693542,,,,,,,,,,,,,,,,,,,,,,,,,,,,,,,,,,,,,,,,,,,,,,,,,,,,,,,,,,,,,,,,,,,,,,,,,,,,,,,,,133.0,57.0,57.0,133.0,70.0,70.0,4.0,4.1,-191,-257,0,7,198,-277,179.4098527431488,179.4099304676056,179.4131989479065,179.42790293693542,179.57375121116638,179.57375121116638,179.57375121116638,179.57375121116638,179.57375121116638,179.57375121116638,179.57375121116638,184.95640516281128,1,5.518470525741577,None,,,,,,,,,,,,,,,,,,57,4,2025-02-19_15h57.29.971,comp,2024.2.4,57.784164098438126,2025-02-19 15h57.42.191003 -0500,
52,52,0,filler_random,None,None,None,None,None,None,None,None,None,None,2,1.197885513305664,None,,,,,0,0,0,0,0,52,52,162,184.9725320339203,,,,,,,,,,,,,,,,,,,,,,,,,,,,,,,,,,,,,,,,,,,,,,,,,,,,,,,,,,,,,,,,,,,,,,,,,,,,,,,,,87.56487111768155,151.57590532490448,147.66730968808247,169.84749365478183,82.41233356815789,65.41979987544805,3.0,3.1,-257,259,0,9,214,-252,184.9582850933075,184.95841550827026,184.96176600456238,184.9725320339203,185.12107372283936,185.12107372283936,185.12107372283936,185.12107372283936,185.12107372283936,185.12107372283936,185.12107372283936,186.1742684841156,2,1.197885513305664,None,,,,,,,,,,,,,,,,,,57,4,2025-02-19_15h57.29.971,comp,2024.2.4,57.784164098438126,2025-02-19 15h57.42.191003 -0500,
53,53,0,critical,hwd,20.0,2.1,upper,200.0,125.0,125.0,200.0,141.0,141.0,2,11.531947135925293,None,,,,,0,0,0,0,0,53,53,43,186.18994688987732,,,,,,,,,,,,,,,,,,,,,,,,,,,,,,,,,,,,,,,,,,,,,,,,,,,,,,,,,,,,,,,,,,,,,,,,,,,,,,,,,200.0,125.0,125.0,200.0,141.0,141.0,2.1,2.12,-258,-272,0,-267,266,258,186.17583322525024,186.17590832710266,186.17922258377075,186.18994688987732,186.33622479438782,186.33622479438782,186.33622479438782,186.33622479438782,186.33622479438782,186.33622479438782,186.33622479438782,197.733553647995,2,11.531947135925293,None,,,,,,,,,,,,,,,,,,57,4,2025-02-19_15h57.29.971,comp,2024.2.4,57.784164098438126,2025-02-19 15h57.42.191003 -0500,
54,54,0,critical,hdw,35.0,3.0,lower,133.0,57.0,70.0,70.0,57.0,133.0,1,9.027831315994263,None,,,,,0,0,0,0,0,54,54,110,197.75014853477478,,,,,,,,,,,,,,,,,,,,,,,,,,,,,,,,,,,,,,,,,,,,,,,,,,,,,,,,,,,,,,,,,,,,,,,,,,,,,,,,,133.0,57.0,70.0,70.0,57.0,133.0,3.0,3.1,-160,273,0,-17,198,-287,197.73509001731873,197.7351930141449,197.73851013183594,197.75014853477478,197.89407110214233,197.89407110214233,197.89407110214233,197.89407110214233,197.89407110214233,197.89407110214233,197.89407110214233,206.79914546012878,1,9.027831315994263,None,,,,,,,,,,,,,,,,,,57,4,2025-02-19_15h57.29.971,comp,2024.2.4,57.784164098438126,2025-02-19 15h57.42.191003 -0500,
55,55,0,catch,None,None,None,None,None,None,None,None,None,None,3,1.2254865169525146,None,,,,,0,0,0,0,0,55,55,123,206.8184142112732,,,,,,,,,,,,,,,,,,,,,,,,,,,,,,,,,,,,,,,,,,,,,,,,,,,,,,,,,,,,,,,,,,,,,,,,,,,,,,,,,60,130,108,82,157,168,1.0,1.1,-682,257,-480,257,-259,270,206.80139470100403,206.80147504806519,206.8047993183136,206.8184142112732,206.96338152885437,206.96338152885437,206.96338152885437,206.96338152885437,206.96338152885437,206.96338152885437,206.96338152885437,208.05497360229492,3,1.2254865169525146,None,,,,,,,,,,,,,,,,,,57,4,2025-02-19_15h57.29.971,comp,2024.2.4,57.784164098438126,2025-02-19 15h57.42.191003 -0500,
56,56,0,critical,whd,35.0,2.1,upper,125.0,200.0,200.0,125.0,127.0,127.0,2,8.092819690704346,None,,,,,0,0,0,0,0,56,56,37,208.06977438926697,,,,,,,,,,,,,,,,,,,,,,,,,,,,,,,,,,,,,,,,,,,,,,,,,,,,,,,,,,,,,,,,,,,,,,,,,,,,,,,,,125.0,200.0,200.0,125.0,127.0,127.0,2.1,2.12,-258,-279,0,-269,222,289,208.05660247802734,208.05667996406555,208.05955028533936,208.06977438926697,208.21391344070435,208.21391344070435,208.21391344070435,208.21391344070435,208.21391344070435,208.21391344070435,208.21391344070435,216.17012572288513,2,8.092819690704346,None,,,,,,,,,,,,,,,,,,57,4,2025-02-19_15h57.29.971,comp,2024.2.4,57.784164098438126,2025-02-19 15h57.42.191003 -0500,
57,57,0,filler_square,None,None,None,None,None,None,None,None,None,None,3,1.1686367988586426,None,,,,,0,0,0,0,0,57,57,202,216.18558621406555,,,,,,,,,,,,,,,,,,,,,,,,,,,,,,,,,,,,,,,,,,,,,,,,,,,,,,,,,,,,,,,,,,,,,,,,,,,,,,,,,61.2170728036903,129.45934896415153,93.89966732459811,106.65780730098031,148.48074369599672,148.48074369599672,1.0,1.3,266,-280,480,-261,704,-251,216.17201280593872,216.17209005355835,216.17494773864746,216.18558621406555,216.33199977874756,216.33199977874756,216.33199977874756,216.33199977874756,216.33199977874756,216.33199977874756,216.33199977874756,217.36311531066895,3,1.1686367988586426,None,,,,,,,,,,,,,,,,,,57,4,2025-02-19_15h57.29.971,comp,2024.2.4,57.784164098438126,2025-02-19 15h57.42.191003 -0500,
58,58,0,critical,wdh,20.0,3.0,lower,57.0,133.0,78.0,78.0,133.0,57.0,3,2.542590856552124,None,,,,,0,0,0,0,0,58,58,80,217.37965393066406,,,,,,,,,,,,,,,,,,,,,,,,,,,,,,,,,,,,,,,,,,,,,,,,,,,,,,,,,,,,,,,,,,,,,,,,,,,,,,,,,57.0,133.0,78.0,78.0,133.0,57.0,3.0,3.2,-202,-283,0,17,164,281,217.36457705497742,217.36465096473694,217.3674886226654,217.37965393066406,217.52052283287048,217.52052283287048,217.52052283287048,217.52052283287048,217.52052283287048,217.52052283287048,217.52052283287048,219.93915390968323,3,2.542590856552124,None,,,,,,,,,,,,,,,,,,57,4,2025-02-19_15h57.29.971,comp,2024.2.4,57.784164098438126,2025-02-19 15h57.42.191003 -0500,
59,59,0,catch,None,None,None,None,None,None,None,None,None,None,1,2.8634815216064453,None,,,,,0,0,0,0,0,59,59,124,219.9544837474823,,,,,,,,,,,,,,,,,,,,,,,,,,,,,,,,,,,,,,,,,,,,,,,,,,,,,,,,,,,,,,,,,,,,,,,,,,,,,,,,,157,168,66,124,91,99,4.0,4.1,-242,-258,0,19,208,-265,219.94106197357178,219.94113540649414,219.94397377967834,219.9544837474823,220.10122442245483,220.10122442245483,220.10122442245483,220.10122442245483,220.10122442245483,220.10122442245483,220.10122442245483,222.83401465415955,1,2.8634815216064453,None,,,,,,,,,,,,,,,,,,57,4,2025-02-19_15h57.29.971,comp,2024.2.4,57.784164098438126,2025-02-19 15h57.42.191003 -0500,
60,60,0,filler_square,None,None,None,None,None,None,None,None,None,None,3,1.0933952331542969,None,,,,,0,0,0,0,0,60,60,201,222.85328841209412,,,,,,,,,,,,,,,,,,,,,,,,,,,,,,,,,,,,,,,,,,,,,,,,,,,,,,,,,,,,,,,,,,,,,,,,,,,,,,,,,135.12858445133168,170.02025828857165,92.30156335533937,166.19911081881145,189.87839902622758,189.87839902622758,3.0,3.1,-264,256,0,1,274,-288,222.835795879364,222.83587169647217,222.8388888835907,222.85328841209412,223.0012490749359,223.0012490749359,223.0012490749359,223.0012490749359,223.0012490749359,223.0012490749359,223.0012490749359,223.9506721496582,3,1.0933952331542969,None,,,,,,,,,,,,,,,,,,57,4,2025-02-19_15h57.29.971,comp,2024.2.4,57.784164098438126,2025-02-19 15h57.42.191003 -0500,
61,61,0,critical,hdw,20.0,1.0,lower,133.0,57.0,78.0,78.0,57.0,133.0,1,5.6672422885894775,None,,,,,0,0,0,0,0,61,61,114,223.9667251110077,,,,,,,,,,,,,,,,,,,,,,,,,,,,,,,,,,,,,,,,,,,,,,,,,,,,,,,,,,,,,,,,,,,,,,,,,,,,,,,,,133.0,57.0,78.0,78.0,57.0,133.0,1.0,1.3,316,-288,480,-284,682,-265,223.9522500038147,223.95232772827148,223.95559358596802,223.9667251110077,224.11711955070496,224.11711955070496,224.11711955070496,224.11711955070496,224.11711955070496,224.11711955070496,224.11711955070496,229.63680982589722,1,5.6672422885894775,None,,,,,,,,,,,,,,,,,,57,4,2025-02-19_15h57.29.971,comp,2024.2.4,57.784164098438126,2025-02-19 15h57.42.191003 -0500,
62,62,0,filler_square,None,None,None,None,None,None,None,None,None,None,2,2.461162805557251,None,,,,,0,0,0,0,0,62,62,197,229.65284490585327,,,,,,,,,,,,,,,,,,,,,,,,,,,,,,,,,,,,,,,,,,,,,,,,,,,,,,,,,,,,,,,,,,,,,,,,,,,,,,,,,71.11923167805584,126.76996966933798,168.5601095004137,168.5601095004137,162.57886974689808,142.52109514880738,2.1,2.11,-244,281,0,259,252,-261,229.63860487937927,229.638680934906,229.64198803901672,229.65284490585327,229.80945324897766,229.80945324897766,229.80945324897766,229.80945324897766,229.80945324897766,229.80945324897766,229.80945324897766,232.1251208782196,2,2.461162805557251,None,,,,,,,,,,,,,,,,,,57,4,2025-02-19_15h57.29.971,comp,2024.2.4,57.784164098438126,2025-02-19 15h57.42.191003 -0500,
63,63,0,filler_square,None,None,None,None,None,None,None,None,None,None,2,1.3280797004699707,None,,,,,0,0,0,0,0,63,63,180,232.14609622955322,,,,,,,,,,,,,,,,,,,,,,,,,,,,,,,,,,,,,,,,,,,,,,,,,,,,,,,,,,,,,,,,,,,,,,,,,,,,,,,,,82.38509256320202,59.57491563685182,128.18748479470355,128.18748479470355,80.63670906408261,70.38291945545419,2.2,2.22,-190,288,0,-260,195,-273,232.1270546913147,232.12713384628296,232.13039422035217,232.14609622955322,232.28829646110535,232.28829646110535,232.28829646110535,232.28829646110535,232.28829646110535,232.28829646110535,232.28829646110535,233.48898315429688,2,1.3280797004699707,None,,,,,,,,,,,,,,,,,,57,4,2025-02-19_15h57.29.971,comp,2024.2.4,57.784164098438126,2025-02-19 15h57.42.191003 -0500,
64,64,0,critical,hwd,35.0,4.0,upper,200.0,125.0,125.0,200.0,127.0,127.0,1,4.001274585723877,None,,,,,0,0,0,0,0,64,64,101,233.50469493865967,,,,,,,,,,,,,,,,,,,,,,,,,,,,,,,,,,,,,,,,,,,,,,,,,,,,,,,,,,,,,,,,,,,,,,,,,,,,,,,,,200.0,125.0,125.0,200.0,127.0,127.0,4.0,4.2,-258,6,0,-261,260,-10,233.49060583114624,233.4906804561615,233.4942650794983,233.50469493865967,233.64803218841553,233.64803218841553,233.64803218841553,233.64803218841553,233.64803218841553,233.64803218841553,233.64803218841553,237.52271628379822,1,4.001274585723877,None,,,,,,,,,,,,,,,,,,57,4,2025-02-19_15h57.29.971,comp,2024.2.4,57.784164098438126,2025-02-19 15h57.42.191003 -0500,
65,65,0,filler_square,None,None,None,None,None,None,None,None,None,None,3,2.663858652114868,None,,,,,0,0,0,0,0,65,65,194,237.53889513015747,,,,,,,,,,,,,,,,,,,,,,,,,,,,,,,,,,,,,,,,,,,,,,,,,,,,,,,,,,,,,,,,,,,,,,,,,,,,,,,,,75.69256230450827,70.06373738088011,95.25079450733091,73.51578849639328,104.57578041669466,104.57578041669466,1.0,1.2,-168,-18,0,-10,185,-12,237.524512052536,237.52463626861572,237.52799677848816,237.53889513015747,237.69428205490112,237.69428205490112,237.69428205490112,237.69428205490112,237.69428205490112,237.69428205490112,237.69428205490112,240.20905709266663,3,2.663858652114868,None,,,,,,,,,,,,,,,,,,57,4,2025-02-19_15h57.29.971,comp,2024.2.4,57.784164098438126,2025-02-19 15h57.42.191003 -0500,
66,66,0,critical,dhw,20.0,2.1,lower,78.0,78.0,133.0,57.0,57.0,133.0,2,4.456679821014404,None,,,,,0,0,0,0,0,66,66,26,240.22581577301025,,,,,,,,,,,,,,,,,,,,,,,,,,,,,,,,,,,,,,,,,,,,,,,,,,,,,,,,,,,,,,,,,,,,,,,,,,,,,,,,,78.0,78.0,133.0,57.0,57.0,133.0,2.1,2.11,-164,270,0,262,191,-269,240.210791349411,240.2108771800995,240.21426367759705,240.22581577301025,240.3756709098816,240.3756709098816,240.3756709098816,240.3756709098816,240.3756709098816,240.3756709098816,240.3756709098816,244.69276571273804,2,4.456679821014404,None,,,,,,,,,,,,,,,,,,57,4,2025-02-19_15h57.29.971,comp,2024.2.4,57.784164098438126,2025-02-19 15h57.42.191003 -0500,
67,67,0,critical,hwd,35.0,3.0,upper,200.0,125.0,125.0,200.0,127.0,127.0,1,1.0600683689117432,None,,,,,0,0,0,0,0,67,67,99,244.71055507659912,,,,,,,,,,,,,,,,,,,,,,,,,,,,,,,,,,,,,,,,,,,,,,,,,,,,,,,,,,,,,,,,,,,,,,,,,,,,,,,,,200.0,125.0,125.0,200.0,127.0,127.0,3.0,3.1,-258,254,0,18,260,-274,244.69425773620605,244.69433188438416,244.69753742218018,244.71055507659912,244.85823678970337,244.85823678970337,244.85823678970337,244.85823678970337,244.85823678970337,244.85823678970337,244.85823678970337,245.77875185012817,1,1.0600683689117432,None,,,,,,,,,,,,,,,,,,57,4,2025-02-19_15h57.29.971,comp,2024.2.4,57.784164098438126,2025-02-19 15h57.42.191003 -0500,
68,68,0,critical,hwd,35.0,1.0,lower,133.0,57.0,57.0,133.0,70.0,70.0,2,2.6376736164093018,None,,,,,0,0,0,0,0,68,68,96,245.7962965965271,,,,,,,,,,,,,,,,,,,,,,,,,,,,,,,,,,,,,,,,,,,,,,,,,,,,,,,,,,,,,,,,,,,,,,,,,,,,,,,,,133.0,57.0,57.0,133.0,70.0,70.0,1.0,1.2,-191,10,0,15,198,9,245.7802755832672,245.78035259246826,245.78334307670593,245.7962965965271,245.9387605190277,245.9387605190277,245.9387605190277,245.9387605190277,245.9387605190277,245.9387605190277,245.9387605190277,248.45318722724915,2,2.6376736164093018,None,,,,,,,,,,,,,,,,,,57,4,2025-02-19_15h57.29.971,comp,2024.2.4,57.784164098438126,2025-02-19 15h57.42.191003 -0500,
69,69,0,critical,dwh,20.0,1.0,upper,141.0,141.0,125.0,200.0,200.0,125.0,3,1.5001835823059082,None,,,,,0,0,0,0,0,69,69,67,248.47059655189514,,,,,,,,,,,,,,,,,,,,,,,,,,,,,,,,,,,,,,,,,,,,,,,,,,,,,,,,,,,,,,,,,,,,,,,,,,,,,,,,,141.0,141.0,125.0,200.0,200.0,125.0,1.0,1.2,-266,-7,0,-7,258,18,248.45473742485046,248.45481133460999,248.45803999900818,248.47059655189514,248.6103367805481,248.6103367805481,248.6103367805481,248.6103367805481,248.6103367805481,248.6103367805481,248.6103367805481,249.97677183151245,3,1.5001835823059082,None,,,,,,,,,,,,,,,,,,57,4,2025-02-19_15h57.29.971,comp,2024.2.4,57.784164098438126,2025-02-19 15h57.42.191003 -0500,
70,70,0,critical,dwh,35.0,2.1,lower,70.0,70.0,57.0,133.0,133.0,57.0,3,2.0487992763519287,None,,,,,0,0,0,0,0,70,70,28,249.99326753616333,,,,,,,,,,,,,,,,,,,,,,,,,,,,,,,,,,,,,,,,,,,,,,,,,,,,,,,,,,,,,,,,,,,,,,,,,,,,,,,,,70.0,70.0,57.0,133.0,133.0,57.0,2.1,2.12,-198,-256,0,-265,191,265,249.97844529151917,249.97852230072021,249.98263263702393,249.99326753616333,250.1435787677765,250.1435787677765,250.1435787677765,250.1435787677765,250.1435787677765,250.1435787677765,250.1435787677765,252.05977845191956,3,2.0487992763519287,None,,,,,,,,,,,,,,,,,,57,4,2025-02-19_15h57.29.971,comp,2024.2.4,57.784164098438126,2025-02-19 15h57.42.191003 -0500,
71,71,0,critical,dhw,35.0,2.1,lower,70.0,70.0,133.0,57.0,57.0,133.0,3,1.1324796676635742,None,,,,,0,0,0,0,0,71,71,0,252.07771587371826,,,,,,,,,,,,,,,,,,,,,,,,,,,,,,,,,,,,,,,,,,,,,,,,,,,,,,,,,,,,,,,,,,,,,,,,,,,,,,,,,70.0,70.0,133.0,57.0,57.0,133.0,2.1,2.12,-160,-282,0,-256,191,284,252.06133460998535,252.06143450737,252.06457948684692,252.07771587371826,252.2148871421814,252.2148871421814,252.2148871421814,252.2148871421814,252.2148871421814,252.2148871421814,252.2148871421814,253.22728443145752,3,1.1324796676635742,None,,,,,,,,,,,,,,,,,,57,4,2025-02-19_15h57.29.971,comp,2024.2.4,57.784164098438126,2025-02-19 15h57.42.191003 -0500,
72,72,0,critical,dhw,20.0,1.0,lower,78.0,78.0,133.0,57.0,57.0,133.0,3,2.0229451656341553,None,,,,,0,0,0,0,0,72,72,54,253.2433636188507,,,,,,,,,,,,,,,,,,,,,,,,,,,,,,,,,,,,,,,,,,,,,,,,,,,,,,,,,,,,,,,,,,,,,,,,,,,,,,,,,78.0,78.0,133.0,57.0,57.0,133.0,1.0,1.3,316,-276,480,-264,671,-274,253.2287678718567,253.228839635849,253.23213529586792,253.2433636188507,253.39562249183655,253.39562249183655,253.39562249183655,253.39562249183655,253.39562249183655,253.39562249183655,253.39562249183655,255.2794201374054,3,2.0229451656341553,None,,,,,,,,,,,,,,,,,,57,4,2025-02-19_15h57.29.971,comp,2024.2.4,57.784164098438126,2025-02-19 15h57.42.191003 -0500,
73,73,0,critical,hdw,20.0,4.0,lower,133.0,57.0,78.0,78.0,57.0,133.0,3,2.555560827255249,None,,,,,0,0,0,0,0,73,73,118,255.2950587272644,,,,,,,,,,,,,,,,,,,,,,,,,,,,,,,,,,,,,,,,,,,,,,,,,,,,,,,,,,,,,,,,,,,,,,,,,,,,,,,,,133.0,57.0,78.0,78.0,57.0,133.0,4.0,4.1,-164,-251,0,-19,202,-288,255.2810263633728,255.28112125396729,255.28470921516418,255.2950587272644,255.4453399181366,255.4453399181366,255.4453399181366,255.4453399181366,255.4453399181366,255.4453399181366,255.4453399181366,257.86280250549316,3,2.555560827255249,None,,,,,,,,,,,,,,,,,,57,4,2025-02-19_15h57.29.971,comp,2024.2.4,57.784164098438126,2025-02-19 15h57.42.191003 -0500,
74,74,0,critical,whd,35.0,3.0,upper,125.0,200.0,200.0,125.0,127.0,127.0,1,1.7324326038360596,None,,,,,0,0,0,0,0,74,74,87,257.87814831733704,,,,,,,,,,,,,,,,,,,,,,,,,,,,,,,,,,,,,,,,,,,,,,,,,,,,,,,,,,,,,,,,,,,,,,,,,,,,,,,,,125.0,200.0,200.0,125.0,127.0,127.0,3.0,3.1,-258,274,0,-13,222,-260,257.86448884010315,257.86456632614136,257.86794686317444,257.87814831733704,258.02887868881226,258.02887868881226,258.02887868881226,258.02887868881226,258.02887868881226,258.02887868881226,258.02887868881226,259.6129455566406,1,1.7324326038360596,None,,,,,,,,,,,,,,,,,,57,4,2025-02-19_15h57.29.971,comp,2024.2.4,57.784164098438126,2025-02-19 15h57.42.191003 -0500,
75,75,0,critical,whd,20.0,3.0,upper,125.0,200.0,200.0,125.0,141.0,141.0,2,1.238194465637207,None,,,,,0,0,0,0,0,75,75,93,259.6286599636078,,,,,,,,,,,,,,,,,,,,,,,,,,,,,,,,,,,,,,,,,,,,,,,,,,,,,,,,,,,,,,,,,,,,,,,,,,,,,,,,,125.0,200.0,200.0,125.0,141.0,141.0,3.0,3.2,-258,-254,0,-8,229,273,259.61445593833923,259.6145315170288,259.6179528236389,259.6286599636078,259.7719728946686,259.7719728946686,259.7719728946686,259.7719728946686,259.7719728946686,259.7719728946686,259.7719728946686,260.87323093414307,2,1.238194465637207,None,,,,,,,,,,,,,,,,,,57,4,2025-02-19_15h57.29.971,comp,2024.2.4,57.784164098438126,2025-02-19 15h57.42.191003 -0500,
76,76,0,critical,whd,35.0,4.0,upper,125.0,200.0,200.0,125.0,127.0,127.0,2,1.2555716037750244,None,,,,,0,0,0,0,0,76,76,89,260.89063692092896,,,,,,,,,,,,,,,,,,,,,,,,,,,,,,,,,,,,,,,,,,,,,,,,,,,,,,,,,,,,,,,,,,,,,,,,,,,,,,,,,125.0,200.0,200.0,125.0,127.0,127.0,4.0,4.2,-258,1,0,-269,222,9,260.8747181892395,260.87479186058044,260.8776535987854,260.89063692092896,261.0295124053955,261.0295124053955,261.0295124053955,261.0295124053955,261.0295124053955,261.0295124053955,261.0295124053955,262.148451089859,2,1.2555716037750244,None,,,,,,,,,,,,,,,,,,57,4,2025-02-19_15h57.29.971,comp,2024.2.4,57.784164098438126,2025-02-19 15h57.42.191003 -0500,
77,77,0,critical,whd,20.0,4.0,lower,57.0,133.0,133.0,57.0,78.0,78.0,3,2.2134664058685303,None,,,,,0,0,0,0,0,77,77,94,262.16488099098206,,,,,,,,,,,,,,,,,,,,,,,,,,,,,,,,,,,,,,,,,,,,,,,,,,,,,,,,,,,,,,,,,,,,,,,,,,,,,,,,,57.0,133.0,133.0,57.0,78.0,78.0,4.0,4.1,-191,-261,0,-7,164,-264,262.14988446235657,262.14996361732483,262.15299940109253,262.16488099098206,262.3178472518921,262.3178472518921,262.3178472518921,262.3178472518921,262.3178472518921,262.3178472518921,262.3178472518921,264.39721488952637,3,2.2134664058685303,None,,,,,,,,,,,,,,,,,,57,4,2025-02-19_15h57.29.971,comp,2024.2.4,57.784164098438126,2025-02-19 15h57.42.191003 -0500,
78,78,0,critical,dhw,35.0,3.0,lower,70.0,70.0,133.0,57.0,57.0,133.0,3,7.83332896232605,None,,,,,0,0,0,0,0,78,78,50,264.41671872138977,,,,,,,,,,,,,,,,,,,,,,,,,,,,,,,,,,,,,,,,,,,,,,,,,,,,,,,,,,,,,,,,,,,,,,,,,,,,,,,,,70.0,70.0,133.0,57.0,57.0,133.0,3.0,3.1,-160,266,0,-16,191,-267,264.39866757392883,264.3987445831299,264.4019320011139,264.41671872138977,264.56447076797485,264.56447076797485,264.56447076797485,264.56447076797485,264.56447076797485,264.56447076797485,264.56447076797485,272.2667226791382,3,7.83332896232605,None,,,,,,,,,,,,,,,,,,57,4,2025-02-19_15h57.29.971,comp,2024.2.4,57.784164098438126,2025-02-19 15h57.42.191003 -0500,
79,79,0,filler_square,None,None,None,None,None,None,None,None,None,None,1,1.4243202209472656,None,,,,,0,0,0,0,0,79,79,179,272.2820475101471,,,,,,,,,,,,,,,,,,,,,,,,,,,,,,,,,,,,,,,,,,,,,,,,,,,,,,,,,,,,,,,,,,,,,,,,,,,,,,,,,187.16804076106166,187.16804076106166,68.52984859416851,179.00039986356842,77.87796533829228,97.88759576707409,1.0,1.2,-279,16,0,-7,234,-13,272.2684679031372,272.2685446739197,272.27183985710144,272.2820475101471,272.44249057769775,272.44249057769775,272.44249057769775,272.44249057769775,272.44249057769775,272.44249057769775,272.44249057769775,273.71119022369385,1,1.4243202209472656,None,,,,,,,,,,,,,,,,,,57,4,2025-02-19_15h57.29.971,comp,2024.2.4,57.784164098438126,2025-02-19 15h57.42.191003 -0500,
80,80,0,critical,wdh,20.0,3.0,upper,125.0,200.0,141.0,141.0,200.0,125.0,1,1.5621943473815918,None,,,,,0,0,0,0,0,80,80,81,273.7278184890747,,,,,,,,,,,,,,,,,,,,,,,,,,,,,,,,,,,,,,,,,,,,,,,,,,,,,,,,,,,,,,,,,,,,,,,,,,,,,,,,,125.0,200.0,141.0,141.0,200.0,125.0,3.0,3.2,-266,-252,0,-8,229,271,273.7127408981323,273.712815284729,273.71610379219055,273.7278184890747,273.867990732193,273.867990732193,273.867990732193,273.867990732193,273.867990732193,273.867990732193,273.867990732193,275.3038809299469,1,1.5621943473815918,None,,,,,,,,,,,,,,,,,,57,4,2025-02-19_15h57.29.971,comp,2024.2.4,57.784164098438126,2025-02-19 15h57.42.191003 -0500,
81,81,0,critical,hdw,35.0,2.1,lower,133.0,57.0,70.0,70.0,57.0,133.0,1,2.2250638008117676,None,,,,,0,0,0,0,0,81,81,44,275.32155990600586,,,,,,,,,,,,,,,,,,,,,,,,,,,,,,,,,,,,,,,,,,,,,,,,,,,,,,,,,,,,,,,,,,,,,,,,,,,,,,,,,133.0,57.0,70.0,70.0,57.0,133.0,2.1,2.11,-160,285,0,261,198,-270,275.3055245876312,275.30560088157654,275.30869126319885,275.32155990600586,275.47242617607117,275.47242617607117,275.47242617607117,275.47242617607117,275.47242617607117,275.47242617607117,275.47242617607117,277.5556688308716,1,2.2250638008117676,None,,,,,,,,,,,,,,,,,,57,4,2025-02-19_15h57.29.971,comp,2024.2.4,57.784164098438126,2025-02-19 15h57.42.191003 -0500,
82,82,0,filler_square,None,None,None,None,None,None,None,None,None,None,2,1.2594032287597656,None,,,,,0,0,0,0,0,82,82,187,277.575092792511,,,,,,,,,,,,,,,,,,,,,,,,,,,,,,,,,,,,,,,,,,,,,,,,,,,,,,,,,,,,,,,,,,,,,,,,,,,,,,,,,91.44641501822431,141.5346584835038,147.08972957809027,147.08972957809027,73.55620091271264,99.46094942610523,4.0,4.1,-240,-260,0,15,219,-268,277.55769968032837,277.55778098106384,277.56092071533203,277.575092792511,277.7182273864746,277.7182273864746,277.7182273864746,277.7182273864746,277.7182273864746,277.7182273864746,277.7182273864746,278.85210967063904,2,1.2594032287597656,None,,,,,,,,,,,,,,,,,,57,4,2025-02-19_15h57.29.971,comp,2024.2.4,57.784164098438126,2025-02-19 15h57.42.191003 -0500,
83,83,0,filler_random,None,None,None,None,None,None,None,None,None,None,2,3.5339345932006836,None,,,,,0,0,0,0,0,83,83,143,278.86806559562683,,,,,,,,,,,,,,,,,,,,,,,,,,,,,,,,,,,,,,,,,,,,,,,,,,,,,,,,,,,,,,,,,,,,,,,,,,,,,,,,,78.13023861782582,177.0758485447269,198.18011782451737,59.61666828891486,127.63710254839063,97.04777658272204,2.2,2.21,-214,-271,0,257,174,269,278.85410356521606,278.85423016548157,278.85774779319763,278.86806559562683,279.01913046836853,279.01913046836853,279.01913046836853,279.01913046836853,279.01913046836853,279.01913046836853,279.01913046836853,282.4187364578247,2,3.5339345932006836,None,,,,,,,,,,,,,,,,,,57,4,2025-02-19_15h57.29.971,comp,2024.2.4,57.784164098438126,2025-02-19 15h57.42.191003 -0500,
84,84,0,filler_random,None,None,None,None,None,None,None,None,None,None,1,1.0157325267791748,None,,,,,0,0,0,0,0,84,84,141,282.434828042984,,,,,,,,,,,,,,,,,,,,,,,,,,,,,,,,,,,,,,,,,,,,,,,,,,,,,,,,,,,,,,,,,,,,,,,,,,,,,,,,,199.68360493274156,89.56878899899715,68.00975987799616,108.46467294110317,80.60211294265413,112.44878659258538,2.2,2.21,-195,-269,0,250,206,287,282.42046070098877,282.42053723335266,282.42356133461,282.434828042984,282.58353185653687,282.58353185653687,282.58353185653687,282.58353185653687,282.58353185653687,282.58353185653687,282.58353185653687,283.4696190357208,1,1.0157325267791748,None,,,,,,,,,,,,,,,,,,57,4,2025-02-19_15h57.29.971,comp,2024.2.4,57.784164098438126,2025-02-19 15h57.42.191003 -0500,
85,85,0,filler_square,None,None,None,None,None,None,None,None,None,None,3,1.657750129699707,None,,,,,0,0,0,0,0,85,85,196,283.48826122283936,,,,,,,,,,,,,,,,,,,,,,,,,,,,,,,,,,,,,,,,,,,,,,,,,,,,,,,,,,,,,,,,,,,,,,,,,,,,,,,,,109.22972547632432,66.59212616072794,108.91095036081464,97.57061445254445,117.46252130244375,117.46252130244375,2.2,2.22,-178,266,0,-266,204,-278,283.47132754325867,283.4714004993439,283.47454857826233,283.48826122283936,283.63810205459595,283.63810205459595,283.63810205459595,283.63810205459595,283.63810205459595,283.63810205459595,283.63810205459595,285.15790343284607,3,1.657750129699707,None,,,,,,,,,,,,,,,,,,57,4,2025-02-19_15h57.29.971,comp,2024.2.4,57.784164098438126,2025-02-19 15h57.42.191003 -0500,
86,86,0,critical,dwh,20.0,2.1,lower,78.0,78.0,57.0,133.0,133.0,57.0,3,2.2583932876586914,None,,,,,0,0,0,0,0,86,86,30,285.17609000205994,,,,,,,,,,,,,,,,,,,,,,,,,,,,,,,,,,,,,,,,,,,,,,,,,,,,,,,,,,,,,,,,,,,,,,,,,,,,,,,,,78.0,78.0,57.0,133.0,133.0,57.0,2.1,2.12,-202,-273,0,-282,191,285,285.15954089164734,285.159636259079,285.16283798217773,285.17609000205994,285.3217263221741,285.3217263221741,285.3217263221741,285.3217263221741,285.3217263221741,285.3217263221741,285.3217263221741,287.4392795562744,3,2.2583932876586914,None,,,,,,,,,,,,,,,,,,57,4,2025-02-19_15h57.29.971,comp,2024.2.4,57.784164098438126,2025-02-19 15h57.42.191003 -0500,
87,87,0,critical,whd,35.0,2.1,lower,57.0,133.0,133.0,57.0,70.0,70.0,2,2.4826064109802246,None,,,,,0,0,0,0,0,87,87,12,287.4554588794708,,,,,,,,,,,,,,,,,,,,,,,,,,,,,,,,,,,,,,,,,,,,,,,,,,,,,,,,,,,,,,,,,,,,,,,,,,,,,,,,,57.0,133.0,133.0,57.0,70.0,70.0,2.1,2.11,-191,286,0,270,160,-286,287.4409353733063,287.44101071357727,287.4446449279785,287.4554588794708,287.6099202632904,287.6099202632904,287.6099202632904,287.6099202632904,287.6099202632904,287.6099202632904,287.6099202632904,289.95553517341614,2,2.4826064109802246,None,,,,,,,,,,,,,,,,,,57,4,2025-02-19_15h57.29.971,comp,2024.2.4,57.784164098438126,2025-02-19 15h57.42.191003 -0500,
88,88,0,filler_square,None,None,None,None,None,None,None,None,None,None,3,5.438882350921631,None,,,,,0,0,0,0,0,88,88,183,289.9713056087494,,,,,,,,,,,,,,,,,,,,,,,,,,,,,,,,,,,,,,,,,,,,,,,,,,,,,,,,,,,,,,,,,,,,,,,,,,,,,,,,,61.71412093213077,57.36626119919459,64.28590053596793,62.44765827716558,65.26837910668623,65.26837910668623,2.2,2.21,-156,-282,0,265,160,274,289.95750737190247,289.9575877189636,289.96087288856506,289.9713056087494,290.121200799942,290.121200799942,290.121200799942,290.121200799942,290.121200799942,290.121200799942,290.121200799942,295.4251000881195,3,5.438882350921631,None,,,,,,,,,,,,,,,,,,57,4,2025-02-19_15h57.29.971,comp,2024.2.4,57.784164098438126,2025-02-19 15h57.42.191003 -0500,
89,89,0,critical,dhw,35.0,2.1,upper,127.0,127.0,200.0,125.0,125.0,200.0,2,3.7213244438171387,None,,,,,0,0,0,0,0,89,89,25,295.44113969802856,,,,,,,,,,,,,,,,,,,,,,,,,,,,,,,,,,,,,,,,,,,,,,,,,,,,,,,,,,,,,,,,,,,,,,,,,,,,,,,,,127.0,127.0,200.0,125.0,125.0,200.0,2.1,2.11,-222,262,0,253,258,-262,295.4266366958618,295.42671394348145,295.4308297634125,295.44113969802856,295.5907893180847,295.5907893180847,295.5907893180847,295.5907893180847,295.5907893180847,295.5907893180847,295.5907893180847,299.18015599250793,2,3.7213244438171387,None,,,,,,,,,,,,,,,,,,57,4,2025-02-19_15h57.29.971,comp,2024.2.4,57.784164098438126,2025-02-19 15h57.42.191003 -0500,
90,90,0,critical,dhw,20.0,2.1,upper,141.0,141.0,200.0,125.0,125.0,200.0,2,0.8827037811279297,None,,,,,0,0,0,0,0,90,90,3,299.1998836994171,,,,,,,,,,,,,,,,,,,,,,,,,,,,,,,,,,,,,,,,,,,,,,,,,,,,,,,,,,,,,,,,,,,,,,,,,,,,,,,,,141.0,141.0,200.0,125.0,125.0,200.0,2.1,2.11,-229,254,0,263,258,-270,299.18176436424255,299.18183970451355,299.18512058258057,299.1998836994171,299.334867477417,299.334867477417,299.334867477417,299.334867477417,299.334867477417,299.334867477417,299.334867477417,300.092791557312,2,0.8827037811279297,None,,,,,,,,,,,,,,,,,,57,4,2025-02-19_15h57.29.971,comp,2024.2.4,57.784164098438126,2025-02-19 15h57.42.191003 -0500,
91,91,0,filler_random,None,None,None,None,None,None,None,None,None,None,3,1.5038979053497314,None,,,,,0,0,0,0,0,91,91,138,300.11426997184753,,,,,,,,,,,,,,,,,,,,,,,,,,,,,,,,,,,,,,,,,,,,,,,,,,,,,,,,,,,,,,,,,,,,,,,,,,,,,,,,,158.6092109518044,80.02622117770052,157.14747904772793,81.92164741511525,129.46196792038774,158.69702688132753,2.1,2.11,-177,268,0,283,216,-285,300.0944561958313,300.0945317745209,300.0976803302765,300.11426997184753,300.25872111320496,300.25872111320496,300.25872111320496,300.25872111320496,300.25872111320496,300.25872111320496,300.25872111320496,301.620240688324,3,1.5038979053497314,None,,,,,,,,,,,,,,,,,,57,4,2025-02-19_15h57.29.971,comp,2024.2.4,57.784164098438126,2025-02-19 15h57.42.191003 -0500,
92,92,0,critical,hwd,20.0,3.0,upper,200.0,125.0,125.0,200.0,141.0,141.0,1,3.449659824371338,None,,,,,0,0,0,0,0,92,92,105,301.6406681537628,,,,,,,,,,,,,,,,,,,,,,,,,,,,,,,,,,,,,,,,,,,,,,,,,,,,,,,,,,,,,,,,,,,,,,,,,,,,,,,,,200.0,125.0,125.0,200.0,141.0,141.0,3.0,3.1,-258,263,0,-2,266,-275,301.6217701435089,301.62184500694275,301.6251046657562,301.6406681537628,301.7724335193634,301.7724335193634,301.7724335193634,301.7724335193634,301.7724335193634,301.7724335193634,301.7724335193634,305.09296679496765,1,3.449659824371338,None,,,,,,,,,,,,,,,,,,57,4,2025-02-19_15h57.29.971,comp,2024.2.4,57.784164098438126,2025-02-19 15h57.42.191003 -0500,
93,93,0,catch,None,None,None,None,None,None,None,None,None,None,2,1.0199975967407227,None,,,,,0,0,0,0,0,93,93,129,305.11002111434937,,,,,,,,,,,,,,,,,,,,,,,,,,,,,,,,,,,,,,,,,,,,,,,,,,,,,,,,,,,,,,,,,,,,,,,,,,,,,,,,,62,128,76,114,126,199,4.0,4.1,-217,-260,0,14,252,-264,305.0948886871338,305.0950195789337,305.0982038974762,305.11002111434937,305.2667257785797,305.2667257785797,305.2667257785797,305.2667257785797,305.2667257785797,305.2667257785797,305.2667257785797,306.1476926803589,2,1.0199975967407227,None,,,,,,,,,,,,,,,,,,57,4,2025-02-19_15h57.29.971,comp,2024.2.4,57.784164098438126,2025-02-19 15h57.42.191003 -0500,
94,94,0,critical,hwd,35.0,2.1,lower,133.0,57.0,57.0,133.0,70.0,70.0,2,3.209981679916382,None,,,,,0,0,0,0,0,94,94,40,306.1680648326874,,,,,,,,,,,,,,,,,,,,,,,,,,,,,,,,,,,,,,,,,,,,,,,,,,,,,,,,,,,,,,,,,,,,,,,,,,,,,,,,,133.0,57.0,57.0,133.0,70.0,70.0,2.1,2.11,-191,279,0,274,198,-278,306.1491470336914,306.1492865085602,306.1528317928314,306.1680648326874,306.3113214969635,306.3113214969635,306.3113214969635,306.3113214969635,306.3113214969635,306.3113214969635,306.3113214969635,309.3837320804596,2,3.209981679916382,None,,,,,,,,,,,,,,,,,,57,4,2025-02-19_15h57.29.971,comp,2024.2.4,57.784164098438126,2025-02-19 15h57.42.191003 -0500,
95,95,0,critical,dhw,35.0,1.0,lower,70.0,70.0,133.0,57.0,57.0,133.0,2,1.2194364070892334,None,,,,,0,0,0,0,0,95,95,48,309.3995108604431,,,,,,,,,,,,,,,,,,,,,,,,,,,,,,,,,,,,,,,,,,,,,,,,,,,,,,,,,,,,,,,,,,,,,,,,,,,,,,,,,70.0,70.0,133.0,57.0,57.0,133.0,1.0,1.1,-640,290,-480,250,-289,284,309.38544821739197,309.38555216789246,309.3887438774109,309.3995108604431,309.54523181915283,309.54523181915283,309.54523181915283,309.54523181915283,309.54523181915283,309.54523181915283,309.54523181915283,310.6257531642914,2,1.2194364070892334,None,,,,,,,,,,,,,,,,,,57,4,2025-02-19_15h57.29.971,comp,2024.2.4,57.784164098438126,2025-02-19 15h57.42.191003 -0500,
96,96,0,filler_square,None,None,None,None,None,None,None,None,None,None,3,2.416383981704712,None,,,,,0,0,0,0,0,96,96,188,310.64250087738037,,,,,,,,,,,,,,,,,,,,,,,,,,,,,,,,,,,,,,,,,,,,,,,,,,,,,,,,,,,,,,,,,,,,,,,,,,,,,,,,,92.88073577584572,132.20466214164085,60.99403921884348,143.16180724369116,152.90958820323448,152.90958820323448,3.0,3.2,-234,-286,0,-20,244,288,310.6275691986084,310.62764501571655,310.6304795742035,310.64250087738037,310.779013633728,310.779013633728,310.779013633728,310.779013633728,310.779013633728,310.779013633728,310.779013633728,313.06673550605774,3,2.416383981704712,None,,,,,,,,,,,,,,,,,,57,4,2025-02-19_15h57.29.971,comp,2024.2.4,57.784164098438126,2025-02-19 15h57.42.191003 -0500,
97,97,0,filler_square,None,None,None,None,None,None,None,None,None,None,2,1.621922254562378,None,,,,,0,0,0,0,0,97,97,185,313.0846674442291,,,,,,,,,,,,,,,,,,,,,,,,,,,,,,,,,,,,,,,,,,,,,,,,,,,,,,,,,,,,,,,,,,,,,,,,,,,,,,,,,88.84890993754439,65.14790184499273,129.78507138845634,129.78507138845634,95.29570939222808,99.2491476267237,2.1,2.11,-193,272,0,263,211,-260,313.06863260269165,313.068710565567,313.07161951065063,313.0846674442291,313.2292058467865,313.2292058467865,313.2292058467865,313.2292058467865,313.2292058467865,313.2292058467865,313.2292058467865,314.713525056839,2,1.621922254562378,None,,,,,,,,,,,,,,,,,,57,4,2025-02-19_15h57.29.971,comp,2024.2.4,57.784164098438126,2025-02-19 15h57.42.191003 -0500,
98,98,0,critical,hdw,35.0,2.1,upper,200.0,125.0,127.0,127.0,125.0,200.0,1,3.0336341857910156,None,,,,,0,0,0,0,0,98,98,45,314.72924304008484,,,,,,,,,,,,,,,,,,,,,,,,,,,,,,,,,,,,,,,,,,,,,,,,,,,,,,,,,,,,,,,,,,,,,,,,,,,,,,,,,200.0,125.0,127.0,127.0,125.0,200.0,2.1,2.12,-222,-289,0,-284,260,262,314.71506357192993,314.7151391506195,314.7185320854187,314.72924304008484,314.88387870788574,314.88387870788574,314.88387870788574,314.88387870788574,314.88387870788574,314.88387870788574,314.88387870788574,317.76829648017883,1,3.0336341857910156,None,,,,,,,,,,,,,,,,,,57,4,2025-02-19_15h57.29.971,comp,2024.2.4,57.784164098438126,2025-02-19 15h57.42.191003 -0500,
99,99,0,filler_random,None,None,None,None,None,None,None,None,None,None,3,4.10701847076416,None,,,,,0,0,0,0,0,99,99,140,317.78373098373413,,,,,,,,,,,,,,,,,,,,,,,,,,,,,,,,,,,,,,,,,,,,,,,,,,,,,,,,,,,,,,,,,,,,,,,,,,,,,,,,,74.4531506257417,182.7835671994075,194.5600357337285,77.78863044134658,156.49958517120103,140.12278561968128,1.0,1.1,-706,288,-480,275,-275,260,317.7700867652893,317.77019333839417,317.7730050086975,317.78373098373413,317.9321358203888,317.9321358203888,317.9321358203888,317.9321358203888,317.9321358203888,317.9321358203888,317.9321358203888,321.9000585079193,3,4.10701847076416,None,,,,,,,,,,,,,,,,,,57,4,2025-02-19_15h57.29.971,comp,2024.2.4,57.784164098438126,2025-02-19 15h57.42.191003 -0500,
100,100,0,critical,dwh,20.0,4.0,upper,141.0,141.0,125.0,200.0,200.0,125.0,2,1.1023786067962646,None,,,,,0,0,0,0,0,100,100,71,321.91571402549744,,,,,,,,,,,,,,,,,,,,,,,,,,,,,,,,,,,,,,,,,,,,,,,,,,,,,,,,,,,,,,,,,,,,,,,,,,,,,,,,,141.0,141.0,125.0,200.0,200.0,125.0,4.0,4.2,-266,3,0,-280,258,-13,321.90158224105835,321.90166091918945,321.90493845939636,321.91571402549744,322.0703489780426,322.0703489780426,322.0703489780426,322.0703489780426,322.0703489780426,322.0703489780426,322.0703489780426,323.0349545478821,2,1.1023786067962646,None,,,,,,,,,,,,,,,,,,57,4,2025-02-19_15h57.29.971,comp,2024.2.4,57.784164098438126,2025-02-19 15h57.42.191003 -0500,
101,101,0,filler_random,None,None,None,None,None,None,None,None,None,None,3,1.8080999851226807,None,,,,,0,0,0,0,0,101,101,149,323.0500497817993,,,,,,,,,,,,,,,,,,,,,,,,,,,,,,,,,,,,,,,,,,,,,,,,,,,,,,,,,,,,,,,,,,,,,,,,,,,,,,,,,85.92569362950425,85.23184618513866,104.48177990773678,158.6013816387688,101.31964133503806,133.98516277474826,2.2,2.22,-218,254,0,-281,242,-282,323.03669786453247,323.0367739200592,323.0397481918335,323.0500497817993,323.2022340297699,323.2022340297699,323.2022340297699,323.2022340297699,323.2022340297699,323.2022340297699,323.2022340297699,324.86870527267456,3,1.8080999851226807,None,,,,,,,,,,,,,,,,,,57,4,2025-02-19_15h57.29.971,comp,2024.2.4,57.784164098438126,2025-02-19 15h57.42.191003 -0500,
102,102,0,critical,dwh,20.0,2.1,upper,141.0,141.0,125.0,200.0,200.0,125.0,3,1.4385526180267334,None,,,,,0,0,0,0,0,102,102,7,324.88423681259155,,,,,,,,,,,,,,,,,,,,,,,,,,,,,,,,,,,,,,,,,,,,,,,,,,,,,,,,,,,,,,,,,,,,,,,,,,,,,,,,,141.0,141.0,125.0,200.0,200.0,125.0,2.1,2.11,-266,274,0,261,258,-287,324.87026047706604,324.87035751342773,324.8733718395233,324.88423681259155,325.0396213531494,325.0396213531494,325.0396213531494,325.0396213531494,325.0396213531494,325.0396213531494,325.0396213531494,326.3389835357666,3,1.4385526180267334,None,,,,,,,,,,,,,,,,,,57,4,2025-02-19_15h57.29.971,comp,2024.2.4,57.784164098438126,2025-02-19 15h57.42.191003 -0500,
103,103,0,critical,hwd,20.0,1.0,upper,200.0,125.0,125.0,200.0,141.0,141.0,1,3.767592191696167,None,,,,,0,0,0,0,0,103,103,103,326.3545491695404,,,,,,,,,,,,,,,,,,,,,,,,,,,,,,,,,,,,,,,,,,,,,,,,,,,,,,,,,,,,,,,,,,,,,,,,,,,,,,,,,200.0,125.0,125.0,200.0,141.0,141.0,1.0,1.3,222,-289,480,-272,746,-256,326.34053778648376,326.3406140804291,326.3434545993805,326.3545491695404,326.5004997253418,326.5004997253418,326.5004997253418,326.5004997253418,326.5004997253418,326.5004997253418,326.5004997253418,330.136225938797,1,3.767592191696167,None,,,,,,,,,,,,,,,,,,57,4,2025-02-19_15h57.29.971,comp,2024.2.4,57.784164098438126,2025-02-19 15h57.42.191003 -0500,
104,104,0,critical,whd,20.0,1.0,lower,57.0,133.0,133.0,57.0,78.0,78.0,2,2.680295705795288,None,,,,,0,0,0,0,0,104,104,90,330.1544871330261,,,,,,,,,,,,,,,,,,,,,,,,,,,,,,,,,,,,,,,,,,,,,,,,,,,,,,,,,,,,,,,,,,,,,,,,,,,,,,,,,57.0,133.0,133.0,57.0,78.0,78.0,1.0,1.1,-671,280,-480,289,-316,270,330.13768458366394,330.1377582550049,330.1409204006195,330.1544871330261,330.3016097545624,330.3016097545624,330.3016097545624,330.3016097545624,330.3016097545624,330.3016097545624,330.3016097545624,332.8379473686218,2,2.680295705795288,None,,,,,,,,,,,,,,,,,,57,4,2025-02-19_15h57.29.971,comp,2024.2.4,57.784164098438126,2025-02-19 15h57.42.191003 -0500,
105,105,0,filler_random,None,None,None,None,None,None,None,None,None,None,3,3.315312623977661,None,,,,,0,0,0,0,0,105,105,165,332.85475301742554,,,,,,,,,,,,,,,,,,,,,,,,,,,,,,,,,,,,,,,,,,,,,,,,,,,,,,,,,,,,,,,,,,,,,,,,,,,,,,,,,182.32249767590224,57.22414991043702,149.9501225274023,82.40502487185856,159.5513452912262,109.86437452958981,4.0,4.2,-166,-5,0,-274,192,-7,332.8399329185486,332.8400135040283,332.84338331222534,332.85475301742554,333.00340461730957,333.00340461730957,333.00340461730957,333.00340461730957,333.00340461730957,333.00340461730957,333.00340461730957,336.1866886615753,3,3.315312623977661,None,,,,,,,,,,,,,,,,,,57,4,2025-02-19_15h57.29.971,comp,2024.2.4,57.784164098438126,2025-02-19 15h57.42.191003 -0500,
106,106,0,filler_square,None,None,None,None,None,None,None,None,None,None,1,1.151949167251587,None,,,,,0,0,0,0,0,106,106,171,336.20228695869446,,,,,,,,,,,,,,,,,,,,,,,,,,,,,,,,,,,,,,,,,,,,,,,,,,,,,,,,,,,,,,,,,,,,,,,,,,,,,,,,,146.30186015076396,146.30186015076396,96.01857879823281,78.20572650885924,93.96592694039215,132.10687360252686,1.0,1.3,272,-288,480,-271,681,-275,336.18857765197754,336.18866777420044,336.191969871521,336.20228695869446,336.3547637462616,336.3547637462616,336.3547637462616,336.3547637462616,336.3547637462616,336.3547637462616,336.3547637462616,337.3562505245209,1,1.151949167251587,None,,,,,,,,,,,,,,,,,,57,4,2025-02-19_15h57.29.971,comp,2024.2.4,57.784164098438126,2025-02-19 15h57.42.191003 -0500,
107,107,0,filler_square,None,None,None,None,None,None,None,None,None,None,3,1.5290756225585938,None,,,,,0,0,0,0,0,107,107,184,337.3771276473999,,,,,,,,,,,,,,,,,,,,,,,,,,,,,,,,,,,,,,,,,,,,,,,,,,,,,,,,,,,,,,,,,,,,,,,,,,,,,,,,,97.57965621380586,72.22304506507055,176.6379780432634,57.19883584594402,199.78997853472782,199.78997853472782,2.2,2.21,-161,-281,0,277,224,269,337.35805916786194,337.3581359386444,337.3613266944885,337.3771276473999,337.52000546455383,337.52000546455383,337.52000546455383,337.52000546455383,337.52000546455383,337.52000546455383,337.52000546455383,338.92758202552795,3,1.5290756225585938,None,,,,,,,,,,,,,,,,,,57,4,2025-02-19_15h57.29.971,comp,2024.2.4,57.784164098438126,2025-02-19 15h57.42.191003 -0500,
108,108,0,critical,wdh,20.0,2.1,upper,125.0,200.0,141.0,141.0,200.0,125.0,1,2.841656446456909,None,,,,,0,0,0,0,0,108,108,35,338.9446761608124,,,,,,,,,,,,,,,,,,,,,,,,,,,,,,,,,,,,,,,,,,,,,,,,,,,,,,,,,,,,,,,,,,,,,,,,,,,,,,,,,125.0,200.0,141.0,141.0,200.0,125.0,2.1,2.12,-266,-263,0,-258,229,287,338.9292080402374,338.9292883872986,338.9320795536041,338.9446761608124,339.08878207206726,339.08878207206726,339.08878207206726,339.08878207206726,339.08878207206726,339.08878207206726,339.08878207206726,341.804927110672,1,2.841656446456909,None,,,,,,,,,,,,,,,,,,57,4,2025-02-19_15h57.29.971,comp,2024.2.4,57.784164098438126,2025-02-19 15h57.42.191003 -0500,
109,109,0,filler_square,None,None,None,None,None,None,None,None,None,None,1,0.8336195945739746,None,,,,,0,0,0,0,0,109,109,182,341.8252546787262,,,,,,,,,,,,,,,,,,,,,,,,,,,,,,,,,,,,,,,,,,,,,,,,,,,,,,,,,,,,,,,,,,,,,,,,,,,,,,,,,163.0936517327198,163.0936517327198,61.40758333331189,121.73038167239073,71.89458769263992,137.51050050016025,1.0,1.3,242,-277,480,-284,706,-251,341.8068060874939,341.80693435668945,341.8101906776428,341.8252546787262,341.9713644981384,341.9713644981384,341.9713644981384,341.9713644981384,341.9713644981384,341.9713644981384,341.9713644981384,342.66454315185547,1,0.8336195945739746,None,,,,,,,,,,,,,,,,,,57,4,2025-02-19_15h57.29.971,comp,2024.2.4,57.784164098438126,2025-02-19 15h57.42.191003 -0500,
110,110,0,filler_square,None,None,None,None,None,None,None,None,None,None,3,1.410210371017456,None,,,,,0,0,0,0,0,110,110,206,342.6799690723419,,,,,,,,,,,,,,,,,,,,,,,,,,,,,,,,,,,,,,,,,,,,,,,,,,,,,,,,,,,,,,,,,,,,,,,,,,,,,,,,,122.39218088325902,83.02272043695163,121.13817376182186,73.29857284781377,157.70247444871214,157.70247444871214,2.1,2.12,-174,-253,0,-277,212,276,342.6662516593933,342.6663279533386,342.66909551620483,342.6799690723419,342.8187265396118,342.8187265396118,342.8187265396118,342.8187265396118,342.8187265396118,342.8187265396118,342.8187265396118,344.10586762428284,3,1.410210371017456,None,,,,,,,,,,,,,,,,,,57,4,2025-02-19_15h57.29.971,comp,2024.2.4,57.784164098438126,2025-02-19 15h57.42.191003 -0500,
111,111,0,critical,dwh,35.0,3.0,upper,127.0,127.0,125.0,200.0,200.0,125.0,2,1.6008360385894775,None,,,,,0,0,0,0,0,111,111,63,344.1214027404785,,,,,,,,,,,,,,,,,,,,,,,,,,,,,,,,,,,,,,,,,,,,,,,,,,,,,,,,,,,,,,,,,,,,,,,,,,,,,,,,,127.0,127.0,125.0,200.0,200.0,125.0,3.0,3.2,-260,-271,0,-13,258,258,344.1074960231781,344.1075704097748,344.1109821796417,344.1214027404785,344.27476692199707,344.27476692199707,344.27476692199707,344.27476692199707,344.27476692199707,344.27476692199707,344.27476692199707,345.73982310295105,2,1.6008360385894775,None,,,,,,,,,,,,,,,,,,57,4,2025-02-19_15h57.29.971,comp,2024.2.4,57.784164098438126,2025-02-19 15h57.42.191003 -0500,
112,112,0,filler_square,None,None,None,None,None,None,None,None,None,None,1,1.2471199035644531,None,,,,,0,0,0,0,0,112,112,178,345.7555994987488,,,,,,,,,,,,,,,,,,,,,,,,,,,,,,,,,,,,,,,,,,,,,,,,,,,,,,,,,,,,,,,,,,,,,,,,,,,,,,,,,141.64840052305905,141.64840052305905,61.747633242647,107.38480494717317,131.55834970982025,123.6634204103076,1.0,1.1,-701,289,-480,271,-268,273,345.74188566207886,345.7419636249542,345.74530005455017,345.7555994987488,345.9094009399414,345.9094009399414,345.9094009399414,345.9094009399414,345.9094009399414,345.9094009399414,345.9094009399414,347.00909996032715,1,1.2471199035644531,None,,,,,,,,,,,,,,,,,,57,4,2025-02-19_15h57.29.971,comp,2024.2.4,57.784164098438126,2025-02-19 15h57.42.191003 -0500,
113,113,0,critical,dwh,20.0,2.1,upper,141.0,141.0,125.0,200.0,200.0,125.0,3,1.8846347332000732,None,,,,,0,0,0,0,0,113,113,31,347.0295214653015,,,,,,,,,,,,,,,,,,,,,,,,,,,,,,,,,,,,,,,,,,,,,,,,,,,,,,,,,,,,,,,,,,,,,,,,,,,,,,,,,141.0,141.0,125.0,200.0,200.0,125.0,2.1,2.12,-266,-286,0,-266,258,287,347.01068663597107,347.01076221466064,347.01397252082825,347.0295214653015,347.1781282424927,347.1781282424927,347.1781282424927,347.1781282424927,347.1781282424927,347.1781282424927,347.1781282424927,348.9335346221924,3,1.8846347332000732,None,,,,,,,,,,,,,,,,,,57,4,2025-02-19_15h57.29.971,comp,2024.2.4,57.784164098438126,2025-02-19 15h57.42.191003 -0500,
114,114,0,critical,dhw,20.0,2.1,upper,141.0,141.0,200.0,125.0,125.0,200.0,2,1.1931414604187012,None,,,,,0,0,0,0,0,114,114,27,348.95306181907654,,,,,,,,,,,,,,,,,,,,,,,,,,,,,,,,,,,,,,,,,,,,,,,,,,,,,,,,,,,,,,,,,,,,,,,,,,,,,,,,,141.0,141.0,200.0,125.0,125.0,200.0,2.1,2.12,-229,-258,0,-261,258,263,348.9350006580353,348.9350745677948,348.93789863586426,348.95306181907654,349.0912506580353,349.0912506580353,349.0912506580353,349.0912506580353,349.0912506580353,349.0912506580353,349.0912506580353,350.15930795669556,2,1.1931414604187012,None,,,,,,,,,,,,,,,,,,57,4,2025-02-19_15h57.29.971,comp,2024.2.4,57.784164098438126,2025-02-19 15h57.42.191003 -0500,
115,115,0,critical,wdh,20.0,4.0,upper,125.0,200.0,141.0,141.0,200.0,125.0,3,1.2994298934936523,None,,,,,0,0,0,0,0,115,115,83,350.1748034954071,,,,,,,,,,,,,,,,,,,,,,,,,,,,,,,,,,,,,,,,,,,,,,,,,,,,,,,,,,,,,,,,,,,,,,,,,,,,,,,,,125.0,200.0,141.0,141.0,200.0,125.0,4.0,4.1,-266,-264,0,2,229,-267,350.16096901893616,350.1610972881317,350.1645164489746,350.1748034954071,350.3233902454376,350.3233902454376,350.3233902454376,350.3233902454376,350.3233902454376,350.3233902454376,350.3233902454376,351.4911959171295,3,1.2994298934936523,None,,,,,,,,,,,,,,,,,,57,4,2025-02-19_15h57.29.971,comp,2024.2.4,57.784164098438126,2025-02-19 15h57.42.191003 -0500,
116,116,0,critical,wdh,35.0,3.0,upper,125.0,200.0,127.0,127.0,200.0,125.0,3,0.8558423519134521,None,,,,,0,0,0,0,0,116,116,75,351.5062379837036,,,,,,,,,,,,,,,,,,,,,,,,,,,,,,,,,,,,,,,,,,,,,,,,,,,,,,,,,,,,,,,,,,,,,,,,,,,,,,,,,125.0,200.0,127.0,127.0,200.0,125.0,3.0,3.1,-260,280,0,4,222,-266,351.49264335632324,351.49271726608276,351.495801448822,351.5062379837036,351.659362077713,351.659362077713,351.659362077713,351.659362077713,351.659362077713,351.659362077713,351.659362077713,352.3721373081207,3,0.8558423519134521,None,,,,,,,,,,,,,,,,,,57,4,2025-02-19_15h57.29.971,comp,2024.2.4,57.784164098438126,2025-02-19 15h57.42.191003 -0500,
117,117,0,catch,None,None,None,None,None,None,None,None,None,None,2,1.0006983280181885,None,,,,,0,0,0,0,0,117,117,121,352.3929862976074,,,,,,,,,,,,,,,,,,,,,,,,,,,,,,,,,,,,,,,,,,,,,,,,,,,,,,,,,,,,,,,,,,,,,,,,,,,,,,,,,109,81,161,164,88,102,4.0,4.2,-218,14,0,-254,229,-10,352.37412190437317,352.3742380142212,352.3773798942566,352.3929862976074,352.5258004665375,352.5258004665375,352.5258004665375,352.5258004665375,352.5258004665375,352.5258004665375,352.5258004665375,353.40841126441956,2,1.0006983280181885,None,,,,,,,,,,,,,,,,,,57,4,2025-02-19_15h57.29.971,comp,2024.2.4,57.784164098438126,2025-02-19 15h57.42.191003 -0500,
118,118,0,critical,dwh,35.0,2.1,upper,127.0,127.0,125.0,200.0,200.0,125.0,3,1.6739227771759033,None,,,,,0,0,0,0,0,118,118,5,353.4241192340851,,,,,,,,,,,,,,,,,,,,,,,,,,,,,,,,,,,,,,,,,,,,,,,,,,,,,,,,,,,,,,,,,,,,,,,,,,,,,,,,,127.0,127.0,125.0,200.0,200.0,125.0,2.1,2.11,-260,253,0,267,258,-276,353.4097399711609,353.40981578826904,353.4133400917053,353.4241192340851,353.5743227005005,353.5743227005005,353.5743227005005,353.5743227005005,353.5743227005005,353.5743227005005,353.5743227005005,355.1111273765564,3,1.6739227771759033,None,,,,,,,,,,,,,,,,,,57,4,2025-02-19_15h57.29.971,comp,2024.2.4,57.784164098438126,2025-02-19 15h57.42.191003 -0500,
119,119,0,critical,whd,20.0,4.0,upper,125.0,200.0,200.0,125.0,141.0,141.0,2,0.9761452674865723,None,,,,,0,0,0,0,0,119,119,95,355.129519701004,,,,,,,,,,,,,,,,,,,,,,,,,,,,,,,,,,,,,,,,,,,,,,,,,,,,,,,,,,,,,,,,,,,,,,,,,,,,,,,,,125.0,200.0,200.0,125.0,141.0,141.0,4.0,4.2,-258,16,0,-258,229,-18,355.1127815246582,355.112904548645,355.1166293621063,355.129519701004,355.27743101119995,355.27743101119995,355.27743101119995,355.27743101119995,355.27743101119995,355.27743101119995,355.27743101119995,356.1141040325165,2,0.9761452674865723,None,,,,,,,,,,,,,,,,,,57,4,2025-02-19_15h57.29.971,comp,2024.2.4,57.784164098438126,2025-02-19 15h57.42.191003 -0500,
120,120,0,critical,wdh,35.0,4.0,upper,125.0,200.0,127.0,127.0,200.0,125.0,3,0.862032413482666,None,,,,,0,0,0,0,0,120,120,77,356.1241784095764,,,,,,,,,,,,,,,,,,,,,,,,,,,,,,,,,,,,,,,,,,,,,,,,,,,,,,,,,,,,,,,,,,,,,,,,,,,,,,,,,125.0,200.0,127.0,127.0,200.0,125.0,4.0,4.1,-260,-282,0,8,222,-286,356.11455154418945,356.1145703792572,356.1153063774109,356.1241784095764,356.27644896507263,356.27644896507263,356.27644896507263,356.27644896507263,356.27644896507263,356.27644896507263,356.27644896507263,357.0003852844238,3,0.862032413482666,None,,,,,,,,,,,,,,,,,,57,4,2025-02-19_15h57.29.971,comp,2024.2.4,57.784164098438126,2025-02-19 15h57.42.191003 -0500,
121,121,0,critical,wdh,20.0,1.0,lower,57.0,133.0,78.0,78.0,133.0,57.0,1,2.283388376235962,None,,,,,0,0,0,0,0,121,121,78,357.0159692764282,,,,,,,,,,,,,,,,,,,,,,,,,,,,,,,,,,,,,,,,,,,,,,,,,,,,,,,,,,,,,,,,,,,,,,,,,,,,,,,,,57.0,133.0,78.0,78.0,133.0,57.0,1.0,1.1,-682,272,-480,252,-316,278,357.0019726753235,357.0020537376404,357.00532698631287,357.0159692764282,357.1601402759552,357.1601402759552,357.1601402759552,357.1601402759552,357.1601402759552,357.1601402759552,357.1601402759552,359.31748819351196,1,2.283388376235962,None,,,,,,,,,,,,,,,,,,57,4,2025-02-19_15h57.29.971,comp,2024.2.4,57.784164098438126,2025-02-19 15h57.42.191003 -0500,
122,122,0,critical,whd,35.0,1.0,upper,125.0,200.0,200.0,125.0,127.0,127.0,2,1.2498140335083008,None,,,,,0,0,0,0,0,122,122,85,359.3363370895386,,,,,,,,,,,,,,,,,,,,,,,,,,,,,,,,,,,,,,,,,,,,,,,,,,,,,,,,,,,,,,,,,,,,,,,,,,,,,,,,,125.0,200.0,200.0,125.0,127.0,127.0,1.0,1.2,-258,-16,0,-14,222,-14,359.31893849372864,359.31901359558105,359.32186555862427,359.3363370895386,359.4762930870056,359.4762930870056,359.4762930870056,359.4762930870056,359.4762930870056,359.4762930870056,359.4762930870056,360.59807538986206,2,1.2498140335083008,None,,,,,,,,,,,,,,,,,,57,4,2025-02-19_15h57.29.971,comp,2024.2.4,57.784164098438126,2025-02-19 15h57.42.191003 -0500,
123,123,0,critical,wdh,35.0,1.0,lower,57.0,133.0,70.0,70.0,133.0,57.0,3,1.037184238433838,None,,,,,0,0,0,0,0,123,123,72,360.61324858665466,,,,,,,,,,,,,,,,,,,,,,,,,,,,,,,,,,,,,,,,,,,,,,,,,,,,,,,,,,,,,,,,,,,,,,,,,,,,,,,,,57.0,133.0,70.0,70.0,133.0,57.0,1.0,1.2,-198,-9,0,15,160,10,360.59954476356506,360.5996377468109,360.6027331352234,360.61324858665466,360.76738572120667,360.76738572120667,360.76738572120667,360.76738572120667,360.76738572120667,360.76738572120667,360.76738572120667,361.6676182746887,3,1.037184238433838,None,,,,,,,,,,,,,,,,,,57,4,2025-02-19_15h57.29.971,comp,2024.2.4,57.784164098438126,2025-02-19 15h57.42.191003 -0500,
124,124,0,filler_square,None,None,None,None,None,None,None,None,None,None,3,1.9268364906311035,None,,,,,0,0,0,0,0,124,124,204,361.68327832221985,,,,,,,,,,,,,,,,,,,,,,,,,,,,,,,,,,,,,,,,,,,,,,,,,,,,,,,,,,,,,,,,,,,,,,,,,,,,,,,,,57.46349603565005,57.99599236447897,58.096726934246725,58.096726934246725,57.223906980181134,57.595567102109456,4.0,4.2,-154,13,0,-260,154,-7,361.669636964798,361.6697108745575,361.67290925979614,361.68327832221985,361.82825779914856,361.82825779914856,361.82825779914856,361.82825779914856,361.82825779914856,361.82825779914856,361.82825779914856,363.62509083747864,3,1.9268364906311035,None,,,,,,,,,,,,,,,,,,57,4,2025-02-19_15h57.29.971,comp,2024.2.4,57.784164098438126,2025-02-19 15h57.42.191003 -0500,
125,125,0,critical,dhw,35.0,4.0,upper,127.0,127.0,200.0,125.0,125.0,200.0,3,1.7058465480804443,None,,,,,0,0,0,0,0,125,125,53,363.640278339386,,,,,,,,,,,,,,,,,,,,,,,,,,,,,,,,,,,,,,,,,,,,,,,,,,,,,,,,,,,,,,,,,,,,,,,,,,,,,,,,,127.0,127.0,200.0,125.0,125.0,200.0,4.0,4.2,-222,11,0,-274,258,17,363.6266899108887,363.62676310539246,363.6299924850464,363.640278339386,363.7792274951935,363.7792274951935,363.7792274951935,363.7792274951935,363.7792274951935,363.7792274951935,363.7792274951935,365.3636357784271,3,1.7058465480804443,None,,,,,,,,,,,,,,,,,,57,4,2025-02-19_15h57.29.971,comp,2024.2.4,57.784164098438126,2025-02-19 15h57.42.191003 -0500,
126,126,0,critical,hdw,35.0,4.0,upper,200.0,125.0,127.0,127.0,125.0,200.0,1,1.2231059074401855,None,,,,,0,0,0,0,0,126,126,113,365.37899136543274,,,,,,,,,,,,,,,,,,,,,,,,,,,,,,,,,,,,,,,,,,,,,,,,,,,,,,,,,,,,,,,,,,,,,,,,,,,,,,,,,200.0,125.0,127.0,127.0,125.0,200.0,4.0,4.1,-222,-284,0,-7,260,-287,365.36518836021423,365.36531114578247,365.3687047958374,365.37899136543274,365.5288279056549,365.5288279056549,365.5288279056549,365.5288279056549,365.5288279056549,365.5288279056549,365.5288279056549,366.6148428916931,1,1.2231059074401855,None,,,,,,,,,,,,,,,,,,57,4,2025-02-19_15h57.29.971,comp,2024.2.4,57.784164098438126,2025-02-19 15h57.42.191003 -0500,
127,127,0,filler_random,None,None,None,None,None,None,None,None,None,None,2,2.5662126541137695,None,,,,,0,0,0,0,0,127,127,136,366.6359670162201,,,,,,,,,,,,,,,,,,,,,,,,,,,,,,,,,,,,,,,,,,,,,,,,,,,,,,,,,,,,,,,,,,,,,,,,,,,,,,,,,185.35246557609435,58.64039262116966,108.78923832431265,122.77997312062075,131.3108261482741,58.599960727267735,2.1,2.12,-187,-250,0,-285,187,275,366.61663603782654,366.6167678833008,366.62018299102783,366.6359670162201,366.78444623947144,366.78444623947144,366.78444623947144,366.78444623947144,366.78444623947144,366.78444623947144,366.78444623947144,369.2123701572418,2,2.5662126541137695,None,,,,,,,,,,,,,,,,,,57,4,2025-02-19_15h57.29.971,comp,2024.2.4,57.784164098438126,2025-02-19 15h57.42.191003 -0500,
128,128,0,critical,dhw,20.0,2.1,lower,78.0,78.0,133.0,57.0,57.0,133.0,3,2.501054048538208,None,,,,,0,0,0,0,0,128,128,2,369.229211807251,,,,,,,,,,,,,,,,,,,,,,,,,,,,,,,,,,,,,,,,,,,,,,,,,,,,,,,,,,,,,,,,,,,,,,,,,,,,,,,,,78.0,78.0,133.0,57.0,57.0,133.0,2.1,2.11,-164,272,0,265,191,-268,369.21396136283875,369.2140350341797,369.21735072135925,369.229211807251,369.36991691589355,369.36991691589355,369.36991691589355,369.36991691589355,369.36991691589355,369.36991691589355,369.36991691589355,371.7405815124512,3,2.501054048538208,None,,,,,,,,,,,,,,,,,,57,4,2025-02-19_15h57.29.971,comp,2024.2.4,57.784164098438126,2025-02-19 15h57.42.191003 -0500,
129,129,0,filler_random,None,None,None,None,None,None,None,None,None,None,1,1.2305443286895752,None,,,,,0,0,0,0,0,129,129,164,371.75587916374207,,,,,,,,,,,,,,,,,,,,,,,,,,,,,,,,,,,,,,,,,,,,,,,,,,,,,,,,,,,,,,,,,,,,,,,,,,,,,,,,,178.42916118336473,137.09179739933737,155.8520126013725,114.10512784622932,146.46425649464402,146.59871529561437,2.2,2.21,-222,-254,0,272,226,280,371.74228501319885,371.7423598766327,371.74514293670654,371.75587916374207,371.8996043205261,371.8996043205261,371.8996043205261,371.8996043205261,371.8996043205261,371.8996043205261,371.8996043205261,372.9993703365326,1,1.2305443286895752,None,,,,,,,,,,,,,,,,,,57,4,2025-02-19_15h57.29.971,comp,2024.2.4,57.784164098438126,2025-02-19 15h57.42.191003 -0500,
130,130,0,filler_random,None,None,None,None,None,None,None,None,None,None,3,4.1950414180755615,None,,,,,0,0,0,0,0,130,130,167,373.0151309967041,,,,,,,,,,,,,,,,,,,,,,,,,,,,,,,,,,,,,,,,,,,,,,,,,,,,,,,,,,,,,,,,,,,,,,,,,,,,,,,,,89.21225116133152,102.01896028032411,118.68347557503658,145.7548775220155,82.44595165885748,190.4514201818933,1.0,1.2,-220,7,0,-17,264,-3,373.00106477737427,373.0012149810791,373.00483298301697,373.0151309967041,373.16367864608765,373.16367864608765,373.16367864608765,373.16367864608765,373.16367864608765,373.16367864608765,373.16367864608765,377.2227818965912,3,4.1950414180755615,None,,,,,,,,,,,,,,,,,,57,4,2025-02-19_15h57.29.971,comp,2024.2.4,57.784164098438126,2025-02-19 15h57.42.191003 -0500,
131,131,0,catch,None,None,None,None,None,None,None,None,None,None,2,0.8597421646118164,None,,,,,0,0,0,0,0,131,131,128,377.23845958709717,,,,,,,,,,,,,,,,,,,,,,,,,,,,,,,,,,,,,,,,,,,,,,,,,,,,,,,,,,,,,,,,,,,,,,,,,,,,,,,,,73,117,180,145,120,70,3.0,3.2,-227,-286,0,-19,204,284,377.22465658187866,377.2247314453125,377.22759771347046,377.23845958709717,377.38784551620483,377.38784551620483,377.38784551620483,377.38784551620483,377.38784551620483,377.38784551620483,377.38784551620483,378.10075664520264,2,0.8597421646118164,None,,,,,,,,,,,,,,,,,,57,4,2025-02-19_15h57.29.971,comp,2024.2.4,57.784164098438126,2025-02-19 15h57.42.191003 -0500,
132,132,0,critical,hdw,20.0,2.1,upper,200.0,125.0,141.0,141.0,125.0,200.0,3,0.9333291053771973,None,,,,,0,0,0,0,0,132,132,47,378.11714363098145,,,,,,,,,,,,,,,,,,,,,,,,,,,,,,,,,,,,,,,,,,,,,,,,,,,,,,,,,,,,,,,,,,,,,,,,,,,,,,,,,200.0,125.0,141.0,141.0,125.0,200.0,2.1,2.11,-229,254,0,251,266,-269,378.10238337516785,378.1024603843689,378.10646748542786,378.11714363098145,378.2670121192932,378.2670121192932,378.2670121192932,378.2670121192932,378.2670121192932,378.2670121192932,378.2670121192932,379.06022334098816,3,0.9333291053771973,None,,,,,,,,,,,,,,,,,,57,4,2025-02-19_15h57.29.971,comp,2024.2.4,57.784164098438126,2025-02-19 15h57.42.191003 -0500,
133,133,0,critical,dwh,35.0,2.1,lower,70.0,70.0,57.0,133.0,133.0,57.0,2,1.59800386428833,None,,,,,0,0,0,0,0,133,133,4,379.0767619609833,,,,,,,,,,,,,,,,,,,,,,,,,,,,,,,,,,,,,,,,,,,,,,,,,,,,,,,,,,,,,,,,,,,,,,,,,,,,,,,,,70.0,70.0,57.0,133.0,133.0,57.0,2.1,2.11,-198,259,0,284,191,-274,379.0617661476135,379.06184244155884,379.0651304721832,379.0767619609833,379.217502117157,379.217502117157,379.217502117157,379.217502117157,379.217502117157,379.217502117157,379.217502117157,380.6844255924225,2,1.59800386428833,None,,,,,,,,,,,,,,,,,,57,4,2025-02-19_15h57.29.971,comp,2024.2.4,57.784164098438126,2025-02-19 15h57.42.191003 -0500,
134,134,0,critical,dwh,20.0,3.0,upper,141.0,141.0,125.0,200.0,200.0,125.0,3,1.2946312427520752,None,,,,,0,0,0,0,0,134,134,69,380.7001302242279,,,,,,,,,,,,,,,,,,,,,,,,,,,,,,,,,,,,,,,,,,,,,,,,,,,,,,,,,,,,,,,,,,,,,,,,,,,,,,,,,141.0,141.0,125.0,200.0,200.0,125.0,3.0,3.1,-266,269,0,-1,258,-276,380.6859133243561,380.6859905719757,380.68934655189514,380.7001302242279,380.8509976863861,380.8509976863861,380.8509976863861,380.8509976863861,380.8509976863861,380.8509976863861,380.8509976863861,382.00238490104675,3,1.2946312427520752,None,,,,,,,,,,,,,,,,,,57,4,2025-02-19_15h57.29.971,comp,2024.2.4,57.784164098438126,2025-02-19 15h57.42.191003 -0500,
135,135,0,catch,None,None,None,None,None,None,None,None,None,None,3,0.7836904525756836,None,,,,,0,0,0,0,0,135,135,120,382.0187511444092,,,,,,,,,,,,,,,,,,,,,,,,,,,,,,,,,,,,,,,,,,,,,,,,,,,,,,,,,,,,,,,,,,,,,,,,,,,,,,,,,129,61,76,114,161,164,4.0,4.1,-184,-263,0,-9,235,-282,382.0042200088501,382.00434708595276,382.00819063186646,382.0187511444092,382.1680884361267,382.1680884361267,382.1680884361267,382.1680884361267,382.1680884361267,382.1680884361267,382.1680884361267,382.81886768341064,3,0.7836904525756836,None,,,,,,,,,,,,,,,,,,57,4,2025-02-19_15h57.29.971,comp,2024.2.4,57.784164098438126,2025-02-19 15h57.42.191003 -0500,
136,136,0,critical,hwd,35.0,2.1,upper,200.0,125.0,125.0,200.0,127.0,127.0,1,0.9346752166748047,None,,,,,0,0,0,0,0,136,136,17,382.83553099632263,,,,,,,,,,,,,,,,,,,,,,,,,,,,,,,,,,,,,,,,,,,,,,,,,,,,,,,,,,,,,,,,,,,,,,,,,,,,,,,,,200.0,125.0,125.0,200.0,127.0,127.0,2.1,2.12,-258,-254,0,-251,260,283,382.8203091621399,382.820405960083,382.8244173526764,382.83553099632263,382.9845161437988,382.9845161437988,382.9845161437988,382.9845161437988,382.9845161437988,382.9845161437988,382.9845161437988,383.78532361984253,1,0.9346752166748047,None,,,,,,,,,,,,,,,,,,57,4,2025-02-19_15h57.29.971,comp,2024.2.4,57.784164098438126,2025-02-19 15h57.42.191003 -0500,
137,137,0,critical,wdh,35.0,4.0,lower,57.0,133.0,70.0,70.0,133.0,57.0,3,2.794631242752075,None,,,,,0,0,0,0,0,137,137,76,383.8010485172272,,,,,,,,,,,,,,,,,,,,,,,,,,,,,,,,,,,,,,,,,,,,,,,,,,,,,,,,,,,,,,,,,,,,,,,,,,,,,,,,,57.0,133.0,70.0,70.0,133.0,57.0,4.0,4.2,-198,-12,0,-256,160,4,383.7868421077728,383.78691601753235,383.7908225059509,383.8010485172272,383.9520137310028,383.9520137310028,383.9520137310028,383.9520137310028,383.9520137310028,383.9520137310028,383.9520137310028,386.6031050682068,3,2.794631242752075,None,,,,,,,,,,,,,,,,,,57,4,2025-02-19_15h57.29.971,comp,2024.2.4,57.784164098438126,2025-02-19 15h57.42.191003 -0500,
138,138,0,critical,dwh,35.0,4.0,upper,127.0,127.0,125.0,200.0,200.0,125.0,2,1.6679508686065674,None,,,,,0,0,0,0,0,138,138,65,386.622287273407,,,,,,,,,,,,,,,,,,,,,,,,,,,,,,,,,,,,,,,,,,,,,,,,,,,,,,,,,,,,,,,,,,,,,,,,,,,,,,,,,127.0,127.0,125.0,200.0,200.0,125.0,4.0,4.2,-260,14,0,-276,258,6,386.6046199798584,386.60469698905945,386.6076662540436,386.622287273407,386.76991081237793,386.76991081237793,386.76991081237793,386.76991081237793,386.76991081237793,386.76991081237793,386.76991081237793,388.2931957244873,2,1.6679508686065674,None,,,,,,,,,,,,,,,,,,57,4,2025-02-19_15h57.29.971,comp,2024.2.4,57.784164098438126,2025-02-19 15h57.42.191003 -0500,
139,139,0,critical,hdw,35.0,1.0,upper,200.0,125.0,127.0,127.0,125.0,200.0,3,1.3211290836334229,None,,,,,0,0,0,0,0,139,139,109,388.3130941390991,,,,,,,,,,,,,,,,,,,,,,,,,,,,,,,,,,,,,,,,,,,,,,,,,,,,,,,,,,,,,,,,,,,,,,,,,,,,,,,,,200.0,125.0,127.0,127.0,125.0,200.0,1.0,1.1,-702,288,-480,286,-220,269,388.2946705818176,388.29476022720337,388.2975707054138,388.3130941390991,388.4562141895294,388.4562141895294,388.4562141895294,388.4562141895294,388.4562141895294,388.4562141895294,388.4562141895294,389.63894724845886,3,1.3211290836334229,None,,,,,,,,,,,,,,,,,,57,4,2025-02-19_15h57.29.971,comp,2024.2.4,57.784164098438126,2025-02-19 15h57.42.191003 -0500,
140,140,0,critical,dwh,35.0,1.0,upper,127.0,127.0,125.0,200.0,200.0,125.0,3,1.406487226486206,None,,,,,0,0,0,0,0,140,140,61,389.6599643230438,,,,,,,,,,,,,,,,,,,,,,,,,,,,,,,,,,,,,,,,,,,,,,,,,,,,,,,,,,,,,,,,,,,,,,,,,,,,,,,,,127.0,127.0,125.0,200.0,200.0,125.0,1.0,1.3,220,-268,480,-276,738,-258,389.6405577659607,389.64063334465027,389.64425253868103,389.6599643230438,389.8058273792267,389.8058273792267,389.8058273792267,389.8058273792267,389.8058273792267,389.8058273792267,389.8058273792267,391.0697729587555,3,1.406487226486206,None,,,,,,,,,,,,,,,,,,57,4,2025-02-19_15h57.29.971,comp,2024.2.4,57.784164098438126,2025-02-19 15h57.42.191003 -0500,
