thisN,thisTrialN,thisRepN,effect,order,distance,config,diag,h_1,w_1,h_2,w_2,h_3,w_3,rect_choice.keys,rect_choice.rt,rect_choice.duration,instructions_loop.thisRepN,instructions_loop.thisTrialN,instructions_loop.thisN,instructions_loop.thisIndex,blocks.thisRepN,blocks.thisTrialN,blocks.thisN,blocks.thisIndex,trials.thisRepN,trials.thisTrialN,trials.thisN,trials.thisIndex,thisRow.t,notes,consent.started,agree_button.started,decline_button.started,consent_img.started,mouse.started,consent.stopped,agree_button.numClicks,agree_button.timesOn,agree_button.timesOff,decline_button.numClicks,decline_button.timesOn,decline_button.timesOff,mouse.x,mouse.y,mouse.leftButton,mouse.midButton,mouse.rightButton,mouse.time,mouse.clicked_name,exp_params.started,exp_params.stopped,welcome.started,welcome_text.started,welcome.stopped,instructions_1.started,instructions_1_text_1.started,instructions_1_text_2.started,key_resp.started,instructions_1.stopped,instructions_loop.key_resp.keys,instructions_loop.key_resp.rt,instructions_loop.key_resp.duration,instructions_2.started,instructions_2_text_1.started,instructions_2_text_2.started,key_resp_2.started,instructions_2.stopped,instructions_loop.key_resp_2.keys,instructions_loop.key_resp_2.rt,instructions_loop.key_resp_2.duration,instructions_3.started,instructions_3_text_1.started,r1_instr3.started,r2_instr3.started,r3_instr3.started,r1_instr3_label.started,r2_instr3_label.started,r3_instr3_label.started,instructions_3_text_3.started,instructions_3_text_4.started,key_resp_3.started,instructions_3.stopped,instructions_loop.key_resp_3.keys,instructions_loop.key_resp_3.rt,instructions_loop.key_resp_3.duration,instructions_4.started,instructions_4_text_1.started,instructions_4_text_3.started,instructions_4_text_2.started,key_resp_4.started,instructions_4.stopped,instructions_loop.key_resp_4.keys,instructions_loop.key_resp_4.rt,instructions_loop.key_resp_4.duration,instructions_5.started,instructions_5_text_1.started,instructions_5_text_2.started,key_resp_5.started,instructions_5.stopped,instructions_loop.key_resp_5.keys,instructions_loop.key_resp_5.rt,instructions_loop.key_resp_5.duration,start_exp.started,start_exp_text.started,key_resp_6.started,start_exp.stopped,key_resp_6.keys,key_resp_6.rt,key_resp_6.duration,h_1_tmp,w_1_tmp,h_2_tmp,w_2_tmp,h_3_tmp,w_3_tmp,config_tmp,config_tmp_1,r_1_x,r_1_y,r_2_x,r_2_y,r_3_x,r_3_y,pre_trial.started,pre_trial.stopped,choice_trial.started,rect_choice.started,r_1.started,r_2.started,r_3.started,r_1_label.started,r_2_label.started,r_3_label.started,prompt.started,choice_trial.stopped,trials.rect_choice.keys,trials.rect_choice.rt,trials.rect_choice.duration,end_block.started,end_block_text.started,end_block.stopped,end.started,end_text.started,key_resp_7.started,end.stopped,key_resp_7.keys,key_resp_7.rt,key_resp_7.duration,debriefing.started,debrief_form.started,end_debrief.started,debriefing.stopped,end_debrief.keys,end_debrief.rt,end_debrief.duration,participant,computer,date,expName,psychopyVersion,frameRate,expStart,
,,,,,,,,,,,,,,,,,,,,,,,,,,,,,,,0.01578521728515625,0.042458295822143555,0.042458295822143555,0.042458295822143555,0.015234708786010742,18.235503911972046,1,[18.191608667373657],[18.191619157791138],0,,,[-82.0],[-518.0],[1],[0],[0],[18.219014883041382],['agree_button'],,,,,,,,,,,,,,,,,,,,,,,,,,,,,,,,,,,,,,,,,,,,,,,,,,,,,,,,,,,,,,,,,,,,,,,,,,,,,,,,,,,,,,,,,,,,,,,,,,,,,,,,,,,58,5,2025-02-19_16h06.29.612,comp,2024.2.4,60.51897682149782,2025-02-19 16h06.36.996849 -0500,
,,,,,,,,,,,,,,,,,,,,,,,,,,,,,,,,,,,,,,,,,,,,,,,,,,18.235799551010132,18.235835075378418,,,,,,,,,,,,,,,,,,,,,,,,,,,,,,,,,,,,,,,,,,,,,,,,,,,,,,,,,,,,,,,,,,,,,,,,,,,,,,,,,,,,,,,,,,,,,,,,,,,,,,,,,58,5,2025-02-19_16h06.29.612,comp,2024.2.4,60.51897682149782,2025-02-19 16h06.36.996849 -0500,
,,,,,,,,,,,,,,,,,,,,,,,,,,,,,,,,,,,,,,,,,,,,,,,,,,,,18.23585820198059,18.249109983444214,20.2455415725708,,,,,,,,,,,,,,,,,,,,,,,,,,,,,,,,,,,,,,,,,,,,,,,,,,,,,,,,,,,,,,,,,,,,,,,,,,,,,,,,,,,,,,,,,,,,,,,,,,,,,,58,5,2025-02-19_16h06.29.612,comp,2024.2.4,60.51897682149782,2025-02-19 16h06.36.996849 -0500,
0,0,0,,,,,,,,,,,,,,,0,0,0,0,,,,,,,,,20.26238489151001,,,,,,,,,,,,,,,,,,,,,,,,,,20.24609875679016,20.26238489151001,20.26238489151001,21.745577335357666,22.163570642471313,space,0.4110877513885498,None,22.16367197036743,22.17958164215088,22.17958164215088,23.67886447906494,25.013917446136475,space,1.3258605003356934,None,25.014001607894897,25.035274028778076,25.035274028778076,25.035274028778076,25.035274028778076,25.035274028778076,25.035274028778076,25.035274028778076,25.035274028778076,25.035274028778076,26.52928876876831,29.08090615272522,space,2.538227081298828,None,29.080997228622437,29.09591579437256,29.09591579437256,29.09591579437256,30.59564185142517,30.780132293701172,space,0.17676305770874023,None,30.780221939086914,30.795888900756836,30.795888900756836,32.29548263549805,32.896944999694824,space,0.5984547138214111,None,32.8970582485199,32.9124436378479,32.9124436378479,33.49659061431885,space,0.5816762447357178,None,,,,,,,,,,,,,,,,,,,,,,,,,,,,,,,,,,,,,,,,,,,,,,,58,5,2025-02-19_16h06.29.612,comp,2024.2.4,60.51897682149782,2025-02-19 16h06.36.996849 -0500,
0,0,0,critical,hwd,20.0,2.1,upper,200.0,125.0,125.0,200.0,141.0,141.0,2,14.464134693145752,None,,,,,0,0,0,0,0,0,0,43,33.556578159332275,,,,,,,,,,,,,,,,,,,,,,,,,,,,,,,,,,,,,,,,,,,,,,,,,,,,,,,,,,,,,,,,,,,,,,,,,,,,,,,,,200.0,125.0,125.0,200.0,141.0,141.0,2.1,2.12,-258,-282,0,-253,266,273,33.54264760017395,33.542693853378296,33.544678688049316,33.556578159332275,33.70235466957092,33.70235466957092,33.70235466957092,33.70235466957092,33.70235466957092,33.70235466957092,33.70235466957092,48.03038311004639,2,14.464134693145752,None,,,,,,,,,,,,,,,,,,58,5,2025-02-19_16h06.29.612,comp,2024.2.4,60.51897682149782,2025-02-19 16h06.36.996849 -0500,
1,1,0,filler_square,None,None,None,None,None,None,None,None,None,None,3,5.534149169921875,None,,,,,0,0,0,0,0,1,1,177,48.04576015472412,,,,,,,,,,,,,,,,,,,,,,,,,,,,,,,,,,,,,,,,,,,,,,,,,,,,,,,,,,,,,,,,,,,,,,,,,,,,,,,,,98.63921654042352,65.46241418922747,120.04836370381042,67.23207762120164,121.8280025721764,121.8280025721764,2.1,2.11,-162,256,0,254,191,-254,48.0313880443573,48.0314302444458,48.03391146659851,48.04576015472412,48.195574045181274,48.195574045181274,48.195574045181274,48.195574045181274,48.195574045181274,48.195574045181274,48.195574045181274,53.596516847610474,3,5.534149169921875,None,,,,,,,,,,,,,,,,,,58,5,2025-02-19_16h06.29.612,comp,2024.2.4,60.51897682149782,2025-02-19 16h06.36.996849 -0500,
2,2,0,critical,dwh,20.0,1.0,lower,78.0,78.0,57.0,133.0,133.0,57.0,2,21.960138082504272,None,,,,,0,0,0,0,0,2,2,66,53.61190915107727,,,,,,,,,,,,,,,,,,,,,,,,,,,,,,,,,,,,,,,,,,,,,,,,,,,,,,,,,,,,,,,,,,,,,,,,,,,,,,,,,78.0,78.0,57.0,133.0,133.0,57.0,1.0,1.2,-202,12,0,13,191,3,53.597320795059204,53.59736156463623,53.59986734390259,53.61190915107727,53.76216769218445,53.76216769218445,53.76216769218445,53.76216769218445,53.76216769218445,53.76216769218445,53.76216769218445,75.57980751991272,2,21.960138082504272,None,,,,,,,,,,,,,,,,,,58,5,2025-02-19_16h06.29.612,comp,2024.2.4,60.51897682149782,2025-02-19 16h06.36.996849 -0500,
3,3,0,filler_square,None,None,None,None,None,None,None,None,None,None,3,2.7444117069244385,None,,,,,0,0,0,0,0,3,3,204,75.5955638885498,,,,,,,,,,,,,,,,,,,,,,,,,,,,,,,,,,,,,,,,,,,,,,,,,,,,,,,,,,,,,,,,,,,,,,,,,,,,,,,,,100.47108622172878,155.3873533496323,62.93252316987868,134.3738712444526,168.14528682156157,168.14528682156157,1.0,1.1,-721,269,-480,278,-233,272,75.58078479766846,75.58082675933838,75.58288097381592,75.5955638885498,75.74536061286926,75.74536061286926,75.74536061286926,75.74536061286926,75.74536061286926,75.74536061286926,75.74536061286926,78.3464686870575,3,2.7444117069244385,None,,,,,,,,,,,,,,,,,,58,5,2025-02-19_16h06.29.612,comp,2024.2.4,60.51897682149782,2025-02-19 16h06.36.996849 -0500,
4,4,0,filler_square,None,None,None,None,None,None,None,None,None,None,3,2.993870258331299,None,,,,,0,0,0,0,0,4,4,189,78.36207604408264,,,,,,,,,,,,,,,,,,,,,,,,,,,,,,,,,,,,,,,,,,,,,,,,,,,,,,,,,,,,,,,,,,,,,,,,,,,,,,,,,88.29315285253216,71.41660809702844,83.60152086970461,74.58812575854665,92.3984556725781,92.3984556725781,4.0,4.1,-169,-283,0,-13,179,-250,78.34743452072144,78.34747672080994,78.34944009780884,78.36207604408264,78.51270985603333,78.51270985603333,78.51270985603333,78.51270985603333,78.51270985603333,78.51270985603333,78.51270985603333,81.3630359172821,3,2.993870258331299,None,,,,,,,,,,,,,,,,,,58,5,2025-02-19_16h06.29.612,comp,2024.2.4,60.51897682149782,2025-02-19 16h06.36.996849 -0500,
5,5,0,critical,hwd,35.0,2.1,upper,200.0,125.0,125.0,200.0,127.0,127.0,2,5.177398920059204,None,,,,,0,0,0,0,0,5,5,41,81.37876892089844,,,,,,,,,,,,,,,,,,,,,,,,,,,,,,,,,,,,,,,,,,,,,,,,,,,,,,,,,,,,,,,,,,,,,,,,,,,,,,,,,200.0,125.0,125.0,200.0,127.0,127.0,2.1,2.11,-258,279,0,262,260,-257,81.36382937431335,81.36387085914612,81.36590600013733,81.37876892089844,81.52875924110413,81.52875924110413,81.52875924110413,81.52875924110413,81.52875924110413,81.52875924110413,81.52875924110413,86.56318283081055,2,5.177398920059204,None,,,,,,,,,,,,,,,,,,58,5,2025-02-19_16h06.29.612,comp,2024.2.4,60.51897682149782,2025-02-19 16h06.36.996849 -0500,
6,6,0,critical,hdw,35.0,4.0,upper,200.0,125.0,127.0,127.0,125.0,200.0,3,5.041569709777832,None,,,,,0,0,0,0,0,6,6,113,86.57870411872864,,,,,,,,,,,,,,,,,,,,,,,,,,,,,,,,,,,,,,,,,,,,,,,,,,,,,,,,,,,,,,,,,,,,,,,,,,,,,,,,,200.0,125.0,127.0,127.0,125.0,200.0,4.0,4.2,-222,1,0,-269,260,-2,86.56398844718933,86.56403040885925,86.56644916534424,86.57870411872864,86.72884368896484,86.72884368896484,86.72884368896484,86.72884368896484,86.72884368896484,86.72884368896484,86.72884368896484,91.62978410720825,3,5.041569709777832,None,,,,,,,,,,,,,,,,,,58,5,2025-02-19_16h06.29.612,comp,2024.2.4,60.51897682149782,2025-02-19 16h06.36.996849 -0500,
7,7,0,filler_random,None,None,None,None,None,None,None,None,None,None,3,3.7428228855133057,None,,,,,0,0,0,0,0,7,7,130,91.64532256126404,,,,,,,,,,,,,,,,,,,,,,,,,,,,,,,,,,,,,,,,,,,,,,,,,,,,,,,,,,,,,,,,,,,,,,,,,,,,,,,,,85.57546496621389,80.97473910793988,58.51201505666331,145.083951260692,86.0406497737935,169.68239686587071,1.0,1.2,-209,-8,0,12,253,-3,91.63066816329956,91.63071155548096,91.63302040100098,91.64532256126404,91.7952127456665,91.7952127456665,91.7952127456665,91.7952127456665,91.7952127456665,91.7952127456665,91.7952127456665,95.39641427993774,3,3.7428228855133057,None,,,,,,,,,,,,,,,,,,58,5,2025-02-19_16h06.29.612,comp,2024.2.4,60.51897682149782,2025-02-19 16h06.36.996849 -0500,
8,8,0,critical,whd,20.0,3.0,lower,57.0,133.0,133.0,57.0,78.0,78.0,1,3.6389129161834717,None,,,,,0,0,0,0,0,8,8,92,95.41209435462952,,,,,,,,,,,,,,,,,,,,,,,,,,,,,,,,,,,,,,,,,,,,,,,,,,,,,,,,,,,,,,,,,,,,,,,,,,,,,,,,,57.0,133.0,133.0,57.0,78.0,78.0,3.0,3.2,-191,-281,0,2,164,252,95.39723253250122,95.39727354049683,95.3994619846344,95.41209435462952,95.56185626983643,95.56185626983643,95.56185626983643,95.56185626983643,95.56185626983643,95.56185626983643,95.56185626983643,99.06326675415039,1,3.6389129161834717,None,,,,,,,,,,,,,,,,,,58,5,2025-02-19_16h06.29.612,comp,2024.2.4,60.51897682149782,2025-02-19 16h06.36.996849 -0500,
9,9,0,filler_random,None,None,None,None,None,None,None,None,None,None,3,3.733783721923828,None,,,,,0,0,0,0,0,9,9,153,99.07846570014954,,,,,,,,,,,,,,,,,,,,,,,,,,,,,,,,,,,,,,,,,,,,,,,,,,,,,,,,,,,,,,,,,,,,,,,,,,,,,,,,,111.11069186680083,90.15874727592092,79.03118315864225,139.72899683315188,188.5045495693421,191.08099750405904,4.0,4.1,-211,-262,0,19,261,-286,99.06418180465698,99.06422281265259,99.06664967536926,99.07846570014954,99.22870540618896,99.22870540618896,99.22870540618896,99.22870540618896,99.22870540618896,99.22870540618896,99.22870540618896,102.82966136932373,3,3.733783721923828,None,,,,,,,,,,,,,,,,,,58,5,2025-02-19_16h06.29.612,comp,2024.2.4,60.51897682149782,2025-02-19 16h06.36.996849 -0500,
10,10,0,catch,None,None,None,None,None,None,None,None,None,None,1,1.4003574848175049,None,,,,,0,0,0,0,0,10,10,120,102.84499382972717,,,,,,,,,,,,,,,,,,,,,,,,,,,,,,,,,,,,,,,,,,,,,,,,,,,,,,,,,,,,,,,,,,,,,,,,,,,,,,,,,175,150,113,77,59,131,1.0,1.2,-210,-19,0,11,200,18,102.83069086074829,102.83073282241821,102.83277416229248,102.84499382972717,102.99528431892395,102.99528431892395,102.99528431892395,102.99528431892395,102.99528431892395,102.99528431892395,102.99528431892395,104.26297855377197,1,1.4003574848175049,None,,,,,,,,,,,,,,,,,,58,5,2025-02-19_16h06.29.612,comp,2024.2.4,60.51897682149782,2025-02-19 16h06.36.996849 -0500,
11,11,0,filler_random,None,None,None,None,None,None,None,None,None,None,2,4.133975028991699,None,,,,,0,0,0,0,0,11,11,167,104.27832531929016,,,,,,,,,,,,,,,,,,,,,,,,,,,,,,,,,,,,,,,,,,,,,,,,,,,,,,,,,,,,,,,,,,,,,,,,,,,,,,,,,191.72294563678994,92.15123644642767,66.35913459095045,170.9031192237939,103.91896087839427,119.69039542070293,2.2,2.21,-228,-280,0,260,241,282,104.26393246650696,104.26397490501404,104.26633834838867,104.27832531929016,104.42849516868591,104.42849516868591,104.42849516868591,104.42849516868591,104.42849516868591,104.42849516868591,104.42849516868591,108.41367149353027,2,4.133975028991699,None,,,,,,,,,,,,,,,,,,58,5,2025-02-19_16h06.29.612,comp,2024.2.4,60.51897682149782,2025-02-19 16h06.36.996849 -0500,
12,12,0,critical,wdh,35.0,1.0,lower,57.0,133.0,70.0,70.0,133.0,57.0,1,11.807680606842041,None,,,,,0,0,0,0,0,12,12,72,108.42865657806396,,,,,,,,,,,,,,,,,,,,,,,,,,,,,,,,,,,,,,,,,,,,,,,,,,,,,,,,,,,,,,,,,,,,,,,,,,,,,,,,,57.0,133.0,70.0,70.0,133.0,57.0,1.0,1.1,-678,287,-480,260,-320,273,108.41446042060852,108.41450357437134,108.41664266586304,108.42865657806396,108.57840371131897,108.57840371131897,108.57840371131897,108.57840371131897,108.57840371131897,108.57840371131897,108.57840371131897,120.24609446525574,1,11.807680606842041,None,,,,,,,,,,,,,,,,,,58,5,2025-02-19_16h06.29.612,comp,2024.2.4,60.51897682149782,2025-02-19 16h06.36.996849 -0500,
13,13,0,filler_square,None,None,None,None,None,None,None,None,None,None,3,9.966781377792358,None,,,,,0,0,0,0,0,13,13,170,120.26181745529175,,,,,,,,,,,,,,,,,,,,,,,,,,,,,,,,,,,,,,,,,,,,,,,,,,,,,,,,,,,,,,,,,,,,,,,,,,,,,,,,,142.68070445116132,105.30864363867437,92.4311551286421,167.56174691264107,172.51121560032527,172.51121560032527,2.2,2.22,-232,273,0,-255,266,-285,120.24709582328796,120.24713921546936,120.24965977668762,120.26181745529175,120.41180539131165,120.41180539131165,120.41180539131165,120.41180539131165,120.41180539131165,120.41180539131165,120.41180539131165,130.24624752998352,3,9.966781377792358,None,,,,,,,,,,,,,,,,,,58,5,2025-02-19_16h06.29.612,comp,2024.2.4,60.51897682149782,2025-02-19 16h06.36.996849 -0500,
14,14,0,filler_square,None,None,None,None,None,None,None,None,None,None,1,6.742150068283081,None,,,,,0,0,0,0,0,14,14,183,130.26152181625366,,,,,,,,,,,,,,,,,,,,,,,,,,,,,,,,,,,,,,,,,,,,,,,,,,,,,,,,,,,,,,,,,,,,,,,,,,,,,,,,,109.97943655906096,109.97943655906096,103.54764151670993,98.67097904144165,63.043775683147246,59.61719430278858,3.0,3.1,-200,286,0,-12,175,-275,130.24722146987915,130.2472641468048,130.24971199035645,130.26152181625366,130.41154217720032,130.41154217720032,130.41154217720032,130.41154217720032,130.41154217720032,130.41154217720032,130.41154217720032,137.0126371383667,1,6.742150068283081,None,,,,,,,,,,,,,,,,,,58,5,2025-02-19_16h06.29.612,comp,2024.2.4,60.51897682149782,2025-02-19 16h06.36.996849 -0500,
15,15,0,critical,dwh,35.0,1.0,upper,127.0,127.0,125.0,200.0,200.0,125.0,3,8.391538619995117,None,,,,,0,0,0,0,0,15,15,61,137.02830243110657,,,,,,,,,,,,,,,,,,,,,,,,,,,,,,,,,,,,,,,,,,,,,,,,,,,,,,,,,,,,,,,,,,,,,,,,,,,,,,,,,127.0,127.0,125.0,200.0,200.0,125.0,1.0,1.3,220,-276,480,-259,738,-257,137.01344466209412,137.01348614692688,137.0155484676361,137.02830243110657,137.17843079566956,137.17843079566956,137.17843079566956,137.17843079566956,137.17843079566956,137.17843079566956,137.17843079566956,145.4294810295105,3,8.391538619995117,None,,,,,,,,,,,,,,,,,,58,5,2025-02-19_16h06.29.612,comp,2024.2.4,60.51897682149782,2025-02-19 16h06.36.996849 -0500,
16,16,0,filler_square,None,None,None,None,None,None,None,None,None,None,3,3.637709379196167,None,,,,,0,0,0,0,0,16,16,174,145.4450581073761,,,,,,,,,,,,,,,,,,,,,,,,,,,,,,,,,,,,,,,,,,,,,,,,,,,,,,,,,,,,,,,,,,,,,,,,,,,,,,,,,106.0836805787692,145.315561107264,145.5167750031125,105.7763188864241,147.26339111479007,147.26339111479007,2.1,2.12,-222,-252,0,-255,223,286,145.43045353889465,145.43049788475037,145.4328134059906,145.4450581073761,145.59487652778625,145.59487652778625,145.59487652778625,145.59487652778625,145.59487652778625,145.59487652778625,145.59487652778625,149.0960853099823,3,3.637709379196167,None,,,,,,,,,,,,,,,,,,58,5,2025-02-19_16h06.29.612,comp,2024.2.4,60.51897682149782,2025-02-19 16h06.36.996849 -0500,
17,17,0,filler_random,None,None,None,None,None,None,None,None,None,None,3,3.8442983627319336,None,,,,,0,0,0,0,0,17,17,134,149.1114046573639,,,,,,,,,,,,,,,,,,,,,,,,,,,,,,,,,,,,,,,,,,,,,,,,,,,,,,,,,,,,,,,,,,,,,,,,,,,,,,,,,180.49432244423946,119.98919101450151,68.5398585201528,161.95527165563806,184.63738782072156,189.72531830110862,1.0,1.3,243,-266,480,-285,752,-256,149.0970265865326,149.09706854820251,149.09946751594543,149.1114046573639,149.26169538497925,149.26169538497925,149.26169538497925,149.26169538497925,149.26169538497925,149.26169538497925,149.26169538497925,152.96269583702087,3,3.8442983627319336,None,,,,,,,,,,,,,,,,,,58,5,2025-02-19_16h06.29.612,comp,2024.2.4,60.51897682149782,2025-02-19 16h06.36.996849 -0500,
18,18,0,filler_random,None,None,None,None,None,None,None,None,None,None,1,1.4417073726654053,None,,,,,0,0,0,0,0,18,18,140,152.9782681465149,,,,,,,,,,,,,,,,,,,,,,,,,,,,,,,,,,,,,,,,,,,,,,,,,,,,,,,,,,,,,,,,,,,,,,,,,,,,,,,,,158.0899555626616,193.29916975805833,108.438920644773,109.70078992772545,135.78151904395645,107.19790947712119,2.1,2.11,-247,285,0,265,204,-288,152.9635865688324,152.9636480808258,152.9657211303711,152.9782681465149,153.14488983154297,153.14488983154297,153.14488983154297,153.14488983154297,153.14488983154297,153.14488983154297,153.14488983154297,154.42963004112244,1,1.4417073726654053,None,,,,,,,,,,,,,,,,,,58,5,2025-02-19_16h06.29.612,comp,2024.2.4,60.51897682149782,2025-02-19 16h06.36.996849 -0500,
19,19,0,catch,None,None,None,None,None,None,None,None,None,None,2,0.9506444931030273,None,,,,,0,0,0,0,0,19,19,127,154.44494152069092,,,,,,,,,,,,,,,,,,,,,,,,,,,,,,,,,,,,,,,,,,,,,,,,,,,,,,,,,,,,,,,,,,,,,,,,,,,,,,,,,114,76,158,167,94,96,3.0,3.2,-218,-281,0,-1,228,266,154.43068504333496,154.4307403564453,154.43326497077942,154.44494152069092,154.5948257446289,154.5948257446289,154.5948257446289,154.5948257446289,154.5948257446289,154.5948257446289,154.5948257446289,155.41272354125977,2,0.9506444931030273,None,,,,,,,,,,,,,,,,,,58,5,2025-02-19_16h06.29.612,comp,2024.2.4,60.51897682149782,2025-02-19 16h06.36.996849 -0500,
20,20,0,critical,hwd,20.0,1.0,upper,200.0,125.0,125.0,200.0,141.0,141.0,2,14.134665966033936,None,,,,,0,0,0,0,0,20,20,103,155.42797541618347,,,,,,,,,,,,,,,,,,,,,,,,,,,,,,,,,,,,,,,,,,,,,,,,,,,,,,,,,,,,,,,,,,,,,,,,,,,,,,,,,200.0,125.0,125.0,200.0,141.0,141.0,1.0,1.3,222,-287,480,-262,746,-267,155.41354417800903,155.4135868549347,155.41683411598206,155.42797541618347,155.5782790184021,155.5782790184021,155.5782790184021,155.5782790184021,155.5782790184021,155.5782790184021,155.5782790184021,169.57941365242004,2,14.134665966033936,None,,,,,,,,,,,,,,,,,,58,5,2025-02-19_16h06.29.612,comp,2024.2.4,60.51897682149782,2025-02-19 16h06.36.996849 -0500,
21,21,0,critical,dhw,35.0,3.0,lower,70.0,70.0,133.0,57.0,57.0,133.0,2,6.450499773025513,None,,,,,0,0,0,0,0,21,21,50,169.59451413154602,,,,,,,,,,,,,,,,,,,,,,,,,,,,,,,,,,,,,,,,,,,,,,,,,,,,,,,,,,,,,,,,,,,,,,,,,,,,,,,,,70.0,70.0,133.0,57.0,57.0,133.0,3.0,3.1,-160,262,0,19,191,-271,169.58023953437805,169.58028054237366,169.58275938034058,169.59451413154602,169.74464917182922,169.74464917182922,169.74464917182922,169.74464917182922,169.74464917182922,169.74464917182922,169.74464917182922,176.06233477592468,2,6.450499773025513,None,,,,,,,,,,,,,,,,,,58,5,2025-02-19_16h06.29.612,comp,2024.2.4,60.51897682149782,2025-02-19 16h06.36.996849 -0500,
22,22,0,critical,hwd,35.0,2.1,lower,133.0,57.0,57.0,133.0,70.0,70.0,2,3.645503044128418,None,,,,,0,0,0,0,0,22,22,40,176.0777997970581,,,,,,,,,,,,,,,,,,,,,,,,,,,,,,,,,,,,,,,,,,,,,,,,,,,,,,,,,,,,,,,,,,,,,,,,,,,,,,,,,133.0,57.0,57.0,133.0,70.0,70.0,2.1,2.12,-191,-270,0,-270,198,282,176.06316542625427,176.06320667266846,176.0657398700714,176.0777997970581,176.22794938087463,176.22794938087463,176.22794938087463,176.22794938087463,176.22794938087463,176.22794938087463,176.22794938087463,179.729065656662,2,3.645503044128418,None,,,,,,,,,,,,,,,,,,58,5,2025-02-19_16h06.29.612,comp,2024.2.4,60.51897682149782,2025-02-19 16h06.36.996849 -0500,
23,23,0,critical,hdw,20.0,4.0,lower,133.0,57.0,78.0,78.0,57.0,133.0,3,7.0999674797058105,None,,,,,0,0,0,0,0,23,23,118,179.74470806121826,,,,,,,,,,,,,,,,,,,,,,,,,,,,,,,,,,,,,,,,,,,,,,,,,,,,,,,,,,,,,,,,,,,,,,,,,,,,,,,,,133.0,57.0,78.0,78.0,57.0,133.0,4.0,4.1,-164,-266,0,-1,202,-259,179.72985315322876,179.7298939228058,179.73219227790833,179.74470806121826,179.89465355873108,179.89465355873108,179.89465355873108,179.89465355873108,179.89465355873108,179.89465355873108,179.89465355873108,186.84593629837036,3,7.0999674797058105,None,,,,,,,,,,,,,,,,,,58,5,2025-02-19_16h06.29.612,comp,2024.2.4,60.51897682149782,2025-02-19 16h06.36.996849 -0500,
24,24,0,filler_random,None,None,None,None,None,None,None,None,None,None,3,5.021092414855957,None,,,,,0,0,0,0,0,24,24,161,186.86137557029724,,,,,,,,,,,,,,,,,,,,,,,,,,,,,,,,,,,,,,,,,,,,,,,,,,,,,,,,,,,,,,,,,,,,,,,,,,,,,,,,,197.38945476387926,160.3157942586214,59.502561032196446,171.18993681163624,187.90329129954,163.79791383488885,2.2,2.22,-262,270,0,-263,263,-255,186.8468725681305,186.8469157218933,186.84895968437195,186.86137557029724,187.01156282424927,187.01156282424927,187.01156282424927,187.01156282424927,187.01156282424927,187.01156282424927,187.01156282424927,191.89592027664185,3,5.021092414855957,None,,,,,,,,,,,,,,,,,,58,5,2025-02-19_16h06.29.612,comp,2024.2.4,60.51897682149782,2025-02-19 16h06.36.996849 -0500,
25,25,0,critical,dhw,20.0,2.1,upper,141.0,141.0,200.0,125.0,125.0,200.0,3,8.251322269439697,None,,,,,0,0,0,0,0,25,25,27,191.91106843948364,,,,,,,,,,,,,,,,,,,,,,,,,,,,,,,,,,,,,,,,,,,,,,,,,,,,,,,,,,,,,,,,,,,,,,,,,,,,,,,,,141.0,141.0,200.0,125.0,125.0,200.0,2.1,2.11,-229,262,0,266,258,-280,191.8967354297638,191.89677786827087,191.89909839630127,191.91106843948364,192.06136322021484,192.06136322021484,192.06136322021484,192.06136322021484,192.06136322021484,192.06136322021484,192.06136322021484,200.17928314208984,3,8.251322269439697,None,,,,,,,,,,,,,,,,,,58,5,2025-02-19_16h06.29.612,comp,2024.2.4,60.51897682149782,2025-02-19 16h06.36.996849 -0500,
26,26,0,critical,wdh,20.0,2.1,lower,57.0,133.0,78.0,78.0,133.0,57.0,1,2.9134480953216553,None,,,,,0,0,0,0,0,26,26,34,200.19447088241577,,,,,,,,,,,,,,,,,,,,,,,,,,,,,,,,,,,,,,,,,,,,,,,,,,,,,,,,,,,,,,,,,,,,,,,,,,,,,,,,,57.0,133.0,78.0,78.0,133.0,57.0,2.1,2.11,-202,289,0,275,164,-277,200.18009424209595,200.18013501167297,200.1825716495514,200.19447088241577,200.34444737434387,200.34444737434387,200.34444737434387,200.34444737434387,200.34444737434387,200.34444737434387,200.34444737434387,203.11237406730652,1,2.9134480953216553,None,,,,,,,,,,,,,,,,,,58,5,2025-02-19_16h06.29.612,comp,2024.2.4,60.51897682149782,2025-02-19 16h06.36.996849 -0500,
27,27,0,filler_random,None,None,None,None,None,None,None,None,None,None,1,1.922508955001831,None,,,,,0,0,0,0,0,27,27,145,203.12780737876892,,,,,,,,,,,,,,,,,,,,,,,,,,,,,,,,,,,,,,,,,,,,,,,,,,,,,,,,,,,,,,,,,,,,,,,,,,,,,,,,,122.65308837269039,166.29032584796758,94.03189168397628,78.31111820702021,159.14062844628228,119.69931044702847,4.0,4.1,-218,-290,0,-4,195,-251,203.113294839859,203.11333584785461,203.11593747138977,203.12780737876892,203.27789735794067,203.27789735794067,203.27789735794067,203.27789735794067,203.27789735794067,203.27789735794067,203.27789735794067,205.06237125396729,1,1.922508955001831,None,,,,,,,,,,,,,,,,,,58,5,2025-02-19_16h06.29.612,comp,2024.2.4,60.51897682149782,2025-02-19 16h06.36.996849 -0500,
28,28,0,critical,whd,35.0,4.0,upper,125.0,200.0,200.0,125.0,127.0,127.0,1,3.92551326751709,None,,,,,0,0,0,0,0,28,28,89,205.07768201828003,,,,,,,,,,,,,,,,,,,,,,,,,,,,,,,,,,,,,,,,,,,,,,,,,,,,,,,,,,,,,,,,,,,,,,,,,,,,,,,,,125.0,200.0,200.0,125.0,127.0,127.0,4.0,4.1,-258,-259,0,-7,222,-277,205.0632345676422,205.06327605247498,205.06584310531616,205.07768201828003,205.22796487808228,205.22796487808228,205.22796487808228,205.22796487808228,205.22796487808228,205.22796487808228,205.22796487808228,209.01244854927063,1,3.92551326751709,None,,,,,,,,,,,,,,,,,,58,5,2025-02-19_16h06.29.612,comp,2024.2.4,60.51897682149782,2025-02-19 16h06.36.996849 -0500,
29,29,0,critical,wdh,20.0,4.0,upper,125.0,200.0,141.0,141.0,200.0,125.0,1,2.095240831375122,None,,,,,0,0,0,0,0,29,29,83,209.02788639068604,,,,,,,,,,,,,,,,,,,,,,,,,,,,,,,,,,,,,,,,,,,,,,,,,,,,,,,,,,,,,,,,,,,,,,,,,,,,,,,,,125.0,200.0,141.0,141.0,200.0,125.0,4.0,4.1,-266,-290,0,-18,229,-260,209.0133113861084,209.0133547782898,209.01595091819763,209.02788639068604,209.17809391021729,209.17809391021729,209.17809391021729,209.17809391021729,209.17809391021729,209.17809391021729,209.17809391021729,211.12908792495728,1,2.095240831375122,None,,,,,,,,,,,,,,,,,,58,5,2025-02-19_16h06.29.612,comp,2024.2.4,60.51897682149782,2025-02-19 16h06.36.996849 -0500,
30,30,0,catch,None,None,None,None,None,None,None,None,None,None,1,1.201695203781128,None,,,,,0,0,0,0,0,30,30,121,211.14482760429382,,,,,,,,,,,,,,,,,,,,,,,,,,,,,,,,,,,,,,,,,,,,,,,,,,,,,,,,,,,,,,,,,,,,,,,,,,,,,,,,,178,147,65,125,98,92,1.0,1.3,248,-279,480,-253,684,-269,211.13018441200256,211.1302261352539,211.13229823112488,211.14482760429382,211.29444575309753,211.29444575309753,211.29444575309753,211.29444575309753,211.29444575309753,211.29444575309753,211.29444575309753,212.36222577095032,1,1.201695203781128,None,,,,,,,,,,,,,,,,,,58,5,2025-02-19_16h06.29.612,comp,2024.2.4,60.51897682149782,2025-02-19 16h06.36.996849 -0500,
31,31,0,critical,hdw,35.0,2.1,upper,200.0,125.0,127.0,127.0,125.0,200.0,3,1.5777878761291504,None,,,,,0,0,0,0,0,31,31,45,212.37752270698547,,,,,,,,,,,,,,,,,,,,,,,,,,,,,,,,,,,,,,,,,,,,,,,,,,,,,,,,,,,,,,,,,,,,,,,,,,,,,,,,,200.0,125.0,127.0,127.0,125.0,200.0,2.1,2.11,-222,267,0,264,260,-259,212.36299920082092,212.36303901672363,212.36570763587952,212.37752270698547,212.52790689468384,212.52790689468384,212.52790689468384,212.52790689468384,212.52790689468384,212.52790689468384,212.52790689468384,213.96236610412598,3,1.5777878761291504,None,,,,,,,,,,,,,,,,,,58,5,2025-02-19_16h06.29.612,comp,2024.2.4,60.51897682149782,2025-02-19 16h06.36.996849 -0500,
32,32,0,critical,dhw,20.0,1.0,upper,141.0,141.0,200.0,125.0,125.0,200.0,1,4.000555038452148,None,,,,,0,0,0,0,0,32,32,55,213.97782278060913,,,,,,,,,,,,,,,,,,,,,,,,,,,,,,,,,,,,,,,,,,,,,,,,,,,,,,,,,,,,,,,,,,,,,,,,,,,,,,,,,141.0,141.0,200.0,125.0,125.0,200.0,1.0,1.1,-709,262,-480,262,-222,277,213.96318912506104,213.96323156356812,213.96559238433838,213.97782278060913,214.12797570228577,214.12797570228577,214.12797570228577,214.12797570228577,214.12797570228577,214.12797570228577,214.12797570228577,217.9956796169281,1,4.000555038452148,None,,,,,,,,,,,,,,,,,,58,5,2025-02-19_16h06.29.612,comp,2024.2.4,60.51897682149782,2025-02-19 16h06.36.996849 -0500,
33,33,0,catch,None,None,None,None,None,None,None,None,None,None,1,1.008159875869751,None,,,,,0,0,0,0,0,33,33,124,218.01096868515015,,,,,,,,,,,,,,,,,,,,,,,,,,,,,,,,,,,,,,,,,,,,,,,,,,,,,,,,,,,,,,,,,,,,,,,,,,,,,,,,,166,159,70,120,97,93,4.0,4.1,-236,-251,0,16,202,-256,217.996723651886,217.9967668056488,217.9988558292389,218.01096868515015,218.16117238998413,218.16117238998413,218.16117238998413,218.16117238998413,218.16117238998413,218.16117238998413,218.16117238998413,219.0289249420166,1,1.008159875869751,None,,,,,,,,,,,,,,,,,,58,5,2025-02-19_16h06.29.612,comp,2024.2.4,60.51897682149782,2025-02-19 16h06.36.996849 -0500,
34,34,0,filler_random,None,None,None,None,None,None,None,None,None,None,1,1.0001606941223145,None,,,,,0,0,0,0,0,34,34,141,219.04450106620789,,,,,,,,,,,,,,,,,,,,,,,,,,,,,,,,,,,,,,,,,,,,,,,,,,,,,,,,,,,,,,,,,,,,,,,,,,,,,,,,,197.43098509477022,183.3388722005088,146.34401892661657,139.6760053711075,118.90344952950511,162.72592439834767,1.0,1.3,222,-261,480,-289,727,-261,219.0298683643341,219.0299129486084,219.03199076652527,219.04450106620789,219.1945436000824,219.1945436000824,219.1945436000824,219.1945436000824,219.1945436000824,219.1945436000824,219.1945436000824,220.06232357025146,1,1.0001606941223145,None,,,,,,,,,,,,,,,,,,58,5,2025-02-19_16h06.29.612,comp,2024.2.4,60.51897682149782,2025-02-19 16h06.36.996849 -0500,
35,35,0,critical,hdw,20.0,3.0,upper,200.0,125.0,141.0,141.0,125.0,200.0,3,4.700594186782837,None,,,,,0,0,0,0,0,35,35,117,220.0775694847107,,,,,,,,,,,,,,,,,,,,,,,,,,,,,,,,,,,,,,,,,,,,,,,,,,,,,,,,,,,,,,,,,,,,,,,,,,,,,,,,,200.0,125.0,141.0,141.0,125.0,200.0,3.0,3.2,-229,-269,0,16,266,273,220.06314277648926,220.0631833076477,220.06564903259277,220.0775694847107,220.2278552055359,220.2278552055359,220.2278552055359,220.2278552055359,220.2278552055359,220.2278552055359,220.2278552055359,224.779358625412,3,4.700594186782837,None,,,,,,,,,,,,,,,,,,58,5,2025-02-19_16h06.29.612,comp,2024.2.4,60.51897682149782,2025-02-19 16h06.36.996849 -0500,
36,36,0,critical,dwh,35.0,3.0,upper,127.0,127.0,125.0,200.0,200.0,125.0,3,4.59266209602356,None,,,,,0,0,0,0,0,36,36,63,224.79439067840576,,,,,,,,,,,,,,,,,,,,,,,,,,,,,,,,,,,,,,,,,,,,,,,,,,,,,,,,,,,,,,,,,,,,,,,,,,,,,,,,,127.0,127.0,125.0,200.0,200.0,125.0,3.0,3.1,-260,267,0,-4,258,-255,224.78017139434814,224.7802131175995,224.78221988677979,224.79439067840576,224.94438934326172,224.94438934326172,224.94438934326172,224.94438934326172,224.94438934326172,224.94438934326172,224.94438934326172,229.39551520347595,3,4.59266209602356,None,,,,,,,,,,,,,,,,,,58,5,2025-02-19_16h06.29.612,comp,2024.2.4,60.51897682149782,2025-02-19 16h06.36.996849 -0500,
37,37,0,critical,whd,35.0,1.0,upper,125.0,200.0,200.0,125.0,127.0,127.0,1,12.650091409683228,None,,,,,0,0,0,0,0,37,37,85,229.41103076934814,,,,,,,,,,,,,,,,,,,,,,,,,,,,,,,,,,,,,,,,,,,,,,,,,,,,,,,,,,,,,,,,,,,,,,,,,,,,,,,,,125.0,200.0,200.0,125.0,127.0,127.0,1.0,1.3,222,-257,480,-282,702,-262,229.39636874198914,229.39641165733337,229.3984694480896,229.41103076934814,229.56105613708496,229.56105613708496,229.56105613708496,229.56105613708496,229.56105613708496,229.56105613708496,229.56105613708496,242.06248021125793,1,12.650091409683228,None,,,,,,,,,,,,,,,,,,58,5,2025-02-19_16h06.29.612,comp,2024.2.4,60.51897682149782,2025-02-19 16h06.36.996849 -0500,
38,38,0,filler_random,None,None,None,None,None,None,None,None,None,None,1,2.1496167182922363,None,,,,,0,0,0,0,0,38,38,165,242.0781147480011,,,,,,,,,,,,,,,,,,,,,,,,,,,,,,,,,,,,,,,,,,,,,,,,,,,,,,,,,,,,,,,,,,,,,,,,,,,,,,,,,111.66822064207307,196.8171684248335,82.00803844937684,92.84158652269869,69.87351634990212,101.2789215806747,4.0,4.1,-241,-255,0,5,193,-266,242.0635085105896,242.06355118751526,242.0658881664276,242.0781147480011,242.2276644706726,242.2276644706726,242.2276644706726,242.2276644706726,242.2276644706726,242.2276644706726,242.2276644706726,244.24580073356628,1,2.1496167182922363,None,,,,,,,,,,,,,,,,,,58,5,2025-02-19_16h06.29.612,comp,2024.2.4,60.51897682149782,2025-02-19 16h06.36.996849 -0500,
39,39,0,filler_square,None,None,None,None,None,None,None,None,None,None,3,1.3748338222503662,None,,,,,0,0,0,0,0,39,39,205,244.26082062721252,,,,,,,,,,,,,,,,,,,,,,,,,,,,,,,,,,,,,,,,,,,,,,,,,,,,,,,,,,,,,,,,,,,,,,,,,,,,,,,,,170.98732547429165,66.53148335050369,114.51252656738569,124.68516436514065,191.40415900309338,191.40415900309338,4.0,4.2,-192,15,0,-251,254,-16,244.24687361717224,244.24691700935364,244.2489995956421,244.26082062721252,244.41109371185303,244.41109371185303,244.41109371185303,244.41109371185303,244.41109371185303,244.41109371185303,244.41109371185303,245.64564538002014,3,1.3748338222503662,None,,,,,,,,,,,,,,,,,,58,5,2025-02-19_16h06.29.612,comp,2024.2.4,60.51897682149782,2025-02-19 16h06.36.996849 -0500,
40,40,0,critical,dhw,35.0,2.1,lower,70.0,70.0,133.0,57.0,57.0,133.0,1,13.246944189071655,None,,,,,0,0,0,0,0,40,40,24,245.66101336479187,,,,,,,,,,,,,,,,,,,,,,,,,,,,,,,,,,,,,,,,,,,,,,,,,,,,,,,,,,,,,,,,,,,,,,,,,,,,,,,,,70.0,70.0,133.0,57.0,57.0,133.0,2.1,2.11,-160,265,0,282,191,-264,245.6464385986328,245.646479845047,245.64898991584778,245.66101336479187,245.81088733673096,245.81088733673096,245.81088733673096,245.81088733673096,245.81088733673096,245.81088733673096,245.81088733673096,258.91219902038574,1,13.246944189071655,None,,,,,,,,,,,,,,,,,,58,5,2025-02-19_16h06.29.612,comp,2024.2.4,60.51897682149782,2025-02-19 16h06.36.996849 -0500,
41,41,0,filler_square,None,None,None,None,None,None,None,None,None,None,2,2.843245267868042,None,,,,,0,0,0,0,0,41,41,191,258.9275703430176,,,,,,,,,,,,,,,,,,,,,,,,,,,,,,,,,,,,,,,,,,,,,,,,,,,,,,,,,,,,,,,,,,,,,,,,,,,,,,,,,59.79206184528147,71.60251143845281,94.58785559815898,94.58785559815898,85.91660468867973,88.43842907944277,2.1,2.11,-179,260,0,272,188,-270,258.91313910484314,258.91318130493164,258.91562032699585,258.9275703430176,259.077339887619,259.077339887619,259.077339887619,259.077339887619,259.077339887619,259.077339887619,259.077339887619,261.77845454216003,2,2.843245267868042,None,,,,,,,,,,,,,,,,,,58,5,2025-02-19_16h06.29.612,comp,2024.2.4,60.51897682149782,2025-02-19 16h06.36.996849 -0500,
42,42,0,filler_square,None,None,None,None,None,None,None,None,None,None,3,1.471660852432251,None,,,,,0,0,0,0,0,42,42,200,261.79421639442444,,,,,,,,,,,,,,,,,,,,,,,,,,,,,,,,,,,,,,,,,,,,,,,,,,,,,,,,,,,,,,,,,,,,,,,,,,,,,,,,,64.2277356940837,64.80776842843679,67.05882264291661,67.00292706076524,73.19565797466049,73.19565797466049,4.0,4.1,-162,-289,0,11,166,-274,261.7794051170349,261.77944684028625,261.7819082736969,261.79421639442444,261.9440221786499,261.9440221786499,261.9440221786499,261.9440221786499,261.9440221786499,261.9440221786499,261.9440221786499,263.2785189151764,3,1.471660852432251,None,,,,,,,,,,,,,,,,,,58,5,2025-02-19_16h06.29.612,comp,2024.2.4,60.51897682149782,2025-02-19 16h06.36.996849 -0500,
43,43,0,critical,dwh,20.0,2.1,lower,78.0,78.0,57.0,133.0,133.0,57.0,2,5.668115615844727,None,,,,,0,0,0,0,0,43,43,30,263.29387307167053,,,,,,,,,,,,,,,,,,,,,,,,,,,,,,,,,,,,,,,,,,,,,,,,,,,,,,,,,,,,,,,,,,,,,,,,,,,,,,,,,78.0,78.0,57.0,133.0,133.0,57.0,2.1,2.11,-202,259,0,254,191,-286,263.2793085575104,263.27935004234314,263.28191781044006,263.29387307167053,263.44402265548706,263.44402265548706,263.44402265548706,263.44402265548706,263.44402265548706,263.44402265548706,263.44402265548706,268.9785315990448,2,5.668115615844727,None,,,,,,,,,,,,,,,,,,58,5,2025-02-19_16h06.29.612,comp,2024.2.4,60.51897682149782,2025-02-19 16h06.36.996849 -0500,
44,44,0,critical,whd,35.0,1.0,lower,57.0,133.0,133.0,57.0,70.0,70.0,1,4.466763019561768,None,,,,,0,0,0,0,0,44,44,84,268.9938654899597,,,,,,,,,,,,,,,,,,,,,,,,,,,,,,,,,,,,,,,,,,,,,,,,,,,,,,,,,,,,,,,,,,,,,,,,,,,,,,,,,57.0,133.0,133.0,57.0,70.0,70.0,1.0,1.1,-671,280,-480,260,-320,285,268.9793257713318,268.97936725616455,268.9813084602356,268.9938654899597,269.14390110969543,269.14390110969543,269.14390110969543,269.14390110969543,269.14390110969543,269.14390110969543,269.14390110969543,273.4620883464813,1,4.466763019561768,None,,,,,,,,,,,,,,,,,,58,5,2025-02-19_16h06.29.612,comp,2024.2.4,60.51897682149782,2025-02-19 16h06.36.996849 -0500,
45,45,0,critical,hdw,35.0,3.0,upper,200.0,125.0,127.0,127.0,125.0,200.0,3,6.493332862854004,None,,,,,0,0,0,0,0,45,45,111,273.4774761199951,,,,,,,,,,,,,,,,,,,,,,,,,,,,,,,,,,,,,,,,,,,,,,,,,,,,,,,,,,,,,,,,,,,,,,,,,,,,,,,,,200.0,125.0,127.0,127.0,125.0,200.0,3.0,3.2,-222,-290,0,1,260,254,273.4629030227661,273.46294379234314,273.4649977684021,273.4774761199951,273.627738237381,273.627738237381,273.627738237381,273.627738237381,273.627738237381,273.627738237381,273.627738237381,279.97867345809937,3,6.493332862854004,None,,,,,,,,,,,,,,,,,,58,5,2025-02-19_16h06.29.612,comp,2024.2.4,60.51897682149782,2025-02-19 16h06.36.996849 -0500,
46,46,0,critical,hdw,20.0,3.0,lower,133.0,57.0,78.0,78.0,57.0,133.0,3,1.9131579399108887,None,,,,,0,0,0,0,0,46,46,116,279.9941132068634,,,,,,,,,,,,,,,,,,,,,,,,,,,,,,,,,,,,,,,,,,,,,,,,,,,,,,,,,,,,,,,,,,,,,,,,,,,,,,,,,133.0,57.0,78.0,78.0,57.0,133.0,3.0,3.1,-164,272,0,-12,202,-289,279.9794690608978,279.9795105457306,279.98176860809326,279.9941132068634,280.14385318756104,280.14385318756104,280.14385318756104,280.14385318756104,280.14385318756104,280.14385318756104,280.14385318756104,281.911776304245,3,1.9131579399108887,None,,,,,,,,,,,,,,,,,,58,5,2025-02-19_16h06.29.612,comp,2024.2.4,60.51897682149782,2025-02-19 16h06.36.996849 -0500,
47,47,0,critical,whd,35.0,3.0,lower,57.0,133.0,133.0,57.0,70.0,70.0,1,1.6183066368103027,None,,,,,0,0,0,0,0,47,47,86,281.9275805950165,,,,,,,,,,,,,,,,,,,,,,,,,,,,,,,,,,,,,,,,,,,,,,,,,,,,,,,,,,,,,,,,,,,,,,,,,,,,,,,,,57.0,133.0,133.0,57.0,70.0,70.0,3.0,3.1,-191,270,0,8,160,-277,281.91268587112427,281.91272735595703,281.91510128974915,281.9275805950165,282.0772135257721,282.0772135257721,282.0772135257721,282.0772135257721,282.0772135257721,282.0772135257721,282.0772135257721,283.56236577033997,1,1.6183066368103027,None,,,,,,,,,,,,,,,,,,58,5,2025-02-19_16h06.29.612,comp,2024.2.4,60.51897682149782,2025-02-19 16h06.36.996849 -0500,
48,48,0,critical,hwd,35.0,2.1,upper,200.0,125.0,125.0,200.0,127.0,127.0,2,5.304173707962036,None,,,,,0,0,0,0,0,48,48,17,283.57772159576416,,,,,,,,,,,,,,,,,,,,,,,,,,,,,,,,,,,,,,,,,,,,,,,,,,,,,,,,,,,,,,,,,,,,,,,,,,,,,,,,,200.0,125.0,125.0,200.0,127.0,127.0,2.1,2.12,-258,-266,0,-264,260,264,283.5632140636444,283.5632562637329,283.5651912689209,283.57772159576416,283.7280511856079,283.7280511856079,283.7280511856079,283.7280511856079,283.7280511856079,283.7280511856079,283.7280511856079,288.8951907157898,2,5.304173707962036,None,,,,,,,,,,,,,,,,,,58,5,2025-02-19_16h06.29.612,comp,2024.2.4,60.51897682149782,2025-02-19 16h06.36.996849 -0500,
49,49,0,critical,wdh,35.0,4.0,lower,57.0,133.0,70.0,70.0,133.0,57.0,1,4.412119388580322,None,,,,,0,0,0,0,0,49,49,76,288.9103946685791,,,,,,,,,,,,,,,,,,,,,,,,,,,,,,,,,,,,,,,,,,,,,,,,,,,,,,,,,,,,,,,,,,,,,,,,,,,,,,,,,57.0,133.0,70.0,70.0,133.0,57.0,4.0,4.2,-198,4,0,-268,160,-15,288.89597511291504,288.8960154056549,288.89837408065796,288.9103946685791,289.0604543685913,289.0604543685913,289.0604543685913,289.0604543685913,289.0604543685913,289.0604543685913,289.0604543685913,293.3283152580261,1,4.412119388580322,None,,,,,,,,,,,,,,,,,,58,5,2025-02-19_16h06.29.612,comp,2024.2.4,60.51897682149782,2025-02-19 16h06.36.996849 -0500,
50,50,0,critical,hwd,20.0,1.0,lower,133.0,57.0,57.0,133.0,78.0,78.0,2,2.4268829822540283,None,,,,,0,0,0,0,0,50,50,102,293.34385681152344,,,,,,,,,,,,,,,,,,,,,,,,,,,,,,,,,,,,,,,,,,,,,,,,,,,,,,,,,,,,,,,,,,,,,,,,,,,,,,,,,133.0,57.0,57.0,133.0,78.0,78.0,1.0,1.2,-191,-13,0,14,202,18,293.3291356563568,293.32917833328247,293.33131766319275,293.34385681152344,293.49435210227966,293.49435210227966,293.49435210227966,293.49435210227966,293.49435210227966,293.49435210227966,293.49435210227966,295.77816796302795,2,2.4268829822540283,None,,,,,,,,,,,,,,,,,,58,5,2025-02-19_16h06.29.612,comp,2024.2.4,60.51897682149782,2025-02-19 16h06.36.996849 -0500,
51,51,0,filler_random,None,None,None,None,None,None,None,None,None,None,1,8.608609199523926,None,,,,,0,0,0,0,0,51,51,168,295.79398918151855,,,,,,,,,,,,,,,,,,,,,,,,,,,,,,,,,,,,,,,,,,,,,,,,,,,,,,,,,,,,,,,,,,,,,,,,,,,,,,,,,115.17035571282794,150.90175380329785,63.395199406707405,131.44364133142687,155.60665937427865,63.28726328190104,2.2,2.22,-237,280,0,-284,193,-257,295.7791950702667,295.7792389392853,295.7818388938904,295.79398918151855,295.94383692741394,295.94383692741394,295.94383692741394,295.94383692741394,295.94383692741394,295.94383692741394,295.94383692741394,304.411559343338,1,8.608609199523926,None,,,,,,,,,,,,,,,,,,58,5,2025-02-19_16h06.29.612,comp,2024.2.4,60.51897682149782,2025-02-19 16h06.36.996849 -0500,
52,52,0,critical,dwh,20.0,2.1,upper,141.0,141.0,125.0,200.0,200.0,125.0,1,15.238312244415283,None,,,,,0,0,0,0,0,52,52,7,304.42719435691833,,,,,,,,,,,,,,,,,,,,,,,,,,,,,,,,,,,,,,,,,,,,,,,,,,,,,,,,,,,,,,,,,,,,,,,,,,,,,,,,,141.0,141.0,125.0,200.0,200.0,125.0,2.1,2.11,-266,258,0,281,258,-252,304.4123704433441,304.4124119281769,304.41464924812317,304.42719435691833,304.57735562324524,304.57735562324524,304.57735562324524,304.57735562324524,304.57735562324524,304.57735562324524,304.57735562324524,319.678391456604,1,15.238312244415283,None,,,,,,,,,,,,,,,,,,58,5,2025-02-19_16h06.29.612,comp,2024.2.4,60.51897682149782,2025-02-19 16h06.36.996849 -0500,
53,53,0,critical,whd,35.0,3.0,upper,125.0,200.0,200.0,125.0,127.0,127.0,1,11.629038572311401,None,,,,,0,0,0,0,0,53,53,87,319.6934926509857,,,,,,,,,,,,,,,,,,,,,,,,,,,,,,,,,,,,,,,,,,,,,,,,,,,,,,,,,,,,,,,,,,,,,,,,,,,,,,,,,125.0,200.0,200.0,125.0,127.0,127.0,3.0,3.2,-258,-259,0,-18,222,257,319.6791846752167,319.6792254447937,319.68133878707886,319.6934926509857,319.8439347743988,319.8439347743988,319.8439347743988,319.8439347743988,319.8439347743988,319.8439347743988,319.8439347743988,331.32844614982605,1,11.629038572311401,None,,,,,,,,,,,,,,,,,,58,5,2025-02-19_16h06.29.612,comp,2024.2.4,60.51897682149782,2025-02-19 16h06.36.996849 -0500,
54,54,0,critical,dwh,35.0,1.0,lower,70.0,70.0,57.0,133.0,133.0,57.0,2,3.4998717308044434,None,,,,,0,0,0,0,0,54,54,60,331.3437879085541,,,,,,,,,,,,,,,,,,,,,,,,,,,,,,,,,,,,,,,,,,,,,,,,,,,,,,,,,,,,,,,,,,,,,,,,,,,,,,,,,70.0,70.0,57.0,133.0,133.0,57.0,1.0,1.3,282,-276,480,-287,671,-288,331.3292965888977,331.3293397426605,331.3318531513214,331.3437879085541,331.4937319755554,331.4937319755554,331.4937319755554,331.4937319755554,331.4937319755554,331.4937319755554,331.4937319755554,334.8448431491852,2,3.4998717308044434,None,,,,,,,,,,,,,,,,,,58,5,2025-02-19_16h06.29.612,comp,2024.2.4,60.51897682149782,2025-02-19 16h06.36.996849 -0500,
55,55,0,filler_square,None,None,None,None,None,None,None,None,None,None,2,1.6778671741485596,None,,,,,0,0,0,0,0,55,55,172,334.8603847026825,,,,,,,,,,,,,,,,,,,,,,,,,,,,,,,,,,,,,,,,,,,,,,,,,,,,,,,,,,,,,,,,,,,,,,,,,,,,,,,,,70.35477459464828,72.58129494523735,90.23192292163222,90.23192292163222,71.38601216566805,74.91164616622319,1.0,1.3,303,-288,480,-262,659,-267,334.8457758426666,334.84581756591797,334.84819197654724,334.8603847026825,335.01028060913086,335.01028060913086,335.01028060913086,335.01028060913086,335.01028060913086,335.01028060913086,335.01028060913086,336.5446481704712,2,1.6778671741485596,None,,,,,,,,,,,,,,,,,,58,5,2025-02-19_16h06.29.612,comp,2024.2.4,60.51897682149782,2025-02-19 16h06.36.996849 -0500,
56,56,0,critical,wdh,20.0,1.0,lower,57.0,133.0,78.0,78.0,133.0,57.0,2,7.737973213195801,None,,,,,0,0,0,0,0,56,56,78,336.56022572517395,,,,,,,,,,,,,,,,,,,,,,,,,,,,,,,,,,,,,,,,,,,,,,,,,,,,,,,,,,,,,,,,,,,,,,,,,,,,,,,,,57.0,133.0,78.0,78.0,133.0,57.0,1.0,1.2,-202,-6,0,-6,164,1,336.54541969299316,336.5454626083374,336.5477600097656,336.56022572517395,336.71023321151733,336.71023321151733,336.71023321151733,336.71023321151733,336.71023321151733,336.71023321151733,336.71023321151733,344.31146025657654,2,7.737973213195801,None,,,,,,,,,,,,,,,,,,58,5,2025-02-19_16h06.29.612,comp,2024.2.4,60.51897682149782,2025-02-19 16h06.36.996849 -0500,
57,57,0,critical,whd,35.0,4.0,lower,57.0,133.0,133.0,57.0,70.0,70.0,1,9.475470542907715,None,,,,,0,0,0,0,0,57,57,88,344.3267240524292,,,,,,,,,,,,,,,,,,,,,,,,,,,,,,,,,,,,,,,,,,,,,,,,,,,,,,,,,,,,,,,,,,,,,,,,,,,,,,,,,57.0,133.0,133.0,57.0,70.0,70.0,4.0,4.2,-191,8,0,-272,160,-12,344.31228017807007,344.31232047080994,344.314825296402,344.3267240524292,344.47676253318787,344.47676253318787,344.47676253318787,344.47676253318787,344.47676253318787,344.47676253318787,344.47676253318787,353.81124687194824,1,9.475470542907715,None,,,,,,,,,,,,,,,,,,58,5,2025-02-19_16h06.29.612,comp,2024.2.4,60.51897682149782,2025-02-19 16h06.36.996849 -0500,
58,58,0,filler_square,None,None,None,None,None,None,None,None,None,None,2,1.2951350212097168,None,,,,,0,0,0,0,0,58,58,199,353.8269956111908,,,,,,,,,,,,,,,,,,,,,,,,,,,,,,,,,,,,,,,,,,,,,,,,,,,,,,,,,,,,,,,,,,,,,,,,,,,,,,,,,110.21687080351984,74.9111334696707,125.39808679116975,125.39808679116975,115.77890761089049,64.7663863736298,2.2,2.21,-196,-275,0,254,191,266,353.8122560977936,353.8123004436493,353.814382314682,353.8269956111908,353.976779460907,353.976779460907,353.976779460907,353.976779460907,353.976779460907,353.976779460907,353.976779460907,355.128023147583,2,1.2951350212097168,None,,,,,,,,,,,,,,,,,,58,5,2025-02-19_16h06.29.612,comp,2024.2.4,60.51897682149782,2025-02-19 16h06.36.996849 -0500,
59,59,0,critical,hwd,35.0,1.0,lower,133.0,57.0,57.0,133.0,70.0,70.0,2,12.921658992767334,None,,,,,0,0,0,0,0,59,59,96,355.14347195625305,,,,,,,,,,,,,,,,,,,,,,,,,,,,,,,,,,,,,,,,,,,,,,,,,,,,,,,,,,,,,,,,,,,,,,,,,,,,,,,,,133.0,57.0,57.0,133.0,70.0,70.0,1.0,1.2,-191,1,0,-12,198,-11,355.1288080215454,355.1288514137268,355.1309084892273,355.14347195625305,355.2934534549713,355.2934534549713,355.2934534549713,355.2934534549713,355.2934534549713,355.2934534549713,355.2934534549713,368.0778498649597,2,12.921658992767334,None,,,,,,,,,,,,,,,,,,58,5,2025-02-19_16h06.29.612,comp,2024.2.4,60.51897682149782,2025-02-19 16h06.36.996849 -0500,
60,60,0,critical,hwd,20.0,3.0,lower,133.0,57.0,57.0,133.0,78.0,78.0,3,4.077170133590698,None,,,,,0,0,0,0,0,60,60,104,368.0931272506714,,,,,,,,,,,,,,,,,,,,,,,,,,,,,,,,,,,,,,,,,,,,,,,,,,,,,,,,,,,,,,,,,,,,,,,,,,,,,,,,,133.0,57.0,57.0,133.0,78.0,78.0,3.0,3.1,-191,255,0,16,202,-288,368.07863688468933,368.07867884635925,368.08108019828796,368.0931272506714,368.24337434768677,368.24337434768677,368.24337434768677,368.24337434768677,368.24337434768677,368.24337434768677,368.24337434768677,372.1777594089508,3,4.077170133590698,None,,,,,,,,,,,,,,,,,,58,5,2025-02-19_16h06.29.612,comp,2024.2.4,60.51897682149782,2025-02-19 16h06.36.996849 -0500,
61,61,0,filler_square,None,None,None,None,None,None,None,None,None,None,1,3.2250285148620605,None,,,,,0,0,0,0,0,61,61,185,372.1934494972229,,,,,,,,,,,,,,,,,,,,,,,,,,,,,,,,,,,,,,,,,,,,,,,,,,,,,,,,,,,,,,,,,,,,,,,,,,,,,,,,,66.67543171673529,66.67543171673529,61.46291361357615,61.23358023688772,60.08193092303204,61.24241158600406,4.0,4.2,-160,9,0,-270,157,-17,372.17872405052185,372.1787669658661,372.180832862854,372.1934494972229,372.34317779541016,372.34317779541016,372.34317779541016,372.34317779541016,372.34317779541016,372.34317779541016,372.34317779541016,375.42773699760437,1,3.2250285148620605,None,,,,,,,,,,,,,,,,,,58,5,2025-02-19_16h06.29.612,comp,2024.2.4,60.51897682149782,2025-02-19 16h06.36.996849 -0500,
62,62,0,critical,dwh,35.0,3.0,lower,70.0,70.0,57.0,133.0,133.0,57.0,1,4.078509330749512,None,,,,,0,0,0,0,0,62,62,62,375.44349479675293,,,,,,,,,,,,,,,,,,,,,,,,,,,,,,,,,,,,,,,,,,,,,,,,,,,,,,,,,,,,,,,,,,,,,,,,,,,,,,,,,70.0,70.0,57.0,133.0,133.0,57.0,3.0,3.1,-198,258,0,13,191,-289,375.4285523891449,375.428594827652,375.4309387207031,375.44349479675293,375.5932686328888,375.5932686328888,375.5932686328888,375.5932686328888,375.5932686328888,375.5932686328888,375.5932686328888,379.52775144577026,1,4.078509330749512,None,,,,,,,,,,,,,,,,,,58,5,2025-02-19_16h06.29.612,comp,2024.2.4,60.51897682149782,2025-02-19 16h06.36.996849 -0500,
63,63,0,filler_random,None,None,None,None,None,None,None,None,None,None,3,0.9782326221466064,None,,,,,0,0,0,0,0,63,63,131,379.5436751842499,,,,,,,,,,,,,,,,,,,,,,,,,,,,,,,,,,,,,,,,,,,,,,,,,,,,,,,,,,,,,,,,,,,,,,,,,,,,,,,,,65.13298595182027,123.78752977316493,157.7422337029828,112.08457947282236,188.86183273170036,162.56200890070994,1.0,1.1,-694,261,-480,265,-247,275,379.5286602973938,379.52870321273804,379.5307695865631,379.5436751842499,379.6934289932251,379.6934289932251,379.6934289932251,379.6934289932251,379.6934289932251,379.6934289932251,379.6934289932251,380.5278902053833,3,0.9782326221466064,None,,,,,,,,,,,,,,,,,,58,5,2025-02-19_16h06.29.612,comp,2024.2.4,60.51897682149782,2025-02-19 16h06.36.996849 -0500,
64,64,0,critical,dhw,35.0,2.1,upper,127.0,127.0,200.0,125.0,125.0,200.0,3,2.0507025718688965,None,,,,,0,0,0,0,0,64,64,1,380.54332756996155,,,,,,,,,,,,,,,,,,,,,,,,,,,,,,,,,,,,,,,,,,,,,,,,,,,,,,,,,,,,,,,,,,,,,,,,,,,,,,,,,127.0,127.0,200.0,125.0,125.0,200.0,2.1,2.12,-222,-266,0,-282,258,286,380.5287072658539,380.52874851226807,380.5308241844177,380.54332756996155,380.6937689781189,380.6937689781189,380.6937689781189,380.6937689781189,380.6937689781189,380.6937689781189,380.6937689781189,382.6111340522766,3,2.0507025718688965,None,,,,,,,,,,,,,,,,,,58,5,2025-02-19_16h06.29.612,comp,2024.2.4,60.51897682149782,2025-02-19 16h06.36.996849 -0500,
65,65,0,critical,dhw,20.0,2.1,lower,78.0,78.0,133.0,57.0,57.0,133.0,1,7.150742292404175,None,,,,,0,0,0,0,0,65,65,2,382.62647318840027,,,,,,,,,,,,,,,,,,,,,,,,,,,,,,,,,,,,,,,,,,,,,,,,,,,,,,,,,,,,,,,,,,,,,,,,,,,,,,,,,78.0,78.0,133.0,57.0,57.0,133.0,2.1,2.11,-164,288,0,270,191,-284,382.61191415786743,382.6119542121887,382.61490178108215,382.62647318840027,382.77665305137634,382.77665305137634,382.77665305137634,382.77665305137634,382.77665305137634,382.77665305137634,382.77665305137634,389.7942855358124,1,7.150742292404175,None,,,,,,,,,,,,,,,,,,58,5,2025-02-19_16h06.29.612,comp,2024.2.4,60.51897682149782,2025-02-19 16h06.36.996849 -0500,
66,66,0,filler_square,None,None,None,None,None,None,None,None,None,None,3,1.7442841529846191,None,,,,,0,0,0,0,0,66,66,195,389.8097114562988,,,,,,,,,,,,,,,,,,,,,,,,,,,,,,,,,,,,,,,,,,,,,,,,,,,,,,,,,,,,,,,,,,,,,,,,,,,,,,,,,126.12179684150178,153.96519154728875,57.6185625597647,60.369902008730335,165.65920342036114,165.65920342036114,3.0,3.1,-203,267,0,-13,209,-261,389.7952241897583,389.79526448249817,389.7977147102356,389.8097114562988,389.9599175453186,389.9599175453186,389.9599175453186,389.9599175453186,389.9599175453186,389.9599175453186,389.9599175453186,391.56119775772095,3,1.7442841529846191,None,,,,,,,,,,,,,,,,,,58,5,2025-02-19_16h06.29.612,comp,2024.2.4,60.51897682149782,2025-02-19 16h06.36.996849 -0500,
67,67,0,critical,whd,20.0,2.1,upper,125.0,200.0,200.0,125.0,141.0,141.0,1,16.483314514160156,None,,,,,0,0,0,0,0,67,67,39,391.5767276287079,,,,,,,,,,,,,,,,,,,,,,,,,,,,,,,,,,,,,,,,,,,,,,,,,,,,,,,,,,,,,,,,,,,,,,,,,,,,,,,,,125.0,200.0,200.0,125.0,141.0,141.0,2.1,2.11,-258,286,0,289,229,-274,391.5620102882385,391.56205201148987,391.56414675712585,391.5767276287079,391.7268226146698,391.7268226146698,391.7268226146698,391.7268226146698,391.7268226146698,391.7268226146698,391.7268226146698,408.06132674217224,1,16.483314514160156,None,,,,,,,,,,,,,,,,,,58,5,2025-02-19_16h06.29.612,comp,2024.2.4,60.51897682149782,2025-02-19 16h06.36.996849 -0500,
68,68,0,critical,hwd,35.0,4.0,upper,200.0,125.0,125.0,200.0,127.0,127.0,2,8.172203302383423,None,,,,,0,0,0,0,0,68,68,101,408.07665824890137,,,,,,,,,,,,,,,,,,,,,,,,,,,,,,,,,,,,,,,,,,,,,,,,,,,,,,,,,,,,,,,,,,,,,,,,,,,,,,,,,200.0,125.0,125.0,200.0,127.0,127.0,4.0,4.1,-258,-258,0,-13,260,-257,408.0621271133423,408.0621700286865,408.06424260139465,408.07665824890137,408.2265639305115,408.2265639305115,408.2265639305115,408.2265639305115,408.2265639305115,408.2265639305115,408.2265639305115,416.26138615608215,2,8.172203302383423,None,,,,,,,,,,,,,,,,,,58,5,2025-02-19_16h06.29.612,comp,2024.2.4,60.51897682149782,2025-02-19 16h06.36.996849 -0500,
69,69,0,critical,wdh,20.0,2.1,lower,57.0,133.0,78.0,78.0,133.0,57.0,2,11.045522451400757,None,,,,,0,0,0,0,0,69,69,10,416.27619671821594,,,,,,,,,,,,,,,,,,,,,,,,,,,,,,,,,,,,,,,,,,,,,,,,,,,,,,,,,,,,,,,,,,,,,,,,,,,,,,,,,57.0,133.0,78.0,78.0,133.0,57.0,2.1,2.11,-202,252,0,254,164,-260,416.2621943950653,416.2622365951538,416.2646346092224,416.27619671821594,416.4263470172882,416.4263470172882,416.4263470172882,416.4263470172882,416.4263470172882,416.4263470172882,416.4263470172882,427.32742524147034,2,11.045522451400757,None,,,,,,,,,,,,,,,,,,58,5,2025-02-19_16h06.29.612,comp,2024.2.4,60.51897682149782,2025-02-19 16h06.36.996849 -0500,
70,70,0,filler_square,None,None,None,None,None,None,None,None,None,None,1,2.291022539138794,None,,,,,0,0,0,0,0,70,70,180,427.3431146144867,,,,,,,,,,,,,,,,,,,,,,,,,,,,,,,,,,,,,,,,,,,,,,,,,,,,,,,,,,,,,,,,,,,,,,,,,,,,,,,,,148.80523136560402,148.80523136560402,122.71849813556021,74.21695838049399,137.03821058037494,67.31548861849753,2.1,2.11,-208,290,0,256,167,-269,427.32835578918457,427.3283965587616,427.3308575153351,427.3431146144867,427.4930069446564,427.4930069446564,427.4930069446564,427.4930069446564,427.4930069446564,427.4930069446564,427.4930069446564,429.644166469574,1,2.291022539138794,None,,,,,,,,,,,,,,,,,,58,5,2025-02-19_16h06.29.612,comp,2024.2.4,60.51897682149782,2025-02-19 16h06.36.996849 -0500,
71,71,0,critical,wdh,35.0,3.0,upper,125.0,200.0,127.0,127.0,200.0,125.0,1,6.389023542404175,None,,,,,0,0,0,0,0,71,71,75,429.65974855422974,,,,,,,,,,,,,,,,,,,,,,,,,,,,,,,,,,,,,,,,,,,,,,,,,,,,,,,,,,,,,,,,,,,,,,,,,,,,,,,,,125.0,200.0,127.0,127.0,200.0,125.0,3.0,3.1,-260,259,0,-4,222,-276,429.6450734138489,429.64511346817017,429.6476511955261,429.65974855422974,429.80985164642334,429.80985164642334,429.80985164642334,429.80985164642334,429.80985164642334,429.80985164642334,429.80985164642334,436.06129813194275,1,6.389023542404175,None,,,,,,,,,,,,,,,,,,58,5,2025-02-19_16h06.29.612,comp,2024.2.4,60.51897682149782,2025-02-19 16h06.36.996849 -0500,
72,72,0,filler_random,None,None,None,None,None,None,None,None,None,None,3,2.3577518463134766,None,,,,,0,0,0,0,0,72,72,155,436.0761377811432,,,,,,,,,,,,,,,,,,,,,,,,,,,,,,,,,,,,,,,,,,,,,,,,,,,,,,,,,,,,,,,,,,,,,,,,,,,,,,,,,125.67042673772539,69.97652269358079,153.58807635307573,81.97086234833841,185.20799043722488,123.57915723606844,2.1,2.12,-172,-274,0,-278,199,257,436.06224846839905,436.0622911453247,436.064679145813,436.0761377811432,436.22626066207886,436.22626066207886,436.22626066207886,436.22626066207886,436.22626066207886,436.22626066207886,436.22626066207886,438.4441285133362,3,2.3577518463134766,None,,,,,,,,,,,,,,,,,,58,5,2025-02-19_16h06.29.612,comp,2024.2.4,60.51897682149782,2025-02-19 16h06.36.996849 -0500,
73,73,0,catch,None,None,None,None,None,None,None,None,None,None,3,2.046459674835205,None,,,,,0,0,0,0,0,73,73,128,438.45970606803894,,,,,,,,,,,,,,,,,,,,,,,,,,,,,,,,,,,,,,,,,,,,,,,,,,,,,,,,,,,,,,,,,,,,,,,,,,,,,,,,,118,72,97,93,176,149,3.0,3.2,-178,-281,0,15,217,290,438.4451894760132,438.4452323913574,438.4477288722992,438.45970606803894,438.60967230796814,438.60967230796814,438.60967230796814,438.60967230796814,438.60967230796814,438.60967230796814,438.60967230796814,440.51075410842896,3,2.046459674835205,None,,,,,,,,,,,,,,,,,,58,5,2025-02-19_16h06.29.612,comp,2024.2.4,60.51897682149782,2025-02-19 16h06.36.996849 -0500,
74,74,0,critical,hdw,20.0,2.1,upper,200.0,125.0,141.0,141.0,125.0,200.0,3,2.933516025543213,None,,,,,0,0,0,0,0,74,74,23,440.5262653827667,,,,,,,,,,,,,,,,,,,,,,,,,,,,,,,,,,,,,,,,,,,,,,,,,,,,,,,,,,,,,,,,,,,,,,,,,,,,,,,,,200.0,125.0,141.0,141.0,125.0,200.0,2.1,2.11,-229,256,0,283,266,-274,440.5115475654602,440.5115885734558,440.5138809680939,440.5262653827667,440.676477432251,440.676477432251,440.676477432251,440.676477432251,440.676477432251,440.676477432251,440.676477432251,443.46104407310486,3,2.933516025543213,None,,,,,,,,,,,,,,,,,,58,5,2025-02-19_16h06.29.612,comp,2024.2.4,60.51897682149782,2025-02-19 16h06.36.996849 -0500,
75,75,0,filler_square,None,None,None,None,None,None,None,None,None,None,1,1.1578691005706787,None,,,,,0,0,0,0,0,75,75,192,443.4763927459717,,,,,,,,,,,,,,,,,,,,,,,,,,,,,,,,,,,,,,,,,,,,,,,,,,,,,,,,,,,,,,,,,,,,,,,,,,,,,,,,,190.54179748905827,190.54179748905827,109.09309822428577,81.18248391318838,90.97947604530677,97.1130911144445,2.2,2.22,-232,256,0,-289,185,-284,443.46206426620483,443.4621078968048,443.4645209312439,443.4763927459717,443.6265606880188,443.6265606880188,443.6265606880188,443.6265606880188,443.6265606880188,443.6265606880188,443.6265606880188,444.6442050933838,1,1.1578691005706787,None,,,,,,,,,,,,,,,,,,58,5,2025-02-19_16h06.29.612,comp,2024.2.4,60.51897682149782,2025-02-19 16h06.36.996849 -0500,
76,76,0,filler_random,None,None,None,None,None,None,None,None,None,None,3,8.83183217048645,None,,,,,0,0,0,0,0,76,76,158,444.6596875190735,,,,,,,,,,,,,,,,,,,,,,,,,,,,,,,,,,,,,,,,,,,,,,,,,,,,,,,,,,,,,,,,,,,,,,,,,,,,,,,,,183.52305556165072,129.04356495783787,70.53832972734101,100.58221048845512,170.24935584752953,165.37296397380248,4.0,4.2,-211,14,0,-277,229,16,444.64511227607727,444.6451563835144,444.64756512641907,444.6596875190735,444.8097040653229,444.8097040653229,444.8097040653229,444.8097040653229,444.8097040653229,444.8097040653229,444.8097040653229,453.49479722976685,3,8.83183217048645,None,,,,,,,,,,,,,,,,,,58,5,2025-02-19_16h06.29.612,comp,2024.2.4,60.51897682149782,2025-02-19 16h06.36.996849 -0500,
77,77,0,critical,wdh,20.0,3.0,lower,57.0,133.0,78.0,78.0,133.0,57.0,2,5.387232065200806,None,,,,,0,0,0,0,0,77,77,80,453.5101568698883,,,,,,,,,,,,,,,,,,,,,,,,,,,,,,,,,,,,,,,,,,,,,,,,,,,,,,,,,,,,,,,,,,,,,,,,,,,,,,,,,57.0,133.0,78.0,78.0,133.0,57.0,3.0,3.1,-202,285,0,-11,164,-286,453.4955735206604,453.49562883377075,453.4975299835205,453.5101568698883,453.6600298881531,453.6600298881531,453.6600298881531,453.6600298881531,453.6600298881531,453.6600298881531,453.6600298881531,458.91049337387085,2,5.387232065200806,None,,,,,,,,,,,,,,,,,,58,5,2025-02-19_16h06.29.612,comp,2024.2.4,60.51897682149782,2025-02-19 16h06.36.996849 -0500,
78,78,0,critical,hdw,20.0,2.1,upper,200.0,125.0,141.0,141.0,125.0,200.0,2,12.659801959991455,None,,,,,0,0,0,0,0,78,78,47,458.9258871078491,,,,,,,,,,,,,,,,,,,,,,,,,,,,,,,,,,,,,,,,,,,,,,,,,,,,,,,,,,,,,,,,,,,,,,,,,,,,,,,,,200.0,125.0,141.0,141.0,125.0,200.0,2.1,2.11,-229,289,0,275,266,-262,458.9112856388092,458.9113268852234,458.91331458091736,458.9258871078491,459.07632970809937,459.07632970809937,459.07632970809937,459.07632970809937,459.07632970809937,459.07632970809937,459.07632970809937,471.5940067768097,2,12.659801959991455,None,,,,,,,,,,,,,,,,,,58,5,2025-02-19_16h06.29.612,comp,2024.2.4,60.51897682149782,2025-02-19 16h06.36.996849 -0500,
79,79,0,critical,hwd,20.0,3.0,upper,200.0,125.0,125.0,200.0,141.0,141.0,2,18.950951099395752,None,,,,,0,0,0,0,0,79,79,105,471.6095380783081,,,,,,,,,,,,,,,,,,,,,,,,,,,,,,,,,,,,,,,,,,,,,,,,,,,,,,,,,,,,,,,,,,,,,,,,,,,,,,,,,200.0,125.0,125.0,200.0,141.0,141.0,3.0,3.2,-258,-257,0,6,266,278,471.59483575820923,471.59487771987915,471.5972669124603,471.6095380783081,471.75957679748535,471.75957679748535,471.75957679748535,471.75957679748535,471.75957679748535,471.75957679748535,471.75957679748535,490.5772294998169,2,18.950951099395752,None,,,,,,,,,,,,,,,,,,58,5,2025-02-19_16h06.29.612,comp,2024.2.4,60.51897682149782,2025-02-19 16h06.36.996849 -0500,
80,80,0,filler_random,None,None,None,None,None,None,None,None,None,None,3,1.0087981224060059,None,,,,,0,0,0,0,0,80,80,150,490.59244990348816,,,,,,,,,,,,,,,,,,,,,,,,,,,,,,,,,,,,,,,,,,,,,,,,,,,,,,,,,,,,,,,,,,,,,,,,,,,,,,,,,86.48342322855876,117.6987139909925,128.54501650949493,140.6439374103647,157.4106236952839,181.34301945985118,1.0,1.2,-225,-4,0,19,257,-4,490.5781807899475,490.57822346687317,490.58029866218567,490.59244990348816,490.7427167892456,490.7427167892456,490.7427167892456,490.7427167892456,490.7427167892456,490.7427167892456,490.7427167892456,491.61042618751526,3,1.0087981224060059,None,,,,,,,,,,,,,,,,,,58,5,2025-02-19_16h06.29.612,comp,2024.2.4,60.51897682149782,2025-02-19 16h06.36.996849 -0500,
81,81,0,critical,hwd,20.0,2.1,upper,200.0,125.0,125.0,200.0,141.0,141.0,2,3.374351739883423,None,,,,,0,0,0,0,0,81,81,19,491.62691259384155,,,,,,,,,,,,,,,,,,,,,,,,,,,,,,,,,,,,,,,,,,,,,,,,,,,,,,,,,,,,,,,,,,,,,,,,,,,,,,,,,200.0,125.0,125.0,200.0,141.0,141.0,2.1,2.11,-258,255,0,266,266,-273,491.6112127304077,491.61125445365906,491.6139073371887,491.62691259384155,491.77600288391113,491.77600288391113,491.77600288391113,491.77600288391113,491.77600288391113,491.77600288391113,491.77600288391113,495.01057982444763,2,3.374351739883423,None,,,,,,,,,,,,,,,,,,58,5,2025-02-19_16h06.29.612,comp,2024.2.4,60.51897682149782,2025-02-19 16h06.36.996849 -0500,
82,82,0,critical,hdw,35.0,3.0,lower,133.0,57.0,70.0,70.0,57.0,133.0,2,3.032780885696411,None,,,,,0,0,0,0,0,82,82,110,495.025997877121,,,,,,,,,,,,,,,,,,,,,,,,,,,,,,,,,,,,,,,,,,,,,,,,,,,,,,,,,,,,,,,,,,,,,,,,,,,,,,,,,133.0,57.0,70.0,70.0,57.0,133.0,3.0,3.1,-160,285,0,-16,198,-271,495.01139545440674,495.0114381313324,495.01352858543396,495.025997877121,495.17577290534973,495.17577290534973,495.17577290534973,495.17577290534973,495.17577290534973,495.17577290534973,495.17577290534973,498.0603413581848,2,3.032780885696411,None,,,,,,,,,,,,,,,,,,58,5,2025-02-19_16h06.29.612,comp,2024.2.4,60.51897682149782,2025-02-19 16h06.36.996849 -0500,
83,83,0,filler_random,None,None,None,None,None,None,None,None,None,None,2,1.5172264575958252,None,,,,,0,0,0,0,0,83,83,160,498.0758674144745,,,,,,,,,,,,,,,,,,,,,,,,,,,,,,,,,,,,,,,,,,,,,,,,,,,,,,,,,,,,,,,,,,,,,,,,,,,,,,,,,84.47836610271554,65.49606385342076,185.92194565854496,131.01833877922365,92.53340817379306,152.36060821669554,2.1,2.12,-194,-277,0,-285,238,267,498.0612304210663,498.0612733364105,498.0637936592102,498.0758674144745,498.2259519100189,498.2259519100189,498.2259519100189,498.2259519100189,498.2259519100189,498.2259519100189,498.2259519100189,499.61019110679626,2,1.5172264575958252,None,,,,,,,,,,,,,,,,,,58,5,2025-02-19_16h06.29.612,comp,2024.2.4,60.51897682149782,2025-02-19 16h06.36.996849 -0500,
84,84,0,critical,dwh,35.0,2.1,lower,70.0,70.0,57.0,133.0,133.0,57.0,1,3.2867956161499023,None,,,,,0,0,0,0,0,84,84,28,499.6256718635559,,,,,,,,,,,,,,,,,,,,,,,,,,,,,,,,,,,,,,,,,,,,,,,,,,,,,,,,,,,,,,,,,,,,,,,,,,,,,,,,,70.0,70.0,57.0,133.0,133.0,57.0,2.1,2.11,-198,281,0,288,191,-264,499.61099219322205,499.6110346317291,499.6134502887726,499.6256718635559,499.77606892585754,499.77606892585754,499.77606892585754,499.77606892585754,499.77606892585754,499.77606892585754,499.77606892585754,502.9268743991852,1,3.2867956161499023,None,,,,,,,,,,,,,,,,,,58,5,2025-02-19_16h06.29.612,comp,2024.2.4,60.51897682149782,2025-02-19 16h06.36.996849 -0500,
85,85,0,filler_random,None,None,None,None,None,None,None,None,None,None,2,1.9381749629974365,None,,,,,0,0,0,0,0,85,85,156,502.94222807884216,,,,,,,,,,,,,,,,,,,,,,,,,,,,,,,,,,,,,,,,,,,,,,,,,,,,,,,,,,,,,,,,,,,,,,,,,,,,,,,,,191.47046727371108,89.61581378697856,189.83854431085075,149.1653672696392,75.16057870764092,135.80316191879774,1.0,1.3,265,-269,480,-274,718,-275,502.9278054237366,502.92784786224365,502.9302251338959,502.94222807884216,503.0926294326782,503.0926294326782,503.0926294326782,503.0926294326782,503.0926294326782,503.0926294326782,503.0926294326782,504.8937494754791,2,1.9381749629974365,None,,,,,,,,,,,,,,,,,,58,5,2025-02-19_16h06.29.612,comp,2024.2.4,60.51897682149782,2025-02-19 16h06.36.996849 -0500,
86,86,0,filler_random,None,None,None,None,None,None,None,None,None,None,3,1.9715147018432617,None,,,,,0,0,0,0,0,86,86,163,504.9089586734772,,,,,,,,,,,,,,,,,,,,,,,,,,,,,,,,,,,,,,,,,,,,,,,,,,,,,,,,,,,,,,,,,,,,,,,,,,,,,,,,,127.23772587103876,133.50000777221828,162.34230880459089,130.97378002643262,178.0720837798216,149.5135699505077,1.0,1.3,252,-253,480,-275,716,-284,504.8946418762207,504.8946828842163,504.8967185020447,504.9089586734772,505.05963015556335,505.05963015556335,505.05963015556335,505.05963015556335,505.05963015556335,505.05963015556335,505.05963015556335,506.89367389678955,3,1.9715147018432617,None,,,,,,,,,,,,,,,,,,58,5,2025-02-19_16h06.29.612,comp,2024.2.4,60.51897682149782,2025-02-19 16h06.36.996849 -0500,
87,87,0,filler_square,None,None,None,None,None,None,None,None,None,None,3,1.916919231414795,None,,,,,0,0,0,0,0,87,87,182,506.90893363952637,,,,,,,,,,,,,,,,,,,,,,,,,,,,,,,,,,,,,,,,,,,,,,,,,,,,,,,,,,,,,,,,,,,,,,,,,,,,,,,,,80.23725245954535,57.94982010354054,61.27427709076454,61.91614191225409,85.4077315658771,85.4077315658771,2.2,2.21,-156,-278,0,265,170,257,506.89458894729614,506.8946452140808,506.896657705307,506.90893363952637,507.05910325050354,507.05910325050354,507.05910325050354,507.05910325050354,507.05910325050354,507.05910325050354,507.05910325050354,508.8434810638428,3,1.916919231414795,None,,,,,,,,,,,,,,,,,,58,5,2025-02-19_16h06.29.612,comp,2024.2.4,60.51897682149782,2025-02-19 16h06.36.996849 -0500,
88,88,0,critical,dhw,20.0,2.1,upper,141.0,141.0,200.0,125.0,125.0,200.0,3,3.7584662437438965,None,,,,,0,0,0,0,0,88,88,3,508.85897612571716,,,,,,,,,,,,,,,,,,,,,,,,,,,,,,,,,,,,,,,,,,,,,,,,,,,,,,,,,,,,,,,,,,,,,,,,,,,,,,,,,141.0,141.0,200.0,125.0,125.0,200.0,2.1,2.12,-229,-275,0,-268,258,272,508.84432768821716,508.84437108039856,508.8464334011078,508.85897612571716,509.0099136829376,509.0099136829376,509.0099136829376,509.0099136829376,509.0099136829376,509.0099136829376,509.0099136829376,512.6270966529846,3,3.7584662437438965,None,,,,,,,,,,,,,,,,,,58,5,2025-02-19_16h06.29.612,comp,2024.2.4,60.51897682149782,2025-02-19 16h06.36.996849 -0500,
89,89,0,filler_random,None,None,None,None,None,None,None,None,None,None,2,11.869890689849854,None,,,,,0,0,0,0,0,89,89,139,512.6424932479858,,,,,,,,,,,,,,,,,,,,,,,,,,,,,,,,,,,,,,,,,,,,,,,,,,,,,,,,,,,,,,,,,,,,,,,,,,,,,,,,,196.98643183630054,102.93708352747012,123.65843525306296,127.17864300492067,95.29288504633489,167.11011388302063,1.0,1.2,-211,6,0,17,243,-12,512.628002166748,512.628045797348,512.6302015781403,512.6424932479858,512.7925608158112,512.7925608158112,512.7925608158112,512.7925608158112,512.7925608158112,512.7925608158112,512.7925608158112,524.5269348621368,2,11.869890689849854,None,,,,,,,,,,,,,,,,,,58,5,2025-02-19_16h06.29.612,comp,2024.2.4,60.51897682149782,2025-02-19 16h06.36.996849 -0500,
90,90,0,critical,dwh,35.0,2.1,upper,127.0,127.0,125.0,200.0,200.0,125.0,1,14.602097749710083,None,,,,,0,0,0,0,0,90,90,29,524.5422184467316,,,,,,,,,,,,,,,,,,,,,,,,,,,,,,,,,,,,,,,,,,,,,,,,,,,,,,,,,,,,,,,,,,,,,,,,,,,,,,,,,127.0,127.0,125.0,200.0,200.0,125.0,2.1,2.11,-260,269,0,253,258,-263,524.5277450084686,524.5277860164642,524.5301284790039,524.5422184467316,524.6924502849579,524.6924502849579,524.6924502849579,524.6924502849579,524.6924502849579,524.6924502849579,524.6924502849579,539.1602420806885,1,14.602097749710083,None,,,,,,,,,,,,,,,,,,58,5,2025-02-19_16h06.29.612,comp,2024.2.4,60.51897682149782,2025-02-19 16h06.36.996849 -0500,
91,91,0,filler_square,None,None,None,None,None,None,None,None,None,None,1,1.066850185394287,None,,,,,0,0,0,0,0,91,91,201,539.1754443645477,,,,,,,,,,,,,,,,,,,,,,,,,,,,,,,,,,,,,,,,,,,,,,,,,,,,,,,,,,,,,,,,,,,,,,,,,,,,,,,,,99.81096009330741,99.81096009330741,63.38482426879548,61.5323119970002,61.43074712976591,70.60985086170786,4.0,4.1,-177,-277,0,-10,162,-259,539.161214351654,539.1612582206726,539.1638014316559,539.1754443645477,539.3255605697632,539.3255605697632,539.3255605697632,539.3255605697632,539.3255605697632,539.3255605697632,539.3255605697632,540.2434301376343,1,1.066850185394287,None,,,,,,,,,,,,,,,,,,58,5,2025-02-19_16h06.29.612,comp,2024.2.4,60.51897682149782,2025-02-19 16h06.36.996849 -0500,
92,92,0,critical,wdh,35.0,3.0,lower,57.0,133.0,70.0,70.0,133.0,57.0,2,1.199894666671753,None,,,,,0,0,0,0,0,92,92,74,540.2589635848999,,,,,,,,,,,,,,,,,,,,,,,,,,,,,,,,,,,,,,,,,,,,,,,,,,,,,,,,,,,,,,,,,,,,,,,,,,,,,,,,,57.0,133.0,70.0,70.0,133.0,57.0,3.0,3.2,-198,-285,0,1,160,252,540.2442569732666,540.2442984580994,540.2468104362488,540.2589635848999,540.4087615013123,540.4087615013123,540.4087615013123,540.4087615013123,540.4087615013123,540.4087615013123,540.4087615013123,541.4601333141327,2,1.199894666671753,None,,,,,,,,,,,,,,,,,,58,5,2025-02-19_16h06.29.612,comp,2024.2.4,60.51897682149782,2025-02-19 16h06.36.996849 -0500,
93,93,0,filler_square,None,None,None,None,None,None,None,None,None,None,2,1.036571979522705,None,,,,,0,0,0,0,0,93,93,207,541.4756166934967,,,,,,,,,,,,,,,,,,,,,,,,,,,,,,,,,,,,,,,,,,,,,,,,,,,,,,,,,,,,,,,,,,,,,,,,,,,,,,,,,88.44220306475516,64.08293736813513,115.22641456629873,115.22641456629873,100.29386105203204,106.25305636983538,2.2,2.22,-186,274,0,-273,207,-280,541.4611172676086,541.4611592292786,541.4636161327362,541.4756166934967,541.6256251335144,541.6256251335144,541.6256251335144,541.6256251335144,541.6256251335144,541.6256251335144,541.6256251335144,542.5265762805939,2,1.036571979522705,None,,,,,,,,,,,,,,,,,,58,5,2025-02-19_16h06.29.612,comp,2024.2.4,60.51897682149782,2025-02-19 16h06.36.996849 -0500,
94,94,0,filler_square,None,None,None,None,None,None,None,None,None,None,2,1.1003146171569824,None,,,,,0,0,0,0,0,94,94,206,542.5420417785645,,,,,,,,,,,,,,,,,,,,,,,,,,,,,,,,,,,,,,,,,,,,,,,,,,,,,,,,,,,,,,,,,,,,,,,,,,,,,,,,,129.22245625768514,84.27081182651139,140.10442854898378,140.10442854898378,116.86316597828272,101.64828938020199,2.1,2.11,-208,288,0,269,217,-281,542.5275299549103,542.5275707244873,542.5295836925507,542.5420417785645,542.6922645568848,542.6922645568848,542.6922645568848,542.6922645568848,542.6922645568848,542.6922645568848,542.6922645568848,543.643648147583,2,1.1003146171569824,None,,,,,,,,,,,,,,,,,,58,5,2025-02-19_16h06.29.612,comp,2024.2.4,60.51897682149782,2025-02-19 16h06.36.996849 -0500,
95,95,0,filler_square,None,None,None,None,None,None,None,None,None,None,3,1.0619144439697266,None,,,,,0,0,0,0,0,95,95,196,543.6589753627777,,,,,,,,,,,,,,,,,,,,,,,,,,,,,,,,,,,,,,,,,,,,,,,,,,,,,,,,,,,,,,,,,,,,,,,,,,,,,,,,,139.72822044458616,107.01046664985094,90.61430270204221,135.9774176327282,140.91546811696423,140.91546811696423,2.1,2.11,-217,281,0,262,234,-280,543.6445724964142,543.6446325778961,543.6467053890228,543.6589753627777,543.8089017868042,543.8089017868042,543.8089017868042,543.8089017868042,543.8089017868042,543.8089017868042,543.8089017868042,544.7266750335693,3,1.0619144439697266,None,,,,,,,,,,,,,,,,,,58,5,2025-02-19_16h06.29.612,comp,2024.2.4,60.51897682149782,2025-02-19 16h06.36.996849 -0500,
96,96,0,critical,dhw,20.0,3.0,upper,141.0,141.0,200.0,125.0,125.0,200.0,2,1.6428210735321045,None,,,,,0,0,0,0,0,96,96,57,544.7423419952393,,,,,,,,,,,,,,,,,,,,,,,,,,,,,,,,,,,,,,,,,,,,,,,,,,,,,,,,,,,,,,,,,,,,,,,,,,,,,,,,,141.0,141.0,200.0,125.0,125.0,200.0,3.0,3.1,-229,264,0,-20,258,-252,544.7274861335754,544.7275273799896,544.7299075126648,544.7423419952393,544.8924350738525,544.8924350738525,544.8924350738525,544.8924350738525,544.8924350738525,544.8924350738525,544.8924350738525,546.3934810161591,2,1.6428210735321045,None,,,,,,,,,,,,,,,,,,58,5,2025-02-19_16h06.29.612,comp,2024.2.4,60.51897682149782,2025-02-19 16h06.36.996849 -0500,
97,97,0,filler_square,None,None,None,None,None,None,None,None,None,None,2,4.838954925537109,None,,,,,0,0,0,0,0,97,97,197,546.4090030193329,,,,,,,,,,,,,,,,,,,,,,,,,,,,,,,,,,,,,,,,,,,,,,,,,,,,,,,,,,,,,,,,,,,,,,,,,,,,,,,,,72.16265037367133,72.03374714066496,76.27301050146968,76.27301050146968,70.77803227100028,75.04164250681782,4.0,4.2,-170,-7,0,-286,172,5,546.3944556713104,546.3944990634918,546.3970367908478,546.4090030193329,546.5590770244598,546.5590770244598,546.5590770244598,546.5590770244598,546.5590770244598,546.5590770244598,546.5590770244598,551.2602245807648,2,4.838954925537109,None,,,,,,,,,,,,,,,,,,58,5,2025-02-19_16h06.29.612,comp,2024.2.4,60.51897682149782,2025-02-19 16h06.36.996849 -0500,
98,98,0,critical,hwd,35.0,3.0,lower,133.0,57.0,57.0,133.0,70.0,70.0,3,19.183069467544556,None,,,,,0,0,0,0,0,98,98,98,551.2752561569214,,,,,,,,,,,,,,,,,,,,,,,,,,,,,,,,,,,,,,,,,,,,,,,,,,,,,,,,,,,,,,,,,,,,,,,,,,,,,,,,,133.0,57.0,57.0,133.0,70.0,70.0,3.0,3.1,-191,279,0,4,198,-260,551.2611055374146,551.2611474990845,551.2635893821716,551.2752561569214,551.4255311489105,551.4255311489105,551.4255311489105,551.4255311489105,551.4255311489105,551.4255311489105,551.4255311489105,570.459974527359,3,19.183069467544556,None,,,,,,,,,,,,,,,,,,58,5,2025-02-19_16h06.29.612,comp,2024.2.4,60.51897682149782,2025-02-19 16h06.36.996849 -0500,
99,99,0,filler_random,None,None,None,None,None,None,None,None,None,None,3,1.268707036972046,None,,,,,0,0,0,0,0,99,99,152,570.4754135608673,,,,,,,,,,,,,,,,,,,,,,,,,,,,,,,,,,,,,,,,,,,,,,,,,,,,,,,,,,,,,,,,,,,,,,,,,,,,,,,,,60.92106727972349,158.40253396517267,80.70751785923481,78.36480732854167,169.17171822437376,89.415531912212,3.0,3.1,-214,286,0,-10,180,-289,570.460883140564,570.4609260559082,570.4630048274994,570.4754135608673,570.6256744861603,570.6256744861603,570.6256744861603,570.6256744861603,570.6256744861603,570.6256744861603,570.6256744861603,571.7597935199738,3,1.268707036972046,None,,,,,,,,,,,,,,,,,,58,5,2025-02-19_16h06.29.612,comp,2024.2.4,60.51897682149782,2025-02-19 16h06.36.996849 -0500,
100,100,0,critical,hdw,20.0,1.0,upper,200.0,125.0,141.0,141.0,125.0,200.0,2,7.968966007232666,None,,,,,0,0,0,0,0,100,100,115,571.7751152515411,,,,,,,,,,,,,,,,,,,,,,,,,,,,,,,,,,,,,,,,,,,,,,,,,,,,,,,,,,,,,,,,,,,,,,,,,,,,,,,,,200.0,125.0,141.0,141.0,125.0,200.0,1.0,1.3,251,-269,480,-274,746,-283,571.76056432724,571.760617017746,571.7629494667053,571.7751152515411,571.9253981113434,571.9253981113434,571.9253981113434,571.9253981113434,571.9253981113434,571.9253981113434,571.9253981113434,579.7599587440491,2,7.968966007232666,None,,,,,,,,,,,,,,,,,,58,5,2025-02-19_16h06.29.612,comp,2024.2.4,60.51897682149782,2025-02-19 16h06.36.996849 -0500,
101,101,0,filler_random,None,None,None,None,None,None,None,None,None,None,1,6.0504515171051025,None,,,,,0,0,0,0,0,101,101,138,579.7751412391663,,,,,,,,,,,,,,,,,,,,,,,,,,,,,,,,,,,,,,,,,,,,,,,,,,,,,,,,,,,,,,,,,,,,,,,,,,,,,,,,,187.77092882625084,131.12781264066433,197.6265214137389,102.82920688098618,114.08505474383372,169.08402536150174,3.0,3.1,-213,257,0,13,232,-266,579.7609040737152,579.7609467506409,579.7631027698517,579.7751412391663,579.9253854751587,579.9253854751587,579.9253854751587,579.9253854751587,579.9253854751587,579.9253854751587,579.9253854751587,585.8435201644897,1,6.0504515171051025,None,,,,,,,,,,,,,,,,,,58,5,2025-02-19_16h06.29.612,comp,2024.2.4,60.51897682149782,2025-02-19 16h06.36.996849 -0500,
102,102,0,filler_random,None,None,None,None,None,None,None,None,None,None,2,1.7174291610717773,None,,,,,0,0,0,0,0,102,102,149,585.8584864139557,,,,,,,,,,,,,,,,,,,,,,,,,,,,,,,,,,,,,,,,,,,,,,,,,,,,,,,,,,,,,,,,,,,,,,,,,,,,,,,,,62.941333603724644,109.35107116377465,96.61945660951801,195.38706849821097,101.82713785850183,128.63891237825948,1.0,1.2,-248,-6,0,-15,258,14,585.8444321155548,585.8444755077362,585.8469042778015,585.8584864139557,586.0086688995361,586.0086688995361,586.0086688995361,586.0086688995361,586.0086688995361,586.0086688995361,586.0086688995361,587.5930082798004,2,1.7174291610717773,None,,,,,,,,,,,,,,,,,,58,5,2025-02-19_16h06.29.612,comp,2024.2.4,60.51897682149782,2025-02-19 16h06.36.996849 -0500,
103,103,0,filler_random,None,None,None,None,None,None,None,None,None,None,1,2.450382709503174,None,,,,,0,0,0,0,0,103,103,143,587.6084051132202,,,,,,,,,,,,,,,,,,,,,,,,,,,,,,,,,,,,,,,,,,,,,,,,,,,,,,,,,,,,,,,,,,,,,,,,,,,,,,,,,189.78021347950732,190.7968613796009,165.66883604716443,159.55115065788578,125.2685934073324,192.83116922844647,3.0,3.2,-271,-256,0,3,272,270,587.5939311981201,587.5939745903015,587.5963785648346,587.6084051132202,587.7591052055359,587.7591052055359,587.7591052055359,587.7591052055359,587.7591052055359,587.7591052055359,587.7591052055359,590.0602850914001,1,2.450382709503174,None,,,,,,,,,,,,,,,,,,58,5,2025-02-19_16h06.29.612,comp,2024.2.4,60.51897682149782,2025-02-19 16h06.36.996849 -0500,
104,104,0,critical,dwh,35.0,4.0,lower,70.0,70.0,57.0,133.0,133.0,57.0,2,2.0364134311676025,None,,,,,0,0,0,0,0,104,104,64,590.0754051208496,,,,,,,,,,,,,,,,,,,,,,,,,,,,,,,,,,,,,,,,,,,,,,,,,,,,,,,,,,,,,,,,,,,,,,,,,,,,,,,,,70.0,70.0,57.0,133.0,133.0,57.0,4.0,4.1,-198,-270,0,-11,191,-278,590.0611398220062,590.0611834526062,590.0635647773743,590.0754051208496,590.2253346443176,590.2253346443176,590.2253346443176,590.2253346443176,590.2253346443176,590.2253346443176,590.2253346443176,592.126706123352,2,2.0364134311676025,None,,,,,,,,,,,,,,,,,,58,5,2025-02-19_16h06.29.612,comp,2024.2.4,60.51897682149782,2025-02-19 16h06.36.996849 -0500,
105,105,0,critical,hdw,35.0,1.0,lower,133.0,57.0,70.0,70.0,57.0,133.0,1,2.9487414360046387,None,,,,,0,0,0,0,0,105,105,108,592.1417541503906,,,,,,,,,,,,,,,,,,,,,,,,,,,,,,,,,,,,,,,,,,,,,,,,,,,,,,,,,,,,,,,,,,,,,,,,,,,,,,,,,133.0,57.0,70.0,70.0,57.0,133.0,1.0,1.3,320,-289,480,-271,678,-260,592.1274981498718,592.1275398731232,592.1300671100616,592.1417541503906,592.2918384075165,592.2918384075165,592.2918384075165,592.2918384075165,592.2918384075165,592.2918384075165,592.2918384075165,595.0930643081665,1,2.9487414360046387,None,,,,,,,,,,,,,,,,,,58,5,2025-02-19_16h06.29.612,comp,2024.2.4,60.51897682149782,2025-02-19 16h06.36.996849 -0500,
106,106,0,critical,dhw,20.0,1.0,lower,78.0,78.0,133.0,57.0,57.0,133.0,2,5.981832265853882,None,,,,,0,0,0,0,0,106,106,54,595.1086139678955,,,,,,,,,,,,,,,,,,,,,,,,,,,,,,,,,,,,,,,,,,,,,,,,,,,,,,,,,,,,,,,,,,,,,,,,,,,,,,,,,78.0,78.0,133.0,57.0,57.0,133.0,1.0,1.3,316,-266,480,-278,671,-287,595.0938646793365,595.0939075946808,595.0960011482239,595.1086139678955,595.2585535049438,595.2585535049438,595.2585535049438,595.2585535049438,595.2585535049438,595.2585535049438,595.2585535049438,601.0930781364441,2,5.981832265853882,None,,,,,,,,,,,,,,,,,,58,5,2025-02-19_16h06.29.612,comp,2024.2.4,60.51897682149782,2025-02-19 16h06.36.996849 -0500,
107,107,0,critical,dwh,20.0,4.0,upper,141.0,141.0,125.0,200.0,200.0,125.0,1,1.6512436866760254,None,,,,,0,0,0,0,0,107,107,71,601.1085295677185,,,,,,,,,,,,,,,,,,,,,,,,,,,,,,,,,,,,,,,,,,,,,,,,,,,,,,,,,,,,,,,,,,,,,,,,,,,,,,,,,141.0,141.0,125.0,200.0,200.0,125.0,4.0,4.1,-266,-255,0,-18,258,-256,601.0938739776611,601.0939157009125,601.0958585739136,601.1085295677185,601.258552312851,601.258552312851,601.258552312851,601.258552312851,601.258552312851,601.258552312851,601.258552312851,602.776533126831,1,1.6512436866760254,None,,,,,,,,,,,,,,,,,,58,5,2025-02-19_16h06.29.612,comp,2024.2.4,60.51897682149782,2025-02-19 16h06.36.996849 -0500,
108,108,0,filler_random,None,None,None,None,None,None,None,None,None,None,1,1.809103012084961,None,,,,,0,0,0,0,0,108,108,147,602.7916333675385,,,,,,,,,,,,,,,,,,,,,,,,,,,,,,,,,,,,,,,,,,,,,,,,,,,,,,,,,,,,,,,,,,,,,,,,,,,,,,,,,158.22875394589573,128.7773215380446,104.76181084528574,112.915001444745,123.04233802955929,144.73802349785922,1.0,1.3,263,-264,480,-260,705,-267,602.7774555683136,602.7774982452393,602.7797310352325,602.7916333675385,602.9420211315155,602.9420211315155,602.9420211315155,602.9420211315155,602.9420211315155,602.9420211315155,602.9420211315155,604.60977602005,1,1.809103012084961,None,,,,,,,,,,,,,,,,,,58,5,2025-02-19_16h06.29.612,comp,2024.2.4,60.51897682149782,2025-02-19 16h06.36.996849 -0500,
109,109,0,filler_random,None,None,None,None,None,None,None,None,None,None,3,1.718543529510498,None,,,,,0,0,0,0,0,109,109,135,604.625280380249,,,,,,,,,,,,,,,,,,,,,,,,,,,,,,,,,,,,,,,,,,,,,,,,,,,,,,,,,,,,,,,,,,,,,,,,,,,,,,,,,135.03906216553656,103.27167661291531,57.23553080468659,130.0385527813331,191.73986857480725,104.64457783861812,2.2,2.22,-213,257,0,-274,213,-272,604.6106798648834,604.610720872879,604.6130335330963,604.625280380249,604.775223493576,604.775223493576,604.775223493576,604.775223493576,604.775223493576,604.775223493576,604.775223493576,606.3595118522644,3,1.718543529510498,None,,,,,,,,,,,,,,,,,,58,5,2025-02-19_16h06.29.612,comp,2024.2.4,60.51897682149782,2025-02-19 16h06.36.996849 -0500,
110,110,0,critical,dhw,35.0,1.0,lower,70.0,70.0,133.0,57.0,57.0,133.0,3,6.904718399047852,None,,,,,0,0,0,0,0,110,110,48,606.3749694824219,,,,,,,,,,,,,,,,,,,,,,,,,,,,,,,,,,,,,,,,,,,,,,,,,,,,,,,,,,,,,,,,,,,,,,,,,,,,,,,,,70.0,70.0,133.0,57.0,57.0,133.0,1.0,1.3,320,-263,480,-287,671,-289,606.360321521759,606.3603630065918,606.3628952503204,606.3749694824219,606.5253913402557,606.5253913402557,606.5253913402557,606.5253913402557,606.5253913402557,606.5253913402557,606.5253913402557,613.2927858829498,3,6.904718399047852,None,,,,,,,,,,,,,,,,,,58,5,2025-02-19_16h06.29.612,comp,2024.2.4,60.51897682149782,2025-02-19 16h06.36.996849 -0500,
111,111,0,critical,dwh,20.0,2.1,upper,141.0,141.0,125.0,200.0,200.0,125.0,3,1.8843059539794922,None,,,,,0,0,0,0,0,111,111,31,613.3081550598145,,,,,,,,,,,,,,,,,,,,,,,,,,,,,,,,,,,,,,,,,,,,,,,,,,,,,,,,,,,,,,,,,,,,,,,,,,,,,,,,,141.0,141.0,125.0,200.0,200.0,125.0,2.1,2.11,-266,285,0,280,258,-269,613.2935495376587,613.2935914993286,613.2958474159241,613.3081550598145,613.4584922790527,613.4584922790527,613.4584922790527,613.4584922790527,613.4584922790527,613.4584922790527,613.4584922790527,615.2098171710968,3,1.8843059539794922,None,,,,,,,,,,,,,,,,,,58,5,2025-02-19_16h06.29.612,comp,2024.2.4,60.51897682149782,2025-02-19 16h06.36.996849 -0500,
112,112,0,critical,hwd,35.0,2.1,lower,133.0,57.0,57.0,133.0,70.0,70.0,3,2.3596601486206055,None,,,,,0,0,0,0,0,112,112,16,615.2249658107758,,,,,,,,,,,,,,,,,,,,,,,,,,,,,,,,,,,,,,,,,,,,,,,,,,,,,,,,,,,,,,,,,,,,,,,,,,,,,,,,,133.0,57.0,57.0,133.0,70.0,70.0,2.1,2.12,-191,-253,0,-268,198,277,615.2105937004089,615.2106499671936,615.2127213478088,615.2249658107758,615.3750267028809,615.3750267028809,615.3750267028809,615.3750267028809,615.3750267028809,615.3750267028809,615.3750267028809,617.5927243232727,3,2.3596601486206055,None,,,,,,,,,,,,,,,,,,58,5,2025-02-19_16h06.29.612,comp,2024.2.4,60.51897682149782,2025-02-19 16h06.36.996849 -0500,
113,113,0,critical,wdh,20.0,1.0,upper,125.0,200.0,141.0,141.0,200.0,125.0,1,1.7034540176391602,None,,,,,0,0,0,0,0,113,113,79,617.608421087265,,,,,,,,,,,,,,,,,,,,,,,,,,,,,,,,,,,,,,,,,,,,,,,,,,,,,,,,,,,,,,,,,,,,,,,,,,,,,,,,,125.0,200.0,141.0,141.0,200.0,125.0,1.0,1.2,-266,13,0,-13,229,-11,617.593453168869,617.5934913158417,617.5956528186798,617.608421087265,617.7589204311371,617.7589204311371,617.7589204311371,617.7589204311371,617.7589204311371,617.7589204311371,617.7589204311371,619.3266696929932,1,1.7034540176391602,None,,,,,,,,,,,,,,,,,,58,5,2025-02-19_16h06.29.612,comp,2024.2.4,60.51897682149782,2025-02-19 16h06.36.996849 -0500,
114,114,0,filler_random,None,None,None,None,None,None,None,None,None,None,3,2.9326024055480957,None,,,,,0,0,0,0,0,114,114,136,619.3416674137115,,,,,,,,,,,,,,,,,,,,,,,,,,,,,,,,,,,,,,,,,,,,,,,,,,,,,,,,,,,,,,,,,,,,,,,,,,,,,,,,,84.26515131589687,172.9261266969346,93.03305172950564,179.71083558513024,185.50782569242304,133.06589819402086,1.0,1.2,-272,4,0,-5,252,-1,619.3275783061981,619.3276348114014,619.3301155567169,619.3416674137115,619.4918956756592,619.4918956756592,619.4918956756592,619.4918956756592,619.4918956756592,619.4918956756592,619.4918956756592,622.2763772010803,3,2.9326024055480957,None,,,,,,,,,,,,,,,,,,58,5,2025-02-19_16h06.29.612,comp,2024.2.4,60.51897682149782,2025-02-19 16h06.36.996849 -0500,
115,115,0,critical,dhw,20.0,4.0,upper,141.0,141.0,200.0,125.0,125.0,200.0,3,4.619919300079346,None,,,,,0,0,0,0,0,115,115,59,622.2918717861176,,,,,,,,,,,,,,,,,,,,,,,,,,,,,,,,,,,,,,,,,,,,,,,,,,,,,,,,,,,,,,,,,,,,,,,,,,,,,,,,,141.0,141.0,200.0,125.0,125.0,200.0,4.0,4.2,-229,-4,0,-270,258,-18,622.2771496772766,622.2771897315979,622.2799849510193,622.2918717861176,622.4421982765198,622.4421982765198,622.4421982765198,622.4421982765198,622.4421982765198,622.4421982765198,622.4421982765198,626.9262442588806,3,4.619919300079346,None,,,,,,,,,,,,,,,,,,58,5,2025-02-19_16h06.29.612,comp,2024.2.4,60.51897682149782,2025-02-19 16h06.36.996849 -0500,
116,116,0,critical,wdh,20.0,2.1,upper,125.0,200.0,141.0,141.0,200.0,125.0,1,7.442821025848389,None,,,,,0,0,0,0,0,116,116,35,626.9414892196655,,,,,,,,,,,,,,,,,,,,,,,,,,,,,,,,,,,,,,,,,,,,,,,,,,,,,,,,,,,,,,,,,,,,,,,,,,,,,,,,,125.0,200.0,141.0,141.0,200.0,125.0,2.1,2.11,-266,255,0,287,229,-276,626.9270632266998,626.9271047115326,626.9294767379761,626.9414892196655,627.0919551849365,627.0919551849365,627.0919551849365,627.0919551849365,627.0919551849365,627.0919551849365,627.0919551849365,634.3928594589233,1,7.442821025848389,None,,,,,,,,,,,,,,,,,,58,5,2025-02-19_16h06.29.612,comp,2024.2.4,60.51897682149782,2025-02-19 16h06.36.996849 -0500,
117,117,0,critical,whd,35.0,2.1,upper,125.0,200.0,200.0,125.0,127.0,127.0,1,1.7192132472991943,None,,,,,0,0,0,0,0,117,117,13,634.408310174942,,,,,,,,,,,,,,,,,,,,,,,,,,,,,,,,,,,,,,,,,,,,,,,,,,,,,,,,,,,,,,,,,,,,,,,,,,,,,,,,,125.0,200.0,200.0,125.0,127.0,127.0,2.1,2.11,-258,256,0,279,222,-276,634.3936862945557,634.3937299251556,634.3960607051849,634.408310174942,634.5584819316864,634.5584819316864,634.5584819316864,634.5584819316864,634.5584819316864,634.5584819316864,634.5584819316864,636.1429657936096,1,1.7192132472991943,None,,,,,,,,,,,,,,,,,,58,5,2025-02-19_16h06.29.612,comp,2024.2.4,60.51897682149782,2025-02-19 16h06.36.996849 -0500,
118,118,0,catch,None,None,None,None,None,None,None,None,None,None,1,0.8670852184295654,None,,,,,0,0,0,0,0,118,118,125,636.1581602096558,,,,,,,,,,,,,,,,,,,,,,,,,,,,,,,,,,,,,,,,,,,,,,,,,,,,,,,,,,,,,,,,,,,,,,,,,,,,,,,,,177,148,112,78,109,81,2.2,2.22,-209,281,0,-268,176,-288,636.1441378593445,636.1441802978516,636.1463515758514,636.1581602096558,636.308345079422,636.308345079422,636.308345079422,636.308345079422,636.308345079422,636.308345079422,636.308345079422,637.0426819324493,1,0.8670852184295654,None,,,,,,,,,,,,,,,,,,58,5,2025-02-19_16h06.29.612,comp,2024.2.4,60.51897682149782,2025-02-19 16h06.36.996849 -0500,
119,119,0,critical,wdh,35.0,2.1,upper,125.0,200.0,127.0,127.0,200.0,125.0,1,1.9507536888122559,None,,,,,0,0,0,0,0,119,119,9,637.0579080581665,,,,,,,,,,,,,,,,,,,,,,,,,,,,,,,,,,,,,,,,,,,,,,,,,,,,,,,,,,,,,,,,,,,,,,,,,,,,,,,,,125.0,200.0,127.0,127.0,200.0,125.0,2.1,2.11,-260,281,0,263,222,-278,637.0434517860413,637.0434935092926,637.0457007884979,637.0579080581665,637.2084200382233,637.2084200382233,637.2084200382233,637.2084200382233,637.2084200382233,637.2084200382233,637.2084200382233,639.0097575187683,1,1.9507536888122559,None,,,,,,,,,,,,,,,,,,58,5,2025-02-19_16h06.29.612,comp,2024.2.4,60.51897682149782,2025-02-19 16h06.36.996849 -0500,
120,120,0,filler_square,None,None,None,None,None,None,None,None,None,None,2,1.0330190658569336,None,,,,,0,0,0,0,0,120,120,186,639.0249898433685,,,,,,,,,,,,,,,,,,,,,,,,,,,,,,,,,,,,,,,,,,,,,,,,,,,,,,,,,,,,,,,,,,,,,,,,,,,,,,,,,89.12690229040246,101.9952592241367,151.9396877864016,151.9396877864016,60.46766124921881,126.16677308124497,3.0,3.2,-223,-286,0,-17,235,283,639.0108151435852,639.0108726024628,639.0133664608002,639.0249898433685,639.1750581264496,639.1750581264496,639.1750581264496,639.1750581264496,639.1750581264496,639.1750581264496,639.1750581264496,640.0758693218231,2,1.0330190658569336,None,,,,,,,,,,,,,,,,,,58,5,2025-02-19_16h06.29.612,comp,2024.2.4,60.51897682149782,2025-02-19 16h06.36.996849 -0500,
121,121,0,critical,dhw,35.0,4.0,lower,70.0,70.0,133.0,57.0,57.0,133.0,1,4.829012870788574,None,,,,,0,0,0,0,0,121,121,52,640.0912036895752,,,,,,,,,,,,,,,,,,,,,,,,,,,,,,,,,,,,,,,,,,,,,,,,,,,,,,,,,,,,,,,,,,,,,,,,,,,,,,,,,70.0,70.0,133.0,57.0,57.0,133.0,4.0,4.2,-160,1,0,-273,191,-6,640.0766365528107,640.0766770839691,640.0789973735809,640.0912036895752,640.241542339325,640.241542339325,640.241542339325,640.241542339325,640.241542339325,640.241542339325,640.241542339325,644.9259858131409,1,4.829012870788574,None,,,,,,,,,,,,,,,,,,58,5,2025-02-19_16h06.29.612,comp,2024.2.4,60.51897682149782,2025-02-19 16h06.36.996849 -0500,
122,122,0,filler_random,None,None,None,None,None,None,None,None,None,None,3,0.9002177715301514,None,,,,,0,0,0,0,0,122,122,133,644.9415760040283,,,,,,,,,,,,,,,,,,,,,,,,,,,,,,,,,,,,,,,,,,,,,,,,,,,,,,,,,,,,,,,,,,,,,,,,,,,,,,,,,128.8669543442406,150.7898670934842,110.5756597487009,191.1501889108767,146.8974737023043,186.81395233685265,4.0,4.2,-267,-18,0,-285,285,-14,644.9268879890442,644.9269287586212,644.929270029068,644.9415760040283,645.0917539596558,645.0917539596558,645.0917539596558,645.0917539596558,645.0917539596558,645.0917539596558,645.0917539596558,645.859442949295,3,0.9002177715301514,None,,,,,,,,,,,,,,,,,,58,5,2025-02-19_16h06.29.612,comp,2024.2.4,60.51897682149782,2025-02-19 16h06.36.996849 -0500,
123,123,0,filler_square,None,None,None,None,None,None,None,None,None,None,2,0.9171545505523682,None,,,,,0,0,0,0,0,123,123,193,645.874725818634,,,,,,,,,,,,,,,,,,,,,,,,,,,,,,,,,,,,,,,,,,,,,,,,,,,,,,,,,,,,,,,,,,,,,,,,,,,,,,,,,97.85765872292711,80.14216878760152,171.67213042101926,171.67213042101926,62.80003348279776,107.82182913844021,2.2,2.21,-222,-272,0,250,236,289,645.8604266643524,645.8604688644409,645.863039970398,645.874725818634,646.0248668193817,646.0248668193817,646.0248668193817,646.0248668193817,646.0248668193817,646.0248668193817,646.0248668193817,646.8093330860138,2,0.9171545505523682,None,,,,,,,,,,,,,,,,,,58,5,2025-02-19_16h06.29.612,comp,2024.2.4,60.51897682149782,2025-02-19 16h06.36.996849 -0500,
124,124,0,critical,dwh,20.0,4.0,lower,78.0,78.0,57.0,133.0,133.0,57.0,1,1.583681583404541,None,,,,,0,0,0,0,0,124,124,70,646.8247010707855,,,,,,,,,,,,,,,,,,,,,,,,,,,,,,,,,,,,,,,,,,,,,,,,,,,,,,,,,,,,,,,,,,,,,,,,,,,,,,,,,78.0,78.0,57.0,133.0,133.0,57.0,4.0,4.2,-202,-5,0,-258,191,11,646.8101091384888,646.8101501464844,646.8126587867737,646.8247010707855,646.9748058319092,646.9748058319092,646.9748058319092,646.9748058319092,646.9748058319092,646.9748058319092,646.9748058319092,648.4258515834808,1,1.583681583404541,None,,,,,,,,,,,,,,,,,,58,5,2025-02-19_16h06.29.612,comp,2024.2.4,60.51897682149782,2025-02-19 16h06.36.996849 -0500,
125,125,0,filler_random,None,None,None,None,None,None,None,None,None,None,1,1.4059224128723145,None,,,,,0,0,0,0,0,125,125,162,648.4413290023804,,,,,,,,,,,,,,,,,,,,,,,,,,,,,,,,,,,,,,,,,,,,,,,,,,,,,,,,,,,,,,,,,,,,,,,,,,,,,,,,,173.10108576716138,156.3847058888164,143.71861449739657,172.46208756196086,60.248950555987776,96.28701141982609,4.0,4.2,-260,15,0,-281,230,6,648.4267635345459,648.4268071651459,648.42919921875,648.4413290023804,648.5917313098907,648.5917313098907,648.5917313098907,648.5917313098907,648.5917313098907,648.5917313098907,648.5917313098907,649.8596410751343,1,1.4059224128723145,None,,,,,,,,,,,,,,,,,,58,5,2025-02-19_16h06.29.612,comp,2024.2.4,60.51897682149782,2025-02-19 16h06.36.996849 -0500,
126,126,0,filler_random,None,None,None,None,None,None,None,None,None,None,2,0.7989463806152344,None,,,,,0,0,0,0,0,126,126,146,649.874737739563,,,,,,,,,,,,,,,,,,,,,,,,,,,,,,,,,,,,,,,,,,,,,,,,,,,,,,,,,,,,,,,,,,,,,,,,,,,,,,,,,64.68183233929572,135.3847351249715,197.08768287456027,173.83253714463302,102.76836338060474,114.85864748022708,3.0,3.2,-251,-251,0,-3,240,264,649.8605358600616,649.8605778217316,649.8628330230713,649.874737739563,650.0248682498932,650.0248682498932,650.0248682498932,650.0248682498932,650.0248682498932,650.0248682498932,650.0248682498932,650.6761405467987,2,0.7989463806152344,None,,,,,,,,,,,,,,,,,,58,5,2025-02-19_16h06.29.612,comp,2024.2.4,60.51897682149782,2025-02-19 16h06.36.996849 -0500,
127,127,0,critical,whd,20.0,2.1,lower,57.0,133.0,133.0,57.0,78.0,78.0,1,3.5497961044311523,None,,,,,0,0,0,0,0,127,127,14,650.6917450428009,,,,,,,,,,,,,,,,,,,,,,,,,,,,,,,,,,,,,,,,,,,,,,,,,,,,,,,,,,,,,,,,,,,,,,,,,,,,,,,,,57.0,133.0,133.0,57.0,78.0,78.0,2.1,2.12,-191,-259,0,-270,164,254,650.6769459247589,650.676990032196,650.6791563034058,650.6917450428009,650.8413243293762,650.8413243293762,650.8413243293762,650.8413243293762,650.8413243293762,650.8413243293762,650.8413243293762,654.2591960430145,1,3.5497961044311523,None,,,,,,,,,,,,,,,,,,58,5,2025-02-19_16h06.29.612,comp,2024.2.4,60.51897682149782,2025-02-19 16h06.36.996849 -0500,
128,128,0,critical,hdw,35.0,2.1,lower,133.0,57.0,70.0,70.0,57.0,133.0,2,2.693580150604248,None,,,,,0,0,0,0,0,128,128,44,654.2745983600616,,,,,,,,,,,,,,,,,,,,,,,,,,,,,,,,,,,,,,,,,,,,,,,,,,,,,,,,,,,,,,,,,,,,,,,,,,,,,,,,,133.0,57.0,70.0,70.0,57.0,133.0,2.1,2.12,-160,-275,0,-278,198,254,654.2600049972534,654.2600464820862,654.2621064186096,654.2745983600616,654.4247140884399,654.4247140884399,654.4247140884399,654.4247140884399,654.4247140884399,654.4247140884399,654.4247140884399,656.9760801792145,2,2.693580150604248,None,,,,,,,,,,,,,,,,,,58,5,2025-02-19_16h06.29.612,comp,2024.2.4,60.51897682149782,2025-02-19 16h06.36.996849 -0500,
129,129,0,critical,dwh,20.0,2.1,lower,78.0,78.0,57.0,133.0,133.0,57.0,1,5.0002217292785645,None,,,,,0,0,0,0,0,129,129,6,656.9916851520538,,,,,,,,,,,,,,,,,,,,,,,,,,,,,,,,,,,,,,,,,,,,,,,,,,,,,,,,,,,,,,,,,,,,,,,,,,,,,,,,,78.0,78.0,57.0,133.0,133.0,57.0,2.1,2.12,-202,-282,0,-251,191,254,656.9769945144653,656.9770364761353,656.9804079532623,656.9916851520538,657.1413059234619,657.1413059234619,657.1413059234619,657.1413059234619,657.1413059234619,657.1413059234619,657.1413059234619,662.009108543396,1,5.0002217292785645,None,,,,,,,,,,,,,,,,,,58,5,2025-02-19_16h06.29.612,comp,2024.2.4,60.51897682149782,2025-02-19 16h06.36.996849 -0500,
130,130,0,filler_random,None,None,None,None,None,None,None,None,None,None,1,3.9435112476348877,None,,,,,0,0,0,0,0,130,130,157,662.0245699882507,,,,,,,,,,,,,,,,,,,,,,,,,,,,,,,,,,,,,,,,,,,,,,,,,,,,,,,,,,,,,,,,,,,,,,,,,,,,,,,,,147.33742927199026,182.16476477707636,195.04107857424384,128.47543077637718,82.37045834537221,170.67061121943956,1.0,1.3,229,-270,480,-285,726,-253,662.0100078582764,662.0100491046906,662.0124490261078,662.0245699882507,662.1748614311218,662.1748614311218,662.1748614311218,662.1748614311218,662.1748614311218,662.1748614311218,662.1748614311218,665.9759736061096,1,3.9435112476348877,None,,,,,,,,,,,,,,,,,,58,5,2025-02-19_16h06.29.612,comp,2024.2.4,60.51897682149782,2025-02-19 16h06.36.996849 -0500,
131,131,0,critical,hwd,35.0,1.0,upper,200.0,125.0,125.0,200.0,127.0,127.0,2,1.3923945426940918,None,,,,,0,0,0,0,0,131,131,97,665.9917917251587,,,,,,,,,,,,,,,,,,,,,,,,,,,,,,,,,,,,,,,,,,,,,,,,,,,,,,,,,,,,,,,,,,,,,,,,,,,,,,,,,200.0,125.0,125.0,200.0,127.0,127.0,1.0,1.3,222,-277,480,-280,740,-260,665.976893901825,665.9769351482391,665.9790062904358,665.9917917251587,666.1417729854584,666.1417729854584,666.1417729854584,666.1417729854584,666.1417729854584,666.1417729854584,666.1417729854584,667.3929343223572,2,1.3923945426940918,None,,,,,,,,,,,,,,,,,,58,5,2025-02-19_16h06.29.612,comp,2024.2.4,60.51897682149782,2025-02-19 16h06.36.996849 -0500,
132,132,0,critical,dwh,35.0,4.0,upper,127.0,127.0,125.0,200.0,200.0,125.0,2,3.0549588203430176,None,,,,,0,0,0,0,0,132,132,65,667.4081671237946,,,,,,,,,,,,,,,,,,,,,,,,,,,,,,,,,,,,,,,,,,,,,,,,,,,,,,,,,,,,,,,,,,,,,,,,,,,,,,,,,127.0,127.0,125.0,200.0,200.0,125.0,4.0,4.2,-260,-1,0,-266,258,6,667.3937304019928,667.3937718868256,667.3958206176758,667.4081671237946,667.5581948757172,667.5581948757172,667.5581948757172,667.5581948757172,667.5581948757172,667.5581948757172,667.5581948757172,670.4760076999664,2,3.0549588203430176,None,,,,,,,,,,,,,,,,,,58,5,2025-02-19_16h06.29.612,comp,2024.2.4,60.51897682149782,2025-02-19 16h06.36.996849 -0500,
133,133,0,filler_square,None,None,None,None,None,None,None,None,None,None,3,2.0768566131591797,None,,,,,0,0,0,0,0,133,133,175,670.4911816120148,,,,,,,,,,,,,,,,,,,,,,,,,,,,,,,,,,,,,,,,,,,,,,,,,,,,,,,,,,,,,,,,,,,,,,,,,,,,,,,,,153.06503474087845,69.5602076227814,138.62407530986508,145.99152701765254,165.25861656405417,165.25861656405417,2.2,2.21,-204,-276,0,274,252,285,670.4769525527954,670.4769937992096,670.4793350696564,670.4911816120148,670.6413955688477,670.6413955688477,670.6413955688477,670.6413955688477,670.6413955688477,670.6413955688477,670.6413955688477,672.5758848190308,3,2.0768566131591797,None,,,,,,,,,,,,,,,,,,58,5,2025-02-19_16h06.29.612,comp,2024.2.4,60.51897682149782,2025-02-19 16h06.36.996849 -0500,
134,134,0,critical,dwh,20.0,3.0,lower,78.0,78.0,57.0,133.0,133.0,57.0,1,2.9442687034606934,None,,,,,0,0,0,0,0,134,134,68,672.5917181968689,,,,,,,,,,,,,,,,,,,,,,,,,,,,,,,,,,,,,,,,,,,,,,,,,,,,,,,,,,,,,,,,,,,,,,,,,,,,,,,,,78.0,78.0,57.0,133.0,133.0,57.0,3.0,3.1,-202,278,0,-19,191,-269,672.5766816139221,672.5767242908478,672.578795671463,672.5917181968689,672.7412543296814,672.7412543296814,672.7412543296814,672.7412543296814,672.7412543296814,672.7412543296814,672.7412543296814,675.5422735214233,1,2.9442687034606934,None,,,,,,,,,,,,,,,,,,58,5,2025-02-19_16h06.29.612,comp,2024.2.4,60.51897682149782,2025-02-19 16h06.36.996849 -0500,
135,135,0,filler_random,None,None,None,None,None,None,None,None,None,None,1,1.2011582851409912,None,,,,,0,0,0,0,0,135,135,137,675.5580649375916,,,,,,,,,,,,,,,,,,,,,,,,,,,,,,,,,,,,,,,,,,,,,,,,,,,,,,,,,,,,,,,,,,,,,,,,,,,,,,,,,144.26266704442554,197.81822444361163,107.21998038331114,152.57059172449746,92.86967745157281,112.9248584804244,1.0,1.3,209,-267,480,-278,709,-286,675.5432209968567,675.5432665348053,675.5458261966705,675.5580649375916,675.7082304954529,675.7082304954529,675.7082304954529,675.7082304954529,675.7082304954529,675.7082304954529,675.7082304954529,676.7757890224457,1,1.2011582851409912,None,,,,,,,,,,,,,,,,,,58,5,2025-02-19_16h06.29.612,comp,2024.2.4,60.51897682149782,2025-02-19 16h06.36.996849 -0500,
136,136,0,catch,None,None,None,None,None,None,None,None,None,None,3,0.9769158363342285,None,,,,,0,0,0,0,0,136,136,123,676.7911350727081,,,,,,,,,,,,,,,,,,,,,,,,,,,,,,,,,,,,,,,,,,,,,,,,,,,,,,,,,,,,,,,,,,,,,,,,,,,,,,,,,67,123,91,99,127,198,4.0,4.2,-207,-17,0,-283,244,4,676.7768225669861,676.7768626213074,676.7791738510132,676.7911350727081,676.9412789344788,676.9412789344788,676.9412789344788,676.9412789344788,676.9412789344788,676.9412789344788,676.9412789344788,677.7759017944336,3,0.9769158363342285,None,,,,,,,,,,,,,,,,,,58,5,2025-02-19_16h06.29.612,comp,2024.2.4,60.51897682149782,2025-02-19 16h06.36.996849 -0500,
137,137,0,critical,hwd,20.0,2.1,lower,133.0,57.0,57.0,133.0,78.0,78.0,3,6.528493404388428,None,,,,,0,0,0,0,0,137,137,18,677.7914848327637,,,,,,,,,,,,,,,,,,,,,,,,,,,,,,,,,,,,,,,,,,,,,,,,,,,,,,,,,,,,,,,,,,,,,,,,,,,,,,,,,133.0,57.0,57.0,133.0,78.0,78.0,2.1,2.11,-191,263,0,267,202,-288,677.7767007350922,677.7767429351807,677.7788338661194,677.7914848327637,677.9414551258087,677.9414551258087,677.9414551258087,677.9414551258087,677.9414551258087,677.9414551258087,677.9414551258087,684.3258762359619,3,6.528493404388428,None,,,,,,,,,,,,,,,,,,58,5,2025-02-19_16h06.29.612,comp,2024.2.4,60.51897682149782,2025-02-19 16h06.36.996849 -0500,
138,138,0,critical,dhw,35.0,2.1,lower,70.0,70.0,133.0,57.0,57.0,133.0,1,22.042500495910645,None,,,,,0,0,0,0,0,138,138,0,684.3414454460144,,,,,,,,,,,,,,,,,,,,,,,,,,,,,,,,,,,,,,,,,,,,,,,,,,,,,,,,,,,,,,,,,,,,,,,,,,,,,,,,,70.0,70.0,133.0,57.0,57.0,133.0,2.1,2.12,-160,-273,0,-280,191,269,684.3266930580139,684.3267357349396,684.3288259506226,684.3414454460144,684.4915964603424,684.4915964603424,684.4915964603424,684.4915964603424,684.4915964603424,684.4915964603424,684.4915964603424,706.3922166824341,1,22.042500495910645,None,,,,,,,,,,,,,,,,,,58,5,2025-02-19_16h06.29.612,comp,2024.2.4,60.51897682149782,2025-02-19 16h06.36.996849 -0500,
139,139,0,critical,dhw,35.0,3.0,upper,127.0,127.0,200.0,125.0,125.0,200.0,3,1.2170054912567139,None,,,,,0,0,0,0,0,139,139,51,706.4079265594482,,,,,,,,,,,,,,,,,,,,,,,,,,,,,,,,,,,,,,,,,,,,,,,,,,,,,,,,,,,,,,,,,,,,,,,,,,,,,,,,,127.0,127.0,200.0,125.0,125.0,200.0,3.0,3.2,-222,-276,0,-12,258,267,706.3930463790894,706.3930885791779,706.3955752849579,706.4079265594482,706.5579233169556,706.5579233169556,706.5579233169556,706.5579233169556,706.5579233169556,706.5579233169556,706.5579233169556,707.642374753952,3,1.2170054912567139,None,,,,,,,,,,,,,,,,,,58,5,2025-02-19_16h06.29.612,comp,2024.2.4,60.51897682149782,2025-02-19 16h06.36.996849 -0500,
140,140,0,critical,hdw,20.0,2.1,lower,133.0,57.0,78.0,78.0,57.0,133.0,2,10.917644500732422,None,,,,,0,0,0,0,0,140,140,46,707.657509803772,,,,,,,,,,,,,,,,,,,,,,,,,,,,,,,,,,,,,,,,,,,,,,,,,,,,,,,,,,,,,,,,,,,,,,,,,,,,,,,,,133.0,57.0,78.0,78.0,57.0,133.0,2.1,2.11,-164,288,0,285,202,-272,707.6431725025177,707.6432132720947,707.645679473877,707.657509803772,707.8076303005219,707.8076303005219,707.8076303005219,707.8076303005219,707.8076303005219,707.8076303005219,707.8076303005219,718.5922141075134,2,10.917644500732422,None,,,,,,,,,,,,,,,,,,58,5,2025-02-19_16h06.29.612,comp,2024.2.4,60.51897682149782,2025-02-19 16h06.36.996849 -0500,
