thisN,thisTrialN,thisRepN,effect,order,distance,config,diag,h_1,w_1,h_2,w_2,h_3,w_3,rect_choice.keys,rect_choice.rt,rect_choice.duration,instructions_loop.thisRepN,instructions_loop.thisTrialN,instructions_loop.thisN,instructions_loop.thisIndex,blocks.thisRepN,blocks.thisTrialN,blocks.thisN,blocks.thisIndex,trials.thisRepN,trials.thisTrialN,trials.thisN,trials.thisIndex,thisRow.t,notes,consent.started,agree_button.started,decline_button.started,consent_img.started,mouse.started,consent.stopped,agree_button.numClicks,agree_button.timesOn,agree_button.timesOff,decline_button.numClicks,decline_button.timesOn,decline_button.timesOff,mouse.x,mouse.y,mouse.leftButton,mouse.midButton,mouse.rightButton,mouse.time,mouse.clicked_name,exp_params.started,exp_params.stopped,welcome.started,welcome_text.started,welcome_text.stopped,welcome.stopped,instructions_1.started,instructions_1_text_1.started,instructions_1_text_2.started,key_resp.started,instructions_1.stopped,instructions_loop.key_resp.keys,instructions_loop.key_resp.rt,instructions_loop.key_resp.duration,instructions_2.started,instructions_2_text_1.started,instructions_2_text_2.started,key_resp_2.started,instructions_2.stopped,instructions_loop.key_resp_2.keys,instructions_loop.key_resp_2.rt,instructions_loop.key_resp_2.duration,instructions_3.started,instructions_3_text_1.started,r1_instr3.started,r2_instr3.started,r3_instr3.started,r1_instr3_label.started,r2_instr3_label.started,r3_instr3_label.started,instructions_3_text_3.started,instructions_3_text_4.started,key_resp_3.started,instructions_3.stopped,instructions_loop.key_resp_3.keys,instructions_loop.key_resp_3.rt,instructions_loop.key_resp_3.duration,instructions_4.started,instructions_4_text_1.started,instructions_4_text_3.started,instructions_4_text_2.started,key_resp_4.started,instructions_4.stopped,instructions_loop.key_resp_4.keys,instructions_loop.key_resp_4.rt,instructions_loop.key_resp_4.duration,instructions_5.started,instructions_5_text_1.started,instructions_5_text_2.started,key_resp_5.started,instructions_5.stopped,instructions_loop.key_resp_5.keys,instructions_loop.key_resp_5.rt,instructions_loop.key_resp_5.duration,start_exp.started,start_exp_text.started,key_resp_6.started,start_exp.stopped,key_resp_6.keys,key_resp_6.rt,key_resp_6.duration,h_1_tmp,w_1_tmp,h_2_tmp,w_2_tmp,h_3_tmp,w_3_tmp,config_tmp,config_tmp_1,r_1_x,r_1_y,r_2_x,r_2_y,r_3_x,r_3_y,pre_trial.started,pre_trial.stopped,choice_trial.started,rect_choice.started,r_1.started,r_2.started,r_3.started,r_1_label.started,r_2_label.started,r_3_label.started,prompt.started,choice_trial.stopped,trials.rect_choice.keys,trials.rect_choice.rt,trials.rect_choice.duration,end_block.started,end_block_text.started,end_block.stopped,end.started,end_text.started,key_resp_7.started,end.stopped,key_resp_7.keys,key_resp_7.rt,key_resp_7.duration,debriefing.started,debrief_form.started,end_debrief.started,debriefing.stopped,end_debrief.keys,end_debrief.rt,end_debrief.duration,participant,computer,date,expName,psychopyVersion,frameRate,expStart,
,,,,,,,,,,,,,,,,,,,,,,,,,,,,,,,0.014887332916259766,0.038396358489990234,0.038396358489990234,0.038396358489990234,0.014679431915283203,60.187904834747314,1,[60.146934509277344],[60.14695644378662],0,,,[-103.0],[-493.0],[1],[0],[0],[60.1725172996521],['agree_button'],,,,,,,,,,,,,,,,,,,,,,,,,,,,,,,,,,,,,,,,,,,,,,,,,,,,,,,,,,,,,,,,,,,,,,,,,,,,,,,,,,,,,,,,,,,,,,,,,,,,,,,,,,,,59,2,2025-02-19_16h46.23.294,comp,2024.2.4,56.24200815275692,2025-02-19 16h46.41.965910 -0500,
,,,,,,,,,,,,,,,,,,,,,,,,,,,,,,,,,,,,,,,,,,,,,,,,,,60.18842124938965,60.18848705291748,,,,,,,,,,,,,,,,,,,,,,,,,,,,,,,,,,,,,,,,,,,,,,,,,,,,,,,,,,,,,,,,,,,,,,,,,,,,,,,,,,,,,,,,,,,,,,,,,,,,,,,,,,59,2,2025-02-19_16h46.23.294,comp,2024.2.4,56.24200815275692,2025-02-19 16h46.41.965910 -0500,
,,,,,,,,,,,,,,,,,,,,,,,,,,,,,,,,,,,,,,,,,,,,,,,,,,,,60.188530921936035,60.202495098114014,62.20525598526001,62.18815517425537,,,,,,,,,,,,,,,,,,,,,,,,,,,,,,,,,,,,,,,,,,,,,,,,,,,,,,,,,,,,,,,,,,,,,,,,,,,,,,,,,,,,,,,,,,,,,,,,,,,,,,59,2,2025-02-19_16h46.23.294,comp,2024.2.4,56.24200815275692,2025-02-19 16h46.41.965910 -0500,
0,0,0,,,,,,,,,,,,,,,0,0,0,0,,,,,,,,,62.20525598526001,,,,,,,,,,,,,,,,,,,,,,,,,,,62.189011096954346,62.20525598526001,62.20525598526001,63.70375943183899,65.44306540489197,space,1.7213969230651855,None,65.44320797920227,65.46265172958374,65.46265172958374,66.95435667037964,72.92593479156494,space,5.966978073120117,None,72.92607927322388,72.95370125770569,72.95370125770569,72.95370125770569,72.95370125770569,72.95370125770569,72.95370125770569,72.95370125770569,72.95370125770569,72.95370125770569,74.42505264282227,78.74886679649353,space,4.3203418254852295,None,78.74902510643005,78.76553583145142,78.76553583145142,78.76553583145142,80.26160883903503,88.76240229606628,space,8.49137830734253,None,88.7625503540039,88.77909326553345,88.77909326553345,90.2644853591919,91.13651013374329,space,0.86474609375,None,91.1367359161377,91.14921951293945,91.14921951293945,92.66578578948975,space,1.5083413124084473,None,,,,,,,,,,,,,,,,,,,,,,,,,,,,,,,,,,,,,,,,,,,,,,,59,2,2025-02-19_16h46.23.294,comp,2024.2.4,56.24200815275692,2025-02-19 16h46.41.965910 -0500,
0,0,0,filler_random,None,None,None,None,None,None,None,None,None,None,2,3.2369627952575684,None,,,,,0,0,0,0,0,0,0,162,92.74060773849487,,,,,,,,,,,,,,,,,,,,,,,,,,,,,,,,,,,,,,,,,,,,,,,,,,,,,,,,,,,,,,,,,,,,,,,,,,,,,,,,,,66.58268039989379,102.04554689896665,88.60016509251507,108.95881907377259,69.87681486564158,63.15784422234863,2.1,2.11,-202,277,0,265,182,-280,92.7241153717041,92.72414827346802,92.72536015510559,92.74060773849487,92.88944673538208,92.88944673538208,92.88944673538208,92.88944673538208,92.88944673538208,92.88944673538208,92.88944673538208,95.98162460327148,2,3.2369627952575684,None,,,,,,,,,,,,,,,,,,59,2,2025-02-19_16h46.23.294,comp,2024.2.4,56.24200815275692,2025-02-19 16h46.41.965910 -0500,
1,1,0,filler_square,None,None,None,None,None,None,None,None,None,None,1,1.7851488590240479,None,,,,,0,0,0,0,0,1,1,174,95.99983286857605,,,,,,,,,,,,,,,,,,,,,,,,,,,,,,,,,,,,,,,,,,,,,,,,,,,,,,,,,,,,,,,,,,,,,,,,,,,,,,,,,,186.12394653477187,186.12394653477187,168.0424767167538,149.9076160201992,63.351652883076156,115.14622035748428,2.2,2.22,-264,269,0,-280,229,-276,95.98349666595459,95.98357462882996,95.98673391342163,95.99983286857605,96.13400745391846,96.13400745391846,96.13400745391846,96.13400745391846,96.13400745391846,96.13400745391846,96.13400745391846,97.80175304412842,1,1.7851488590240479,None,,,,,,,,,,,,,,,,,,59,2,2025-02-19_16h46.23.294,comp,2024.2.4,56.24200815275692,2025-02-19 16h46.41.965910 -0500,
2,2,0,filler_random,None,None,None,None,None,None,None,None,None,None,3,3.43642258644104,None,,,,,0,0,0,0,0,2,2,142,97.82065439224243,,,,,,,,,,,,,,,,,,,,,,,,,,,,,,,,,,,,,,,,,,,,,,,,,,,,,,,,,,,,,,,,,,,,,,,,,,,,,,,,,,81.5515047199487,186.53990777275033,93.06743909999005,93.6589330947634,177.11591326659783,131.09877477345276,2.1,2.11,-236,281,0,259,208,-267,97.80360054969788,97.80370736122131,97.8069236278534,97.82065439224243,97.96808910369873,97.96808910369873,97.96808910369873,97.96808910369873,97.96808910369873,97.96808910369873,97.96808910369873,101.26980686187744,3,3.43642258644104,None,,,,,,,,,,,,,,,,,,59,2,2025-02-19_16h46.23.294,comp,2024.2.4,56.24200815275692,2025-02-19 16h46.41.965910 -0500,
3,3,0,critical,dhw,20.0,3.0,lower,78.0,78.0,133.0,57.0,57.0,133.0,3,9.48369288444519,None,,,,,0,0,0,0,0,3,3,56,101.28559112548828,,,,,,,,,,,,,,,,,,,,,,,,,,,,,,,,,,,,,,,,,,,,,,,,,,,,,,,,,,,,,,,,,,,,,,,,,,,,,,,,,,78.0,78.0,133.0,57.0,57.0,133.0,3.0,3.2,-164,-256,0,18,191,282,101.27128195762634,101.271409034729,101.27526330947876,101.28559112548828,101.43263721466064,101.43263721466064,101.43263721466064,101.43263721466064,101.43263721466064,101.43263721466064,101.43263721466064,110.77385330200195,3,9.48369288444519,None,,,,,,,,,,,,,,,,,,59,2,2025-02-19_16h46.23.294,comp,2024.2.4,56.24200815275692,2025-02-19 16h46.41.965910 -0500,
4,4,0,critical,hdw,20.0,2.1,upper,200.0,125.0,141.0,141.0,125.0,200.0,3,10.963576316833496,None,,,,,0,0,0,0,0,4,4,23,110.7898473739624,,,,,,,,,,,,,,,,,,,,,,,,,,,,,,,,,,,,,,,,,,,,,,,,,,,,,,,,,,,,,,,,,,,,,,,,,,,,,,,,,,200.0,125.0,141.0,141.0,125.0,200.0,2.1,2.11,-229,278,0,271,266,-261,110.77560687065125,110.77576518058777,110.7790322303772,110.7898473739624,110.93857932090759,110.93857932090759,110.93857932090759,110.93857932090759,110.93857932090759,110.93857932090759,110.93857932090759,121.75813436508179,3,10.963576316833496,None,,,,,,,,,,,,,,,,,,59,2,2025-02-19_16h46.23.294,comp,2024.2.4,56.24200815275692,2025-02-19 16h46.41.965910 -0500,
5,5,0,critical,hdw,35.0,2.1,upper,200.0,125.0,127.0,127.0,125.0,200.0,3,3.082765579223633,None,,,,,0,0,0,0,0,5,5,45,121.77437925338745,,,,,,,,,,,,,,,,,,,,,,,,,,,,,,,,,,,,,,,,,,,,,,,,,,,,,,,,,,,,,,,,,,,,,,,,,,,,,,,,,,200.0,125.0,127.0,127.0,125.0,200.0,2.1,2.12,-222,-288,0,-268,260,272,121.75978088378906,121.75990509986877,121.76344084739685,121.77437925338745,121.92525148391724,121.92525148391724,121.92525148391724,121.92525148391724,121.92525148391724,121.92525148391724,121.92525148391724,124.85922169685364,3,3.082765579223633,None,,,,,,,,,,,,,,,,,,59,2,2025-02-19_16h46.23.294,comp,2024.2.4,56.24200815275692,2025-02-19 16h46.41.965910 -0500,
6,6,0,critical,hdw,35.0,2.1,upper,200.0,125.0,127.0,127.0,125.0,200.0,3,2.6861095428466797,None,,,,,0,0,0,0,0,6,6,21,124.87500190734863,,,,,,,,,,,,,,,,,,,,,,,,,,,,,,,,,,,,,,,,,,,,,,,,,,,,,,,,,,,,,,,,,,,,,,,,,,,,,,,,,,200.0,125.0,127.0,127.0,125.0,200.0,2.1,2.11,-222,275,0,253,260,-283,124.86077666282654,124.86089849472046,124.86426162719727,124.87500190734863,125.02430367469788,125.02430367469788,125.02430367469788,125.02430367469788,125.02430367469788,125.02430367469788,125.02430367469788,127.57647752761841,3,2.6861095428466797,None,,,,,,,,,,,,,,,,,,59,2,2025-02-19_16h46.23.294,comp,2024.2.4,56.24200815275692,2025-02-19 16h46.41.965910 -0500,
7,7,0,critical,dwh,20.0,3.0,lower,78.0,78.0,57.0,133.0,133.0,57.0,2,10.312811136245728,None,,,,,0,0,0,0,0,7,7,68,127.5923330783844,,,,,,,,,,,,,,,,,,,,,,,,,,,,,,,,,,,,,,,,,,,,,,,,,,,,,,,,,,,,,,,,,,,,,,,,,,,,,,,,,,78.0,78.0,57.0,133.0,133.0,57.0,3.0,3.2,-202,-277,0,20,191,281,127.57817459106445,127.57824969291687,127.58171463012695,127.5923330783844,127.73517274856567,127.73517274856567,127.73517274856567,127.73517274856567,127.73517274856567,127.73517274856567,127.73517274856567,137.92185592651367,2,10.312811136245728,None,,,,,,,,,,,,,,,,,,59,2,2025-02-19_16h46.23.294,comp,2024.2.4,56.24200815275692,2025-02-19 16h46.41.965910 -0500,
8,8,0,filler_random,None,None,None,None,None,None,None,None,None,None,1,2.300877094268799,None,,,,,0,0,0,0,0,8,8,151,137.94102501869202,,,,,,,,,,,,,,,,,,,,,,,,,,,,,,,,,,,,,,,,,,,,,,,,,,,,,,,,,,,,,,,,,,,,,,,,,,,,,,,,,,146.0233640706253,199.9562740998141,134.34509239897804,115.48635778201736,169.05286056909813,61.391746063751015,1.0,1.3,226,-254,480,-251,664,-263,137.92358827590942,137.92368817329407,137.92654418945312,137.94102501869202,138.08055591583252,138.08055591583252,138.08055591583252,138.08055591583252,138.08055591583252,138.08055591583252,138.08055591583252,140.2495698928833,1,2.300877094268799,None,,,,,,,,,,,,,,,,,,59,2,2025-02-19_16h46.23.294,comp,2024.2.4,56.24200815275692,2025-02-19 16h46.41.965910 -0500,
9,9,0,critical,hwd,35.0,2.1,lower,133.0,57.0,57.0,133.0,70.0,70.0,2,3.40783429145813,None,,,,,0,0,0,0,0,9,9,16,140.26594257354736,,,,,,,,,,,,,,,,,,,,,,,,,,,,,,,,,,,,,,,,,,,,,,,,,,,,,,,,,,,,,,,,,,,,,,,,,,,,,,,,,,133.0,57.0,57.0,133.0,70.0,70.0,2.1,2.11,-191,273,0,274,198,-259,140.25120401382446,140.25128293037415,140.2543535232544,140.26594257354736,140.41113424301147,140.41113424301147,140.41113424301147,140.41113424301147,140.41113424301147,140.41113424301147,140.41113424301147,143.6783483028412,2,3.40783429145813,None,,,,,,,,,,,,,,,,,,59,2,2025-02-19_16h46.23.294,comp,2024.2.4,56.24200815275692,2025-02-19 16h46.41.965910 -0500,
10,10,0,filler_random,None,None,None,None,None,None,None,None,None,None,1,2.6250174045562744,None,,,,,0,0,0,0,0,10,10,161,143.69614624977112,,,,,,,,,,,,,,,,,,,,,,,,,,,,,,,,,,,,,,,,,,,,,,,,,,,,,,,,,,,,,,,,,,,,,,,,,,,,,,,,,,169.91404585943087,117.17032879638353,90.98834090959645,150.96659111759874,102.34947962354786,150.44437162334123,2.2,2.22,-230,276,0,-281,247,-279,143.6800661087036,143.6801426410675,143.68305158615112,143.69614624977112,143.84917092323303,143.84917092323303,143.84917092323303,143.84917092323303,143.84917092323303,143.84917092323303,143.84917092323303,146.33762001991272,1,2.6250174045562744,None,,,,,,,,,,,,,,,,,,59,2,2025-02-19_16h46.23.294,comp,2024.2.4,56.24200815275692,2025-02-19 16h46.41.965910 -0500,
11,11,0,catch,None,None,None,None,None,None,None,None,None,None,3,1.5568931102752686,None,,,,,0,0,0,0,0,11,11,124,146.35726022720337,,,,,,,,,,,,,,,,,,,,,,,,,,,,,,,,,,,,,,,,,,,,,,,,,,,,,,,,,,,,,,,,,,,,,,,,,,,,,,,,,,127,63,87,103,163,162,2.1,2.12,-179,-251,0,-286,228,256,146.33955216407776,146.33962845802307,146.34251618385315,146.35726022720337,146.49937415122986,146.49937415122986,146.49937415122986,146.49937415122986,146.49937415122986,146.49937415122986,146.49937415122986,147.93659782409668,3,1.5568931102752686,None,,,,,,,,,,,,,,,,,,59,2,2025-02-19_16h46.23.294,comp,2024.2.4,56.24200815275692,2025-02-19 16h46.41.965910 -0500,
12,12,0,critical,dhw,20.0,2.1,lower,78.0,78.0,133.0,57.0,57.0,133.0,3,3.3564815521240234,None,,,,,0,0,0,0,0,12,12,2,147.95699095726013,,,,,,,,,,,,,,,,,,,,,,,,,,,,,,,,,,,,,,,,,,,,,,,,,,,,,,,,,,,,,,,,,,,,,,,,,,,,,,,,,,78.0,78.0,133.0,57.0,57.0,133.0,2.1,2.11,-164,268,0,251,191,-265,147.93817400932312,147.93830275535583,147.94126296043396,147.95699095726013,148.10076260566711,148.10076260566711,148.10076260566711,148.10076260566711,148.10076260566711,148.10076260566711,148.10076260566711,151.31628489494324,3,3.3564815521240234,None,,,,,,,,,,,,,,,,,,59,2,2025-02-19_16h46.23.294,comp,2024.2.4,56.24200815275692,2025-02-19 16h46.41.965910 -0500,
13,13,0,filler_square,None,None,None,None,None,None,None,None,None,None,1,1.560250997543335,None,,,,,0,0,0,0,0,13,13,208,151.33763575553894,,,,,,,,,,,,,,,,,,,,,,,,,,,,,,,,,,,,,,,,,,,,,,,,,,,,,,,,,,,,,,,,,,,,,,,,,,,,,,,,,,85.34508725524672,85.34508725524672,66.48174552418183,67.18311132301807,59.40193236052379,58.76360126024738,2.1,2.12,-172,-268,0,-256,159,287,151.3182852268219,151.31836342811584,151.32166266441345,151.33763575553894,151.48197650909424,151.48197650909424,151.48197650909424,151.48197650909424,151.48197650909424,151.48197650909424,151.48197650909424,152.90426540374756,1,1.560250997543335,None,,,,,,,,,,,,,,,,,,59,2,2025-02-19_16h46.23.294,comp,2024.2.4,56.24200815275692,2025-02-19 16h46.41.965910 -0500,
14,14,0,filler_square,None,None,None,None,None,None,None,None,None,None,3,1.8324148654937744,None,,,,,0,0,0,0,0,14,14,196,152.92074179649353,,,,,,,,,,,,,,,,,,,,,,,,,,,,,,,,,,,,,,,,,,,,,,,,,,,,,,,,,,,,,,,,,,,,,,,,,,,,,,,,,,100.40428954665356,64.88664473129671,71.34066136375003,111.3896746103458,139.75675671288104,139.75675671288104,2.1,2.11,-184,261,0,264,222,-276,152.90621376037598,152.90629267692566,152.90918946266174,152.92074179649353,153.06821012496948,153.06821012496948,153.06821012496948,153.06821012496948,153.06821012496948,153.06821012496948,153.06821012496948,154.76885533332825,3,1.8324148654937744,None,,,,,,,,,,,,,,,,,,59,2,2025-02-19_16h46.23.294,comp,2024.2.4,56.24200815275692,2025-02-19 16h46.41.965910 -0500,
15,15,0,catch,None,None,None,None,None,None,None,None,None,None,2,1.7535598278045654,None,,,,,0,0,0,0,0,15,15,125,154.7844214439392,,,,,,,,,,,,,,,,,,,,,,,,,,,,,,,,,,,,,,,,,,,,,,,,,,,,,,,,,,,,,,,,,,,,,,,,,,,,,,,,,,96,94,179,146,82,108,2.2,2.21,-216,-266,0,266,223,274,154.77073216438293,154.77080869674683,154.77418732643127,154.7844214439392,154.93409371376038,154.93409371376038,154.93409371376038,154.93409371376038,154.93409371376038,154.93409371376038,154.93409371376038,156.5450246334076,2,1.7535598278045654,None,,,,,,,,,,,,,,,,,,59,2,2025-02-19_16h46.23.294,comp,2024.2.4,56.24200815275692,2025-02-19 16h46.41.965910 -0500,
16,16,0,filler_random,None,None,None,None,None,None,None,None,None,None,3,5.392814636230469,None,,,,,0,0,0,0,0,16,16,149,156.5603928565979,,,,,,,,,,,,,,,,,,,,,,,,,,,,,,,,,,,,,,,,,,,,,,,,,,,,,,,,,,,,,,,,,,,,,,,,,,,,,,,,,,57.745168493373356,185.3069350068957,61.468571850289884,111.61605933536558,170.95118388684233,93.44090998049626,3.0,3.1,-244,277,0,3,199,-273,156.54669570922852,156.54677653312683,156.5495903491974,156.5603928565979,156.70406556129456,156.70406556129456,156.70406556129456,156.70406556129456,156.70406556129456,156.70406556129456,156.70406556129456,161.95594239234924,3,5.392814636230469,None,,,,,,,,,,,,,,,,,,59,2,2025-02-19_16h46.23.294,comp,2024.2.4,56.24200815275692,2025-02-19 16h46.41.965910 -0500,
17,17,0,critical,dwh,20.0,1.0,lower,78.0,78.0,57.0,133.0,133.0,57.0,2,7.597408771514893,None,,,,,0,0,0,0,0,17,17,66,161.97242164611816,,,,,,,,,,,,,,,,,,,,,,,,,,,,,,,,,,,,,,,,,,,,,,,,,,,,,,,,,,,,,,,,,,,,,,,,,,,,,,,,,,78.0,78.0,57.0,133.0,133.0,57.0,1.0,1.2,-202,17,0,4,191,17,161.9576473236084,161.95776557922363,161.96165347099304,161.97242164611816,162.1226418018341,162.1226418018341,162.1226418018341,162.1226418018341,162.1226418018341,162.1226418018341,162.1226418018341,169.57584881782532,2,7.597408771514893,None,,,,,,,,,,,,,,,,,,59,2,2025-02-19_16h46.23.294,comp,2024.2.4,56.24200815275692,2025-02-19 16h46.41.965910 -0500,
18,18,0,critical,whd,20.0,4.0,upper,125.0,200.0,200.0,125.0,141.0,141.0,2,8.690200567245483,None,,,,,0,0,0,0,0,18,18,95,169.59160685539246,,,,,,,,,,,,,,,,,,,,,,,,,,,,,,,,,,,,,,,,,,,,,,,,,,,,,,,,,,,,,,,,,,,,,,,,,,,,,,,,,,125.0,200.0,200.0,125.0,141.0,141.0,4.0,4.2,-258,-5,0,-255,229,-14,169.57750964164734,169.57758808135986,169.58088612556458,169.59160685539246,169.7427213191986,169.7427213191986,169.7427213191986,169.7427213191986,169.7427213191986,169.7427213191986,169.7427213191986,178.291522026062,2,8.690200567245483,None,,,,,,,,,,,,,,,,,,59,2,2025-02-19_16h46.23.294,comp,2024.2.4,56.24200815275692,2025-02-19 16h46.41.965910 -0500,
19,19,0,critical,hdw,35.0,2.1,lower,133.0,57.0,70.0,70.0,57.0,133.0,3,2.6747477054595947,None,,,,,0,0,0,0,0,19,19,44,178.3111550807953,,,,,,,,,,,,,,,,,,,,,,,,,,,,,,,,,,,,,,,,,,,,,,,,,,,,,,,,,,,,,,,,,,,,,,,,,,,,,,,,,,133.0,57.0,70.0,70.0,57.0,133.0,2.1,2.11,-160,275,0,262,198,-255,178.2930145263672,178.29309177398682,178.296160697937,178.3111550807953,178.46275877952576,178.46275877952576,178.46275877952576,178.46275877952576,178.46275877952576,178.46275877952576,178.46275877952576,180.99346590042114,3,2.6747477054595947,None,,,,,,,,,,,,,,,,,,59,2,2025-02-19_16h46.23.294,comp,2024.2.4,56.24200815275692,2025-02-19 16h46.41.965910 -0500,
20,20,0,filler_square,None,None,None,None,None,None,None,None,None,None,2,1.6076836585998535,None,,,,,0,0,0,0,0,20,20,178,181.01021933555603,,,,,,,,,,,,,,,,,,,,,,,,,,,,,,,,,,,,,,,,,,,,,,,,,,,,,,,,,,,,,,,,,,,,,,,,,,,,,,,,,,87.64337907173604,79.15015555496042,99.89214944487624,99.89214944487624,77.15755932295014,71.25821065425374,1.0,1.2,-186,6,0,10,182,-15,180.99527764320374,180.99535608291626,180.99864220619202,181.01021933555603,181.15876293182373,181.15876293182373,181.15876293182373,181.15876293182373,181.15876293182373,181.15876293182373,181.15876293182373,182.62614250183105,2,1.6076836585998535,None,,,,,,,,,,,,,,,,,,59,2,2025-02-19_16h46.23.294,comp,2024.2.4,56.24200815275692,2025-02-19 16h46.41.965910 -0500,
21,21,0,critical,whd,35.0,2.1,lower,57.0,133.0,133.0,57.0,70.0,70.0,1,6.435741186141968,None,,,,,0,0,0,0,0,21,21,12,182.64562892913818,,,,,,,,,,,,,,,,,,,,,,,,,,,,,,,,,,,,,,,,,,,,,,,,,,,,,,,,,,,,,,,,,,,,,,,,,,,,,,,,,,57.0,133.0,133.0,57.0,70.0,70.0,2.1,2.11,-191,286,0,278,160,-260,182.62771368026733,182.6277940273285,182.63084840774536,182.64562892913818,182.79694819450378,182.79694819450378,182.79694819450378,182.79694819450378,182.79694819450378,182.79694819450378,182.79694819450378,189.09524011611938,1,6.435741186141968,None,,,,,,,,,,,,,,,,,,59,2,2025-02-19_16h46.23.294,comp,2024.2.4,56.24200815275692,2025-02-19 16h46.41.965910 -0500,
22,22,0,filler_random,None,None,None,None,None,None,None,None,None,None,1,2.701911211013794,None,,,,,0,0,0,0,0,22,22,137,189.1152958869934,,,,,,,,,,,,,,,,,,,,,,,,,,,,,,,,,,,,,,,,,,,,,,,,,,,,,,,,,,,,,,,,,,,,,,,,,,,,,,,,,,103.8140861018845,147.3106908550384,108.00976904934915,90.7273263920386,69.92646477590958,175.7723294250049,2.1,2.12,-215,-281,0,-273,229,268,189.09740018844604,189.09747529029846,189.1004774570465,189.1152958869934,189.26297521591187,189.26297521591187,189.26297521591187,189.26297521591187,189.26297521591187,189.26297521591187,189.26297521591187,191.83139872550964,1,2.701911211013794,None,,,,,,,,,,,,,,,,,,59,2,2025-02-19_16h46.23.294,comp,2024.2.4,56.24200815275692,2025-02-19 16h46.41.965910 -0500,
23,23,0,filler_square,None,None,None,None,None,None,None,None,None,None,1,1.6452240943908691,None,,,,,0,0,0,0,0,23,23,189,191.8519778251648,,,,,,,,,,,,,,,,,,,,,,,,,,,,,,,,,,,,,,,,,,,,,,,,,,,,,,,,,,,,,,,,,,,,,,,,,,,,,,,,,,111.11627479627049,111.11627479627049,60.43015307986122,74.2440412798881,91.03071232784359,76.9893784988319,1.0,1.1,-669,269,-480,257,-308,280,191.8333225250244,191.83343410491943,191.83659768104553,191.8519778251648,191.99570393562317,191.99570393562317,191.99570393562317,191.99570393562317,191.99570393562317,191.99570393562317,191.99570393562317,193.51336812973022,1,1.6452240943908691,None,,,,,,,,,,,,,,,,,,59,2,2025-02-19_16h46.23.294,comp,2024.2.4,56.24200815275692,2025-02-19 16h46.41.965910 -0500,
24,24,0,critical,hdw,20.0,1.0,upper,200.0,125.0,141.0,141.0,125.0,200.0,3,11.695701837539673,None,,,,,0,0,0,0,0,24,24,115,193.53076362609863,,,,,,,,,,,,,,,,,,,,,,,,,,,,,,,,,,,,,,,,,,,,,,,,,,,,,,,,,,,,,,,,,,,,,,,,,,,,,,,,,,200.0,125.0,141.0,141.0,125.0,200.0,1.0,1.1,-709,260,-480,255,-214,282,193.51500248908997,193.5151083469391,193.51841282844543,193.53076362609863,193.68790769577026,193.68790769577026,193.68790769577026,193.68790769577026,193.68790769577026,193.68790769577026,193.68790769577026,205.23691296577454,3,11.695701837539673,None,,,,,,,,,,,,,,,,,,59,2,2025-02-19_16h46.23.294,comp,2024.2.4,56.24200815275692,2025-02-19 16h46.41.965910 -0500,
25,25,0,critical,hwd,35.0,3.0,lower,133.0,57.0,57.0,133.0,70.0,70.0,2,2.641094207763672,None,,,,,0,0,0,0,0,25,25,98,205.2565793991089,,,,,,,,,,,,,,,,,,,,,,,,,,,,,,,,,,,,,,,,,,,,,,,,,,,,,,,,,,,,,,,,,,,,,,,,,,,,,,,,,,133.0,57.0,57.0,133.0,70.0,70.0,3.0,3.2,-191,-251,0,7,198,286,205.23861122131348,205.23873615264893,205.2420973777771,205.2565793991089,205.40100359916687,205.40100359916687,205.40100359916687,205.40100359916687,205.40100359916687,205.40100359916687,205.40100359916687,207.9008231163025,2,2.641094207763672,None,,,,,,,,,,,,,,,,,,59,2,2025-02-19_16h46.23.294,comp,2024.2.4,56.24200815275692,2025-02-19 16h46.41.965910 -0500,
26,26,0,critical,wdh,35.0,2.1,upper,125.0,200.0,127.0,127.0,200.0,125.0,3,2.1312332153320312,None,,,,,0,0,0,0,0,26,26,33,207.9185631275177,,,,,,,,,,,,,,,,,,,,,,,,,,,,,,,,,,,,,,,,,,,,,,,,,,,,,,,,,,,,,,,,,,,,,,,,,,,,,,,,,,125.0,200.0,127.0,127.0,200.0,125.0,2.1,2.11,-260,287,0,287,222,-267,207.9024121761322,207.90248894691467,207.90592169761658,207.9185631275177,208.07147526741028,208.07147526741028,208.07147526741028,208.07147526741028,208.07147526741028,208.07147526741028,208.07147526741028,210.05185770988464,3,2.1312332153320312,None,,,,,,,,,,,,,,,,,,59,2,2025-02-19_16h46.23.294,comp,2024.2.4,56.24200815275692,2025-02-19 16h46.41.965910 -0500,
27,27,0,critical,whd,20.0,2.1,upper,125.0,200.0,200.0,125.0,141.0,141.0,1,3.948779582977295,None,,,,,0,0,0,0,0,27,27,39,210.0685830116272,,,,,,,,,,,,,,,,,,,,,,,,,,,,,,,,,,,,,,,,,,,,,,,,,,,,,,,,,,,,,,,,,,,,,,,,,,,,,,,,,,125.0,200.0,200.0,125.0,141.0,141.0,2.1,2.11,-258,264,0,274,229,-279,210.0533275604248,210.05340266227722,210.05642461776733,210.0685830116272,210.21983671188354,210.21983671188354,210.21983671188354,210.21983671188354,210.21983671188354,210.21983671188354,210.21983671188354,214.02244114875793,1,3.948779582977295,None,,,,,,,,,,,,,,,,,,59,2,2025-02-19_16h46.23.294,comp,2024.2.4,56.24200815275692,2025-02-19 16h46.41.965910 -0500,
28,28,0,filler_random,None,None,None,None,None,None,None,None,None,None,1,2.986201763153076,None,,,,,0,0,0,0,0,28,28,165,214.03909134864807,,,,,,,,,,,,,,,,,,,,,,,,,,,,,,,,,,,,,,,,,,,,,,,,,,,,,,,,,,,,,,,,,,,,,,,,,,,,,,,,,,132.02776534249006,152.13741729341177,80.98950146938095,83.97699678774731,93.00078382148988,164.0164728345805,3.0,3.2,-214,-252,0,3,220,266,214.02432012557983,214.02440333366394,214.02831602096558,214.03909134864807,214.1860225200653,214.1860225200653,214.1860225200653,214.1860225200653,214.1860225200653,214.1860225200653,214.1860225200653,217.03844928741455,1,2.986201763153076,None,,,,,,,,,,,,,,,,,,59,2,2025-02-19_16h46.23.294,comp,2024.2.4,56.24200815275692,2025-02-19 16h46.41.965910 -0500,
29,29,0,filler_random,None,None,None,None,None,None,None,None,None,None,3,1.8446860313415527,None,,,,,0,0,0,0,0,29,29,132,217.05450439453125,,,,,,,,,,,,,,,,,,,,,,,,,,,,,,,,,,,,,,,,,,,,,,,,,,,,,,,,,,,,,,,,,,,,,,,,,,,,,,,,,,165.1786348696433,130.15947280485318,85.57338762773914,137.7323273483982,183.48349067368048,190.86710872479273,1.0,1.1,-710,287,-480,276,-220,266,217.04033875465393,217.04047513008118,217.04425716400146,217.05450439453125,217.21125674247742,217.21125674247742,217.21125674247742,217.21125674247742,217.21125674247742,217.21125674247742,217.21125674247742,218.90223932266235,3,1.8446860313415527,None,,,,,,,,,,,,,,,,,,59,2,2025-02-19_16h46.23.294,comp,2024.2.4,56.24200815275692,2025-02-19 16h46.41.965910 -0500,
30,30,0,filler_square,None,None,None,None,None,None,None,None,None,None,1,2.370558023452759,None,,,,,0,0,0,0,0,30,30,182,218.91912364959717,,,,,,,,,,,,,,,,,,,,,,,,,,,,,,,,,,,,,,,,,,,,,,,,,,,,,,,,,,,,,,,,,,,,,,,,,,,,,,,,,,165.1110011770981,165.1110011770981,81.27458082068019,103.64696450493777,102.73850918695331,106.74023070935317,3.0,3.2,-230,-264,0,-6,201,258,218.90404725074768,218.90412402153015,218.90703701972961,218.91912364959717,219.05646753311157,219.05646753311157,219.05646753311157,219.05646753311157,219.05646753311157,219.05646753311157,219.05646753311157,221.30595183372498,1,2.370558023452759,None,,,,,,,,,,,,,,,,,,59,2,2025-02-19_16h46.23.294,comp,2024.2.4,56.24200815275692,2025-02-19 16h46.41.965910 -0500,
31,31,0,critical,dhw,35.0,3.0,lower,70.0,70.0,133.0,57.0,57.0,133.0,2,4.512136697769165,None,,,,,0,0,0,0,0,31,31,50,221.32111859321594,,,,,,,,,,,,,,,,,,,,,,,,,,,,,,,,,,,,,,,,,,,,,,,,,,,,,,,,,,,,,,,,,,,,,,,,,,,,,,,,,,70.0,70.0,133.0,57.0,57.0,133.0,3.0,3.2,-160,-250,0,-3,191,269,221.3074595928192,221.30753469467163,221.3108901977539,221.32111859321594,221.47241401672363,221.47241401672363,221.47241401672363,221.47241401672363,221.47241401672363,221.47241401672363,221.47241401672363,225.85243797302246,2,4.512136697769165,None,,,,,,,,,,,,,,,,,,59,2,2025-02-19_16h46.23.294,comp,2024.2.4,56.24200815275692,2025-02-19 16h46.41.965910 -0500,
32,32,0,critical,wdh,35.0,2.1,upper,125.0,200.0,127.0,127.0,200.0,125.0,1,5.315718412399292,None,,,,,0,0,0,0,0,32,32,9,225.87038564682007,,,,,,,,,,,,,,,,,,,,,,,,,,,,,,,,,,,,,,,,,,,,,,,,,,,,,,,,,,,,,,,,,,,,,,,,,,,,,,,,,,125.0,200.0,127.0,127.0,200.0,125.0,2.1,2.12,-260,-265,0,-289,222,250,225.85408329963684,225.8542046546936,225.8574903011322,225.87038564682007,226.00878596305847,226.00878596305847,226.00878596305847,226.00878596305847,226.00878596305847,226.00878596305847,226.00878596305847,231.19315814971924,1,5.315718412399292,None,,,,,,,,,,,,,,,,,,59,2,2025-02-19_16h46.23.294,comp,2024.2.4,56.24200815275692,2025-02-19 16h46.41.965910 -0500,
33,33,0,critical,dwh,35.0,3.0,lower,70.0,70.0,57.0,133.0,133.0,57.0,2,3.983297348022461,None,,,,,0,0,0,0,0,33,33,62,231.21045351028442,,,,,,,,,,,,,,,,,,,,,,,,,,,,,,,,,,,,,,,,,,,,,,,,,,,,,,,,,,,,,,,,,,,,,,,,,,,,,,,,,,70.0,70.0,57.0,133.0,133.0,57.0,3.0,3.2,-198,-271,0,16,191,277,231.19471216201782,231.19480323791504,231.1988570690155,231.21045351028442,231.35708832740784,231.35708832740784,231.35708832740784,231.35708832740784,231.35708832740784,231.35708832740784,231.35708832740784,235.19591307640076,2,3.983297348022461,None,,,,,,,,,,,,,,,,,,59,2,2025-02-19_16h46.23.294,comp,2024.2.4,56.24200815275692,2025-02-19 16h46.41.965910 -0500,
34,34,0,critical,hdw,20.0,2.1,upper,200.0,125.0,141.0,141.0,125.0,200.0,3,6.613640546798706,None,,,,,0,0,0,0,0,34,34,47,235.2117726802826,,,,,,,,,,,,,,,,,,,,,,,,,,,,,,,,,,,,,,,,,,,,,,,,,,,,,,,,,,,,,,,,,,,,,,,,,,,,,,,,,,200.0,125.0,141.0,141.0,125.0,200.0,2.1,2.11,-229,267,0,251,266,-282,235.1977732181549,235.19792532920837,235.20108151435852,235.2117726802826,235.3695158958435,235.3695158958435,235.3695158958435,235.3695158958435,235.3695158958435,235.3695158958435,235.3695158958435,241.82931804656982,3,6.613640546798706,None,,,,,,,,,,,,,,,,,,59,2,2025-02-19_16h46.23.294,comp,2024.2.4,56.24200815275692,2025-02-19 16h46.41.965910 -0500,
35,35,0,filler_square,None,None,None,None,None,None,None,None,None,None,2,3.5955593585968018,None,,,,,0,0,0,0,0,35,35,173,241.84614062309265,,,,,,,,,,,,,,,,,,,,,,,,,,,,,,,,,,,,,,,,,,,,,,,,,,,,,,,,,,,,,,,,,,,,,,,,,,,,,,,,,,70.78719592985895,75.55660440217224,79.92219769309445,79.92219769309445,68.29710106032833,57.543175536292715,4.0,4.1,-174,-281,0,3,165,-271,241.83117079734802,241.83124947547913,241.83533382415771,241.84614062309265,241.9967770576477,241.9967770576477,241.9967770576477,241.9967770576477,241.9967770576477,241.9967770576477,241.9967770576477,245.45007133483887,2,3.5955593585968018,None,,,,,,,,,,,,,,,,,,59,2,2025-02-19_16h46.23.294,comp,2024.2.4,56.24200815275692,2025-02-19 16h46.41.965910 -0500,
36,36,0,critical,whd,20.0,1.0,lower,57.0,133.0,133.0,57.0,78.0,78.0,1,11.450975894927979,None,,,,,0,0,0,0,0,36,36,90,245.47038793563843,,,,,,,,,,,,,,,,,,,,,,,,,,,,,,,,,,,,,,,,,,,,,,,,,,,,,,,,,,,,,,,,,,,,,,,,,,,,,,,,,,57.0,133.0,133.0,57.0,78.0,78.0,1.0,1.3,289,-264,480,-262,644,-251,245.451491355896,245.45156836509705,245.45471358299255,245.47038793563843,245.61377096176147,245.61377096176147,245.61377096176147,245.61377096176147,245.61377096176147,245.61377096176147,245.61377096176147,256.932608127594,1,11.450975894927979,None,,,,,,,,,,,,,,,,,,59,2,2025-02-19_16h46.23.294,comp,2024.2.4,56.24200815275692,2025-02-19 16h46.41.965910 -0500,
37,37,0,filler_square,None,None,None,None,None,None,None,None,None,None,2,3.467501163482666,None,,,,,0,0,0,0,0,37,37,205,256.9498190879822,,,,,,,,,,,,,,,,,,,,,,,,,,,,,,,,,,,,,,,,,,,,,,,,,,,,,,,,,,,,,,,,,,,,,,,,,,,,,,,,,,98.91122640941444,141.30679182333597,156.73233409374348,156.73233409374348,135.85855518873086,148.50485323691828,3.0,3.1,-245,263,0,-1,249,-275,256.93465185165405,256.93476581573486,256.93803548812866,256.9498190879822,257.1082718372345,257.1082718372345,257.1082718372345,257.1082718372345,257.1082718372345,257.1082718372345,257.1082718372345,260.4339928627014,2,3.467501163482666,None,,,,,,,,,,,,,,,,,,59,2,2025-02-19_16h46.23.294,comp,2024.2.4,56.24200815275692,2025-02-19 16h46.41.965910 -0500,
38,38,0,critical,hwd,20.0,4.0,upper,200.0,125.0,125.0,200.0,141.0,141.0,2,3.9992330074310303,None,,,,,0,0,0,0,0,38,38,107,260.4502065181732,,,,,,,,,,,,,,,,,,,,,,,,,,,,,,,,,,,,,,,,,,,,,,,,,,,,,,,,,,,,,,,,,,,,,,,,,,,,,,,,,,200.0,125.0,125.0,200.0,141.0,141.0,4.0,4.2,-258,3,0,-286,266,-7,260.4356064796448,260.4357109069824,260.4390604496002,260.4502065181732,260.590030670166,260.590030670166,260.590030670166,260.590030670166,260.590030670166,260.590030670166,260.590030670166,264.4550929069519,2,3.9992330074310303,None,,,,,,,,,,,,,,,,,,59,2,2025-02-19_16h46.23.294,comp,2024.2.4,56.24200815275692,2025-02-19 16h46.41.965910 -0500,
39,39,0,critical,dhw,20.0,1.0,upper,141.0,141.0,200.0,125.0,125.0,200.0,2,2.4170799255371094,None,,,,,0,0,0,0,0,39,39,55,264.47286438941956,,,,,,,,,,,,,,,,,,,,,,,,,,,,,,,,,,,,,,,,,,,,,,,,,,,,,,,,,,,,,,,,,,,,,,,,,,,,,,,,,,141.0,141.0,200.0,125.0,125.0,200.0,1.0,1.2,-229,-17,0,16,258,7,264.45660281181335,264.4566979408264,264.4597611427307,264.47286438941956,264.61905884742737,264.61905884742737,264.61905884742737,264.61905884742737,264.61905884742737,264.61905884742737,264.61905884742737,266.8943431377411,2,2.4170799255371094,None,,,,,,,,,,,,,,,,,,59,2,2025-02-19_16h46.23.294,comp,2024.2.4,56.24200815275692,2025-02-19 16h46.41.965910 -0500,
40,40,0,filler_random,None,None,None,None,None,None,None,None,None,None,3,2.6581435203552246,None,,,,,0,0,0,0,0,40,40,130,266.91125655174255,,,,,,,,,,,,,,,,,,,,,,,,,,,,,,,,,,,,,,,,,,,,,,,,,,,,,,,,,,,,,,,,,,,,,,,,,,,,,,,,,,122.73709990578176,145.48483242858467,199.90554282536888,121.18981838083272,173.8053077412775,170.41743850984633,3.0,3.1,-229,270,0,-1,242,-290,266.8961691856384,266.896249294281,266.89950489997864,266.91125655174255,267.05130076408386,267.05130076408386,267.05130076408386,267.05130076408386,267.05130076408386,267.05130076408386,267.05130076408386,269.57139897346497,3,2.6581435203552246,None,,,,,,,,,,,,,,,,,,59,2,2025-02-19_16h46.23.294,comp,2024.2.4,56.24200815275692,2025-02-19 16h46.41.965910 -0500,
41,41,0,critical,whd,20.0,2.1,lower,57.0,133.0,133.0,57.0,78.0,78.0,2,3.477293014526367,None,,,,,0,0,0,0,0,41,41,14,269.58880400657654,,,,,,,,,,,,,,,,,,,,,,,,,,,,,,,,,,,,,,,,,,,,,,,,,,,,,,,,,,,,,,,,,,,,,,,,,,,,,,,,,,57.0,133.0,133.0,57.0,78.0,78.0,2.1,2.11,-191,269,0,288,164,-282,269.5730757713318,269.573215007782,269.57741808891296,269.58880400657654,269.7429597377777,269.7429597377777,269.7429597377777,269.7429597377777,269.7429597377777,269.7429597377777,269.7429597377777,273.072870016098,2,3.477293014526367,None,,,,,,,,,,,,,,,,,,59,2,2025-02-19_16h46.23.294,comp,2024.2.4,56.24200815275692,2025-02-19 16h46.41.965910 -0500,
42,42,0,filler_square,None,None,None,None,None,None,None,None,None,None,2,1.431936264038086,None,,,,,0,0,0,0,0,42,42,202,273.0897686481476,,,,,,,,,,,,,,,,,,,,,,,,,,,,,,,,,,,,,,,,,,,,,,,,,,,,,,,,,,,,,,,,,,,,,,,,,,,,,,,,,,124.28421895134976,126.3463194080876,141.30909795201276,141.30909795201276,97.09682957430033,68.75290574986026,2.2,2.21,-230,-281,0,275,201,275,273.0748391151428,273.0749228000641,273.0781948566437,273.0897686481476,273.23518085479736,273.23518085479736,273.23518085479736,273.23518085479736,273.23518085479736,273.23518085479736,273.23518085479736,274.52559757232666,2,1.431936264038086,None,,,,,,,,,,,,,,,,,,59,2,2025-02-19_16h46.23.294,comp,2024.2.4,56.24200815275692,2025-02-19 16h46.41.965910 -0500,
43,43,0,critical,hwd,35.0,4.0,upper,200.0,125.0,125.0,200.0,127.0,127.0,2,2.1198904514312744,None,,,,,0,0,0,0,0,43,43,101,274.54617619514465,,,,,,,,,,,,,,,,,,,,,,,,,,,,,,,,,,,,,,,,,,,,,,,,,,,,,,,,,,,,,,,,,,,,,,,,,,,,,,,,,,200.0,125.0,125.0,200.0,127.0,127.0,4.0,4.2,-258,4,0,-252,260,-11,274.5271985530853,274.5272741317749,274.53056049346924,274.54617619514465,274.68917751312256,274.68917751312256,274.68917751312256,274.68917751312256,274.68917751312256,274.68917751312256,274.68917751312256,276.67253828048706,2,2.1198904514312744,None,,,,,,,,,,,,,,,,,,59,2,2025-02-19_16h46.23.294,comp,2024.2.4,56.24200815275692,2025-02-19 16h46.41.965910 -0500,
44,44,0,critical,dhw,35.0,1.0,upper,127.0,127.0,200.0,125.0,125.0,200.0,3,3.7731213569641113,None,,,,,0,0,0,0,0,44,44,49,276.6923544406891,,,,,,,,,,,,,,,,,,,,,,,,,,,,,,,,,,,,,,,,,,,,,,,,,,,,,,,,,,,,,,,,,,,,,,,,,,,,,,,,,,127.0,127.0,200.0,125.0,125.0,200.0,1.0,1.1,-702,269,-480,264,-222,274,276.6740520000458,276.6741292476654,276.6771512031555,276.6923544406891,276.840047121048,276.840047121048,276.840047121048,276.840047121048,276.840047121048,276.840047121048,276.840047121048,280.4750907421112,3,3.7731213569641113,None,,,,,,,,,,,,,,,,,,59,2,2025-02-19_16h46.23.294,comp,2024.2.4,56.24200815275692,2025-02-19 16h46.41.965910 -0500,
45,45,0,filler_square,None,None,None,None,None,None,None,None,None,None,1,1.5183231830596924,None,,,,,0,0,0,0,0,45,45,180,280.49114179611206,,,,,,,,,,,,,,,,,,,,,,,,,,,,,,,,,,,,,,,,,,,,,,,,,,,,,,,,,,,,,,,,,,,,,,,,,,,,,,,,,,185.47640167448944,185.47640167448944,96.8469611689137,174.4961633463157,160.99837220739005,77.79639016897158,1.0,1.3,204,-277,480,-266,702,-281,280.4769630432129,280.477041721344,280.48044991493225,280.49114179611206,280.64039754867554,280.64039754867554,280.64039754867554,280.64039754867554,280.64039754867554,280.64039754867554,280.64039754867554,282.02506399154663,1,1.5183231830596924,None,,,,,,,,,,,,,,,,,,59,2,2025-02-19_16h46.23.294,comp,2024.2.4,56.24200815275692,2025-02-19 16h46.41.965910 -0500,
46,46,0,catch,None,None,None,None,None,None,None,None,None,None,2,1.6487674713134766,None,,,,,0,0,0,0,0,46,46,121,282.0406222343445,,,,,,,,,,,,,,,,,,,,,,,,,,,,,,,,,,,,,,,,,,,,,,,,,,,,,,,,,,,,,,,,,,,,,,,,,,,,,,,,,,104,86,165,160,81,109,3.0,3.1,-219,284,0,16,230,-253,282.0269033908844,282.02699542045593,282.0303592681885,282.0406222343445,282.19501996040344,282.19501996040344,282.19501996040344,282.19501996040344,282.19501996040344,282.19501996040344,282.19501996040344,283.7085750102997,2,1.6487674713134766,None,,,,,,,,,,,,,,,,,,59,2,2025-02-19_16h46.23.294,comp,2024.2.4,56.24200815275692,2025-02-19 16h46.41.965910 -0500,
47,47,0,critical,wdh,20.0,2.1,upper,125.0,200.0,141.0,141.0,200.0,125.0,1,4.973126173019409,None,,,,,0,0,0,0,0,47,47,35,283.7243287563324,,,,,,,,,,,,,,,,,,,,,,,,,,,,,,,,,,,,,,,,,,,,,,,,,,,,,,,,,,,,,,,,,,,,,,,,,,,,,,,,,,125.0,200.0,141.0,141.0,200.0,125.0,2.1,2.12,-266,-279,0,-286,229,251,283.71011209487915,283.7101860046387,283.713173866272,283.7243287563324,283.88122630119324,283.88122630119324,283.88122630119324,283.88122630119324,283.88122630119324,283.88122630119324,283.88122630119324,288.7117602825165,1,4.973126173019409,None,,,,,,,,,,,,,,,,,,59,2,2025-02-19_16h46.23.294,comp,2024.2.4,56.24200815275692,2025-02-19 16h46.41.965910 -0500,
48,48,0,critical,wdh,35.0,3.0,upper,125.0,200.0,127.0,127.0,200.0,125.0,1,1.9942898750305176,None,,,,,0,0,0,0,0,48,48,75,288.7277121543884,,,,,,,,,,,,,,,,,,,,,,,,,,,,,,,,,,,,,,,,,,,,,,,,,,,,,,,,,,,,,,,,,,,,,,,,,,,,,,,,,,125.0,200.0,127.0,127.0,200.0,125.0,3.0,3.2,-260,-265,0,-18,222,262,288.71336102485657,288.7134668827057,288.7169096469879,288.7277121543884,288.86772561073303,288.86772561073303,288.86772561073303,288.86772561073303,288.86772561073303,288.86772561073303,288.86772561073303,290.7247726917267,1,1.9942898750305176,None,,,,,,,,,,,,,,,,,,59,2,2025-02-19_16h46.23.294,comp,2024.2.4,56.24200815275692,2025-02-19 16h46.41.965910 -0500,
49,49,0,filler_square,None,None,None,None,None,None,None,None,None,None,3,1.5328238010406494,None,,,,,0,0,0,0,0,49,49,209,290.74138164520264,,,,,,,,,,,,,,,,,,,,,,,,,,,,,,,,,,,,,,,,,,,,,,,,,,,,,,,,,,,,,,,,,,,,,,,,,,,,,,,,,,119.13745633202265,61.061132567712,97.53828540646792,68.19385035378683,124.04246525185496,124.04246525185496,1.0,1.2,-161,4,0,-14,192,5,290.7265212535858,290.7265999317169,290.7295331954956,290.74138164520264,290.88227796554565,290.88227796554565,290.88227796554565,290.88227796554565,290.88227796554565,290.88227796554565,290.88227796554565,292.28346586227417,3,1.5328238010406494,None,,,,,,,,,,,,,,,,,,59,2,2025-02-19_16h46.23.294,comp,2024.2.4,56.24200815275692,2025-02-19 16h46.41.965910 -0500,
50,50,0,critical,whd,35.0,2.1,upper,125.0,200.0,200.0,125.0,127.0,127.0,2,2.9866278171539307,None,,,,,0,0,0,0,0,50,50,37,292.30345726013184,,,,,,,,,,,,,,,,,,,,,,,,,,,,,,,,,,,,,,,,,,,,,,,,,,,,,,,,,,,,,,,,,,,,,,,,,,,,,,,,,,125.0,200.0,200.0,125.0,127.0,127.0,2.1,2.12,-258,-266,0,-265,222,273,292.2850196361542,292.2850971221924,292.2880401611328,292.30345726013184,292.44377875328064,292.44377875328064,292.44377875328064,292.44377875328064,292.44377875328064,292.44377875328064,292.44377875328064,295.2964608669281,2,2.9866278171539307,None,,,,,,,,,,,,,,,,,,59,2,2025-02-19_16h46.23.294,comp,2024.2.4,56.24200815275692,2025-02-19 16h46.41.965910 -0500,
51,51,0,filler_random,None,None,None,None,None,None,None,None,None,None,1,1.6490957736968994,None,,,,,0,0,0,0,0,51,51,141,295.3123641014099,,,,,,,,,,,,,,,,,,,,,,,,,,,,,,,,,,,,,,,,,,,,,,,,,,,,,,,,,,,,,,,,,,,,,,,,,,,,,,,,,,114.27412427060474,179.59134852939886,68.80441366828308,199.8409075856792,58.00553739050418,97.77764109548254,2.1,2.12,-286,-254,0,-257,245,283,295.2980628013611,295.2981388568878,295.3012113571167,295.3123641014099,295.46309208869934,295.46309208869934,295.46309208869934,295.46309208869934,295.46309208869934,295.46309208869934,295.46309208869934,296.9635081291199,1,1.6490957736968994,None,,,,,,,,,,,,,,,,,,59,2,2025-02-19_16h46.23.294,comp,2024.2.4,56.24200815275692,2025-02-19 16h46.41.965910 -0500,
52,52,0,filler_random,None,None,None,None,None,None,None,None,None,None,3,1.7350683212280273,None,,,,,0,0,0,0,0,52,52,133,296.97842502593994,,,,,,,,,,,,,,,,,,,,,,,,,,,,,,,,,,,,,,,,,,,,,,,,,,,,,,,,,,,,,,,,,,,,,,,,,,,,,,,,,,85.4034329806041,181.18561319261005,106.58781225591116,96.25811003710373,143.49848428842512,187.53037306179013,3.0,3.1,-235,287,0,-9,238,-265,296.9654281139374,296.96551060676575,296.96892523765564,296.97842502593994,297.12914276123047,297.12914276123047,297.12914276123047,297.12914276123047,297.12914276123047,297.12914276123047,297.12914276123047,298.7171952724457,3,1.7350683212280273,None,,,,,,,,,,,,,,,,,,59,2,2025-02-19_16h46.23.294,comp,2024.2.4,56.24200815275692,2025-02-19 16h46.41.965910 -0500,
53,53,0,filler_square,None,None,None,None,None,None,None,None,None,None,2,1.4762566089630127,None,,,,,0,0,0,0,0,53,53,177,298.73345494270325,,,,,,,,,,,,,,,,,,,,,,,,,,,,,,,,,,,,,,,,,,,,,,,,,,,,,,,,,,,,,,,,,,,,,,,,,,,,,,,,,,80.92394958265362,89.25856140834506,135.98565320116433,135.98565320116433,103.18096551572513,87.39810419429021,4.0,4.2,-209,16,0,-283,208,4,298.7193179130554,298.71939969062805,298.72272515296936,298.73345494270325,298.87893056869507,298.87893056869507,298.87893056869507,298.87893056869507,298.87893056869507,298.87893056869507,298.87893056869507,300.22141194343567,2,1.4762566089630127,None,,,,,,,,,,,,,,,,,,59,2,2025-02-19_16h46.23.294,comp,2024.2.4,56.24200815275692,2025-02-19 16h46.41.965910 -0500,
54,54,0,critical,wdh,35.0,4.0,lower,57.0,133.0,70.0,70.0,133.0,57.0,1,3.0961790084838867,None,,,,,0,0,0,0,0,54,54,76,300.242116689682,,,,,,,,,,,,,,,,,,,,,,,,,,,,,,,,,,,,,,,,,,,,,,,,,,,,,,,,,,,,,,,,,,,,,,,,,,,,,,,,,,57.0,133.0,70.0,70.0,133.0,57.0,4.0,4.1,-198,-256,0,18,160,-273,300.2230212688446,300.2231080532074,300.22632026672363,300.242116689682,300.3806571960449,300.3806571960449,300.3806571960449,300.3806571960449,300.3806571960449,300.3806571960449,300.3806571960449,303.34628033638,1,3.0961790084838867,None,,,,,,,,,,,,,,,,,,59,2,2025-02-19_16h46.23.294,comp,2024.2.4,56.24200815275692,2025-02-19 16h46.41.965910 -0500,
55,55,0,filler_square,None,None,None,None,None,None,None,None,None,None,1,1.535311222076416,None,,,,,0,0,0,0,0,55,55,181,303.36277866363525,,,,,,,,,,,,,,,,,,,,,,,,,,,,,,,,,,,,,,,,,,,,,,,,,,,,,,,,,,,,,,,,,,,,,,,,,,,,,,,,,,162.4962412058381,162.4962412058381,141.9816198279571,156.19219176281933,85.44125887898353,78.92577659508312,2.1,2.12,-255,-254,0,-254,214,273,303.3481636047363,303.3482413291931,303.3515818119049,303.36277866363525,303.5125274658203,303.5125274658203,303.5125274658203,303.5125274658203,303.5125274658203,303.5125274658203,303.5125274658203,304.91345477104187,1,1.535311222076416,None,,,,,,,,,,,,,,,,,,59,2,2025-02-19_16h46.23.294,comp,2024.2.4,56.24200815275692,2025-02-19 16h46.41.965910 -0500,
56,56,0,critical,wdh,20.0,1.0,lower,57.0,133.0,78.0,78.0,133.0,57.0,1,2.65625,None,,,,,0,0,0,0,0,56,56,78,304.9298748970032,,,,,,,,,,,,,,,,,,,,,,,,,,,,,,,,,,,,,,,,,,,,,,,,,,,,,,,,,,,,,,,,,,,,,,,,,,,,,,,,,,57.0,133.0,78.0,78.0,133.0,57.0,1.0,1.2,-202,10,0,-8,164,-6,304.91496443748474,304.91503953933716,304.917959690094,304.9298748970032,305.0705351829529,305.0705351829529,305.0705351829529,305.0705351829529,305.0705351829529,305.0705351829529,305.0705351829529,307.58829498291016,1,2.65625,None,,,,,,,,,,,,,,,,,,59,2,2025-02-19_16h46.23.294,comp,2024.2.4,56.24200815275692,2025-02-19 16h46.41.965910 -0500,
57,57,0,critical,hwd,35.0,2.1,upper,200.0,125.0,125.0,200.0,127.0,127.0,2,3.445297956466675,None,,,,,0,0,0,0,0,57,57,41,307.60418915748596,,,,,,,,,,,,,,,,,,,,,,,,,,,,,,,,,,,,,,,,,,,,,,,,,,,,,,,,,,,,,,,,,,,,,,,,,,,,,,,,,,200.0,125.0,125.0,200.0,127.0,127.0,2.1,2.12,-258,-261,0,-286,260,275,307.5899589061737,307.5900881290436,307.59336137771606,307.60418915748596,307.7502028942108,307.7502028942108,307.7502028942108,307.7502028942108,307.7502028942108,307.7502028942108,307.7502028942108,311.05989265441895,2,3.445297956466675,None,,,,,,,,,,,,,,,,,,59,2,2025-02-19_16h46.23.294,comp,2024.2.4,56.24200815275692,2025-02-19 16h46.41.965910 -0500,
58,58,0,filler_square,None,None,None,None,None,None,None,None,None,None,3,5.414408206939697,None,,,,,0,0,0,0,0,58,58,200,311.07526445388794,,,,,,,,,,,,,,,,,,,,,,,,,,,,,,,,,,,,,,,,,,,,,,,,,,,,,,,,,,,,,,,,,,,,,,,,,,,,,,,,,,59.01104611231152,61.46316005601771,60.768641222658545,63.309106349054915,63.6373722825355,63.6373722825355,4.0,4.1,-158,-252,0,-2,159,-279,311.06154465675354,311.06162190437317,311.06445717811584,311.07526445388794,311.2192368507385,311.2192368507385,311.2192368507385,311.2192368507385,311.2192368507385,311.2192368507385,311.2192368507385,316.492226600647,3,5.414408206939697,None,,,,,,,,,,,,,,,,,,59,2,2025-02-19_16h46.23.294,comp,2024.2.4,56.24200815275692,2025-02-19 16h46.41.965910 -0500,
59,59,0,filler_random,None,None,None,None,None,None,None,None,None,None,1,1.9215216636657715,None,,,,,0,0,0,0,0,59,59,157,316.5119698047638,,,,,,,,,,,,,,,,,,,,,,,,,,,,,,,,,,,,,,,,,,,,,,,,,,,,,,,,,,,,,,,,,,,,,,,,,,,,,,,,,,96.31687488036975,158.6366385248624,71.46000428425076,61.875131712498856,67.80731459186089,158.16546475722862,1.0,1.3,274,-266,480,-252,686,-288,316.49408888816833,316.49421405792236,316.49748492240906,316.5119698047638,316.65232610702515,316.65232610702515,316.65232610702515,316.65232610702515,316.65232610702515,316.65232610702515,316.65232610702515,318.4373106956482,1,1.9215216636657715,None,,,,,,,,,,,,,,,,,,59,2,2025-02-19_16h46.23.294,comp,2024.2.4,56.24200815275692,2025-02-19 16h46.41.965910 -0500,
60,60,0,filler_square,None,None,None,None,None,None,None,None,None,None,1,6.020784378051758,None,,,,,0,0,0,0,0,60,60,194,318.4529914855957,,,,,,,,,,,,,,,,,,,,,,,,,,,,,,,,,,,,,,,,,,,,,,,,,,,,,,,,,,,,,,,,,,,,,,,,,,,,,,,,,,164.1695995959767,164.1695995959767,161.5302747717131,139.40328601638595,62.00653974616007,133.87516744749277,2.1,2.12,-248,-265,0,-284,233,265,318.4391129016876,318.439190864563,318.44224548339844,318.4529914855957,318.60722851753235,318.60722851753235,318.60722851753235,318.60722851753235,318.60722851753235,318.60722851753235,318.60722851753235,324.47613883018494,1,6.020784378051758,None,,,,,,,,,,,,,,,,,,59,2,2025-02-19_16h46.23.294,comp,2024.2.4,56.24200815275692,2025-02-19 16h46.41.965910 -0500,
61,61,0,critical,dwh,20.0,4.0,upper,141.0,141.0,125.0,200.0,200.0,125.0,2,6.379587173461914,None,,,,,0,0,0,0,0,61,61,71,324.49428510665894,,,,,,,,,,,,,,,,,,,,,,,,,,,,,,,,,,,,,,,,,,,,,,,,,,,,,,,,,,,,,,,,,,,,,,,,,,,,,,,,,,141.0,141.0,125.0,200.0,200.0,125.0,4.0,4.2,-266,14,0,-289,258,-3,324.4777910709381,324.47791957855225,324.4811749458313,324.49428510665894,324.63853311538696,324.63853311538696,324.63853311538696,324.63853311538696,324.63853311538696,324.63853311538696,324.63853311538696,330.8916459083557,2,6.379587173461914,None,,,,,,,,,,,,,,,,,,59,2,2025-02-19_16h46.23.294,comp,2024.2.4,56.24200815275692,2025-02-19 16h46.41.965910 -0500,
62,62,0,critical,hdw,35.0,4.0,upper,200.0,125.0,127.0,127.0,125.0,200.0,3,3.055018186569214,None,,,,,0,0,0,0,0,62,62,113,330.90679955482483,,,,,,,,,,,,,,,,,,,,,,,,,,,,,,,,,,,,,,,,,,,,,,,,,,,,,,,,,,,,,,,,,,,,,,,,,,,,,,,,,,200.0,125.0,127.0,127.0,125.0,200.0,4.0,4.1,-222,-281,0,-13,260,-266,330.8931164741516,330.8931918144226,330.8964319229126,330.90679955482483,331.06263303756714,331.06263303756714,331.06263303756714,331.06263303756714,331.06263303756714,331.06263303756714,331.06263303756714,333.9749491214752,3,3.055018186569214,None,,,,,,,,,,,,,,,,,,59,2,2025-02-19_16h46.23.294,comp,2024.2.4,56.24200815275692,2025-02-19 16h46.41.965910 -0500,
63,63,0,critical,wdh,35.0,2.1,lower,57.0,133.0,70.0,70.0,133.0,57.0,1,3.4906914234161377,None,,,,,0,0,0,0,0,63,63,8,333.9908695220947,,,,,,,,,,,,,,,,,,,,,,,,,,,,,,,,,,,,,,,,,,,,,,,,,,,,,,,,,,,,,,,,,,,,,,,,,,,,,,,,,,57.0,133.0,70.0,70.0,133.0,57.0,2.1,2.11,-198,255,0,255,160,-266,333.9765045642853,333.97658467292786,333.98060870170593,333.9908695220947,334.1383786201477,334.1383786201477,334.1383786201477,334.1383786201477,334.1383786201477,334.1383786201477,334.1383786201477,337.4909164905548,1,3.4906914234161377,None,,,,,,,,,,,,,,,,,,59,2,2025-02-19_16h46.23.294,comp,2024.2.4,56.24200815275692,2025-02-19 16h46.41.965910 -0500,
64,64,0,critical,wdh,35.0,1.0,lower,57.0,133.0,70.0,70.0,133.0,57.0,1,2.6312036514282227,None,,,,,0,0,0,0,0,64,64,72,337.5070674419403,,,,,,,,,,,,,,,,,,,,,,,,,,,,,,,,,,,,,,,,,,,,,,,,,,,,,,,,,,,,,,,,,,,,,,,,,,,,,,,,,,57.0,133.0,70.0,70.0,133.0,57.0,1.0,1.3,282,-287,480,-282,640,-276,337.49252796173096,337.49260544776917,337.49595046043396,337.5070674419403,337.66003823280334,337.66003823280334,337.66003823280334,337.66003823280334,337.66003823280334,337.66003823280334,337.66003823280334,340.1436171531677,1,2.6312036514282227,None,,,,,,,,,,,,,,,,,,59,2,2025-02-19_16h46.23.294,comp,2024.2.4,56.24200815275692,2025-02-19 16h46.41.965910 -0500,
65,65,0,critical,whd,20.0,4.0,lower,57.0,133.0,133.0,57.0,78.0,78.0,1,2.8190407752990723,None,,,,,0,0,0,0,0,65,65,94,340.1589312553406,,,,,,,,,,,,,,,,,,,,,,,,,,,,,,,,,,,,,,,,,,,,,,,,,,,,,,,,,,,,,,,,,,,,,,,,,,,,,,,,,,57.0,133.0,133.0,57.0,78.0,78.0,4.0,4.2,-191,2,0,-283,164,2,340.1451165676117,340.1451952457428,340.1482253074646,340.1589312553406,340.30903720855713,340.30903720855713,340.30903720855713,340.30903720855713,340.30903720855713,340.30903720855713,340.30903720855713,342.9942376613617,1,2.8190407752990723,None,,,,,,,,,,,,,,,,,,59,2,2025-02-19_16h46.23.294,comp,2024.2.4,56.24200815275692,2025-02-19 16h46.41.965910 -0500,
66,66,0,critical,hwd,35.0,4.0,lower,133.0,57.0,57.0,133.0,70.0,70.0,2,3.8979763984680176,None,,,,,0,0,0,0,0,66,66,100,343.00800490379333,,,,,,,,,,,,,,,,,,,,,,,,,,,,,,,,,,,,,,,,,,,,,,,,,,,,,,,,,,,,,,,,,,,,,,,,,,,,,,,,,,133.0,57.0,57.0,133.0,70.0,70.0,4.0,4.2,-191,7,0,-272,198,18,342.99569153785706,342.99576926231384,342.9987850189209,343.00800490379333,343.16005659103394,343.16005659103394,343.16005659103394,343.16005659103394,343.16005659103394,343.16005659103394,343.16005659103394,346.9112923145294,2,3.8979763984680176,None,,,,,,,,,,,,,,,,,,59,2,2025-02-19_16h46.23.294,comp,2024.2.4,56.24200815275692,2025-02-19 16h46.41.965910 -0500,
67,67,0,critical,dwh,35.0,3.0,upper,127.0,127.0,125.0,200.0,200.0,125.0,2,3.160205125808716,None,,,,,0,0,0,0,0,67,67,63,346.93006229400635,,,,,,,,,,,,,,,,,,,,,,,,,,,,,,,,,,,,,,,,,,,,,,,,,,,,,,,,,,,,,,,,,,,,,,,,,,,,,,,,,,127.0,127.0,125.0,200.0,200.0,125.0,3.0,3.1,-260,258,0,5,258,-290,346.912850856781,346.9129271507263,346.91600704193115,346.93006229400635,347.0790808200836,347.0790808200836,347.0790808200836,347.0790808200836,347.0790808200836,347.0790808200836,347.0790808200836,350.09576392173767,2,3.160205125808716,None,,,,,,,,,,,,,,,,,,59,2,2025-02-19_16h46.23.294,comp,2024.2.4,56.24200815275692,2025-02-19 16h46.41.965910 -0500,
68,68,0,filler_random,None,None,None,None,None,None,None,None,None,None,2,4.573716163635254,None,,,,,0,0,0,0,0,68,68,134,350.1166617870331,,,,,,,,,,,,,,,,,,,,,,,,,,,,,,,,,,,,,,,,,,,,,,,,,,,,,,,,,,,,,,,,,,,,,,,,,,,,,,,,,,152.28153463419127,63.82395516591706,74.59862712659408,156.43264660336115,85.75700477414398,106.96579550056413,1.0,1.3,274,-261,480,-285,708,-281,350.0974578857422,350.0975544452667,350.1011037826538,350.1166617870331,350.26327300071716,350.26327300071716,350.26327300071716,350.26327300071716,350.26327300071716,350.26327300071716,350.26327300071716,354.69835805892944,2,4.573716163635254,None,,,,,,,,,,,,,,,,,,59,2,2025-02-19_16h46.23.294,comp,2024.2.4,56.24200815275692,2025-02-19 16h46.41.965910 -0500,
69,69,0,critical,wdh,20.0,4.0,lower,57.0,133.0,78.0,78.0,133.0,57.0,1,2.5115745067596436,None,,,,,0,0,0,0,0,69,69,82,354.71444177627563,,,,,,,,,,,,,,,,,,,,,,,,,,,,,,,,,,,,,,,,,,,,,,,,,,,,,,,,,,,,,,,,,,,,,,,,,,,,,,,,,,57.0,133.0,78.0,78.0,133.0,57.0,4.0,4.1,-202,-260,0,20,164,-263,354.70000410079956,354.7001049518585,354.70359802246094,354.71444177627563,354.86745405197144,354.86745405197144,354.86745405197144,354.86745405197144,354.86745405197144,354.86745405197144,354.86745405197144,357.23289608955383,1,2.5115745067596436,None,,,,,,,,,,,,,,,,,,59,2,2025-02-19_16h46.23.294,comp,2024.2.4,56.24200815275692,2025-02-19 16h46.41.965910 -0500,
70,70,0,critical,dhw,35.0,3.0,upper,127.0,127.0,200.0,125.0,125.0,200.0,2,2.1756327152252197,None,,,,,0,0,0,0,0,70,70,51,357.2508828639984,,,,,,,,,,,,,,,,,,,,,,,,,,,,,,,,,,,,,,,,,,,,,,,,,,,,,,,,,,,,,,,,,,,,,,,,,,,,,,,,,,127.0,127.0,200.0,125.0,125.0,200.0,3.0,3.2,-222,-255,0,-6,258,255,357.2344617843628,357.2345378398895,357.23780965805054,357.2508828639984,357.3975820541382,357.3975820541382,357.3975820541382,357.3975820541382,357.3975820541382,357.3975820541382,357.3975820541382,359.4320833683014,2,2.1756327152252197,None,,,,,,,,,,,,,,,,,,59,2,2025-02-19_16h46.23.294,comp,2024.2.4,56.24200815275692,2025-02-19 16h46.41.965910 -0500,
71,71,0,critical,dwh,20.0,2.1,lower,78.0,78.0,57.0,133.0,133.0,57.0,2,2.8321821689605713,None,,,,,0,0,0,0,0,71,71,30,359.44939494132996,,,,,,,,,,,,,,,,,,,,,,,,,,,,,,,,,,,,,,,,,,,,,,,,,,,,,,,,,,,,,,,,,,,,,,,,,,,,,,,,,,78.0,78.0,57.0,133.0,133.0,57.0,2.1,2.12,-202,-269,0,-285,191,256,359.43365812301636,359.43377137184143,359.4370448589325,359.44939494132996,359.60011172294617,359.60011172294617,359.60011172294617,359.60011172294617,359.60011172294617,359.60011172294617,359.60011172294617,362.2862560749054,2,2.8321821689605713,None,,,,,,,,,,,,,,,,,,59,2,2025-02-19_16h46.23.294,comp,2024.2.4,56.24200815275692,2025-02-19 16h46.41.965910 -0500,
72,72,0,filler_random,None,None,None,None,None,None,None,None,None,None,2,1.3712515830993652,None,,,,,0,0,0,0,0,72,72,131,362.30244159698486,,,,,,,,,,,,,,,,,,,,,,,,,,,,,,,,,,,,,,,,,,,,,,,,,,,,,,,,,,,,,,,,,,,,,,,,,,,,,,,,,,149.52346719049933,59.71582571893521,165.70824704552524,159.16969111855798,167.91155786965862,58.48027388921134,2.1,2.11,-205,267,0,268,205,-279,362.2881917953491,362.2882716655731,362.29158997535706,362.30244159698486,362.44928884506226,362.44928884506226,362.44928884506226,362.44928884506226,362.44928884506226,362.44928884506226,362.44928884506226,363.6913664340973,2,1.3712515830993652,None,,,,,,,,,,,,,,,,,,59,2,2025-02-19_16h46.23.294,comp,2024.2.4,56.24200815275692,2025-02-19 16h46.41.965910 -0500,
73,73,0,filler_random,None,None,None,None,None,None,None,None,None,None,2,1.3648347854614258,None,,,,,0,0,0,0,0,73,73,139,363.7086453437805,,,,,,,,,,,,,,,,,,,,,,,,,,,,,,,,,,,,,,,,,,,,,,,,,,,,,,,,,,,,,,,,,,,,,,,,,,,,,,,,,,69.20777406294773,75.29929439547786,149.39376499356234,109.05353328362901,77.51299811999665,83.64278486965726,4.0,4.2,-188,18,0,-284,192,-1,363.6930170059204,363.6930921077728,363.69601225852966,363.7086453437805,363.8510899543762,363.8510899543762,363.8510899543762,363.8510899543762,363.8510899543762,363.8510899543762,363.8510899543762,365.0857584476471,2,1.3648347854614258,None,,,,,,,,,,,,,,,,,,59,2,2025-02-19_16h46.23.294,comp,2024.2.4,56.24200815275692,2025-02-19 16h46.41.965910 -0500,
74,74,0,critical,hwd,20.0,2.1,upper,200.0,125.0,125.0,200.0,141.0,141.0,3,1.7969081401824951,None,,,,,0,0,0,0,0,74,74,19,365.1011323928833,,,,,,,,,,,,,,,,,,,,,,,,,,,,,,,,,,,,,,,,,,,,,,,,,,,,,,,,,,,,,,,,,,,,,,,,,,,,,,,,,,200.0,125.0,125.0,200.0,141.0,141.0,2.1,2.11,-258,285,0,262,266,-280,365.0872576236725,365.08733463287354,365.09065556526184,365.1011323928833,365.2520213127136,365.2520213127136,365.2520213127136,365.2520213127136,365.2520213127136,365.2520213127136,365.2520213127136,366.9013204574585,3,1.7969081401824951,None,,,,,,,,,,,,,,,,,,59,2,2025-02-19_16h46.23.294,comp,2024.2.4,56.24200815275692,2025-02-19 16h46.41.965910 -0500,
75,75,0,critical,dwh,20.0,1.0,upper,141.0,141.0,125.0,200.0,200.0,125.0,2,3.890099048614502,None,,,,,0,0,0,0,0,75,75,67,366.91943526268005,,,,,,,,,,,,,,,,,,,,,,,,,,,,,,,,,,,,,,,,,,,,,,,,,,,,,,,,,,,,,,,,,,,,,,,,,,,,,,,,,,141.0,141.0,125.0,200.0,200.0,125.0,1.0,1.3,214,-285,480,-264,738,-277,366.90290808677673,366.90298414230347,366.90625047683716,366.91943526268005,367.0679438114166,367.0679438114166,367.0679438114166,367.0679438114166,367.0679438114166,367.0679438114166,367.0679438114166,370.82518005371094,2,3.890099048614502,None,,,,,,,,,,,,,,,,,,59,2,2025-02-19_16h46.23.294,comp,2024.2.4,56.24200815275692,2025-02-19 16h46.41.965910 -0500,
76,76,0,catch,None,None,None,None,None,None,None,None,None,None,1,1.7594869136810303,None,,,,,0,0,0,0,0,76,76,129,370.8426444530487,,,,,,,,,,,,,,,,,,,,,,,,,,,,,,,,,,,,,,,,,,,,,,,,,,,,,,,,,,,,,,,,,,,,,,,,,,,,,,,,,,127,198,70,120,125,65,2.1,2.11,-255,265,0,270,188,-261,370.8270673751831,370.82714319229126,370.82999205589294,370.8426444530487,370.98655366897583,370.98655366897583,370.98655366897583,370.98655366897583,370.98655366897583,370.98655366897583,370.98655366897583,372.6083745956421,1,1.7594869136810303,None,,,,,,,,,,,,,,,,,,59,2,2025-02-19_16h46.23.294,comp,2024.2.4,56.24200815275692,2025-02-19 16h46.41.965910 -0500,
77,77,0,filler_random,None,None,None,None,None,None,None,None,None,None,1,1.3820054531097412,None,,,,,0,0,0,0,0,77,77,147,372.628457069397,,,,,,,,,,,,,,,,,,,,,,,,,,,,,,,,,,,,,,,,,,,,,,,,,,,,,,,,,,,,,,,,,,,,,,,,,,,,,,,,,,171.28899684057814,140.1573252359247,73.44970128146419,163.61671206598234,81.9778797426192,117.29711755240407,2.1,2.11,-248,268,0,271,236,-265,372.61004757881165,372.6101243495941,372.6129915714264,372.628457069397,372.770756483078,372.770756483078,372.770756483078,372.770756483078,372.770756483078,372.770756483078,372.770756483078,374.02800822257996,1,1.3820054531097412,None,,,,,,,,,,,,,,,,,,59,2,2025-02-19_16h46.23.294,comp,2024.2.4,56.24200815275692,2025-02-19 16h46.41.965910 -0500,
78,78,0,critical,hwd,20.0,3.0,upper,200.0,125.0,125.0,200.0,141.0,141.0,2,3.2372453212738037,None,,,,,0,0,0,0,0,78,78,105,374.0450692176819,,,,,,,,,,,,,,,,,,,,,,,,,,,,,,,,,,,,,,,,,,,,,,,,,,,,,,,,,,,,,,,,,,,,,,,,,,,,,,,,,,200.0,125.0,125.0,200.0,141.0,141.0,3.0,3.1,-258,252,0,14,266,-277,374.0294899940491,374.02956461906433,374.0324547290802,374.0450692176819,374.18722915649414,374.18722915649414,374.18722915649414,374.18722915649414,374.18722915649414,374.18722915649414,374.18722915649414,377.2884204387665,2,3.2372453212738037,None,,,,,,,,,,,,,,,,,,59,2,2025-02-19_16h46.23.294,comp,2024.2.4,56.24200815275692,2025-02-19 16h46.41.965910 -0500,
79,79,0,critical,wdh,35.0,3.0,lower,57.0,133.0,70.0,70.0,133.0,57.0,1,4.24952507019043,None,,,,,0,0,0,0,0,79,79,74,377.30419182777405,,,,,,,,,,,,,,,,,,,,,,,,,,,,,,,,,,,,,,,,,,,,,,,,,,,,,,,,,,,,,,,,,,,,,,,,,,,,,,,,,,57.0,133.0,70.0,70.0,133.0,57.0,3.0,3.2,-198,-259,0,17,160,251,377.2899661064148,377.29004526138306,377.29342889785767,377.30419182777405,377.45433712005615,377.45433712005615,377.45433712005615,377.45433712005615,377.45433712005615,377.45433712005615,377.45433712005615,381.5596396923065,1,4.24952507019043,None,,,,,,,,,,,,,,,,,,59,2,2025-02-19_16h46.23.294,comp,2024.2.4,56.24200815275692,2025-02-19 16h46.41.965910 -0500,
80,80,0,critical,dwh,35.0,2.1,lower,70.0,70.0,57.0,133.0,133.0,57.0,2,2.4318954944610596,None,,,,,0,0,0,0,0,80,80,4,381.57843685150146,,,,,,,,,,,,,,,,,,,,,,,,,,,,,,,,,,,,,,,,,,,,,,,,,,,,,,,,,,,,,,,,,,,,,,,,,,,,,,,,,,70.0,70.0,57.0,133.0,133.0,57.0,2.1,2.12,-198,-282,0,-251,191,279,381.5613853931427,381.56146931648254,381.56484389305115,381.57843685150146,381.7236359119415,381.7236359119415,381.7236359119415,381.7236359119415,381.7236359119415,381.7236359119415,381.7236359119415,384.0132131576538,2,2.4318954944610596,None,,,,,,,,,,,,,,,,,,59,2,2025-02-19_16h46.23.294,comp,2024.2.4,56.24200815275692,2025-02-19 16h46.41.965910 -0500,
81,81,0,critical,dhw,35.0,2.1,upper,127.0,127.0,200.0,125.0,125.0,200.0,3,2.30202317237854,None,,,,,0,0,0,0,0,81,81,25,384.02928376197815,,,,,,,,,,,,,,,,,,,,,,,,,,,,,,,,,,,,,,,,,,,,,,,,,,,,,,,,,,,,,,,,,,,,,,,,,,,,,,,,,,127.0,127.0,200.0,125.0,125.0,200.0,2.1,2.11,-222,255,0,289,258,-283,384.01470613479614,384.0147843360901,384.0176136493683,384.02928376197815,384.1736068725586,384.1736068725586,384.1736068725586,384.1736068725586,384.1736068725586,384.1736068725586,384.1736068725586,386.3421778678894,3,2.30202317237854,None,,,,,,,,,,,,,,,,,,59,2,2025-02-19_16h46.23.294,comp,2024.2.4,56.24200815275692,2025-02-19 16h46.41.965910 -0500,
82,82,0,critical,dwh,20.0,4.0,lower,78.0,78.0,57.0,133.0,133.0,57.0,2,2.8836889266967773,None,,,,,0,0,0,0,0,82,82,70,386.35831475257874,,,,,,,,,,,,,,,,,,,,,,,,,,,,,,,,,,,,,,,,,,,,,,,,,,,,,,,,,,,,,,,,,,,,,,,,,,,,,,,,,,78.0,78.0,57.0,133.0,133.0,57.0,4.0,4.1,-202,-270,0,10,191,-280,386.3437764644623,386.34385108947754,386.3474214076996,386.35831475257874,386.50655579566956,386.50655579566956,386.50655579566956,386.50655579566956,386.50655579566956,386.50655579566956,386.50655579566956,389.2608120441437,2,2.8836889266967773,None,,,,,,,,,,,,,,,,,,59,2,2025-02-19_16h46.23.294,comp,2024.2.4,56.24200815275692,2025-02-19 16h46.41.965910 -0500,
83,83,0,filler_random,None,None,None,None,None,None,None,None,None,None,3,2.1390433311462402,None,,,,,0,0,0,0,0,83,83,156,389.2810478210449,,,,,,,,,,,,,,,,,,,,,,,,,,,,,,,,,,,,,,,,,,,,,,,,,,,,,,,,,,,,,,,,,,,,,,,,,,,,,,,,,,119.59147150091543,80.47732399775403,68.09508286213034,184.67206502584247,139.2510762670955,159.8706730145467,2.2,2.21,-229,-257,0,287,268,252,389.26255559921265,389.26270747184753,389.2657997608185,389.2810478210449,389.42802143096924,389.42802143096924,389.42802143096924,389.42802143096924,389.42802143096924,389.42802143096924,389.42802143096924,391.42529249191284,3,2.1390433311462402,None,,,,,,,,,,,,,,,,,,59,2,2025-02-19_16h46.23.294,comp,2024.2.4,56.24200815275692,2025-02-19 16h46.41.965910 -0500,
84,84,0,critical,dwh,35.0,1.0,upper,127.0,127.0,125.0,200.0,200.0,125.0,2,2.736724615097046,None,,,,,0,0,0,0,0,84,84,61,391.4412100315094,,,,,,,,,,,,,,,,,,,,,,,,,,,,,,,,,,,,,,,,,,,,,,,,,,,,,,,,,,,,,,,,,,,,,,,,,,,,,,,,,,127.0,127.0,125.0,200.0,200.0,125.0,1.0,1.3,220,-280,480,-274,738,-259,391.42680382728577,391.42687726020813,391.42992782592773,391.4412100315094,391.59524393081665,391.59524393081665,391.59524393081665,391.59524393081665,391.59524393081665,391.59524393081665,391.59524393081665,394.1798553466797,2,2.736724615097046,None,,,,,,,,,,,,,,,,,,59,2,2025-02-19_16h46.23.294,comp,2024.2.4,56.24200815275692,2025-02-19 16h46.41.965910 -0500,
85,85,0,filler_square,None,None,None,None,None,None,None,None,None,None,1,3.7552309036254883,None,,,,,0,0,0,0,0,85,85,183,394.19842648506165,,,,,,,,,,,,,,,,,,,,,,,,,,,,,,,,,,,,,,,,,,,,,,,,,,,,,,,,,,,,,,,,,,,,,,,,,,,,,,,,,,111.15138764693714,111.15138764693714,98.86650609430808,104.73790762277505,94.27830287442845,59.119122201833825,2.1,2.11,-204,253,0,268,178,-264,394.18155908584595,394.1816577911377,394.18523716926575,394.19842648506165,394.3434638977051,394.3434638977051,394.3434638977051,394.3434638977051,394.3434638977051,394.3434638977051,394.3434638977051,397.967129945755,1,3.7552309036254883,None,,,,,,,,,,,,,,,,,,59,2,2025-02-19_16h46.23.294,comp,2024.2.4,56.24200815275692,2025-02-19 16h46.41.965910 -0500,
86,86,0,critical,dwh,20.0,2.1,upper,141.0,141.0,125.0,200.0,200.0,125.0,2,4.712955713272095,None,,,,,0,0,0,0,0,86,86,7,397.98469638824463,,,,,,,,,,,,,,,,,,,,,,,,,,,,,,,,,,,,,,,,,,,,,,,,,,,,,,,,,,,,,,,,,,,,,,,,,,,,,,,,,,141.0,141.0,125.0,200.0,200.0,125.0,2.1,2.12,-266,-285,0,-270,258,276,397.9686965942383,397.9687774181366,397.9716248512268,397.98469638824463,398.12554144859314,398.12554144859314,398.12554144859314,398.12554144859314,398.12554144859314,398.12554144859314,398.12554144859314,402.7133321762085,2,4.712955713272095,None,,,,,,,,,,,,,,,,,,59,2,2025-02-19_16h46.23.294,comp,2024.2.4,56.24200815275692,2025-02-19 16h46.41.965910 -0500,
87,87,0,critical,whd,35.0,2.1,upper,125.0,200.0,200.0,125.0,127.0,127.0,2,4.2922422885894775,None,,,,,0,0,0,0,0,87,87,13,402.73393273353577,,,,,,,,,,,,,,,,,,,,,,,,,,,,,,,,,,,,,,,,,,,,,,,,,,,,,,,,,,,,,,,,,,,,,,,,,,,,,,,,,,125.0,200.0,200.0,125.0,127.0,127.0,2.1,2.12,-258,-285,0,-270,222,252,402.7149906158447,402.7151212692261,402.718462228775,402.73393273353577,402.8820872306824,402.8820872306824,402.8820872306824,402.8820872306824,402.8820872306824,402.8820872306824,402.8820872306824,407.0321774482727,2,4.2922422885894775,None,,,,,,,,,,,,,,,,,,59,2,2025-02-19_16h46.23.294,comp,2024.2.4,56.24200815275692,2025-02-19 16h46.41.965910 -0500,
88,88,0,critical,whd,20.0,3.0,lower,57.0,133.0,133.0,57.0,78.0,78.0,1,2.713684558868408,None,,,,,0,0,0,0,0,88,88,92,407.0482804775238,,,,,,,,,,,,,,,,,,,,,,,,,,,,,,,,,,,,,,,,,,,,,,,,,,,,,,,,,,,,,,,,,,,,,,,,,,,,,,,,,,57.0,133.0,133.0,57.0,78.0,78.0,3.0,3.1,-191,277,0,8,164,-257,407.0337727069855,407.03388237953186,407.0373275279999,407.0482804775238,407.2005202770233,407.2005202770233,407.2005202770233,407.2005202770233,407.2005202770233,407.2005202770233,407.2005202770233,409.76431131362915,1,2.713684558868408,None,,,,,,,,,,,,,,,,,,59,2,2025-02-19_16h46.23.294,comp,2024.2.4,56.24200815275692,2025-02-19 16h46.41.965910 -0500,
89,89,0,critical,whd,20.0,1.0,upper,125.0,200.0,200.0,125.0,141.0,141.0,1,4.067551612854004,None,,,,,0,0,0,0,0,89,89,91,409.7823042869568,,,,,,,,,,,,,,,,,,,,,,,,,,,,,,,,,,,,,,,,,,,,,,,,,,,,,,,,,,,,,,,,,,,,,,,,,,,,,,,,,,125.0,200.0,200.0,125.0,141.0,141.0,1.0,1.2,-258,15,0,14,229,-19,409.76584124565125,409.76594519615173,409.76898074150085,409.7823042869568,409.93428802490234,409.93428802490234,409.93428802490234,409.93428802490234,409.93428802490234,409.93428802490234,409.93428802490234,413.85576152801514,1,4.067551612854004,None,,,,,,,,,,,,,,,,,,59,2,2025-02-19_16h46.23.294,comp,2024.2.4,56.24200815275692,2025-02-19 16h46.41.965910 -0500,
90,90,0,critical,hwd,20.0,3.0,lower,133.0,57.0,57.0,133.0,78.0,78.0,2,2.730862855911255,None,,,,,0,0,0,0,0,90,90,104,413.8708152770996,,,,,,,,,,,,,,,,,,,,,,,,,,,,,,,,,,,,,,,,,,,,,,,,,,,,,,,,,,,,,,,,,,,,,,,,,,,,,,,,,,133.0,57.0,57.0,133.0,78.0,78.0,3.0,3.2,-191,-256,0,18,202,251,413.85722064971924,413.85729932785034,413.86015605926514,413.8708152770996,414.0174949169159,414.0174949169159,414.0174949169159,414.0174949169159,414.0174949169159,414.0174949169159,414.0174949169159,416.6158583164215,2,2.730862855911255,None,,,,,,,,,,,,,,,,,,59,2,2025-02-19_16h46.23.294,comp,2024.2.4,56.24200815275692,2025-02-19 16h46.41.965910 -0500,
91,91,0,filler_random,None,None,None,None,None,None,None,None,None,None,2,1.3141469955444336,None,,,,,0,0,0,0,0,91,91,158,416.63221883773804,,,,,,,,,,,,,,,,,,,,,,,,,,,,,,,,,,,,,,,,,,,,,,,,,,,,,,,,,,,,,,,,,,,,,,,,,,,,,,,,,,61.926142897287846,168.73468702143367,126.72084322603057,194.59965125796361,139.81779583317837,143.90999448327426,4.0,4.1,-278,-255,0,16,265,-272,416.6176061630249,416.61774253845215,416.62100291252136,416.63221883773804,416.7843301296234,416.7843301296234,416.7843301296234,416.7843301296234,416.7843301296234,416.7843301296234,416.7843301296234,417.95123410224915,2,1.3141469955444336,None,,,,,,,,,,,,,,,,,,59,2,2025-02-19_16h46.23.294,comp,2024.2.4,56.24200815275692,2025-02-19 16h46.41.965910 -0500,
92,92,0,filler_random,None,None,None,None,None,None,None,None,None,None,2,1.3245577812194824,None,,,,,0,0,0,0,0,92,92,148,417.9669897556305,,,,,,,,,,,,,,,,,,,,,,,,,,,,,,,,,,,,,,,,,,,,,,,,,,,,,,,,,,,,,,,,,,,,,,,,,,,,,,,,,,99.62810792441404,85.78709846401955,158.51843782997565,179.5105480406399,102.19004683429955,116.45944640146615,4.0,4.2,-229,-19,0,-274,244,-19,417.9529085159302,417.9529848098755,417.9563744068146,417.9669897556305,418.11638259887695,418.11638259887695,418.11638259887695,418.11638259887695,418.11638259887695,418.11638259887695,418.11638259887695,419.3020031452179,2,1.3245577812194824,None,,,,,,,,,,,,,,,,,,59,2,2025-02-19_16h46.23.294,comp,2024.2.4,56.24200815275692,2025-02-19 16h46.41.965910 -0500,
93,93,0,catch,None,None,None,None,None,None,None,None,None,None,3,1.3474764823913574,None,,,,,0,0,0,0,0,93,93,128,419.3183147907257,,,,,,,,,,,,,,,,,,,,,,,,,,,,,,,,,,,,,,,,,,,,,,,,,,,,,,,,,,,,,,,,,,,,,,,,,,,,,,,,,,125,65,94,96,135,190,1.0,1.3,304,-278,480,-251,719,-254,419.3040590286255,419.3041386604309,419.3075234889984,419.3183147907257,419.46670484542847,419.46670484542847,419.46670484542847,419.46670484542847,419.46670484542847,419.46670484542847,419.46670484542847,420.66984128952026,3,1.3474764823913574,None,,,,,,,,,,,,,,,,,,59,2,2025-02-19_16h46.23.294,comp,2024.2.4,56.24200815275692,2025-02-19 16h46.41.965910 -0500,
94,94,0,filler_random,None,None,None,None,None,None,None,None,None,None,3,1.0559916496276855,None,,,,,0,0,0,0,0,94,94,169,420.6903178691864,,,,,,,,,,,,,,,,,,,,,,,,,,,,,,,,,,,,,,,,,,,,,,,,,,,,,,,,,,,,,,,,,,,,,,,,,,,,,,,,,,73.44256796546328,113.56237530453704,90.20395644373977,154.1899734344861,180.15186413757806,164.099530797954,2.1,2.12,-230,-255,0,-257,255,282,420.67146396636963,420.6715407371521,420.67454528808594,420.6903178691864,420.83451986312866,420.83451986312866,420.83451986312866,420.83451986312866,420.83451986312866,420.83451986312866,420.83451986312866,421.7524859905243,3,1.0559916496276855,None,,,,,,,,,,,,,,,,,,59,2,2025-02-19_16h46.23.294,comp,2024.2.4,56.24200815275692,2025-02-19 16h46.41.965910 -0500,
95,95,0,critical,wdh,35.0,4.0,upper,125.0,200.0,127.0,127.0,200.0,125.0,1,2.664350748062134,None,,,,,0,0,0,0,0,95,95,77,421.76932883262634,,,,,,,,,,,,,,,,,,,,,,,,,,,,,,,,,,,,,,,,,,,,,,,,,,,,,,,,,,,,,,,,,,,,,,,,,,,,,,,,,,125.0,200.0,127.0,127.0,200.0,125.0,4.0,4.1,-260,-259,0,4,222,-281,421.7541389465332,421.75426626205444,421.7577438354492,421.76932883262634,421.91957330703735,421.91957330703735,421.91957330703735,421.91957330703735,421.91957330703735,421.91957330703735,421.91957330703735,424.447438955307,1,2.664350748062134,None,,,,,,,,,,,,,,,,,,59,2,2025-02-19_16h46.23.294,comp,2024.2.4,56.24200815275692,2025-02-19 16h46.41.965910 -0500,
96,96,0,filler_square,None,None,None,None,None,None,None,None,None,None,1,0.89481520652771,None,,,,,0,0,0,0,0,96,96,198,424.4668824672699,,,,,,,,,,,,,,,,,,,,,,,,,,,,,,,,,,,,,,,,,,,,,,,,,,,,,,,,,,,,,,,,,,,,,,,,,,,,,,,,,,159.70111115341285,159.70111115341285,88.02954226683107,118.44043520270523,129.6715288659001,88.45081352556734,3.0,3.1,-235,281,0,-2,199,-261,424.44921875,424.44929599761963,424.4521760940552,424.4668824672699,424.6033670902252,424.6033670902252,424.6033670902252,424.6033670902252,424.6033670902252,424.6033670902252,424.6033670902252,425.3714907169342,1,0.89481520652771,None,,,,,,,,,,,,,,,,,,59,2,2025-02-19_16h46.23.294,comp,2024.2.4,56.24200815275692,2025-02-19 16h46.41.965910 -0500,
97,97,0,critical,hdw,20.0,1.0,lower,133.0,57.0,78.0,78.0,57.0,133.0,3,3.653696060180664,None,,,,,0,0,0,0,0,97,97,114,425.3881015777588,,,,,,,,,,,,,,,,,,,,,,,,,,,,,,,,,,,,,,,,,,,,,,,,,,,,,,,,,,,,,,,,,,,,,,,,,,,,,,,,,,133.0,57.0,78.0,78.0,57.0,133.0,1.0,1.1,-644,270,-480,275,-278,282,425.3731756210327,425.3733024597168,425.37733340263367,425.3881015777588,425.5295662879944,425.5295662879944,425.5295662879944,425.5295662879944,425.5295662879944,425.5295662879944,425.5295662879944,429.0605809688568,3,3.653696060180664,None,,,,,,,,,,,,,,,,,,59,2,2025-02-19_16h46.23.294,comp,2024.2.4,56.24200815275692,2025-02-19 16h46.41.965910 -0500,
98,98,0,filler_random,None,None,None,None,None,None,None,None,None,None,1,1.4526019096374512,None,,,,,0,0,0,0,0,98,98,143,429.0776629447937,,,,,,,,,,,,,,,,,,,,,,,,,,,,,,,,,,,,,,,,,,,,,,,,,,,,,,,,,,,,,,,,,,,,,,,,,,,,,,,,,,135.89679004228464,138.16320704875102,58.52300566739411,187.3501400823464,89.94046536514938,76.77841931323442,2.1,2.11,-259,274,0,285,228,-258,429.0621557235718,429.06223249435425,429.06508708000183,429.0776629447937,429.2213146686554,429.2213146686554,429.2213146686554,429.2213146686554,429.2213146686554,429.2213146686554,429.2213146686554,430.538765668869,1,1.4526019096374512,None,,,,,,,,,,,,,,,,,,59,2,2025-02-19_16h46.23.294,comp,2024.2.4,56.24200815275692,2025-02-19 16h46.41.965910 -0500,
99,99,0,filler_random,None,None,None,None,None,None,None,None,None,None,2,2.4078826904296875,None,,,,,0,0,0,0,0,99,99,160,430.5545470714569,,,,,,,,,,,,,,,,,,,,,,,,,,,,,,,,,,,,,,,,,,,,,,,,,,,,,,,,,,,,,,,,,,,,,,,,,,,,,,,,,,80.89819962415613,116.29611487769543,156.14233937302134,77.46266180226431,73.05068037032936,101.88861522583457,4.0,4.1,-193,-265,0,-9,186,-287,430.5404851436615,430.54056453704834,430.54397916793823,430.5545470714569,430.7045569419861,430.7045569419861,430.7045569419861,430.7045569419861,430.7045569419861,430.7045569419861,430.7045569419861,432.9734706878662,2,2.4078826904296875,None,,,,,,,,,,,,,,,,,,59,2,2025-02-19_16h46.23.294,comp,2024.2.4,56.24200815275692,2025-02-19 16h46.41.965910 -0500,
100,100,0,filler_square,None,None,None,None,None,None,None,None,None,None,1,1.2059745788574219,None,,,,,0,0,0,0,0,100,100,201,432.98971366882324,,,,,,,,,,,,,,,,,,,,,,,,,,,,,,,,,,,,,,,,,,,,,,,,,,,,,,,,,,,,,,,,,,,,,,,,,,,,,,,,,,103.68950669702892,103.68950669702892,62.88535148569302,63.99877512757526,65.29186617166094,73.33978715018105,3.0,3.2,-180,-270,0,17,165,281,432.9752826690674,432.9754168987274,432.9789056777954,432.98971366882324,433.14295291900635,433.14295291900635,433.14295291900635,433.14295291900635,433.14295291900635,433.14295291900635,433.14295291900635,434.2068178653717,1,1.2059745788574219,None,,,,,,,,,,,,,,,,,,59,2,2025-02-19_16h46.23.294,comp,2024.2.4,56.24200815275692,2025-02-19 16h46.41.965910 -0500,
101,101,0,critical,hwd,35.0,1.0,lower,133.0,57.0,57.0,133.0,70.0,70.0,2,2.2916836738586426,None,,,,,0,0,0,0,0,101,101,96,434.2230398654938,,,,,,,,,,,,,,,,,,,,,,,,,,,,,,,,,,,,,,,,,,,,,,,,,,,,,,,,,,,,,,,,,,,,,,,,,,,,,,,,,,133.0,57.0,57.0,133.0,70.0,70.0,1.0,1.3,289,-252,480,-267,678,-252,434.20846915245056,434.2085671424866,434.21208143234253,434.2230398654938,434.3795108795166,434.3795108795166,434.3795108795166,434.3795108795166,434.3795108795166,434.3795108795166,434.3795108795166,436.52593421936035,2,2.2916836738586426,None,,,,,,,,,,,,,,,,,,59,2,2025-02-19_16h46.23.294,comp,2024.2.4,56.24200815275692,2025-02-19 16h46.41.965910 -0500,
102,102,0,critical,wdh,20.0,3.0,upper,125.0,200.0,141.0,141.0,200.0,125.0,3,1.8516991138458252,None,,,,,0,0,0,0,0,102,102,81,436.5421905517578,,,,,,,,,,,,,,,,,,,,,,,,,,,,,,,,,,,,,,,,,,,,,,,,,,,,,,,,,,,,,,,,,,,,,,,,,,,,,,,,,,125.0,200.0,141.0,141.0,200.0,125.0,3.0,3.2,-266,-271,0,-15,229,275,436.5275092124939,436.52758955955505,436.5306439399719,436.5421905517578,436.69540095329285,436.69540095329285,436.69540095329285,436.69540095329285,436.69540095329285,436.69540095329285,436.69540095329285,438.4077887535095,3,1.8516991138458252,None,,,,,,,,,,,,,,,,,,59,2,2025-02-19_16h46.23.294,comp,2024.2.4,56.24200815275692,2025-02-19 16h46.41.965910 -0500,
103,103,0,filler_square,None,None,None,None,None,None,None,None,None,None,3,1.331761121749878,None,,,,,0,0,0,0,0,103,103,199,438.4220550060272,,,,,,,,,,,,,,,,,,,,,,,,,,,,,,,,,,,,,,,,,,,,,,,,,,,,,,,,,,,,,,,,,,,,,,,,,,,,,,,,,,72.07231029477947,77.36232439210309,85.28532417846385,65.63193003526229,87.04697206095175,87.04697206095175,3.0,3.2,-167,-258,0,10,172,271,438.40959572792053,438.4096975326538,438.41295886039734,438.4220550060272,438.5621075630188,438.5621075630188,438.5621075630188,438.5621075630188,438.5621075630188,438.5621075630188,438.5621075630188,439.75822710990906,3,1.331761121749878,None,,,,,,,,,,,,,,,,,,59,2,2025-02-19_16h46.23.294,comp,2024.2.4,56.24200815275692,2025-02-19 16h46.41.965910 -0500,
104,104,0,critical,dhw,35.0,1.0,lower,70.0,70.0,133.0,57.0,57.0,133.0,3,3.829646110534668,None,,,,,0,0,0,0,0,104,104,48,439.77294158935547,,,,,,,,,,,,,,,,,,,,,,,,,,,,,,,,,,,,,,,,,,,,,,,,,,,,,,,,,,,,,,,,,,,,,,,,,,,,,,,,,,70.0,70.0,133.0,57.0,57.0,133.0,1.0,1.2,-160,-20,0,2,191,-6,439.75979018211365,439.759872674942,439.7631938457489,439.77294158935547,439.9243245124817,439.9243245124817,439.9243245124817,439.9243245124817,439.9243245124817,439.9243245124817,439.9243245124817,443.60972905158997,3,3.829646110534668,None,,,,,,,,,,,,,,,,,,59,2,2025-02-19_16h46.23.294,comp,2024.2.4,56.24200815275692,2025-02-19 16h46.41.965910 -0500,
105,105,0,critical,dhw,20.0,2.1,upper,141.0,141.0,200.0,125.0,125.0,200.0,2,1.533994436264038,None,,,,,0,0,0,0,0,105,105,27,443.62776279449463,,,,,,,,,,,,,,,,,,,,,,,,,,,,,,,,,,,,,,,,,,,,,,,,,,,,,,,,,,,,,,,,,,,,,,,,,,,,,,,,,,141.0,141.0,200.0,125.0,125.0,200.0,2.1,2.12,-229,-285,0,-266,258,251,443.6111946105957,443.6112732887268,443.61447501182556,443.62776279449463,443.78026151657104,443.78026151657104,443.78026151657104,443.78026151657104,443.78026151657104,443.78026151657104,443.78026151657104,445.1766927242279,2,1.533994436264038,None,,,,,,,,,,,,,,,,,,59,2,2025-02-19_16h46.23.294,comp,2024.2.4,56.24200815275692,2025-02-19 16h46.41.965910 -0500,
106,106,0,critical,hdw,35.0,3.0,lower,133.0,57.0,70.0,70.0,57.0,133.0,3,1.9299886226654053,None,,,,,0,0,0,0,0,106,106,110,445.192031621933,,,,,,,,,,,,,,,,,,,,,,,,,,,,,,,,,,,,,,,,,,,,,,,,,,,,,,,,,,,,,,,,,,,,,,,,,,,,,,,,,,133.0,57.0,70.0,70.0,57.0,133.0,3.0,3.1,-160,285,0,11,198,-283,445.1782693862915,445.1783492565155,445.18171787261963,445.192031621933,445.3467996120453,445.3467996120453,445.3467996120453,445.3467996120453,445.3467996120453,445.3467996120453,445.3467996120453,447.1261074542999,3,1.9299886226654053,None,,,,,,,,,,,,,,,,,,59,2,2025-02-19_16h46.23.294,comp,2024.2.4,56.24200815275692,2025-02-19 16h46.41.965910 -0500,
107,107,0,critical,wdh,20.0,2.1,lower,57.0,133.0,78.0,78.0,133.0,57.0,3,3.5196375846862793,None,,,,,0,0,0,0,0,107,107,34,447.146151304245,,,,,,,,,,,,,,,,,,,,,,,,,,,,,,,,,,,,,,,,,,,,,,,,,,,,,,,,,,,,,,,,,,,,,,,,,,,,,,,,,,57.0,133.0,78.0,78.0,133.0,57.0,2.1,2.11,-202,268,0,286,164,-251,447.12764382362366,447.12775325775146,447.13107919692993,447.146151304245,447.2937934398651,447.2937934398651,447.2937934398651,447.2937934398651,447.2937934398651,447.2937934398651,447.2937934398651,450.67859983444214,3,3.5196375846862793,None,,,,,,,,,,,,,,,,,,59,2,2025-02-19_16h46.23.294,comp,2024.2.4,56.24200815275692,2025-02-19 16h46.41.965910 -0500,
108,108,0,filler_random,None,None,None,None,None,None,None,None,None,None,3,2.928626775741577,None,,,,,0,0,0,0,0,108,108,152,450.69779109954834,,,,,,,,,,,,,,,,,,,,,,,,,,,,,,,,,,,,,,,,,,,,,,,,,,,,,,,,,,,,,,,,,,,,,,,,,,,,,,,,,,158.77571262093156,75.13024760206508,136.66017645753234,107.6500374656105,148.46870629876764,163.02970034652697,2.2,2.21,-187,-257,0,271,231,283,450.6804141998291,450.68054032325745,450.683970451355,450.69779109954834,450.84602451324463,450.84602451324463,450.84602451324463,450.84602451324463,450.84602451324463,450.84602451324463,450.84602451324463,453.63147044181824,3,2.928626775741577,None,,,,,,,,,,,,,,,,,,59,2,2025-02-19_16h46.23.294,comp,2024.2.4,56.24200815275692,2025-02-19 16h46.41.965910 -0500,
109,109,0,critical,dwh,35.0,4.0,upper,127.0,127.0,125.0,200.0,200.0,125.0,2,2.57181978225708,None,,,,,0,0,0,0,0,109,109,65,453.64734864234924,,,,,,,,,,,,,,,,,,,,,,,,,,,,,,,,,,,,,,,,,,,,,,,,,,,,,,,,,,,,,,,,,,,,,,,,,,,,,,,,,,127.0,127.0,125.0,200.0,200.0,125.0,4.0,4.2,-260,20,0,-275,258,19,453.6332993507385,453.6333839893341,453.63659024238586,453.64734864234924,453.79593658447266,453.79593658447266,453.79593658447266,453.79593658447266,453.79593658447266,453.79593658447266,453.79593658447266,456.23108291625977,2,2.57181978225708,None,,,,,,,,,,,,,,,,,,59,2,2025-02-19_16h46.23.294,comp,2024.2.4,56.24200815275692,2025-02-19 16h46.41.965910 -0500,
110,110,0,filler_square,None,None,None,None,None,None,None,None,None,None,1,1.7397339344024658,None,,,,,0,0,0,0,0,110,110,206,456.24706292152405,,,,,,,,,,,,,,,,,,,,,,,,,,,,,,,,,,,,,,,,,,,,,,,,,,,,,,,,,,,,,,,,,,,,,,,,,,,,,,,,,,109.47549020990334,109.47549020990334,105.20264281140805,60.49433253479392,70.15679071757265,78.56723973519429,1.0,1.3,299,-280,480,-259,646,-268,456.233069896698,456.2331495285034,456.23636746406555,456.24706292152405,456.3942413330078,456.3942413330078,456.3942413330078,456.3942413330078,456.3942413330078,456.3942413330078,456.3942413330078,458.00184059143066,1,1.7397339344024658,None,,,,,,,,,,,,,,,,,,59,2,2025-02-19_16h46.23.294,comp,2024.2.4,56.24200815275692,2025-02-19 16h46.41.965910 -0500,
111,111,0,filler_random,None,None,None,None,None,None,None,None,None,None,3,1.494546890258789,None,,,,,0,0,0,0,0,111,111,145,458.0196011066437,,,,,,,,,,,,,,,,,,,,,,,,,,,,,,,,,,,,,,,,,,,,,,,,,,,,,,,,,,,,,,,,,,,,,,,,,,,,,,,,,,96.9428922634539,124.19523539975724,148.49668453789008,87.16753037138642,127.72732397591726,162.3521635810173,4.0,4.1,-202,-257,0,3,221,-260,458.00407338142395,458.0041546821594,458.00753569602966,458.0196011066437,458.1692454814911,458.1692454814911,458.1692454814911,458.1692454814911,458.1692454814911,458.1692454814911,458.1692454814911,459.53136229515076,3,1.494546890258789,None,,,,,,,,,,,,,,,,,,59,2,2025-02-19_16h46.23.294,comp,2024.2.4,56.24200815275692,2025-02-19 16h46.41.965910 -0500,
112,112,0,catch,None,None,None,None,None,None,None,None,None,None,1,1.622708797454834,None,,,,,0,0,0,0,0,112,112,123,459.5479245185852,,,,,,,,,,,,,,,,,,,,,,,,,,,,,,,,,,,,,,,,,,,,,,,,,,,,,,,,,,,,,,,,,,,,,,,,,,,,,,,,,,135,190,105,85,102,88,4.0,4.1,-234,-287,0,-1,182,-284,459.53326964378357,459.53335070610046,459.53757524490356,459.5479245185852,459.694739818573,459.694739818573,459.694739818573,459.694739818573,459.694739818573,459.694739818573,459.694739818573,461.1782076358795,1,1.622708797454834,None,,,,,,,,,,,,,,,,,,59,2,2025-02-19_16h46.23.294,comp,2024.2.4,56.24200815275692,2025-02-19 16h46.41.965910 -0500,
113,113,0,critical,wdh,20.0,1.0,upper,125.0,200.0,141.0,141.0,200.0,125.0,1,2.919011354446411,None,,,,,0,0,0,0,0,113,113,79,461.19501543045044,,,,,,,,,,,,,,,,,,,,,,,,,,,,,,,,,,,,,,,,,,,,,,,,,,,,,,,,,,,,,,,,,,,,,,,,,,,,,,,,,,125.0,200.0,141.0,141.0,200.0,125.0,1.0,1.1,-746,290,-480,256,-251,265,461.1797547340393,461.17983293533325,461.1826992034912,461.19501543045044,461.3366460800171,461.3366460800171,461.3366460800171,461.3366460800171,461.3366460800171,461.3366460800171,461.3366460800171,464.11813139915466,1,2.919011354446411,None,,,,,,,,,,,,,,,,,,59,2,2025-02-19_16h46.23.294,comp,2024.2.4,56.24200815275692,2025-02-19 16h46.41.965910 -0500,
114,114,0,critical,wdh,20.0,3.0,lower,57.0,133.0,78.0,78.0,133.0,57.0,1,2.6552212238311768,None,,,,,0,0,0,0,0,114,114,80,464.13889265060425,,,,,,,,,,,,,,,,,,,,,,,,,,,,,,,,,,,,,,,,,,,,,,,,,,,,,,,,,,,,,,,,,,,,,,,,,,,,,,,,,,57.0,133.0,78.0,78.0,133.0,57.0,3.0,3.2,-202,-272,0,10,164,258,464.11983704566956,464.11994218826294,464.12325406074524,464.13889265060425,464.28275537490845,464.28275537490845,464.28275537490845,464.28275537490845,464.28275537490845,464.28275537490845,464.28275537490845,466.8025379180908,1,2.6552212238311768,None,,,,,,,,,,,,,,,,,,59,2,2025-02-19_16h46.23.294,comp,2024.2.4,56.24200815275692,2025-02-19 16h46.41.965910 -0500,
115,115,0,critical,dhw,20.0,1.0,lower,78.0,78.0,133.0,57.0,57.0,133.0,3,4.892746210098267,None,,,,,0,0,0,0,0,115,115,54,466.8216509819031,,,,,,,,,,,,,,,,,,,,,,,,,,,,,,,,,,,,,,,,,,,,,,,,,,,,,,,,,,,,,,,,,,,,,,,,,,,,,,,,,,78.0,78.0,133.0,57.0,57.0,133.0,1.0,1.1,-644,265,-480,254,-289,280,466.80429124832153,466.80442690849304,466.8078966140747,466.8216509819031,466.96717524528503,466.96717524528503,466.96717524528503,466.96717524528503,466.96717524528503,466.96717524528503,466.96717524528503,471.73344230651855,3,4.892746210098267,None,,,,,,,,,,,,,,,,,,59,2,2025-02-19_16h46.23.294,comp,2024.2.4,56.24200815275692,2025-02-19 16h46.41.965910 -0500,
116,116,0,filler_random,None,None,None,None,None,None,None,None,None,None,2,1.1968064308166504,None,,,,,0,0,0,0,0,116,116,159,471.7496418952942,,,,,,,,,,,,,,,,,,,,,,,,,,,,,,,,,,,,,,,,,,,,,,,,,,,,,,,,,,,,,,,,,,,,,,,,,,,,,,,,,,67.1980147772938,106.60928153700198,184.07247242922432,107.72620310404596,95.41377729292248,66.23831188847046,3.0,3.1,-203,261,0,12,183,-253,471.735111951828,471.7351884841919,471.73837399482727,471.7496418952942,471.9034607410431,471.9034607410431,471.9034607410431,471.9034607410431,471.9034607410431,471.9034607410431,471.9034607410431,472.95185375213623,2,1.1968064308166504,None,,,,,,,,,,,,,,,,,,59,2,2025-02-19_16h46.23.294,comp,2024.2.4,56.24200815275692,2025-02-19 16h46.41.965910 -0500,
117,117,0,filler_random,None,None,None,None,None,None,None,None,None,None,1,1.3943555355072021,None,,,,,0,0,0,0,0,117,117,155,472.96776819229126,,,,,,,,,,,,,,,,,,,,,,,,,,,,,,,,,,,,,,,,,,,,,,,,,,,,,,,,,,,,,,,,,,,,,,,,,,,,,,,,,,167.26663712474902,129.807137808635,171.6941319572163,102.53914920387425,70.53244579866751,150.4166091329452,4.0,4.1,-212,-289,0,19,222,-252,472.9535548686981,472.95363116264343,472.9570186138153,472.96776819229126,473.11693263053894,473.11693263053894,473.11693263053894,473.11693263053894,473.11693263053894,473.11693263053894,473.11693263053894,474.36538529396057,1,1.3943555355072021,None,,,,,,,,,,,,,,,,,,59,2,2025-02-19_16h46.23.294,comp,2024.2.4,56.24200815275692,2025-02-19 16h46.41.965910 -0500,
118,118,0,critical,dwh,35.0,2.1,upper,127.0,127.0,125.0,200.0,200.0,125.0,3,1.1637954711914062,None,,,,,0,0,0,0,0,118,118,5,474.3820970058441,,,,,,,,,,,,,,,,,,,,,,,,,,,,,,,,,,,,,,,,,,,,,,,,,,,,,,,,,,,,,,,,,,,,,,,,,,,,,,,,,,127.0,127.0,125.0,200.0,200.0,125.0,2.1,2.11,-260,280,0,257,258,-276,474.36584210395813,474.3658609390259,474.3666613101959,474.3820970058441,474.5193364620209,474.5193364620209,474.5193364620209,474.5193364620209,474.5193364620209,474.5193364620209,474.5193364620209,475.5563290119171,3,1.1637954711914062,None,,,,,,,,,,,,,,,,,,59,2,2025-02-19_16h46.23.294,comp,2024.2.4,56.24200815275692,2025-02-19 16h46.41.965910 -0500,
119,119,0,critical,whd,35.0,4.0,lower,57.0,133.0,133.0,57.0,70.0,70.0,1,3.774160623550415,None,,,,,0,0,0,0,0,119,119,88,475.5720365047455,,,,,,,,,,,,,,,,,,,,,,,,,,,,,,,,,,,,,,,,,,,,,,,,,,,,,,,,,,,,,,,,,,,,,,,,,,,,,,,,,,57.0,133.0,133.0,57.0,70.0,70.0,4.0,4.2,-191,5,0,-277,160,-9,475.5579845905304,475.55806279182434,475.56136083602905,475.5720365047455,475.7198188304901,475.7198188304901,475.7198188304901,475.7198188304901,475.7198188304901,475.7198188304901,475.7198188304901,479.35317969322205,1,3.774160623550415,None,,,,,,,,,,,,,,,,,,59,2,2025-02-19_16h46.23.294,comp,2024.2.4,56.24200815275692,2025-02-19 16h46.41.965910 -0500,
120,120,0,critical,hwd,20.0,4.0,lower,133.0,57.0,57.0,133.0,78.0,78.0,1,3.308701276779175,None,,,,,0,0,0,0,0,120,120,106,479.3742461204529,,,,,,,,,,,,,,,,,,,,,,,,,,,,,,,,,,,,,,,,,,,,,,,,,,,,,,,,,,,,,,,,,,,,,,,,,,,,,,,,,,133.0,57.0,57.0,133.0,78.0,78.0,4.0,4.1,-191,-284,0,-7,202,-258,479.35484766960144,479.35492420196533,479.3584530353546,479.3742461204529,479.5204408168793,479.5204408168793,479.5204408168793,479.5204408168793,479.5204408168793,479.5204408168793,479.5204408168793,482.68783378601074,1,3.308701276779175,None,,,,,,,,,,,,,,,,,,59,2,2025-02-19_16h46.23.294,comp,2024.2.4,56.24200815275692,2025-02-19 16h46.41.965910 -0500,
121,121,0,filler_square,None,None,None,None,None,None,None,None,None,None,3,1.3972723484039307,None,,,,,0,0,0,0,0,121,121,175,482.7089669704437,,,,,,,,,,,,,,,,,,,,,,,,,,,,,,,,,,,,,,,,,,,,,,,,,,,,,,,,,,,,,,,,,,,,,,,,,,,,,,,,,,89.53867227028951,81.21888286034397,102.54990203667359,102.54990203667359,76.62745341524472,99.77507461291967,3.0,3.1,-188,254,0,-4,197,-269,482.6897668838501,482.6898458003998,482.69313192367554,482.7089669704437,482.8560998439789,482.8560998439789,482.8560998439789,482.8560998439789,482.8560998439789,482.8560998439789,482.8560998439789,484.10853815078735,3,1.3972723484039307,None,,,,,,,,,,,,,,,,,,59,2,2025-02-19_16h46.23.294,comp,2024.2.4,56.24200815275692,2025-02-19 16h46.41.965910 -0500,
122,122,0,critical,dwh,35.0,4.0,lower,70.0,70.0,57.0,133.0,133.0,57.0,2,2.34926176071167,None,,,,,0,0,0,0,0,122,122,64,484.1246359348297,,,,,,,,,,,,,,,,,,,,,,,,,,,,,,,,,,,,,,,,,,,,,,,,,,,,,,,,,,,,,,,,,,,,,,,,,,,,,,,,,,70.0,70.0,57.0,133.0,133.0,57.0,4.0,4.2,-198,12,0,-280,191,-18,484.11008977890015,484.1101689338684,484.11330342292786,484.1246359348297,484.27598667144775,484.27598667144775,484.27598667144775,484.27598667144775,484.27598667144775,484.27598667144775,484.27598667144775,486.489248752594,2,2.34926176071167,None,,,,,,,,,,,,,,,,,,59,2,2025-02-19_16h46.23.294,comp,2024.2.4,56.24200815275692,2025-02-19 16h46.41.965910 -0500,
123,123,0,catch,None,None,None,None,None,None,None,None,None,None,3,1.6880452632904053,None,,,,,0,0,0,0,0,123,123,120,486.50574684143066,,,,,,,,,,,,,,,,,,,,,,,,,,,,,,,,,,,,,,,,,,,,,,,,,,,,,,,,,,,,,,,,,,,,,,,,,,,,,,,,,,88,102,69,121,174,151,2.1,2.11,-208,251,0,285,232,-289,486.4913980960846,486.49147748947144,486.4953670501709,486.50574684143066,486.65741443634033,486.65741443634033,486.65741443634033,486.65741443634033,486.65741443634033,486.65741443634033,486.65741443634033,488.20390367507935,3,1.6880452632904053,None,,,,,,,,,,,,,,,,,,59,2,2025-02-19_16h46.23.294,comp,2024.2.4,56.24200815275692,2025-02-19 16h46.41.965910 -0500,
124,124,0,critical,whd,35.0,1.0,lower,57.0,133.0,133.0,57.0,70.0,70.0,1,3.5335190296173096,None,,,,,0,0,0,0,0,124,124,84,488.2207946777344,,,,,,,,,,,,,,,,,,,,,,,,,,,,,,,,,,,,,,,,,,,,,,,,,,,,,,,,,,,,,,,,,,,,,,,,,,,,,,,,,,57.0,133.0,133.0,57.0,70.0,70.0,1.0,1.2,-191,-4,0,12,160,10,488.2053871154785,488.2054617404938,488.2083487510681,488.2207946777344,488.35912919044495,488.35912919044495,488.35912919044495,488.35912919044495,488.35912919044495,488.35912919044495,488.35912919044495,491.7722547054291,1,3.5335190296173096,None,,,,,,,,,,,,,,,,,,59,2,2025-02-19_16h46.23.294,comp,2024.2.4,56.24200815275692,2025-02-19 16h46.41.965910 -0500,
125,125,0,critical,dhw,20.0,4.0,lower,78.0,78.0,133.0,57.0,57.0,133.0,3,7.963571071624756,None,,,,,0,0,0,0,0,125,125,58,491.79088044166565,,,,,,,,,,,,,,,,,,,,,,,,,,,,,,,,,,,,,,,,,,,,,,,,,,,,,,,,,,,,,,,,,,,,,,,,,,,,,,,,,,78.0,78.0,133.0,57.0,57.0,133.0,4.0,4.2,-164,-9,0,-266,191,-16,491.7738301753998,491.7739052772522,491.7768268585205,491.79088044166565,491.9428434371948,491.9428434371948,491.9428434371948,491.9428434371948,491.9428434371948,491.9428434371948,491.9428434371948,499.77029037475586,3,7.963571071624756,None,,,,,,,,,,,,,,,,,,59,2,2025-02-19_16h46.23.294,comp,2024.2.4,56.24200815275692,2025-02-19 16h46.41.965910 -0500,
126,126,0,filler_square,None,None,None,None,None,None,None,None,None,None,2,1.035928726196289,None,,,,,0,0,0,0,0,126,126,185,499.7902936935425,,,,,,,,,,,,,,,,,,,,,,,,,,,,,,,,,,,,,,,,,,,,,,,,,,,,,,,,,,,,,,,,,,,,,,,,,,,,,,,,,,78.66215331648317,85.38048902587923,139.46437532594138,139.46437532594138,84.22782613214257,108.36662672384071,2.1,2.11,-208,267,0,277,220,-277,499.7723181247711,499.7723937034607,499.7755205631256,499.7902936935425,499.92384696006775,499.92384696006775,499.92384696006775,499.92384696006775,499.92384696006775,499.92384696006775,499.92384696006775,500.8440783023834,2,1.035928726196289,None,,,,,,,,,,,,,,,,,,59,2,2025-02-19_16h46.23.294,comp,2024.2.4,56.24200815275692,2025-02-19 16h46.41.965910 -0500,
127,127,0,critical,wdh,20.0,2.1,lower,57.0,133.0,78.0,78.0,133.0,57.0,1,2.014892578125,None,,,,,0,0,0,0,0,127,127,10,500.85919880867004,,,,,,,,,,,,,,,,,,,,,,,,,,,,,,,,,,,,,,,,,,,,,,,,,,,,,,,,,,,,,,,,,,,,,,,,,,,,,,,,,,57.0,133.0,78.0,78.0,133.0,57.0,2.1,2.12,-202,-268,0,-285,164,276,500.8457534313202,500.84583044052124,500.8489890098572,500.85919880867004,501.00896310806274,501.00896310806274,501.00896310806274,501.00896310806274,501.00896310806274,501.00896310806274,501.00896310806274,502.8783526420593,1,2.014892578125,None,,,,,,,,,,,,,,,,,,59,2,2025-02-19_16h46.23.294,comp,2024.2.4,56.24200815275692,2025-02-19 16h46.41.965910 -0500,
128,128,0,filler_square,None,None,None,None,None,None,None,None,None,None,2,1.6117348670959473,None,,,,,0,0,0,0,0,128,128,171,502.8946325778961,,,,,,,,,,,,,,,,,,,,,,,,,,,,,,,,,,,,,,,,,,,,,,,,,,,,,,,,,,,,,,,,,,,,,,,,,,,,,,,,,,102.99450906247974,98.55659529014741,150.84146339324786,150.84146339324786,96.30398853431169,114.41414384949415,2.2,2.21,-221,-257,0,271,229,281,502.88012647628784,502.8802070617676,502.88326811790466,502.8946325778961,503.04076051712036,503.04076051712036,503.04076051712036,503.04076051712036,503.04076051712036,503.04076051712036,503.04076051712036,504.51489639282227,2,1.6117348670959473,None,,,,,,,,,,,,,,,,,,59,2,2025-02-19_16h46.23.294,comp,2024.2.4,56.24200815275692,2025-02-19 16h46.41.965910 -0500,
129,129,0,critical,hwd,35.0,1.0,upper,200.0,125.0,125.0,200.0,127.0,127.0,2,3.12487530708313,None,,,,,0,0,0,0,0,129,129,97,504.5338590145111,,,,,,,,,,,,,,,,,,,,,,,,,,,,,,,,,,,,,,,,,,,,,,,,,,,,,,,,,,,,,,,,,,,,,,,,,,,,,,,,,,200.0,125.0,125.0,200.0,127.0,127.0,1.0,1.3,222,-265,480,-255,740,-257,504.51638197898865,504.5164601802826,504.51941108703613,504.5338590145111,504.6796226501465,504.6796226501465,504.6796226501465,504.6796226501465,504.6796226501465,504.6796226501465,504.6796226501465,507.6644608974457,2,3.12487530708313,None,,,,,,,,,,,,,,,,,,59,2,2025-02-19_16h46.23.294,comp,2024.2.4,56.24200815275692,2025-02-19 16h46.41.965910 -0500,
130,130,0,filler_square,None,None,None,None,None,None,None,None,None,None,3,1.880122184753418,None,,,,,0,0,0,0,0,130,130,197,507.6819112300873,,,,,,,,,,,,,,,,,,,,,,,,,,,,,,,,,,,,,,,,,,,,,,,,,,,,,,,,,,,,,,,,,,,,,,,,,,,,,,,,,,72.83116910901488,73.3533011274878,104.52888489956237,102.5963293306065,108.0387046058151,108.0387046058151,4.0,4.1,-184,-257,0,-8,201,-282,507.6664369106293,507.6665151119232,507.6703553199768,507.6819112300873,507.8311219215393,507.8311219215393,507.8311219215393,507.8311219215393,507.8311219215393,507.8311219215393,507.8311219215393,509.5791709423065,3,1.880122184753418,None,,,,,,,,,,,,,,,,,,59,2,2025-02-19_16h46.23.294,comp,2024.2.4,56.24200815275692,2025-02-19 16h46.41.965910 -0500,
131,131,0,critical,dwh,20.0,3.0,upper,141.0,141.0,125.0,200.0,200.0,125.0,3,1.4827659130096436,None,,,,,0,0,0,0,0,131,131,69,509.5992224216461,,,,,,,,,,,,,,,,,,,,,,,,,,,,,,,,,,,,,,,,,,,,,,,,,,,,,,,,,,,,,,,,,,,,,,,,,,,,,,,,,,141.0,141.0,125.0,200.0,200.0,125.0,3.0,3.1,-266,270,0,4,258,-285,509.5807340145111,509.5808103084564,509.5840208530426,509.5992224216461,509.74728751182556,509.74728751182556,509.74728751182556,509.74728751182556,509.74728751182556,509.74728751182556,509.74728751182556,511.0971736907959,3,1.4827659130096436,None,,,,,,,,,,,,,,,,,,59,2,2025-02-19_16h46.23.294,comp,2024.2.4,56.24200815275692,2025-02-19 16h46.41.965910 -0500,
132,132,0,critical,whd,35.0,4.0,upper,125.0,200.0,200.0,125.0,127.0,127.0,1,3.041987419128418,None,,,,,0,0,0,0,0,132,132,89,511.1127064228058,,,,,,,,,,,,,,,,,,,,,,,,,,,,,,,,,,,,,,,,,,,,,,,,,,,,,,,,,,,,,,,,,,,,,,,,,,,,,,,,,,125.0,200.0,200.0,125.0,127.0,127.0,4.0,4.2,-258,9,0,-276,222,9,511.0986268520355,511.09873485565186,511.1021661758423,511.1127064228058,511.2617115974426,511.2617115974426,511.2617115974426,511.2617115974426,511.2617115974426,511.2617115974426,511.2617115974426,514.165922164917,1,3.041987419128418,None,,,,,,,,,,,,,,,,,,59,2,2025-02-19_16h46.23.294,comp,2024.2.4,56.24200815275692,2025-02-19 16h46.41.965910 -0500,
133,133,0,critical,wdh,35.0,2.1,lower,57.0,133.0,70.0,70.0,133.0,57.0,1,4.388499736785889,None,,,,,0,0,0,0,0,133,133,32,514.1816999912262,,,,,,,,,,,,,,,,,,,,,,,,,,,,,,,,,,,,,,,,,,,,,,,,,,,,,,,,,,,,,,,,,,,,,,,,,,,,,,,,,,57.0,133.0,70.0,70.0,133.0,57.0,2.1,2.11,-198,266,0,257,160,-289,514.1674666404724,514.1675469875336,514.1709480285645,514.1816999912262,514.3343932628632,514.3343932628632,514.3343932628632,514.3343932628632,514.3343932628632,514.3343932628632,514.3343932628632,518.5830745697021,1,4.388499736785889,None,,,,,,,,,,,,,,,,,,59,2,2025-02-19_16h46.23.294,comp,2024.2.4,56.24200815275692,2025-02-19 16h46.41.965910 -0500,
134,134,0,filler_random,None,None,None,None,None,None,None,None,None,None,2,2.202664613723755,None,,,,,0,0,0,0,0,134,134,163,518.599426984787,,,,,,,,,,,,,,,,,,,,,,,,,,,,,,,,,,,,,,,,,,,,,,,,,,,,,,,,,,,,,,,,,,,,,,,,,,,,,,,,,,120.32077177691185,175.8092227520267,166.34036709253232,155.52729479075407,96.81085998714602,199.21885908463898,1.0,1.2,-262,-15,0,-3,273,-3,518.5850851535797,518.5851674079895,518.5886337757111,518.599426984787,518.7472763061523,518.7472763061523,518.7472763061523,518.7472763061523,518.7472763061523,518.7472763061523,518.7472763061523,520.8175647258759,2,2.202664613723755,None,,,,,,,,,,,,,,,,,,59,2,2025-02-19_16h46.23.294,comp,2024.2.4,56.24200815275692,2025-02-19 16h46.41.965910 -0500,
135,135,0,filler_square,None,None,None,None,None,None,None,None,None,None,3,1.409301996231079,None,,,,,0,0,0,0,0,135,135,188,520.8329706192017,,,,,,,,,,,,,,,,,,,,,,,,,,,,,,,,,,,,,,,,,,,,,,,,,,,,,,,,,,,,,,,,,,,,,,,,,,,,,,,,,,83.30654372066545,74.32302740317272,80.3103119673043,60.0368381075147,92.31976155874911,92.31976155874911,2.1,2.12,-163,-257,0,-276,172,286,520.8193709850311,520.8194482326508,520.8227167129517,520.8329706192017,520.981146812439,520.981146812439,520.981146812439,520.981146812439,520.981146812439,520.981146812439,520.981146812439,522.2506475448608,3,1.409301996231079,None,,,,,,,,,,,,,,,,,,59,2,2025-02-19_16h46.23.294,comp,2024.2.4,56.24200815275692,2025-02-19 16h46.41.965910 -0500,
136,136,0,critical,whd,35.0,2.1,lower,57.0,133.0,133.0,57.0,70.0,70.0,1,4.871285676956177,None,,,,,0,0,0,0,0,136,136,36,522.2667543888092,,,,,,,,,,,,,,,,,,,,,,,,,,,,,,,,,,,,,,,,,,,,,,,,,,,,,,,,,,,,,,,,,,,,,,,,,,,,,,,,,,57.0,133.0,133.0,57.0,70.0,70.0,2.1,2.11,-191,286,0,273,160,-287,522.2523138523102,522.2524507045746,522.2560305595398,522.2667543888092,522.4233028888702,522.4233028888702,522.4233028888702,522.4233028888702,522.4233028888702,522.4233028888702,522.4233028888702,527.1514520645142,1,4.871285676956177,None,,,,,,,,,,,,,,,,,,59,2,2025-02-19_16h46.23.294,comp,2024.2.4,56.24200815275692,2025-02-19 16h46.41.965910 -0500,
137,137,0,filler_square,None,None,None,None,None,None,None,None,None,None,1,2.4018805027008057,None,,,,,0,0,0,0,0,137,137,204,527.1680467128754,,,,,,,,,,,,,,,,,,,,,,,,,,,,,,,,,,,,,,,,,,,,,,,,,,,,,,,,,,,,,,,,,,,,,,,,,,,,,,,,,,139.26269192074716,139.26269192074716,86.23696237239791,131.20091974068907,133.042076329976,65.62591130804753,4.0,4.2,-231,-3,0,-287,194,3,527.1533029079437,527.1533782482147,527.1565387248993,527.1680467128754,527.3190040588379,527.3190040588379,527.3190040588379,527.3190040588379,527.3190040588379,527.3190040588379,527.3190040588379,529.5870115756989,1,2.4018805027008057,None,,,,,,,,,,,,,,,,,,59,2,2025-02-19_16h46.23.294,comp,2024.2.4,56.24200815275692,2025-02-19 16h46.41.965910 -0500,
138,138,0,critical,hdw,35.0,4.0,lower,133.0,57.0,70.0,70.0,57.0,133.0,3,2.4077258110046387,None,,,,,0,0,0,0,0,138,138,112,529.6026973724365,,,,,,,,,,,,,,,,,,,,,,,,,,,,,,,,,,,,,,,,,,,,,,,,,,,,,,,,,,,,,,,,,,,,,,,,,,,,,,,,,,133.0,57.0,70.0,70.0,57.0,133.0,4.0,4.1,-160,-290,0,9,198,-269,529.588611125946,529.5887289047241,529.5922181606293,529.6026973724365,529.7523903846741,529.7523903846741,529.7523903846741,529.7523903846741,529.7523903846741,529.7523903846741,529.7523903846741,532.0206937789917,3,2.4077258110046387,None,,,,,,,,,,,,,,,,,,59,2,2025-02-19_16h46.23.294,comp,2024.2.4,56.24200815275692,2025-02-19 16h46.41.965910 -0500,
139,139,0,filler_random,None,None,None,None,None,None,None,None,None,None,2,1.261939287185669,None,,,,,0,0,0,0,0,139,139,154,532.036509513855,,,,,,,,,,,,,,,,,,,,,,,,,,,,,,,,,,,,,,,,,,,,,,,,,,,,,,,,,,,,,,,,,,,,,,,,,,,,,,,,,,70.67810622649083,125.65808069109492,170.867548002275,167.28155045300218,87.70283586087983,126.64781850192752,1.0,1.3,238,-256,480,-265,723,-266,532.022399187088,532.0224757194519,532.0258603096008,532.036509513855,532.1857492923737,532.1857492923737,532.1857492923737,532.1857492923737,532.1857492923737,532.1857492923737,532.1857492923737,533.3010354042053,2,1.261939287185669,None,,,,,,,,,,,,,,,,,,59,2,2025-02-19_16h46.23.294,comp,2024.2.4,56.24200815275692,2025-02-19 16h46.41.965910 -0500,
