thisN,thisTrialN,thisRepN,effect,order,distance,config,diag,h_1,w_1,h_2,w_2,h_3,w_3,rect_choice.keys,rect_choice.rt,rect_choice.duration,instructions_loop.thisRepN,instructions_loop.thisTrialN,instructions_loop.thisN,instructions_loop.thisIndex,blocks.thisRepN,blocks.thisTrialN,blocks.thisN,blocks.thisIndex,trials.thisRepN,trials.thisTrialN,trials.thisN,trials.thisIndex,thisRow.t,notes,consent.started,agree_button.started,decline_button.started,consent_img.started,mouse.started,consent.stopped,agree_button.numClicks,agree_button.timesOn,agree_button.timesOff,decline_button.numClicks,decline_button.timesOn,decline_button.timesOff,mouse.x,mouse.y,mouse.leftButton,mouse.midButton,mouse.rightButton,mouse.time,mouse.clicked_name,exp_params.started,exp_params.stopped,welcome.started,welcome_text.started,welcome.stopped,instructions_1.started,instructions_1_text_1.started,instructions_1_text_2.started,key_resp.started,instructions_1.stopped,instructions_loop.key_resp.keys,instructions_loop.key_resp.rt,instructions_loop.key_resp.duration,instructions_2.started,instructions_2_text_1.started,instructions_2_text_2.started,key_resp_2.started,instructions_2.stopped,instructions_loop.key_resp_2.keys,instructions_loop.key_resp_2.rt,instructions_loop.key_resp_2.duration,instructions_3.started,instructions_3_text_1.started,r1_instr3.started,r2_instr3.started,r3_instr3.started,r1_instr3_label.started,r2_instr3_label.started,r3_instr3_label.started,instructions_3_text_3.started,instructions_3_text_4.started,key_resp_3.started,instructions_3.stopped,instructions_loop.key_resp_3.keys,instructions_loop.key_resp_3.rt,instructions_loop.key_resp_3.duration,instructions_4.started,instructions_4_text_1.started,instructions_4_text_3.started,instructions_4_text_2.started,key_resp_4.started,instructions_4.stopped,instructions_loop.key_resp_4.keys,instructions_loop.key_resp_4.rt,instructions_loop.key_resp_4.duration,instructions_5.started,instructions_5_text_1.started,instructions_5_text_2.started,key_resp_5.started,instructions_5.stopped,instructions_loop.key_resp_5.keys,instructions_loop.key_resp_5.rt,instructions_loop.key_resp_5.duration,start_exp.started,start_exp_text.started,key_resp_6.started,start_exp.stopped,key_resp_6.keys,key_resp_6.rt,key_resp_6.duration,h_1_tmp,w_1_tmp,h_2_tmp,w_2_tmp,h_3_tmp,w_3_tmp,config_tmp,config_tmp_1,r_1_x,r_1_y,r_2_x,r_2_y,r_3_x,r_3_y,pre_trial.started,pre_trial.stopped,choice_trial.started,rect_choice.started,r_1.started,r_2.started,r_3.started,r_1_label.started,r_2_label.started,r_3_label.started,prompt.started,choice_trial.stopped,trials.rect_choice.keys,trials.rect_choice.rt,trials.rect_choice.duration,end_block.started,end_block_text.started,end_block.stopped,end.started,end_text.started,key_resp_7.started,end.stopped,key_resp_7.keys,key_resp_7.rt,key_resp_7.duration,debriefing.started,debrief_form.started,end_debrief.started,debriefing.stopped,end_debrief.keys,end_debrief.rt,end_debrief.duration,participant,computer,date,expName,psychopyVersion,frameRate,expStart,
,,,,,,,,,,,,,,,,,,,,,,,,,,,,,,,0.022770404815673828,0.07162284851074219,0.07162284851074219,0.07162284851074219,0.022248029708862305,27.511521577835083,1,[27.438680410385132],[27.438690900802612],0,,,[-77.0],[-516.0],[1],[0],[0],[27.48801565170288],['agree_button'],,,,,,,,,,,,,,,,,,,,,,,,,,,,,,,,,,,,,,,,,,,,,,,,,,,,,,,,,,,,,,,,,,,,,,,,,,,,,,,,,,,,,,,,,,,,,,,,,,,,,,,,,,,5,5,2025-02-18_10h04.34.025,comp,2024.2.4,60.14615287544884,2025-02-18 10h05.01.066353 -0500,
,,,,,,,,,,,,,,,,,,,,,,,,,,,,,,,,,,,,,,,,,,,,,,,,,,27.511802911758423,27.511837482452393,,,,,,,,,,,,,,,,,,,,,,,,,,,,,,,,,,,,,,,,,,,,,,,,,,,,,,,,,,,,,,,,,,,,,,,,,,,,,,,,,,,,,,,,,,,,,,,,,,,,,,,,,5,5,2025-02-18_10h04.34.025,comp,2024.2.4,60.14615287544884,2025-02-18 10h05.01.066353 -0500,
,,,,,,,,,,,,,,,,,,,,,,,,,,,,,,,,,,,,,,,,,,,,,,,,,,,,27.511860847473145,27.525378704071045,29.52408504486084,,,,,,,,,,,,,,,,,,,,,,,,,,,,,,,,,,,,,,,,,,,,,,,,,,,,,,,,,,,,,,,,,,,,,,,,,,,,,,,,,,,,,,,,,,,,,,,,,,,,,,5,5,2025-02-18_10h04.34.025,comp,2024.2.4,60.14615287544884,2025-02-18 10h05.01.066353 -0500,
0,0,0,,,,,,,,,,,,,,,0,0,0,0,,,,,,,,,29.540937662124634,,,,,,,,,,,,,,,,,,,,,,,,,,29.524693250656128,29.540937662124634,29.540937662124634,31.023579835891724,40.058287620544434,space,9.012826681137085,None,40.05836820602417,40.07373237609863,40.07373237609863,41.57393431663513,53.074538230895996,space,11.494351863861084,None,53.074623823165894,53.09674692153931,53.09674692153931,53.09674692153931,53.09674692153931,53.09674692153931,53.09674692153931,53.09674692153931,53.09674692153931,53.09674692153931,54.57374572753906,66.67532229423523,space,12.085063934326172,None,66.6754081249237,66.6902847290039,66.6902847290039,66.6902847290039,68.1900269985199,76.47417998313904,space,8.268758058547974,None,76.47426152229309,76.48976755142212,76.48976755142212,77.9732072353363,80.22414827346802,space,2.2326102256774902,None,80.22425985336304,80.23966145515442,80.23966145515442,82.04074192047119,space,1.796090841293335,None,,,,,,,,,,,,,,,,,,,,,,,,,,,,,,,,,,,,,,,,,,,,,,,5,5,2025-02-18_10h04.34.025,comp,2024.2.4,60.14615287544884,2025-02-18 10h05.01.066353 -0500,
0,0,0,critical,hwd,35.0,2.1,upper,200.0,125.0,125.0,200.0,127.0,127.0,2,13.341887474060059,None,,,,,0,0,0,0,0,0,0,17,82.10055661201477,,,,,,,,,,,,,,,,,,,,,,,,,,,,,,,,,,,,,,,,,,,,,,,,,,,,,,,,,,,,,,,,,,,,,,,,,,,,,,,,,200.0,125.0,125.0,200.0,127.0,127.0,2.1,2.12,-258,-288,0,-269,260,269,82.08680319786072,82.08684968948364,82.08892965316772,82.10055661201477,82.24605083465576,82.24605083465576,82.24605083465576,82.24605083465576,82.24605083465576,82.24605083465576,82.24605083465576,95.45758175849915,2,13.341887474060059,None,,,,,,,,,,,,,,,,,,5,5,2025-02-18_10h04.34.025,comp,2024.2.4,60.14615287544884,2025-02-18 10h05.01.066353 -0500,
1,1,0,critical,hdw,20.0,2.1,upper,200.0,125.0,141.0,141.0,125.0,200.0,3,5.889408349990845,None,,,,,0,0,0,0,0,1,1,47,95.47281002998352,,,,,,,,,,,,,,,,,,,,,,,,,,,,,,,,,,,,,,,,,,,,,,,,,,,,,,,,,,,,,,,,,,,,,,,,,,,,,,,,,200.0,125.0,141.0,141.0,125.0,200.0,2.1,2.12,-229,-255,0,-258,266,284,95.4584276676178,95.45846939086914,95.46065545082092,95.47281002998352,95.62326002120972,95.62326002120972,95.62326002120972,95.62326002120972,95.62326002120972,95.62326002120972,95.62326002120972,101.37471866607666,3,5.889408349990845,None,,,,,,,,,,,,,,,,,,5,5,2025-02-18_10h04.34.025,comp,2024.2.4,60.14615287544884,2025-02-18 10h05.01.066353 -0500,
2,2,0,filler_random,None,None,None,None,None,None,None,None,None,None,3,5.284942865371704,None,,,,,0,0,0,0,0,2,2,160,101.3894259929657,,,,,,,,,,,,,,,,,,,,,,,,,,,,,,,,,,,,,,,,,,,,,,,,,,,,,,,,,,,,,,,,,,,,,,,,,,,,,,,,,117.03507410445309,90.1042766843448,70.6171054674095,97.74411294116129,130.56140734283835,132.94035618051475,1.0,1.3,290,-289,480,-250,691,-289,101.37575340270996,101.37579655647278,101.37844705581665,101.3894259929657,101.53974175453186,101.53974175453186,101.53974175453186,101.53974175453186,101.53974175453186,101.53974175453186,101.53974175453186,106.6906521320343,3,5.284942865371704,None,,,,,,,,,,,,,,,,,,5,5,2025-02-18_10h04.34.025,comp,2024.2.4,60.14615287544884,2025-02-18 10h05.01.066353 -0500,
3,3,0,critical,hwd,35.0,3.0,upper,200.0,125.0,125.0,200.0,127.0,127.0,2,2.936713933944702,None,,,,,0,0,0,0,0,3,3,99,106.70612215995789,,,,,,,,,,,,,,,,,,,,,,,,,,,,,,,,,,,,,,,,,,,,,,,,,,,,,,,,,,,,,,,,,,,,,,,,,,,,,,,,,200.0,125.0,125.0,200.0,127.0,127.0,3.0,3.1,-258,278,0,2,260,-253,106.69146466255188,106.6915054321289,106.69407796859741,106.70612215995789,106.85651588439941,106.85651588439941,106.85651588439941,106.85651588439941,106.85651588439941,106.85651588439941,106.85651588439941,109.65743494033813,2,2.936713933944702,None,,,,,,,,,,,,,,,,,,5,5,2025-02-18_10h04.34.025,comp,2024.2.4,60.14615287544884,2025-02-18 10h05.01.066353 -0500,
4,4,0,catch,None,None,None,None,None,None,None,None,None,None,2,2.105379343032837,None,,,,,0,0,0,0,0,4,4,127,109.67271041870117,,,,,,,,,,,,,,,,,,,,,,,,,,,,,,,,,,,,,,,,,,,,,,,,,,,,,,,,,,,,,,,,,,,,,,,,,,,,,,,,,75,115,197,128,78,112,2.2,2.21,-218,-252,0,287,216,289,109.65848183631897,109.65852212905884,109.66120433807373,109.67271041870117,109.82284426689148,109.82284426689148,109.82284426689148,109.82284426689148,109.82284426689148,109.82284426689148,109.82284426689148,111.7905797958374,2,2.105379343032837,None,,,,,,,,,,,,,,,,,,5,5,2025-02-18_10h04.34.025,comp,2024.2.4,60.14615287544884,2025-02-18 10h05.01.066353 -0500,
5,5,0,filler_random,None,None,None,None,None,None,None,None,None,None,2,1.756070613861084,None,,,,,0,0,0,0,0,5,5,153,111.80592751502991,,,,,,,,,,,,,,,,,,,,,,,,,,,,,,,,,,,,,,,,,,,,,,,,,,,,,,,,,,,,,,,,,,,,,,,,,,,,,,,,,127.08268911080184,110.02699238007179,141.68629055720754,135.20644917098036,176.65941752412954,100.54106820513414,1.0,1.2,-219,-15,0,-3,214,15,111.79148888587952,111.79153084754944,111.79381561279297,111.80592751502991,111.95644283294678,111.95644283294678,111.95644283294678,111.95644283294678,111.95644283294678,111.95644283294678,111.95644283294678,113.57444500923157,2,1.756070613861084,None,,,,,,,,,,,,,,,,,,5,5,2025-02-18_10h04.34.025,comp,2024.2.4,60.14615287544884,2025-02-18 10h05.01.066353 -0500,
6,6,0,critical,dwh,35.0,2.1,lower,70.0,70.0,57.0,133.0,133.0,57.0,2,3.668956995010376,None,,,,,0,0,0,0,0,6,6,4,113.58927369117737,,,,,,,,,,,,,,,,,,,,,,,,,,,,,,,,,,,,,,,,,,,,,,,,,,,,,,,,,,,,,,,,,,,,,,,,,,,,,,,,,70.0,70.0,57.0,133.0,133.0,57.0,2.1,2.11,-198,271,0,268,191,-254,113.57528281211853,113.57532525062561,113.57747030258179,113.58927369117737,113.73930764198303,113.73930764198303,113.73930764198303,113.73930764198303,113.73930764198303,113.73930764198303,113.73930764198303,117.27537608146667,2,3.668956995010376,None,,,,,,,,,,,,,,,,,,5,5,2025-02-18_10h04.34.025,comp,2024.2.4,60.14615287544884,2025-02-18 10h05.01.066353 -0500,
7,7,0,critical,hwd,20.0,4.0,upper,200.0,125.0,125.0,200.0,141.0,141.0,2,4.04974889755249,None,,,,,0,0,0,0,0,7,7,107,117.28997373580933,,,,,,,,,,,,,,,,,,,,,,,,,,,,,,,,,,,,,,,,,,,,,,,,,,,,,,,,,,,,,,,,,,,,,,,,,,,,,,,,,200.0,125.0,125.0,200.0,141.0,141.0,4.0,4.1,-258,-276,0,-5,266,-288,117.276123046875,117.27616000175476,117.27856516838074,117.28997373580933,117.4395055770874,117.4395055770874,117.4395055770874,117.4395055770874,117.4395055770874,117.4395055770874,117.4395055770874,121.35719060897827,2,4.04974889755249,None,,,,,,,,,,,,,,,,,,5,5,2025-02-18_10h04.34.025,comp,2024.2.4,60.14615287544884,2025-02-18 10h05.01.066353 -0500,
8,8,0,critical,dhw,35.0,1.0,lower,70.0,70.0,133.0,57.0,57.0,133.0,3,3.4787347316741943,None,,,,,0,0,0,0,0,8,8,48,121.37247467041016,,,,,,,,,,,,,,,,,,,,,,,,,,,,,,,,,,,,,,,,,,,,,,,,,,,,,,,,,,,,,,,,,,,,,,,,,,,,,,,,,70.0,70.0,133.0,57.0,57.0,133.0,1.0,1.2,-160,9,0,10,191,-19,121.35797476768494,121.35801553726196,121.36119413375854,121.37247467041016,121.52263140678406,121.52263140678406,121.52263140678406,121.52263140678406,121.52263140678406,121.52263140678406,121.52263140678406,124.85714912414551,3,3.4787347316741943,None,,,,,,,,,,,,,,,,,,5,5,2025-02-18_10h04.34.025,comp,2024.2.4,60.14615287544884,2025-02-18 10h05.01.066353 -0500,
9,9,0,filler_random,None,None,None,None,None,None,None,None,None,None,3,8.585525035858154,None,,,,,0,0,0,0,0,9,9,155,124.87273502349854,,,,,,,,,,,,,,,,,,,,,,,,,,,,,,,,,,,,,,,,,,,,,,,,,,,,,,,,,,,,,,,,,,,,,,,,,,,,,,,,,95.6828343375434,146.5062901095681,141.73895624229442,120.17909280467579,103.11596602583045,176.78262978740116,2.1,2.11,-229,270,0,266,244,-282,124.85809111595154,124.85813307762146,124.86028146743774,124.87273502349854,125.02260780334473,125.02260780334473,125.02260780334473,125.02260780334473,125.02260780334473,125.02260780334473,125.02260780334473,133.47374606132507,3,8.585525035858154,None,,,,,,,,,,,,,,,,,,5,5,2025-02-18_10h04.34.025,comp,2024.2.4,60.14615287544884,2025-02-18 10h05.01.066353 -0500,
10,10,0,catch,None,None,None,None,None,None,None,None,None,None,1,1.8172197341918945,None,,,,,0,0,0,0,0,10,10,121,133.48893761634827,,,,,,,,,,,,,,,,,,,,,,,,,,,,,,,,,,,,,,,,,,,,,,,,,,,,,,,,,,,,,,,,,,,,,,,,,,,,,,,,,126,199,71,119,99,91,4.0,4.2,-255,1,0,-255,201,17,133.4748296737671,133.47487235069275,133.4774947166443,133.48893761634827,133.6392319202423,133.6392319202423,133.6392319202423,133.6392319202423,133.6392319202423,133.6392319202423,133.6392319202423,135.32346200942993,1,1.8172197341918945,None,,,,,,,,,,,,,,,,,,5,5,2025-02-18_10h04.34.025,comp,2024.2.4,60.14615287544884,2025-02-18 10h05.01.066353 -0500,
11,11,0,critical,dhw,20.0,3.0,lower,78.0,78.0,133.0,57.0,57.0,133.0,3,2.622791290283203,None,,,,,0,0,0,0,0,11,11,56,135.3389642238617,,,,,,,,,,,,,,,,,,,,,,,,,,,,,,,,,,,,,,,,,,,,,,,,,,,,,,,,,,,,,,,,,,,,,,,,,,,,,,,,,78.0,78.0,133.0,57.0,57.0,133.0,3.0,3.1,-164,266,0,-13,191,-265,135.32426714897156,135.32430863380432,135.32682299613953,135.3389642238617,135.52425456047058,135.52425456047058,135.52425456047058,135.52425456047058,135.52425456047058,135.52425456047058,135.52425456047058,137.97372603416443,3,2.622791290283203,None,,,,,,,,,,,,,,,,,,5,5,2025-02-18_10h04.34.025,comp,2024.2.4,60.14615287544884,2025-02-18 10h05.01.066353 -0500,
12,12,0,filler_square,None,None,None,None,None,None,None,None,None,None,1,3.3502793312072754,None,,,,,0,0,0,0,0,12,12,175,137.9889838695526,,,,,,,,,,,,,,,,,,,,,,,,,,,,,,,,,,,,,,,,,,,,,,,,,,,,,,,,,,,,,,,,,,,,,,,,,,,,,,,,,64.13424080415096,64.13424080415096,61.12733655257572,57.246103665975895,61.42518156324042,62.54866705280233,4.0,4.1,-157,-289,0,-6,156,-275,137.97467875480652,137.97471952438354,137.97702813148499,137.9889838695526,138.1389901638031,138.1389901638031,138.1389901638031,138.1389901638031,138.1389901638031,138.1389901638031,138.1389901638031,141.35678791999817,1,3.3502793312072754,None,,,,,,,,,,,,,,,,,,5,5,2025-02-18_10h04.34.025,comp,2024.2.4,60.14615287544884,2025-02-18 10h05.01.066353 -0500,
13,13,0,critical,dwh,35.0,4.0,lower,70.0,70.0,57.0,133.0,133.0,57.0,3,4.510525941848755,None,,,,,0,0,0,0,0,13,13,64,141.3721992969513,,,,,,,,,,,,,,,,,,,,,,,,,,,,,,,,,,,,,,,,,,,,,,,,,,,,,,,,,,,,,,,,,,,,,,,,,,,,,,,,,70.0,70.0,57.0,133.0,133.0,57.0,4.0,4.1,-198,-276,0,1,191,-270,141.35760402679443,141.35764455795288,141.3598370552063,141.3721992969513,141.52264428138733,141.52264428138733,141.52264428138733,141.52264428138733,141.52264428138733,141.52264428138733,141.52264428138733,145.89012503623962,3,4.510525941848755,None,,,,,,,,,,,,,,,,,,5,5,2025-02-18_10h04.34.025,comp,2024.2.4,60.14615287544884,2025-02-18 10h05.01.066353 -0500,
14,14,0,critical,dwh,35.0,3.0,lower,70.0,70.0,57.0,133.0,133.0,57.0,3,3.008974075317383,None,,,,,0,0,0,0,0,14,14,62,145.90572476387024,,,,,,,,,,,,,,,,,,,,,,,,,,,,,,,,,,,,,,,,,,,,,,,,,,,,,,,,,,,,,,,,,,,,,,,,,,,,,,,,,70.0,70.0,57.0,133.0,133.0,57.0,3.0,3.1,-198,260,0,-5,191,-254,145.8909363746643,145.8909788131714,145.89333939552307,145.90572476387024,146.0555281639099,146.0555281639099,146.0555281639099,146.0555281639099,146.0555281639099,146.0555281639099,146.0555281639099,148.9232358932495,3,3.008974075317383,None,,,,,,,,,,,,,,,,,,5,5,2025-02-18_10h04.34.025,comp,2024.2.4,60.14615287544884,2025-02-18 10h05.01.066353 -0500,
15,15,0,critical,hdw,20.0,1.0,upper,200.0,125.0,141.0,141.0,125.0,200.0,3,4.495664119720459,None,,,,,0,0,0,0,0,15,15,115,148.93894219398499,,,,,,,,,,,,,,,,,,,,,,,,,,,,,,,,,,,,,,,,,,,,,,,,,,,,,,,,,,,,,,,,,,,,,,,,,,,,,,,,,200.0,125.0,141.0,141.0,125.0,200.0,1.0,1.3,251,-286,480,-287,746,-273,148.9240369796753,148.92407870292664,148.92645812034607,148.93894219398499,149.08905339241028,149.08905339241028,149.08905339241028,149.08905339241028,149.08905339241028,149.08905339241028,149.08905339241028,153.44022583961487,3,4.495664119720459,None,,,,,,,,,,,,,,,,,,5,5,2025-02-18_10h04.34.025,comp,2024.2.4,60.14615287544884,2025-02-18 10h05.01.066353 -0500,
16,16,0,critical,dhw,20.0,2.1,lower,78.0,78.0,133.0,57.0,57.0,133.0,1,7.121756315231323,None,,,,,0,0,0,0,0,16,16,26,153.45564985275269,,,,,,,,,,,,,,,,,,,,,,,,,,,,,,,,,,,,,,,,,,,,,,,,,,,,,,,,,,,,,,,,,,,,,,,,,,,,,,,,,78.0,78.0,133.0,57.0,57.0,133.0,2.1,2.11,-164,254,0,285,191,-266,153.441020488739,153.44105887413025,153.4431083202362,153.45564985275269,153.6054482460022,153.6054482460022,153.6054482460022,153.6054482460022,153.6054482460022,153.6054482460022,153.6054482460022,160.58984327316284,1,7.121756315231323,None,,,,,,,,,,,,,,,,,,5,5,2025-02-18_10h04.34.025,comp,2024.2.4,60.14615287544884,2025-02-18 10h05.01.066353 -0500,
17,17,0,filler_square,None,None,None,None,None,None,None,None,None,None,1,3.199828863143921,None,,,,,0,0,0,0,0,17,17,206,160.60531735420227,,,,,,,,,,,,,,,,,,,,,,,,,,,,,,,,,,,,,,,,,,,,,,,,,,,,,,,,,,,,,,,,,,,,,,,,,,,,,,,,,57.72763737884226,57.72763737884226,57.63068399983635,57.119126054097485,57.2607659371461,57.45086552805706,1.0,1.3,327,-274,480,-252,633,-262,160.59082674980164,160.5908682346344,160.59299278259277,160.60531735420227,160.75526785850525,160.75526785850525,160.75526785850525,160.75526785850525,160.75526785850525,160.75526785850525,160.75526785850525,163.8068187236786,1,3.199828863143921,None,,,,,,,,,,,,,,,,,,5,5,2025-02-18_10h04.34.025,comp,2024.2.4,60.14615287544884,2025-02-18 10h05.01.066353 -0500,
18,18,0,critical,hdw,20.0,2.1,lower,133.0,57.0,78.0,78.0,57.0,133.0,2,4.749864101409912,None,,,,,0,0,0,0,0,18,18,22,163.82219815254211,,,,,,,,,,,,,,,,,,,,,,,,,,,,,,,,,,,,,,,,,,,,,,,,,,,,,,,,,,,,,,,,,,,,,,,,,,,,,,,,,133.0,57.0,78.0,78.0,57.0,133.0,2.1,2.11,-164,264,0,261,202,-260,163.80762720108032,163.80766558647156,163.80989241600037,163.82219815254211,163.97210669517517,163.97210669517517,163.97210669517517,163.97210669517517,163.97210669517517,163.97210669517517,163.97210669517517,168.58963108062744,2,4.749864101409912,None,,,,,,,,,,,,,,,,,,5,5,2025-02-18_10h04.34.025,comp,2024.2.4,60.14615287544884,2025-02-18 10h05.01.066353 -0500,
19,19,0,critical,dwh,20.0,3.0,lower,78.0,78.0,57.0,133.0,133.0,57.0,1,2.542140007019043,None,,,,,0,0,0,0,0,19,19,68,168.6051468849182,,,,,,,,,,,,,,,,,,,,,,,,,,,,,,,,,,,,,,,,,,,,,,,,,,,,,,,,,,,,,,,,,,,,,,,,,,,,,,,,,78.0,78.0,57.0,133.0,133.0,57.0,3.0,3.1,-202,268,0,-18,191,-279,168.59039998054504,168.59043765068054,168.59296560287476,168.6051468849182,168.7552604675293,168.7552604675293,168.7552604675293,168.7552604675293,168.7552604675293,168.7552604675293,168.7552604675293,171.1563618183136,1,2.542140007019043,None,,,,,,,,,,,,,,,,,,5,5,2025-02-18_10h04.34.025,comp,2024.2.4,60.14615287544884,2025-02-18 10h05.01.066353 -0500,
20,20,0,filler_random,None,None,None,None,None,None,None,None,None,None,3,1.6780762672424316,None,,,,,0,0,0,0,0,20,20,133,171.1721293926239,,,,,,,,,,,,,,,,,,,,,,,,,,,,,,,,,,,,,,,,,,,,,,,,,,,,,,,,,,,,,,,,,,,,,,,,,,,,,,,,,74.48677687145667,118.12777540604559,103.14431878320597,88.31016225347634,151.3814000962958,171.13666110717844,2.2,2.22,-199,281,0,-281,226,-269,171.15742111206055,171.1574625968933,171.15996170043945,171.1721293926239,171.3219952583313,171.3219952583313,171.3219952583313,171.3219952583313,171.3219952583313,171.3219952583313,171.3219952583313,172.85645461082458,3,1.6780762672424316,None,,,,,,,,,,,,,,,,,,5,5,2025-02-18_10h04.34.025,comp,2024.2.4,60.14615287544884,2025-02-18 10h05.01.066353 -0500,
21,21,0,filler_random,None,None,None,None,None,None,None,None,None,None,1,14.810307502746582,None,,,,,0,0,0,0,0,21,21,140,172.8718616962433,,,,,,,,,,,,,,,,,,,,,,,,,,,,,,,,,,,,,,,,,,,,,,,,,,,,,,,,,,,,,,,,,,,,,,,,,,,,,,,,,126.72014754474431,136.17853532294885,139.60159763752586,118.9419747800579,126.99329667768471,141.4480688030526,3.0,3.1,-224,262,0,-19,226,-288,172.857355594635,172.85739660263062,172.85997891426086,172.8718616962433,173.0220332145691,173.0220332145691,173.0220332145691,173.0220332145691,173.0220332145691,173.0220332145691,173.0220332145691,187.68975400924683,1,14.810307502746582,None,,,,,,,,,,,,,,,,,,5,5,2025-02-18_10h04.34.025,comp,2024.2.4,60.14615287544884,2025-02-18 10h05.01.066353 -0500,
22,22,0,filler_square,None,None,None,None,None,None,None,None,None,None,2,2.119541883468628,None,,,,,0,0,0,0,0,22,22,179,187.70565152168274,,,,,,,,,,,,,,,,,,,,,,,,,,,,,,,,,,,,,,,,,,,,,,,,,,,,,,,,,,,,,,,,,,,,,,,,,,,,,,,,,88.73857283658009,85.09195337200876,110.31719116323555,110.31719116323555,68.99453938852066,99.80215591986993,1.0,1.2,-194,-7,0,11,201,15,187.69074082374573,187.69078373908997,187.69339776039124,187.70565152168274,187.8556182384491,187.8556182384491,187.8556182384491,187.8556182384491,187.8556182384491,187.8556182384491,187.8556182384491,189.8395059108734,2,2.119541883468628,None,,,,,,,,,,,,,,,,,,5,5,2025-02-18_10h04.34.025,comp,2024.2.4,60.14615287544884,2025-02-18 10h05.01.066353 -0500,
23,23,0,filler_square,None,None,None,None,None,None,None,None,None,None,1,1.6343934535980225,None,,,,,0,0,0,0,0,23,23,209,189.85485363006592,,,,,,,,,,,,,,,,,,,,,,,,,,,,,,,,,,,,,,,,,,,,,,,,,,,,,,,,,,,,,,,,,,,,,,,,,,,,,,,,,106.47627128185982,106.47627128185982,72.41056326511607,58.5815612633527,95.37526312864581,60.19046014636991,1.0,1.2,-179,-10,0,-1,155,-14,189.84047985076904,189.84052205085754,189.84306979179382,189.85485363006592,190.00545454025269,190.00545454025269,190.00545454025269,190.00545454025269,190.00545454025269,190.00545454025269,190.00545454025269,191.50597858428955,1,1.6343934535980225,None,,,,,,,,,,,,,,,,,,5,5,2025-02-18_10h04.34.025,comp,2024.2.4,60.14615287544884,2025-02-18 10h05.01.066353 -0500,
24,24,0,filler_square,None,None,None,None,None,None,None,None,None,None,3,1.8502287864685059,None,,,,,0,0,0,0,0,24,24,180,191.52149271965027,,,,,,,,,,,,,,,,,,,,,,,,,,,,,,,,,,,,,,,,,,,,,,,,,,,,,,,,,,,,,,,,,,,,,,,,,,,,,,,,,89.95450008803897,103.0725708455318,63.5622909413537,95.10892358294882,106.11514834138467,106.11514834138467,4.0,4.2,-195,1,0,-266,197,10,191.50693702697754,191.50697898864746,191.509375333786,191.52149271965027,191.67165851593018,191.67165851593018,191.67165851593018,191.67165851593018,191.67165851593018,191.67165851593018,191.67165851593018,193.37292957305908,3,1.8502287864685059,None,,,,,,,,,,,,,,,,,,5,5,2025-02-18_10h04.34.025,comp,2024.2.4,60.14615287544884,2025-02-18 10h05.01.066353 -0500,
25,25,0,critical,dhw,20.0,2.1,upper,141.0,141.0,200.0,125.0,125.0,200.0,3,2.7421352863311768,None,,,,,0,0,0,0,0,25,25,27,193.38841319084167,,,,,,,,,,,,,,,,,,,,,,,,,,,,,,,,,,,,,,,,,,,,,,,,,,,,,,,,,,,,,,,,,,,,,,,,,,,,,,,,,141.0,141.0,200.0,125.0,125.0,200.0,2.1,2.11,-229,277,0,250,258,-279,193.37372064590454,193.3737609386444,193.37589526176453,193.38841319084167,193.5392551422119,193.5392551422119,193.5392551422119,193.5392551422119,193.5392551422119,193.5392551422119,193.5392551422119,196.13954901695251,3,2.7421352863311768,None,,,,,,,,,,,,,,,,,,5,5,2025-02-18_10h04.34.025,comp,2024.2.4,60.14615287544884,2025-02-18 10h05.01.066353 -0500,
26,26,0,filler_random,None,None,None,None,None,None,None,None,None,None,1,1.4860808849334717,None,,,,,0,0,0,0,0,26,26,141,196.15508794784546,,,,,,,,,,,,,,,,,,,,,,,,,,,,,,,,,,,,,,,,,,,,,,,,,,,,,,,,,,,,,,,,,,,,,,,,,,,,,,,,,163.38903371727142,137.98884438704988,116.9787936219179,62.38141963315352,60.00634611465393,174.5871609793632,2.2,2.22,-196,258,0,-283,214,-284,196.14049816131592,196.1405394077301,196.14269304275513,196.15508794784546,196.30501103401184,196.30501103401184,196.30501103401184,196.30501103401184,196.30501103401184,196.30501103401184,196.30501103401184,197.65588283538818,1,1.4860808849334717,None,,,,,,,,,,,,,,,,,,5,5,2025-02-18_10h04.34.025,comp,2024.2.4,60.14615287544884,2025-02-18 10h05.01.066353 -0500,
27,27,0,critical,dwh,20.0,2.1,lower,78.0,78.0,57.0,133.0,133.0,57.0,1,4.451237916946411,None,,,,,0,0,0,0,0,27,27,30,197.67136788368225,,,,,,,,,,,,,,,,,,,,,,,,,,,,,,,,,,,,,,,,,,,,,,,,,,,,,,,,,,,,,,,,,,,,,,,,,,,,,,,,,78.0,78.0,57.0,133.0,133.0,57.0,2.1,2.11,-202,274,0,270,191,-267,197.65671038627625,197.6567497253418,197.65908646583557,197.67136788368225,197.82161593437195,197.82161593437195,197.82161593437195,197.82161593437195,197.82161593437195,197.82161593437195,197.82161593437195,202.1394579410553,1,4.451237916946411,None,,,,,,,,,,,,,,,,,,5,5,2025-02-18_10h04.34.025,comp,2024.2.4,60.14615287544884,2025-02-18 10h05.01.066353 -0500,
28,28,0,critical,whd,35.0,2.1,lower,57.0,133.0,133.0,57.0,70.0,70.0,2,4.759206295013428,None,,,,,0,0,0,0,0,28,28,36,202.15476059913635,,,,,,,,,,,,,,,,,,,,,,,,,,,,,,,,,,,,,,,,,,,,,,,,,,,,,,,,,,,,,,,,,,,,,,,,,,,,,,,,,57.0,133.0,133.0,57.0,70.0,70.0,2.1,2.12,-191,-284,0,-283,160,266,202.140278339386,202.1403181552887,202.14296650886536,202.15476059913635,202.3048484325409,202.3048484325409,202.3048484325409,202.3048484325409,202.3048484325409,202.3048484325409,202.3048484325409,206.92267894744873,2,4.759206295013428,None,,,,,,,,,,,,,,,,,,5,5,2025-02-18_10h04.34.025,comp,2024.2.4,60.14615287544884,2025-02-18 10h05.01.066353 -0500,
29,29,0,critical,hwd,35.0,4.0,upper,200.0,125.0,125.0,200.0,127.0,127.0,2,2.8004343509674072,None,,,,,0,0,0,0,0,29,29,101,206.9382610321045,,,,,,,,,,,,,,,,,,,,,,,,,,,,,,,,,,,,,,,,,,,,,,,,,,,,,,,,,,,,,,,,,,,,,,,,,,,,,,,,,200.0,125.0,125.0,200.0,127.0,127.0,4.0,4.2,-258,-13,0,-289,260,4,206.92345476150513,206.92349576950073,206.9254970550537,206.9382610321045,207.08839917182922,207.08839917182922,207.08839917182922,207.08839917182922,207.08839917182922,207.08839917182922,207.08839917182922,209.73990392684937,2,2.8004343509674072,None,,,,,,,,,,,,,,,,,,5,5,2025-02-18_10h04.34.025,comp,2024.2.4,60.14615287544884,2025-02-18 10h05.01.066353 -0500,
30,30,0,critical,dhw,20.0,4.0,upper,141.0,141.0,200.0,125.0,125.0,200.0,3,4.021885395050049,None,,,,,0,0,0,0,0,30,30,59,209.75483345985413,,,,,,,,,,,,,,,,,,,,,,,,,,,,,,,,,,,,,,,,,,,,,,,,,,,,,,,,,,,,,,,,,,,,,,,,,,,,,,,,,141.0,141.0,200.0,125.0,125.0,200.0,4.0,4.2,-229,6,0,-285,258,-16,209.7407398223877,209.7407820224762,209.74325108528137,209.75483345985413,209.90495014190674,209.90495014190674,209.90495014190674,209.90495014190674,209.90495014190674,209.90495014190674,209.90495014190674,213.7894492149353,3,4.021885395050049,None,,,,,,,,,,,,,,,,,,5,5,2025-02-18_10h04.34.025,comp,2024.2.4,60.14615287544884,2025-02-18 10h05.01.066353 -0500,
31,31,0,critical,hdw,35.0,2.1,lower,133.0,57.0,70.0,70.0,57.0,133.0,1,6.245112895965576,None,,,,,0,0,0,0,0,31,31,20,213.80456733703613,,,,,,,,,,,,,,,,,,,,,,,,,,,,,,,,,,,,,,,,,,,,,,,,,,,,,,,,,,,,,,,,,,,,,,,,,,,,,,,,,133.0,57.0,70.0,70.0,57.0,133.0,2.1,2.12,-160,-253,0,-258,198,279,213.79029774665833,213.79034066200256,213.79283118247986,213.80456733703613,213.95478773117065,213.95478773117065,213.95478773117065,213.95478773117065,213.95478773117065,213.95478773117065,213.95478773117065,220.05578446388245,1,6.245112895965576,None,,,,,,,,,,,,,,,,,,5,5,2025-02-18_10h04.34.025,comp,2024.2.4,60.14615287544884,2025-02-18 10h05.01.066353 -0500,
32,32,0,critical,dhw,20.0,1.0,upper,141.0,141.0,200.0,125.0,125.0,200.0,3,1.978283166885376,None,,,,,0,0,0,0,0,32,32,55,220.07151651382446,,,,,,,,,,,,,,,,,,,,,,,,,,,,,,,,,,,,,,,,,,,,,,,,,,,,,,,,,,,,,,,,,,,,,,,,,,,,,,,,,141.0,141.0,200.0,125.0,125.0,200.0,1.0,1.1,-709,261,-480,283,-222,281,220.0566349029541,220.0566759109497,220.0588629245758,220.07151651382446,220.2215130329132,220.2215130329132,220.2215130329132,220.2215130329132,220.2215130329132,220.2215130329132,220.2215130329132,222.05587697029114,3,1.978283166885376,None,,,,,,,,,,,,,,,,,,5,5,2025-02-18_10h04.34.025,comp,2024.2.4,60.14615287544884,2025-02-18 10h05.01.066353 -0500,
33,33,0,critical,hdw,20.0,3.0,lower,133.0,57.0,78.0,78.0,57.0,133.0,3,7.353317499160767,None,,,,,0,0,0,0,0,33,33,116,222.07136011123657,,,,,,,,,,,,,,,,,,,,,,,,,,,,,,,,,,,,,,,,,,,,,,,,,,,,,,,,,,,,,,,,,,,,,,,,,,,,,,,,,133.0,57.0,78.0,78.0,57.0,133.0,3.0,3.2,-164,-265,0,-15,202,255,222.0567011833191,222.05674195289612,222.0588927268982,222.07136011123657,222.2212290763855,222.2212290763855,222.2212290763855,222.2212290763855,222.2212290763855,222.2212290763855,222.2212290763855,229.4388611316681,3,7.353317499160767,None,,,,,,,,,,,,,,,,,,5,5,2025-02-18_10h04.34.025,comp,2024.2.4,60.14615287544884,2025-02-18 10h05.01.066353 -0500,
34,34,0,filler_random,None,None,None,None,None,None,None,None,None,None,3,2.875189781188965,None,,,,,0,0,0,0,0,34,34,167,229.45442986488342,,,,,,,,,,,,,,,,,,,,,,,,,,,,,,,,,,,,,,,,,,,,,,,,,,,,,,,,,,,,,,,,,,,,,,,,,,,,,,,,,91.36988209673349,180.76968481275568,130.6658318198552,164.03779949621784,132.524495684717,182.67916056206752,4.0,4.2,-268,-6,0,-271,269,5,229.43982481956482,229.439866065979,229.4422414302826,229.45442986488342,229.60461735725403,229.60461735725403,229.60461735725403,229.60461735725403,229.60461735725403,229.60461735725403,229.60461735725403,232.3391032218933,3,2.875189781188965,None,,,,,,,,,,,,,,,,,,5,5,2025-02-18_10h04.34.025,comp,2024.2.4,60.14615287544884,2025-02-18 10h05.01.066353 -0500,
35,35,0,critical,hdw,35.0,2.1,upper,200.0,125.0,127.0,127.0,125.0,200.0,3,7.343045711517334,None,,,,,0,0,0,0,0,35,35,21,232.35463404655457,,,,,,,,,,,,,,,,,,,,,,,,,,,,,,,,,,,,,,,,,,,,,,,,,,,,,,,,,,,,,,,,,,,,,,,,,,,,,,,,,200.0,125.0,127.0,127.0,125.0,200.0,2.1,2.11,-222,290,0,255,260,-270,232.33993458747864,232.33997750282288,232.3420970439911,232.35463404655457,232.50454950332642,232.50454950332642,232.50454950332642,232.50454950332642,232.50454950332642,232.50454950332642,232.50454950332642,239.70570707321167,3,7.343045711517334,None,,,,,,,,,,,,,,,,,,5,5,2025-02-18_10h04.34.025,comp,2024.2.4,60.14615287544884,2025-02-18 10h05.01.066353 -0500,
36,36,0,critical,whd,35.0,3.0,upper,125.0,200.0,200.0,125.0,127.0,127.0,1,10.328396320343018,None,,,,,0,0,0,0,0,36,36,87,239.72108101844788,,,,,,,,,,,,,,,,,,,,,,,,,,,,,,,,,,,,,,,,,,,,,,,,,,,,,,,,,,,,,,,,,,,,,,,,,,,,,,,,,125.0,200.0,200.0,125.0,127.0,127.0,3.0,3.1,-258,287,0,19,222,-288,239.7066376209259,239.7066776752472,239.7092559337616,239.72108101844788,239.87115097045898,239.87115097045898,239.87115097045898,239.87115097045898,239.87115097045898,239.87115097045898,239.87115097045898,250.0555989742279,1,10.328396320343018,None,,,,,,,,,,,,,,,,,,5,5,2025-02-18_10h04.34.025,comp,2024.2.4,60.14615287544884,2025-02-18 10h05.01.066353 -0500,
37,37,0,critical,dwh,35.0,2.1,upper,127.0,127.0,125.0,200.0,200.0,125.0,2,1.9942295551300049,None,,,,,0,0,0,0,0,37,37,5,250.07101583480835,,,,,,,,,,,,,,,,,,,,,,,,,,,,,,,,,,,,,,,,,,,,,,,,,,,,,,,,,,,,,,,,,,,,,,,,,,,,,,,,,127.0,127.0,125.0,200.0,200.0,125.0,2.1,2.12,-260,-273,0,-253,258,289,250.05639457702637,250.05643439292908,250.05908679962158,250.07101583480835,250.2210831642151,250.2210831642151,250.2210831642151,250.2210831642151,250.2210831642151,250.2210831642151,250.2210831642151,252.07207894325256,2,1.9942295551300049,None,,,,,,,,,,,,,,,,,,5,5,2025-02-18_10h04.34.025,comp,2024.2.4,60.14615287544884,2025-02-18 10h05.01.066353 -0500,
38,38,0,filler_square,None,None,None,None,None,None,None,None,None,None,3,2.3148245811462402,None,,,,,0,0,0,0,0,38,38,185,252.087899684906,,,,,,,,,,,,,,,,,,,,,,,,,,,,,,,,,,,,,,,,,,,,,,,,,,,,,,,,,,,,,,,,,,,,,,,,,,,,,,,,,81.61824823572562,85.91164968274089,93.42255482638468,135.15298442299382,143.7190406646456,143.7190406646456,4.0,4.2,-207,1,0,-253,235,-7,252.07303929328918,252.07308197021484,252.0752260684967,252.087899684906,252.23752737045288,252.23752737045288,252.23752737045288,252.23752737045288,252.23752737045288,252.23752737045288,252.23752737045288,254.40576219558716,3,2.3148245811462402,None,,,,,,,,,,,,,,,,,,5,5,2025-02-18_10h04.34.025,comp,2024.2.4,60.14615287544884,2025-02-18 10h05.01.066353 -0500,
39,39,0,critical,dwh,20.0,2.1,upper,141.0,141.0,125.0,200.0,200.0,125.0,2,3.460259437561035,None,,,,,0,0,0,0,0,39,39,7,254.42099809646606,,,,,,,,,,,,,,,,,,,,,,,,,,,,,,,,,,,,,,,,,,,,,,,,,,,,,,,,,,,,,,,,,,,,,,,,,,,,,,,,,141.0,141.0,125.0,200.0,200.0,125.0,2.1,2.12,-266,-276,0,-267,258,287,254.4066834449768,254.4067234992981,254.40892910957336,254.42099809646606,254.57112383842468,254.57112383842468,254.57112383842468,254.57112383842468,254.57112383842468,254.57112383842468,254.57112383842468,257.88888692855835,2,3.460259437561035,None,,,,,,,,,,,,,,,,,,5,5,2025-02-18_10h04.34.025,comp,2024.2.4,60.14615287544884,2025-02-18 10h05.01.066353 -0500,
40,40,0,critical,hwd,35.0,2.1,lower,133.0,57.0,57.0,133.0,70.0,70.0,2,3.5611038208007812,None,,,,,0,0,0,0,0,40,40,16,257.9042854309082,,,,,,,,,,,,,,,,,,,,,,,,,,,,,,,,,,,,,,,,,,,,,,,,,,,,,,,,,,,,,,,,,,,,,,,,,,,,,,,,,133.0,57.0,57.0,133.0,70.0,70.0,2.1,2.12,-191,-258,0,-270,198,256,257.8896951675415,257.8897371292114,257.89186239242554,257.9042854309082,258.05414748191833,258.05414748191833,258.05414748191833,258.05414748191833,258.05414748191833,258.05414748191833,258.05414748191833,261.47192335128784,2,3.5611038208007812,None,,,,,,,,,,,,,,,,,,5,5,2025-02-18_10h04.34.025,comp,2024.2.4,60.14615287544884,2025-02-18 10h05.01.066353 -0500,
41,41,0,critical,dhw,20.0,4.0,lower,78.0,78.0,133.0,57.0,57.0,133.0,1,5.699480772018433,None,,,,,0,0,0,0,0,41,41,58,261.4874985218048,,,,,,,,,,,,,,,,,,,,,,,,,,,,,,,,,,,,,,,,,,,,,,,,,,,,,,,,,,,,,,,,,,,,,,,,,,,,,,,,,78.0,78.0,133.0,57.0,57.0,133.0,4.0,4.2,-164,-9,0,-286,191,1,261.4727032184601,261.4727432727814,261.4750244617462,261.4874985218048,261.6373884677887,261.6373884677887,261.6373884677887,261.6373884677887,261.6373884677887,261.6373884677887,261.6373884677887,267.1888098716736,1,5.699480772018433,None,,,,,,,,,,,,,,,,,,5,5,2025-02-18_10h04.34.025,comp,2024.2.4,60.14615287544884,2025-02-18 10h05.01.066353 -0500,
42,42,0,critical,dhw,35.0,2.1,upper,127.0,127.0,200.0,125.0,125.0,200.0,3,2.3823111057281494,None,,,,,0,0,0,0,0,42,42,1,267.2042465209961,,,,,,,,,,,,,,,,,,,,,,,,,,,,,,,,,,,,,,,,,,,,,,,,,,,,,,,,,,,,,,,,,,,,,,,,,,,,,,,,,127.0,127.0,200.0,125.0,125.0,200.0,2.1,2.12,-222,-288,0,-254,258,259,267.1896548271179,267.1896982192993,267.19189453125,267.2042465209961,267.3542618751526,267.3542618751526,267.3542618751526,267.3542618751526,267.3542618751526,267.3542618751526,267.3542618751526,269.58884835243225,3,2.3823111057281494,None,,,,,,,,,,,,,,,,,,5,5,2025-02-18_10h04.34.025,comp,2024.2.4,60.14615287544884,2025-02-18 10h05.01.066353 -0500,
43,43,0,filler_random,None,None,None,None,None,None,None,None,None,None,1,2.100674867630005,None,,,,,0,0,0,0,0,43,43,144,269.6040279865265,,,,,,,,,,,,,,,,,,,,,,,,,,,,,,,,,,,,,,,,,,,,,,,,,,,,,,,,,,,,,,,,,,,,,,,,,,,,,,,,,153.18478434579154,180.5920719253733,118.2343241259153,160.97470536798886,60.739014116718664,130.66727799317928,3.0,3.2,-267,-265,0,-20,242,257,269.58977699279785,269.5898177623749,269.592031955719,269.6040279865265,269.75408244132996,269.75408244132996,269.75408244132996,269.75408244132996,269.75408244132996,269.75408244132996,269.75408244132996,271.7218337059021,1,2.100674867630005,None,,,,,,,,,,,,,,,,,,5,5,2025-02-18_10h04.34.025,comp,2024.2.4,60.14615287544884,2025-02-18 10h05.01.066353 -0500,
44,44,0,critical,hwd,35.0,1.0,lower,133.0,57.0,57.0,133.0,70.0,70.0,2,5.664877653121948,None,,,,,0,0,0,0,0,44,44,96,271.7371804714203,,,,,,,,,,,,,,,,,,,,,,,,,,,,,,,,,,,,,,,,,,,,,,,,,,,,,,,,,,,,,,,,,,,,,,,,,,,,,,,,,133.0,57.0,57.0,133.0,70.0,70.0,1.0,1.3,289,-261,480,-251,678,-260,271.7227053642273,271.7227485179901,271.725421667099,271.7371804714203,271.8873767852783,271.8873767852783,271.8873767852783,271.8873767852783,271.8873767852783,271.8873767852783,271.8873767852783,277.40735840797424,2,5.664877653121948,None,,,,,,,,,,,,,,,,,,5,5,2025-02-18_10h04.34.025,comp,2024.2.4,60.14615287544884,2025-02-18 10h05.01.066353 -0500,
45,45,0,filler_random,None,None,None,None,None,None,None,None,None,None,1,1.8113529682159424,None,,,,,0,0,0,0,0,45,45,130,277.4217035770416,,,,,,,,,,,,,,,,,,,,,,,,,,,,,,,,,,,,,,,,,,,,,,,,,,,,,,,,,,,,,,,,,,,,,,,,,,,,,,,,,168.98992709382782,112.61673722550752,186.5226838322805,85.07307667974948,74.52353254258612,128.71042358158869,3.0,3.2,-195,-272,0,-7,203,258,277.40823793411255,277.40827465057373,277.4100925922394,277.4217035770416,277.5707268714905,277.5707268714905,277.5707268714905,277.5707268714905,277.5707268714905,277.5707268714905,277.5707268714905,279.2384340763092,1,1.8113529682159424,None,,,,,,,,,,,,,,,,,,5,5,2025-02-18_10h04.34.025,comp,2024.2.4,60.14615287544884,2025-02-18 10h05.01.066353 -0500,
46,46,0,filler_square,None,None,None,None,None,None,None,None,None,None,3,1.5001249313354492,None,,,,,0,0,0,0,0,46,46,201,279.2538948059082,,,,,,,,,,,,,,,,,,,,,,,,,,,,,,,,,,,,,,,,,,,,,,,,,,,,,,,,,,,,,,,,,,,,,,,,,,,,,,,,,74.79750788430525,64.5918601078721,77.65245260377144,132.78672189807858,158.794153747902,158.794153747902,2.2,2.21,-195,-266,0,262,242,285,279.239399433136,279.2394392490387,279.2415301799774,279.2538948059082,279.4039840698242,279.4039840698242,279.4039840698242,279.4039840698242,279.4039840698242,279.4039840698242,279.4039840698242,280.75519013404846,3,1.5001249313354492,None,,,,,,,,,,,,,,,,,,5,5,2025-02-18_10h04.34.025,comp,2024.2.4,60.14615287544884,2025-02-18 10h05.01.066353 -0500,
47,47,0,critical,whd,20.0,3.0,upper,125.0,200.0,200.0,125.0,141.0,141.0,1,3.469372034072876,None,,,,,0,0,0,0,0,47,47,93,280.7706334590912,,,,,,,,,,,,,,,,,,,,,,,,,,,,,,,,,,,,,,,,,,,,,,,,,,,,,,,,,,,,,,,,,,,,,,,,,,,,,,,,,125.0,200.0,200.0,125.0,141.0,141.0,3.0,3.1,-258,250,0,-12,229,-274,280.75615096092224,280.756192445755,280.75863814353943,280.7706334590912,280.9208195209503,280.9208195209503,280.9208195209503,280.9208195209503,280.9208195209503,280.9208195209503,280.9208195209503,284.2551279067993,1,3.469372034072876,None,,,,,,,,,,,,,,,,,,5,5,2025-02-18_10h04.34.025,comp,2024.2.4,60.14615287544884,2025-02-18 10h05.01.066353 -0500,
48,48,0,filler_square,None,None,None,None,None,None,None,None,None,None,2,1.3001904487609863,None,,,,,0,0,0,0,0,48,48,192,284.27038860321045,,,,,,,,,,,,,,,,,,,,,,,,,,,,,,,,,,,,,,,,,,,,,,,,,,,,,,,,,,,,,,,,,,,,,,,,,,,,,,,,,60.2193872145193,81.4292933638616,95.4951957298239,95.4951957298239,64.27348797571787,79.66864550048666,2.1,2.11,-184,277,0,258,184,-259,284.25610876083374,284.25614953041077,284.2585229873657,284.27038860321045,284.4207196235657,284.4207196235657,284.4207196235657,284.4207196235657,284.4207196235657,284.4207196235657,284.4207196235657,285.5718512535095,2,1.3001904487609863,None,,,,,,,,,,,,,,,,,,5,5,2025-02-18_10h04.34.025,comp,2024.2.4,60.14615287544884,2025-02-18 10h05.01.066353 -0500,
49,49,0,filler_random,None,None,None,None,None,None,None,None,None,None,2,0.9992437362670898,None,,,,,0,0,0,0,0,49,49,149,285.5871801376343,,,,,,,,,,,,,,,,,,,,,,,,,,,,,,,,,,,,,,,,,,,,,,,,,,,,,,,,,,,,,,,,,,,,,,,,,,,,,,,,,95.65317193656603,128.75073119917306,181.06668736246652,191.8458072727163,61.397272805136474,177.92003408236218,2.2,2.21,-256,-274,0,258,281,263,285.5727963447571,285.5728371143341,285.5749936103821,285.5871801376343,285.73715806007385,285.73715806007385,285.73715806007385,285.73715806007385,285.73715806007385,285.73715806007385,285.73715806007385,286.58835792541504,2,0.9992437362670898,None,,,,,,,,,,,,,,,,,,5,5,2025-02-18_10h04.34.025,comp,2024.2.4,60.14615287544884,2025-02-18 10h05.01.066353 -0500,
50,50,0,critical,dwh,20.0,2.1,upper,141.0,141.0,125.0,200.0,200.0,125.0,2,19.350125074386597,None,,,,,0,0,0,0,0,50,50,31,286.6038851737976,,,,,,,,,,,,,,,,,,,,,,,,,,,,,,,,,,,,,,,,,,,,,,,,,,,,,,,,,,,,,,,,,,,,,,,,,,,,,,,,,141.0,141.0,125.0,200.0,200.0,125.0,2.1,2.11,-266,278,0,252,258,-253,286.58919167518616,286.5892333984375,286.5924117565155,286.6038851737976,286.75412011146545,286.75412011146545,286.75412011146545,286.75412011146545,286.75412011146545,286.75412011146545,286.75412011146545,305.97150111198425,2,19.350125074386597,None,,,,,,,,,,,,,,,,,,5,5,2025-02-18_10h04.34.025,comp,2024.2.4,60.14615287544884,2025-02-18 10h05.01.066353 -0500,
51,51,0,filler_square,None,None,None,None,None,None,None,None,None,None,1,1.3258566856384277,None,,,,,0,0,0,0,0,51,51,173,305.98665046691895,,,,,,,,,,,,,,,,,,,,,,,,,,,,,,,,,,,,,,,,,,,,,,,,,,,,,,,,,,,,,,,,,,,,,,,,,,,,,,,,,189.33611831886145,189.33611831886145,118.42219210711949,104.50998584445887,142.4382536221545,167.23102018147318,3.0,3.1,-243,253,0,6,232,-267,305.97247529029846,305.9725184440613,305.9750483036041,305.98665046691895,306.137056350708,306.137056350708,306.137056350708,306.137056350708,306.137056350708,306.137056350708,306.137056350708,307.32150173187256,1,1.3258566856384277,None,,,,,,,,,,,,,,,,,,5,5,2025-02-18_10h04.34.025,comp,2024.2.4,60.14615287544884,2025-02-18 10h05.01.066353 -0500,
52,52,0,critical,hwd,35.0,4.0,lower,133.0,57.0,57.0,133.0,70.0,70.0,2,3.600038528442383,None,,,,,0,0,0,0,0,52,52,100,307.3369767665863,,,,,,,,,,,,,,,,,,,,,,,,,,,,,,,,,,,,,,,,,,,,,,,,,,,,,,,,,,,,,,,,,,,,,,,,,,,,,,,,,133.0,57.0,57.0,133.0,70.0,70.0,4.0,4.1,-191,-250,0,-11,198,-271,307.3222978115082,307.32234048843384,307.3247456550598,307.3369767665863,307.4873743057251,307.4873743057251,307.4873743057251,307.4873743057251,307.4873743057251,307.4873743057251,307.4873743057251,310.9545900821686,2,3.600038528442383,None,,,,,,,,,,,,,,,,,,5,5,2025-02-18_10h04.34.025,comp,2024.2.4,60.14615287544884,2025-02-18 10h05.01.066353 -0500,
53,53,0,critical,dwh,35.0,2.1,upper,127.0,127.0,125.0,200.0,200.0,125.0,3,2.974898338317871,None,,,,,0,0,0,0,0,53,53,29,310.9699282646179,,,,,,,,,,,,,,,,,,,,,,,,,,,,,,,,,,,,,,,,,,,,,,,,,,,,,,,,,,,,,,,,,,,,,,,,,,,,,,,,,127.0,127.0,125.0,200.0,200.0,125.0,2.1,2.11,-260,275,0,275,258,-273,310.9554045200348,310.95544600486755,310.9576473236084,310.9699282646179,311.1202299594879,311.1202299594879,311.1202299594879,311.1202299594879,311.1202299594879,311.1202299594879,311.1202299594879,313.95467019081116,3,2.974898338317871,None,,,,,,,,,,,,,,,,,,5,5,2025-02-18_10h04.34.025,comp,2024.2.4,60.14615287544884,2025-02-18 10h05.01.066353 -0500,
54,54,0,filler_random,None,None,None,None,None,None,None,None,None,None,1,4.110316038131714,None,,,,,0,0,0,0,0,54,54,162,313.97009468078613,,,,,,,,,,,,,,,,,,,,,,,,,,,,,,,,,,,,,,,,,,,,,,,,,,,,,,,,,,,,,,,,,,,,,,,,,,,,,,,,,187.23946703608237,131.7228078628457,174.81605104478604,132.22124122099723,92.44464735584421,164.66499919446164,1.0,1.3,252,-260,480,-254,724,-274,313.9555516242981,313.95559072494507,313.95765113830566,313.97009468078613,314.12029576301575,314.12029576301575,314.12029576301575,314.12029576301575,314.12029576301575,314.12029576301575,314.12029576301575,318.08808517456055,1,4.110316038131714,None,,,,,,,,,,,,,,,,,,5,5,2025-02-18_10h04.34.025,comp,2024.2.4,60.14615287544884,2025-02-18 10h05.01.066353 -0500,
55,55,0,critical,hwd,20.0,2.1,upper,200.0,125.0,125.0,200.0,141.0,141.0,2,2.400244951248169,None,,,,,0,0,0,0,0,55,55,43,318.1035125255585,,,,,,,,,,,,,,,,,,,,,,,,,,,,,,,,,,,,,,,,,,,,,,,,,,,,,,,,,,,,,,,,,,,,,,,,,,,,,,,,,200.0,125.0,125.0,200.0,141.0,141.0,2.1,2.12,-258,-268,0,-279,266,285,318.0888788700104,318.0889322757721,318.0910370349884,318.1035125255585,318.25364565849304,318.25364565849304,318.25364565849304,318.25364565849304,318.25364565849304,318.25364565849304,318.25364565849304,320.52129220962524,2,2.400244951248169,None,,,,,,,,,,,,,,,,,,5,5,2025-02-18_10h04.34.025,comp,2024.2.4,60.14615287544884,2025-02-18 10h05.01.066353 -0500,
56,56,0,critical,hwd,20.0,3.0,upper,200.0,125.0,125.0,200.0,141.0,141.0,2,3.5675249099731445,None,,,,,0,0,0,0,0,56,56,105,320.53648233413696,,,,,,,,,,,,,,,,,,,,,,,,,,,,,,,,,,,,,,,,,,,,,,,,,,,,,,,,,,,,,,,,,,,,,,,,,,,,,,,,,200.0,125.0,125.0,200.0,141.0,141.0,3.0,3.1,-258,256,0,-7,266,-259,320.522088766098,320.52212858200073,320.5245478153229,320.53648233413696,320.6868329048157,320.6868329048157,320.6868329048157,320.6868329048157,320.6868329048157,320.6868329048157,320.6868329048157,324.12116527557373,2,3.5675249099731445,None,,,,,,,,,,,,,,,,,,5,5,2025-02-18_10h04.34.025,comp,2024.2.4,60.14615287544884,2025-02-18 10h05.01.066353 -0500,
57,57,0,filler_square,None,None,None,None,None,None,None,None,None,None,3,1.6004810333251953,None,,,,,0,0,0,0,0,57,57,177,324.13637948036194,,,,,,,,,,,,,,,,,,,,,,,,,,,,,,,,,,,,,,,,,,,,,,,,,,,,,,,,,,,,,,,,,,,,,,,,,,,,,,,,,59.134533822113234,66.15856846888953,58.07528365793574,63.752556787708414,69.59501451058743,69.59501451058743,2.2,2.21,-161,-256,0,277,163,262,324.1220808029175,324.1221203804016,324.12448358535767,324.13637948036194,324.28657937049866,324.28657937049866,324.28657937049866,324.28657937049866,324.28657937049866,324.28657937049866,324.28657937049866,325.7542402744293,3,1.6004810333251953,None,,,,,,,,,,,,,,,,,,5,5,2025-02-18_10h04.34.025,comp,2024.2.4,60.14615287544884,2025-02-18 10h05.01.066353 -0500,
58,58,0,filler_random,None,None,None,None,None,None,None,None,None,None,2,4.0167036056518555,None,,,,,0,0,0,0,0,58,58,158,325.76982259750366,,,,,,,,,,,,,,,,,,,,,,,,,,,,,,,,,,,,,,,,,,,,,,,,,,,,,,,,,,,,,,,,,,,,,,,,,,,,,,,,,127.61252031361636,159.05880967560245,168.39034037554669,136.2738654919337,191.6249352024232,67.75589636232354,4.0,4.2,-244,1,0,-283,198,-5,325.7551341056824,325.75517439842224,325.75764632225037,325.76982259750366,325.92004919052124,325.92004919052124,325.92004919052124,325.92004919052124,325.92004919052124,325.92004919052124,325.92004919052124,329.80450463294983,2,4.0167036056518555,None,,,,,,,,,,,,,,,,,,5,5,2025-02-18_10h04.34.025,comp,2024.2.4,60.14615287544884,2025-02-18 10h05.01.066353 -0500,
59,59,0,filler_square,None,None,None,None,None,None,None,None,None,None,2,1.8924601078033447,None,,,,,0,0,0,0,0,59,59,202,329.81980895996094,,,,,,,,,,,,,,,,,,,,,,,,,,,,,,,,,,,,,,,,,,,,,,,,,,,,,,,,,,,,,,,,,,,,,,,,,,,,,,,,,66.73686853613094,106.6192700150959,127.93732976634456,127.93732976634456,80.05387875908602,82.07322982034727,1.0,1.1,-693,287,-480,274,-279,277,329.8055064678192,329.8055491447449,329.8080575466156,329.81980895996094,329.969824552536,329.969824552536,329.969824552536,329.969824552536,329.969824552536,329.969824552536,329.969824552536,331.7208433151245,2,1.8924601078033447,None,,,,,,,,,,,,,,,,,,5,5,2025-02-18_10h04.34.025,comp,2024.2.4,60.14615287544884,2025-02-18 10h05.01.066353 -0500,
60,60,0,filler_square,None,None,None,None,None,None,None,None,None,None,2,1.065310001373291,None,,,,,0,0,0,0,0,60,60,207,331.7366030216217,,,,,,,,,,,,,,,,,,,,,,,,,,,,,,,,,,,,,,,,,,,,,,,,,,,,,,,,,,,,,,,,,,,,,,,,,,,,,,,,,80.30551377868129,160.48438282412792,164.99751870432192,164.99751870432192,60.64781918619545,153.5026862087511,3.0,3.2,-259,-278,0,6,255,290,331.72182965278625,331.7218713760376,331.7240357398987,331.7366030216217,331.8866808414459,331.8866808414459,331.8866808414459,331.8866808414459,331.8866808414459,331.8866808414459,331.8866808414459,332.80466318130493,2,1.065310001373291,None,,,,,,,,,,,,,,,,,,5,5,2025-02-18_10h04.34.025,comp,2024.2.4,60.14615287544884,2025-02-18 10h05.01.066353 -0500,
61,61,0,filler_square,None,None,None,None,None,None,None,None,None,None,3,1.3335120677947998,None,,,,,0,0,0,0,0,61,61,191,332.81999230384827,,,,,,,,,,,,,,,,,,,,,,,,,,,,,,,,,,,,,,,,,,,,,,,,,,,,,,,,,,,,,,,,,,,,,,,,,,,,,,,,,90.5111733968161,99.7756977282151,142.3686904370385,145.73529093768246,172.73830629830724,172.73830629830724,2.1,2.11,-219,261,0,286,255,-261,332.80563735961914,332.8056790828705,332.80784463882446,332.81999230384827,332.9700450897217,332.9700450897217,332.9700450897217,332.9700450897217,332.9700450897217,332.9700450897217,332.9700450897217,334.1710133552551,3,1.3335120677947998,None,,,,,,,,,,,,,,,,,,5,5,2025-02-18_10h04.34.025,comp,2024.2.4,60.14615287544884,2025-02-18 10h05.01.066353 -0500,
62,62,0,filler_square,None,None,None,None,None,None,None,None,None,None,1,1.5886576175689697,None,,,,,0,0,0,0,0,62,62,172,334.1865110397339,,,,,,,,,,,,,,,,,,,,,,,,,,,,,,,,,,,,,,,,,,,,,,,,,,,,,,,,,,,,,,,,,,,,,,,,,,,,,,,,,190.02976710128647,190.02976710128647,88.76350591258942,124.80544174855099,66.81098955001119,136.8312819811667,1.0,1.1,-733,264,-480,257,-253,272,334.17197155952454,334.17201232910156,334.175354719162,334.1865110397339,334.3369596004486,334.3369596004486,334.3369596004486,334.3369596004486,334.3369596004486,334.3369596004486,334.3369596004486,335.7876789569855,1,1.5886576175689697,None,,,,,,,,,,,,,,,,,,5,5,2025-02-18_10h04.34.025,comp,2024.2.4,60.14615287544884,2025-02-18 10h05.01.066353 -0500,
63,63,0,filler_random,None,None,None,None,None,None,None,None,None,None,1,1.9091582298278809,None,,,,,0,0,0,0,0,63,63,151,335.8030438423157,,,,,,,,,,,,,,,,,,,,,,,,,,,,,,,,,,,,,,,,,,,,,,,,,,,,,,,,,,,,,,,,,,,,,,,,,,,,,,,,,184.44864796816023,98.0445374829747,73.73739484355626,154.0008825527534,73.647495233261,172.79183168613076,2.1,2.12,-222,-256,0,-266,259,258,335.78860807418823,335.788649559021,335.79078817367554,335.8030438423157,335.9530863761902,335.9530863761902,335.9530863761902,335.9530863761902,335.9530863761902,335.9530863761902,335.9530863761902,337.72103118896484,1,1.9091582298278809,None,,,,,,,,,,,,,,,,,,5,5,2025-02-18_10h04.34.025,comp,2024.2.4,60.14615287544884,2025-02-18 10h05.01.066353 -0500,
64,64,0,critical,dwh,35.0,3.0,upper,127.0,127.0,125.0,200.0,200.0,125.0,2,3.1113078594207764,None,,,,,0,0,0,0,0,64,64,63,337.7367718219757,,,,,,,,,,,,,,,,,,,,,,,,,,,,,,,,,,,,,,,,,,,,,,,,,,,,,,,,,,,,,,,,,,,,,,,,,,,,,,,,,127.0,127.0,125.0,200.0,200.0,125.0,3.0,3.2,-260,-275,0,-17,258,254,337.7218117713928,337.721853017807,337.7240059375763,337.7367718219757,337.88670086860657,337.88670086860657,337.88670086860657,337.88670086860657,337.88670086860657,337.88670086860657,337.88670086860657,340.8542699813843,2,3.1113078594207764,None,,,,,,,,,,,,,,,,,,5,5,2025-02-18_10h04.34.025,comp,2024.2.4,60.14615287544884,2025-02-18 10h05.01.066353 -0500,
65,65,0,critical,wdh,20.0,2.1,upper,125.0,200.0,141.0,141.0,200.0,125.0,1,14.23382306098938,None,,,,,0,0,0,0,0,65,65,35,340.8697187900543,,,,,,,,,,,,,,,,,,,,,,,,,,,,,,,,,,,,,,,,,,,,,,,,,,,,,,,,,,,,,,,,,,,,,,,,,,,,,,,,,125.0,200.0,141.0,141.0,200.0,125.0,2.1,2.11,-266,255,0,258,229,-278,340.85508251190186,340.85512256622314,340.85762000083923,340.8697187900543,341.0198450088501,341.0198450088501,341.0198450088501,341.0198450088501,341.0198450088501,341.0198450088501,341.0198450088501,355.12102699279785,1,14.23382306098938,None,,,,,,,,,,,,,,,,,,5,5,2025-02-18_10h04.34.025,comp,2024.2.4,60.14615287544884,2025-02-18 10h05.01.066353 -0500,
66,66,0,critical,dhw,35.0,2.1,upper,127.0,127.0,200.0,125.0,125.0,200.0,3,1.6334724426269531,None,,,,,0,0,0,0,0,66,66,25,355.1360638141632,,,,,,,,,,,,,,,,,,,,,,,,,,,,,,,,,,,,,,,,,,,,,,,,,,,,,,,,,,,,,,,,,,,,,,,,,,,,,,,,,127.0,127.0,200.0,125.0,125.0,200.0,2.1,2.12,-222,-275,0,-259,258,286,355.12182235717773,355.1218636035919,355.12446451187134,355.1360638141632,355.2863492965698,355.2863492965698,355.2863492965698,355.2863492965698,355.2863492965698,355.2863492965698,355.2863492965698,356.77107763290405,3,1.6334724426269531,None,,,,,,,,,,,,,,,,,,5,5,2025-02-18_10h04.34.025,comp,2024.2.4,60.14615287544884,2025-02-18 10h05.01.066353 -0500,
67,67,0,filler_random,None,None,None,None,None,None,None,None,None,None,1,1.3416738510131836,None,,,,,0,0,0,0,0,67,67,138,356.78623032569885,,,,,,,,,,,,,,,,,,,,,,,,,,,,,,,,,,,,,,,,,,,,,,,,,,,,,,,,,,,,,,,,,,,,,,,,,,,,,,,,,143.8764738903306,169.24399809848705,80.51947103527898,61.451164626047344,154.2029042569303,61.28655003571604,1.0,1.3,269,-280,480,-270,637,-258,356.7719762325287,356.7720172405243,356.7740902900696,356.78623032569885,356.936181306839,356.936181306839,356.936181306839,356.936181306839,356.936181306839,356.936181306839,356.936181306839,358.1371853351593,1,1.3416738510131836,None,,,,,,,,,,,,,,,,,,5,5,2025-02-18_10h04.34.025,comp,2024.2.4,60.14615287544884,2025-02-18 10h05.01.066353 -0500,
68,68,0,filler_random,None,None,None,None,None,None,None,None,None,None,2,1.8220491409301758,None,,,,,0,0,0,0,0,68,68,163,358.15290117263794,,,,,,,,,,,,,,,,,,,,,,,,,,,,,,,,,,,,,,,,,,,,,,,,,,,,,,,,,,,,,,,,,,,,,,,,,,,,,,,,,64.61150077005641,113.37783150224134,169.6335787935526,148.21217807766823,169.64631347025937,80.13555962177725,2.1,2.12,-227,-253,0,-260,210,264,358.1381001472473,358.1381402015686,358.14056634902954,358.15290117263794,358.30298829078674,358.30298829078674,358.30298829078674,358.30298829078674,358.30298829078674,358.30298829078674,358.30298829078674,359.9880039691925,2,1.8220491409301758,None,,,,,,,,,,,,,,,,,,5,5,2025-02-18_10h04.34.025,comp,2024.2.4,60.14615287544884,2025-02-18 10h05.01.066353 -0500,
69,69,0,critical,dhw,20.0,1.0,lower,78.0,78.0,133.0,57.0,57.0,133.0,2,6.125093936920166,None,,,,,0,0,0,0,0,69,69,54,360.0026683807373,,,,,,,,,,,,,,,,,,,,,,,,,,,,,,,,,,,,,,,,,,,,,,,,,,,,,,,,,,,,,,,,,,,,,,,,,,,,,,,,,78.0,78.0,133.0,57.0,57.0,133.0,1.0,1.3,316,-286,480,-258,671,-267,359.9888060092926,359.9888470172882,359.99106001853943,360.0026683807373,360.152724981308,360.152724981308,360.152724981308,360.152724981308,360.152724981308,360.152724981308,360.152724981308,366.13717436790466,2,6.125093936920166,None,,,,,,,,,,,,,,,,,,5,5,2025-02-18_10h04.34.025,comp,2024.2.4,60.14615287544884,2025-02-18 10h05.01.066353 -0500,
70,70,0,critical,hwd,20.0,2.1,lower,133.0,57.0,57.0,133.0,78.0,78.0,1,3.3020999431610107,None,,,,,0,0,0,0,0,70,70,42,366.15281081199646,,,,,,,,,,,,,,,,,,,,,,,,,,,,,,,,,,,,,,,,,,,,,,,,,,,,,,,,,,,,,,,,,,,,,,,,,,,,,,,,,133.0,57.0,57.0,133.0,78.0,78.0,2.1,2.11,-191,253,0,278,202,-256,366.13797664642334,366.1380181312561,366.14062094688416,366.15281081199646,366.3025846481323,366.3025846481323,366.3025846481323,366.3025846481323,366.3025846481323,366.3025846481323,366.3025846481323,369.4705021381378,1,3.3020999431610107,None,,,,,,,,,,,,,,,,,,5,5,2025-02-18_10h04.34.025,comp,2024.2.4,60.14615287544884,2025-02-18 10h05.01.066353 -0500,
71,71,0,critical,wdh,20.0,3.0,upper,125.0,200.0,141.0,141.0,200.0,125.0,1,10.961780548095703,None,,,,,0,0,0,0,0,71,71,81,369.48588728904724,,,,,,,,,,,,,,,,,,,,,,,,,,,,,,,,,,,,,,,,,,,,,,,,,,,,,,,,,,,,,,,,,,,,,,,,,,,,,,,,,125.0,200.0,141.0,141.0,200.0,125.0,3.0,3.1,-266,264,0,0,229,-289,369.4712960720062,369.47133588790894,369.47383284568787,369.48588728904724,369.6361129283905,369.6361129283905,369.6361129283905,369.6361129283905,369.6361129283905,369.6361129283905,369.6361129283905,380.45384097099304,1,10.961780548095703,None,,,,,,,,,,,,,,,,,,5,5,2025-02-18_10h04.34.025,comp,2024.2.4,60.14615287544884,2025-02-18 10h05.01.066353 -0500,
72,72,0,critical,hdw,35.0,3.0,upper,200.0,125.0,127.0,127.0,125.0,200.0,3,1.931647777557373,None,,,,,0,0,0,0,0,72,72,111,380.4693145751953,,,,,,,,,,,,,,,,,,,,,,,,,,,,,,,,,,,,,,,,,,,,,,,,,,,,,,,,,,,,,,,,,,,,,,,,,,,,,,,,,200.0,125.0,127.0,127.0,125.0,200.0,3.0,3.2,-222,-273,0,8,260,253,380.45465183258057,380.4546916484833,380.4568362236023,380.4693145751953,380.619323015213,380.619323015213,380.619323015213,380.619323015213,380.619323015213,380.619323015213,380.619323015213,382.40413069725037,3,1.931647777557373,None,,,,,,,,,,,,,,,,,,5,5,2025-02-18_10h04.34.025,comp,2024.2.4,60.14615287544884,2025-02-18 10h05.01.066353 -0500,
73,73,0,filler_square,None,None,None,None,None,None,None,None,None,None,2,1.1713149547576904,None,,,,,0,0,0,0,0,73,73,178,382.41923356056213,,,,,,,,,,,,,,,,,,,,,,,,,,,,,,,,,,,,,,,,,,,,,,,,,,,,,,,,,,,,,,,,,,,,,,,,,,,,,,,,,59.73471493905967,73.09459225013426,111.20545401313566,111.20545401313566,63.70191071430366,57.906232265030745,3.0,3.1,-188,270,0,3,181,-287,382.40513157844543,382.4051730632782,382.4073247909546,382.41923356056213,382.56900429725647,382.56900429725647,382.56900429725647,382.56900429725647,382.56900429725647,382.56900429725647,382.56900429725647,383.6034541130066,2,1.1713149547576904,None,,,,,,,,,,,,,,,,,,5,5,2025-02-18_10h04.34.025,comp,2024.2.4,60.14615287544884,2025-02-18 10h05.01.066353 -0500,
74,74,0,critical,whd,20.0,3.0,lower,57.0,133.0,133.0,57.0,78.0,78.0,2,5.403685092926025,None,,,,,0,0,0,0,0,74,74,92,383.6188659667969,,,,,,,,,,,,,,,,,,,,,,,,,,,,,,,,,,,,,,,,,,,,,,,,,,,,,,,,,,,,,,,,,,,,,,,,,,,,,,,,,57.0,133.0,133.0,57.0,78.0,78.0,3.0,3.1,-191,256,0,5,164,-279,383.604248046875,383.60428833961487,383.60684275627136,383.6188659667969,383.7691307067871,383.7691307067871,383.7691307067871,383.7691307067871,383.7691307067871,383.7691307067871,383.7691307067871,389.036826133728,2,5.403685092926025,None,,,,,,,,,,,,,,,,,,5,5,2025-02-18_10h04.34.025,comp,2024.2.4,60.14615287544884,2025-02-18 10h05.01.066353 -0500,
75,75,0,filler_random,None,None,None,None,None,None,None,None,None,None,2,1.5954737663269043,None,,,,,0,0,0,0,0,75,75,168,389.05230617523193,,,,,,,,,,,,,,,,,,,,,,,,,,,,,,,,,,,,,,,,,,,,,,,,,,,,,,,,,,,,,,,,,,,,,,,,,,,,,,,,,185.56720262676305,57.070857114016476,107.28436409742056,194.07188668263103,142.1004676040428,108.65073827547792,3.0,3.2,-222,-268,0,-10,247,285,389.03770565986633,389.0377445220947,389.03980135917664,389.05230617523193,389.20280289649963,389.20280289649963,389.20280289649963,389.20280289649963,389.20280289649963,389.20280289649963,389.20280289649963,390.6540243625641,2,1.5954737663269043,None,,,,,,,,,,,,,,,,,,5,5,2025-02-18_10h04.34.025,comp,2024.2.4,60.14615287544884,2025-02-18 10h05.01.066353 -0500,
76,76,0,critical,wdh,35.0,1.0,lower,57.0,133.0,70.0,70.0,133.0,57.0,3,3.769516944885254,None,,,,,0,0,0,0,0,76,76,72,390.6690344810486,,,,,,,,,,,,,,,,,,,,,,,,,,,,,,,,,,,,,,,,,,,,,,,,,,,,,,,,,,,,,,,,,,,,,,,,,,,,,,,,,57.0,133.0,70.0,70.0,133.0,57.0,1.0,1.2,-198,-9,0,12,160,15,390.6548502445221,390.65489625930786,390.6570427417755,390.6690344810486,390.81897592544556,390.81897592544556,390.81897592544556,390.81897592544556,390.81897592544556,390.81897592544556,390.81897592544556,394.45350432395935,3,3.769516944885254,None,,,,,,,,,,,,,,,,,,5,5,2025-02-18_10h04.34.025,comp,2024.2.4,60.14615287544884,2025-02-18 10h05.01.066353 -0500,
77,77,0,filler_random,None,None,None,None,None,None,None,None,None,None,1,1.7056896686553955,None,,,,,0,0,0,0,0,77,77,166,394.46880435943604,,,,,,,,,,,,,,,,,,,,,,,,,,,,,,,,,,,,,,,,,,,,,,,,,,,,,,,,,,,,,,,,,,,,,,,,,,,,,,,,,80.79035020275478,160.1312105932804,71.48380493943955,128.80578904121285,84.03100680638339,59.48023315699187,1.0,1.3,240,-280,480,-259,670,-260,394.45444893836975,394.4544916152954,394.45705676078796,394.46880435943604,394.61894822120667,394.61894822120667,394.61894822120667,394.61894822120667,394.61894822120667,394.61894822120667,394.61894822120667,396.1870517730713,1,1.7056896686553955,None,,,,,,,,,,,,,,,,,,5,5,2025-02-18_10h04.34.025,comp,2024.2.4,60.14615287544884,2025-02-18 10h05.01.066353 -0500,
78,78,0,critical,hdw,35.0,2.1,upper,200.0,125.0,127.0,127.0,125.0,200.0,1,4.533805847167969,None,,,,,0,0,0,0,0,78,78,45,396.20216727256775,,,,,,,,,,,,,,,,,,,,,,,,,,,,,,,,,,,,,,,,,,,,,,,,,,,,,,,,,,,,,,,,,,,,,,,,,,,,,,,,,200.0,125.0,127.0,127.0,125.0,200.0,2.1,2.12,-222,-275,0,-252,260,267,396.1878683567047,396.1879196166992,396.190114736557,396.20216727256775,396.3525860309601,396.3525860309601,396.3525860309601,396.3525860309601,396.3525860309601,396.3525860309601,396.3525860309601,400.753559589386,1,4.533805847167969,None,,,,,,,,,,,,,,,,,,5,5,2025-02-18_10h04.34.025,comp,2024.2.4,60.14615287544884,2025-02-18 10h05.01.066353 -0500,
79,79,0,filler_square,None,None,None,None,None,None,None,None,None,None,3,1.4784903526306152,None,,,,,0,0,0,0,0,79,79,174,400.7688148021698,,,,,,,,,,,,,,,,,,,,,,,,,,,,,,,,,,,,,,,,,,,,,,,,,,,,,,,,,,,,,,,,,,,,,,,,,,,,,,,,,135.81024393337248,96.73812947899174,106.47609934792993,68.16254372307245,179.84811902692218,179.84811902692218,3.0,3.1,-178,281,0,6,220,-258,400.7545340061188,400.754576921463,400.7570893764496,400.7688148021698,400.9189500808716,400.9189500808716,400.9189500808716,400.9189500808716,400.9189500808716,400.9189500808716,400.9189500808716,402.2536528110504,3,1.4784903526306152,None,,,,,,,,,,,,,,,,,,5,5,2025-02-18_10h04.34.025,comp,2024.2.4,60.14615287544884,2025-02-18 10h05.01.066353 -0500,
80,80,0,critical,whd,35.0,3.0,lower,57.0,133.0,133.0,57.0,70.0,70.0,2,2.4423065185546875,None,,,,,0,0,0,0,0,80,80,86,402.2690763473511,,,,,,,,,,,,,,,,,,,,,,,,,,,,,,,,,,,,,,,,,,,,,,,,,,,,,,,,,,,,,,,,,,,,,,,,,,,,,,,,,57.0,133.0,133.0,57.0,70.0,70.0,3.0,3.2,-191,-272,0,6,160,251,402.25448846817017,402.2545304298401,402.2570209503174,402.2690763473511,402.41885924339294,402.41885924339294,402.41885924339294,402.41885924339294,402.41885924339294,402.41885924339294,402.41885924339294,404.72004222869873,2,2.4423065185546875,None,,,,,,,,,,,,,,,,,,5,5,2025-02-18_10h04.34.025,comp,2024.2.4,60.14615287544884,2025-02-18 10h05.01.066353 -0500,
81,81,0,filler_random,None,None,None,None,None,None,None,None,None,None,1,1.6170778274536133,None,,,,,0,0,0,0,0,81,81,159,404.7356472015381,,,,,,,,,,,,,,,,,,,,,,,,,,,,,,,,,,,,,,,,,,,,,,,,,,,,,,,,,,,,,,,,,,,,,,,,,,,,,,,,,180.427461379053,142.26912360489786,190.32125335693488,98.09698460898619,103.62423529769545,88.33251161293029,3.0,3.1,-216,278,0,6,189,-285,404.7209401130676,404.7209813594818,404.72334384918213,404.7356472015381,404.88573122024536,404.88573122024536,404.88573122024536,404.88573122024536,404.88573122024536,404.88573122024536,404.88573122024536,406.37013959884644,1,1.6170778274536133,None,,,,,,,,,,,,,,,,,,5,5,2025-02-18_10h04.34.025,comp,2024.2.4,60.14615287544884,2025-02-18 10h05.01.066353 -0500,
82,82,0,critical,hdw,20.0,4.0,lower,133.0,57.0,78.0,78.0,57.0,133.0,3,13.125794410705566,None,,,,,0,0,0,0,0,82,82,118,406.3853838443756,,,,,,,,,,,,,,,,,,,,,,,,,,,,,,,,,,,,,,,,,,,,,,,,,,,,,,,,,,,,,,,,,,,,,,,,,,,,,,,,,133.0,57.0,78.0,78.0,57.0,133.0,4.0,4.2,-164,19,0,-267,202,3,406.37092661857605,406.3709683418274,406.3733329772949,406.3853838443756,406.5356113910675,406.5356113910675,406.5356113910675,406.5356113910675,406.5356113910675,406.5356113910675,406.5356113910675,419.5197262763977,3,13.125794410705566,None,,,,,,,,,,,,,,,,,,5,5,2025-02-18_10h04.34.025,comp,2024.2.4,60.14615287544884,2025-02-18 10h05.01.066353 -0500,
83,83,0,critical,wdh,20.0,4.0,upper,125.0,200.0,141.0,141.0,200.0,125.0,3,2.5670700073242188,None,,,,,0,0,0,0,0,83,83,83,419.53535413742065,,,,,,,,,,,,,,,,,,,,,,,,,,,,,,,,,,,,,,,,,,,,,,,,,,,,,,,,,,,,,,,,,,,,,,,,,,,,,,,,,125.0,200.0,141.0,141.0,200.0,125.0,4.0,4.1,-266,-265,0,13,229,-259,419.52051186561584,419.5205543041229,419.5228080749512,419.53535413742065,419.6856791973114,419.6856791973114,419.6856791973114,419.6856791973114,419.6856791973114,419.6856791973114,419.6856791973114,422.12019443511963,3,2.5670700073242188,None,,,,,,,,,,,,,,,,,,5,5,2025-02-18_10h04.34.025,comp,2024.2.4,60.14615287544884,2025-02-18 10h05.01.066353 -0500,
84,84,0,filler_square,None,None,None,None,None,None,None,None,None,None,2,5.433507680892944,None,,,,,0,0,0,0,0,84,84,182,422.1351432800293,,,,,,,,,,,,,,,,,,,,,,,,,,,,,,,,,,,,,,,,,,,,,,,,,,,,,,,,,,,,,,,,,,,,,,,,,,,,,,,,,63.66774281143086,67.554996894162,69.13871423622629,68.02078829179062,69.5472533715182,69.5472533715182,1.0,1.2,-164,11,0,-9,165,0,422.1211521625519,422.121191740036,422.1233739852905,422.1351432800293,422.2853493690491,422.2853493690491,422.2853493690491,422.2853493690491,422.2853493690491,422.2853493690491,422.2853493690491,427.5699760913849,2,5.433507680892944,None,,,,,,,,,,,,,,,,,,5,5,2025-02-18_10h04.34.025,comp,2024.2.4,60.14615287544884,2025-02-18 10h05.01.066353 -0500,
85,85,0,filler_random,None,None,None,None,None,None,None,None,None,None,3,1.4776318073272705,None,,,,,0,0,0,0,0,85,85,165,427.585324048996,,,,,,,,,,,,,,,,,,,,,,,,,,,,,,,,,,,,,,,,,,,,,,,,,,,,,,,,,,,,,,,,,,,,,,,,,,,,,,,,,123.35595157594464,111.06531432882895,58.78590891166197,194.46049597027996,160.61623205903288,145.31785174930792,2.2,2.22,-249,260,0,-253,266,-269,427.5708737373352,427.57093620300293,427.5733871459961,427.585324048996,427.7353529930115,427.7353529930115,427.7353529930115,427.7353529930115,427.7353529930115,427.7353529930115,427.7353529930115,429.06968569755554,3,1.4776318073272705,None,,,,,,,,,,,,,,,,,,5,5,2025-02-18_10h04.34.025,comp,2024.2.4,60.14615287544884,2025-02-18 10h05.01.066353 -0500,
86,86,0,critical,hdw,20.0,4.0,upper,200.0,125.0,141.0,141.0,125.0,200.0,1,5.946057319641113,None,,,,,0,0,0,0,0,86,86,119,429.085303068161,,,,,,,,,,,,,,,,,,,,,,,,,,,,,,,,,,,,,,,,,,,,,,,,,,,,,,,,,,,,,,,,,,,,,,,,,,,,,,,,,200.0,125.0,141.0,141.0,125.0,200.0,4.0,4.1,-229,-269,0,-17,266,-264,429.0705373287201,429.0705795288086,429.0732858181,429.085303068161,429.235454082489,429.235454082489,429.235454082489,429.235454082489,429.235454082489,429.235454082489,429.235454082489,435.0367133617401,1,5.946057319641113,None,,,,,,,,,,,,,,,,,,5,5,2025-02-18_10h04.34.025,comp,2024.2.4,60.14615287544884,2025-02-18 10h05.01.066353 -0500,
87,87,0,filler_square,None,None,None,None,None,None,None,None,None,None,1,1.1544873714447021,None,,,,,0,0,0,0,0,87,87,186,435.0519621372223,,,,,,,,,,,,,,,,,,,,,,,,,,,,,,,,,,,,,,,,,,,,,,,,,,,,,,,,,,,,,,,,,,,,,,,,,,,,,,,,,122.36612637912894,122.36612637912894,87.49958433636422,58.49031641046606,72.40558164596116,120.5561082850952,4.0,4.2,-186,10,0,-262,186,-15,435.03770184516907,435.0377459526062,435.03988695144653,435.0519621372223,435.2017774581909,435.2017774581909,435.2017774581909,435.2017774581909,435.2017774581909,435.2017774581909,435.2017774581909,436.21943712234497,1,1.1544873714447021,None,,,,,,,,,,,,,,,,,,5,5,2025-02-18_10h04.34.025,comp,2024.2.4,60.14615287544884,2025-02-18 10h05.01.066353 -0500,
88,88,0,filler_random,None,None,None,None,None,None,None,None,None,None,2,1.7809109687805176,None,,,,,0,0,0,0,0,88,88,145,436.2348473072052,,,,,,,,,,,,,,,,,,,,,,,,,,,,,,,,,,,,,,,,,,,,,,,,,,,,,,,,,,,,,,,,,,,,,,,,,,,,,,,,,91.04724578769512,77.69740943590209,104.96374693579406,115.06203704221635,93.11090249065626,162.88526595518437,4.0,4.1,-192,-263,0,4,235,-250,436.22037410736084,436.22041511535645,436.2229862213135,436.2348473072052,436.3852562904358,436.3852562904358,436.3852562904358,436.3852562904358,436.3852562904358,436.3852562904358,436.3852562904358,438.0197958946228,2,1.7809109687805176,None,,,,,,,,,,,,,,,,,,5,5,2025-02-18_10h04.34.025,comp,2024.2.4,60.14615287544884,2025-02-18 10h05.01.066353 -0500,
89,89,0,critical,wdh,20.0,1.0,upper,125.0,200.0,141.0,141.0,200.0,125.0,3,2.5808231830596924,None,,,,,0,0,0,0,0,89,89,79,438.03521633148193,,,,,,,,,,,,,,,,,,,,,,,,,,,,,,,,,,,,,,,,,,,,,,,,,,,,,,,,,,,,,,,,,,,,,,,,,,,,,,,,,125.0,200.0,141.0,141.0,200.0,125.0,1.0,1.2,-266,-19,0,10,229,0,438.0206034183502,438.02064394950867,438.0228145122528,438.03521633148193,438.18529081344604,438.18529081344604,438.18529081344604,438.18529081344604,438.18529081344604,438.18529081344604,438.18529081344604,440.61988401412964,3,2.5808231830596924,None,,,,,,,,,,,,,,,,,,5,5,2025-02-18_10h04.34.025,comp,2024.2.4,60.14615287544884,2025-02-18 10h05.01.066353 -0500,
90,90,0,catch,None,None,None,None,None,None,None,None,None,None,3,1.4434044361114502,None,,,,,0,0,0,0,0,90,90,125,440.6352608203888,,,,,,,,,,,,,,,,,,,,,,,,,,,,,,,,,,,,,,,,,,,,,,,,,,,,,,,,,,,,,,,,,,,,,,,,,,,,,,,,,70,120,121,69,157,168,2.2,2.21,-190,-288,0,275,214,272,440.6209807395935,440.6210219860077,440.62317967414856,440.6352608203888,440.78518080711365,440.78518080711365,440.78518080711365,440.78518080711365,440.78518080711365,440.78518080711365,440.78518080711365,442.0860960483551,3,1.4434044361114502,None,,,,,,,,,,,,,,,,,,5,5,2025-02-18_10h04.34.025,comp,2024.2.4,60.14615287544884,2025-02-18 10h05.01.066353 -0500,
91,91,0,critical,dhw,35.0,4.0,lower,70.0,70.0,133.0,57.0,57.0,133.0,2,1.9139506816864014,None,,,,,0,0,0,0,0,91,91,52,442.10172295570374,,,,,,,,,,,,,,,,,,,,,,,,,,,,,,,,,,,,,,,,,,,,,,,,,,,,,,,,,,,,,,,,,,,,,,,,,,,,,,,,,70.0,70.0,133.0,57.0,57.0,133.0,4.0,4.2,-160,-16,0,-274,191,-7,442.08698296546936,442.08702301979065,442.08954215049744,442.10172295570374,442.25163865089417,442.25163865089417,442.25163865089417,442.25163865089417,442.25163865089417,442.25163865089417,442.25163865089417,444.01957392692566,2,1.9139506816864014,None,,,,,,,,,,,,,,,,,,5,5,2025-02-18_10h04.34.025,comp,2024.2.4,60.14615287544884,2025-02-18 10h05.01.066353 -0500,
92,92,0,critical,hdw,35.0,4.0,upper,200.0,125.0,127.0,127.0,125.0,200.0,1,1.89202880859375,None,,,,,0,0,0,0,0,92,92,113,444.03515005111694,,,,,,,,,,,,,,,,,,,,,,,,,,,,,,,,,,,,,,,,,,,,,,,,,,,,,,,,,,,,,,,,,,,,,,,,,,,,,,,,,200.0,125.0,127.0,127.0,125.0,200.0,4.0,4.1,-222,-255,0,10,260,-273,444.02034091949463,444.02038049697876,444.02245807647705,444.03515005111694,444.18516850471497,444.18516850471497,444.18516850471497,444.18516850471497,444.18516850471497,444.18516850471497,444.18516850471497,445.93629336357117,1,1.89202880859375,None,,,,,,,,,,,,,,,,,,5,5,2025-02-18_10h04.34.025,comp,2024.2.4,60.14615287544884,2025-02-18 10h05.01.066353 -0500,
93,93,0,critical,dhw,20.0,3.0,upper,141.0,141.0,200.0,125.0,125.0,200.0,3,8.837849378585815,None,,,,,0,0,0,0,0,93,93,57,445.95176005363464,,,,,,,,,,,,,,,,,,,,,,,,,,,,,,,,,,,,,,,,,,,,,,,,,,,,,,,,,,,,,,,,,,,,,,,,,,,,,,,,,141.0,141.0,200.0,125.0,125.0,200.0,3.0,3.1,-229,281,0,5,258,-259,445.93712639808655,445.9371666908264,445.93963265419006,445.95176005363464,446.1021056175232,446.1021056175232,446.1021056175232,446.1021056175232,446.1021056175232,446.1021056175232,446.1021056175232,454.8028552532196,3,8.837849378585815,None,,,,,,,,,,,,,,,,,,5,5,2025-02-18_10h04.34.025,comp,2024.2.4,60.14615287544884,2025-02-18 10h05.01.066353 -0500,
94,94,0,critical,whd,20.0,2.1,lower,57.0,133.0,133.0,57.0,78.0,78.0,2,3.4765102863311768,None,,,,,0,0,0,0,0,94,94,14,454.8180158138275,,,,,,,,,,,,,,,,,,,,,,,,,,,,,,,,,,,,,,,,,,,,,,,,,,,,,,,,,,,,,,,,,,,,,,,,,,,,,,,,,57.0,133.0,133.0,57.0,78.0,78.0,2.1,2.12,-191,-269,0,-278,164,268,454.803679227829,454.8037211894989,454.8060817718506,454.8180158138275,454.9681923389435,454.9681923389435,454.9681923389435,454.9681923389435,454.9681923389435,454.9681923389435,454.9681923389435,458.3026614189148,2,3.4765102863311768,None,,,,,,,,,,,,,,,,,,5,5,2025-02-18_10h04.34.025,comp,2024.2.4,60.14615287544884,2025-02-18 10h05.01.066353 -0500,
95,95,0,filler_random,None,None,None,None,None,None,None,None,None,None,2,0.9441399574279785,None,,,,,0,0,0,0,0,95,95,137,458.3182566165924,,,,,,,,,,,,,,,,,,,,,,,,,,,,,,,,,,,,,,,,,,,,,,,,,,,,,,,,,,,,,,,,,,,,,,,,,,,,,,,,,172.89415377987214,63.1666261576963,114.34131120575088,150.268181156636,125.62825094859916,60.18510052550577,1.0,1.2,-203,5,0,16,201,5,458.3035659790039,458.3036079406738,458.3063929080963,458.3182566165924,458.4681808948517,458.4681808948517,458.4681808948517,458.4681808948517,458.4681808948517,458.4681808948517,458.4681808948517,459.2692687511444,2,0.9441399574279785,None,,,,,,,,,,,,,,,,,,5,5,2025-02-18_10h04.34.025,comp,2024.2.4,60.14615287544884,2025-02-18 10h05.01.066353 -0500,
96,96,0,critical,hwd,20.0,2.1,lower,133.0,57.0,57.0,133.0,78.0,78.0,1,5.600779056549072,None,,,,,0,0,0,0,0,96,96,18,459.28480195999146,,,,,,,,,,,,,,,,,,,,,,,,,,,,,,,,,,,,,,,,,,,,,,,,,,,,,,,,,,,,,,,,,,,,,,,,,,,,,,,,,133.0,57.0,57.0,133.0,78.0,78.0,2.1,2.11,-191,274,0,254,202,-253,459.2700412273407,459.27008056640625,459.27223920822144,459.28480195999146,459.43489694595337,459.43489694595337,459.43489694595337,459.43489694595337,459.43489694595337,459.43489694595337,459.43489694595337,464.9025819301605,1,5.600779056549072,None,,,,,,,,,,,,,,,,,,5,5,2025-02-18_10h04.34.025,comp,2024.2.4,60.14615287544884,2025-02-18 10h05.01.066353 -0500,
97,97,0,critical,hdw,20.0,1.0,lower,133.0,57.0,78.0,78.0,57.0,133.0,1,2.6336545944213867,None,,,,,0,0,0,0,0,97,97,114,464.9178853034973,,,,,,,,,,,,,,,,,,,,,,,,,,,,,,,,,,,,,,,,,,,,,,,,,,,,,,,,,,,,,,,,,,,,,,,,,,,,,,,,,133.0,57.0,78.0,78.0,57.0,133.0,1.0,1.1,-644,265,-480,259,-278,262,464.9036798477173,464.90372109413147,464.90629267692566,464.9178853034973,465.06820130348206,465.06820130348206,465.06820130348206,465.06820130348206,465.06820130348206,465.06820130348206,465.06820130348206,467.56924176216125,1,2.6336545944213867,None,,,,,,,,,,,,,,,,,,5,5,2025-02-18_10h04.34.025,comp,2024.2.4,60.14615287544884,2025-02-18 10h05.01.066353 -0500,
98,98,0,filler_square,None,None,None,None,None,None,None,None,None,None,3,1.141782283782959,None,,,,,0,0,0,0,0,98,98,176,467.58460783958435,,,,,,,,,,,,,,,,,,,,,,,,,,,,,,,,,,,,,,,,,,,,,,,,,,,,,,,,,,,,,,,,,,,,,,,,,,,,,,,,,90.75800655721063,68.13952802142434,82.3745087939985,89.7544271843895,101.11088571646985,101.11088571646985,3.0,3.2,-175,-285,0,-18,191,260,467.5702109336853,467.57025241851807,467.5727074146271,467.58460783958435,467.7346456050873,467.7346456050873,467.7346456050873,467.7346456050873,467.7346456050873,467.7346456050873,467.7346456050873,468.7358651161194,3,1.141782283782959,None,,,,,,,,,,,,,,,,,,5,5,2025-02-18_10h04.34.025,comp,2024.2.4,60.14615287544884,2025-02-18 10h05.01.066353 -0500,
99,99,0,critical,dwh,35.0,1.0,upper,127.0,127.0,125.0,200.0,200.0,125.0,2,6.126798152923584,None,,,,,0,0,0,0,0,99,99,61,468.7515540122986,,,,,,,,,,,,,,,,,,,,,,,,,,,,,,,,,,,,,,,,,,,,,,,,,,,,,,,,,,,,,,,,,,,,,,,,,,,,,,,,,127.0,127.0,125.0,200.0,200.0,125.0,1.0,1.1,-740,286,-480,285,-222,265,468.73666405677795,468.73670721054077,468.73903250694275,468.7515540122986,468.9015498161316,468.9015498161316,468.9015498161316,468.9015498161316,468.9015498161316,468.9015498161316,468.9015498161316,474.8859660625458,2,6.126798152923584,None,,,,,,,,,,,,,,,,,,5,5,2025-02-18_10h04.34.025,comp,2024.2.4,60.14615287544884,2025-02-18 10h05.01.066353 -0500,
100,100,0,catch,None,None,None,None,None,None,None,None,None,None,1,1.4878177642822266,None,,,,,0,0,0,0,0,100,100,122,474.901504278183,,,,,,,,,,,,,,,,,,,,,,,,,,,,,,,,,,,,,,,,,,,,,,,,,,,,,,,,,,,,,,,,,,,,,,,,,,,,,,,,,191,134,104,86,80,110,2.2,2.21,-206,-268,0,272,194,277,474.8870441913605,474.88708877563477,474.8892185688019,474.901504278183,475.0513496398926,475.0513496398926,475.0513496398926,475.0513496398926,475.0513496398926,475.0513496398926,475.0513496398926,476.40244126319885,1,1.4878177642822266,None,,,,,,,,,,,,,,,,,,5,5,2025-02-18_10h04.34.025,comp,2024.2.4,60.14615287544884,2025-02-18 10h05.01.066353 -0500,
101,101,0,critical,wdh,35.0,4.0,upper,125.0,200.0,127.0,127.0,200.0,125.0,1,1.9171948432922363,None,,,,,0,0,0,0,0,101,101,77,476.4177429676056,,,,,,,,,,,,,,,,,,,,,,,,,,,,,,,,,,,,,,,,,,,,,,,,,,,,,,,,,,,,,,,,,,,,,,,,,,,,,,,,,125.0,200.0,127.0,127.0,200.0,125.0,4.0,4.2,-260,-1,0,-252,222,-17,476.4032154083252,476.40325570106506,476.4057631492615,476.4177429676056,476.5682199001312,476.5682199001312,476.5682199001312,476.5682199001312,476.5682199001312,476.5682199001312,476.5682199001312,478.33613634109497,1,1.9171948432922363,None,,,,,,,,,,,,,,,,,,5,5,2025-02-18_10h04.34.025,comp,2024.2.4,60.14615287544884,2025-02-18 10h05.01.066353 -0500,
102,102,0,filler_random,None,None,None,None,None,None,None,None,None,None,2,2.992072105407715,None,,,,,0,0,0,0,0,102,102,142,478.35126781463623,,,,,,,,,,,,,,,,,,,,,,,,,,,,,,,,,,,,,,,,,,,,,,,,,,,,,,,,,,,,,,,,,,,,,,,,,,,,,,,,,186.15136439047183,111.16601063788625,118.01132839291593,193.76773455621037,162.63667982675958,109.31861819141596,3.0,3.2,-248,-265,0,4,248,276,478.33715867996216,478.33719968795776,478.33969378471375,478.35126781463623,478.5013554096222,478.5013554096222,478.5013554096222,478.5013554096222,478.5013554096222,478.5013554096222,478.5013554096222,481.3523232936859,2,2.992072105407715,None,,,,,,,,,,,,,,,,,,5,5,2025-02-18_10h04.34.025,comp,2024.2.4,60.14615287544884,2025-02-18 10h05.01.066353 -0500,
103,103,0,filler_square,None,None,None,None,None,None,None,None,None,None,3,1.6781907081604004,None,,,,,0,0,0,0,0,103,103,193,481.3679494857788,,,,,,,,,,,,,,,,,,,,,,,,,,,,,,,,,,,,,,,,,,,,,,,,,,,,,,,,,,,,,,,,,,,,,,,,,,,,,,,,,128.68259391410308,135.81729571692256,59.80331086314601,67.44861817424261,151.89262805639726,151.89262805639726,3.0,3.1,-198,289,0,15,206,-270,481.3532407283783,481.35328102111816,481.35576343536377,481.3679494857788,481.51795053482056,481.51795053482056,481.51795053482056,481.51795053482056,481.51795053482056,481.51795053482056,481.51795053482056,483.05238795280457,3,1.6781907081604004,None,,,,,,,,,,,,,,,,,,5,5,2025-02-18_10h04.34.025,comp,2024.2.4,60.14615287544884,2025-02-18 10h05.01.066353 -0500,
104,104,0,critical,hwd,20.0,1.0,upper,200.0,125.0,125.0,200.0,141.0,141.0,2,2.283482074737549,None,,,,,0,0,0,0,0,104,104,103,483.06793451309204,,,,,,,,,,,,,,,,,,,,,,,,,,,,,,,,,,,,,,,,,,,,,,,,,,,,,,,,,,,,,,,,,,,,,,,,,,,,,,,,,200.0,125.0,125.0,200.0,141.0,141.0,1.0,1.1,-738,278,-480,260,-214,274,483.0531852245331,483.0532262325287,483.05575942993164,483.06793451309204,483.2180528640747,483.2180528640747,483.2180528640747,483.2180528640747,483.2180528640747,483.2180528640747,483.2180528640747,485.35268473625183,2,2.283482074737549,None,,,,,,,,,,,,,,,,,,5,5,2025-02-18_10h04.34.025,comp,2024.2.4,60.14615287544884,2025-02-18 10h05.01.066353 -0500,
105,105,0,critical,dwh,20.0,2.1,lower,78.0,78.0,57.0,133.0,133.0,57.0,1,5.021200656890869,None,,,,,0,0,0,0,0,105,105,6,485.3679745197296,,,,,,,,,,,,,,,,,,,,,,,,,,,,,,,,,,,,,,,,,,,,,,,,,,,,,,,,,,,,,,,,,,,,,,,,,,,,,,,,,78.0,78.0,57.0,133.0,133.0,57.0,2.1,2.11,-202,280,0,281,191,-263,485.35351276397705,485.3535542488098,485.3558521270752,485.3679745197296,485.5177900791168,485.5177900791168,485.5177900791168,485.5177900791168,485.5177900791168,485.5177900791168,485.5177900791168,490.40227699279785,1,5.021200656890869,None,,,,,,,,,,,,,,,,,,5,5,2025-02-18_10h04.34.025,comp,2024.2.4,60.14615287544884,2025-02-18 10h05.01.066353 -0500,
106,106,0,critical,wdh,35.0,1.0,upper,125.0,200.0,127.0,127.0,200.0,125.0,1,5.100521564483643,None,,,,,0,0,0,0,0,106,106,73,490.4175503253937,,,,,,,,,,,,,,,,,,,,,,,,,,,,,,,,,,,,,,,,,,,,,,,,,,,,,,,,,,,,,,,,,,,,,,,,,,,,,,,,,125.0,200.0,127.0,127.0,200.0,125.0,1.0,1.1,-740,275,-480,268,-258,286,490.4030849933624,490.4031255245209,490.4055845737457,490.4175503253937,490.567843914032,490.567843914032,490.567843914032,490.567843914032,490.567843914032,490.567843914032,490.567843914032,495.5191926956177,1,5.100521564483643,None,,,,,,,,,,,,,,,,,,5,5,2025-02-18_10h04.34.025,comp,2024.2.4,60.14615287544884,2025-02-18 10h05.01.066353 -0500,
107,107,0,critical,wdh,35.0,4.0,lower,57.0,133.0,70.0,70.0,133.0,57.0,3,3.2649707794189453,None,,,,,0,0,0,0,0,107,107,76,495.5345754623413,,,,,,,,,,,,,,,,,,,,,,,,,,,,,,,,,,,,,,,,,,,,,,,,,,,,,,,,,,,,,,,,,,,,,,,,,,,,,,,,,57.0,133.0,70.0,70.0,133.0,57.0,4.0,4.2,-198,1,0,-271,160,6,495.5199809074402,495.52002000808716,495.52299904823303,495.5345754623413,495.68419098854065,495.68419098854065,495.68419098854065,495.68419098854065,495.68419098854065,495.68419098854065,495.68419098854065,498.80219411849976,3,3.2649707794189453,None,,,,,,,,,,,,,,,,,,5,5,2025-02-18_10h04.34.025,comp,2024.2.4,60.14615287544884,2025-02-18 10h05.01.066353 -0500,
108,108,0,critical,dwh,20.0,4.0,upper,141.0,141.0,125.0,200.0,200.0,125.0,2,2.0282561779022217,None,,,,,0,0,0,0,0,108,108,71,498.817654132843,,,,,,,,,,,,,,,,,,,,,,,,,,,,,,,,,,,,,,,,,,,,,,,,,,,,,,,,,,,,,,,,,,,,,,,,,,,,,,,,,141.0,141.0,125.0,200.0,200.0,125.0,4.0,4.2,-266,-14,0,-281,258,-17,498.80296754837036,498.8030095100403,498.8050594329834,498.817654132843,498.9677731990814,498.9677731990814,498.9677731990814,498.9677731990814,498.9677731990814,498.9677731990814,498.9677731990814,500.85238814353943,2,2.0282561779022217,None,,,,,,,,,,,,,,,,,,5,5,2025-02-18_10h04.34.025,comp,2024.2.4,60.14615287544884,2025-02-18 10h05.01.066353 -0500,
109,109,0,critical,dhw,35.0,2.1,lower,70.0,70.0,133.0,57.0,57.0,133.0,2,2.569978952407837,None,,,,,0,0,0,0,0,109,109,0,500.8677234649658,,,,,,,,,,,,,,,,,,,,,,,,,,,,,,,,,,,,,,,,,,,,,,,,,,,,,,,,,,,,,,,,,,,,,,,,,,,,,,,,,70.0,70.0,133.0,57.0,57.0,133.0,2.1,2.12,-160,-254,0,-265,191,256,500.85319781303406,500.853239774704,500.8558316230774,500.8677234649658,501.0179479122162,501.0179479122162,501.0179479122162,501.0179479122162,501.0179479122162,501.0179479122162,501.0179479122162,503.45240807533264,2,2.569978952407837,None,,,,,,,,,,,,,,,,,,5,5,2025-02-18_10h04.34.025,comp,2024.2.4,60.14615287544884,2025-02-18 10h05.01.066353 -0500,
110,110,0,critical,whd,20.0,1.0,upper,125.0,200.0,200.0,125.0,141.0,141.0,1,1.8266191482543945,None,,,,,0,0,0,0,0,110,110,91,503.46743059158325,,,,,,,,,,,,,,,,,,,,,,,,,,,,,,,,,,,,,,,,,,,,,,,,,,,,,,,,,,,,,,,,,,,,,,,,,,,,,,,,,125.0,200.0,200.0,125.0,141.0,141.0,1.0,1.2,-258,-9,0,-2,229,15,503.4531989097595,503.4532389640808,503.4556794166565,503.46743059158325,503.6177167892456,503.6177167892456,503.6177167892456,503.6177167892456,503.6177167892456,503.6177167892456,503.6177167892456,505.30215787887573,1,1.8266191482543945,None,,,,,,,,,,,,,,,,,,5,5,2025-02-18_10h04.34.025,comp,2024.2.4,60.14615287544884,2025-02-18 10h05.01.066353 -0500,
111,111,0,catch,None,None,None,None,None,None,None,None,None,None,3,2.424875259399414,None,,,,,0,0,0,0,0,111,111,126,505.31771063804626,,,,,,,,,,,,,,,,,,,,,,,,,,,,,,,,,,,,,,,,,,,,,,,,,,,,,,,,,,,,,,,,,,,,,,,,,,,,,,,,,80,110,63,127,183,142,2.2,2.21,-214,-255,0,278,230,276,505.3032212257385,505.3032650947571,505.3054175376892,505.31771063804626,505.46758222579956,505.46758222579956,505.46758222579956,505.46758222579956,505.46758222579956,505.46758222579956,505.46758222579956,507.7520294189453,3,2.424875259399414,None,,,,,,,,,,,,,,,,,,5,5,2025-02-18_10h04.34.025,comp,2024.2.4,60.14615287544884,2025-02-18 10h05.01.066353 -0500,
112,112,0,filler_square,None,None,None,None,None,None,None,None,None,None,2,1.1265249252319336,None,,,,,0,0,0,0,0,112,112,208,507.76764965057373,,,,,,,,,,,,,,,,,,,,,,,,,,,,,,,,,,,,,,,,,,,,,,,,,,,,,,,,,,,,,,,,,,,,,,,,,,,,,,,,,106.69047388337493,70.83653540752479,196.31119234076832,196.31119234076832,69.86560492355623,178.34667455918776,2.2,2.22,-230,278,0,-256,283,-251,507.75298166275024,507.75302505493164,507.75599122047424,507.76764965057373,507.9179861545563,507.9179861545563,507.9179861545563,507.9179861545563,507.9179861545563,507.9179861545563,507.9179861545563,508.90215253829956,2,1.1265249252319336,None,,,,,,,,,,,,,,,,,,5,5,2025-02-18_10h04.34.025,comp,2024.2.4,60.14615287544884,2025-02-18 10h05.01.066353 -0500,
113,113,0,filler_square,None,None,None,None,None,None,None,None,None,None,3,2.600250720977783,None,,,,,0,0,0,0,0,113,113,198,508.91768288612366,,,,,,,,,,,,,,,,,,,,,,,,,,,,,,,,,,,,,,,,,,,,,,,,,,,,,,,,,,,,,,,,,,,,,,,,,,,,,,,,,63.49485123581099,71.80026484331259,81.88596198891798,102.39924316974279,102.6622306204449,102.6622306204449,3.0,3.1,-183,266,0,12,199,-281,508.9031093120575,508.9031503200531,508.90529680252075,508.91768288612366,509.06770944595337,509.06770944595337,509.06770944595337,509.06770944595337,509.06770944595337,509.06770944595337,509.06770944595337,511.53524947166443,3,2.600250720977783,None,,,,,,,,,,,,,,,,,,5,5,2025-02-18_10h04.34.025,comp,2024.2.4,60.14615287544884,2025-02-18 10h05.01.066353 -0500,
114,114,0,critical,hdw,35.0,1.0,upper,200.0,125.0,127.0,127.0,125.0,200.0,3,2.879197597503662,None,,,,,0,0,0,0,0,114,114,109,511.5507514476776,,,,,,,,,,,,,,,,,,,,,,,,,,,,,,,,,,,,,,,,,,,,,,,,,,,,,,,,,,,,,,,,,,,,,,,,,,,,,,,,,200.0,125.0,127.0,127.0,125.0,200.0,1.0,1.3,258,-269,480,-268,740,-265,511.5360460281372,511.5360863208771,511.53856110572815,511.5507514476776,511.70094561576843,511.70094561576843,511.70094561576843,511.70094561576843,511.70094561576843,511.70094561576843,511.70094561576843,514.4356198310852,3,2.879197597503662,None,,,,,,,,,,,,,,,,,,5,5,2025-02-18_10h04.34.025,comp,2024.2.4,60.14615287544884,2025-02-18 10h05.01.066353 -0500,
115,115,0,critical,dwh,20.0,1.0,upper,141.0,141.0,125.0,200.0,200.0,125.0,2,1.394754409790039,None,,,,,0,0,0,0,0,115,115,67,514.4510133266449,,,,,,,,,,,,,,,,,,,,,,,,,,,,,,,,,,,,,,,,,,,,,,,,,,,,,,,,,,,,,,,,,,,,,,,,,,,,,,,,,141.0,141.0,125.0,200.0,200.0,125.0,1.0,1.2,-266,14,0,-11,258,6,514.436381816864,514.4364223480225,514.4388673305511,514.4510133266449,514.6010339260101,514.6010339260101,514.6010339260101,514.6010339260101,514.6010339260101,514.6010339260101,514.6010339260101,515.852064371109,2,1.394754409790039,None,,,,,,,,,,,,,,,,,,5,5,2025-02-18_10h04.34.025,comp,2024.2.4,60.14615287544884,2025-02-18 10h05.01.066353 -0500,
116,116,0,filler_random,None,None,None,None,None,None,None,None,None,None,1,1.2671327590942383,None,,,,,0,0,0,0,0,116,116,148,515.8674054145813,,,,,,,,,,,,,,,,,,,,,,,,,,,,,,,,,,,,,,,,,,,,,,,,,,,,,,,,,,,,,,,,,,,,,,,,,,,,,,,,,167.62135889794192,177.28856671858517,167.89240500000344,108.12451647490849,81.71702921599575,81.81533107163818,2.1,2.11,-239,251,0,254,191,-284,515.8529815673828,515.853022813797,515.8554232120514,515.8674054145813,516.0175628662109,516.0175628662109,516.0175628662109,516.0175628662109,516.0175628662109,516.0175628662109,516.0175628662109,517.1357245445251,1,1.2671327590942383,None,,,,,,,,,,,,,,,,,,5,5,2025-02-18_10h04.34.025,comp,2024.2.4,60.14615287544884,2025-02-18 10h05.01.066353 -0500,
117,117,0,filler_square,None,None,None,None,None,None,None,None,None,None,2,1.8058199882507324,None,,,,,0,0,0,0,0,117,117,190,517.1508278846741,,,,,,,,,,,,,,,,,,,,,,,,,,,,,,,,,,,,,,,,,,,,,,,,,,,,,,,,,,,,,,,,,,,,,,,,,,,,,,,,,151.0244951005406,68.9937494711508,156.29893030348092,156.29893030348092,150.0576314408674,115.78545391243046,1.0,1.3,271,-252,480,-258,712,-265,517.1367349624634,517.1367766857147,517.1390337944031,517.1508278846741,517.3007974624634,517.3007974624634,517.3007974624634,517.3007974624634,517.3007974624634,517.3007974624634,517.3007974624634,518.9690363407135,2,1.8058199882507324,None,,,,,,,,,,,,,,,,,,5,5,2025-02-18_10h04.34.025,comp,2024.2.4,60.14615287544884,2025-02-18 10h05.01.066353 -0500,
118,118,0,critical,dhw,35.0,3.0,lower,70.0,70.0,133.0,57.0,57.0,133.0,3,1.485002040863037,None,,,,,0,0,0,0,0,118,118,50,518.9838016033173,,,,,,,,,,,,,,,,,,,,,,,,,,,,,,,,,,,,,,,,,,,,,,,,,,,,,,,,,,,,,,,,,,,,,,,,,,,,,,,,,70.0,70.0,133.0,57.0,57.0,133.0,3.0,3.1,-160,273,0,7,191,-267,518.9698152542114,518.9698572158813,518.9720191955566,518.9838016033173,519.1340095996857,519.1340095996857,519.1340095996857,519.1340095996857,519.1340095996857,519.1340095996857,519.1340095996857,520.4852344989777,3,1.485002040863037,None,,,,,,,,,,,,,,,,,,5,5,2025-02-18_10h04.34.025,comp,2024.2.4,60.14615287544884,2025-02-18 10h05.01.066353 -0500,
119,119,0,filler_random,None,None,None,None,None,None,None,None,None,None,3,1.3287653923034668,None,,,,,0,0,0,0,0,119,119,136,520.5008203983307,,,,,,,,,,,,,,,,,,,,,,,,,,,,,,,,,,,,,,,,,,,,,,,,,,,,,,,,,,,,,,,,,,,,,,,,,,,,,,,,,81.36841665671736,79.04570494700276,121.08095343208714,110.78890465445112,144.93380197372957,111.01920436801767,1.0,1.1,-671,281,-480,260,-273,260,520.4862849712372,520.4863276481628,520.489828824997,520.5008203983307,520.6508243083954,520.6508243083954,520.6508243083954,520.6508243083954,520.6508243083954,520.6508243083954,520.6508243083954,521.8351585865021,3,1.3287653923034668,None,,,,,,,,,,,,,,,,,,5,5,2025-02-18_10h04.34.025,comp,2024.2.4,60.14615287544884,2025-02-18 10h05.01.066353 -0500,
120,120,0,critical,wdh,20.0,2.1,upper,125.0,200.0,141.0,141.0,200.0,125.0,1,3.3493916988372803,None,,,,,0,0,0,0,0,120,120,11,521.8506743907928,,,,,,,,,,,,,,,,,,,,,,,,,,,,,,,,,,,,,,,,,,,,,,,,,,,,,,,,,,,,,,,,,,,,,,,,,,,,,,,,,125.0,200.0,141.0,141.0,200.0,125.0,2.1,2.12,-266,-254,0,-284,229,250,521.8359844684601,521.8360266685486,521.8384447097778,521.8506743907928,522.0009405612946,522.0009405612946,522.0009405612946,522.0009405612946,522.0009405612946,522.0009405612946,522.0009405612946,525.2019972801208,1,3.3493916988372803,None,,,,,,,,,,,,,,,,,,5,5,2025-02-18_10h04.34.025,comp,2024.2.4,60.14615287544884,2025-02-18 10h05.01.066353 -0500,
121,121,0,critical,whd,20.0,2.1,lower,57.0,133.0,133.0,57.0,78.0,78.0,3,8.09230089187622,None,,,,,0,0,0,0,0,121,121,38,525.2174067497253,,,,,,,,,,,,,,,,,,,,,,,,,,,,,,,,,,,,,,,,,,,,,,,,,,,,,,,,,,,,,,,,,,,,,,,,,,,,,,,,,57.0,133.0,133.0,57.0,78.0,78.0,2.1,2.12,-191,-271,0,-289,164,254,525.2028858661652,525.2029385566711,525.2053453922272,525.2174067497253,525.3673515319824,525.3673515319824,525.3673515319824,525.3673515319824,525.3673515319824,525.3673515319824,525.3673515319824,533.3183658123016,3,8.09230089187622,None,,,,,,,,,,,,,,,,,,5,5,2025-02-18_10h04.34.025,comp,2024.2.4,60.14615287544884,2025-02-18 10h05.01.066353 -0500,
122,122,0,filler_square,None,None,None,None,None,None,None,None,None,None,3,1.807845115661621,None,,,,,0,0,0,0,0,122,122,187,533.3342461585999,,,,,,,,,,,,,,,,,,,,,,,,,,,,,,,,,,,,,,,,,,,,,,,,,,,,,,,,,,,,,,,,,,,,,,,,,,,,,,,,,112.18467966207643,122.39041884386441,103.24680940911833,66.98062574303816,131.22521050698896,131.22521050698896,2.1,2.11,-191,257,0,265,195,-274,533.3193123340607,533.3193547725677,533.3214757442474,533.3342461585999,533.4838216304779,533.4838216304779,533.4838216304779,533.4838216304779,533.4838216304779,533.4838216304779,533.4838216304779,535.1515793800354,3,1.807845115661621,None,,,,,,,,,,,,,,,,,,5,5,2025-02-18_10h04.34.025,comp,2024.2.4,60.14615287544884,2025-02-18 10h05.01.066353 -0500,
123,123,0,filler_random,None,None,None,None,None,None,None,None,None,None,3,8.110246181488037,None,,,,,0,0,0,0,0,123,123,169,535.1672718524933,,,,,,,,,,,,,,,,,,,,,,,,,,,,,,,,,,,,,,,,,,,,,,,,,,,,,,,,,,,,,,,,,,,,,,,,,,,,,,,,,69.52499593703908,152.33784917857918,58.30529835704371,195.55071666852464,90.78160402551676,129.1978370584406,4.0,4.2,-270,3,0,-262,258,17,535.1525919437408,535.152636051178,535.1553328037262,535.1672718524933,535.3171243667603,535.3171243667603,535.3171243667603,535.3171243667603,535.3171243667603,535.3171243667603,535.3171243667603,543.2848560810089,3,8.110246181488037,None,,,,,,,,,,,,,,,,,,5,5,2025-02-18_10h04.34.025,comp,2024.2.4,60.14615287544884,2025-02-18 10h05.01.066353 -0500,
124,124,0,critical,hwd,35.0,2.1,lower,133.0,57.0,57.0,133.0,70.0,70.0,2,2.968290090560913,None,,,,,0,0,0,0,0,124,124,40,543.3004515171051,,,,,,,,,,,,,,,,,,,,,,,,,,,,,,,,,,,,,,,,,,,,,,,,,,,,,,,,,,,,,,,,,,,,,,,,,,,,,,,,,133.0,57.0,57.0,133.0,70.0,70.0,2.1,2.12,-191,-287,0,-281,198,272,543.285665512085,543.2857048511505,543.2877404689789,543.3004515171051,543.4505269527435,543.4505269527435,543.4505269527435,543.4505269527435,543.4505269527435,543.4505269527435,543.4505269527435,546.2847044467926,2,2.968290090560913,None,,,,,,,,,,,,,,,,,,5,5,2025-02-18_10h04.34.025,comp,2024.2.4,60.14615287544884,2025-02-18 10h05.01.066353 -0500,
125,125,0,filler_square,None,None,None,None,None,None,None,None,None,None,3,1.0997328758239746,None,,,,,0,0,0,0,0,125,125,200,546.3002564907074,,,,,,,,,,,,,,,,,,,,,,,,,,,,,,,,,,,,,,,,,,,,,,,,,,,,,,,,,,,,,,,,,,,,,,,,,,,,,,,,,135.11273521402168,67.42298110085525,120.81451315609664,89.13144117503808,140.6440678994443,140.6440678994443,2.1,2.11,-174,272,0,262,211,-256,546.2856938838959,546.2857356071472,546.2878551483154,546.3002564907074,546.4505217075348,546.4505217075348,546.4505217075348,546.4505217075348,546.4505217075348,546.4505217075348,546.4505217075348,547.4016258716583,3,1.0997328758239746,None,,,,,,,,,,,,,,,,,,5,5,2025-02-18_10h04.34.025,comp,2024.2.4,60.14615287544884,2025-02-18 10h05.01.066353 -0500,
126,126,0,critical,whd,35.0,2.1,upper,125.0,200.0,200.0,125.0,127.0,127.0,1,1.997175931930542,None,,,,,0,0,0,0,0,126,126,37,547.4170525074005,,,,,,,,,,,,,,,,,,,,,,,,,,,,,,,,,,,,,,,,,,,,,,,,,,,,,,,,,,,,,,,,,,,,,,,,,,,,,,,,,125.0,200.0,200.0,125.0,127.0,127.0,2.1,2.11,-258,253,0,285,222,-272,547.4023959636688,547.4024343490601,547.404538154602,547.4170525074005,547.5672011375427,547.5672011375427,547.5672011375427,547.5672011375427,547.5672011375427,547.5672011375427,547.5672011375427,549.4183413982391,1,1.997175931930542,None,,,,,,,,,,,,,,,,,,5,5,2025-02-18_10h04.34.025,comp,2024.2.4,60.14615287544884,2025-02-18 10h05.01.066353 -0500,
127,127,0,critical,wdh,35.0,3.0,upper,125.0,200.0,127.0,127.0,200.0,125.0,1,3.859511137008667,None,,,,,0,0,0,0,0,127,127,75,549.4337286949158,,,,,,,,,,,,,,,,,,,,,,,,,,,,,,,,,,,,,,,,,,,,,,,,,,,,,,,,,,,,,,,,,,,,,,,,,,,,,,,,,125.0,200.0,127.0,127.0,200.0,125.0,3.0,3.1,-260,281,0,10,222,-264,549.4191188812256,549.4191606044769,549.4213118553162,549.4337286949158,549.5837960243225,549.5837960243225,549.5837960243225,549.5837960243225,549.5837960243225,549.5837960243225,549.5837960243225,553.3014590740204,1,3.859511137008667,None,,,,,,,,,,,,,,,,,,5,5,2025-02-18_10h04.34.025,comp,2024.2.4,60.14615287544884,2025-02-18 10h05.01.066353 -0500,
128,128,0,filler_random,None,None,None,None,None,None,None,None,None,None,3,3.5355024337768555,None,,,,,0,0,0,0,0,128,128,147,553.3169746398926,,,,,,,,,,,,,,,,,,,,,,,,,,,,,,,,,,,,,,,,,,,,,,,,,,,,,,,,,,,,,,,,,,,,,,,,,,,,,,,,,75.69065307529442,92.60594691330733,110.0111274749479,191.9000823086923,113.1553224235616,197.1800514902012,4.0,4.2,-238,16,0,-287,291,-14,553.3023750782013,553.3024179935455,553.3051130771637,553.3169746398926,553.4670178890228,553.4670178890228,553.4670178890228,553.4670178890228,553.4670178890228,553.4670178890228,553.4670178890228,556.8680286407471,3,3.5355024337768555,None,,,,,,,,,,,,,,,,,,5,5,2025-02-18_10h04.34.025,comp,2024.2.4,60.14615287544884,2025-02-18 10h05.01.066353 -0500,
129,129,0,critical,whd,20.0,2.1,upper,125.0,200.0,200.0,125.0,141.0,141.0,1,2.0836069583892822,None,,,,,0,0,0,0,0,129,129,39,556.8833749294281,,,,,,,,,,,,,,,,,,,,,,,,,,,,,,,,,,,,,,,,,,,,,,,,,,,,,,,,,,,,,,,,,,,,,,,,,,,,,,,,,125.0,200.0,200.0,125.0,141.0,141.0,2.1,2.12,-258,-260,0,-288,229,271,556.8688189983368,556.8688580989838,556.8709661960602,556.8833749294281,557.0337126255035,557.0337126255035,557.0337126255035,557.0337126255035,557.0337126255035,557.0337126255035,557.0337126255035,558.9846999645233,1,2.0836069583892822,None,,,,,,,,,,,,,,,,,,5,5,2025-02-18_10h04.34.025,comp,2024.2.4,60.14615287544884,2025-02-18 10h05.01.066353 -0500,
130,130,0,filler_square,None,None,None,None,None,None,None,None,None,None,2,1.413952350616455,None,,,,,0,0,0,0,0,130,130,183,559.000011920929,,,,,,,,,,,,,,,,,,,,,,,,,,,,,,,,,,,,,,,,,,,,,,,,,,,,,,,,,,,,,,,,,,,,,,,,,,,,,,,,,120.68402881029564,117.4523744197579,184.7526631032008,184.7526631032008,59.82113861751874,75.50980484914116,2.1,2.12,-247,-258,0,-260,226,261,558.9856100082397,558.985648393631,558.9876697063446,559.000011920929,559.150223493576,559.150223493576,559.150223493576,559.150223493576,559.150223493576,559.150223493576,559.150223493576,560.4181065559387,2,1.413952350616455,None,,,,,,,,,,,,,,,,,,5,5,2025-02-18_10h04.34.025,comp,2024.2.4,60.14615287544884,2025-02-18 10h05.01.066353 -0500,
131,131,0,critical,dhw,35.0,2.1,lower,70.0,70.0,133.0,57.0,57.0,133.0,2,2.8348140716552734,None,,,,,0,0,0,0,0,131,131,24,560.4337944984436,,,,,,,,,,,,,,,,,,,,,,,,,,,,,,,,,,,,,,,,,,,,,,,,,,,,,,,,,,,,,,,,,,,,,,,,,,,,,,,,,70.0,70.0,133.0,57.0,57.0,133.0,2.1,2.11,-160,250,0,283,191,-256,560.4189314842224,560.4189736843109,560.4211366176605,560.4337944984436,560.5835638046265,560.5835638046265,560.5835638046265,560.5835638046265,560.5835638046265,560.5835638046265,560.5835638046265,563.2845718860626,2,2.8348140716552734,None,,,,,,,,,,,,,,,,,,5,5,2025-02-18_10h04.34.025,comp,2024.2.4,60.14615287544884,2025-02-18 10h05.01.066353 -0500,
132,132,0,filler_square,None,None,None,None,None,None,None,None,None,None,1,1.552292823791504,None,,,,,0,0,0,0,0,132,132,205,563.2999992370605,,,,,,,,,,,,,,,,,,,,,,,,,,,,,,,,,,,,,,,,,,,,,,,,,,,,,,,,,,,,,,,,,,,,,,,,,,,,,,,,,132.90586465466396,132.90586465466396,117.34327620485493,63.43398339943643,66.65123724261338,73.63329213394765,4.0,4.1,-194,-271,0,-3,165,-268,563.2858169078827,563.2858579158783,563.2880718708038,563.2999992370605,563.4500803947449,563.4500803947449,563.4500803947449,563.4500803947449,563.4500803947449,563.4500803947449,563.4500803947449,564.8678638935089,1,1.552292823791504,None,,,,,,,,,,,,,,,,,,5,5,2025-02-18_10h04.34.025,comp,2024.2.4,60.14615287544884,2025-02-18 10h05.01.066353 -0500,
133,133,0,critical,dwh,20.0,3.0,upper,141.0,141.0,125.0,200.0,200.0,125.0,2,3.4338860511779785,None,,,,,0,0,0,0,0,133,133,69,564.8832993507385,,,,,,,,,,,,,,,,,,,,,,,,,,,,,,,,,,,,,,,,,,,,,,,,,,,,,,,,,,,,,,,,,,,,,,,,,,,,,,,,,141.0,141.0,125.0,200.0,200.0,125.0,3.0,3.1,-266,274,0,-17,258,-264,564.8686907291412,564.8687312602997,564.8708488941193,564.8832993507385,565.0336260795593,565.0336260795593,565.0336260795593,565.0336260795593,565.0336260795593,565.0336260795593,565.0336260795593,568.3184199333191,2,3.4338860511779785,None,,,,,,,,,,,,,,,,,,5,5,2025-02-18_10h04.34.025,comp,2024.2.4,60.14615287544884,2025-02-18 10h05.01.066353 -0500,
134,134,0,filler_square,None,None,None,None,None,None,None,None,None,None,3,2.7830495834350586,None,,,,,0,0,0,0,0,134,134,196,568.3340208530426,,,,,,,,,,,,,,,,,,,,,,,,,,,,,,,,,,,,,,,,,,,,,,,,,,,,,,,,,,,,,,,,,,,,,,,,,,,,,,,,,107.55878946391402,103.87178358358642,57.516276042628235,83.08997611387102,117.35311148505392,117.35311148505392,3.0,3.1,-189,275,0,-6,196,-264,568.3193807601929,568.3194215297699,568.3215711116791,568.3340208530426,568.4836986064911,568.4836986064911,568.4836986064911,568.4836986064911,568.4836986064911,568.4836986064911,568.4836986064911,571.1345629692078,3,2.7830495834350586,None,,,,,,,,,,,,,,,,,,5,5,2025-02-18_10h04.34.025,comp,2024.2.4,60.14615287544884,2025-02-18 10h05.01.066353 -0500,
135,135,0,filler_random,None,None,None,None,None,None,None,None,None,None,1,3.454716444015503,None,,,,,0,0,0,0,0,135,135,161,571.1499528884888,,,,,,,,,,,,,,,,,,,,,,,,,,,,,,,,,,,,,,,,,,,,,,,,,,,,,,,,,,,,,,,,,,,,,,,,,,,,,,,,,177.8747912180416,88.70262705176751,84.09213470245217,159.58833174432408,143.14773489524612,83.97928466430722,1.0,1.3,260,-263,480,-284,698,-267,571.1354854106903,571.1355261802673,571.1376399993896,571.1499528884888,571.2999982833862,571.2999982833862,571.2999982833862,571.2999982833862,571.2999982833862,571.2999982833862,571.2999982833862,574.6177406311035,1,3.454716444015503,None,,,,,,,,,,,,,,,,,,5,5,2025-02-18_10h04.34.025,comp,2024.2.4,60.14615287544884,2025-02-18 10h05.01.066353 -0500,
136,136,0,critical,whd,35.0,2.1,lower,57.0,133.0,133.0,57.0,70.0,70.0,1,3.203195810317993,None,,,,,0,0,0,0,0,136,136,12,574.6330659389496,,,,,,,,,,,,,,,,,,,,,,,,,,,,,,,,,,,,,,,,,,,,,,,,,,,,,,,,,,,,,,,,,,,,,,,,,,,,,,,,,57.0,133.0,133.0,57.0,70.0,70.0,2.1,2.11,-191,263,0,251,160,-283,574.6185359954834,574.6185767650604,574.6211686134338,574.6330659389496,574.7831575870514,574.7831575870514,574.7831575870514,574.7831575870514,574.7831575870514,574.7831575870514,574.7831575870514,577.850955247879,1,3.203195810317993,None,,,,,,,,,,,,,,,,,,5,5,2025-02-18_10h04.34.025,comp,2024.2.4,60.14615287544884,2025-02-18 10h05.01.066353 -0500,
137,137,0,filler_random,None,None,None,None,None,None,None,None,None,None,1,1.6016371250152588,None,,,,,0,0,0,0,0,137,137,131,577.8664035797119,,,,,,,,,,,,,,,,,,,,,,,,,,,,,,,,,,,,,,,,,,,,,,,,,,,,,,,,,,,,,,,,,,,,,,,,,,,,,,,,,111.75742936323304,179.74511677145574,75.05273704361322,149.8558239737927,98.7206950278272,131.19497136272997,2.2,2.21,-261,-283,0,278,237,285,577.8518722057343,577.8519251346588,577.8543126583099,577.8664035797119,578.0167901515961,578.0167901515961,578.0167901515961,578.0167901515961,578.0167901515961,578.0167901515961,578.0167901515961,579.4843871593475,1,1.6016371250152588,None,,,,,,,,,,,,,,,,,,5,5,2025-02-18_10h04.34.025,comp,2024.2.4,60.14615287544884,2025-02-18 10h05.01.066353 -0500,
138,138,0,critical,whd,20.0,4.0,upper,125.0,200.0,200.0,125.0,141.0,141.0,1,4.384215593338013,None,,,,,0,0,0,0,0,138,138,95,579.4996738433838,,,,,,,,,,,,,,,,,,,,,,,,,,,,,,,,,,,,,,,,,,,,,,,,,,,,,,,,,,,,,,,,,,,,,,,,,,,,,,,,,125.0,200.0,200.0,125.0,141.0,141.0,4.0,4.2,-258,18,0,-260,229,-19,579.4851832389832,579.485223531723,579.4876797199249,579.4996738433838,579.6502130031586,579.6502130031586,579.6502130031586,579.6502130031586,579.6502130031586,579.6502130031586,579.6502130031586,583.9010860919952,1,4.384215593338013,None,,,,,,,,,,,,,,,,,,5,5,2025-02-18_10h04.34.025,comp,2024.2.4,60.14615287544884,2025-02-18 10h05.01.066353 -0500,
139,139,0,critical,hdw,20.0,2.1,lower,133.0,57.0,78.0,78.0,57.0,133.0,3,4.850371837615967,None,,,,,0,0,0,0,0,139,139,46,583.916407585144,,,,,,,,,,,,,,,,,,,,,,,,,,,,,,,,,,,,,,,,,,,,,,,,,,,,,,,,,,,,,,,,,,,,,,,,,,,,,,,,,133.0,57.0,78.0,78.0,57.0,133.0,2.1,2.12,-164,-281,0,-258,202,265,583.9018459320068,583.9018847942352,583.9038925170898,583.916407585144,584.0665612220764,584.0665612220764,584.0665612220764,584.0665612220764,584.0665612220764,584.0665612220764,584.0665612220764,588.7843792438507,3,4.850371837615967,None,,,,,,,,,,,,,,,,,,5,5,2025-02-18_10h04.34.025,comp,2024.2.4,60.14615287544884,2025-02-18 10h05.01.066353 -0500,
140,140,0,critical,dwh,35.0,1.0,lower,70.0,70.0,57.0,133.0,133.0,57.0,2,5.261173486709595,None,,,,,0,0,0,0,0,140,140,60,588.7996261119843,,,,,,,,,,,,,,,,,,,,,,,,,,,,,,,,,,,,,,,,,,,,,,,,,,,,,,,,,,,,,,,,,,,,,,,,,,,,,,,,,70.0,70.0,57.0,133.0,133.0,57.0,1.0,1.2,-198,-6,0,11,191,11,588.7851684093475,588.7852101325989,588.7876732349396,588.7996261119843,588.9497282505035,588.9497282505035,588.9497282505035,588.9497282505035,588.9497282505035,588.9497282505035,588.9497282505035,594.067601442337,2,5.261173486709595,None,,,,,,,,,,,,,,,,,,5,5,2025-02-18_10h04.34.025,comp,2024.2.4,60.14615287544884,2025-02-18 10h05.01.066353 -0500,
