thisN,thisTrialN,thisRepN,effect,order,distance,config,diag,h_1,w_1,h_2,w_2,h_3,w_3,rect_choice.keys,rect_choice.rt,rect_choice.duration,instructions_loop.thisRepN,instructions_loop.thisTrialN,instructions_loop.thisN,instructions_loop.thisIndex,blocks.thisRepN,blocks.thisTrialN,blocks.thisN,blocks.thisIndex,trials.thisRepN,trials.thisTrialN,trials.thisN,trials.thisIndex,thisRow.t,notes,consent.started,agree_button.started,decline_button.started,consent_img.started,mouse.started,consent.stopped,agree_button.numClicks,agree_button.timesOn,agree_button.timesOff,decline_button.numClicks,decline_button.timesOn,decline_button.timesOff,mouse.x,mouse.y,mouse.leftButton,mouse.midButton,mouse.rightButton,mouse.time,mouse.clicked_name,exp_params.started,exp_params.stopped,welcome.started,welcome_text.started,welcome.stopped,instructions_1.started,instructions_1_text_1.started,instructions_1_text_2.started,key_resp.started,instructions_1.stopped,instructions_loop.key_resp.keys,instructions_loop.key_resp.rt,instructions_loop.key_resp.duration,instructions_2.started,instructions_2_text_1.started,instructions_2_text_2.started,key_resp_2.started,instructions_2.stopped,instructions_loop.key_resp_2.keys,instructions_loop.key_resp_2.rt,instructions_loop.key_resp_2.duration,instructions_3.started,instructions_3_text_1.started,r1_instr3.started,r2_instr3.started,r3_instr3.started,r1_instr3_label.started,r2_instr3_label.started,r3_instr3_label.started,instructions_3_text_3.started,instructions_3_text_4.started,key_resp_3.started,instructions_3.stopped,instructions_loop.key_resp_3.keys,instructions_loop.key_resp_3.rt,instructions_loop.key_resp_3.duration,instructions_4.started,instructions_4_text_1.started,instructions_4_text_3.started,instructions_4_text_2.started,key_resp_4.started,instructions_4.stopped,instructions_loop.key_resp_4.keys,instructions_loop.key_resp_4.rt,instructions_loop.key_resp_4.duration,instructions_5.started,instructions_5_text_1.started,instructions_5_text_2.started,key_resp_5.started,instructions_5.stopped,instructions_loop.key_resp_5.keys,instructions_loop.key_resp_5.rt,instructions_loop.key_resp_5.duration,start_exp.started,start_exp_text.started,key_resp_6.started,start_exp.stopped,key_resp_6.keys,key_resp_6.rt,key_resp_6.duration,h_1_tmp,w_1_tmp,h_2_tmp,w_2_tmp,h_3_tmp,w_3_tmp,config_tmp,config_tmp_1,r_1_x,r_1_y,r_2_x,r_2_y,r_3_x,r_3_y,pre_trial.started,pre_trial.stopped,choice_trial.started,rect_choice.started,r_1.started,r_2.started,r_3.started,r_1_label.started,r_2_label.started,r_3_label.started,prompt.started,choice_trial.stopped,trials.rect_choice.keys,trials.rect_choice.rt,trials.rect_choice.duration,end_block.started,end_block_text.started,end_block.stopped,end.started,end_text.started,key_resp_7.started,end.stopped,key_resp_7.keys,key_resp_7.rt,key_resp_7.duration,debriefing.started,debrief_form.started,end_debrief.started,debriefing.stopped,end_debrief.keys,end_debrief.rt,end_debrief.duration,participant,computer,date,expName,psychopyVersion,frameRate,expStart,
,,,,,,,,,,,,,,,,,,,,,,,,,,,,,,,0.014829874038696289,0.03487586975097656,0.03487586975097656,0.03487586975097656,0.014624595642089844,103.19288063049316,1,[103.1557469367981],[103.15576815605164],0,,,[-60.0],[-505.0],[1],[0],[0],[103.1775574684143],['agree_button'],,,,,,,,,,,,,,,,,,,,,,,,,,,,,,,,,,,,,,,,,,,,,,,,,,,,,,,,,,,,,,,,,,,,,,,,,,,,,,,,,,,,,,,,,,,,,,,,,,,,,,,,,,,60,1,2025-02-19_16h45.59.841,comp,2024.2.4,56.88611124673817,2025-02-19 16h47.40.347399 -0500,
,,,,,,,,,,,,,,,,,,,,,,,,,,,,,,,,,,,,,,,,,,,,,,,,,,103.19338321685791,103.19344735145569,,,,,,,,,,,,,,,,,,,,,,,,,,,,,,,,,,,,,,,,,,,,,,,,,,,,,,,,,,,,,,,,,,,,,,,,,,,,,,,,,,,,,,,,,,,,,,,,,,,,,,,,,60,1,2025-02-19_16h45.59.841,comp,2024.2.4,56.88611124673817,2025-02-19 16h47.40.347399 -0500,
,,,,,,,,,,,,,,,,,,,,,,,,,,,,,,,,,,,,,,,,,,,,,,,,,,,,103.19349002838135,103.20674395561218,105.20655488967896,,,,,,,,,,,,,,,,,,,,,,,,,,,,,,,,,,,,,,,,,,,,,,,,,,,,,,,,,,,,,,,,,,,,,,,,,,,,,,,,,,,,,,,,,,,,,,,,,,,,,,60,1,2025-02-19_16h45.59.841,comp,2024.2.4,56.88611124673817,2025-02-19 16h47.40.347399 -0500,
0,0,0,,,,,,,,,,,,,,,0,0,0,0,,,,,,,,,105.22351169586182,,,,,,,,,,,,,,,,,,,,,,,,,,105.20749878883362,105.22351169586182,105.22351169586182,106.70468068122864,109.0275399684906,space,2.305469036102295,None,109.02768349647522,109.04305100440979,109.04305100440979,110.54122614860535,114.5433738231659,space,3.988957405090332,None,114.54353260993958,114.57266139984131,114.57266139984131,114.57266139984131,114.57266139984131,114.57266139984131,114.57266139984131,114.57266139984131,114.57266139984131,114.57266139984131,116.04446387290955,121.09993577003479,space,5.04625678062439,None,121.10016345977783,121.12281703948975,121.12281703948975,121.12281703948975,122.61582207679749,128.0975148677826,space,5.466464519500732,None,128.09766626358032,128.11361861228943,128.11361861228943,129.5986921787262,131.10036849975586,space,1.499455451965332,None,131.1005663871765,131.11555671691895,131.11555671691895,132.43419885635376,space,1.3112311363220215,None,,,,,,,,,,,,,,,,,,,,,,,,,,,,,,,,,,,,,,,,,,,,,,,60,1,2025-02-19_16h45.59.841,comp,2024.2.4,56.88611124673817,2025-02-19 16h47.40.347399 -0500,
0,0,0,filler_random,None,None,None,None,None,None,None,None,None,None,1,5.8545989990234375,None,,,,,0,0,0,0,0,0,0,165,132.50824213027954,,,,,,,,,,,,,,,,,,,,,,,,,,,,,,,,,,,,,,,,,,,,,,,,,,,,,,,,,,,,,,,,,,,,,,,,,,,,,,,,,155.88326883934354,125.80401021237847,146.22049023987097,75.39907404151475,64.12946580340167,197.19131271202386,2.1,2.12,-197,-282,0,-263,232,263,132.49223923683167,132.49227285385132,132.4934425354004,132.50824213027954,132.6592779159546,132.6592779159546,132.6592779159546,132.6592779159546,132.6592779159546,132.6592779159546,132.6592779159546,138.367525100708,1,5.8545989990234375,None,,,,,,,,,,,,,,,,,,60,1,2025-02-19_16h45.59.841,comp,2024.2.4,56.88611124673817,2025-02-19 16h47.40.347399 -0500,
1,1,0,critical,hwd,35.0,1.0,upper,200.0,125.0,125.0,200.0,127.0,127.0,1,4.44327974319458,None,,,,,0,0,0,0,0,1,1,97,138.383882522583,,,,,,,,,,,,,,,,,,,,,,,,,,,,,,,,,,,,,,,,,,,,,,,,,,,,,,,,,,,,,,,,,,,,,,,,,,,,,,,,,200.0,125.0,125.0,200.0,127.0,127.0,1.0,1.1,-738,265,-480,285,-220,251,138.36909103393555,138.3691680431366,138.37220335006714,138.383882522583,138.53619408607483,138.53619408607483,138.53619408607483,138.53619408607483,138.53619408607483,138.53619408607483,138.53619408607483,142.83768558502197,1,4.44327974319458,None,,,,,,,,,,,,,,,,,,60,1,2025-02-19_16h45.59.841,comp,2024.2.4,56.88611124673817,2025-02-19 16h47.40.347399 -0500,
2,2,0,critical,whd,20.0,4.0,upper,125.0,200.0,200.0,125.0,141.0,141.0,1,3.2764317989349365,None,,,,,0,0,0,0,0,2,2,95,142.85415816307068,,,,,,,,,,,,,,,,,,,,,,,,,,,,,,,,,,,,,,,,,,,,,,,,,,,,,,,,,,,,,,,,,,,,,,,,,,,,,,,,,125.0,200.0,200.0,125.0,141.0,141.0,4.0,4.2,-258,-4,0,-280,229,8,142.8392674922943,142.8393452167511,142.84337949752808,142.85415816307068,143.00330090522766,143.00330090522766,143.00330090522766,143.00330090522766,143.00330090522766,143.00330090522766,143.00330090522766,146.13860630989075,1,3.2764317989349365,None,,,,,,,,,,,,,,,,,,60,1,2025-02-19_16h45.59.841,comp,2024.2.4,56.88611124673817,2025-02-19 16h47.40.347399 -0500,
3,3,0,filler_square,None,None,None,None,None,None,None,None,None,None,3,4.3850767612457275,None,,,,,0,0,0,0,0,3,3,180,146.15328741073608,,,,,,,,,,,,,,,,,,,,,,,,,,,,,,,,,,,,,,,,,,,,,,,,,,,,,,,,,,,,,,,,,,,,,,,,,,,,,,,,,84.66746919269328,79.5562203409791,60.14416300595935,86.83795685568505,88.92435466531074,88.92435466531074,2.2,2.21,-179,-258,0,287,184,276,146.14041233062744,146.14048957824707,146.14378952980042,146.15328741073608,146.30377674102783,146.30377674102783,146.30377674102783,146.30377674102783,146.30377674102783,146.30377674102783,146.30377674102783,150.55710649490356,3,4.3850767612457275,None,,,,,,,,,,,,,,,,,,60,1,2025-02-19_16h45.59.841,comp,2024.2.4,56.88611124673817,2025-02-19 16h47.40.347399 -0500,
4,4,0,critical,dwh,20.0,3.0,upper,141.0,141.0,125.0,200.0,200.0,125.0,2,3.829702377319336,None,,,,,0,0,0,0,0,4,4,69,150.57282519340515,,,,,,,,,,,,,,,,,,,,,,,,,,,,,,,,,,,,,,,,,,,,,,,,,,,,,,,,,,,,,,,,,,,,,,,,,,,,,,,,,141.0,141.0,125.0,200.0,200.0,125.0,3.0,3.2,-266,-280,0,6,258,251,150.55883884429932,150.55891942977905,150.56247353553772,150.57282519340515,150.72184562683105,150.72184562683105,150.72184562683105,150.72184562683105,150.72184562683105,150.72184562683105,150.72184562683105,154.40605640411377,2,3.829702377319336,None,,,,,,,,,,,,,,,,,,60,1,2025-02-19_16h45.59.841,comp,2024.2.4,56.88611124673817,2025-02-19 16h47.40.347399 -0500,
5,5,0,critical,wdh,35.0,2.1,upper,125.0,200.0,127.0,127.0,200.0,125.0,1,4.132411003112793,None,,,,,0,0,0,0,0,5,5,9,154.42244338989258,,,,,,,,,,,,,,,,,,,,,,,,,,,,,,,,,,,,,,,,,,,,,,,,,,,,,,,,,,,,,,,,,,,,,,,,,,,,,,,,,125.0,200.0,127.0,127.0,200.0,125.0,2.1,2.11,-260,272,0,269,222,-256,154.40751886367798,154.40759587287903,154.41052198410034,154.42244338989258,154.5633623600006,154.5633623600006,154.5633623600006,154.5633623600006,154.5633623600006,154.5633623600006,154.5633623600006,158.5606701374054,1,4.132411003112793,None,,,,,,,,,,,,,,,,,,60,1,2025-02-19_16h45.59.841,comp,2024.2.4,56.88611124673817,2025-02-19 16h47.40.347399 -0500,
6,6,0,filler_square,None,None,None,None,None,None,None,None,None,None,3,2.4979820251464844,None,,,,,0,0,0,0,0,6,6,198,158.57682251930237,,,,,,,,,,,,,,,,,,,,,,,,,,,,,,,,,,,,,,,,,,,,,,,,,,,,,,,,,,,,,,,,,,,,,,,,,,,,,,,,,77.77060622172411,71.41422482443342,79.26302399142726,116.22347224382524,180.20799091032146,180.20799091032146,2.1,2.12,-190,-289,0,-263,244,281,158.56284070014954,158.56291937828064,158.56599235534668,158.57682251930237,158.7252378463745,158.7252378463745,158.7252378463745,158.7252378463745,158.7252378463745,158.7252378463745,158.7252378463745,161.07977724075317,3,2.4979820251464844,None,,,,,,,,,,,,,,,,,,60,1,2025-02-19_16h45.59.841,comp,2024.2.4,56.88611124673817,2025-02-19 16h47.40.347399 -0500,
7,7,0,filler_random,None,None,None,None,None,None,None,None,None,None,2,3.2453806400299072,None,,,,,0,0,0,0,0,7,7,160,161.10086631774902,,,,,,,,,,,,,,,,,,,,,,,,,,,,,,,,,,,,,,,,,,,,,,,,,,,,,,,,,,,,,,,,,,,,,,,,,,,,,,,,,67.97296420366064,142.7853580417423,158.052209299644,149.91559973335043,94.43310699166904,67.02123857041433,1.0,1.2,-242,-11,0,-6,204,-9,161.08149814605713,161.08159756660461,161.08503341674805,161.10086631774902,161.24919152259827,161.24919152259827,161.24919152259827,161.24919152259827,161.24919152259827,161.24919152259827,161.24919152259827,164.3607668876648,2,3.2453806400299072,None,,,,,,,,,,,,,,,,,,60,1,2025-02-19_16h45.59.841,comp,2024.2.4,56.88611124673817,2025-02-19 16h47.40.347399 -0500,
8,8,0,critical,whd,20.0,2.1,lower,57.0,133.0,133.0,57.0,78.0,78.0,1,5.489751100540161,None,,,,,0,0,0,0,0,8,8,14,164.3765094280243,,,,,,,,,,,,,,,,,,,,,,,,,,,,,,,,,,,,,,,,,,,,,,,,,,,,,,,,,,,,,,,,,,,,,,,,,,,,,,,,,57.0,133.0,133.0,57.0,78.0,78.0,2.1,2.11,-191,265,0,252,164,-271,164.36244320869446,164.36251878738403,164.36617255210876,164.3765094280243,164.5303144454956,164.5303144454956,164.5303144454956,164.5303144454956,164.5303144454956,164.5303144454956,164.5303144454956,169.88315200805664,1,5.489751100540161,None,,,,,,,,,,,,,,,,,,60,1,2025-02-19_16h45.59.841,comp,2024.2.4,56.88611124673817,2025-02-19 16h47.40.347399 -0500,
9,9,0,filler_random,None,None,None,None,None,None,None,None,None,None,3,3.237887382507324,None,,,,,0,0,0,0,0,9,9,146,169.90063548088074,,,,,,,,,,,,,,,,,,,,,,,,,,,,,,,,,,,,,,,,,,,,,,,,,,,,,,,,,,,,,,,,,,,,,,,,,,,,,,,,,131.77492994047077,127.14188415898138,145.81424076299083,142.92747083760406,144.2584299394669,153.0615164005879,4.0,4.1,-231,-278,0,-9,244,-266,169.88492059707642,169.88499522209167,169.88797664642334,169.90063548088074,170.0459532737732,170.0459532737732,170.0459532737732,170.0459532737732,170.0459532737732,170.0459532737732,170.0459532737732,173.14681196212769,3,3.237887382507324,None,,,,,,,,,,,,,,,,,,60,1,2025-02-19_16h45.59.841,comp,2024.2.4,56.88611124673817,2025-02-19 16h47.40.347399 -0500,
10,10,0,filler_random,None,None,None,None,None,None,None,None,None,None,2,3.679743766784668,None,,,,,0,0,0,0,0,10,10,161,173.16334557533264,,,,,,,,,,,,,,,,,,,,,,,,,,,,,,,,,,,,,,,,,,,,,,,,,,,,,,,,,,,,,,,,,,,,,,,,,,,,,,,,,135.66298120756878,119.07814262909658,148.22070251224432,113.81305098220689,84.8545457098993,104.64227251575267,4.0,4.2,-212,15,0,-272,205,7,173.14860272407532,173.148761510849,173.15223360061646,173.16334557533264,173.31077098846436,173.31077098846436,173.31077098846436,173.31077098846436,173.31077098846436,173.31077098846436,173.31077098846436,176.8492090702057,2,3.679743766784668,None,,,,,,,,,,,,,,,,,,60,1,2025-02-19_16h45.59.841,comp,2024.2.4,56.88611124673817,2025-02-19 16h47.40.347399 -0500,
11,11,0,critical,wdh,35.0,3.0,upper,125.0,200.0,127.0,127.0,200.0,125.0,1,4.089457988739014,None,,,,,0,0,0,0,0,11,11,75,176.86478066444397,,,,,,,,,,,,,,,,,,,,,,,,,,,,,,,,,,,,,,,,,,,,,,,,,,,,,,,,,,,,,,,,,,,,,,,,,,,,,,,,,125.0,200.0,127.0,127.0,200.0,125.0,3.0,3.1,-260,285,0,-16,222,-257,176.8506851196289,176.85082912445068,176.85406064987183,176.86478066444397,177.01485872268677,177.01485872268677,177.01485872268677,177.01485872268677,177.01485872268677,177.01485872268677,177.01485872268677,180.96527409553528,1,4.089457988739014,None,,,,,,,,,,,,,,,,,,60,1,2025-02-19_16h45.59.841,comp,2024.2.4,56.88611124673817,2025-02-19 16h47.40.347399 -0500,
12,12,0,critical,dhw,35.0,4.0,lower,70.0,70.0,133.0,57.0,57.0,133.0,3,3.728694200515747,None,,,,,0,0,0,0,0,12,12,52,180.9863486289978,,,,,,,,,,,,,,,,,,,,,,,,,,,,,,,,,,,,,,,,,,,,,,,,,,,,,,,,,,,,,,,,,,,,,,,,,,,,,,,,,70.0,70.0,133.0,57.0,57.0,133.0,4.0,4.1,-160,-257,0,-14,191,-273,180.96687984466553,180.966956615448,180.9704008102417,180.9863486289978,181.13546633720398,181.13546633720398,181.13546633720398,181.13546633720398,181.13546633720398,181.13546633720398,181.13546633720398,184.72117114067078,3,3.728694200515747,None,,,,,,,,,,,,,,,,,,60,1,2025-02-19_16h45.59.841,comp,2024.2.4,56.88611124673817,2025-02-19 16h47.40.347399 -0500,
13,13,0,catch,None,None,None,None,None,None,None,None,None,None,1,2.295969009399414,None,,,,,0,0,0,0,0,13,13,123,184.73837971687317,,,,,,,,,,,,,,,,,,,,,,,,,,,,,,,,,,,,,,,,,,,,,,,,,,,,,,,,,,,,,,,,,,,,,,,,,,,,,,,,,186,139,112,78,119,71,2.1,2.11,-204,268,0,283,170,-260,184.72372698783875,184.72381901741028,184.72681975364685,184.73837971687317,184.8905909061432,184.8905909061432,184.8905909061432,184.8905909061432,184.8905909061432,184.8905909061432,184.8905909061432,187.05197477340698,1,2.295969009399414,None,,,,,,,,,,,,,,,,,,60,1,2025-02-19_16h45.59.841,comp,2024.2.4,56.88611124673817,2025-02-19 16h47.40.347399 -0500,
14,14,0,critical,dwh,35.0,3.0,lower,70.0,70.0,57.0,133.0,133.0,57.0,2,2.9116618633270264,None,,,,,0,0,0,0,0,14,14,62,187.0672628879547,,,,,,,,,,,,,,,,,,,,,,,,,,,,,,,,,,,,,,,,,,,,,,,,,,,,,,,,,,,,,,,,,,,,,,,,,,,,,,,,,70.0,70.0,57.0,133.0,133.0,57.0,3.0,3.1,-198,270,0,-12,191,-260,187.05350613594055,187.05358242988586,187.05684232711792,187.0672628879547,187.2099323272705,187.2099323272705,187.2099323272705,187.2099323272705,187.2099323272705,187.2099323272705,187.2099323272705,189.9836642742157,2,2.9116618633270264,None,,,,,,,,,,,,,,,,,,60,1,2025-02-19_16h45.59.841,comp,2024.2.4,56.88611124673817,2025-02-19 16h47.40.347399 -0500,
15,15,0,filler_square,None,None,None,None,None,None,None,None,None,None,1,4.865426540374756,None,,,,,0,0,0,0,0,15,15,200,190.0008828639984,,,,,,,,,,,,,,,,,,,,,,,,,,,,,,,,,,,,,,,,,,,,,,,,,,,,,,,,,,,,,,,,,,,,,,,,,,,,,,,,,72.55141602625972,72.55141602625972,69.56226381984878,61.76590378096388,66.6857324756754,67.73487136054707,2.2,2.21,-163,-273,0,275,161,274,189.98567175865173,189.98577690124512,189.98916459083557,190.0008828639984,190.15241122245789,190.15241122245789,190.15241122245789,190.15241122245789,190.15241122245789,190.15241122245789,190.15241122245789,194.87042951583862,1,4.865426540374756,None,,,,,,,,,,,,,,,,,,60,1,2025-02-19_16h45.59.841,comp,2024.2.4,56.88611124673817,2025-02-19 16h47.40.347399 -0500,
16,16,0,critical,hdw,35.0,4.0,lower,133.0,57.0,70.0,70.0,57.0,133.0,1,1.9328560829162598,None,,,,,0,0,0,0,0,16,16,112,194.88608503341675,,,,,,,,,,,,,,,,,,,,,,,,,,,,,,,,,,,,,,,,,,,,,,,,,,,,,,,,,,,,,,,,,,,,,,,,,,,,,,,,,133.0,57.0,70.0,70.0,57.0,133.0,4.0,4.1,-160,-290,0,2,198,-272,194.87197160720825,194.87204885482788,194.87533330917358,194.88608503341675,195.03667879104614,195.03667879104614,195.03667879104614,195.03667879104614,195.03667879104614,195.03667879104614,195.03667879104614,196.82199001312256,1,1.9328560829162598,None,,,,,,,,,,,,,,,,,,60,1,2025-02-19_16h45.59.841,comp,2024.2.4,56.88611124673817,2025-02-19 16h47.40.347399 -0500,
17,17,0,critical,whd,35.0,2.1,lower,57.0,133.0,133.0,57.0,70.0,70.0,1,4.466871738433838,None,,,,,0,0,0,0,0,17,17,12,196.8393692970276,,,,,,,,,,,,,,,,,,,,,,,,,,,,,,,,,,,,,,,,,,,,,,,,,,,,,,,,,,,,,,,,,,,,,,,,,,,,,,,,,57.0,133.0,133.0,57.0,70.0,70.0,2.1,2.11,-191,257,0,275,160,-253,196.8236174583435,196.82369422912598,196.8277711868286,196.8393692970276,196.98730850219727,196.98730850219727,196.98730850219727,196.98730850219727,196.98730850219727,196.98730850219727,196.98730850219727,201.31934356689453,1,4.466871738433838,None,,,,,,,,,,,,,,,,,,60,1,2025-02-19_16h45.59.841,comp,2024.2.4,56.88611124673817,2025-02-19 16h47.40.347399 -0500,
18,18,0,filler_square,None,None,None,None,None,None,None,None,None,None,3,3.1859633922576904,None,,,,,0,0,0,0,0,18,18,206,201.33640718460083,,,,,,,,,,,,,,,,,,,,,,,,,,,,,,,,,,,,,,,,,,,,,,,,,,,,,,,,,,,,,,,,,,,,,,,,,,,,,,,,,65.07302977302932,76.26578052410622,67.10997139339831,58.56937771112357,80.49894612732163,80.49894612732163,1.0,1.1,-643,278,-480,254,-314,266,201.32111525535583,201.3211898803711,201.32412886619568,201.33640718460083,201.47489857673645,201.47489857673645,201.47489857673645,201.47489857673645,201.47489857673645,201.47489857673645,201.47489857673645,204.52433371543884,3,3.1859633922576904,None,,,,,,,,,,,,,,,,,,60,1,2025-02-19_16h45.59.841,comp,2024.2.4,56.88611124673817,2025-02-19 16h47.40.347399 -0500,
19,19,0,filler_square,None,None,None,None,None,None,None,None,None,None,3,5.227142572402954,None,,,,,0,0,0,0,0,19,19,197,204.54341006278992,,,,,,,,,,,,,,,,,,,,,,,,,,,,,,,,,,,,,,,,,,,,,,,,,,,,,,,,,,,,,,,,,,,,,,,,,,,,,,,,,62.69913044614919,63.46892934099732,64.71033987685504,64.71033987685504,63.2495590563433,64.25373930008406,4.0,4.2,-160,-4,0,-284,160,6,204.52612924575806,204.52624607086182,204.529230594635,204.54341006278992,204.69597148895264,204.69597148895264,204.69597148895264,204.69597148895264,204.69597148895264,204.69597148895264,204.69597148895264,209.78501677513123,3,5.227142572402954,None,,,,,,,,,,,,,,,,,,60,1,2025-02-19_16h45.59.841,comp,2024.2.4,56.88611124673817,2025-02-19 16h47.40.347399 -0500,
20,20,0,critical,whd,35.0,2.1,upper,125.0,200.0,200.0,125.0,127.0,127.0,2,4.476557731628418,None,,,,,0,0,0,0,0,20,20,37,209.8058021068573,,,,,,,,,,,,,,,,,,,,,,,,,,,,,,,,,,,,,,,,,,,,,,,,,,,,,,,,,,,,,,,,,,,,,,,,,,,,,,,,,125.0,200.0,200.0,125.0,127.0,127.0,2.1,2.11,-258,261,0,287,222,-264,209.78655171394348,209.7866289615631,209.78952836990356,209.8058021068573,209.94269680976868,209.94269680976868,209.94269680976868,209.94269680976868,209.94269680976868,209.94269680976868,209.94269680976868,214.2955265045166,2,4.476557731628418,None,,,,,,,,,,,,,,,,,,60,1,2025-02-19_16h45.59.841,comp,2024.2.4,56.88611124673817,2025-02-19 16h47.40.347399 -0500,
21,21,0,critical,hwd,35.0,2.1,lower,133.0,57.0,57.0,133.0,70.0,70.0,1,3.5311667919158936,None,,,,,0,0,0,0,0,21,21,40,214.31179881095886,,,,,,,,,,,,,,,,,,,,,,,,,,,,,,,,,,,,,,,,,,,,,,,,,,,,,,,,,,,,,,,,,,,,,,,,,,,,,,,,,133.0,57.0,57.0,133.0,70.0,70.0,2.1,2.11,-191,274,0,270,198,-287,214.29728198051453,214.2973608970642,214.30026006698608,214.31179881095886,214.45963501930237,214.45963501930237,214.45963501930237,214.45963501930237,214.45963501930237,214.45963501930237,214.45963501930237,217.8483214378357,1,3.5311667919158936,None,,,,,,,,,,,,,,,,,,60,1,2025-02-19_16h45.59.841,comp,2024.2.4,56.88611124673817,2025-02-19 16h47.40.347399 -0500,
22,22,0,critical,hwd,20.0,1.0,upper,200.0,125.0,125.0,200.0,141.0,141.0,1,4.217945575714111,None,,,,,0,0,0,0,0,22,22,103,217.86441159248352,,,,,,,,,,,,,,,,,,,,,,,,,,,,,,,,,,,,,,,,,,,,,,,,,,,,,,,,,,,,,,,,,,,,,,,,,,,,,,,,,200.0,125.0,125.0,200.0,141.0,141.0,1.0,1.3,222,-285,480,-263,746,-253,217.85001015663147,217.85008764266968,217.85351753234863,217.86441159248352,218.01466417312622,218.01466417312622,218.01466417312622,218.01466417312622,218.01466417312622,218.01466417312622,218.01466417312622,222.09522128105164,1,4.217945575714111,None,,,,,,,,,,,,,,,,,,60,1,2025-02-19_16h45.59.841,comp,2024.2.4,56.88611124673817,2025-02-19 16h47.40.347399 -0500,
23,23,0,filler_square,None,None,None,None,None,None,None,None,None,None,3,2.040294647216797,None,,,,,0,0,0,0,0,23,23,170,222.11476135253906,,,,,,,,,,,,,,,,,,,,,,,,,,,,,,,,,,,,,,,,,,,,,,,,,,,,,,,,,,,,,,,,,,,,,,,,,,,,,,,,,95.55140863014273,94.09144662040724,107.19075561348623,124.84532958259744,199.9755054273255,199.9755054273255,2.1,2.11,-205,269,0,260,258,-278,222.0970799922943,222.0971555709839,222.1002426147461,222.11476135253906,222.26584839820862,222.26584839820862,222.26584839820862,222.26584839820862,222.26584839820862,222.26584839820862,222.26584839820862,224.16318464279175,3,2.040294647216797,None,,,,,,,,,,,,,,,,,,60,1,2025-02-19_16h45.59.841,comp,2024.2.4,56.88611124673817,2025-02-19 16h47.40.347399 -0500,
24,24,0,critical,hwd,35.0,2.1,lower,133.0,57.0,57.0,133.0,70.0,70.0,1,3.80665922164917,None,,,,,0,0,0,0,0,24,24,16,224.17963075637817,,,,,,,,,,,,,,,,,,,,,,,,,,,,,,,,,,,,,,,,,,,,,,,,,,,,,,,,,,,,,,,,,,,,,,,,,,,,,,,,,133.0,57.0,57.0,133.0,70.0,70.0,2.1,2.11,-191,274,0,267,198,-253,224.16480207443237,224.16487884521484,224.16890954971313,224.17963075637817,224.3363242149353,224.3363242149353,224.3363242149353,224.3363242149353,224.3363242149353,224.3363242149353,224.3363242149353,228.000013589859,1,3.80665922164917,None,,,,,,,,,,,,,,,,,,60,1,2025-02-19_16h45.59.841,comp,2024.2.4,56.88611124673817,2025-02-19 16h47.40.347399 -0500,
25,25,0,critical,wdh,20.0,3.0,lower,57.0,133.0,78.0,78.0,133.0,57.0,1,4.83185338973999,None,,,,,0,0,0,0,0,25,25,80,228.01851725578308,,,,,,,,,,,,,,,,,,,,,,,,,,,,,,,,,,,,,,,,,,,,,,,,,,,,,,,,,,,,,,,,,,,,,,,,,,,,,,,,,57.0,133.0,78.0,78.0,133.0,57.0,3.0,3.2,-202,-262,0,3,164,261,228.001859664917,228.00199484825134,228.00520300865173,228.01851725578308,228.16326665878296,228.16326665878296,228.16326665878296,228.16326665878296,228.16326665878296,228.16326665878296,228.16326665878296,232.8659245967865,1,4.83185338973999,None,,,,,,,,,,,,,,,,,,60,1,2025-02-19_16h45.59.841,comp,2024.2.4,56.88611124673817,2025-02-19 16h47.40.347399 -0500,
26,26,0,filler_random,None,None,None,None,None,None,None,None,None,None,3,2.8665778636932373,None,,,,,0,0,0,0,0,26,26,164,232.880117893219,,,,,,,,,,,,,,,,,,,,,,,,,,,,,,,,,,,,,,,,,,,,,,,,,,,,,,,,,,,,,,,,,,,,,,,,,,,,,,,,,94.80384018922774,87.21560560417412,172.6284792156635,105.90332870697874,170.00312702889642,109.13093712412501,2.2,2.22,-193,256,0,-256,204,-274,232.86761164665222,232.867684841156,232.8694450855255,232.880117893219,233.0327320098877,233.0327320098877,233.0327320098877,233.0327320098877,233.0327320098877,233.0327320098877,233.0327320098877,235.74891209602356,3,2.8665778636932373,None,,,,,,,,,,,,,,,,,,60,1,2025-02-19_16h45.59.841,comp,2024.2.4,56.88611124673817,2025-02-19 16h47.40.347399 -0500,
27,27,0,filler_square,None,None,None,None,None,None,None,None,None,None,2,4.529862642288208,None,,,,,0,0,0,0,0,27,27,192,235.76886224746704,,,,,,,,,,,,,,,,,,,,,,,,,,,,,,,,,,,,,,,,,,,,,,,,,,,,,,,,,,,,,,,,,,,,,,,,,,,,,,,,,90.94837063591902,114.20535535016151,148.34062941465726,148.34062941465726,58.043337890268305,102.23868850768888,2.1,2.12,-227,-280,0,-266,221,260,235.75069761276245,235.75087094306946,235.75419354438782,235.76886224746704,235.9165267944336,235.9165267944336,235.9165267944336,235.9165267944336,235.9165267944336,235.9165267944336,235.9165267944336,240.30091190338135,2,4.529862642288208,None,,,,,,,,,,,,,,,,,,60,1,2025-02-19_16h45.59.841,comp,2024.2.4,56.88611124673817,2025-02-19 16h47.40.347399 -0500,
28,28,0,critical,wdh,35.0,2.1,lower,57.0,133.0,70.0,70.0,133.0,57.0,1,6.332669258117676,None,,,,,0,0,0,0,0,28,28,8,240.31776690483093,,,,,,,,,,,,,,,,,,,,,,,,,,,,,,,,,,,,,,,,,,,,,,,,,,,,,,,,,,,,,,,,,,,,,,,,,,,,,,,,,57.0,133.0,70.0,70.0,133.0,57.0,2.1,2.11,-198,277,0,260,160,-258,240.30250334739685,240.30261325836182,240.30607175827026,240.31776690483093,240.46823024749756,240.46823024749756,240.46823024749756,240.46823024749756,240.46823024749756,240.46823024749756,240.46823024749756,246.66932129859924,1,6.332669258117676,None,,,,,,,,,,,,,,,,,,60,1,2025-02-19_16h45.59.841,comp,2024.2.4,56.88611124673817,2025-02-19 16h47.40.347399 -0500,
29,29,0,critical,whd,35.0,1.0,lower,57.0,133.0,133.0,57.0,70.0,70.0,1,3.610297441482544,None,,,,,0,0,0,0,0,29,29,84,246.68878960609436,,,,,,,,,,,,,,,,,,,,,,,,,,,,,,,,,,,,,,,,,,,,,,,,,,,,,,,,,,,,,,,,,,,,,,,,,,,,,,,,,57.0,133.0,133.0,57.0,70.0,70.0,1.0,1.2,-191,8,0,-5,160,-10,246.67091751098633,246.6709930896759,246.67435121536255,246.68878960609436,246.83676409721375,246.83676409721375,246.83676409721375,246.83676409721375,246.83676409721375,246.83676409721375,246.83676409721375,250.3045198917389,1,3.610297441482544,None,,,,,,,,,,,,,,,,,,60,1,2025-02-19_16h45.59.841,comp,2024.2.4,56.88611124673817,2025-02-19 16h47.40.347399 -0500,
30,30,0,critical,hdw,20.0,2.1,lower,133.0,57.0,78.0,78.0,57.0,133.0,3,3.562106132507324,None,,,,,0,0,0,0,0,30,30,46,250.32096529006958,,,,,,,,,,,,,,,,,,,,,,,,,,,,,,,,,,,,,,,,,,,,,,,,,,,,,,,,,,,,,,,,,,,,,,,,,,,,,,,,,133.0,57.0,78.0,78.0,57.0,133.0,2.1,2.11,-164,257,0,273,202,-286,250.30606961250305,250.30614495277405,250.31017518043518,250.32096529006958,250.4713728427887,250.4713728427887,250.4713728427887,250.4713728427887,250.4713728427887,250.4713728427887,250.4713728427887,253.8889102935791,3,3.562106132507324,None,,,,,,,,,,,,,,,,,,60,1,2025-02-19_16h45.59.841,comp,2024.2.4,56.88611124673817,2025-02-19 16h47.40.347399 -0500,
31,31,0,filler_square,None,None,None,None,None,None,None,None,None,None,1,2.513378620147705,None,,,,,0,0,0,0,0,31,31,207,253.9055700302124,,,,,,,,,,,,,,,,,,,,,,,,,,,,,,,,,,,,,,,,,,,,,,,,,,,,,,,,,,,,,,,,,,,,,,,,,,,,,,,,,139.85393514777599,139.85393514777599,83.14863788727972,98.57722707405466,120.4682583061828,91.37989930790752,2.2,2.21,-215,-278,0,273,191,287,253.89095282554626,253.89103055000305,253.89453125,253.9055700302124,254.05426168441772,254.05426168441772,254.05426168441772,254.05426168441772,254.05426168441772,254.05426168441772,254.05426168441772,256.42486119270325,1,2.513378620147705,None,,,,,,,,,,,,,,,,,,60,1,2025-02-19_16h45.59.841,comp,2024.2.4,56.88611124673817,2025-02-19 16h47.40.347399 -0500,
32,32,0,critical,wdh,35.0,2.1,lower,57.0,133.0,70.0,70.0,133.0,57.0,3,3.346097707748413,None,,,,,0,0,0,0,0,32,32,32,256.440420627594,,,,,,,,,,,,,,,,,,,,,,,,,,,,,,,,,,,,,,,,,,,,,,,,,,,,,,,,,,,,,,,,,,,,,,,,,,,,,,,,,57.0,133.0,70.0,70.0,133.0,57.0,2.1,2.11,-198,276,0,257,160,-261,256.4264142513275,256.42649006843567,256.42972207069397,256.440420627594,256.59688544273376,256.59688544273376,256.59688544273376,256.59688544273376,256.59688544273376,256.59688544273376,256.59688544273376,259.80236315727234,3,3.346097707748413,None,,,,,,,,,,,,,,,,,,60,1,2025-02-19_16h45.59.841,comp,2024.2.4,56.88611124673817,2025-02-19 16h47.40.347399 -0500,
33,33,0,critical,wdh,20.0,1.0,upper,125.0,200.0,141.0,141.0,200.0,125.0,1,4.166215419769287,None,,,,,0,0,0,0,0,33,33,79,259.8206751346588,,,,,,,,,,,,,,,,,,,,,,,,,,,,,,,,,,,,,,,,,,,,,,,,,,,,,,,,,,,,,,,,,,,,,,,,,,,,,,,,,125.0,200.0,141.0,141.0,200.0,125.0,1.0,1.3,214,-257,480,-277,709,-263,259.8038558959961,259.80393075942993,259.8068308830261,259.8206751346588,259.9577808380127,259.9577808380127,259.9577808380127,259.9577808380127,259.9577808380127,259.9577808380127,259.9577808380127,263.9922113418579,1,4.166215419769287,None,,,,,,,,,,,,,,,,,,60,1,2025-02-19_16h45.59.841,comp,2024.2.4,56.88611124673817,2025-02-19 16h47.40.347399 -0500,
34,34,0,critical,whd,20.0,1.0,lower,57.0,133.0,133.0,57.0,78.0,78.0,1,7.331197738647461,None,,,,,0,0,0,0,0,34,34,90,264.00785183906555,,,,,,,,,,,,,,,,,,,,,,,,,,,,,,,,,,,,,,,,,,,,,,,,,,,,,,,,,,,,,,,,,,,,,,,,,,,,,,,,,57.0,133.0,133.0,57.0,78.0,78.0,1.0,1.2,-191,9,0,-5,164,-4,263.99368047714233,263.9937746524811,263.9971172809601,264.00785183906555,264.16032576560974,264.16032576560974,264.16032576560974,264.16032576560974,264.16032576560974,264.16032576560974,264.16032576560974,271.34405040740967,1,7.331197738647461,None,,,,,,,,,,,,,,,,,,60,1,2025-02-19_16h45.59.841,comp,2024.2.4,56.88611124673817,2025-02-19 16h47.40.347399 -0500,
35,35,0,critical,wdh,20.0,1.0,lower,57.0,133.0,78.0,78.0,133.0,57.0,1,2.6430485248565674,None,,,,,0,0,0,0,0,35,35,78,271.3600697517395,,,,,,,,,,,,,,,,,,,,,,,,,,,,,,,,,,,,,,,,,,,,,,,,,,,,,,,,,,,,,,,,,,,,,,,,,,,,,,,,,57.0,133.0,78.0,78.0,133.0,57.0,1.0,1.2,-202,-9,0,4,164,-6,271.3455955982208,271.34567284584045,271.34923815727234,271.3600697517395,271.5108804702759,271.5108804702759,271.5108804702759,271.5108804702759,271.5108804702759,271.5108804702759,271.5108804702759,274.0112588405609,1,2.6430485248565674,None,,,,,,,,,,,,,,,,,,60,1,2025-02-19_16h45.59.841,comp,2024.2.4,56.88611124673817,2025-02-19 16h47.40.347399 -0500,
36,36,0,filler_square,None,None,None,None,None,None,None,None,None,None,2,2.886493682861328,None,,,,,0,0,0,0,0,36,36,184,274.02827525138855,,,,,,,,,,,,,,,,,,,,,,,,,,,,,,,,,,,,,,,,,,,,,,,,,,,,,,,,,,,,,,,,,,,,,,,,,,,,,,,,,136.48831780713323,88.74933101057127,146.41412004663863,146.41412004663863,118.63509111875953,117.33143694941168,2.2,2.22,-214,273,0,-278,228,-274,274.01350116729736,274.01358008384705,274.0166189670563,274.02827525138855,274.1768879890442,274.1768879890442,274.1768879890442,274.1768879890442,274.1768879890442,274.1768879890442,274.1768879890442,276.9327871799469,2,2.886493682861328,None,,,,,,,,,,,,,,,,,,60,1,2025-02-19_16h45.59.841,comp,2024.2.4,56.88611124673817,2025-02-19 16h47.40.347399 -0500,
37,37,0,critical,dwh,20.0,2.1,lower,78.0,78.0,57.0,133.0,133.0,57.0,2,3.8540029525756836,None,,,,,0,0,0,0,0,37,37,6,276.9483742713928,,,,,,,,,,,,,,,,,,,,,,,,,,,,,,,,,,,,,,,,,,,,,,,,,,,,,,,,,,,,,,,,,,,,,,,,,,,,,,,,,78.0,78.0,57.0,133.0,133.0,57.0,2.1,2.12,-202,-275,0,-269,191,251,276.93426156044006,276.93433594703674,276.93813729286194,276.9483742713928,277.0965120792389,277.0965120792389,277.0965120792389,277.0965120792389,277.0965120792389,277.0965120792389,277.0965120792389,280.8154397010803,2,3.8540029525756836,None,,,,,,,,,,,,,,,,,,60,1,2025-02-19_16h45.59.841,comp,2024.2.4,56.88611124673817,2025-02-19 16h47.40.347399 -0500,
38,38,0,filler_random,None,None,None,None,None,None,None,None,None,None,1,2.1785755157470703,None,,,,,0,0,0,0,0,38,38,144,280.83231472969055,,,,,,,,,,,,,,,,,,,,,,,,,,,,,,,,,,,,,,,,,,,,,,,,,,,,,,,,,,,,,,,,,,,,,,,,,,,,,,,,,117.18755487792299,187.0031850600726,73.76664946190063,193.3447328020611,158.09078188249114,90.18233900798336,1.0,1.1,-766,267,-480,282,-242,271,280.8172013759613,280.81733107566833,280.8205850124359,280.83231472969055,280.98594093322754,280.98594093322754,280.98594093322754,280.98594093322754,280.98594093322754,280.98594093322754,280.98594093322754,283.0155429840088,1,2.1785755157470703,None,,,,,,,,,,,,,,,,,,60,1,2025-02-19_16h45.59.841,comp,2024.2.4,56.88611124673817,2025-02-19 16h47.40.347399 -0500,
39,39,0,critical,dhw,20.0,3.0,upper,141.0,141.0,200.0,125.0,125.0,200.0,2,3.251757860183716,None,,,,,0,0,0,0,0,39,39,57,283.0311653614044,,,,,,,,,,,,,,,,,,,,,,,,,,,,,,,,,,,,,,,,,,,,,,,,,,,,,,,,,,,,,,,,,,,,,,,,,,,,,,,,,141.0,141.0,200.0,125.0,125.0,200.0,3.0,3.2,-229,-259,0,-6,258,281,283.01708245277405,283.01715779304504,283.0204372406006,283.0311653614044,283.1813659667969,283.1813659667969,283.1813659667969,283.1813659667969,283.1813659667969,283.1813659667969,283.1813659667969,286.289781332016,2,3.251757860183716,None,,,,,,,,,,,,,,,,,,60,1,2025-02-19_16h45.59.841,comp,2024.2.4,56.88611124673817,2025-02-19 16h47.40.347399 -0500,
40,40,0,filler_random,None,None,None,None,None,None,None,None,None,None,1,4.488178491592407,None,,,,,0,0,0,0,0,40,40,135,286.30679535865784,,,,,,,,,,,,,,,,,,,,,,,,,,,,,,,,,,,,,,,,,,,,,,,,,,,,,,,,,,,,,,,,,,,,,,,,,,,,,,,,,161.9075808307416,177.6009102776927,187.6413385339523,128.93673980137186,171.5960548082267,150.8849059561392,2.1,2.12,-249,-260,0,-261,236,254,286.2914819717407,286.29159021377563,286.2949767112732,286.30679535865784,286.4498944282532,286.4498944282532,286.4498944282532,286.4498944282532,286.4498944282532,286.4498944282532,286.4498944282532,290.8018386363983,1,4.488178491592407,None,,,,,,,,,,,,,,,,,,60,1,2025-02-19_16h45.59.841,comp,2024.2.4,56.88611124673817,2025-02-19 16h47.40.347399 -0500,
41,41,0,filler_random,None,None,None,None,None,None,None,None,None,None,2,4.368241310119629,None,,,,,0,0,0,0,0,41,41,140,290.8182301521301,,,,,,,,,,,,,,,,,,,,,,,,,,,,,,,,,,,,,,,,,,,,,,,,,,,,,,,,,,,,,,,,,,,,,,,,,,,,,,,,,165.61499876931472,106.02340810134416,185.8945795581898,129.674626519155,128.79800542540812,100.13127050356366,4.0,4.1,-214,-278,0,-11,211,-251,290.80349016189575,290.8035669326782,290.80654430389404,290.8182301521301,290.96689534187317,290.96689534187317,290.96689534187317,290.96689534187317,290.96689534187317,290.96689534187317,290.96689534187317,295.2010917663574,2,4.368241310119629,None,,,,,,,,,,,,,,,,,,60,1,2025-02-19_16h45.59.841,comp,2024.2.4,56.88611124673817,2025-02-19 16h47.40.347399 -0500,
42,42,0,critical,whd,35.0,1.0,upper,125.0,200.0,200.0,125.0,127.0,127.0,2,3.682008743286133,None,,,,,0,0,0,0,0,42,42,85,295.21697211265564,,,,,,,,,,,,,,,,,,,,,,,,,,,,,,,,,,,,,,,,,,,,,,,,,,,,,,,,,,,,,,,,,,,,,,,,,,,,,,,,,125.0,200.0,200.0,125.0,127.0,127.0,1.0,1.2,-258,-3,0,-11,222,18,295.20257115364075,295.2026467323303,295.20592737197876,295.21697211265564,295.3650953769684,295.3650953769684,295.3650953769684,295.3650953769684,295.3650953769684,295.3650953769684,295.3650953769684,298.90767788887024,2,3.682008743286133,None,,,,,,,,,,,,,,,,,,60,1,2025-02-19_16h45.59.841,comp,2024.2.4,56.88611124673817,2025-02-19 16h47.40.347399 -0500,
43,43,0,critical,hwd,20.0,2.1,upper,200.0,125.0,125.0,200.0,141.0,141.0,1,2.7914879322052,None,,,,,0,0,0,0,0,43,43,19,298.92380595207214,,,,,,,,,,,,,,,,,,,,,,,,,,,,,,,,,,,,,,,,,,,,,,,,,,,,,,,,,,,,,,,,,,,,,,,,,,,,,,,,,200.0,125.0,125.0,200.0,141.0,141.0,2.1,2.11,-258,267,0,269,266,-262,298.9092147350311,298.9092915058136,298.91222500801086,298.92380595207214,299.0698051452637,299.0698051452637,299.0698051452637,299.0698051452637,299.0698051452637,299.0698051452637,299.0698051452637,301.7209131717682,1,2.7914879322052,None,,,,,,,,,,,,,,,,,,60,1,2025-02-19_16h45.59.841,comp,2024.2.4,56.88611124673817,2025-02-19 16h47.40.347399 -0500,
44,44,0,critical,hwd,35.0,4.0,lower,133.0,57.0,57.0,133.0,70.0,70.0,2,4.12971568107605,None,,,,,0,0,0,0,0,44,44,100,301.7374744415283,,,,,,,,,,,,,,,,,,,,,,,,,,,,,,,,,,,,,,,,,,,,,,,,,,,,,,,,,,,,,,,,,,,,,,,,,,,,,,,,,133.0,57.0,57.0,133.0,70.0,70.0,4.0,4.2,-191,-12,0,-256,198,-15,301.7223253250122,301.7224016189575,301.7258777618408,301.7374744415283,301.8860652446747,301.8860652446747,301.8860652446747,301.8860652446747,301.8860652446747,301.8860652446747,301.8860652446747,305.8731803894043,2,4.12971568107605,None,,,,,,,,,,,,,,,,,,60,1,2025-02-19_16h45.59.841,comp,2024.2.4,56.88611124673817,2025-02-19 16h47.40.347399 -0500,
45,45,0,catch,None,None,None,None,None,None,None,None,None,None,3,1.7531139850616455,None,,,,,0,0,0,0,0,45,45,121,305.8893024921417,,,,,,,,,,,,,,,,,,,,,,,,,,,,,,,,,,,,,,,,,,,,,,,,,,,,,,,,,,,,,,,,,,,,,,,,,,,,,,,,,119,71,125,65,187,138,2.2,2.21,-164,-283,0,268,198,290,305.87527990341187,305.87535977363586,305.8785994052887,305.8893024921417,306.03880071640015,306.03880071640015,306.03880071640015,306.03880071640015,306.03880071640015,306.03880071640015,306.03880071640015,307.6542229652405,3,1.7531139850616455,None,,,,,,,,,,,,,,,,,,60,1,2025-02-19_16h45.59.841,comp,2024.2.4,56.88611124673817,2025-02-19 16h47.40.347399 -0500,
46,46,0,catch,None,None,None,None,None,None,None,None,None,None,2,2.5090725421905518,None,,,,,0,0,0,0,0,46,46,127,307.6702082157135,,,,,,,,,,,,,,,,,,,,,,,,,,,,,,,,,,,,,,,,,,,,,,,,,,,,,,,,,,,,,,,,,,,,,,,,,,,,,,,,,111,79,146,179,75,115,2.1,2.11,-225,257,0,256,243,-251,307.6564054489136,307.6564829349518,307.65984535217285,307.6702082157135,307.82134771347046,307.82134771347046,307.82134771347046,307.82134771347046,307.82134771347046,307.82134771347046,307.82134771347046,310.19009160995483,2,2.5090725421905518,None,,,,,,,,,,,,,,,,,,60,1,2025-02-19_16h45.59.841,comp,2024.2.4,56.88611124673817,2025-02-19 16h47.40.347399 -0500,
47,47,0,critical,dwh,35.0,2.1,lower,70.0,70.0,57.0,133.0,133.0,57.0,2,3.604384422302246,None,,,,,0,0,0,0,0,47,47,4,310.20616030693054,,,,,,,,,,,,,,,,,,,,,,,,,,,,,,,,,,,,,,,,,,,,,,,,,,,,,,,,,,,,,,,,,,,,,,,,,,,,,,,,,70.0,70.0,57.0,133.0,133.0,57.0,2.1,2.12,-198,-280,0,-287,191,270,310.1916913986206,310.19181656837463,310.19527101516724,310.20616030693054,310.3541407585144,310.3541407585144,310.3541407585144,310.3541407585144,310.3541407585144,310.3541407585144,310.3541407585144,313.82992219924927,2,3.604384422302246,None,,,,,,,,,,,,,,,,,,60,1,2025-02-19_16h45.59.841,comp,2024.2.4,56.88611124673817,2025-02-19 16h47.40.347399 -0500,
48,48,0,critical,hdw,20.0,2.1,upper,200.0,125.0,141.0,141.0,125.0,200.0,3,5.1574389934539795,None,,,,,0,0,0,0,0,48,48,23,313.8455481529236,,,,,,,,,,,,,,,,,,,,,,,,,,,,,,,,,,,,,,,,,,,,,,,,,,,,,,,,,,,,,,,,,,,,,,,,,,,,,,,,,200.0,125.0,141.0,141.0,125.0,200.0,2.1,2.11,-229,270,0,260,266,-280,313.8314199447632,313.83149766921997,313.8344852924347,313.8455481529236,313.99279499053955,313.99279499053955,313.99279499053955,313.99279499053955,313.99279499053955,313.99279499053955,313.99279499053955,319.010306596756,3,5.1574389934539795,None,,,,,,,,,,,,,,,,,,60,1,2025-02-19_16h45.59.841,comp,2024.2.4,56.88611124673817,2025-02-19 16h47.40.347399 -0500,
49,49,0,critical,dhw,35.0,2.1,upper,127.0,127.0,200.0,125.0,125.0,200.0,3,2.0485987663269043,None,,,,,0,0,0,0,0,49,49,1,319.02638149261475,,,,,,,,,,,,,,,,,,,,,,,,,,,,,,,,,,,,,,,,,,,,,,,,,,,,,,,,,,,,,,,,,,,,,,,,,,,,,,,,,127.0,127.0,200.0,125.0,125.0,200.0,2.1,2.11,-222,286,0,251,258,-279,319.011922121048,319.01202630996704,319.01547718048096,319.02638149261475,319.18553352355957,319.18553352355957,319.18553352355957,319.18553352355957,319.18553352355957,319.18553352355957,319.18553352355957,321.09185218811035,3,2.0485987663269043,None,,,,,,,,,,,,,,,,,,60,1,2025-02-19_16h45.59.841,comp,2024.2.4,56.88611124673817,2025-02-19 16h47.40.347399 -0500,
50,50,0,critical,dwh,35.0,1.0,lower,70.0,70.0,57.0,133.0,133.0,57.0,3,6.222449064254761,None,,,,,0,0,0,0,0,50,50,60,321.1079819202423,,,,,,,,,,,,,,,,,,,,,,,,,,,,,,,,,,,,,,,,,,,,,,,,,,,,,,,,,,,,,,,,,,,,,,,,,,,,,,,,,70.0,70.0,57.0,133.0,133.0,57.0,1.0,1.1,-678,290,-480,287,-289,276,321.09343218803406,321.09350633621216,321.09688997268677,321.1079819202423,321.2605562210083,321.2605562210083,321.2605562210083,321.2605562210083,321.2605562210083,321.2605562210083,321.2605562210083,327.33614015579224,3,6.222449064254761,None,,,,,,,,,,,,,,,,,,60,1,2025-02-19_16h45.59.841,comp,2024.2.4,56.88611124673817,2025-02-19 16h47.40.347399 -0500,
51,51,0,critical,whd,20.0,3.0,upper,125.0,200.0,200.0,125.0,141.0,141.0,2,3.809415578842163,None,,,,,0,0,0,0,0,51,51,93,327.35367226600647,,,,,,,,,,,,,,,,,,,,,,,,,,,,,,,,,,,,,,,,,,,,,,,,,,,,,,,,,,,,,,,,,,,,,,,,,,,,,,,,,125.0,200.0,200.0,125.0,141.0,141.0,3.0,3.2,-258,-250,0,-13,229,266,327.33754658699036,327.3376214504242,327.3404815196991,327.35367226600647,327.49609875679016,327.49609875679016,327.49609875679016,327.49609875679016,327.49609875679016,327.49609875679016,327.49609875679016,331.1800093650818,2,3.809415578842163,None,,,,,,,,,,,,,,,,,,60,1,2025-02-19_16h45.59.841,comp,2024.2.4,56.88611124673817,2025-02-19 16h47.40.347399 -0500,
52,52,0,critical,wdh,20.0,2.1,upper,125.0,200.0,141.0,141.0,200.0,125.0,1,5.823727130889893,None,,,,,0,0,0,0,0,52,52,11,331.19488739967346,,,,,,,,,,,,,,,,,,,,,,,,,,,,,,,,,,,,,,,,,,,,,,,,,,,,,,,,,,,,,,,,,,,,,,,,,,,,,,,,,125.0,200.0,141.0,141.0,200.0,125.0,2.1,2.12,-266,-254,0,-269,229,258,331.1817216873169,331.1818549633026,331.1846673488617,331.19488739967346,331.3462724685669,331.3462724685669,331.3462724685669,331.3462724685669,331.3462724685669,331.3462724685669,331.3462724685669,337.03294682502747,1,5.823727130889893,None,,,,,,,,,,,,,,,,,,60,1,2025-02-19_16h45.59.841,comp,2024.2.4,56.88611124673817,2025-02-19 16h47.40.347399 -0500,
53,53,0,filler_random,None,None,None,None,None,None,None,None,None,None,1,4.406725168228149,None,,,,,0,0,0,0,0,53,53,131,337.05336689949036,,,,,,,,,,,,,,,,,,,,,,,,,,,,,,,,,,,,,,,,,,,,,,,,,,,,,,,,,,,,,,,,,,,,,,,,,,,,,,,,,140.3775800294482,155.51282636455554,192.73544930558492,113.75349252612241,118.88279699673888,80.04912584588162,2.2,2.21,-231,-261,0,263,193,274,337.03467655181885,337.0348241329193,337.03780698776245,337.05336689949036,337.20056223869324,337.20056223869324,337.20056223869324,337.20056223869324,337.20056223869324,337.20056223869324,337.20056223869324,341.4631860256195,1,4.406725168228149,None,,,,,,,,,,,,,,,,,,60,1,2025-02-19_16h45.59.841,comp,2024.2.4,56.88611124673817,2025-02-19 16h47.40.347399 -0500,
54,54,0,filler_square,None,None,None,None,None,None,None,None,None,None,1,2.721086263656616,None,,,,,0,0,0,0,0,54,54,172,341.48143434524536,,,,,,,,,,,,,,,,,,,,,,,,,,,,,,,,,,,,,,,,,,,,,,,,,,,,,,,,,,,,,,,,,,,,,,,,,,,,,,,,,141.7541096229619,141.7541096229619,126.31819071526131,86.7293920971477,131.5064728707472,89.74190437811212,2.1,2.11,-210,261,0,288,184,-256,341.46512842178345,341.4652063846588,341.4684226512909,341.48143434524536,341.6290645599365,341.6290645599365,341.6290645599365,341.6290645599365,341.6290645599365,341.6290645599365,341.6290645599365,344.21639370918274,1,2.721086263656616,None,,,,,,,,,,,,,,,,,,60,1,2025-02-19_16h45.59.841,comp,2024.2.4,56.88611124673817,2025-02-19 16h47.40.347399 -0500,
55,55,0,critical,hdw,35.0,1.0,upper,200.0,125.0,127.0,127.0,125.0,200.0,3,4.366474628448486,None,,,,,0,0,0,0,0,55,55,109,344.23622822761536,,,,,,,,,,,,,,,,,,,,,,,,,,,,,,,,,,,,,,,,,,,,,,,,,,,,,,,,,,,,,,,,,,,,,,,,,,,,,,,,,200.0,125.0,127.0,127.0,125.0,200.0,1.0,1.2,-222,16,0,-10,260,14,344.21804118156433,344.21812415122986,344.2214334011078,344.23622822761536,344.3836672306061,344.3836672306061,344.3836672306061,344.3836672306061,344.3836672306061,344.3836672306061,344.3836672306061,348.6046874523163,3,4.366474628448486,None,,,,,,,,,,,,,,,,,,60,1,2025-02-19_16h45.59.841,comp,2024.2.4,56.88611124673817,2025-02-19 16h47.40.347399 -0500,
56,56,0,critical,dwh,20.0,4.0,lower,78.0,78.0,57.0,133.0,133.0,57.0,2,7.139004945755005,None,,,,,0,0,0,0,0,56,56,70,348.62451004981995,,,,,,,,,,,,,,,,,,,,,,,,,,,,,,,,,,,,,,,,,,,,,,,,,,,,,,,,,,,,,,,,,,,,,,,,,,,,,,,,,78.0,78.0,57.0,133.0,133.0,57.0,4.0,4.2,-202,-12,0,-288,191,17,348.6063094139099,348.6063861846924,348.6097993850708,348.62451004981995,348.7678496837616,348.7678496837616,348.7678496837616,348.7678496837616,348.7678496837616,348.7678496837616,348.7678496837616,355.7711749076843,2,7.139004945755005,None,,,,,,,,,,,,,,,,,,60,1,2025-02-19_16h45.59.841,comp,2024.2.4,56.88611124673817,2025-02-19 16h47.40.347399 -0500,
57,57,0,catch,None,None,None,None,None,None,None,None,None,None,3,2.0457167625427246,None,,,,,0,0,0,0,0,57,57,126,355.7966637611389,,,,,,,,,,,,,,,,,,,,,,,,,,,,,,,,,,,,,,,,,,,,,,,,,,,,,,,,,,,,,,,,,,,,,,,,,,,,,,,,,125,65,128,62,152,173,1.0,1.2,-160,19,0,5,214,14,355.7730600833893,355.77313780784607,355.7762756347656,355.7966637611389,355.9376611709595,355.9376611709595,355.9376611709595,355.9376611709595,355.9376611709595,355.9376611709595,355.9376611709595,357.8574233055115,3,2.0457167625427246,None,,,,,,,,,,,,,,,,,,60,1,2025-02-19_16h45.59.841,comp,2024.2.4,56.88611124673817,2025-02-19 16h47.40.347399 -0500,
58,58,0,critical,hwd,35.0,1.0,lower,133.0,57.0,57.0,133.0,70.0,70.0,1,2.758889675140381,None,,,,,0,0,0,0,0,58,58,96,357.8760440349579,,,,,,,,,,,,,,,,,,,,,,,,,,,,,,,,,,,,,,,,,,,,,,,,,,,,,,,,,,,,,,,,,,,,,,,,,,,,,,,,,133.0,57.0,57.0,133.0,70.0,70.0,1.0,1.1,-671,251,-480,259,-282,266,357.85909032821655,357.8591682910919,357.8623492717743,357.8760440349579,358.02122259140015,358.02122259140015,358.02122259140015,358.02122259140015,358.02122259140015,358.02122259140015,358.02122259140015,360.6372284889221,1,2.758889675140381,None,,,,,,,,,,,,,,,,,,60,1,2025-02-19_16h45.59.841,comp,2024.2.4,56.88611124673817,2025-02-19 16h47.40.347399 -0500,
59,59,0,critical,whd,20.0,2.1,upper,125.0,200.0,200.0,125.0,141.0,141.0,1,3.1110875606536865,None,,,,,0,0,0,0,0,59,59,15,360.65139150619507,,,,,,,,,,,,,,,,,,,,,,,,,,,,,,,,,,,,,,,,,,,,,,,,,,,,,,,,,,,,,,,,,,,,,,,,,,,,,,,,,125.0,200.0,200.0,125.0,141.0,141.0,2.1,2.11,-258,272,0,254,229,-279,360.63877272605896,360.6388473510742,360.64186549186707,360.65139150619507,360.79347562789917,360.79347562789917,360.79347562789917,360.79347562789917,360.79347562789917,360.79347562789917,360.79347562789917,363.77423429489136,1,3.1110875606536865,None,,,,,,,,,,,,,,,,,,60,1,2025-02-19_16h45.59.841,comp,2024.2.4,56.88611124673817,2025-02-19 16h47.40.347399 -0500,
60,60,0,critical,dhw,20.0,4.0,upper,141.0,141.0,200.0,125.0,125.0,200.0,3,2.257067918777466,None,,,,,0,0,0,0,0,60,60,59,363.79437232017517,,,,,,,,,,,,,,,,,,,,,,,,,,,,,,,,,,,,,,,,,,,,,,,,,,,,,,,,,,,,,,,,,,,,,,,,,,,,,,,,,141.0,141.0,200.0,125.0,125.0,200.0,4.0,4.1,-229,-278,0,2,258,-267,363.7757341861725,363.77581119537354,363.7786672115326,363.79437232017517,363.92688727378845,363.92688727378845,363.92688727378845,363.92688727378845,363.92688727378845,363.92688727378845,363.92688727378845,366.0585198402405,3,2.257067918777466,None,,,,,,,,,,,,,,,,,,60,1,2025-02-19_16h45.59.841,comp,2024.2.4,56.88611124673817,2025-02-19 16h47.40.347399 -0500,
61,61,0,filler_square,None,None,None,None,None,None,None,None,None,None,2,3.495148181915283,None,,,,,0,0,0,0,0,61,61,182,366.07577991485596,,,,,,,,,,,,,,,,,,,,,,,,,,,,,,,,,,,,,,,,,,,,,,,,,,,,,,,,,,,,,,,,,,,,,,,,,,,,,,,,,62.123209664027236,70.20648993168432,72.14425292912398,72.14425292912398,59.811532098255746,57.394410257324935,2.2,2.22,-167,281,0,-263,161,-268,366.0603861808777,366.06050968170166,366.0642030239105,366.07577991485596,366.2203698158264,366.2203698158264,366.2203698158264,366.2203698158264,366.2203698158264,366.2203698158264,366.2203698158264,369.57503390312195,2,3.495148181915283,None,,,,,,,,,,,,,,,,,,60,1,2025-02-19_16h45.59.841,comp,2024.2.4,56.88611124673817,2025-02-19 16h47.40.347399 -0500,
62,62,0,filler_random,None,None,None,None,None,None,None,None,None,None,3,4.643534898757935,None,,,,,0,0,0,0,0,62,62,147,369.59108662605286,,,,,,,,,,,,,,,,,,,,,,,,,,,,,,,,,,,,,,,,,,,,,,,,,,,,,,,,,,,,,,,,,,,,,,,,,,,,,,,,,132.07902015278813,87.18489490398466,174.703929059628,90.07435976116142,139.08463295760413,170.2756001055725,2.1,2.11,-185,268,0,278,226,-280,369.57681155204773,369.5768892765045,369.5803315639496,369.59108662605286,369.7415347099304,369.7415347099304,369.7415347099304,369.7415347099304,369.7415347099304,369.7415347099304,369.7415347099304,374.2431712150574,3,4.643534898757935,None,,,,,,,,,,,,,,,,,,60,1,2025-02-19_16h45.59.841,comp,2024.2.4,56.88611124673817,2025-02-19 16h47.40.347399 -0500,
63,63,0,filler_random,None,None,None,None,None,None,None,None,None,None,2,2.8233630657196045,None,,,,,0,0,0,0,0,63,63,151,374.2604703903198,,,,,,,,,,,,,,,,,,,,,,,,,,,,,,,,,,,,,,,,,,,,,,,,,,,,,,,,,,,,,,,,,,,,,,,,,,,,,,,,,104.27629167773497,102.01548925867232,185.0155800818912,113.3791435254796,93.36038342554416,60.891562136737136,4.0,4.2,-204,-19,0,-277,183,13,374.24506163597107,374.2451696395874,374.2489023208618,374.2604703903198,374.40865445137024,374.40865445137024,374.40865445137024,374.40865445137024,374.40865445137024,374.40865445137024,374.40865445137024,377.09422731399536,2,2.8233630657196045,None,,,,,,,,,,,,,,,,,,60,1,2025-02-19_16h45.59.841,comp,2024.2.4,56.88611124673817,2025-02-19 16h47.40.347399 -0500,
64,64,0,filler_square,None,None,None,None,None,None,None,None,None,None,3,3.020529270172119,None,,,,,0,0,0,0,0,64,64,188,377.1102206707001,,,,,,,,,,,,,,,,,,,,,,,,,,,,,,,,,,,,,,,,,,,,,,,,,,,,,,,,,,,,,,,,,,,,,,,,,,,,,,,,,110.36632275875465,87.99888362945417,73.53362255042184,74.99302715614998,122.92595303998812,122.92595303998812,3.0,3.2,-177,-271,0,-7,195,261,377.09598779678345,377.096063375473,377.09947657585144,377.1102206707001,377.2613425254822,377.2613425254822,377.2613425254822,377.2613425254822,377.2613425254822,377.2613425254822,377.2613425254822,380.1451859474182,3,3.020529270172119,None,,,,,,,,,,,,,,,,,,60,1,2025-02-19_16h45.59.841,comp,2024.2.4,56.88611124673817,2025-02-19 16h47.40.347399 -0500,
65,65,0,critical,hdw,35.0,4.0,upper,200.0,125.0,127.0,127.0,125.0,200.0,3,3.0729711055755615,None,,,,,0,0,0,0,0,65,65,113,380.1615114212036,,,,,,,,,,,,,,,,,,,,,,,,,,,,,,,,,,,,,,,,,,,,,,,,,,,,,,,,,,,,,,,,,,,,,,,,,,,,,,,,,200.0,125.0,127.0,127.0,125.0,200.0,4.0,4.2,-222,-13,0,-269,260,14,380.1468026638031,380.1469261646271,380.1511251926422,380.1615114212036,380.31256890296936,380.31256890296936,380.31256890296936,380.31256890296936,380.31256890296936,380.31256890296936,380.31256890296936,383.24922156333923,3,3.0729711055755615,None,,,,,,,,,,,,,,,,,,60,1,2025-02-19_16h45.59.841,comp,2024.2.4,56.88611124673817,2025-02-19 16h47.40.347399 -0500,
66,66,0,critical,dwh,20.0,2.1,upper,141.0,141.0,125.0,200.0,200.0,125.0,2,5.345599412918091,None,,,,,0,0,0,0,0,66,66,31,383.2655200958252,,,,,,,,,,,,,,,,,,,,,,,,,,,,,,,,,,,,,,,,,,,,,,,,,,,,,,,,,,,,,,,,,,,,,,,,,,,,,,,,,141.0,141.0,125.0,200.0,200.0,125.0,2.1,2.12,-266,-271,0,-273,258,270,383.2509400844574,383.25101613998413,383.25432229042053,383.2655200958252,383.4102282524109,383.4102282524109,383.4102282524109,383.4102282524109,383.4102282524109,383.4102282524109,383.4102282524109,388.62033700942993,2,5.345599412918091,None,,,,,,,,,,,,,,,,,,60,1,2025-02-19_16h45.59.841,comp,2024.2.4,56.88611124673817,2025-02-19 16h47.40.347399 -0500,
67,67,0,filler_square,None,None,None,None,None,None,None,None,None,None,2,3.0309300422668457,None,,,,,0,0,0,0,0,67,67,178,388.63583874702454,,,,,,,,,,,,,,,,,,,,,,,,,,,,,,,,,,,,,,,,,,,,,,,,,,,,,,,,,,,,,,,,,,,,,,,,,,,,,,,,,74.60443089463018,76.64672618822621,97.60254590073905,97.60254590073905,66.61153419059211,92.87099570288356,1.0,1.1,-663,288,-480,252,-289,276,388.6220808029175,388.62215757369995,388.6250550746918,388.63583874702454,388.78115701675415,388.78115701675415,388.78115701675415,388.78115701675415,388.78115701675415,388.78115701675415,388.78115701675415,391.6812813282013,2,3.0309300422668457,None,,,,,,,,,,,,,,,,,,60,1,2025-02-19_16h45.59.841,comp,2024.2.4,56.88611124673817,2025-02-19 16h47.40.347399 -0500,
68,68,0,filler_random,None,None,None,None,None,None,None,None,None,None,2,3.086007595062256,None,,,,,0,0,0,0,0,68,68,133,391.70059394836426,,,,,,,,,,,,,,,,,,,,,,,,,,,,,,,,,,,,,,,,,,,,,,,,,,,,,,,,,,,,,,,,,,,,,,,,,,,,,,,,,99.77145579051788,90.6559994445303,191.0434857900689,172.35726218429585,60.566477058654016,129.29621202809443,3.0,3.1,-228,259,0,-12,247,-281,391.6828684806824,391.6829426288605,391.68606400489807,391.70059394836426,391.8530161380768,391.8530161380768,391.8530161380768,391.8530161380768,391.8530161380768,391.8530161380768,391.8530161380768,394.80182933807373,2,3.086007595062256,None,,,,,,,,,,,,,,,,,,60,1,2025-02-19_16h45.59.841,comp,2024.2.4,56.88611124673817,2025-02-19 16h47.40.347399 -0500,
69,69,0,critical,dwh,35.0,4.0,upper,127.0,127.0,125.0,200.0,200.0,125.0,2,4.121703386306763,None,,,,,0,0,0,0,0,69,69,65,394.81836581230164,,,,,,,,,,,,,,,,,,,,,,,,,,,,,,,,,,,,,,,,,,,,,,,,,,,,,,,,,,,,,,,,,,,,,,,,,,,,,,,,,127.0,127.0,125.0,200.0,200.0,125.0,4.0,4.2,-260,11,0,-252,258,14,394.80339431762695,394.80347061157227,394.8072202205658,394.81836581230164,394.9657940864563,394.9657940864563,394.9657940864563,394.9657940864563,394.9657940864563,394.9657940864563,394.9657940864563,398.95116806030273,2,4.121703386306763,None,,,,,,,,,,,,,,,,,,60,1,2025-02-19_16h45.59.841,comp,2024.2.4,56.88611124673817,2025-02-19 16h47.40.347399 -0500,
70,70,0,filler_random,None,None,None,None,None,None,None,None,None,None,2,1.1959633827209473,None,,,,,0,0,0,0,0,70,70,157,398.96697878837585,,,,,,,,,,,,,,,,,,,,,,,,,,,,,,,,,,,,,,,,,,,,,,,,,,,,,,,,,,,,,,,,,,,,,,,,,,,,,,,,,78.52646655302158,184.42689289262796,190.96046324790953,167.18940262762192,108.40804109458847,142.18234861577304,4.0,4.2,-272,-12,0,-273,251,3,398.95280480384827,398.9529023170471,398.95625019073486,398.96697878837585,399.1162209510803,399.1162209510803,399.1162209510803,399.1162209510803,399.1162209510803,399.1162209510803,399.1162209510803,400.1670467853546,2,1.1959633827209473,None,,,,,,,,,,,,,,,,,,60,1,2025-02-19_16h45.59.841,comp,2024.2.4,56.88611124673817,2025-02-19 16h47.40.347399 -0500,
71,71,0,filler_random,None,None,None,None,None,None,None,None,None,None,2,1.8085944652557373,None,,,,,0,0,0,0,0,71,71,143,400.19396567344666,,,,,,,,,,,,,,,,,,,,,,,,,,,,,,,,,,,,,,,,,,,,,,,,,,,,,,,,,,,,,,,,,,,,,,,,,,,,,,,,,111.77101707234482,111.467186769778,156.40985957772563,144.11073452624322,111.59492789162674,87.69637690065835,2.1,2.11,-224,270,0,283,212,-255,400.1688144207001,400.1689279079437,400.17238426208496,400.19396567344666,400.334951877594,400.334951877594,400.334951877594,400.334951877594,400.334951877594,400.334951877594,400.334951877594,402.0179166793823,2,1.8085944652557373,None,,,,,,,,,,,,,,,,,,60,1,2025-02-19_16h45.59.841,comp,2024.2.4,56.88611124673817,2025-02-19 16h47.40.347399 -0500,
72,72,0,catch,None,None,None,None,None,None,None,None,None,None,2,1.5122935771942139,None,,,,,0,0,0,0,0,72,72,125,402.03458070755005,,,,,,,,,,,,,,,,,,,,,,,,,,,,,,,,,,,,,,,,,,,,,,,,,,,,,,,,,,,,,,,,,,,,,,,,,,,,,,,,,73,117,196,129,60,130,3.0,3.1,-219,257,0,6,226,-285,402.01978278160095,402.0198600292206,402.0230026245117,402.03458070755005,402.18483543395996,402.18483543395996,402.18483543395996,402.18483543395996,402.18483543395996,402.18483543395996,402.18483543395996,403.55111837387085,2,1.5122935771942139,None,,,,,,,,,,,,,,,,,,60,1,2025-02-19_16h45.59.841,comp,2024.2.4,56.88611124673817,2025-02-19 16h47.40.347399 -0500,
73,73,0,filler_random,None,None,None,None,None,None,None,None,None,None,3,2.1871962547302246,None,,,,,0,0,0,0,0,73,73,145,403.56782245635986,,,,,,,,,,,,,,,,,,,,,,,,,,,,,,,,,,,,,,,,,,,,,,,,,,,,,,,,,,,,,,,,,,,,,,,,,,,,,,,,,113.31756920342478,98.88520513786668,98.44011446956549,154.1493328385076,129.0438060054141,174.11025225661507,1.0,1.3,257,-280,480,-272,740,-279,403.5527729988098,403.5528497695923,403.5560483932495,403.56782245635986,403.707679271698,403.707679271698,403.707679271698,403.707679271698,403.707679271698,403.707679271698,403.707679271698,405.7715096473694,3,2.1871962547302246,None,,,,,,,,,,,,,,,,,,60,1,2025-02-19_16h45.59.841,comp,2024.2.4,56.88611124673817,2025-02-19 16h47.40.347399 -0500,
74,74,0,filler_square,None,None,None,None,None,None,None,None,None,None,3,2.3838343620300293,None,,,,,0,0,0,0,0,74,74,189,405.78689455986023,,,,,,,,,,,,,,,,,,,,,,,,,,,,,,,,,,,,,,,,,,,,,,,,,,,,,,,,,,,,,,,,,,,,,,,,,,,,,,,,,64.32850590821792,59.644106195971425,60.51787768159868,63.63564748919414,67.78975872806642,67.78975872806642,2.1,2.12,-158,-262,0,-261,162,281,405.7734565734863,405.7735347747803,405.7766628265381,405.78689455986023,405.9395184516907,405.9395184516907,405.9395184516907,405.9395184516907,405.9395184516907,405.9395184516907,405.9395184516907,408.17400074005127,3,2.3838343620300293,None,,,,,,,,,,,,,,,,,,60,1,2025-02-19_16h45.59.841,comp,2024.2.4,56.88611124673817,2025-02-19 16h47.40.347399 -0500,
75,75,0,critical,dwh,20.0,1.0,lower,78.0,78.0,57.0,133.0,133.0,57.0,3,3.8104143142700195,None,,,,,0,0,0,0,0,75,75,66,408.1923589706421,,,,,,,,,,,,,,,,,,,,,,,,,,,,,,,,,,,,,,,,,,,,,,,,,,,,,,,,,,,,,,,,,,,,,,,,,,,,,,,,,78.0,78.0,57.0,133.0,133.0,57.0,1.0,1.3,278,-261,480,-261,671,-263,408.1756024360657,408.17569398880005,408.1790952682495,408.1923589706421,408.3371500968933,408.3371500968933,408.3371500968933,408.3371500968933,408.3371500968933,408.3371500968933,408.3371500968933,412.0210897922516,3,3.8104143142700195,None,,,,,,,,,,,,,,,,,,60,1,2025-02-19_16h45.59.841,comp,2024.2.4,56.88611124673817,2025-02-19 16h47.40.347399 -0500,
76,76,0,critical,hwd,35.0,2.1,upper,200.0,125.0,125.0,200.0,127.0,127.0,1,3.346773386001587,None,,,,,0,0,0,0,0,76,76,41,412.04043912887573,,,,,,,,,,,,,,,,,,,,,,,,,,,,,,,,,,,,,,,,,,,,,,,,,,,,,,,,,,,,,,,,,,,,,,,,,,,,,,,,,200.0,125.0,125.0,200.0,127.0,127.0,2.1,2.11,-258,270,0,268,260,-265,412.0226163864136,412.0226900577545,412.02577781677246,412.04043912887573,412.1882162094116,412.1882162094116,412.1882162094116,412.1882162094116,412.1882162094116,412.1882162094116,412.1882162094116,415.38967752456665,1,3.346773386001587,None,,,,,,,,,,,,,,,,,,60,1,2025-02-19_16h45.59.841,comp,2024.2.4,56.88611124673817,2025-02-19 16h47.40.347399 -0500,
77,77,0,critical,hwd,35.0,3.0,lower,133.0,57.0,57.0,133.0,70.0,70.0,1,3.6516826152801514,None,,,,,0,0,0,0,0,77,77,98,415.40718960762024,,,,,,,,,,,,,,,,,,,,,,,,,,,,,,,,,,,,,,,,,,,,,,,,,,,,,,,,,,,,,,,,,,,,,,,,,,,,,,,,,133.0,57.0,57.0,133.0,70.0,70.0,3.0,3.2,-191,-273,0,8,198,284,415.39134645462036,415.39142322540283,415.3956046104431,415.40718960762024,415.554940700531,415.554940700531,415.554940700531,415.554940700531,415.554940700531,415.554940700531,415.554940700531,419.065078496933,1,3.6516826152801514,None,,,,,,,,,,,,,,,,,,60,1,2025-02-19_16h45.59.841,comp,2024.2.4,56.88611124673817,2025-02-19 16h47.40.347399 -0500,
78,78,0,critical,whd,20.0,2.1,lower,57.0,133.0,133.0,57.0,78.0,78.0,2,6.59201192855835,None,,,,,0,0,0,0,0,78,78,38,419.08257699012756,,,,,,,,,,,,,,,,,,,,,,,,,,,,,,,,,,,,,,,,,,,,,,,,,,,,,,,,,,,,,,,,,,,,,,,,,,,,,,,,,57.0,133.0,133.0,57.0,78.0,78.0,2.1,2.12,-191,-251,0,-273,164,270,419.0665168762207,419.0665946006775,419.069452047348,419.08257699012756,419.22490882873535,419.22490882873535,419.22490882873535,419.22490882873535,419.22490882873535,419.22490882873535,419.22490882873535,425.68433260917664,2,6.59201192855835,None,,,,,,,,,,,,,,,,,,60,1,2025-02-19_16h45.59.841,comp,2024.2.4,56.88611124673817,2025-02-19 16h47.40.347399 -0500,
79,79,0,critical,hwd,20.0,3.0,lower,133.0,57.0,57.0,133.0,78.0,78.0,1,3.310239553451538,None,,,,,0,0,0,0,0,79,79,104,425.7003149986267,,,,,,,,,,,,,,,,,,,,,,,,,,,,,,,,,,,,,,,,,,,,,,,,,,,,,,,,,,,,,,,,,,,,,,,,,,,,,,,,,133.0,57.0,57.0,133.0,78.0,78.0,3.0,3.2,-191,-252,0,0,202,288,425.6857659816742,425.6858410835266,425.68871569633484,425.7003149986267,425.84662771224976,425.84662771224976,425.84662771224976,425.84662771224976,425.84662771224976,425.84662771224976,425.84662771224976,429.0268888473511,1,3.310239553451538,None,,,,,,,,,,,,,,,,,,60,1,2025-02-19_16h45.59.841,comp,2024.2.4,56.88611124673817,2025-02-19 16h47.40.347399 -0500,
80,80,0,critical,dhw,35.0,2.1,lower,70.0,70.0,133.0,57.0,57.0,133.0,2,2.8563425540924072,None,,,,,0,0,0,0,0,80,80,24,429.0421950817108,,,,,,,,,,,,,,,,,,,,,,,,,,,,,,,,,,,,,,,,,,,,,,,,,,,,,,,,,,,,,,,,,,,,,,,,,,,,,,,,,70.0,70.0,133.0,57.0,57.0,133.0,2.1,2.12,-160,-257,0,-252,191,265,429.02841448783875,429.028489112854,429.03193712234497,429.0421950817108,429.19148087501526,429.19148087501526,429.19148087501526,429.19148087501526,429.19148087501526,429.19148087501526,429.19148087501526,431.9120628833771,2,2.8563425540924072,None,,,,,,,,,,,,,,,,,,60,1,2025-02-19_16h45.59.841,comp,2024.2.4,56.88611124673817,2025-02-19 16h47.40.347399 -0500,
81,81,0,critical,hdw,20.0,3.0,lower,133.0,57.0,78.0,78.0,57.0,133.0,1,2.322840690612793,None,,,,,0,0,0,0,0,81,81,116,431.92782974243164,,,,,,,,,,,,,,,,,,,,,,,,,,,,,,,,,,,,,,,,,,,,,,,,,,,,,,,,,,,,,,,,,,,,,,,,,,,,,,,,,133.0,57.0,78.0,78.0,57.0,133.0,3.0,3.1,-164,282,0,-15,202,-274,431.9137544631958,431.9138844013214,431.917448759079,431.92782974243164,432.0778841972351,432.0778841972351,432.0778841972351,432.0778841972351,432.0778841972351,432.0778841972351,432.0778841972351,434.26448369026184,1,2.322840690612793,None,,,,,,,,,,,,,,,,,,60,1,2025-02-19_16h45.59.841,comp,2024.2.4,56.88611124673817,2025-02-19 16h47.40.347399 -0500,
82,82,0,filler_square,None,None,None,None,None,None,None,None,None,None,1,2.287618637084961,None,,,,,0,0,0,0,0,82,82,183,434.2836174964905,,,,,,,,,,,,,,,,,,,,,,,,,,,,,,,,,,,,,,,,,,,,,,,,,,,,,,,,,,,,,,,,,,,,,,,,,,,,,,,,,90.93594263324616,90.93594263324616,86.74316145055471,70.47672854922264,88.64624577946606,77.18763739323632,2.2,2.22,-177,262,0,-270,170,-277,434.26683735847473,434.2669687271118,434.2699325084686,434.2836174964905,434.42868757247925,434.42868757247925,434.42868757247925,434.42868757247925,434.42868757247925,434.42868757247925,434.42868757247925,436.57945823669434,1,2.287618637084961,None,,,,,,,,,,,,,,,,,,60,1,2025-02-19_16h45.59.841,comp,2024.2.4,56.88611124673817,2025-02-19 16h47.40.347399 -0500,
83,83,0,filler_random,None,None,None,None,None,None,None,None,None,None,1,2.806494951248169,None,,,,,0,0,0,0,0,83,83,137,436.5961332321167,,,,,,,,,,,,,,,,,,,,,,,,,,,,,,,,,,,,,,,,,,,,,,,,,,,,,,,,,,,,,,,,,,,,,,,,,,,,,,,,,184.83785813747647,121.39683318244015,130.79792623258228,110.1912376392184,142.43193090455534,172.95423648873754,3.0,3.2,-212,-254,0,-6,238,287,436.58137822151184,436.5814700126648,436.58510971069336,436.5961332321167,436.7448227405548,436.7448227405548,436.7448227405548,436.7448227405548,436.7448227405548,436.7448227405548,436.7448227405548,439.4135081768036,1,2.806494951248169,None,,,,,,,,,,,,,,,,,,60,1,2025-02-19_16h45.59.841,comp,2024.2.4,56.88611124673817,2025-02-19 16h47.40.347399 -0500,
84,84,0,filler_square,None,None,None,None,None,None,None,None,None,None,2,2.3490233421325684,None,,,,,0,0,0,0,0,84,84,196,439.4303209781647,,,,,,,,,,,,,,,,,,,,,,,,,,,,,,,,,,,,,,,,,,,,,,,,,,,,,,,,,,,,,,,,,,,,,,,,,,,,,,,,,68.04021024360854,88.34196358568215,92.81889551787637,92.81889551787637,84.9331706293924,67.09110394901245,2.2,2.21,-187,-264,0,285,176,269,439.415287733078,439.41536569595337,439.4187819957733,439.4303209781647,439.57716846466064,439.57716846466064,439.57716846466064,439.57716846466064,439.57716846466064,439.57716846466064,439.57716846466064,441.7812795639038,2,2.3490233421325684,None,,,,,,,,,,,,,,,,,,60,1,2025-02-19_16h45.59.841,comp,2024.2.4,56.88611124673817,2025-02-19 16h47.40.347399 -0500,
85,85,0,filler_square,None,None,None,None,None,None,None,None,None,None,1,1.333573818206787,None,,,,,0,0,0,0,0,85,85,194,441.79745602607727,,,,,,,,,,,,,,,,,,,,,,,,,,,,,,,,,,,,,,,,,,,,,,,,,,,,,,,,,,,,,,,,,,,,,,,,,,,,,,,,,188.51274946556734,188.51274946556734,186.50804566186892,85.06420851913062,84.81854086245325,66.69112340032554,1.0,1.2,-233,-2,0,11,172,-18,441.78314757347107,441.7832260131836,441.7866253852844,441.79745602607727,441.9476478099823,441.9476478099823,441.9476478099823,441.9476478099823,441.9476478099823,441.9476478099823,441.9476478099823,443.14808106422424,1,1.333573818206787,None,,,,,,,,,,,,,,,,,,60,1,2025-02-19_16h45.59.841,comp,2024.2.4,56.88611124673817,2025-02-19 16h47.40.347399 -0500,
86,86,0,filler_random,None,None,None,None,None,None,None,None,None,None,2,1.9507062435150146,None,,,,,0,0,0,0,0,86,86,138,443.1639482975006,,,,,,,,,,,,,,,,,,,,,,,,,,,,,,,,,,,,,,,,,,,,,,,,,,,,,,,,,,,,,,,,,,,,,,,,,,,,,,,,,174.0775185041524,105.52182110447865,135.22034186605418,163.9055989530534,76.50343783635397,151.04324036990954,4.0,4.2,-231,-4,0,-260,253,-12,443.15001130104065,443.15009021759033,443.1536250114441,443.1639482975006,443.31705617904663,443.31705617904663,443.31705617904663,443.31705617904663,443.31705617904663,443.31705617904663,443.31705617904663,445.1174774169922,2,1.9507062435150146,None,,,,,,,,,,,,,,,,,,60,1,2025-02-19_16h45.59.841,comp,2024.2.4,56.88611124673817,2025-02-19 16h47.40.347399 -0500,
87,87,0,critical,whd,35.0,2.1,lower,57.0,133.0,133.0,57.0,70.0,70.0,2,5.669253349304199,None,,,,,0,0,0,0,0,87,87,36,445.1334955692291,,,,,,,,,,,,,,,,,,,,,,,,,,,,,,,,,,,,,,,,,,,,,,,,,,,,,,,,,,,,,,,,,,,,,,,,,,,,,,,,,57.0,133.0,133.0,57.0,70.0,70.0,2.1,2.11,-191,285,0,263,160,-254,445.11910033226013,445.1191759109497,445.1226544380188,445.1334955692291,445.2841885089874,445.2841885089874,445.2841885089874,445.2841885089874,445.2841885089874,445.2841885089874,445.2841885089874,450.81813955307007,2,5.669253349304199,None,,,,,,,,,,,,,,,,,,60,1,2025-02-19_16h45.59.841,comp,2024.2.4,56.88611124673817,2025-02-19 16h47.40.347399 -0500,
88,88,0,filler_random,None,None,None,None,None,None,None,None,None,None,1,2.3208799362182617,None,,,,,0,0,0,0,0,88,88,159,450.8338677883148,,,,,,,,,,,,,,,,,,,,,,,,,,,,,,,,,,,,,,,,,,,,,,,,,,,,,,,,,,,,,,,,,,,,,,,,,,,,,,,,,196.15518268831147,108.94764664997702,146.33481033449922,62.168702929770895,126.1292224609441,89.47829329166359,3.0,3.1,-182,289,0,-17,172,-279,450.81995487213135,450.8200857639313,450.82352209091187,450.8338677883148,450.98417377471924,450.98417377471924,450.98417377471924,450.98417377471924,450.98417377471924,450.98417377471924,450.98417377471924,453.16792130470276,1,2.3208799362182617,None,,,,,,,,,,,,,,,,,,60,1,2025-02-19_16h45.59.841,comp,2024.2.4,56.88611124673817,2025-02-19 16h47.40.347399 -0500,
89,89,0,critical,whd,35.0,3.0,lower,57.0,133.0,133.0,57.0,70.0,70.0,2,4.1493589878082275,None,,,,,0,0,0,0,0,89,89,86,453.18196153640747,,,,,,,,,,,,,,,,,,,,,,,,,,,,,,,,,,,,,,,,,,,,,,,,,,,,,,,,,,,,,,,,,,,,,,,,,,,,,,,,,57.0,133.0,133.0,57.0,70.0,70.0,3.0,3.1,-191,274,0,0,160,-252,453.16944551467896,453.1695215702057,453.1728870868683,453.18196153640747,453.33660650253296,453.33660650253296,453.33660650253296,453.33660650253296,453.33660650253296,453.33660650253296,453.33660650253296,457.3362166881561,2,4.1493589878082275,None,,,,,,,,,,,,,,,,,,60,1,2025-02-19_16h45.59.841,comp,2024.2.4,56.88611124673817,2025-02-19 16h47.40.347399 -0500,
90,90,0,filler_random,None,None,None,None,None,None,None,None,None,None,3,3.2011024951934814,None,,,,,0,0,0,0,0,90,90,149,457.35361909866333,,,,,,,,,,,,,,,,,,,,,,,,,,,,,,,,,,,,,,,,,,,,,,,,,,,,,,,,,,,,,,,,,,,,,,,,,,,,,,,,,76.14496085909546,145.91845186618477,78.46985555057611,124.93904365921685,152.72032834147166,87.33766332712189,2.1,2.11,-231,276,0,265,202,-276,457.3379008769989,457.3379776477814,457.3420259952545,457.35361909866333,457.50101256370544,457.50101256370544,457.50101256370544,457.50101256370544,457.50101256370544,457.50101256370544,457.50101256370544,460.5695960521698,3,3.2011024951934814,None,,,,,,,,,,,,,,,,,,60,1,2025-02-19_16h45.59.841,comp,2024.2.4,56.88611124673817,2025-02-19 16h47.40.347399 -0500,
91,91,0,filler_random,None,None,None,None,None,None,None,None,None,None,1,3.0900979042053223,None,,,,,0,0,0,0,0,91,91,162,460.58478903770447,,,,,,,,,,,,,,,,,,,,,,,,,,,,,,,,,,,,,,,,,,,,,,,,,,,,,,,,,,,,,,,,,,,,,,,,,,,,,,,,,73.96254919872923,189.97813328032152,151.42719123385933,85.88376083602598,65.45184493582975,195.04931810367796,2.2,2.21,-234,-281,0,285,236,275,460.5712614059448,460.57133507728577,460.5744957923889,460.58478903770447,460.7262017726898,460.7262017726898,460.7262017726898,460.7262017726898,460.7262017726898,460.7262017726898,460.7262017726898,463.6880269050598,1,3.0900979042053223,None,,,,,,,,,,,,,,,,,,60,1,2025-02-19_16h45.59.841,comp,2024.2.4,56.88611124673817,2025-02-19 16h47.40.347399 -0500,
92,92,0,critical,wdh,20.0,2.1,upper,125.0,200.0,141.0,141.0,200.0,125.0,3,2.9321165084838867,None,,,,,0,0,0,0,0,92,92,35,463.70331048965454,,,,,,,,,,,,,,,,,,,,,,,,,,,,,,,,,,,,,,,,,,,,,,,,,,,,,,,,,,,,,,,,,,,,,,,,,,,,,,,,,125.0,200.0,141.0,141.0,200.0,125.0,2.1,2.11,-266,265,0,278,229,-262,463.6895081996918,463.6895833015442,463.6929817199707,463.70331048965454,463.85293912887573,463.85293912887573,463.85293912887573,463.85293912887573,463.85293912887573,463.85293912887573,463.85293912887573,466.6396563053131,3,2.9321165084838867,None,,,,,,,,,,,,,,,,,,60,1,2025-02-19_16h45.59.841,comp,2024.2.4,56.88611124673817,2025-02-19 16h47.40.347399 -0500,
93,93,0,catch,None,None,None,None,None,None,None,None,None,None,1,7.746483087539673,None,,,,,0,0,0,0,0,93,93,128,466.6565053462982,,,,,,,,,,,,,,,,,,,,,,,,,,,,,,,,,,,,,,,,,,,,,,,,,,,,,,,,,,,,,,,,,,,,,,,,,,,,,,,,,128,197,102,88,133,57,3.0,3.2,-238,-277,0,12,168,284,466.6416585445404,466.6417694091797,466.64574551582336,466.6565053462982,466.8032925128937,466.8032925128937,466.8032925128937,466.8032925128937,466.8032925128937,466.8032925128937,466.8032925128937,474.407927274704,1,7.746483087539673,None,,,,,,,,,,,,,,,,,,60,1,2025-02-19_16h45.59.841,comp,2024.2.4,56.88611124673817,2025-02-19 16h47.40.347399 -0500,
94,94,0,filler_square,None,None,None,None,None,None,None,None,None,None,2,1.8823907375335693,None,,,,,0,0,0,0,0,94,94,174,474.4249234199524,,,,,,,,,,,,,,,,,,,,,,,,,,,,,,,,,,,,,,,,,,,,,,,,,,,,,,,,,,,,,,,,,,,,,,,,,,,,,,,,,109.66025642186189,107.39347681267415,195.94419598505112,195.94419598505112,151.43964061448662,117.30366703820349,3.0,3.1,-248,274,0,-4,253,-265,474.40978169441223,474.4099156856537,474.41325759887695,474.4249234199524,474.5790410041809,474.5790410041809,474.5790410041809,474.5790410041809,474.5790410041809,474.5790410041809,474.5790410041809,476.3124837875366,2,1.8823907375335693,None,,,,,,,,,,,,,,,,,,60,1,2025-02-19_16h45.59.841,comp,2024.2.4,56.88611124673817,2025-02-19 16h47.40.347399 -0500,
95,95,0,filler_random,None,None,None,None,None,None,None,None,None,None,3,2.434796094894409,None,,,,,0,0,0,0,0,95,95,130,476.328173160553,,,,,,,,,,,,,,,,,,,,,,,,,,,,,,,,,,,,,,,,,,,,,,,,,,,,,,,,,,,,,,,,,,,,,,,,,,,,,,,,,109.69088943259328,171.9522045165294,126.03422132351939,165.40966359109768,187.50832849628694,170.31604996680733,2.1,2.11,-265,253,0,285,264,-268,476.31426882743835,476.31434440612793,476.3172597885132,476.328173160553,476.4734365940094,476.4734365940094,476.4734365940094,476.4734365940094,476.4734365940094,476.4734365940094,476.4734365940094,478.7755904197693,3,2.434796094894409,None,,,,,,,,,,,,,,,,,,60,1,2025-02-19_16h45.59.841,comp,2024.2.4,56.88611124673817,2025-02-19 16h47.40.347399 -0500,
96,96,0,critical,dhw,20.0,2.1,lower,78.0,78.0,133.0,57.0,57.0,133.0,3,4.003499984741211,None,,,,,0,0,0,0,0,96,96,26,478.7913966178894,,,,,,,,,,,,,,,,,,,,,,,,,,,,,,,,,,,,,,,,,,,,,,,,,,,,,,,,,,,,,,,,,,,,,,,,,,,,,,,,,78.0,78.0,133.0,57.0,57.0,133.0,2.1,2.11,-164,252,0,269,191,-290,478.77707719802856,478.7771532535553,478.7802164554596,478.7913966178894,478.9403450489044,478.9403450489044,478.9403450489044,478.9403450489044,478.9403450489044,478.9403450489044,478.9403450489044,482.7970485687256,3,4.003499984741211,None,,,,,,,,,,,,,,,,,,60,1,2025-02-19_16h45.59.841,comp,2024.2.4,56.88611124673817,2025-02-19 16h47.40.347399 -0500,
97,97,0,critical,wdh,20.0,3.0,upper,125.0,200.0,141.0,141.0,200.0,125.0,3,5.685561418533325,None,,,,,0,0,0,0,0,97,97,81,482.8134591579437,,,,,,,,,,,,,,,,,,,,,,,,,,,,,,,,,,,,,,,,,,,,,,,,,,,,,,,,,,,,,,,,,,,,,,,,,,,,,,,,,125.0,200.0,141.0,141.0,200.0,125.0,3.0,3.1,-266,276,0,10,229,-278,482.79876375198364,482.7988455295563,482.8019435405731,482.8134591579437,482.9686825275421,482.9686825275421,482.9686825275421,482.9686825275421,482.9686825275421,482.9686825275421,482.9686825275421,488.5124399662018,3,5.685561418533325,None,,,,,,,,,,,,,,,,,,60,1,2025-02-19_16h45.59.841,comp,2024.2.4,56.88611124673817,2025-02-19 16h47.40.347399 -0500,
98,98,0,filler_random,None,None,None,None,None,None,None,None,None,None,1,3.066483497619629,None,,,,,0,0,0,0,0,98,98,142,488.52844858169556,,,,,,,,,,,,,,,,,,,,,,,,,,,,,,,,,,,,,,,,,,,,,,,,,,,,,,,,,,,,,,,,,,,,,,,,,,,,,,,,,120.4755414015329,194.4020262145942,60.08478578484093,143.86379426055177,169.4671762823295,83.44022602731904,3.0,3.1,-265,277,0,-12,210,-269,488.5140986442566,488.5141763687134,488.51736664772034,488.52844858169556,488.67373609542847,488.67373609542847,488.67373609542847,488.67373609542847,488.67373609542847,488.67373609542847,488.67373609542847,491.6121606826782,1,3.066483497619629,None,,,,,,,,,,,,,,,,,,60,1,2025-02-19_16h45.59.841,comp,2024.2.4,56.88611124673817,2025-02-19 16h47.40.347399 -0500,
99,99,0,critical,hdw,20.0,4.0,upper,200.0,125.0,141.0,141.0,125.0,200.0,1,3.463151693344116,None,,,,,0,0,0,0,0,99,99,119,491.6282796859741,,,,,,,,,,,,,,,,,,,,,,,,,,,,,,,,,,,,,,,,,,,,,,,,,,,,,,,,,,,,,,,,,,,,,,,,,,,,,,,,,200.0,125.0,141.0,141.0,125.0,200.0,4.0,4.1,-229,-252,0,-19,266,-255,491.613648891449,491.6137409210205,491.6169159412384,491.6282796859741,491.7647898197174,491.7647898197174,491.7647898197174,491.7647898197174,491.7647898197174,491.7647898197174,491.7647898197174,495.0970103740692,1,3.463151693344116,None,,,,,,,,,,,,,,,,,,60,1,2025-02-19_16h45.59.841,comp,2024.2.4,56.88611124673817,2025-02-19 16h47.40.347399 -0500,
100,100,0,filler_square,None,None,None,None,None,None,None,None,None,None,2,3.4519119262695312,None,,,,,0,0,0,0,0,100,100,202,495.1199610233307,,,,,,,,,,,,,,,,,,,,,,,,,,,,,,,,,,,,,,,,,,,,,,,,,,,,,,,,,,,,,,,,,,,,,,,,,,,,,,,,,62.97468543899168,57.066865761435096,77.17435760153454,77.17435760153454,66.96379452140808,70.32537251347748,2.2,2.22,-163,271,0,-280,170,-252,495.0988245010376,495.0989429950714,495.1022560596466,495.1199610233307,495.2631103992462,495.2631103992462,495.2631103992462,495.2631103992462,495.2631103992462,495.2631103992462,495.2631103992462,498.5824966430664,2,3.4519119262695312,None,,,,,,,,,,,,,,,,,,60,1,2025-02-19_16h45.59.841,comp,2024.2.4,56.88611124673817,2025-02-19 16h47.40.347399 -0500,
101,101,0,critical,dwh,20.0,1.0,upper,141.0,141.0,125.0,200.0,200.0,125.0,3,3.516465663909912,None,,,,,0,0,0,0,0,101,101,67,498.59850883483887,,,,,,,,,,,,,,,,,,,,,,,,,,,,,,,,,,,,,,,,,,,,,,,,,,,,,,,,,,,,,,,,,,,,,,,,,,,,,,,,,141.0,141.0,125.0,200.0,200.0,125.0,1.0,1.2,-266,14,0,-1,258,-5,498.5840063095093,498.58408212661743,498.5875914096832,498.59850883483887,498.7473270893097,498.7473270893097,498.7473270893097,498.7473270893097,498.7473270893097,498.7473270893097,498.7473270893097,502.1173372268677,3,3.516465663909912,None,,,,,,,,,,,,,,,,,,60,1,2025-02-19_16h45.59.841,comp,2024.2.4,56.88611124673817,2025-02-19 16h47.40.347399 -0500,
102,102,0,filler_square,None,None,None,None,None,None,None,None,None,None,2,3.651340961456299,None,,,,,0,0,0,0,0,102,102,190,502.1354057788849,,,,,,,,,,,,,,,,,,,,,,,,,,,,,,,,,,,,,,,,,,,,,,,,,,,,,,,,,,,,,,,,,,,,,,,,,,,,,,,,,61.022322669599276,96.70833806738491,97.30993083004779,97.30993083004779,81.5485044283524,73.95963579718018,4.0,4.1,-193,-277,0,11,182,-251,502.1191222667694,502.119197845459,502.12229776382446,502.1354057788849,502.29195499420166,502.29195499420166,502.29195499420166,502.29195499420166,502.29195499420166,502.29195499420166,502.29195499420166,505.8005166053772,2,3.651340961456299,None,,,,,,,,,,,,,,,,,,60,1,2025-02-19_16h45.59.841,comp,2024.2.4,56.88611124673817,2025-02-19 16h47.40.347399 -0500,
103,103,0,critical,wdh,20.0,4.0,upper,125.0,200.0,141.0,141.0,200.0,125.0,3,3.28269100189209,None,,,,,0,0,0,0,0,103,103,83,505.8160517215729,,,,,,,,,,,,,,,,,,,,,,,,,,,,,,,,,,,,,,,,,,,,,,,,,,,,,,,,,,,,,,,,,,,,,,,,,,,,,,,,,125.0,200.0,141.0,141.0,200.0,125.0,4.0,4.1,-266,-284,0,12,229,-285,505.8019938468933,505.80206823349,505.80514430999756,505.8160517215729,505.9654977321625,505.9654977321625,505.9654977321625,505.9654977321625,505.9654977321625,505.9654977321625,505.9654977321625,509.1112198829651,3,3.28269100189209,None,,,,,,,,,,,,,,,,,,60,1,2025-02-19_16h45.59.841,comp,2024.2.4,56.88611124673817,2025-02-19 16h47.40.347399 -0500,
104,104,0,critical,hwd,20.0,4.0,lower,133.0,57.0,57.0,133.0,78.0,78.0,1,2.626784563064575,None,,,,,0,0,0,0,0,104,104,106,509.12808775901794,,,,,,,,,,,,,,,,,,,,,,,,,,,,,,,,,,,,,,,,,,,,,,,,,,,,,,,,,,,,,,,,,,,,,,,,,,,,,,,,,133.0,57.0,57.0,133.0,78.0,78.0,4.0,4.2,-191,-9,0,-273,202,14,509.11277747154236,509.1128544807434,509.11622381210327,509.12808775901794,509.2697341442108,509.2697341442108,509.2697341442108,509.2697341442108,509.2697341442108,509.2697341442108,509.2697341442108,511.7698106765747,1,2.626784563064575,None,,,,,,,,,,,,,,,,,,60,1,2025-02-19_16h45.59.841,comp,2024.2.4,56.88611124673817,2025-02-19 16h47.40.347399 -0500,
105,105,0,filler_random,None,None,None,None,None,None,None,None,None,None,1,3.9686994552612305,None,,,,,0,0,0,0,0,105,105,154,511.78602719306946,,,,,,,,,,,,,,,,,,,,,,,,,,,,,,,,,,,,,,,,,,,,,,,,,,,,,,,,,,,,,,,,,,,,,,,,,,,,,,,,,143.95930595249536,175.33162817727177,119.36475608275515,158.75571837887384,128.6148531121855,170.06875990867456,3.0,3.2,-263,-257,0,-14,260,271,511.77146887779236,511.77154445648193,511.7755780220032,511.78602719306946,511.93505358695984,511.93505358695984,511.93505358695984,511.93505358695984,511.93505358695984,511.93505358695984,511.93505358695984,515.7683403491974,1,3.9686994552612305,None,,,,,,,,,,,,,,,,,,60,1,2025-02-19_16h45.59.841,comp,2024.2.4,56.88611124673817,2025-02-19 16h47.40.347399 -0500,
106,106,0,critical,hwd,20.0,2.1,lower,133.0,57.0,57.0,133.0,78.0,78.0,1,5.1537768840789795,None,,,,,0,0,0,0,0,106,106,18,515.7849509716034,,,,,,,,,,,,,,,,,,,,,,,,,,,,,,,,,,,,,,,,,,,,,,,,,,,,,,,,,,,,,,,,,,,,,,,,,,,,,,,,,133.0,57.0,57.0,133.0,78.0,78.0,2.1,2.12,-191,-265,0,-282,202,276,515.769880771637,515.7699537277222,515.7728235721588,515.7849509716034,515.923663854599,515.923663854599,515.923663854599,515.923663854599,515.923663854599,515.923663854599,515.923663854599,520.9557731151581,1,5.1537768840789795,None,,,,,,,,,,,,,,,,,,60,1,2025-02-19_16h45.59.841,comp,2024.2.4,56.88611124673817,2025-02-19 16h47.40.347399 -0500,
107,107,0,filler_square,None,None,None,None,None,None,None,None,None,None,1,1.6730382442474365,None,,,,,0,0,0,0,0,107,107,171,520.9785437583923,,,,,,,,,,,,,,,,,,,,,,,,,,,,,,,,,,,,,,,,,,,,,,,,,,,,,,,,,,,,,,,,,,,,,,,,,,,,,,,,,114.1716837728442,114.1716837728442,78.0690639187067,92.63873455968616,62.31896709138825,112.015545134869,3.0,3.2,-199,-259,0,-11,198,270,520.9574971199036,520.9575703144073,520.9606964588165,520.9785437583923,521.1232879161835,521.1232879161835,521.1232879161835,521.1232879161835,521.1232879161835,521.1232879161835,521.1232879161835,522.6564600467682,1,1.6730382442474365,None,,,,,,,,,,,,,,,,,,60,1,2025-02-19_16h45.59.841,comp,2024.2.4,56.88611124673817,2025-02-19 16h47.40.347399 -0500,
108,108,0,critical,hwd,20.0,4.0,upper,200.0,125.0,125.0,200.0,141.0,141.0,1,1.9862182140350342,None,,,,,0,0,0,0,0,108,108,107,522.6725633144379,,,,,,,,,,,,,,,,,,,,,,,,,,,,,,,,,,,,,,,,,,,,,,,,,,,,,,,,,,,,,,,,,,,,,,,,,,,,,,,,,200.0,125.0,125.0,200.0,141.0,141.0,4.0,4.1,-258,-274,0,9,266,-268,522.658182144165,522.6582577228546,522.6618807315826,522.6725633144379,522.8244361877441,522.8244361877441,522.8244361877441,522.8244361877441,522.8244361877441,522.8244361877441,522.8244361877441,524.6717991828918,1,1.9862182140350342,None,,,,,,,,,,,,,,,,,,60,1,2025-02-19_16h45.59.841,comp,2024.2.4,56.88611124673817,2025-02-19 16h47.40.347399 -0500,
109,109,0,filler_square,None,None,None,None,None,None,None,None,None,None,2,1.2187652587890625,None,,,,,0,0,0,0,0,109,109,179,524.6884658336639,,,,,,,,,,,,,,,,,,,,,,,,,,,,,,,,,,,,,,,,,,,,,,,,,,,,,,,,,,,,,,,,,,,,,,,,,,,,,,,,,122.93366612172981,83.20108405370269,191.15053784615057,191.15053784615057,172.84942208455402,98.7178843697167,3.0,3.2,-233,-264,0,-20,241,251,524.6736435890198,524.6737983226776,524.6770567893982,524.6884658336639,524.8368704319,524.8368704319,524.8368704319,524.8368704319,524.8368704319,524.8368704319,524.8368704319,525.9259757995605,2,1.2187652587890625,None,,,,,,,,,,,,,,,,,,60,1,2025-02-19_16h45.59.841,comp,2024.2.4,56.88611124673817,2025-02-19 16h47.40.347399 -0500,
110,110,0,critical,hwd,20.0,2.1,upper,200.0,125.0,125.0,200.0,141.0,141.0,1,1.7409403324127197,None,,,,,0,0,0,0,0,110,110,43,525.9417259693146,,,,,,,,,,,,,,,,,,,,,,,,,,,,,,,,,,,,,,,,,,,,,,,,,,,,,,,,,,,,,,,,,,,,,,,,,,,,,,,,,200.0,125.0,125.0,200.0,141.0,141.0,2.1,2.11,-258,257,0,261,266,-262,525.9278149604797,525.927943944931,525.9314634799957,525.9417259693146,526.0915858745575,526.0915858745575,526.0915858745575,526.0915858745575,526.0915858745575,526.0915858745575,526.0915858745575,527.6930508613586,1,1.7409403324127197,None,,,,,,,,,,,,,,,,,,60,1,2025-02-19_16h45.59.841,comp,2024.2.4,56.88611124673817,2025-02-19 16h47.40.347399 -0500,
111,111,0,critical,hwd,35.0,4.0,upper,200.0,125.0,125.0,200.0,127.0,127.0,1,1.6381986141204834,None,,,,,0,0,0,0,0,111,111,101,527.709246635437,,,,,,,,,,,,,,,,,,,,,,,,,,,,,,,,,,,,,,,,,,,,,,,,,,,,,,,,,,,,,,,,,,,,,,,,,,,,,,,,,200.0,125.0,125.0,200.0,127.0,127.0,4.0,4.1,-258,-281,0,-18,260,-267,527.694696187973,527.6948392391205,527.6983726024628,527.709246635437,527.8574287891388,527.8574287891388,527.8574287891388,527.8574287891388,527.8574287891388,527.8574287891388,527.8574287891388,529.3593835830688,1,1.6381986141204834,None,,,,,,,,,,,,,,,,,,60,1,2025-02-19_16h45.59.841,comp,2024.2.4,56.88611124673817,2025-02-19 16h47.40.347399 -0500,
112,112,0,critical,hdw,35.0,2.1,upper,200.0,125.0,127.0,127.0,125.0,200.0,3,2.972113847732544,None,,,,,0,0,0,0,0,112,112,45,529.3748047351837,,,,,,,,,,,,,,,,,,,,,,,,,,,,,,,,,,,,,,,,,,,,,,,,,,,,,,,,,,,,,,,,,,,,,,,,,,,,,,,,,200.0,125.0,127.0,127.0,125.0,200.0,2.1,2.11,-222,254,0,268,260,-269,529.3608975410461,529.3609681129456,529.3641471862793,529.3748047351837,529.5238420963287,529.5238420963287,529.5238420963287,529.5238420963287,529.5238420963287,529.5238420963287,529.5238420963287,532.3610000610352,3,2.972113847732544,None,,,,,,,,,,,,,,,,,,60,1,2025-02-19_16h45.59.841,comp,2024.2.4,56.88611124673817,2025-02-19 16h47.40.347399 -0500,
113,113,0,filler_square,None,None,None,None,None,None,None,None,None,None,1,2.042206048965454,None,,,,,0,0,0,0,0,113,113,177,532.3770830631256,,,,,,,,,,,,,,,,,,,,,,,,,,,,,,,,,,,,,,,,,,,,,,,,,,,,,,,,,,,,,,,,,,,,,,,,,,,,,,,,,129.95821649184464,129.95821649184464,61.29999812426645,112.92586255635885,68.89678244365173,93.04134597197248,1.0,1.2,-217,-19,0,4,199,-9,532.3628754615784,532.3629584312439,532.3662559986115,532.3770830631256,532.5245337486267,532.5245337486267,532.5245337486267,532.5245337486267,532.5245337486267,532.5245337486267,532.5245337486267,534.4268975257874,1,2.042206048965454,None,,,,,,,,,,,,,,,,,,60,1,2025-02-19_16h45.59.841,comp,2024.2.4,56.88611124673817,2025-02-19 16h47.40.347399 -0500,
114,114,0,filler_square,None,None,None,None,None,None,None,None,None,None,3,3.999532699584961,None,,,,,0,0,0,0,0,114,114,176,534.4432210922241,,,,,,,,,,,,,,,,,,,,,,,,,,,,,,,,,,,,,,,,,,,,,,,,,,,,,,,,,,,,,,,,,,,,,,,,,,,,,,,,,156.85501943210596,143.41083788070037,72.36251892722625,166.035629739086,168.88571760454033,168.88571760454033,2.1,2.12,-251,-266,0,-264,263,263,534.4287774562836,534.4289107322693,534.4323091506958,534.4432210922241,534.5915758609772,534.5915758609772,534.5915758609772,534.5915758609772,534.5915758609772,534.5915758609772,534.5915758609772,538.4450325965881,3,3.999532699584961,None,,,,,,,,,,,,,,,,,,60,1,2025-02-19_16h45.59.841,comp,2024.2.4,56.88611124673817,2025-02-19 16h47.40.347399 -0500,
115,115,0,critical,hdw,20.0,1.0,lower,133.0,57.0,78.0,78.0,57.0,133.0,1,3.97375750541687,None,,,,,0,0,0,0,0,115,115,114,538.4610211849213,,,,,,,,,,,,,,,,,,,,,,,,,,,,,,,,,,,,,,,,,,,,,,,,,,,,,,,,,,,,,,,,,,,,,,,,,,,,,,,,,133.0,57.0,78.0,78.0,57.0,133.0,1.0,1.3,316,-252,480,-289,682,-255,538.4466745853424,538.4467887878418,538.4502737522125,538.4610211849213,538.6103174686432,538.6103174686432,538.6103174686432,538.6103174686432,538.6103174686432,538.6103174686432,538.6103174686432,542.4467763900757,1,3.97375750541687,None,,,,,,,,,,,,,,,,,,60,1,2025-02-19_16h45.59.841,comp,2024.2.4,56.88611124673817,2025-02-19 16h47.40.347399 -0500,
116,116,0,critical,hwd,35.0,2.1,upper,200.0,125.0,125.0,200.0,127.0,127.0,1,2.052234649658203,None,,,,,0,0,0,0,0,116,116,17,542.4625973701477,,,,,,,,,,,,,,,,,,,,,,,,,,,,,,,,,,,,,,,,,,,,,,,,,,,,,,,,,,,,,,,,,,,,,,,,,,,,,,,,,200.0,125.0,125.0,200.0,127.0,127.0,2.1,2.12,-258,-288,0,-255,260,281,542.4482855796814,542.4483630657196,542.4514486789703,542.4625973701477,542.5988554954529,542.5988554954529,542.5988554954529,542.5988554954529,542.5988554954529,542.5988554954529,542.5988554954529,544.5298223495483,1,2.052234649658203,None,,,,,,,,,,,,,,,,,,60,1,2025-02-19_16h45.59.841,comp,2024.2.4,56.88611124673817,2025-02-19 16h47.40.347399 -0500,
117,117,0,filler_square,None,None,None,None,None,None,None,None,None,None,1,3.569343090057373,None,,,,,0,0,0,0,0,117,117,191,544.5454335212708,,,,,,,,,,,,,,,,,,,,,,,,,,,,,,,,,,,,,,,,,,,,,,,,,,,,,,,,,,,,,,,,,,,,,,,,,,,,,,,,,86.90755572451377,86.90755572451377,59.998700618274064,84.5824748514159,83.70316537648145,76.75570384276774,2.2,2.21,-182,-251,0,271,177,270,544.5315771102905,544.53165102005,544.5351016521454,544.5454335212708,544.694349527359,544.694349527359,544.694349527359,544.694349527359,544.694349527359,544.694349527359,544.694349527359,548.1305334568024,1,3.569343090057373,None,,,,,,,,,,,,,,,,,,60,1,2025-02-19_16h45.59.841,comp,2024.2.4,56.88611124673817,2025-02-19 16h47.40.347399 -0500,
118,118,0,filler_square,None,None,None,None,None,None,None,None,None,None,2,2.5683586597442627,None,,,,,0,0,0,0,0,118,118,195,548.1466491222382,,,,,,,,,,,,,,,,,,,,,,,,,,,,,,,,,,,,,,,,,,,,,,,,,,,,,,,,,,,,,,,,,,,,,,,,,,,,,,,,,96.61317159225096,105.26166270166232,137.00366681745712,137.00366681745712,80.00439795630565,103.3025295131238,2.1,2.12,-217,-274,0,-269,216,276,548.1324708461761,548.1325755119324,548.135803937912,548.1466491222382,548.3012166023254,548.3012166023254,548.3012166023254,548.3012166023254,548.3012166023254,548.3012166023254,548.3012166023254,550.7192533016205,2,2.5683586597442627,None,,,,,,,,,,,,,,,,,,60,1,2025-02-19_16h45.59.841,comp,2024.2.4,56.88611124673817,2025-02-19 16h47.40.347399 -0500,
119,119,0,critical,dwh,20.0,2.1,lower,78.0,78.0,57.0,133.0,133.0,57.0,2,6.159151792526245,None,,,,,0,0,0,0,0,119,119,30,550.7396557331085,,,,,,,,,,,,,,,,,,,,,,,,,,,,,,,,,,,,,,,,,,,,,,,,,,,,,,,,,,,,,,,,,,,,,,,,,,,,,,,,,78.0,78.0,57.0,133.0,133.0,57.0,2.1,2.12,-202,-269,0,-277,191,289,550.7209267616272,550.7210035324097,550.7239887714386,550.7396557331085,550.8791754245758,550.8791754245758,550.8791754245758,550.8791754245758,550.8791754245758,550.8791754245758,550.8791754245758,556.9161086082458,2,6.159151792526245,None,,,,,,,,,,,,,,,,,,60,1,2025-02-19_16h45.59.841,comp,2024.2.4,56.88611124673817,2025-02-19 16h47.40.347399 -0500,
120,120,0,critical,hdw,35.0,2.1,lower,133.0,57.0,70.0,70.0,57.0,133.0,3,4.551394939422607,None,,,,,0,0,0,0,0,120,120,20,556.9320387840271,,,,,,,,,,,,,,,,,,,,,,,,,,,,,,,,,,,,,,,,,,,,,,,,,,,,,,,,,,,,,,,,,,,,,,,,,,,,,,,,,133.0,57.0,70.0,70.0,57.0,133.0,2.1,2.11,-160,284,0,267,198,-252,556.9175651073456,556.9176390171051,556.9207520484924,556.9320387840271,557.0689599514008,557.0689599514008,557.0689599514008,557.0689599514008,557.0689599514008,557.0689599514008,557.0689599514008,561.4858491420746,3,4.551394939422607,None,,,,,,,,,,,,,,,,,,60,1,2025-02-19_16h45.59.841,comp,2024.2.4,56.88611124673817,2025-02-19 16h47.40.347399 -0500,
121,121,0,filler_square,None,None,None,None,None,None,None,None,None,None,1,1.1277399063110352,None,,,,,0,0,0,0,0,121,121,209,561.5015983581543,,,,,,,,,,,,,,,,,,,,,,,,,,,,,,,,,,,,,,,,,,,,,,,,,,,,,,,,,,,,,,,,,,,,,,,,,,,,,,,,,133.6319185203463,133.6319185203463,104.88309787003408,118.75229259895161,73.8763321953334,64.51621166385469,4.0,4.2,-222,18,0,-261,188,19,561.4876289367676,561.4877347946167,561.490825176239,561.5015983581543,561.6496076583862,561.6496076583862,561.6496076583862,561.6496076583862,561.6496076583862,561.6496076583862,561.6496076583862,562.6326010227203,1,1.1277399063110352,None,,,,,,,,,,,,,,,,,,60,1,2025-02-19_16h45.59.841,comp,2024.2.4,56.88611124673817,2025-02-19 16h47.40.347399 -0500,
122,122,0,critical,hdw,20.0,1.0,upper,200.0,125.0,141.0,141.0,125.0,200.0,1,2.609363079071045,None,,,,,0,0,0,0,0,122,122,115,562.6494240760803,,,,,,,,,,,,,,,,,,,,,,,,,,,,,,,,,,,,,,,,,,,,,,,,,,,,,,,,,,,,,,,,,,,,,,,,,,,,,,,,,200.0,125.0,141.0,141.0,125.0,200.0,1.0,1.3,251,-271,480,-279,746,-265,562.6340701580048,562.6341462135315,562.6370356082916,562.6494240760803,562.7992720603943,562.7992720603943,562.7992720603943,562.7992720603943,562.7992720603943,562.7992720603943,562.7992720603943,565.2685036659241,1,2.609363079071045,None,,,,,,,,,,,,,,,,,,60,1,2025-02-19_16h45.59.841,comp,2024.2.4,56.88611124673817,2025-02-19 16h47.40.347399 -0500,
123,123,0,critical,dhw,35.0,2.1,lower,70.0,70.0,133.0,57.0,57.0,133.0,2,3.9744434356689453,None,,,,,0,0,0,0,0,123,123,0,565.2849102020264,,,,,,,,,,,,,,,,,,,,,,,,,,,,,,,,,,,,,,,,,,,,,,,,,,,,,,,,,,,,,,,,,,,,,,,,,,,,,,,,,70.0,70.0,133.0,57.0,57.0,133.0,2.1,2.12,-160,-257,0,-289,191,262,565.2700047492981,565.2700791358948,565.2731285095215,565.2849102020264,565.439352273941,565.439352273941,565.439352273941,565.439352273941,565.439352273941,565.439352273941,565.439352273941,569.2710113525391,2,3.9744434356689453,None,,,,,,,,,,,,,,,,,,60,1,2025-02-19_16h45.59.841,comp,2024.2.4,56.88611124673817,2025-02-19 16h47.40.347399 -0500,
124,124,0,critical,hdw,35.0,2.1,upper,200.0,125.0,127.0,127.0,125.0,200.0,1,3.8460261821746826,None,,,,,0,0,0,0,0,124,124,21,569.2866945266724,,,,,,,,,,,,,,,,,,,,,,,,,,,,,,,,,,,,,,,,,,,,,,,,,,,,,,,,,,,,,,,,,,,,,,,,,,,,,,,,,200.0,125.0,127.0,127.0,125.0,200.0,2.1,2.11,-222,252,0,276,260,-271,569.2725851535797,569.2726616859436,569.2760074138641,569.2866945266724,569.4370892047882,569.4370892047882,569.4370892047882,569.4370892047882,569.4370892047882,569.4370892047882,569.4370892047882,573.1377258300781,1,3.8460261821746826,None,,,,,,,,,,,,,,,,,,60,1,2025-02-19_16h45.59.841,comp,2024.2.4,56.88611124673817,2025-02-19 16h47.40.347399 -0500,
125,125,0,critical,hdw,35.0,3.0,lower,133.0,57.0,70.0,70.0,57.0,133.0,1,3.9613747596740723,None,,,,,0,0,0,0,0,125,125,110,573.154221534729,,,,,,,,,,,,,,,,,,,,,,,,,,,,,,,,,,,,,,,,,,,,,,,,,,,,,,,,,,,,,,,,,,,,,,,,,,,,,,,,,133.0,57.0,70.0,70.0,57.0,133.0,3.0,3.1,-160,288,0,8,198,-269,573.1392040252686,573.1392810344696,573.1424512863159,573.154221534729,573.2949922084808,573.2949922084808,573.2949922084808,573.2949922084808,573.2949922084808,573.2949922084808,573.2949922084808,577.1261887550354,1,3.9613747596740723,None,,,,,,,,,,,,,,,,,,60,1,2025-02-19_16h45.59.841,comp,2024.2.4,56.88611124673817,2025-02-19 16h47.40.347399 -0500,
126,126,0,filler_square,None,None,None,None,None,None,None,None,None,None,3,4.140000820159912,None,,,,,0,0,0,0,0,126,126,204,577.1427798271179,,,,,,,,,,,,,,,,,,,,,,,,,,,,,,,,,,,,,,,,,,,,,,,,,,,,,,,,,,,,,,,,,,,,,,,,,,,,,,,,,61.32811089734006,61.32811089734006,59.7371398173811,58.55197302095827,60.56282503870235,58.05112696389388,4.0,4.2,-156,-16,0,-252,154,-3,577.1283016204834,577.128431558609,577.1320118904114,577.1427798271179,577.2938013076782,577.2938013076782,577.2938013076782,577.2938013076782,577.2938013076782,577.2938013076782,577.2938013076782,581.2960526943207,3,4.140000820159912,None,,,,,,,,,,,,,,,,,,60,1,2025-02-19_16h45.59.841,comp,2024.2.4,56.88611124673817,2025-02-19 16h47.40.347399 -0500,
127,127,0,critical,dhw,35.0,4.0,upper,127.0,127.0,200.0,125.0,125.0,200.0,2,2.537066698074341,None,,,,,0,0,0,0,0,127,127,53,581.3136916160583,,,,,,,,,,,,,,,,,,,,,,,,,,,,,,,,,,,,,,,,,,,,,,,,,,,,,,,,,,,,,,,,,,,,,,,,,,,,,,,,,127.0,127.0,200.0,125.0,125.0,200.0,4.0,4.1,-222,-255,0,19,258,-278,581.2975664138794,581.2976405620575,581.3005783557892,581.3136916160583,581.4590091705322,581.4590091705322,581.4590091705322,581.4590091705322,581.4590091705322,581.4590091705322,581.4590091705322,583.8631811141968,2,2.537066698074341,None,,,,,,,,,,,,,,,,,,60,1,2025-02-19_16h45.59.841,comp,2024.2.4,56.88611124673817,2025-02-19 16h47.40.347399 -0500,
128,128,0,critical,dhw,20.0,1.0,upper,141.0,141.0,200.0,125.0,125.0,200.0,2,2.230961799621582,None,,,,,0,0,0,0,0,128,128,55,583.8837811946869,,,,,,,,,,,,,,,,,,,,,,,,,,,,,,,,,,,,,,,,,,,,,,,,,,,,,,,,,,,,,,,,,,,,,,,,,,,,,,,,,141.0,141.0,200.0,125.0,125.0,200.0,1.0,1.3,251,-283,480,-269,738,-264,583.8646976947784,583.8648102283478,583.8681080341339,583.8837811946869,584.0262806415558,584.0262806415558,584.0262806415558,584.0262806415558,584.0262806415558,584.0262806415558,584.0262806415558,586.1319093704224,2,2.230961799621582,None,,,,,,,,,,,,,,,,,,60,1,2025-02-19_16h45.59.841,comp,2024.2.4,56.88611124673817,2025-02-19 16h47.40.347399 -0500,
129,129,0,critical,dwh,20.0,3.0,lower,78.0,78.0,57.0,133.0,133.0,57.0,2,3.0958333015441895,None,,,,,0,0,0,0,0,129,129,68,586.1474640369415,,,,,,,,,,,,,,,,,,,,,,,,,,,,,,,,,,,,,,,,,,,,,,,,,,,,,,,,,,,,,,,,,,,,,,,,,,,,,,,,,78.0,78.0,57.0,133.0,133.0,57.0,3.0,3.2,-202,-265,0,-15,191,289,586.1333885192871,586.1334645748138,586.1363241672516,586.1474640369415,586.2938387393951,586.2938387393951,586.2938387393951,586.2938387393951,586.2938387393951,586.2938387393951,586.2938387393951,589.2610125541687,2,3.0958333015441895,None,,,,,,,,,,,,,,,,,,60,1,2025-02-19_16h45.59.841,comp,2024.2.4,56.88611124673817,2025-02-19 16h47.40.347399 -0500,
130,130,0,critical,whd,20.0,4.0,lower,57.0,133.0,133.0,57.0,78.0,78.0,2,4.1188812255859375,None,,,,,0,0,0,0,0,130,130,94,589.2762196063995,,,,,,,,,,,,,,,,,,,,,,,,,,,,,,,,,,,,,,,,,,,,,,,,,,,,,,,,,,,,,,,,,,,,,,,,,,,,,,,,,57.0,133.0,133.0,57.0,78.0,78.0,4.0,4.2,-191,7,0,-267,164,18,589.2625133991241,589.2625887393951,589.2659928798676,589.2762196063995,589.4252007007599,589.4252007007599,589.4252007007599,589.4252007007599,589.4252007007599,589.4252007007599,589.4252007007599,593.3982839584351,2,4.1188812255859375,None,,,,,,,,,,,,,,,,,,60,1,2025-02-19_16h45.59.841,comp,2024.2.4,56.88611124673817,2025-02-19 16h47.40.347399 -0500,
131,131,0,critical,wdh,20.0,4.0,lower,57.0,133.0,78.0,78.0,133.0,57.0,3,3.1791043281555176,None,,,,,0,0,0,0,0,131,131,82,593.4160952568054,,,,,,,,,,,,,,,,,,,,,,,,,,,,,,,,,,,,,,,,,,,,,,,,,,,,,,,,,,,,,,,,,,,,,,,,,,,,,,,,,57.0,133.0,78.0,78.0,133.0,57.0,4.0,4.1,-202,-266,0,-9,164,-278,593.3998603820801,593.3999383449554,593.4029650688171,593.4160952568054,593.5622243881226,593.5622243881226,593.5622243881226,593.5622243881226,593.5622243881226,593.5622243881226,593.5622243881226,596.6000127792358,3,3.1791043281555176,None,,,,,,,,,,,,,,,,,,60,1,2025-02-19_16h45.59.841,comp,2024.2.4,56.88611124673817,2025-02-19 16h47.40.347399 -0500,
132,132,0,filler_random,None,None,None,None,None,None,None,None,None,None,1,2.6623733043670654,None,,,,,0,0,0,0,0,132,132,139,596.6205062866211,,,,,,,,,,,,,,,,,,,,,,,,,,,,,,,,,,,,,,,,,,,,,,,,,,,,,,,,,,,,,,,,,,,,,,,,,,,,,,,,,154.97440782157673,123.50295335196337,104.82327258853017,191.34823146851372,193.15745498506,71.44982558123932,2.1,2.11,-253,279,0,274,227,-283,596.601776599884,596.601912021637,596.6051425933838,596.6205062866211,596.7635746002197,596.7635746002197,596.7635746002197,596.7635746002197,596.7635746002197,596.7635746002197,596.7635746002197,599.2965655326843,1,2.6623733043670654,None,,,,,,,,,,,,,,,,,,60,1,2025-02-19_16h45.59.841,comp,2024.2.4,56.88611124673817,2025-02-19 16h47.40.347399 -0500,
133,133,0,critical,hdw,35.0,2.1,lower,133.0,57.0,70.0,70.0,57.0,133.0,3,2.432628631591797,None,,,,,0,0,0,0,0,133,133,44,599.314425945282,,,,,,,,,,,,,,,,,,,,,,,,,,,,,,,,,,,,,,,,,,,,,,,,,,,,,,,,,,,,,,,,,,,,,,,,,,,,,,,,,133.0,57.0,70.0,70.0,57.0,133.0,2.1,2.11,-160,284,0,281,198,-262,599.298047542572,599.2981209754944,599.3012664318085,599.314425945282,599.4646663665771,599.4646663665771,599.4646663665771,599.4646663665771,599.4646663665771,599.4646663665771,599.4646663665771,601.7510917186737,3,2.432628631591797,None,,,,,,,,,,,,,,,,,,60,1,2025-02-19_16h45.59.841,comp,2024.2.4,56.88611124673817,2025-02-19 16h47.40.347399 -0500,
134,134,0,filler_square,None,None,None,None,None,None,None,None,None,None,2,2.47450852394104,None,,,,,0,0,0,0,0,134,134,199,601.7692470550537,,,,,,,,,,,,,,,,,,,,,,,,,,,,,,,,,,,,,,,,,,,,,,,,,,,,,,,,,,,,,,,,,,,,,,,,,,,,,,,,,67.06721701297091,59.157842917970704,86.45047822998168,86.45047822998168,77.94177906492895,75.9362578726615,1.0,1.3,311,-287,480,-260,657,-287,601.752922296524,601.7530045509338,601.7561242580414,601.7692470550537,601.9192690849304,601.9192690849304,601.9192690849304,601.9192690849304,601.9192690849304,601.9192690849304,601.9192690849304,604.2506639957428,2,2.47450852394104,None,,,,,,,,,,,,,,,,,,60,1,2025-02-19_16h45.59.841,comp,2024.2.4,56.88611124673817,2025-02-19 16h47.40.347399 -0500,
135,135,0,filler_random,None,None,None,None,None,None,None,None,None,None,1,2.8801846504211426,None,,,,,0,0,0,0,0,135,135,163,604.2670900821686,,,,,,,,,,,,,,,,,,,,,,,,,,,,,,,,,,,,,,,,,,,,,,,,,,,,,,,,,,,,,,,,,,,,,,,,,,,,,,,,,111.7243507398619,156.97476182423378,99.77035546982134,170.05885594931414,100.27510744637027,125.68136125482354,2.1,2.11,-260,269,0,280,244,-287,604.2526090145111,604.2527980804443,604.2561874389648,604.2670900821686,604.4156193733215,604.4156193733215,604.4156193733215,604.4156193733215,604.4156193733215,604.4156193733215,604.4156193733215,607.1512956619263,1,2.8801846504211426,None,,,,,,,,,,,,,,,,,,60,1,2025-02-19_16h45.59.841,comp,2024.2.4,56.88611124673817,2025-02-19 16h47.40.347399 -0500,
136,136,0,critical,hwd,20.0,2.1,lower,133.0,57.0,57.0,133.0,78.0,78.0,1,3.9718689918518066,None,,,,,0,0,0,0,0,136,136,42,607.1670920848846,,,,,,,,,,,,,,,,,,,,,,,,,,,,,,,,,,,,,,,,,,,,,,,,,,,,,,,,,,,,,,,,,,,,,,,,,,,,,,,,,133.0,57.0,57.0,133.0,78.0,78.0,2.1,2.11,-191,272,0,287,202,-263,607.1527709960938,607.1528472900391,607.1562449932098,607.1670920848846,607.3147501945496,607.3147501945496,607.3147501945496,607.3147501945496,607.3147501945496,607.3147501945496,607.3147501945496,611.1521384716034,1,3.9718689918518066,None,,,,,,,,,,,,,,,,,,60,1,2025-02-19_16h45.59.841,comp,2024.2.4,56.88611124673817,2025-02-19 16h47.40.347399 -0500,
137,137,0,critical,wdh,35.0,4.0,lower,57.0,133.0,70.0,70.0,133.0,57.0,3,4.546186923980713,None,,,,,0,0,0,0,0,137,137,76,611.168888092041,,,,,,,,,,,,,,,,,,,,,,,,,,,,,,,,,,,,,,,,,,,,,,,,,,,,,,,,,,,,,,,,,,,,,,,,,,,,,,,,,57.0,133.0,70.0,70.0,133.0,57.0,4.0,4.2,-198,-6,0,-279,160,-12,611.1535837650299,611.153657913208,611.1577560901642,611.168888092041,611.3173706531525,611.3173706531525,611.3173706531525,611.3173706531525,611.3173706531525,611.3173706531525,611.3173706531525,615.7189629077911,3,4.546186923980713,None,,,,,,,,,,,,,,,,,,60,1,2025-02-19_16h45.59.841,comp,2024.2.4,56.88611124673817,2025-02-19 16h47.40.347399 -0500,
138,138,0,critical,dhw,20.0,1.0,lower,78.0,78.0,133.0,57.0,57.0,133.0,2,1.8363664150238037,None,,,,,0,0,0,0,0,138,138,54,615.7346405982971,,,,,,,,,,,,,,,,,,,,,,,,,,,,,,,,,,,,,,,,,,,,,,,,,,,,,,,,,,,,,,,,,,,,,,,,,,,,,,,,,78.0,78.0,133.0,57.0,57.0,133.0,1.0,1.1,-644,262,-480,275,-289,271,615.7204694747925,615.720547914505,615.723959684372,615.7346405982971,615.8863451480865,615.8863451480865,615.8863451480865,615.8863451480865,615.8863451480865,615.8863451480865,615.8863451480865,617.5922458171844,2,1.8363664150238037,None,,,,,,,,,,,,,,,,,,60,1,2025-02-19_16h45.59.841,comp,2024.2.4,56.88611124673817,2025-02-19 16h47.40.347399 -0500,
139,139,0,filler_square,None,None,None,None,None,None,None,None,None,None,3,1.849276065826416,None,,,,,0,0,0,0,0,139,139,205,617.6095743179321,,,,,,,,,,,,,,,,,,,,,,,,,,,,,,,,,,,,,,,,,,,,,,,,,,,,,,,,,,,,,,,,,,,,,,,,,,,,,,,,,87.16098112222294,66.72777587884539,125.39092350899237,122.56640193143156,196.40427862141595,196.40427862141595,3.0,3.2,-191,-250,0,-14,255,272,617.5939831733704,617.5940573215485,617.5969457626343,617.6095743179321,617.7533943653107,617.7533943653107,617.7533943653107,617.7533943653107,617.7533943653107,617.7533943653107,617.7533943653107,619.4700906276703,3,1.849276065826416,None,,,,,,,,,,,,,,,,,,60,1,2025-02-19_16h45.59.841,comp,2024.2.4,56.88611124673817,2025-02-19 16h47.40.347399 -0500,
140,140,0,critical,whd,35.0,4.0,lower,57.0,133.0,133.0,57.0,70.0,70.0,2,4.796618938446045,None,,,,,0,0,0,0,0,140,140,88,619.486563205719,,,,,,,,,,,,,,,,,,,,,,,,,,,,,,,,,,,,,,,,,,,,,,,,,,,,,,,,,,,,,,,,,,,,,,,,,,,,,,,,,57.0,133.0,133.0,57.0,70.0,70.0,4.0,4.1,-191,-250,0,2,160,-272,619.4715845584869,619.4716618061066,619.4750638008118,619.486563205719,619.6348626613617,619.6348626613617,619.6348626613617,619.6348626613617,619.6348626613617,619.6348626613617,619.6348626613617,624.2873196601868,2,4.796618938446045,None,,,,,,,,,,,,,,,,,,60,1,2025-02-19_16h45.59.841,comp,2024.2.4,56.88611124673817,2025-02-19 16h47.40.347399 -0500,
