thisN,thisTrialN,thisRepN,effect,order,distance,config,diag,h_1,w_1,h_2,w_2,h_3,w_3,rect_choice.keys,rect_choice.rt,rect_choice.duration,instructions_loop.thisRepN,instructions_loop.thisTrialN,instructions_loop.thisN,instructions_loop.thisIndex,blocks.thisRepN,blocks.thisTrialN,blocks.thisN,blocks.thisIndex,trials.thisRepN,trials.thisTrialN,trials.thisN,trials.thisIndex,thisRow.t,notes,consent.started,agree_button.started,decline_button.started,consent_img.started,mouse.started,consent.stopped,agree_button.numClicks,agree_button.timesOn,agree_button.timesOff,decline_button.numClicks,decline_button.timesOn,decline_button.timesOff,mouse.x,mouse.y,mouse.leftButton,mouse.midButton,mouse.rightButton,mouse.time,mouse.clicked_name,exp_params.started,exp_params.stopped,welcome.started,welcome_text.started,welcome.stopped,instructions_1.started,instructions_1_text_1.started,instructions_1_text_2.started,key_resp.started,instructions_1.stopped,instructions_loop.key_resp.keys,instructions_loop.key_resp.rt,instructions_loop.key_resp.duration,instructions_2.started,instructions_2_text_1.started,instructions_2_text_2.started,key_resp_2.started,instructions_2.stopped,instructions_loop.key_resp_2.keys,instructions_loop.key_resp_2.rt,instructions_loop.key_resp_2.duration,instructions_3.started,instructions_3_text_1.started,r1_instr3.started,r2_instr3.started,r3_instr3.started,r1_instr3_label.started,r2_instr3_label.started,r3_instr3_label.started,instructions_3_text_3.started,instructions_3_text_4.started,key_resp_3.started,instructions_3.stopped,instructions_loop.key_resp_3.keys,instructions_loop.key_resp_3.rt,instructions_loop.key_resp_3.duration,instructions_4.started,instructions_4_text_1.started,instructions_4_text_3.started,instructions_4_text_2.started,key_resp_4.started,instructions_4.stopped,instructions_loop.key_resp_4.keys,instructions_loop.key_resp_4.rt,instructions_loop.key_resp_4.duration,instructions_5.started,instructions_5_text_1.started,instructions_5_text_2.started,key_resp_5.started,instructions_5.stopped,instructions_loop.key_resp_5.keys,instructions_loop.key_resp_5.rt,instructions_loop.key_resp_5.duration,start_exp.started,start_exp_text.started,key_resp_6.started,start_exp.stopped,key_resp_6.keys,key_resp_6.rt,key_resp_6.duration,h_1_tmp,w_1_tmp,h_2_tmp,w_2_tmp,h_3_tmp,w_3_tmp,config_tmp,config_tmp_1,r_1_x,r_1_y,r_2_x,r_2_y,r_3_x,r_3_y,pre_trial.started,pre_trial.stopped,choice_trial.started,rect_choice.started,r_1.started,r_2.started,r_3.started,r_1_label.started,r_2_label.started,r_3_label.started,prompt.started,choice_trial.stopped,trials.rect_choice.keys,trials.rect_choice.rt,trials.rect_choice.duration,end_block.started,end_block_text.started,end_block.stopped,end.started,end_text.started,key_resp_7.started,end.stopped,key_resp_7.keys,key_resp_7.rt,key_resp_7.duration,debriefing.started,debrief_form.started,end_debrief.started,debriefing.stopped,end_debrief.keys,end_debrief.rt,end_debrief.duration,participant,computer,date,expName,psychopyVersion,frameRate,expStart,
,,,,,,,,,,,,,,,,,,,,,,,,,,,,,,,0.015620708465576172,0.042363643646240234,0.042363643646240234,0.042363643646240234,0.01515817642211914,36.84556579589844,1,[36.801965951919556],[36.801976680755615],0,,,[-48.0],[-511.0],[1],[0],[0],[36.82935309410095],['agree_button'],,,,,,,,,,,,,,,,,,,,,,,,,,,,,,,,,,,,,,,,,,,,,,,,,,,,,,,,,,,,,,,,,,,,,,,,,,,,,,,,,,,,,,,,,,,,,,,,,,,,,,,,,,,61,3,2025-02-19_16h52.07.900,comp,2024.2.4,60.097375336357565,2025-02-19 16h52.21.961855 -0500,
,,,,,,,,,,,,,,,,,,,,,,,,,,,,,,,,,,,,,,,,,,,,,,,,,,36.84582042694092,36.84585475921631,,,,,,,,,,,,,,,,,,,,,,,,,,,,,,,,,,,,,,,,,,,,,,,,,,,,,,,,,,,,,,,,,,,,,,,,,,,,,,,,,,,,,,,,,,,,,,,,,,,,,,,,,61,3,2025-02-19_16h52.07.900,comp,2024.2.4,60.097375336357565,2025-02-19 16h52.21.961855 -0500,
,,,,,,,,,,,,,,,,,,,,,,,,,,,,,,,,,,,,,,,,,,,,,,,,,,,,36.8458776473999,36.859400510787964,38.84788155555725,,,,,,,,,,,,,,,,,,,,,,,,,,,,,,,,,,,,,,,,,,,,,,,,,,,,,,,,,,,,,,,,,,,,,,,,,,,,,,,,,,,,,,,,,,,,,,,,,,,,,,61,3,2025-02-19_16h52.07.900,comp,2024.2.4,60.097375336357565,2025-02-19 16h52.21.961855 -0500,
0,0,0,,,,,,,,,,,,,,,0,0,0,0,,,,,,,,,38.86469078063965,,,,,,,,,,,,,,,,,,,,,,,,,,38.848445415496826,38.86469078063965,38.86469078063965,40.34790778160095,41.38284158706665,space,1.0181808471679688,None,41.38292622566223,41.39798450469971,41.39798450469971,42.89788746833801,46.449294090270996,space,3.5400612354278564,None,46.44938111305237,46.471176862716675,46.471176862716675,46.471176862716675,46.471176862716675,46.471176862716675,46.471176862716675,46.471176862716675,46.471176862716675,46.471176862716675,47.96494936943054,49.51632785797119,space,1.546189308166504,None,49.516416788101196,49.53183341026306,49.53183341026306,49.53183341026306,51.0315055847168,58.1624801158905,space,7.120203256607056,None,58.162566900253296,58.181543588638306,58.181543588638306,59.66444683074951,60.06585431098938,space,0.3892807960510254,None,60.065980195999146,60.08109712600708,60.08109712600708,60.982205629348755,space,0.8936576843261719,None,,,,,,,,,,,,,,,,,,,,,,,,,,,,,,,,,,,,,,,,,,,,,,,61,3,2025-02-19_16h52.07.900,comp,2024.2.4,60.097375336357565,2025-02-19 16h52.21.961855 -0500,
0,0,0,critical,dwh,20.0,2.1,lower,78.0,78.0,57.0,133.0,133.0,57.0,2,2.948113203048706,None,,,,,0,0,0,0,0,0,0,6,61.042529821395874,,,,,,,,,,,,,,,,,,,,,,,,,,,,,,,,,,,,,,,,,,,,,,,,,,,,,,,,,,,,,,,,,,,,,,,,,,,,,,,,,78.0,78.0,57.0,133.0,133.0,57.0,2.1,2.12,-202,-271,0,-255,191,264,61.02871251106262,61.02875804901123,61.03082036972046,61.042529821395874,61.187016248703,61.187016248703,61.187016248703,61.187016248703,61.187016248703,61.187016248703,61.187016248703,63.999019145965576,2,2.948113203048706,None,,,,,,,,,,,,,,,,,,61,3,2025-02-19_16h52.07.900,comp,2024.2.4,60.097375336357565,2025-02-19 16h52.21.961855 -0500,
1,1,0,filler_random,None,None,None,None,None,None,None,None,None,None,1,1.4655327796936035,None,,,,,0,0,0,0,0,1,1,131,64.0147054195404,,,,,,,,,,,,,,,,,,,,,,,,,,,,,,,,,,,,,,,,,,,,,,,,,,,,,,,,,,,,,,,,,,,,,,,,,,,,,,,,,175.8785530263134,134.73581360286119,106.77446771597849,109.67911440971872,198.73853095857964,84.34869563088193,2.1,2.11,-218,260,0,287,193,-258,63.99996638298035,64.00000834465027,64.00246787071228,64.0147054195404,64.16524648666382,64.16524648666382,64.16524648666382,64.16524648666382,64.16524648666382,64.16524648666382,64.16524648666382,65.48247694969177,1,1.4655327796936035,None,,,,,,,,,,,,,,,,,,61,3,2025-02-19_16h52.07.900,comp,2024.2.4,60.097375336357565,2025-02-19 16h52.21.961855 -0500,
2,2,0,filler_square,None,None,None,None,None,None,None,None,None,None,3,3.517118453979492,None,,,,,0,0,0,0,0,2,2,177,65.49799871444702,,,,,,,,,,,,,,,,,,,,,,,,,,,,,,,,,,,,,,,,,,,,,,,,,,,,,,,,,,,,,,,,,,,,,,,,,,,,,,,,,67.2383495228329,67.2383495228329,66.69657059892779,64.18086747132767,64.77852763285033,65.19132622669687,3.0,3.2,-162,-279,0,-9,161,265,65.48345065116882,65.48349070549011,65.48588538169861,65.49799871444702,65.64808106422424,65.64808106422424,65.64808106422424,65.64808106422424,65.64808106422424,65.64808106422424,65.64808106422424,69.0322597026825,3,3.517118453979492,None,,,,,,,,,,,,,,,,,,61,3,2025-02-19_16h52.07.900,comp,2024.2.4,60.097375336357565,2025-02-19 16h52.21.961855 -0500,
3,3,0,filler_random,None,None,None,None,None,None,None,None,None,None,1,1.5182476043701172,None,,,,,0,0,0,0,0,3,3,148,69.04766297340393,,,,,,,,,,,,,,,,,,,,,,,,,,,,,,,,,,,,,,,,,,,,,,,,,,,,,,,,,,,,,,,,,,,,,,,,,,,,,,,,,148.736595292483,127.67145333573298,61.68983511063184,168.8829132295072,164.75212993895906,92.20574963684842,3.0,3.1,-244,286,0,4,227,-255,69.03319883346558,69.03323936462402,69.03573751449585,69.04766297340393,69.19799327850342,69.19799327850342,69.19799327850342,69.19799327850342,69.19799327850342,69.19799327850342,69.19799327850342,70.58249759674072,1,1.5182476043701172,None,,,,,,,,,,,,,,,,,,61,3,2025-02-19_16h52.07.900,comp,2024.2.4,60.097375336357565,2025-02-19 16h52.21.961855 -0500,
4,4,0,critical,hdw,35.0,3.0,lower,133.0,57.0,70.0,70.0,57.0,133.0,3,3.8500795364379883,None,,,,,0,0,0,0,0,4,4,110,70.59779381752014,,,,,,,,,,,,,,,,,,,,,,,,,,,,,,,,,,,,,,,,,,,,,,,,,,,,,,,,,,,,,,,,,,,,,,,,,,,,,,,,,133.0,57.0,70.0,70.0,57.0,133.0,3.0,3.1,-160,281,0,-19,198,-278,70.58331060409546,70.58335161209106,70.58587217330933,70.59779381752014,70.74795389175415,70.74795389175415,70.74795389175415,70.74795389175415,70.74795389175415,70.74795389175415,70.74795389175415,74.46560668945312,3,3.8500795364379883,None,,,,,,,,,,,,,,,,,,61,3,2025-02-19_16h52.07.900,comp,2024.2.4,60.097375336357565,2025-02-19 16h52.21.961855 -0500,
5,5,0,filler_random,None,None,None,None,None,None,None,None,None,None,1,1.6152267456054688,None,,,,,0,0,0,0,0,5,5,144,74.48098254203796,,,,,,,,,,,,,,,,,,,,,,,,,,,,,,,,,,,,,,,,,,,,,,,,,,,,,,,,,,,,,,,,,,,,,,,,,,,,,,,,,176.35792489279066,150.7315590897475,156.9925562085274,64.8757800972751,66.84489042850686,134.3253310532105,3.0,3.2,-204,-276,0,-11,196,258,74.46653699874878,74.46657800674438,74.4691686630249,74.48098254203796,74.63117384910583,74.63117384910583,74.63117384910583,74.63117384910583,74.63117384910583,74.63117384910583,74.63117384910583,76.09917378425598,1,1.6152267456054688,None,,,,,,,,,,,,,,,,,,61,3,2025-02-19_16h52.07.900,comp,2024.2.4,60.097375336357565,2025-02-19 16h52.21.961855 -0500,
6,6,0,filler_square,None,None,None,None,None,None,None,None,None,None,3,1.8437740802764893,None,,,,,0,0,0,0,0,6,6,200,76.11476540565491,,,,,,,,,,,,,,,,,,,,,,,,,,,,,,,,,,,,,,,,,,,,,,,,,,,,,,,,,,,,,,,,,,,,,,,,,,,,,,,,,58.79759779528915,58.65828450728276,58.31745016641177,65.01128516733684,65.51457276959437,65.51457276959437,2.1,2.12,-158,-277,0,-270,161,270,76.10014724731445,76.10019040107727,76.10237550735474,76.11476540565491,76.2643940448761,76.2643940448761,76.2643940448761,76.2643940448761,76.2643940448761,76.2643940448761,76.2643940448761,77.9654381275177,3,1.8437740802764893,None,,,,,,,,,,,,,,,,,,61,3,2025-02-19_16h52.07.900,comp,2024.2.4,60.097375336357565,2025-02-19 16h52.21.961855 -0500,
7,7,0,critical,whd,20.0,2.1,upper,125.0,200.0,200.0,125.0,141.0,141.0,2,1.9773051738739014,None,,,,,0,0,0,0,0,7,7,15,77.9812262058258,,,,,,,,,,,,,,,,,,,,,,,,,,,,,,,,,,,,,,,,,,,,,,,,,,,,,,,,,,,,,,,,,,,,,,,,,,,,,,,,,125.0,200.0,200.0,125.0,141.0,141.0,2.1,2.11,-258,262,0,286,229,-261,77.96624088287354,77.9662835597992,77.96870851516724,77.9812262058258,78.13139843940735,78.13139843940735,78.13139843940735,78.13139843940735,78.13139843940735,78.13139843940735,78.13139843940735,79.96572208404541,2,1.9773051738739014,None,,,,,,,,,,,,,,,,,,61,3,2025-02-19_16h52.07.900,comp,2024.2.4,60.097375336357565,2025-02-19 16h52.21.961855 -0500,
8,8,0,critical,dhw,20.0,3.0,upper,141.0,141.0,200.0,125.0,125.0,200.0,2,1.7682640552520752,None,,,,,0,0,0,0,0,8,8,57,79.98144364356995,,,,,,,,,,,,,,,,,,,,,,,,,,,,,,,,,,,,,,,,,,,,,,,,,,,,,,,,,,,,,,,,,,,,,,,,,,,,,,,,,141.0,141.0,200.0,125.0,125.0,200.0,3.0,3.2,-229,-252,0,-3,258,268,79.96653175354004,79.96657228469849,79.96905469894409,79.98144364356995,80.13126301765442,80.13126301765442,80.13126301765442,80.13126301765442,80.13126301765442,80.13126301765442,80.13126301765442,81.76562643051147,2,1.7682640552520752,None,,,,,,,,,,,,,,,,,,61,3,2025-02-19_16h52.07.900,comp,2024.2.4,60.097375336357565,2025-02-19 16h52.21.961855 -0500,
9,9,0,filler_square,None,None,None,None,None,None,None,None,None,None,2,1.8172824382781982,None,,,,,0,0,0,0,0,9,9,180,81.78096652030945,,,,,,,,,,,,,,,,,,,,,,,,,,,,,,,,,,,,,,,,,,,,,,,,,,,,,,,,,,,,,,,,,,,,,,,,,,,,,,,,,63.539023200670684,116.714903668081,117.55444534979922,117.55444534979922,93.13597646563275,106.4546656923873,2.1,2.11,-213,263,0,289,208,-253,81.76661682128906,81.7666597366333,81.7692220211029,81.78096652030945,81.9311044216156,81.9311044216156,81.9311044216156,81.9311044216156,81.9311044216156,81.9311044216156,81.9311044216156,83.61546182632446,2,1.8172824382781982,None,,,,,,,,,,,,,,,,,,61,3,2025-02-19_16h52.07.900,comp,2024.2.4,60.097375336357565,2025-02-19 16h52.21.961855 -0500,
10,10,0,filler_square,None,None,None,None,None,None,None,None,None,None,2,1.033614158630371,None,,,,,0,0,0,0,0,10,10,174,83.63094353675842,,,,,,,,,,,,,,,,,,,,,,,,,,,,,,,,,,,,,,,,,,,,,,,,,,,,,,,,,,,,,,,,,,,,,,,,,,,,,,,,,71.45268505980371,115.74730069051513,146.21908566135556,146.21908566135556,106.04105929314734,82.90692239064484,1.0,1.3,253,-278,480,-288,691,-262,83.61645579338074,83.61649703979492,83.61902904510498,83.63094353675842,83.78102898597717,83.78102898597717,83.78102898597717,83.78102898597717,83.78102898597717,83.78102898597717,83.78102898597717,84.66581559181213,2,1.033614158630371,None,,,,,,,,,,,,,,,,,,61,3,2025-02-19_16h52.07.900,comp,2024.2.4,60.097375336357565,2025-02-19 16h52.21.961855 -0500,
11,11,0,critical,whd,20.0,3.0,upper,125.0,200.0,200.0,125.0,141.0,141.0,2,5.004517316818237,None,,,,,0,0,0,0,0,11,11,93,84.68118214607239,,,,,,,,,,,,,,,,,,,,,,,,,,,,,,,,,,,,,,,,,,,,,,,,,,,,,,,,,,,,,,,,,,,,,,,,,,,,,,,,,125.0,200.0,200.0,125.0,141.0,141.0,3.0,3.2,-258,-282,0,-16,229,284,84.66664004325867,84.66668152809143,84.66938543319702,84.68118214607239,84.83120894432068,84.83120894432068,84.83120894432068,84.83120894432068,84.83120894432068,84.83120894432068,84.83120894432068,89.69891548156738,2,5.004517316818237,None,,,,,,,,,,,,,,,,,,61,3,2025-02-19_16h52.07.900,comp,2024.2.4,60.097375336357565,2025-02-19 16h52.21.961855 -0500,
12,12,0,critical,hdw,35.0,4.0,lower,133.0,57.0,70.0,70.0,57.0,133.0,3,3.860283136367798,None,,,,,0,0,0,0,0,12,12,112,89.71421122550964,,,,,,,,,,,,,,,,,,,,,,,,,,,,,,,,,,,,,,,,,,,,,,,,,,,,,,,,,,,,,,,,,,,,,,,,,,,,,,,,,133.0,57.0,70.0,70.0,57.0,133.0,4.0,4.2,-160,2,0,-267,198,-16,89.69971561431885,89.6997582912445,89.70188975334167,89.71421122550964,89.86475539207458,89.86475539207458,89.86475539207458,89.86475539207458,89.86475539207458,89.86475539207458,89.86475539207458,93.5821099281311,3,3.860283136367798,None,,,,,,,,,,,,,,,,,,61,3,2025-02-19_16h52.07.900,comp,2024.2.4,60.097375336357565,2025-02-19 16h52.21.961855 -0500,
13,13,0,critical,dwh,20.0,3.0,upper,141.0,141.0,125.0,200.0,200.0,125.0,2,2.671844244003296,None,,,,,0,0,0,0,0,13,13,69,93.59778690338135,,,,,,,,,,,,,,,,,,,,,,,,,,,,,,,,,,,,,,,,,,,,,,,,,,,,,,,,,,,,,,,,,,,,,,,,,,,,,,,,,141.0,141.0,125.0,200.0,200.0,125.0,3.0,3.2,-266,-272,0,16,258,252,93.58296465873718,93.58300805091858,93.58517503738403,93.59778690338135,93.7478928565979,93.7478928565979,93.7478928565979,93.7478928565979,93.7478928565979,93.7478928565979,93.7478928565979,96.28241610527039,2,2.671844244003296,None,,,,,,,,,,,,,,,,,,61,3,2025-02-19_16h52.07.900,comp,2024.2.4,60.097375336357565,2025-02-19 16h52.21.961855 -0500,
14,14,0,filler_square,None,None,None,None,None,None,None,None,None,None,1,1.8521618843078613,None,,,,,0,0,0,0,0,14,14,185,96.29753947257996,,,,,,,,,,,,,,,,,,,,,,,,,,,,,,,,,,,,,,,,,,,,,,,,,,,,,,,,,,,,,,,,,,,,,,,,,,,,,,,,,59.14368397473837,59.14368397473837,57.1141784664237,57.924057396745056,57.99032361907641,58.15434845771172,3.0,3.2,-155,-269,0,-4,154,252,96.28342342376709,96.28346657752991,96.28597903251648,96.29753947257996,96.44783115386963,96.44783115386963,96.44783115386963,96.44783115386963,96.44783115386963,96.44783115386963,96.44783115386963,98.16541457176208,1,1.8521618843078613,None,,,,,,,,,,,,,,,,,,61,3,2025-02-19_16h52.07.900,comp,2024.2.4,60.097375336357565,2025-02-19 16h52.21.961855 -0500,
15,15,0,critical,hwd,20.0,1.0,upper,200.0,125.0,125.0,200.0,141.0,141.0,1,2.250429153442383,None,,,,,0,0,0,0,0,15,15,103,98.18089056015015,,,,,,,,,,,,,,,,,,,,,,,,,,,,,,,,,,,,,,,,,,,,,,,,,,,,,,,,,,,,,,,,,,,,,,,,,,,,,,,,,200.0,125.0,125.0,200.0,141.0,141.0,1.0,1.3,222,-285,480,-276,746,-272,98.16624021530151,98.1662826538086,98.1688003540039,98.18089056015015,98.3316912651062,98.3316912651062,98.3316912651062,98.3316912651062,98.3316912651062,98.3316912651062,98.3316912651062,100.44904804229736,1,2.250429153442383,None,,,,,,,,,,,,,,,,,,61,3,2025-02-19_16h52.07.900,comp,2024.2.4,60.097375336357565,2025-02-19 16h52.21.961855 -0500,
16,16,0,critical,dwh,20.0,2.1,upper,141.0,141.0,125.0,200.0,200.0,125.0,2,3.4536428451538086,None,,,,,0,0,0,0,0,16,16,31,100.46413707733154,,,,,,,,,,,,,,,,,,,,,,,,,,,,,,,,,,,,,,,,,,,,,,,,,,,,,,,,,,,,,,,,,,,,,,,,,,,,,,,,,141.0,141.0,125.0,200.0,200.0,125.0,2.1,2.11,-266,257,0,254,258,-276,100.44984722137451,100.44988822937012,100.45228099822998,100.46413707733154,100.61449360847473,100.61449360847473,100.61449360847473,100.61449360847473,100.61449360847473,100.61449360847473,100.61449360847473,103.93238830566406,2,3.4536428451538086,None,,,,,,,,,,,,,,,,,,61,3,2025-02-19_16h52.07.900,comp,2024.2.4,60.097375336357565,2025-02-19 16h52.21.961855 -0500,
17,17,0,filler_square,None,None,None,None,None,None,None,None,None,None,3,2.764045476913452,None,,,,,0,0,0,0,0,17,17,192,103.94754981994629,,,,,,,,,,,,,,,,,,,,,,,,,,,,,,,,,,,,,,,,,,,,,,,,,,,,,,,,,,,,,,,,,,,,,,,,,,,,,,,,,59.36934875089787,66.6095473168443,71.79485471801354,57.523853760896074,75.25479201519516,75.25479201519516,2.2,2.21,-158,-265,0,284,162,258,103.93335723876953,103.93339896202087,103.93585562705994,103.94754981994629,104.09770345687866,104.09770345687866,104.09770345687866,104.09770345687866,104.09770345687866,104.09770345687866,104.09770345687866,106.7154929637909,3,2.764045476913452,None,,,,,,,,,,,,,,,,,,61,3,2025-02-19_16h52.07.900,comp,2024.2.4,60.097375336357565,2025-02-19 16h52.21.961855 -0500,
18,18,0,filler_square,None,None,None,None,None,None,None,None,None,None,3,2.916781187057495,None,,,,,0,0,0,0,0,18,18,186,106.73100519180298,,,,,,,,,,,,,,,,,,,,,,,,,,,,,,,,,,,,,,,,,,,,,,,,,,,,,,,,,,,,,,,,,,,,,,,,,,,,,,,,,67.50368919841411,88.77474302446383,61.17204319188433,99.38576428131742,100.97061035074273,100.97061035074273,2.1,2.11,-190,286,0,280,196,-259,106.71650815010071,106.71655201911926,106.71914768218994,106.73100519180298,106.88096332550049,106.88096332550049,106.88096332550049,106.88096332550049,106.88096332550049,106.88096332550049,106.88096332550049,109.66534471511841,3,2.916781187057495,None,,,,,,,,,,,,,,,,,,61,3,2025-02-19_16h52.07.900,comp,2024.2.4,60.097375336357565,2025-02-19 16h52.21.961855 -0500,
19,19,0,critical,hdw,35.0,2.1,lower,133.0,57.0,70.0,70.0,57.0,133.0,3,3.317220449447632,None,,,,,0,0,0,0,0,19,19,20,109.68082332611084,,,,,,,,,,,,,,,,,,,,,,,,,,,,,,,,,,,,,,,,,,,,,,,,,,,,,,,,,,,,,,,,,,,,,,,,,,,,,,,,,133.0,57.0,70.0,70.0,57.0,133.0,2.1,2.12,-160,-260,0,-275,198,273,109.66617774963379,109.66621923446655,109.66873502731323,109.68082332611084,109.83091473579407,109.83091473579407,109.83091473579407,109.83091473579407,109.83091473579407,109.83091473579407,109.83091473579407,113.01531338691711,3,3.317220449447632,None,,,,,,,,,,,,,,,,,,61,3,2025-02-19_16h52.07.900,comp,2024.2.4,60.097375336357565,2025-02-19 16h52.21.961855 -0500,
20,20,0,critical,whd,35.0,2.1,lower,57.0,133.0,133.0,57.0,70.0,70.0,1,2.422675609588623,None,,,,,0,0,0,0,0,20,20,12,113.03074383735657,,,,,,,,,,,,,,,,,,,,,,,,,,,,,,,,,,,,,,,,,,,,,,,,,,,,,,,,,,,,,,,,,,,,,,,,,,,,,,,,,57.0,133.0,133.0,57.0,70.0,70.0,2.1,2.12,-191,-257,0,-280,160,262,113.01613736152649,113.01618027687073,113.01865887641907,113.03074383735657,113.1807975769043,113.1807975769043,113.1807975769043,113.1807975769043,113.1807975769043,113.1807975769043,113.1807975769043,115.46579575538635,1,2.422675609588623,None,,,,,,,,,,,,,,,,,,61,3,2025-02-19_16h52.07.900,comp,2024.2.4,60.097375336357565,2025-02-19 16h52.21.961855 -0500,
21,21,0,filler_random,None,None,None,None,None,None,None,None,None,None,2,1.1505515575408936,None,,,,,0,0,0,0,0,21,21,147,115.48071098327637,,,,,,,,,,,,,,,,,,,,,,,,,,,,,,,,,,,,,,,,,,,,,,,,,,,,,,,,,,,,,,,,,,,,,,,,,,,,,,,,,164.7107344441153,81.09501023827379,187.9754939441808,161.13418071856876,96.97344909250398,196.51387486534313,4.0,4.1,-217,-286,0,11,275,-288,115.46671485900879,115.46675562858582,115.46912574768066,115.48071098327637,115.63123178482056,115.63123178482056,115.63123178482056,115.63123178482056,115.63123178482056,115.63123178482056,115.63123178482056,116.64882135391235,2,1.1505515575408936,None,,,,,,,,,,,,,,,,,,61,3,2025-02-19_16h52.07.900,comp,2024.2.4,60.097375336357565,2025-02-19 16h52.21.961855 -0500,
22,22,0,filler_square,None,None,None,None,None,None,None,None,None,None,2,1.199903964996338,None,,,,,0,0,0,0,0,22,22,173,116.66405868530273,,,,,,,,,,,,,,,,,,,,,,,,,,,,,,,,,,,,,,,,,,,,,,,,,,,,,,,,,,,,,,,,,,,,,,,,,,,,,,,,,59.61590867315632,94.47607690696998,167.22050953253336,167.22050953253336,133.8488073300789,95.6730772763128,3.0,3.2,-227,-276,0,-19,227,254,116.6498122215271,116.64985346794128,116.65251135826111,116.66405868530273,116.81462669372559,116.81462669372559,116.81462669372559,116.81462669372559,116.81462669372559,116.81462669372559,116.81462669372559,117.8655891418457,2,1.199903964996338,None,,,,,,,,,,,,,,,,,,61,3,2025-02-19_16h52.07.900,comp,2024.2.4,60.097375336357565,2025-02-19 16h52.21.961855 -0500,
23,23,0,critical,whd,35.0,4.0,lower,57.0,133.0,133.0,57.0,70.0,70.0,1,5.572478771209717,None,,,,,0,0,0,0,0,23,23,88,117.88087725639343,,,,,,,,,,,,,,,,,,,,,,,,,,,,,,,,,,,,,,,,,,,,,,,,,,,,,,,,,,,,,,,,,,,,,,,,,,,,,,,,,57.0,133.0,133.0,57.0,70.0,70.0,4.0,4.2,-191,-2,0,-274,160,6,117.86646270751953,117.86650490760803,117.86935043334961,117.88087725639343,118.03108167648315,118.03108167648315,118.03108167648315,118.03108167648315,118.03108167648315,118.03108167648315,118.03108167648315,123.46555018424988,1,5.572478771209717,None,,,,,,,,,,,,,,,,,,61,3,2025-02-19_16h52.07.900,comp,2024.2.4,60.097375336357565,2025-02-19 16h52.21.961855 -0500,
24,24,0,filler_random,None,None,None,None,None,None,None,None,None,None,3,2.1097018718719482,None,,,,,0,0,0,0,0,24,24,138,123.48070955276489,,,,,,,,,,,,,,,,,,,,,,,,,,,,,,,,,,,,,,,,,,,,,,,,,,,,,,,,,,,,,,,,,,,,,,,,,,,,,,,,,157.9591900689757,59.56183934307677,140.2587621101635,98.26447401974485,196.48382203035226,90.49944142953018,4.0,4.2,-175,19,0,-273,190,18,123.46648478507996,123.4665265083313,123.46876525878906,123.48070955276489,123.63096165657043,123.63096165657043,123.63096165657043,123.63096165657043,123.63096165657043,123.63096165657043,123.63096165657043,125.59859013557434,3,2.1097018718719482,None,,,,,,,,,,,,,,,,,,61,3,2025-02-19_16h52.07.900,comp,2024.2.4,60.097375336357565,2025-02-19 16h52.21.961855 -0500,
25,25,0,filler_random,None,None,None,None,None,None,None,None,None,None,3,1.7119791507720947,None,,,,,0,0,0,0,0,25,25,167,125.61423897743225,,,,,,,,,,,,,,,,,,,,,,,,,,,,,,,,,,,,,,,,,,,,,,,,,,,,,,,,,,,,,,,,,,,,,,,,,,,,,,,,,70.87163604578453,172.51551154083165,177.47011997408367,151.16237025170346,184.10893993335236,158.61893255556242,2.1,2.12,-258,-250,0,-252,251,269,125.59947109222412,125.59951186180115,125.60154986381531,125.61423897743225,125.76464986801147,125.76464986801147,125.76464986801147,125.76464986801147,125.76464986801147,125.76464986801147,125.76464986801147,127.33211636543274,3,1.7119791507720947,None,,,,,,,,,,,,,,,,,,61,3,2025-02-19_16h52.07.900,comp,2024.2.4,60.097375336357565,2025-02-19 16h52.21.961855 -0500,
26,26,0,critical,hwd,35.0,2.1,lower,133.0,57.0,57.0,133.0,70.0,70.0,2,3.01061749458313,None,,,,,0,0,0,0,0,26,26,16,127.34760737419128,,,,,,,,,,,,,,,,,,,,,,,,,,,,,,,,,,,,,,,,,,,,,,,,,,,,,,,,,,,,,,,,,,,,,,,,,,,,,,,,,133.0,57.0,57.0,133.0,70.0,70.0,2.1,2.11,-191,283,0,270,198,-267,127.33306121826172,127.33310461044312,127.3355643749237,127.34760737419128,127.49747490882874,127.49747490882874,127.49747490882874,127.49747490882874,127.49747490882874,127.49747490882874,127.49747490882874,130.36516666412354,2,3.01061749458313,None,,,,,,,,,,,,,,,,,,61,3,2025-02-19_16h52.07.900,comp,2024.2.4,60.097375336357565,2025-02-19 16h52.21.961855 -0500,
27,27,0,filler_random,None,None,None,None,None,None,None,None,None,None,3,1.5298490524291992,None,,,,,0,0,0,0,0,27,27,160,130.38086819648743,,,,,,,,,,,,,,,,,,,,,,,,,,,,,,,,,,,,,,,,,,,,,,,,,,,,,,,,,,,,,,,,,,,,,,,,,,,,,,,,,62.977406606887044,102.87793142150957,142.82265438841955,125.39009436650025,185.8502681644761,161.99053721323529,2.1,2.12,-210,-280,0,-259,240,251,130.36610555648804,130.3661494255066,130.36860990524292,130.38086819648743,130.53089690208435,130.53089690208435,130.53089690208435,130.53089690208435,130.53089690208435,130.53089690208435,130.53089690208435,131.91543126106262,3,1.5298490524291992,None,,,,,,,,,,,,,,,,,,61,3,2025-02-19_16h52.07.900,comp,2024.2.4,60.097375336357565,2025-02-19 16h52.21.961855 -0500,
28,28,0,critical,hwd,20.0,3.0,upper,200.0,125.0,125.0,200.0,141.0,141.0,2,1.733217716217041,None,,,,,0,0,0,0,0,28,28,105,131.9308421611786,,,,,,,,,,,,,,,,,,,,,,,,,,,,,,,,,,,,,,,,,,,,,,,,,,,,,,,,,,,,,,,,,,,,,,,,,,,,,,,,,200.0,125.0,125.0,200.0,141.0,141.0,3.0,3.2,-258,-280,0,-1,266,264,131.91625022888184,131.91629266738892,131.91844987869263,131.9308421611786,132.0808343887329,132.0808343887329,132.0808343887329,132.0808343887329,132.0808343887329,132.0808343887329,132.0808343887329,133.68207788467407,2,1.733217716217041,None,,,,,,,,,,,,,,,,,,61,3,2025-02-19_16h52.07.900,comp,2024.2.4,60.097375336357565,2025-02-19 16h52.21.961855 -0500,
29,29,0,filler_square,None,None,None,None,None,None,None,None,None,None,2,2.060960292816162,None,,,,,0,0,0,0,0,29,29,179,133.69734597206116,,,,,,,,,,,,,,,,,,,,,,,,,,,,,,,,,,,,,,,,,,,,,,,,,,,,,,,,,,,,,,,,,,,,,,,,,,,,,,,,,127.68982692790665,171.600882728988,185.1473394044603,185.1473394044603,159.7445463368068,172.86010713016952,3.0,3.2,-274,-270,0,20,275,251,133.68305277824402,133.6830973625183,133.68525552749634,133.69734597206116,133.84760856628418,133.84760856628418,133.84760856628418,133.84760856628418,133.84760856628418,133.84760856628418,133.84760856628418,135.76549673080444,2,2.060960292816162,None,,,,,,,,,,,,,,,,,,61,3,2025-02-19_16h52.07.900,comp,2024.2.4,60.097375336357565,2025-02-19 16h52.21.961855 -0500,
30,30,0,filler_square,None,None,None,None,None,None,None,None,None,None,3,1.4169085025787354,None,,,,,0,0,0,0,0,30,30,202,135.7809715270996,,,,,,,,,,,,,,,,,,,,,,,,,,,,,,,,,,,,,,,,,,,,,,,,,,,,,,,,,,,,,,,,,,,,,,,,,,,,,,,,,72.2660679736966,65.67665014693408,59.124123402704626,64.41206986859612,99.55407600146152,99.55407600146152,3.0,3.1,-161,273,0,-6,178,-261,135.76651215553284,135.7665548324585,135.7687382698059,135.7809715270996,135.93106245994568,135.93106245994568,135.93106245994568,135.93106245994568,135.93106245994568,135.93106245994568,135.93106245994568,137.21515440940857,3,1.4169085025787354,None,,,,,,,,,,,,,,,,,,61,3,2025-02-19_16h52.07.900,comp,2024.2.4,60.097375336357565,2025-02-19 16h52.21.961855 -0500,
31,31,0,critical,wdh,20.0,3.0,lower,57.0,133.0,78.0,78.0,133.0,57.0,1,3.30293607711792,None,,,,,0,0,0,0,0,31,31,80,137.23061561584473,,,,,,,,,,,,,,,,,,,,,,,,,,,,,,,,,,,,,,,,,,,,,,,,,,,,,,,,,,,,,,,,,,,,,,,,,,,,,,,,,57.0,133.0,78.0,78.0,133.0,57.0,3.0,3.2,-202,-282,0,17,164,282,137.2160062789917,137.21604800224304,137.21862745285034,137.23061561584473,137.3806734085083,137.3806734085083,137.3806734085083,137.3806734085083,137.3806734085083,137.3806734085083,137.3806734085083,140.54853081703186,1,3.30293607711792,None,,,,,,,,,,,,,,,,,,61,3,2025-02-19_16h52.07.900,comp,2024.2.4,60.097375336357565,2025-02-19 16h52.21.961855 -0500,
32,32,0,critical,wdh,20.0,4.0,upper,125.0,200.0,141.0,141.0,200.0,125.0,3,2.2262918949127197,None,,,,,0,0,0,0,0,32,32,83,140.56384086608887,,,,,,,,,,,,,,,,,,,,,,,,,,,,,,,,,,,,,,,,,,,,,,,,,,,,,,,,,,,,,,,,,,,,,,,,,,,,,,,,,125.0,200.0,141.0,141.0,200.0,125.0,4.0,4.2,-266,-4,0,-281,229,16,140.54934215545654,140.54938459396362,140.55195689201355,140.56384086608887,140.71422505378723,140.71422505378723,140.71422505378723,140.71422505378723,140.71422505378723,140.71422505378723,140.71422505378723,142.79866576194763,3,2.2262918949127197,None,,,,,,,,,,,,,,,,,,61,3,2025-02-19_16h52.07.900,comp,2024.2.4,60.097375336357565,2025-02-19 16h52.21.961855 -0500,
33,33,0,critical,wdh,20.0,2.1,lower,57.0,133.0,78.0,78.0,133.0,57.0,1,2.7195513248443604,None,,,,,0,0,0,0,0,33,33,10,142.8141577243805,,,,,,,,,,,,,,,,,,,,,,,,,,,,,,,,,,,,,,,,,,,,,,,,,,,,,,,,,,,,,,,,,,,,,,,,,,,,,,,,,57.0,133.0,78.0,78.0,133.0,57.0,2.1,2.12,-202,-270,0,-254,164,285,142.7994945049286,142.7995376586914,142.8017110824585,142.8141577243805,142.96397185325623,142.96397185325623,142.96397185325623,142.96397185325623,142.96397185325623,142.96397185325623,142.96397185325623,145.54849576950073,1,2.7195513248443604,None,,,,,,,,,,,,,,,,,,61,3,2025-02-19_16h52.07.900,comp,2024.2.4,60.097375336357565,2025-02-19 16h52.21.961855 -0500,
34,34,0,filler_square,None,None,None,None,None,None,None,None,None,None,2,1.547553300857544,None,,,,,0,0,0,0,0,34,34,203,145.5638403892517,,,,,,,,,,,,,,,,,,,,,,,,,,,,,,,,,,,,,,,,,,,,,,,,,,,,,,,,,,,,,,,,,,,,,,,,,,,,,,,,,121.09303680677857,112.61558527022416,125.67767961506196,125.67767961506196,80.06910566426559,68.59331778964753,3.0,3.2,-215,-272,0,-10,193,278,145.54945945739746,145.54950284957886,145.55205082893372,145.5638403892517,145.7141077518463,145.7141077518463,145.7141077518463,145.7141077518463,145.7141077518463,145.7141077518463,145.7141077518463,147.11529660224915,2,1.547553300857544,None,,,,,,,,,,,,,,,,,,61,3,2025-02-19_16h52.07.900,comp,2024.2.4,60.097375336357565,2025-02-19 16h52.21.961855 -0500,
35,35,0,filler_random,None,None,None,None,None,None,None,None,None,None,3,1.0433712005615234,None,,,,,0,0,0,0,0,35,35,169,147.13077068328857,,,,,,,,,,,,,,,,,,,,,,,,,,,,,,,,,,,,,,,,,,,,,,,,,,,,,,,,,,,,,,,,,,,,,,,,,,,,,,,,,139.93834889696274,173.86789077643647,110.06443755971006,106.77204226473297,178.60976387502592,199.17862319225435,2.1,2.12,-236,-276,0,-252,249,283,147.1162555217743,147.11629629135132,147.11844563484192,147.13077068328857,147.28119826316833,147.28119826316833,147.28119826316833,147.28119826316833,147.28119826316833,147.28119826316833,147.28119826316833,148.18196415901184,3,1.0433712005615234,None,,,,,,,,,,,,,,,,,,61,3,2025-02-19_16h52.07.900,comp,2024.2.4,60.097375336357565,2025-02-19 16h52.21.961855 -0500,
36,36,0,critical,hdw,20.0,2.1,lower,133.0,57.0,78.0,78.0,57.0,133.0,2,2.887901544570923,None,,,,,0,0,0,0,0,36,36,46,148.19737792015076,,,,,,,,,,,,,,,,,,,,,,,,,,,,,,,,,,,,,,,,,,,,,,,,,,,,,,,,,,,,,,,,,,,,,,,,,,,,,,,,,133.0,57.0,78.0,78.0,57.0,133.0,2.1,2.11,-164,257,0,267,202,-266,148.18277621269226,148.1828169822693,148.18520283699036,148.19737792015076,148.3474588394165,148.3474588394165,148.3474588394165,148.3474588394165,148.3474588394165,148.3474588394165,148.3474588394165,151.09834575653076,2,2.887901544570923,None,,,,,,,,,,,,,,,,,,61,3,2025-02-19_16h52.07.900,comp,2024.2.4,60.097375336357565,2025-02-19 16h52.21.961855 -0500,
37,37,0,critical,dhw,35.0,3.0,lower,70.0,70.0,133.0,57.0,57.0,133.0,3,3.3086671829223633,None,,,,,0,0,0,0,0,37,37,50,151.11377382278442,,,,,,,,,,,,,,,,,,,,,,,,,,,,,,,,,,,,,,,,,,,,,,,,,,,,,,,,,,,,,,,,,,,,,,,,,,,,,,,,,70.0,70.0,133.0,57.0,57.0,133.0,3.0,3.1,-160,288,0,-1,191,-251,151.09916615486145,151.09920740127563,151.1017484664917,151.11377382278442,151.26384282112122,151.26384282112122,151.26384282112122,151.26384282112122,151.26384282112122,151.26384282112122,151.26384282112122,154.43166756629944,3,3.3086671829223633,None,,,,,,,,,,,,,,,,,,61,3,2025-02-19_16h52.07.900,comp,2024.2.4,60.097375336357565,2025-02-19 16h52.21.961855 -0500,
38,38,0,critical,dhw,35.0,4.0,upper,127.0,127.0,200.0,125.0,125.0,200.0,2,1.9746577739715576,None,,,,,0,0,0,0,0,38,38,53,154.44747066497803,,,,,,,,,,,,,,,,,,,,,,,,,,,,,,,,,,,,,,,,,,,,,,,,,,,,,,,,,,,,,,,,,,,,,,,,,,,,,,,,,127.0,127.0,200.0,125.0,125.0,200.0,4.0,4.1,-222,-278,0,-15,258,-260,154.43249702453613,154.43253993988037,154.43513536453247,154.44747066497803,154.5974886417389,154.5974886417389,154.5974886417389,154.5974886417389,154.5974886417389,154.5974886417389,154.5974886417389,156.43182349205017,2,1.9746577739715576,None,,,,,,,,,,,,,,,,,,61,3,2025-02-19_16h52.07.900,comp,2024.2.4,60.097375336357565,2025-02-19 16h52.21.961855 -0500,
39,39,0,critical,dwh,35.0,2.1,upper,127.0,127.0,125.0,200.0,200.0,125.0,3,1.4162185192108154,None,,,,,0,0,0,0,0,39,39,5,156.4474425315857,,,,,,,,,,,,,,,,,,,,,,,,,,,,,,,,,,,,,,,,,,,,,,,,,,,,,,,,,,,,,,,,,,,,,,,,,,,,,,,,,127.0,127.0,125.0,200.0,200.0,125.0,2.1,2.12,-260,-280,0,-251,258,283,156.43270564079285,156.43274760246277,156.43570470809937,156.4474425315857,156.59751439094543,156.59751439094543,156.59751439094543,156.59751439094543,156.59751439094543,156.59751439094543,156.59751439094543,157.86545968055725,3,1.4162185192108154,None,,,,,,,,,,,,,,,,,,61,3,2025-02-19_16h52.07.900,comp,2024.2.4,60.097375336357565,2025-02-19 16h52.21.961855 -0500,
40,40,0,filler_square,None,None,None,None,None,None,None,None,None,None,3,0.8933420181274414,None,,,,,0,0,0,0,0,40,40,187,157.88070154190063,,,,,,,,,,,,,,,,,,,,,,,,,,,,,,,,,,,,,,,,,,,,,,,,,,,,,,,,,,,,,,,,,,,,,,,,,,,,,,,,,91.97180939197779,73.32422224279328,134.67678466040002,137.29887244062348,138.40128956201204,138.40128956201204,1.0,1.2,-201,-12,0,12,234,17,157.86643838882446,157.8664789199829,157.86871790885925,157.88070154190063,158.03068256378174,158.03068256378174,158.03068256378174,158.03068256378174,158.03068256378174,158.03068256378174,158.03068256378174,158.78184175491333,3,0.8933420181274414,None,,,,,,,,,,,,,,,,,,61,3,2025-02-19_16h52.07.900,comp,2024.2.4,60.097375336357565,2025-02-19 16h52.21.961855 -0500,
41,41,0,critical,whd,20.0,2.1,lower,57.0,133.0,133.0,57.0,78.0,78.0,1,4.544675350189209,None,,,,,0,0,0,0,0,41,41,14,158.79738020896912,,,,,,,,,,,,,,,,,,,,,,,,,,,,,,,,,,,,,,,,,,,,,,,,,,,,,,,,,,,,,,,,,,,,,,,,,,,,,,,,,57.0,133.0,133.0,57.0,78.0,78.0,2.1,2.11,-191,252,0,288,164,-265,158.78277611732483,158.78281927108765,158.78539156913757,158.79738020896912,158.94721817970276,158.94721817970276,158.94721817970276,158.94721817970276,158.94721817970276,158.94721817970276,158.94721817970276,163.34836745262146,1,4.544675350189209,None,,,,,,,,,,,,,,,,,,61,3,2025-02-19_16h52.07.900,comp,2024.2.4,60.097375336357565,2025-02-19 16h52.21.961855 -0500,
42,42,0,filler_square,None,None,None,None,None,None,None,None,None,None,2,1.274416208267212,None,,,,,0,0,0,0,0,42,42,182,163.36398553848267,,,,,,,,,,,,,,,,,,,,,,,,,,,,,,,,,,,,,,,,,,,,,,,,,,,,,,,,,,,,,,,,,,,,,,,,,,,,,,,,,57.4547396987239,66.12658089296283,84.00788222500215,84.00788222500215,64.15349914011425,63.098942137498945,2.1,2.11,-171,257,0,270,170,-282,163.34934163093567,163.34938430786133,163.35189127922058,163.36398553848267,163.5139811038971,163.5139811038971,163.5139811038971,163.5139811038971,163.5139811038971,163.5139811038971,163.5139811038971,164.64820837974548,2,1.274416208267212,None,,,,,,,,,,,,,,,,,,61,3,2025-02-19_16h52.07.900,comp,2024.2.4,60.097375336357565,2025-02-19 16h52.21.961855 -0500,
43,43,0,critical,hwd,20.0,3.0,lower,133.0,57.0,57.0,133.0,78.0,78.0,2,5.0939812660217285,None,,,,,0,0,0,0,0,43,43,104,164.6639974117279,,,,,,,,,,,,,,,,,,,,,,,,,,,,,,,,,,,,,,,,,,,,,,,,,,,,,,,,,,,,,,,,,,,,,,,,,,,,,,,,,133.0,57.0,57.0,133.0,78.0,78.0,3.0,3.2,-191,-287,0,6,202,264,164.64904761314392,164.64909029006958,164.6512532234192,164.6639974117279,164.81383657455444,164.81383657455444,164.81383657455444,164.81383657455444,164.81383657455444,164.81383657455444,164.81383657455444,169.7649803161621,2,5.0939812660217285,None,,,,,,,,,,,,,,,,,,61,3,2025-02-19_16h52.07.900,comp,2024.2.4,60.097375336357565,2025-02-19 16h52.21.961855 -0500,
44,44,0,filler_random,None,None,None,None,None,None,None,None,None,None,1,1.7610535621643066,None,,,,,0,0,0,0,0,44,44,163,169.78095650672913,,,,,,,,,,,,,,,,,,,,,,,,,,,,,,,,,,,,,,,,,,,,,,,,,,,,,,,,,,,,,,,,,,,,,,,,,,,,,,,,,68.34878567062248,162.1460484957441,84.69905062864737,107.93929006981196,177.7431906167182,68.18348454351835,2.2,2.22,-231,251,0,-287,184,-285,169.76590633392334,169.76596236228943,169.76822209358215,169.78095650672913,169.93087530136108,169.93087530136108,169.93087530136108,169.93087530136108,169.93087530136108,169.93087530136108,169.93087530136108,171.5483045578003,1,1.7610535621643066,None,,,,,,,,,,,,,,,,,,61,3,2025-02-19_16h52.07.900,comp,2024.2.4,60.097375336357565,2025-02-19 16h52.21.961855 -0500,
45,45,0,filler_square,None,None,None,None,None,None,None,None,None,None,1,2.4890787601470947,None,,,,,0,0,0,0,0,45,45,209,171.5639522075653,,,,,,,,,,,,,,,,,,,,,,,,,,,,,,,,,,,,,,,,,,,,,,,,,,,,,,,,,,,,,,,,,,,,,,,,,,,,,,,,,167.26184044419125,167.26184044419125,61.97689871903765,153.23612058652336,95.8964226621948,145.55689849175207,2.2,2.22,-256,281,0,-276,245,-275,171.5492720603943,171.54931259155273,171.55182361602783,171.5639522075653,171.7143247127533,171.7143247127533,171.7143247127533,171.7143247127533,171.7143247127533,171.7143247127533,171.7143247127533,174.06537795066833,1,2.4890787601470947,None,,,,,,,,,,,,,,,,,,61,3,2025-02-19_16h52.07.900,comp,2024.2.4,60.097375336357565,2025-02-19 16h52.21.961855 -0500,
46,46,0,critical,dhw,20.0,4.0,lower,78.0,78.0,133.0,57.0,57.0,133.0,3,6.868896245956421,None,,,,,0,0,0,0,0,46,46,58,174.0803120136261,,,,,,,,,,,,,,,,,,,,,,,,,,,,,,,,,,,,,,,,,,,,,,,,,,,,,,,,,,,,,,,,,,,,,,,,,,,,,,,,,78.0,78.0,133.0,57.0,57.0,133.0,4.0,4.2,-164,19,0,-270,191,-11,174.06618452072144,174.06622791290283,174.06869459152222,174.0803120136261,174.23110580444336,174.23110580444336,174.23110580444336,174.23110580444336,174.23110580444336,174.23110580444336,174.23110580444336,180.96470427513123,3,6.868896245956421,None,,,,,,,,,,,,,,,,,,61,3,2025-02-19_16h52.07.900,comp,2024.2.4,60.097375336357565,2025-02-19 16h52.21.961855 -0500,
47,47,0,critical,whd,35.0,3.0,lower,57.0,133.0,133.0,57.0,70.0,70.0,1,4.161588907241821,None,,,,,0,0,0,0,0,47,47,86,180.98025584220886,,,,,,,,,,,,,,,,,,,,,,,,,,,,,,,,,,,,,,,,,,,,,,,,,,,,,,,,,,,,,,,,,,,,,,,,,,,,,,,,,57.0,133.0,133.0,57.0,70.0,70.0,3.0,3.1,-191,280,0,-3,160,-269,180.96553444862366,180.9655773639679,180.9682333469391,180.98025584220886,181.1304407119751,181.1304407119751,181.1304407119751,181.1304407119751,181.1304407119751,181.1304407119751,181.1304407119751,185.1481227874756,1,4.161588907241821,None,,,,,,,,,,,,,,,,,,61,3,2025-02-19_16h52.07.900,comp,2024.2.4,60.097375336357565,2025-02-19 16h52.21.961855 -0500,
48,48,0,critical,hwd,20.0,1.0,lower,133.0,57.0,57.0,133.0,78.0,78.0,2,3.2338812351226807,None,,,,,0,0,0,0,0,48,48,102,185.16372966766357,,,,,,,,,,,,,,,,,,,,,,,,,,,,,,,,,,,,,,,,,,,,,,,,,,,,,,,,,,,,,,,,,,,,,,,,,,,,,,,,,133.0,57.0,57.0,133.0,78.0,78.0,1.0,1.3,289,-258,480,-257,682,-289,185.14897394180298,185.14901661872864,185.1514823436737,185.16372966766357,185.31401252746582,185.31401252746582,185.31401252746582,185.31401252746582,185.31401252746582,185.31401252746582,185.31401252746582,188.41474151611328,2,3.2338812351226807,None,,,,,,,,,,,,,,,,,,61,3,2025-02-19_16h52.07.900,comp,2024.2.4,60.097375336357565,2025-02-19 16h52.21.961855 -0500,
49,49,0,catch,None,None,None,None,None,None,None,None,None,None,2,2.622668743133545,None,,,,,0,0,0,0,0,49,49,128,188.43025255203247,,,,,,,,,,,,,,,,,,,,,,,,,,,,,,,,,,,,,,,,,,,,,,,,,,,,,,,,,,,,,,,,,,,,,,,,,,,,,,,,,93,97,150,175,113,77,2.1,2.11,-232,251,0,252,222,-257,188.41581296920776,188.41585612297058,188.41850972175598,188.43025255203247,188.5806040763855,188.5806040763855,188.5806040763855,188.5806040763855,188.5806040763855,188.5806040763855,188.5806040763855,191.06552171707153,2,2.622668743133545,None,,,,,,,,,,,,,,,,,,61,3,2025-02-19_16h52.07.900,comp,2024.2.4,60.097375336357565,2025-02-19 16h52.21.961855 -0500,
50,50,0,filler_random,None,None,None,None,None,None,None,None,None,None,1,2.1726877689361572,None,,,,,0,0,0,0,0,50,50,158,191.08024287223816,,,,,,,,,,,,,,,,,,,,,,,,,,,,,,,,,,,,,,,,,,,,,,,,,,,,,,,,,,,,,,,,,,,,,,,,,,,,,,,,,186.18648050337254,133.38078649021094,99.20008605931551,141.62664978924303,145.60931709408746,101.57396861262835,2.1,2.11,-234,283,0,269,218,-275,191.06647539138794,191.0665180683136,191.06906700134277,191.08024287223816,191.2304048538208,191.2304048538208,191.2304048538208,191.2304048538208,191.2304048538208,191.2304048538208,191.2304048538208,193.26536011695862,1,2.1726877689361572,None,,,,,,,,,,,,,,,,,,61,3,2025-02-19_16h52.07.900,comp,2024.2.4,60.097375336357565,2025-02-19 16h52.21.961855 -0500,
51,51,0,filler_random,None,None,None,None,None,None,None,None,None,None,3,1.9668142795562744,None,,,,,0,0,0,0,0,51,51,146,193.28033638000488,,,,,,,,,,,,,,,,,,,,,,,,,,,,,,,,,,,,,,,,,,,,,,,,,,,,,,,,,,,,,,,,,,,,,,,,,,,,,,,,,164.04969417093366,58.89233584748857,119.99875881324007,65.47182262425605,85.8912800783059,171.66006557828078,3.0,3.2,-158,-287,0,8,215,254,193.26628971099854,193.26633071899414,193.26877427101135,193.28033638000488,193.43074870109558,193.43074870109558,193.43074870109558,193.43074870109558,193.43074870109558,193.43074870109558,193.43074870109558,195.24832463264465,3,1.9668142795562744,None,,,,,,,,,,,,,,,,,,61,3,2025-02-19_16h52.07.900,comp,2024.2.4,60.097375336357565,2025-02-19 16h52.21.961855 -0500,
52,52,0,critical,hwd,20.0,2.1,upper,200.0,125.0,125.0,200.0,141.0,141.0,1,1.7998390197753906,None,,,,,0,0,0,0,0,52,52,19,195.26372861862183,,,,,,,,,,,,,,,,,,,,,,,,,,,,,,,,,,,,,,,,,,,,,,,,,,,,,,,,,,,,,,,,,,,,,,,,,,,,,,,,,200.0,125.0,125.0,200.0,141.0,141.0,2.1,2.11,-258,266,0,259,266,-267,195.2491593360901,195.24920177459717,195.25162839889526,195.26372861862183,195.41376376152039,195.41376376152039,195.41376376152039,195.41376376152039,195.41376376152039,195.41376376152039,195.41376376152039,197.08174562454224,1,1.7998390197753906,None,,,,,,,,,,,,,,,,,,61,3,2025-02-19_16h52.07.900,comp,2024.2.4,60.097375336357565,2025-02-19 16h52.21.961855 -0500,
53,53,0,filler_random,None,None,None,None,None,None,None,None,None,None,2,2.9666543006896973,None,,,,,0,0,0,0,0,53,53,145,197.09684896469116,,,,,,,,,,,,,,,,,,,,,,,,,,,,,,,,,,,,,,,,,,,,,,,,,,,,,,,,,,,,,,,,,,,,,,,,,,,,,,,,,100.29006771686181,139.80165150055024,85.47700701584999,167.31085538106404,79.37253110177234,187.34222209351503,1.0,1.2,-250,10,0,17,273,-5,197.0826814174652,197.0827248096466,197.08530402183533,197.09684896469116,197.2473120689392,197.2473120689392,197.2473120689392,197.2473120689392,197.2473120689392,197.2473120689392,197.2473120689392,200.0650463104248,2,2.9666543006896973,None,,,,,,,,,,,,,,,,,,61,3,2025-02-19_16h52.07.900,comp,2024.2.4,60.097375336357565,2025-02-19 16h52.21.961855 -0500,
54,54,0,filler_square,None,None,None,None,None,None,None,None,None,None,3,0.9991781711578369,None,,,,,0,0,0,0,0,54,54,199,200.08044123649597,,,,,,,,,,,,,,,,,,,,,,,,,,,,,,,,,,,,,,,,,,,,,,,,,,,,,,,,,,,,,,,,,,,,,,,,,,,,,,,,,95.23905345686117,57.1458191305728,89.68626050729273,123.97008786540873,144.24507260912821,144.24507260912821,1.0,1.1,-667,263,-480,261,-250,274,200.06601548194885,200.06605863571167,200.06850004196167,200.08044123649597,200.23033499717712,200.23033499717712,200.23033499717712,200.23033499717712,200.23033499717712,200.23033499717712,200.23033499717712,201.09807467460632,3,0.9991781711578369,None,,,,,,,,,,,,,,,,,,61,3,2025-02-19_16h52.07.900,comp,2024.2.4,60.097375336357565,2025-02-19 16h52.21.961855 -0500,
55,55,0,critical,hwd,35.0,2.1,upper,200.0,125.0,125.0,200.0,127.0,127.0,2,2.3714795112609863,None,,,,,0,0,0,0,0,55,55,17,201.11350536346436,,,,,,,,,,,,,,,,,,,,,,,,,,,,,,,,,,,,,,,,,,,,,,,,,,,,,,,,,,,,,,,,,,,,,,,,,,,,,,,,,200.0,125.0,125.0,200.0,127.0,127.0,2.1,2.12,-258,-290,0,-251,260,272,201.09886980056763,201.0989110469818,201.10133719444275,201.11350536346436,201.263995885849,201.263995885849,201.263995885849,201.263995885849,201.263995885849,201.263995885849,201.263995885849,203.49825525283813,2,2.3714795112609863,None,,,,,,,,,,,,,,,,,,61,3,2025-02-19_16h52.07.900,comp,2024.2.4,60.097375336357565,2025-02-19 16h52.21.961855 -0500,
56,56,0,critical,hwd,20.0,2.1,lower,133.0,57.0,57.0,133.0,78.0,78.0,1,5.203563690185547,None,,,,,0,0,0,0,0,56,56,18,203.51337885856628,,,,,,,,,,,,,,,,,,,,,,,,,,,,,,,,,,,,,,,,,,,,,,,,,,,,,,,,,,,,,,,,,,,,,,,,,,,,,,,,,133.0,57.0,57.0,133.0,78.0,78.0,2.1,2.12,-191,-257,0,-259,202,275,203.49908661842346,203.49912929534912,203.5015459060669,203.51337885856628,203.66373896598816,203.66373896598816,203.66373896598816,203.66373896598816,203.66373896598816,203.66373896598816,203.66373896598816,208.73135638237,1,5.203563690185547,None,,,,,,,,,,,,,,,,,,61,3,2025-02-19_16h52.07.900,comp,2024.2.4,60.097375336357565,2025-02-19 16h52.21.961855 -0500,
57,57,0,filler_square,None,None,None,None,None,None,None,None,None,None,1,2.5947728157043457,None,,,,,0,0,0,0,0,57,57,197,208.74686765670776,,,,,,,,,,,,,,,,,,,,,,,,,,,,,,,,,,,,,,,,,,,,,,,,,,,,,,,,,,,,,,,,,,,,,,,,,,,,,,,,,191.60811502294587,191.60811502294587,99.05378932892873,72.80778917356147,103.68498927293233,114.75340001672315,4.0,4.1,-228,-251,0,-18,190,-275,208.73234844207764,208.73238968849182,208.73504972457886,208.74686765670776,208.89702701568604,208.89702701568604,208.89702701568604,208.89702701568604,208.89702701568604,208.89702701568604,208.89702701568604,211.3481125831604,1,2.5947728157043457,None,,,,,,,,,,,,,,,,,,61,3,2025-02-19_16h52.07.900,comp,2024.2.4,60.097375336357565,2025-02-19 16h52.21.961855 -0500,
58,58,0,filler_square,None,None,None,None,None,None,None,None,None,None,2,1.6500840187072754,None,,,,,0,0,0,0,0,58,58,184,211.36372876167297,,,,,,,,,,,,,,,,,,,,,,,,,,,,,,,,,,,,,,,,,,,,,,,,,,,,,,,,,,,,,,,,,,,,,,,,,,,,,,,,,100.59054564013223,71.62257136450742,129.7692307906282,129.7692307906282,109.45261492206583,81.38301946411869,1.0,1.3,283,-274,480,-270,682,-275,211.3490788936615,211.34912204742432,211.35156655311584,211.36372876167297,211.5139501094818,211.5139501094818,211.5139501094818,211.5139501094818,211.5139501094818,211.5139501094818,211.5139501094818,213.0312855243683,2,1.6500840187072754,None,,,,,,,,,,,,,,,,,,61,3,2025-02-19_16h52.07.900,comp,2024.2.4,60.097375336357565,2025-02-19 16h52.21.961855 -0500,
59,59,0,critical,dwh,35.0,2.1,lower,70.0,70.0,57.0,133.0,133.0,57.0,3,3.918201208114624,None,,,,,0,0,0,0,0,59,59,4,213.0467221736908,,,,,,,,,,,,,,,,,,,,,,,,,,,,,,,,,,,,,,,,,,,,,,,,,,,,,,,,,,,,,,,,,,,,,,,,,,,,,,,,,70.0,70.0,57.0,133.0,133.0,57.0,2.1,2.11,-198,253,0,285,191,-277,213.032208442688,213.03224849700928,213.03480124473572,213.0467221736908,213.19668316841125,213.19668316841125,213.19668316841125,213.19668316841125,213.19668316841125,213.19668316841125,213.19668316841125,216.98132467269897,3,3.918201208114624,None,,,,,,,,,,,,,,,,,,61,3,2025-02-19_16h52.07.900,comp,2024.2.4,60.097375336357565,2025-02-19 16h52.21.961855 -0500,
60,60,0,critical,dhw,20.0,2.1,lower,78.0,78.0,133.0,57.0,57.0,133.0,3,2.3610098361968994,None,,,,,0,0,0,0,0,60,60,2,216.99668717384338,,,,,,,,,,,,,,,,,,,,,,,,,,,,,,,,,,,,,,,,,,,,,,,,,,,,,,,,,,,,,,,,,,,,,,,,,,,,,,,,,78.0,78.0,133.0,57.0,57.0,133.0,2.1,2.11,-164,256,0,282,191,-250,216.98213863372803,216.98218083381653,216.98464179039001,216.99668717384338,217.14687514305115,217.14687514305115,217.14687514305115,217.14687514305115,217.14687514305115,217.14687514305115,217.14687514305115,219.36452913284302,3,2.3610098361968994,None,,,,,,,,,,,,,,,,,,61,3,2025-02-19_16h52.07.900,comp,2024.2.4,60.097375336357565,2025-02-19 16h52.21.961855 -0500,
61,61,0,filler_square,None,None,None,None,None,None,None,None,None,None,2,1.8253073692321777,None,,,,,0,0,0,0,0,61,61,198,219.3803288936615,,,,,,,,,,,,,,,,,,,,,,,,,,,,,,,,,,,,,,,,,,,,,,,,,,,,,,,,,,,,,,,,,,,,,,,,,,,,,,,,,77.78773641792505,87.83171922368619,98.11358225076143,98.11358225076143,60.83671117054608,90.88264947447144,4.0,4.1,-189,-268,0,11,190,-285,219.36551904678345,219.3655617237091,219.36807298660278,219.3803288936615,219.5300440788269,219.5300440788269,219.5300440788269,219.5300440788269,219.5300440788269,219.5300440788269,219.5300440788269,221.2144796848297,2,1.8253073692321777,None,,,,,,,,,,,,,,,,,,61,3,2025-02-19_16h52.07.900,comp,2024.2.4,60.097375336357565,2025-02-19 16h52.21.961855 -0500,
62,62,0,critical,whd,35.0,2.1,lower,57.0,133.0,133.0,57.0,70.0,70.0,1,2.8224263191223145,None,,,,,0,0,0,0,0,62,62,36,221.23025012016296,,,,,,,,,,,,,,,,,,,,,,,,,,,,,,,,,,,,,,,,,,,,,,,,,,,,,,,,,,,,,,,,,,,,,,,,,,,,,,,,,57.0,133.0,133.0,57.0,70.0,70.0,2.1,2.11,-191,257,0,252,160,-261,221.21529412269592,221.2153377532959,221.2178053855896,221.23025012016296,221.38006830215454,221.38006830215454,221.38006830215454,221.38006830215454,221.38006830215454,221.38006830215454,221.38006830215454,224.06483459472656,1,2.8224263191223145,None,,,,,,,,,,,,,,,,,,61,3,2025-02-19_16h52.07.900,comp,2024.2.4,60.097375336357565,2025-02-19 16h52.21.961855 -0500,
63,63,0,critical,dhw,35.0,2.1,lower,70.0,70.0,133.0,57.0,57.0,133.0,3,2.437037706375122,None,,,,,0,0,0,0,0,63,63,24,224.07987713813782,,,,,,,,,,,,,,,,,,,,,,,,,,,,,,,,,,,,,,,,,,,,,,,,,,,,,,,,,,,,,,,,,,,,,,,,,,,,,,,,,70.0,70.0,133.0,57.0,57.0,133.0,2.1,2.12,-160,-272,0,-266,191,284,224.0656397342682,224.06568098068237,224.06802010536194,224.07987713813782,224.23038530349731,224.23038530349731,224.23038530349731,224.23038530349731,224.23038530349731,224.23038530349731,224.23038530349731,226.53127002716064,3,2.437037706375122,None,,,,,,,,,,,,,,,,,,61,3,2025-02-19_16h52.07.900,comp,2024.2.4,60.097375336357565,2025-02-19 16h52.21.961855 -0500,
64,64,0,critical,dhw,20.0,2.1,upper,141.0,141.0,200.0,125.0,125.0,200.0,2,1.6672968864440918,None,,,,,0,0,0,0,0,64,64,3,226.5466763973236,,,,,,,,,,,,,,,,,,,,,,,,,,,,,,,,,,,,,,,,,,,,,,,,,,,,,,,,,,,,,,,,,,,,,,,,,,,,,,,,,141.0,141.0,200.0,125.0,125.0,200.0,2.1,2.11,-229,272,0,285,258,-280,226.53208804130554,226.53212904930115,226.53461623191833,226.5466763973236,226.69695687294006,226.69695687294006,226.69695687294006,226.69695687294006,226.69695687294006,226.69695687294006,226.69695687294006,228.2315502166748,2,1.6672968864440918,None,,,,,,,,,,,,,,,,,,61,3,2025-02-19_16h52.07.900,comp,2024.2.4,60.097375336357565,2025-02-19 16h52.21.961855 -0500,
65,65,0,filler_random,None,None,None,None,None,None,None,None,None,None,2,2.750636100769043,None,,,,,0,0,0,0,0,65,65,152,228.24674892425537,,,,,,,,,,,,,,,,,,,,,,,,,,,,,,,,,,,,,,,,,,,,,,,,,,,,,,,,,,,,,,,,,,,,,,,,,,,,,,,,,107.73513821574208,171.56222594712864,164.90611387896493,121.03111023918926,113.89862062572288,163.0314116531888,2.1,2.12,-242,-281,0,-262,238,254,228.23252081871033,228.23256421089172,228.23513174057007,228.24674892425537,228.39690852165222,228.39690852165222,228.39690852165222,228.39690852165222,228.39690852165222,228.39690852165222,228.39690852165222,231.01467752456665,2,2.750636100769043,None,,,,,,,,,,,,,,,,,,61,3,2025-02-19_16h52.07.900,comp,2024.2.4,60.097375336357565,2025-02-19 16h52.21.961855 -0500,
66,66,0,catch,None,None,None,None,None,None,None,None,None,None,2,1.8651821613311768,None,,,,,0,0,0,0,0,66,66,121,231.02997589111328,,,,,,,,,,,,,,,,,,,,,,,,,,,,,,,,,,,,,,,,,,,,,,,,,,,,,,,,,,,,,,,,,,,,,,,,,,,,,,,,,85,105,141,184,104,86,2.2,2.21,-240,-288,0,268,231,286,231.01573181152344,231.01577234268188,231.0183663368225,231.02997589111328,231.18020248413086,231.18020248413086,231.18020248413086,231.18020248413086,231.18020248413086,231.18020248413086,231.18020248413086,232.8980598449707,2,1.8651821613311768,None,,,,,,,,,,,,,,,,,,61,3,2025-02-19_16h52.07.900,comp,2024.2.4,60.097375336357565,2025-02-19 16h52.21.961855 -0500,
67,67,0,critical,dwh,20.0,4.0,lower,78.0,78.0,57.0,133.0,133.0,57.0,2,5.8031511306762695,None,,,,,0,0,0,0,0,67,67,70,232.9135663509369,,,,,,,,,,,,,,,,,,,,,,,,,,,,,,,,,,,,,,,,,,,,,,,,,,,,,,,,,,,,,,,,,,,,,,,,,,,,,,,,,78.0,78.0,57.0,133.0,133.0,57.0,4.0,4.2,-202,18,0,-285,191,11,232.8989577293396,232.89900183677673,232.90125131607056,232.9135663509369,233.0637629032135,233.0637629032135,233.0637629032135,233.0637629032135,233.0637629032135,233.0637629032135,233.0637629032135,238.73144221305847,2,5.8031511306762695,None,,,,,,,,,,,,,,,,,,61,3,2025-02-19_16h52.07.900,comp,2024.2.4,60.097375336357565,2025-02-19 16h52.21.961855 -0500,
68,68,0,filler_square,None,None,None,None,None,None,None,None,None,None,3,4.0267908573150635,None,,,,,0,0,0,0,0,68,68,193,238.74668169021606,,,,,,,,,,,,,,,,,,,,,,,,,,,,,,,,,,,,,,,,,,,,,,,,,,,,,,,,,,,,,,,,,,,,,,,,,,,,,,,,,74.5759629974563,86.15676494389501,89.73240569674242,81.58530321608627,93.50865757341491,93.50865757341491,2.1,2.11,-180,262,0,250,184,-276,238.732439994812,238.732483625412,238.73498439788818,238.74668169021606,238.89688158035278,238.89688158035278,238.89688158035278,238.89688158035278,238.89688158035278,238.89688158035278,238.89688158035278,242.7810230255127,3,4.0267908573150635,None,,,,,,,,,,,,,,,,,,61,3,2025-02-19_16h52.07.900,comp,2024.2.4,60.097375336357565,2025-02-19 16h52.21.961855 -0500,
69,69,0,filler_square,None,None,None,None,None,None,None,None,None,None,1,2.3363473415374756,None,,,,,0,0,0,0,0,69,69,207,242.79679131507874,,,,,,,,,,,,,,,,,,,,,,,,,,,,,,,,,,,,,,,,,,,,,,,,,,,,,,,,,,,,,,,,,,,,,,,,,,,,,,,,,64.9628292786551,68.2808923512035,60.02887806748453,66.20277747745041,68.67318073450681,68.67318073450681,2.1,2.11,-163,273,0,286,163,-277,242.78201580047607,242.78205704689026,242.78424215316772,242.79679131507874,242.94692587852478,242.94692587852478,242.94692587852478,242.94692587852478,242.94692587852478,242.94692587852478,242.94692587852478,245.1477406024933,1,2.3363473415374756,None,,,,,,,,,,,,,,,,,,61,3,2025-02-19_16h52.07.900,comp,2024.2.4,60.097375336357565,2025-02-19 16h52.21.961855 -0500,
70,70,0,filler_square,None,None,None,None,None,None,None,None,None,None,2,1.6835758686065674,None,,,,,0,0,0,0,0,70,70,176,245.16317796707153,,,,,,,,,,,,,,,,,,,,,,,,,,,,,,,,,,,,,,,,,,,,,,,,,,,,,,,,,,,,,,,,,,,,,,,,,,,,,,,,,68.42872798467371,60.08770758516704,92.54482084807086,92.54482084807086,88.72125607411223,70.80672704833673,1.0,1.1,-652,285,-480,266,-302,250,245.1487114429474,245.14875173568726,245.15088057518005,245.16317796707153,245.31319642066956,245.31319642066956,245.31319642066956,245.31319642066956,245.31319642066956,245.31319642066956,245.31319642066956,246.84800028800964,2,1.6835758686065674,None,,,,,,,,,,,,,,,,,,61,3,2025-02-19_16h52.07.900,comp,2024.2.4,60.097375336357565,2025-02-19 16h52.21.961855 -0500,
71,71,0,critical,dhw,20.0,1.0,lower,78.0,78.0,133.0,57.0,57.0,133.0,3,4.069655656814575,None,,,,,0,0,0,0,0,71,71,54,246.86338257789612,,,,,,,,,,,,,,,,,,,,,,,,,,,,,,,,,,,,,,,,,,,,,,,,,,,,,,,,,,,,,,,,,,,,,,,,,,,,,,,,,78.0,78.0,133.0,57.0,57.0,133.0,1.0,1.3,316,-268,480,-286,671,-268,246.84875679016113,246.8487958908081,246.8514142036438,246.86338257789612,247.01330304145813,247.01330304145813,247.01330304145813,247.01330304145813,247.01330304145813,247.01330304145813,247.01330304145813,250.94770765304565,3,4.069655656814575,None,,,,,,,,,,,,,,,,,,61,3,2025-02-19_16h52.07.900,comp,2024.2.4,60.097375336357565,2025-02-19 16h52.21.961855 -0500,
72,72,0,critical,whd,35.0,3.0,upper,125.0,200.0,200.0,125.0,127.0,127.0,2,2.0423390865325928,None,,,,,0,0,0,0,0,72,72,87,250.96309399604797,,,,,,,,,,,,,,,,,,,,,,,,,,,,,,,,,,,,,,,,,,,,,,,,,,,,,,,,,,,,,,,,,,,,,,,,,,,,,,,,,125.0,200.0,200.0,125.0,127.0,127.0,3.0,3.1,-258,282,0,6,222,-275,250.94849109649658,250.94852995872498,250.95121812820435,250.96309399604797,251.11371731758118,251.11371731758118,251.11371731758118,251.11371731758118,251.11371731758118,251.11371731758118,251.11371731758118,253.01455783843994,2,2.0423390865325928,None,,,,,,,,,,,,,,,,,,61,3,2025-02-19_16h52.07.900,comp,2024.2.4,60.097375336357565,2025-02-19 16h52.21.961855 -0500,
73,73,0,critical,whd,35.0,1.0,upper,125.0,200.0,200.0,125.0,127.0,127.0,1,4.575391530990601,None,,,,,0,0,0,0,0,73,73,85,253.03003025054932,,,,,,,,,,,,,,,,,,,,,,,,,,,,,,,,,,,,,,,,,,,,,,,,,,,,,,,,,,,,,,,,,,,,,,,,,,,,,,,,,125.0,200.0,200.0,125.0,127.0,127.0,1.0,1.2,-258,-14,0,-13,222,-16,253.01538848876953,253.01543164253235,253.01764011383057,253.03003025054932,253.18016386032104,253.18016386032104,253.18016386032104,253.18016386032104,253.18016386032104,253.18016386032104,253.18016386032104,257.6146070957184,1,4.575391530990601,None,,,,,,,,,,,,,,,,,,61,3,2025-02-19_16h52.07.900,comp,2024.2.4,60.097375336357565,2025-02-19 16h52.21.961855 -0500,
74,74,0,critical,dhw,35.0,2.1,lower,70.0,70.0,133.0,57.0,57.0,133.0,2,3.4647490978240967,None,,,,,0,0,0,0,0,74,74,0,257.6301238536835,,,,,,,,,,,,,,,,,,,,,,,,,,,,,,,,,,,,,,,,,,,,,,,,,,,,,,,,,,,,,,,,,,,,,,,,,,,,,,,,,70.0,70.0,133.0,57.0,57.0,133.0,2.1,2.11,-160,275,0,255,191,-277,257.61543321609497,257.6154770851135,257.61764574050903,257.6301238536835,257.7799184322357,257.7799184322357,257.7799184322357,257.7799184322357,257.7799184322357,257.7799184322357,257.7799184322357,261.09791827201843,2,3.4647490978240967,None,,,,,,,,,,,,,,,,,,61,3,2025-02-19_16h52.07.900,comp,2024.2.4,60.097375336357565,2025-02-19 16h52.21.961855 -0500,
75,75,0,catch,None,None,None,None,None,None,None,None,None,None,3,2.019190549850464,None,,,,,0,0,0,0,0,75,75,123,261.11337876319885,,,,,,,,,,,,,,,,,,,,,,,,,,,,,,,,,,,,,,,,,,,,,,,,,,,,,,,,,,,,,,,,,,,,,,,,,,,,,,,,,89,101,71,119,183,142,4.0,4.2,-206,-16,0,-270,226,-15,261.0990309715271,261.09907269477844,261.1014688014984,261.11337876319885,261.2635598182678,261.2635598182678,261.2635598182678,261.2635598182678,261.2635598182678,261.2635598182678,261.2635598182678,263.1477131843567,3,2.019190549850464,None,,,,,,,,,,,,,,,,,,61,3,2025-02-19_16h52.07.900,comp,2024.2.4,60.097375336357565,2025-02-19 16h52.21.961855 -0500,
76,76,0,critical,dwh,35.0,3.0,lower,70.0,70.0,57.0,133.0,133.0,57.0,2,2.969820022583008,None,,,,,0,0,0,0,0,76,76,62,263.1630582809448,,,,,,,,,,,,,,,,,,,,,,,,,,,,,,,,,,,,,,,,,,,,,,,,,,,,,,,,,,,,,,,,,,,,,,,,,,,,,,,,,70.0,70.0,57.0,133.0,133.0,57.0,3.0,3.2,-198,-274,0,15,191,261,263.14852499961853,263.14856696128845,263.1511662006378,263.1630582809448,263.313161611557,263.313161611557,263.313161611557,263.313161611557,263.313161611557,263.313161611557,263.313161611557,266.1475713253021,2,2.969820022583008,None,,,,,,,,,,,,,,,,,,61,3,2025-02-19_16h52.07.900,comp,2024.2.4,60.097375336357565,2025-02-19 16h52.21.961855 -0500,
77,77,0,critical,hwd,20.0,4.0,upper,200.0,125.0,125.0,200.0,141.0,141.0,2,1.2838268280029297,None,,,,,0,0,0,0,0,77,77,107,266.1629979610443,,,,,,,,,,,,,,,,,,,,,,,,,,,,,,,,,,,,,,,,,,,,,,,,,,,,,,,,,,,,,,,,,,,,,,,,,,,,,,,,,200.0,125.0,125.0,200.0,141.0,141.0,4.0,4.1,-258,-282,0,-11,266,-251,266.1484065055847,266.1484467983246,266.1510338783264,266.1629979610443,266.3133041858673,266.3133041858673,266.3133041858673,266.3133041858673,266.3133041858673,266.3133041858673,266.3133041858673,267.4481325149536,2,1.2838268280029297,None,,,,,,,,,,,,,,,,,,61,3,2025-02-19_16h52.07.900,comp,2024.2.4,60.097375336357565,2025-02-19 16h52.21.961855 -0500,
78,78,0,critical,dwh,20.0,2.1,lower,78.0,78.0,57.0,133.0,133.0,57.0,3,2.3100154399871826,None,,,,,0,0,0,0,0,78,78,30,267.4632251262665,,,,,,,,,,,,,,,,,,,,,,,,,,,,,,,,,,,,,,,,,,,,,,,,,,,,,,,,,,,,,,,,,,,,,,,,,,,,,,,,,78.0,78.0,57.0,133.0,133.0,57.0,2.1,2.12,-202,-281,0,-289,191,271,267.4488945007324,267.4489481449127,267.4510586261749,267.4632251262665,267.6131410598755,267.6131410598755,267.6131410598755,267.6131410598755,267.6131410598755,267.6131410598755,267.6131410598755,269.78086948394775,3,2.3100154399871826,None,,,,,,,,,,,,,,,,,,61,3,2025-02-19_16h52.07.900,comp,2024.2.4,60.097375336357565,2025-02-19 16h52.21.961855 -0500,
79,79,0,critical,hdw,35.0,4.0,upper,200.0,125.0,127.0,127.0,125.0,200.0,1,1.2168641090393066,None,,,,,0,0,0,0,0,79,79,113,269.796674489975,,,,,,,,,,,,,,,,,,,,,,,,,,,,,,,,,,,,,,,,,,,,,,,,,,,,,,,,,,,,,,,,,,,,,,,,,,,,,,,,,200.0,125.0,127.0,127.0,125.0,200.0,4.0,4.2,-222,-6,0,-259,260,-19,269.7817049026489,269.78174805641174,269.785099029541,269.796674489975,269.946897983551,269.946897983551,269.946897983551,269.946897983551,269.946897983551,269.946897983551,269.946897983551,271.0310070514679,1,1.2168641090393066,None,,,,,,,,,,,,,,,,,,61,3,2025-02-19_16h52.07.900,comp,2024.2.4,60.097375336357565,2025-02-19 16h52.21.961855 -0500,
80,80,0,filler_random,None,None,None,None,None,None,None,None,None,None,2,0.9432756900787354,None,,,,,0,0,0,0,0,80,80,164,271.04640793800354,,,,,,,,,,,,,,,,,,,,,,,,,,,,,,,,,,,,,,,,,,,,,,,,,,,,,,,,,,,,,,,,,,,,,,,,,,,,,,,,,168.46569723235604,130.71703473122608,192.98504506992762,105.70808169441665,133.6605222299346,62.47842146636302,2.1,2.11,-214,258,0,269,180,-273,271.0318932533264,271.0319495201111,271.0341100692749,271.04640793800354,271.1965682506561,271.1965682506561,271.1965682506561,271.1965682506561,271.1965682506561,271.1965682506561,271.1965682506561,271.9978368282318,2,0.9432756900787354,None,,,,,,,,,,,,,,,,,,61,3,2025-02-19_16h52.07.900,comp,2024.2.4,60.097375336357565,2025-02-19 16h52.21.961855 -0500,
81,81,0,filler_random,None,None,None,None,None,None,None,None,None,None,3,1.8498303890228271,None,,,,,0,0,0,0,0,81,81,165,272.0133020877838,,,,,,,,,,,,,,,,,,,,,,,,,,,,,,,,,,,,,,,,,,,,,,,,,,,,,,,,,,,,,,,,,,,,,,,,,,,,,,,,,75.94707604974974,106.03688598061508,102.41615014034605,165.7739203428772,167.44002034348728,161.79256661179932,1.0,1.1,-712,252,-480,276,-220,253,271.99878454208374,271.99882793426514,272.001526594162,272.0133020877838,272.16337966918945,272.16337966918945,272.16337966918945,272.16337966918945,272.16337966918945,272.16337966918945,272.16337966918945,273.8645107746124,3,1.8498303890228271,None,,,,,,,,,,,,,,,,,,61,3,2025-02-19_16h52.07.900,comp,2024.2.4,60.097375336357565,2025-02-19 16h52.21.961855 -0500,
82,82,0,critical,whd,35.0,4.0,upper,125.0,200.0,200.0,125.0,127.0,127.0,1,3.4687328338623047,None,,,,,0,0,0,0,0,82,82,89,273.8798279762268,,,,,,,,,,,,,,,,,,,,,,,,,,,,,,,,,,,,,,,,,,,,,,,,,,,,,,,,,,,,,,,,,,,,,,,,,,,,,,,,,125.0,200.0,200.0,125.0,127.0,127.0,4.0,4.2,-258,-13,0,-282,222,-12,273.86532163619995,273.86536383628845,273.86790466308594,273.8798279762268,274.0300226211548,274.0300226211548,274.0300226211548,274.0300226211548,274.0300226211548,274.0300226211548,274.0300226211548,277.36434268951416,1,3.4687328338623047,None,,,,,,,,,,,,,,,,,,61,3,2025-02-19_16h52.07.900,comp,2024.2.4,60.097375336357565,2025-02-19 16h52.21.961855 -0500,
83,83,0,critical,hdw,20.0,2.1,upper,200.0,125.0,141.0,141.0,125.0,200.0,1,3.5148651599884033,None,,,,,0,0,0,0,0,83,83,47,277.37958908081055,,,,,,,,,,,,,,,,,,,,,,,,,,,,,,,,,,,,,,,,,,,,,,,,,,,,,,,,,,,,,,,,,,,,,,,,,,,,,,,,,200.0,125.0,141.0,141.0,125.0,200.0,2.1,2.11,-229,267,0,275,266,-287,277.36513090133667,277.3651702404022,277.36761713027954,277.37958908081055,277.53051924705505,277.53051924705505,277.53051924705505,277.53051924705505,277.53051924705505,277.53051924705505,277.53051924705505,280.89784502983093,1,3.5148651599884033,None,,,,,,,,,,,,,,,,,,61,3,2025-02-19_16h52.07.900,comp,2024.2.4,60.097375336357565,2025-02-19 16h52.21.961855 -0500,
84,84,0,filler_square,None,None,None,None,None,None,None,None,None,None,3,1.2836997509002686,None,,,,,0,0,0,0,0,84,84,171,280.91320729255676,,,,,,,,,,,,,,,,,,,,,,,,,,,,,,,,,,,,,,,,,,,,,,,,,,,,,,,,,,,,,,,,,,,,,,,,,,,,,,,,,136.61611708386187,65.12880163154185,95.82052698311568,104.52586416587084,171.87971474742778,171.87971474742778,4.0,4.1,-181,-289,0,-11,234,-268,280.89882016181946,280.89886474609375,280.90105986595154,280.91320729255676,281.0631911754608,281.0631911754608,281.0631911754608,281.0631911754608,281.0631911754608,281.0631911754608,281.0631911754608,282.1980392932892,3,1.2836997509002686,None,,,,,,,,,,,,,,,,,,61,3,2025-02-19_16h52.07.900,comp,2024.2.4,60.097375336357565,2025-02-19 16h52.21.961855 -0500,
85,85,0,filler_square,None,None,None,None,None,None,None,None,None,None,2,1.6082911491394043,None,,,,,0,0,0,0,0,85,85,208,282.21319365501404,,,,,,,,,,,,,,,,,,,,,,,,,,,,,,,,,,,,,,,,,,,,,,,,,,,,,,,,,,,,,,,,,,,,,,,,,,,,,,,,,70.06507966215187,66.95672345520819,74.78180318053484,74.78180318053484,60.40456232045026,72.60969205889145,3.0,3.1,-167,279,0,-13,170,-280,282.199045419693,282.19910430908203,282.20171332359314,282.21319365501404,282.36299753189087,282.36299753189087,282.36299753189087,282.36299753189087,282.36299753189087,282.36299753189087,282.36299753189087,283.8308072090149,2,1.6082911491394043,None,,,,,,,,,,,,,,,,,,61,3,2025-02-19_16h52.07.900,comp,2024.2.4,60.097375336357565,2025-02-19 16h52.21.961855 -0500,
86,86,0,critical,whd,35.0,2.1,upper,125.0,200.0,200.0,125.0,127.0,127.0,2,1.0057055950164795,None,,,,,0,0,0,0,0,86,86,37,283.8465528488159,,,,,,,,,,,,,,,,,,,,,,,,,,,,,,,,,,,,,,,,,,,,,,,,,,,,,,,,,,,,,,,,,,,,,,,,,,,,,,,,,125.0,200.0,200.0,125.0,127.0,127.0,2.1,2.11,-258,276,0,278,222,-284,283.83166670799255,283.83170986175537,283.8343997001648,283.8465528488159,283.996630191803,283.996630191803,283.996630191803,283.996630191803,283.996630191803,283.996630191803,283.996630191803,284.86476707458496,2,1.0057055950164795,None,,,,,,,,,,,,,,,,,,61,3,2025-02-19_16h52.07.900,comp,2024.2.4,60.097375336357565,2025-02-19 16h52.21.961855 -0500,
87,87,0,critical,whd,20.0,2.1,upper,125.0,200.0,200.0,125.0,141.0,141.0,2,3.2149293422698975,None,,,,,0,0,0,0,0,87,87,39,284.8796398639679,,,,,,,,,,,,,,,,,,,,,,,,,,,,,,,,,,,,,,,,,,,,,,,,,,,,,,,,,,,,,,,,,,,,,,,,,,,,,,,,,125.0,200.0,200.0,125.0,141.0,141.0,2.1,2.11,-258,279,0,287,229,-261,284.8656027317047,284.8656451702118,284.86814403533936,284.8796398639679,285.02979946136475,285.02979946136475,285.02979946136475,285.02979946136475,285.02979946136475,285.02979946136475,285.02979946136475,288.09791922569275,2,3.2149293422698975,None,,,,,,,,,,,,,,,,,,61,3,2025-02-19_16h52.07.900,comp,2024.2.4,60.097375336357565,2025-02-19 16h52.21.961855 -0500,
88,88,0,filler_square,None,None,None,None,None,None,None,None,None,None,3,3.5165741443634033,None,,,,,0,0,0,0,0,88,88,204,288.11323738098145,,,,,,,,,,,,,,,,,,,,,,,,,,,,,,,,,,,,,,,,,,,,,,,,,,,,,,,,,,,,,,,,,,,,,,,,,,,,,,,,,109.06567769585473,59.89264764971327,107.53483074468383,80.512034253722,109.28283493295618,109.28283493295618,1.0,1.3,314,-250,480,-258,671,-274,288.0988938808441,288.0989463329315,288.1011161804199,288.11323738098145,288.2631115913391,288.2631115913391,288.2631115913391,288.2631115913391,288.2631115913391,288.2631115913391,288.2631115913391,291.6475775241852,3,3.5165741443634033,None,,,,,,,,,,,,,,,,,,61,3,2025-02-19_16h52.07.900,comp,2024.2.4,60.097375336357565,2025-02-19 16h52.21.961855 -0500,
89,89,0,critical,dwh,20.0,3.0,lower,78.0,78.0,57.0,133.0,133.0,57.0,2,2.269739866256714,None,,,,,0,0,0,0,0,89,89,68,291.66283559799194,,,,,,,,,,,,,,,,,,,,,,,,,,,,,,,,,,,,,,,,,,,,,,,,,,,,,,,,,,,,,,,,,,,,,,,,,,,,,,,,,78.0,78.0,57.0,133.0,133.0,57.0,3.0,3.2,-202,-274,0,-12,191,265,291.64839482307434,291.64843678474426,291.65108919143677,291.66283559799194,291.8130738735199,291.8130738735199,291.8130738735199,291.8130738735199,291.8130738735199,291.8130738735199,291.8130738735199,293.9474470615387,2,2.269739866256714,None,,,,,,,,,,,,,,,,,,61,3,2025-02-19_16h52.07.900,comp,2024.2.4,60.097375336357565,2025-02-19 16h52.21.961855 -0500,
90,90,0,critical,hwd,35.0,4.0,upper,200.0,125.0,125.0,200.0,127.0,127.0,2,2.5621626377105713,None,,,,,0,0,0,0,0,90,90,101,293.9629240036011,,,,,,,,,,,,,,,,,,,,,,,,,,,,,,,,,,,,,,,,,,,,,,,,,,,,,,,,,,,,,,,,,,,,,,,,,,,,,,,,,200.0,125.0,125.0,200.0,127.0,127.0,4.0,4.1,-258,-261,0,-7,260,-255,293.94828391075134,293.948326587677,293.9508533477783,293.9629240036011,294.113201379776,294.113201379776,294.113201379776,294.113201379776,294.113201379776,294.113201379776,294.113201379776,296.5309934616089,2,2.5621626377105713,None,,,,,,,,,,,,,,,,,,61,3,2025-02-19_16h52.07.900,comp,2024.2.4,60.097375336357565,2025-02-19 16h52.21.961855 -0500,
91,91,0,critical,dwh,35.0,1.0,lower,70.0,70.0,57.0,133.0,133.0,57.0,3,3.1057677268981934,None,,,,,0,0,0,0,0,91,91,60,296.546425819397,,,,,,,,,,,,,,,,,,,,,,,,,,,,,,,,,,,,,,,,,,,,,,,,,,,,,,,,,,,,,,,,,,,,,,,,,,,,,,,,,70.0,70.0,57.0,133.0,133.0,57.0,1.0,1.2,-198,4,0,9,191,-4,296.53177762031555,296.5318202972412,296.5341577529907,296.546425819397,296.696658372879,296.696658372879,296.696658372879,296.696658372879,296.696658372879,296.696658372879,296.696658372879,299.66447591781616,3,3.1057677268981934,None,,,,,,,,,,,,,,,,,,61,3,2025-02-19_16h52.07.900,comp,2024.2.4,60.097375336357565,2025-02-19 16h52.21.961855 -0500,
92,92,0,critical,hdw,35.0,1.0,lower,133.0,57.0,70.0,70.0,57.0,133.0,3,4.550336122512817,None,,,,,0,0,0,0,0,92,92,108,299.6795048713684,,,,,,,,,,,,,,,,,,,,,,,,,,,,,,,,,,,,,,,,,,,,,,,,,,,,,,,,,,,,,,,,,,,,,,,,,,,,,,,,,133.0,57.0,70.0,70.0,57.0,133.0,1.0,1.2,-160,-13,0,-16,198,12,299.6652822494507,299.6653242111206,299.66784024238586,299.6795048713684,299.8295781612396,299.8295781612396,299.8295781612396,299.8295781612396,299.8295781612396,299.8295781612396,299.8295781612396,304.2474136352539,3,4.550336122512817,None,,,,,,,,,,,,,,,,,,61,3,2025-02-19_16h52.07.900,comp,2024.2.4,60.097375336357565,2025-02-19 16h52.21.961855 -0500,
93,93,0,filler_random,None,None,None,None,None,None,None,None,None,None,3,1.662353277206421,None,,,,,0,0,0,0,0,93,93,134,304.2628035545349,,,,,,,,,,,,,,,,,,,,,,,,,,,,,,,,,,,,,,,,,,,,,,,,,,,,,,,,,,,,,,,,,,,,,,,,,,,,,,,,,146.38227673862946,96.40572264229638,139.6440008388911,106.05052761909312,196.6471035379739,174.2085149819054,4.0,4.1,-197,-278,0,1,236,-286,304.24832224845886,304.2483639717102,304.2508707046509,304.2628035545349,304.41316628456116,304.41316628456116,304.41316628456116,304.41316628456116,304.41316628456116,304.41316628456116,304.41316628456116,305.93112564086914,3,1.662353277206421,None,,,,,,,,,,,,,,,,,,61,3,2025-02-19_16h52.07.900,comp,2024.2.4,60.097375336357565,2025-02-19 16h52.21.961855 -0500,
94,94,0,critical,dwh,35.0,3.0,upper,127.0,127.0,125.0,200.0,200.0,125.0,2,1.363013505935669,None,,,,,0,0,0,0,0,94,94,63,305.9465069770813,,,,,,,,,,,,,,,,,,,,,,,,,,,,,,,,,,,,,,,,,,,,,,,,,,,,,,,,,,,,,,,,,,,,,,,,,,,,,,,,,127.0,127.0,125.0,200.0,200.0,125.0,3.0,3.1,-260,271,0,-8,258,-257,305.931911945343,305.93196535110474,305.9341027736664,305.9465069770813,306.0968246459961,306.0968246459961,306.0968246459961,306.0968246459961,306.0968246459961,306.0968246459961,306.0968246459961,307.3142583370209,2,1.363013505935669,None,,,,,,,,,,,,,,,,,,61,3,2025-02-19_16h52.07.900,comp,2024.2.4,60.097375336357565,2025-02-19 16h52.21.961855 -0500,
95,95,0,critical,wdh,35.0,2.1,lower,57.0,133.0,70.0,70.0,133.0,57.0,1,2.165422201156616,None,,,,,0,0,0,0,0,95,95,8,307.329660654068,,,,,,,,,,,,,,,,,,,,,,,,,,,,,,,,,,,,,,,,,,,,,,,,,,,,,,,,,,,,,,,,,,,,,,,,,,,,,,,,,57.0,133.0,70.0,70.0,133.0,57.0,2.1,2.12,-198,-287,0,-279,160,288,307.31510305404663,307.31514501571655,307.317307472229,307.329660654068,307.479469537735,307.479469537735,307.479469537735,307.479469537735,307.479469537735,307.479469537735,307.479469537735,309.49731063842773,1,2.165422201156616,None,,,,,,,,,,,,,,,,,,61,3,2025-02-19_16h52.07.900,comp,2024.2.4,60.097375336357565,2025-02-19 16h52.21.961855 -0500,
96,96,0,filler_random,None,None,None,None,None,None,None,None,None,None,2,2.0919790267944336,None,,,,,0,0,0,0,0,96,96,135,309.5130534172058,,,,,,,,,,,,,,,,,,,,,,,,,,,,,,,,,,,,,,,,,,,,,,,,,,,,,,,,,,,,,,,,,,,,,,,,,,,,,,,,,95.20917682211058,183.08680975016836,140.2505718115156,182.55117773338185,163.62525425451594,169.2492904494022,3.0,3.1,-279,270,0,4,272,-271,309.4981827735901,309.4982225894928,309.50082993507385,309.5130534172058,309.6631209850311,309.6631209850311,309.6631209850311,309.6631209850311,309.6631209850311,309.6631209850311,309.6631209850311,311.6142382621765,2,2.0919790267944336,None,,,,,,,,,,,,,,,,,,61,3,2025-02-19_16h52.07.900,comp,2024.2.4,60.097375336357565,2025-02-19 16h52.21.961855 -0500,
97,97,0,filler_random,None,None,None,None,None,None,None,None,None,None,1,1.6953959465026855,None,,,,,0,0,0,0,0,97,97,159,311.6296606063843,,,,,,,,,,,,,,,,,,,,,,,,,,,,,,,,,,,,,,,,,,,,,,,,,,,,,,,,,,,,,,,,,,,,,,,,,,,,,,,,,190.35896211664138,104.12957472474793,140.45000091348425,62.84823503065759,72.39671925144383,110.52275680816282,2.1,2.12,-179,-266,0,-273,183,283,311.6151614189148,311.61520314216614,311.61736822128296,311.6296606063843,311.7795488834381,311.7795488834381,311.7795488834381,311.7795488834381,311.7795488834381,311.7795488834381,311.7795488834381,313.3309030532837,1,1.6953959465026855,None,,,,,,,,,,,,,,,,,,61,3,2025-02-19_16h52.07.900,comp,2024.2.4,60.097375336357565,2025-02-19 16h52.21.961855 -0500,
98,98,0,filler_random,None,None,None,None,None,None,None,None,None,None,3,2.105740547180176,None,,,,,0,0,0,0,0,98,98,156,313.3463249206543,,,,,,,,,,,,,,,,,,,,,,,,,,,,,,,,,,,,,,,,,,,,,,,,,,,,,,,,,,,,,,,,,,,,,,,,,,,,,,,,,70.70844888686352,70.2216756026263,75.1895647728534,117.16988768452501,156.57011323970676,73.71036750392287,2.2,2.21,-190,-288,0,280,191,286,313.3320417404175,313.3320848941803,313.33447337150574,313.3463249206543,313.496098279953,313.496098279953,313.496098279953,313.496098279953,313.496098279953,313.496098279953,313.496098279953,315.4644048213959,3,2.105740547180176,None,,,,,,,,,,,,,,,,,,61,3,2025-02-19_16h52.07.900,comp,2024.2.4,60.097375336357565,2025-02-19 16h52.21.961855 -0500,
99,99,0,critical,hwd,35.0,1.0,lower,133.0,57.0,57.0,133.0,70.0,70.0,2,3.8368847370147705,None,,,,,0,0,0,0,0,99,99,96,315.4793598651886,,,,,,,,,,,,,,,,,,,,,,,,,,,,,,,,,,,,,,,,,,,,,,,,,,,,,,,,,,,,,,,,,,,,,,,,,,,,,,,,,133.0,57.0,57.0,133.0,70.0,70.0,1.0,1.1,-671,273,-480,288,-282,279,315.46525406837463,315.46529626846313,315.4677984714508,315.4793598651886,315.6294379234314,315.6294379234314,315.6294379234314,315.6294379234314,315.6294379234314,315.6294379234314,315.6294379234314,319.3305757045746,2,3.8368847370147705,None,,,,,,,,,,,,,,,,,,61,3,2025-02-19_16h52.07.900,comp,2024.2.4,60.097375336357565,2025-02-19 16h52.21.961855 -0500,
100,100,0,catch,None,None,None,None,None,None,None,None,None,None,2,1.675018072128296,None,,,,,0,0,0,0,0,100,100,122,319.34598684310913,,,,,,,,,,,,,,,,,,,,,,,,,,,,,,,,,,,,,,,,,,,,,,,,,,,,,,,,,,,,,,,,,,,,,,,,,,,,,,,,,61,129,190,135,91,99,2.2,2.21,-228,-283,0,274,213,250,319.3316466808319,319.3316876888275,319.33402848243713,319.34598684310913,319.4962339401245,319.4962339401245,319.4962339401245,319.4962339401245,319.4962339401245,319.4962339401245,319.4962339401245,321.03055334091187,2,1.675018072128296,None,,,,,,,,,,,,,,,,,,61,3,2025-02-19_16h52.07.900,comp,2024.2.4,60.097375336357565,2025-02-19 16h52.21.961855 -0500,
101,101,0,critical,wdh,20.0,1.0,upper,125.0,200.0,141.0,141.0,200.0,125.0,3,2.1106410026550293,None,,,,,0,0,0,0,0,101,101,79,321.04628348350525,,,,,,,,,,,,,,,,,,,,,,,,,,,,,,,,,,,,,,,,,,,,,,,,,,,,,,,,,,,,,,,,,,,,,,,,,,,,,,,,,125.0,200.0,141.0,141.0,200.0,125.0,1.0,1.2,-266,4,0,-18,229,6,321.03145480155945,321.0314989089966,321.03413128852844,321.04628348350525,321.1962914466858,321.1962914466858,321.1962914466858,321.1962914466858,321.1962914466858,321.1962914466858,321.1962914466858,323.16407346725464,3,2.1106410026550293,None,,,,,,,,,,,,,,,,,,61,3,2025-02-19_16h52.07.900,comp,2024.2.4,60.097375336357565,2025-02-19 16h52.21.961855 -0500,
102,102,0,critical,hdw,20.0,1.0,lower,133.0,57.0,78.0,78.0,57.0,133.0,1,4.217042446136475,None,,,,,0,0,0,0,0,102,102,114,323.1795461177826,,,,,,,,,,,,,,,,,,,,,,,,,,,,,,,,,,,,,,,,,,,,,,,,,,,,,,,,,,,,,,,,,,,,,,,,,,,,,,,,,133.0,57.0,78.0,78.0,57.0,133.0,1.0,1.3,316,-283,480,-255,682,-271,323.1648449897766,323.1648859977722,323.16724157333374,323.1795461177826,323.3294665813446,323.3294665813446,323.3294665813446,323.3294665813446,323.3294665813446,323.3294665813446,323.3294665813446,327.4138214588165,1,4.217042446136475,None,,,,,,,,,,,,,,,,,,61,3,2025-02-19_16h52.07.900,comp,2024.2.4,60.097375336357565,2025-02-19 16h52.21.961855 -0500,
103,103,0,critical,wdh,35.0,4.0,lower,57.0,133.0,70.0,70.0,133.0,57.0,1,2.5348072052001953,None,,,,,0,0,0,0,0,103,103,76,327.4293591976166,,,,,,,,,,,,,,,,,,,,,,,,,,,,,,,,,,,,,,,,,,,,,,,,,,,,,,,,,,,,,,,,,,,,,,,,,,,,,,,,,57.0,133.0,70.0,70.0,133.0,57.0,4.0,4.1,-198,-257,0,8,160,-283,327.4147319793701,327.4147729873657,327.4172682762146,327.4293591976166,327.57944989204407,327.57944989204407,327.57944989204407,327.57944989204407,327.57944989204407,327.57944989204407,327.57944989204407,329.9805042743683,1,2.5348072052001953,None,,,,,,,,,,,,,,,,,,61,3,2025-02-19_16h52.07.900,comp,2024.2.4,60.097375336357565,2025-02-19 16h52.21.961855 -0500,
104,104,0,critical,wdh,35.0,2.1,lower,57.0,133.0,70.0,70.0,133.0,57.0,1,2.6335513591766357,None,,,,,0,0,0,0,0,104,104,32,329.99592661857605,,,,,,,,,,,,,,,,,,,,,,,,,,,,,,,,,,,,,,,,,,,,,,,,,,,,,,,,,,,,,,,,,,,,,,,,,,,,,,,,,57.0,133.0,70.0,70.0,133.0,57.0,2.1,2.11,-198,258,0,267,160,-276,329.98131012916565,329.9813508987427,329.98387336730957,329.99592661857605,330.14611864089966,330.14611864089966,330.14611864089966,330.14611864089966,330.14611864089966,330.14611864089966,330.14611864089966,332.63067865371704,1,2.6335513591766357,None,,,,,,,,,,,,,,,,,,61,3,2025-02-19_16h52.07.900,comp,2024.2.4,60.097375336357565,2025-02-19 16h52.21.961855 -0500,
105,105,0,critical,dhw,35.0,3.0,upper,127.0,127.0,200.0,125.0,125.0,200.0,3,5.102128982543945,None,,,,,0,0,0,0,0,105,105,51,332.6461043357849,,,,,,,,,,,,,,,,,,,,,,,,,,,,,,,,,,,,,,,,,,,,,,,,,,,,,,,,,,,,,,,,,,,,,,,,,,,,,,,,,127.0,127.0,200.0,125.0,125.0,200.0,3.0,3.2,-222,-255,0,11,258,262,332.6314694881439,332.6315116882324,332.6336901187897,332.6461043357849,332.79625844955444,332.79625844955444,332.79625844955444,332.79625844955444,332.79625844955444,332.79625844955444,332.79625844955444,337.7639727592468,3,5.102128982543945,None,,,,,,,,,,,,,,,,,,61,3,2025-02-19_16h52.07.900,comp,2024.2.4,60.097375336357565,2025-02-19 16h52.21.961855 -0500,
106,106,0,critical,hdw,20.0,3.0,lower,133.0,57.0,78.0,78.0,57.0,133.0,3,2.2831785678863525,None,,,,,0,0,0,0,0,106,106,116,337.7792158126831,,,,,,,,,,,,,,,,,,,,,,,,,,,,,,,,,,,,,,,,,,,,,,,,,,,,,,,,,,,,,,,,,,,,,,,,,,,,,,,,,133.0,57.0,78.0,78.0,57.0,133.0,3.0,3.1,-164,264,0,-5,202,-266,337.7647488117218,337.7647910118103,337.76689767837524,337.7792158126831,337.9292757511139,337.9292757511139,337.9292757511139,337.9292757511139,337.9292757511139,337.9292757511139,337.9292757511139,340.06388688087463,3,2.2831785678863525,None,,,,,,,,,,,,,,,,,,61,3,2025-02-19_16h52.07.900,comp,2024.2.4,60.097375336357565,2025-02-19 16h52.21.961855 -0500,
107,107,0,critical,wdh,20.0,1.0,lower,57.0,133.0,78.0,78.0,133.0,57.0,3,3.477200508117676,None,,,,,0,0,0,0,0,107,107,78,340.07952857017517,,,,,,,,,,,,,,,,,,,,,,,,,,,,,,,,,,,,,,,,,,,,,,,,,,,,,,,,,,,,,,,,,,,,,,,,,,,,,,,,,57.0,133.0,78.0,78.0,133.0,57.0,1.0,1.2,-202,-6,0,2,164,-13,340.06466341018677,340.0647044181824,340.06708431243896,340.07952857017517,340.2293701171875,340.2293701171875,340.2293701171875,340.2293701171875,340.2293701171875,340.2293701171875,340.2293701171875,343.56368255615234,3,3.477200508117676,None,,,,,,,,,,,,,,,,,,61,3,2025-02-19_16h52.07.900,comp,2024.2.4,60.097375336357565,2025-02-19 16h52.21.961855 -0500,
108,108,0,critical,wdh,35.0,1.0,upper,125.0,200.0,127.0,127.0,200.0,125.0,1,2.9932918548583984,None,,,,,0,0,0,0,0,108,108,73,343.5794756412506,,,,,,,,,,,,,,,,,,,,,,,,,,,,,,,,,,,,,,,,,,,,,,,,,,,,,,,,,,,,,,,,,,,,,,,,,,,,,,,,,125.0,200.0,127.0,127.0,200.0,125.0,1.0,1.2,-260,6,0,14,222,18,343.56447744369507,343.5645179748535,343.5670611858368,343.5794756412506,343.7294487953186,343.7294487953186,343.7294487953186,343.7294487953186,343.7294487953186,343.7294487953186,343.7294487953186,346.580561876297,1,2.9932918548583984,None,,,,,,,,,,,,,,,,,,61,3,2025-02-19_16h52.07.900,comp,2024.2.4,60.097375336357565,2025-02-19 16h52.21.961855 -0500,
109,109,0,catch,None,None,None,None,None,None,None,None,None,None,2,1.592555046081543,None,,,,,0,0,0,0,0,109,109,120,346.59621572494507,,,,,,,,,,,,,,,,,,,,,,,,,,,,,,,,,,,,,,,,,,,,,,,,,,,,,,,,,,,,,,,,,,,,,,,,,,,,,,,,,59,131,184,141,123,67,4.0,4.2,-232,12,0,-282,200,-17,346.5816466808319,346.581689119339,346.58425068855286,346.59621572494507,346.7460250854492,346.7460250854492,346.7460250854492,346.7460250854492,346.7460250854492,346.7460250854492,346.7460250854492,348.197101354599,2,1.592555046081543,None,,,,,,,,,,,,,,,,,,61,3,2025-02-19_16h52.07.900,comp,2024.2.4,60.097375336357565,2025-02-19 16h52.21.961855 -0500,
110,110,0,critical,hdw,35.0,2.1,upper,200.0,125.0,127.0,127.0,125.0,200.0,3,1.808152437210083,None,,,,,0,0,0,0,0,110,110,21,348.21276664733887,,,,,,,,,,,,,,,,,,,,,,,,,,,,,,,,,,,,,,,,,,,,,,,,,,,,,,,,,,,,,,,,,,,,,,,,,,,,,,,,,200.0,125.0,127.0,127.0,125.0,200.0,2.1,2.11,-222,283,0,262,260,-263,348.19790053367615,348.1979556083679,348.20042634010315,348.21276664733887,348.3629105091095,348.3629105091095,348.3629105091095,348.3629105091095,348.3629105091095,348.3629105091095,348.3629105091095,350.0306808948517,3,1.808152437210083,None,,,,,,,,,,,,,,,,,,61,3,2025-02-19_16h52.07.900,comp,2024.2.4,60.097375336357565,2025-02-19 16h52.21.961855 -0500,
111,111,0,critical,wdh,20.0,2.1,lower,57.0,133.0,78.0,78.0,133.0,57.0,1,1.7503128051757812,None,,,,,0,0,0,0,0,111,111,34,350.04611682891846,,,,,,,,,,,,,,,,,,,,,,,,,,,,,,,,,,,,,,,,,,,,,,,,,,,,,,,,,,,,,,,,,,,,,,,,,,,,,,,,,57.0,133.0,78.0,78.0,133.0,57.0,2.1,2.12,-202,-260,0,-254,164,265,350.0315589904785,350.03160095214844,350.0341582298279,350.04611682891846,350.19610691070557,350.19610691070557,350.19610691070557,350.19610691070557,350.19610691070557,350.19610691070557,350.19610691070557,351.81369495391846,1,1.7503128051757812,None,,,,,,,,,,,,,,,,,,61,3,2025-02-19_16h52.07.900,comp,2024.2.4,60.097375336357565,2025-02-19 16h52.21.961855 -0500,
112,112,0,filler_random,None,None,None,None,None,None,None,None,None,None,3,2.7838826179504395,None,,,,,0,0,0,0,0,112,112,142,351.82917046546936,,,,,,,,,,,,,,,,,,,,,,,,,,,,,,,,,,,,,,,,,,,,,,,,,,,,,,,,,,,,,,,,,,,,,,,,,,,,,,,,,181.26376605673252,169.12179818256246,131.2351134169608,85.35384786377267,130.10987127480473,164.27399779844035,1.0,1.1,-703,282,-480,265,-259,268,351.81463646888733,351.8146781921387,351.8168125152588,351.82917046546936,351.9797739982605,351.9797739982605,351.9797739982605,351.9797739982605,351.9797739982605,351.9797739982605,351.9797739982605,354.6306092739105,3,2.7838826179504395,None,,,,,,,,,,,,,,,,,,61,3,2025-02-19_16h52.07.900,comp,2024.2.4,60.097375336357565,2025-02-19 16h52.21.961855 -0500,
113,113,0,critical,dwh,20.0,2.1,upper,141.0,141.0,125.0,200.0,200.0,125.0,2,1.701906442642212,None,,,,,0,0,0,0,0,113,113,7,354.64592242240906,,,,,,,,,,,,,,,,,,,,,,,,,,,,,,,,,,,,,,,,,,,,,,,,,,,,,,,,,,,,,,,,,,,,,,,,,,,,,,,,,141.0,141.0,125.0,200.0,200.0,125.0,2.1,2.11,-266,269,0,280,258,-289,354.6314322948456,354.6314754486084,354.6339738368988,354.64592242240906,354.7961537837982,354.7961537837982,354.7961537837982,354.7961537837982,354.7961537837982,354.7961537837982,354.7961537837982,356.3639585971832,2,1.701906442642212,None,,,,,,,,,,,,,,,,,,61,3,2025-02-19_16h52.07.900,comp,2024.2.4,60.097375336357565,2025-02-19 16h52.21.961855 -0500,
114,114,0,critical,hwd,20.0,4.0,lower,133.0,57.0,57.0,133.0,78.0,78.0,2,3.8831839561462402,None,,,,,0,0,0,0,0,114,114,106,356.3790965080261,,,,,,,,,,,,,,,,,,,,,,,,,,,,,,,,,,,,,,,,,,,,,,,,,,,,,,,,,,,,,,,,,,,,,,,,,,,,,,,,,133.0,57.0,57.0,133.0,78.0,78.0,4.0,4.2,-191,-18,0,-269,202,17,356.3647463321686,356.3647873401642,356.3672332763672,356.3790965080261,356.52923130989075,356.52923130989075,356.52923130989075,356.52923130989075,356.52923130989075,356.52923130989075,356.52923130989075,360.28035950660706,2,3.8831839561462402,None,,,,,,,,,,,,,,,,,,61,3,2025-02-19_16h52.07.900,comp,2024.2.4,60.097375336357565,2025-02-19 16h52.21.961855 -0500,
115,115,0,critical,dwh,35.0,4.0,lower,70.0,70.0,57.0,133.0,133.0,57.0,2,1.485426902770996,None,,,,,0,0,0,0,0,115,115,64,360.29571866989136,,,,,,,,,,,,,,,,,,,,,,,,,,,,,,,,,,,,,,,,,,,,,,,,,,,,,,,,,,,,,,,,,,,,,,,,,,,,,,,,,70.0,70.0,57.0,133.0,133.0,57.0,4.0,4.1,-198,-269,0,19,191,-273,360.2811789512634,360.2812201976776,360.28371119499207,360.29571866989136,360.4460783004761,360.4460783004761,360.4460783004761,360.4460783004761,360.4460783004761,360.4460783004761,360.4460783004761,361.79708790779114,2,1.485426902770996,None,,,,,,,,,,,,,,,,,,61,3,2025-02-19_16h52.07.900,comp,2024.2.4,60.097375336357565,2025-02-19 16h52.21.961855 -0500,
116,116,0,filler_random,None,None,None,None,None,None,None,None,None,None,3,1.233557939529419,None,,,,,0,0,0,0,0,116,116,153,361.8124761581421,,,,,,,,,,,,,,,,,,,,,,,,,,,,,,,,,,,,,,,,,,,,,,,,,,,,,,,,,,,,,,,,,,,,,,,,,,,,,,,,,83.21355092231119,165.97606576640982,128.28762483023257,76.55060499273836,177.3402125443949,103.24506526589848,2.1,2.11,-217,277,0,274,186,-276,361.79802942276,361.79807138442993,361.80023169517517,361.8124761581421,361.9629285335541,361.9629285335541,361.9629285335541,361.9629285335541,361.9629285335541,361.9629285335541,361.9629285335541,363.06366062164307,3,1.233557939529419,None,,,,,,,,,,,,,,,,,,61,3,2025-02-19_16h52.07.900,comp,2024.2.4,60.097375336357565,2025-02-19 16h52.21.961855 -0500,
117,117,0,catch,None,None,None,None,None,None,None,None,None,None,2,0.9669885635375977,None,,,,,0,0,0,0,0,117,117,125,363.07905197143555,,,,,,,,,,,,,,,,,,,,,,,,,,,,,,,,,,,,,,,,,,,,,,,,,,,,,,,,,,,,,,,,,,,,,,,,,,,,,,,,,67,123,148,177,113,77,1.0,1.1,-726,278,-480,260,-257,290,363.0647428035736,363.0647852420807,363.0674030780792,363.07905197143555,363.2292766571045,363.2292766571045,363.2292766571045,363.2292766571045,363.2292766571045,363.2292766571045,363.2292766571045,364.0637288093567,2,0.9669885635375977,None,,,,,,,,,,,,,,,,,,61,3,2025-02-19_16h52.07.900,comp,2024.2.4,60.097375336357565,2025-02-19 16h52.21.961855 -0500,
118,118,0,critical,hdw,35.0,2.1,lower,133.0,57.0,70.0,70.0,57.0,133.0,1,1.6306297779083252,None,,,,,0,0,0,0,0,118,118,44,364.07923316955566,,,,,,,,,,,,,,,,,,,,,,,,,,,,,,,,,,,,,,,,,,,,,,,,,,,,,,,,,,,,,,,,,,,,,,,,,,,,,,,,,133.0,57.0,70.0,70.0,57.0,133.0,2.1,2.11,-160,266,0,284,198,-279,364.06454634666443,364.06458735466003,364.06787753105164,364.07923316955566,364.22908759117126,364.22908759117126,364.22908759117126,364.22908759117126,364.22908759117126,364.22908759117126,364.22908759117126,365.713826417923,1,1.6306297779083252,None,,,,,,,,,,,,,,,,,,61,3,2025-02-19_16h52.07.900,comp,2024.2.4,60.097375336357565,2025-02-19 16h52.21.961855 -0500,
119,119,0,critical,wdh,20.0,2.1,upper,125.0,200.0,141.0,141.0,200.0,125.0,3,1.3650474548339844,None,,,,,0,0,0,0,0,119,119,35,365.7293179035187,,,,,,,,,,,,,,,,,,,,,,,,,,,,,,,,,,,,,,,,,,,,,,,,,,,,,,,,,,,,,,,,,,,,,,,,,,,,,,,,,125.0,200.0,141.0,141.0,200.0,125.0,2.1,2.12,-266,-277,0,-288,229,272,365.71466517448425,365.7147078514099,365.7172291278839,365.7293179035187,365.8792884349823,365.8792884349823,365.8792884349823,365.8792884349823,365.8792884349823,365.8792884349823,365.8792884349823,367.0974590778351,3,1.3650474548339844,None,,,,,,,,,,,,,,,,,,61,3,2025-02-19_16h52.07.900,comp,2024.2.4,60.097375336357565,2025-02-19 16h52.21.961855 -0500,
120,120,0,critical,dhw,35.0,4.0,lower,70.0,70.0,133.0,57.0,57.0,133.0,2,3.339101791381836,None,,,,,0,0,0,0,0,120,120,52,367.11264872550964,,,,,,,,,,,,,,,,,,,,,,,,,,,,,,,,,,,,,,,,,,,,,,,,,,,,,,,,,,,,,,,,,,,,,,,,,,,,,,,,,70.0,70.0,133.0,57.0,57.0,133.0,4.0,4.2,-160,-18,0,-267,191,3,367.09840631484985,367.0984492301941,367.1009657382965,367.11264872550964,367.2624976634979,367.2624976634979,367.2624976634979,367.2624976634979,367.2624976634979,367.2624976634979,367.2624976634979,370.4636981487274,2,3.339101791381836,None,,,,,,,,,,,,,,,,,,61,3,2025-02-19_16h52.07.900,comp,2024.2.4,60.097375336357565,2025-02-19 16h52.21.961855 -0500,
121,121,0,filler_random,None,None,None,None,None,None,None,None,None,None,1,2.204756259918213,None,,,,,0,0,0,0,0,121,121,132,370.4790413379669,,,,,,,,,,,,,,,,,,,,,,,,,,,,,,,,,,,,,,,,,,,,,,,,,,,,,,,,,,,,,,,,,,,,,,,,,,,,,,,,,101.1947054796911,187.11204652035534,68.20114156777785,146.25590422394743,175.19012055024865,96.6284155342064,2.1,2.11,-263,289,0,267,217,-273,370.4646186828613,370.46466183662415,370.46745777130127,370.4790413379669,370.6291732788086,370.6291732788086,370.6291732788086,370.6291732788086,370.6291732788086,370.6291732788086,370.6291732788086,372.6969714164734,1,2.204756259918213,None,,,,,,,,,,,,,,,,,,61,3,2025-02-19_16h52.07.900,comp,2024.2.4,60.097375336357565,2025-02-19 16h52.21.961855 -0500,
122,122,0,filler_random,None,None,None,None,None,None,None,None,None,None,2,1.4442758560180664,None,,,,,0,0,0,0,0,122,122,154,372.7123692035675,,,,,,,,,,,,,,,,,,,,,,,,,,,,,,,,,,,,,,,,,,,,,,,,,,,,,,,,,,,,,,,,,,,,,,,,,,,,,,,,,158.0250192358717,81.95585467742367,130.0794446818671,190.75441169770718,117.35720768994008,158.35339428369767,1.0,1.3,248,-282,480,-282,751,-254,372.69787764549255,372.6979203224182,372.70129132270813,372.7123692035675,372.8630721569061,372.8630721569061,372.8630721569061,372.8630721569061,372.8630721569061,372.8630721569061,372.8630721569061,374.16389060020447,2,1.4442758560180664,None,,,,,,,,,,,,,,,,,,61,3,2025-02-19_16h52.07.900,comp,2024.2.4,60.097375336357565,2025-02-19 16h52.21.961855 -0500,
123,123,0,critical,hdw,20.0,2.1,upper,200.0,125.0,141.0,141.0,125.0,200.0,3,0.9932856559753418,None,,,,,0,0,0,0,0,123,123,23,374.1793463230133,,,,,,,,,,,,,,,,,,,,,,,,,,,,,,,,,,,,,,,,,,,,,,,,,,,,,,,,,,,,,,,,,,,,,,,,,,,,,,,,,200.0,125.0,141.0,141.0,125.0,200.0,2.1,2.12,-229,-255,0,-288,266,266,374.16469836235046,374.1647424697876,374.16727900505066,374.1793463230133,374.32939314842224,374.32939314842224,374.32939314842224,374.32939314842224,374.32939314842224,374.32939314842224,374.32939314842224,375.1804127693176,3,0.9932856559753418,None,,,,,,,,,,,,,,,,,,61,3,2025-02-19_16h52.07.900,comp,2024.2.4,60.097375336357565,2025-02-19 16h52.21.961855 -0500,
124,124,0,critical,whd,20.0,4.0,upper,125.0,200.0,200.0,125.0,141.0,141.0,2,2.1360104084014893,None,,,,,0,0,0,0,0,124,124,95,375.19577169418335,,,,,,,,,,,,,,,,,,,,,,,,,,,,,,,,,,,,,,,,,,,,,,,,,,,,,,,,,,,,,,,,,,,,,,,,,,,,,,,,,125.0,200.0,200.0,125.0,141.0,141.0,4.0,4.2,-258,-4,0,-259,229,-16,375.18124532699585,375.18128776550293,375.1837134361267,375.19577169418335,375.3458752632141,375.3458752632141,375.3458752632141,375.3458752632141,375.3458752632141,375.3458752632141,375.3458752632141,377.3470423221588,2,2.1360104084014893,None,,,,,,,,,,,,,,,,,,61,3,2025-02-19_16h52.07.900,comp,2024.2.4,60.097375336357565,2025-02-19 16h52.21.961855 -0500,
125,125,0,critical,whd,35.0,2.1,upper,125.0,200.0,200.0,125.0,127.0,127.0,1,1.6584150791168213,None,,,,,0,0,0,0,0,125,125,13,377.362229347229,,,,,,,,,,,,,,,,,,,,,,,,,,,,,,,,,,,,,,,,,,,,,,,,,,,,,,,,,,,,,,,,,,,,,,,,,,,,,,,,,125.0,200.0,200.0,125.0,127.0,127.0,2.1,2.12,-258,-286,0,-262,222,276,377.3478717803955,377.3479154109955,377.35123920440674,377.362229347229,377.51266050338745,377.51266050338745,377.51266050338745,377.51266050338745,377.51266050338745,377.51266050338745,377.51266050338745,379.0306718349457,1,1.6584150791168213,None,,,,,,,,,,,,,,,,,,61,3,2025-02-19_16h52.07.900,comp,2024.2.4,60.097375336357565,2025-02-19 16h52.21.961855 -0500,
126,126,0,critical,wdh,35.0,4.0,upper,125.0,200.0,127.0,127.0,200.0,125.0,1,1.9840552806854248,None,,,,,0,0,0,0,0,126,126,77,379.0458905696869,,,,,,,,,,,,,,,,,,,,,,,,,,,,,,,,,,,,,,,,,,,,,,,,,,,,,,,,,,,,,,,,,,,,,,,,,,,,,,,,,125.0,200.0,127.0,127.0,200.0,125.0,4.0,4.2,-260,-16,0,-281,222,11,379.03147554397583,379.0315172672272,379.03399181365967,379.0458905696869,379.1958968639374,379.1958968639374,379.1958968639374,379.1958968639374,379.1958968639374,379.1958968639374,379.1958968639374,381.0470185279846,1,1.9840552806854248,None,,,,,,,,,,,,,,,,,,61,3,2025-02-19_16h52.07.900,comp,2024.2.4,60.097375336357565,2025-02-19 16h52.21.961855 -0500,
127,127,0,filler_random,None,None,None,None,None,None,None,None,None,None,1,1.9671876430511475,None,,,,,0,0,0,0,0,127,127,151,381.0622205734253,,,,,,,,,,,,,,,,,,,,,,,,,,,,,,,,,,,,,,,,,,,,,,,,,,,,,,,,,,,,,,,,,,,,,,,,,,,,,,,,,138.54150578232134,166.12899972930344,141.648660498601,78.32175813516292,131.34421751276318,87.74970758016207,1.0,1.1,-698,254,-480,254,-301,280,381.04790902137756,381.0479648113251,381.0502564907074,381.0622205734253,381.212655544281,381.212655544281,381.212655544281,381.212655544281,381.212655544281,381.212655544281,381.212655544281,383.046950340271,1,1.9671876430511475,None,,,,,,,,,,,,,,,,,,61,3,2025-02-19_16h52.07.900,comp,2024.2.4,60.097375336357565,2025-02-19 16h52.21.961855 -0500,
128,128,0,critical,wdh,20.0,2.1,upper,125.0,200.0,141.0,141.0,200.0,125.0,1,2.06942081451416,None,,,,,0,0,0,0,0,128,128,11,383.06232166290283,,,,,,,,,,,,,,,,,,,,,,,,,,,,,,,,,,,,,,,,,,,,,,,,,,,,,,,,,,,,,,,,,,,,,,,,,,,,,,,,,125.0,200.0,141.0,141.0,200.0,125.0,2.1,2.11,-266,260,0,269,229,-263,383.0477526187897,383.0477936267853,383.05113530158997,383.06232166290283,383.21261644363403,383.21261644363403,383.21261644363403,383.21261644363403,383.21261644363403,383.21261644363403,383.21261644363403,385.14709877967834,1,2.06942081451416,None,,,,,,,,,,,,,,,,,,61,3,2025-02-19_16h52.07.900,comp,2024.2.4,60.097375336357565,2025-02-19 16h52.21.961855 -0500,
129,129,0,filler_square,None,None,None,None,None,None,None,None,None,None,2,1.0177650451660156,None,,,,,0,0,0,0,0,129,129,178,385.1622552871704,,,,,,,,,,,,,,,,,,,,,,,,,,,,,,,,,,,,,,,,,,,,,,,,,,,,,,,,,,,,,,,,,,,,,,,,,,,,,,,,,86.81550897672024,94.20055199306069,114.32176460777099,114.32176460777099,83.57148008495255,99.58704552112548,1.0,1.3,280,-273,480,-259,683,-281,385.1480984687805,385.1481397151947,385.1502661705017,385.1622552871704,385.3124301433563,385.3124301433563,385.3124301433563,385.3124301433563,385.3124301433563,385.3124301433563,385.3124301433563,386.19676423072815,2,1.0177650451660156,None,,,,,,,,,,,,,,,,,,61,3,2025-02-19_16h52.07.900,comp,2024.2.4,60.097375336357565,2025-02-19 16h52.21.961855 -0500,
130,130,0,critical,dhw,35.0,1.0,upper,127.0,127.0,200.0,125.0,125.0,200.0,2,2.081601142883301,None,,,,,0,0,0,0,0,130,130,49,386.2122347354889,,,,,,,,,,,,,,,,,,,,,,,,,,,,,,,,,,,,,,,,,,,,,,,,,,,,,,,,,,,,,,,,,,,,,,,,,,,,,,,,,127.0,127.0,200.0,125.0,125.0,200.0,1.0,1.2,-222,4,0,11,258,1,386.19754910469055,386.19759035110474,386.1997654438019,386.2122347354889,386.36289858818054,386.36289858818054,386.36289858818054,386.36289858818054,386.36289858818054,386.36289858818054,386.36289858818054,388.2970733642578,2,2.081601142883301,None,,,,,,,,,,,,,,,,,,61,3,2025-02-19_16h52.07.900,comp,2024.2.4,60.097375336357565,2025-02-19 16h52.21.961855 -0500,
131,131,0,catch,None,None,None,None,None,None,None,None,None,None,3,1.0031731128692627,None,,,,,0,0,0,0,0,131,131,126,388.3125145435333,,,,,,,,,,,,,,,,,,,,,,,,,,,,,,,,,,,,,,,,,,,,,,,,,,,,,,,,,,,,,,,,,,,,,,,,,,,,,,,,,58,132,84,106,193,132,4.0,4.1,-215,-266,0,-9,215,-282,388.29812479019165,388.29816818237305,388.30039739608765,388.3125145435333,388.46240305900574,388.46240305900574,388.46240305900574,388.46240305900574,388.46240305900574,388.46240305900574,388.46240305900574,389.330233335495,3,1.0031731128692627,None,,,,,,,,,,,,,,,,,,61,3,2025-02-19_16h52.07.900,comp,2024.2.4,60.097375336357565,2025-02-19 16h52.21.961855 -0500,
132,132,0,filler_square,None,None,None,None,None,None,None,None,None,None,1,1.9787755012512207,None,,,,,0,0,0,0,0,132,132,181,389.3457431793213,,,,,,,,,,,,,,,,,,,,,,,,,,,,,,,,,,,,,,,,,,,,,,,,,,,,,,,,,,,,,,,,,,,,,,,,,,,,,,,,,80.5745007052889,80.5745007052889,60.229513729744205,77.5039930149911,59.170911922953444,66.06166437981258,4.0,4.2,-175,3,0,-258,168,11,389.33119320869446,389.33123660087585,389.33464312553406,389.3457431793213,389.49563908576965,389.49563908576965,389.49563908576965,389.49563908576965,389.49563908576965,389.49563908576965,389.49563908576965,391.3301410675049,1,1.9787755012512207,None,,,,,,,,,,,,,,,,,,61,3,2025-02-19_16h52.07.900,comp,2024.2.4,60.097375336357565,2025-02-19 16h52.21.961855 -0500,
133,133,0,critical,whd,35.0,1.0,lower,57.0,133.0,133.0,57.0,70.0,70.0,2,1.7057642936706543,None,,,,,0,0,0,0,0,133,133,84,391.34573221206665,,,,,,,,,,,,,,,,,,,,,,,,,,,,,,,,,,,,,,,,,,,,,,,,,,,,,,,,,,,,,,,,,,,,,,,,,,,,,,,,,57.0,133.0,133.0,57.0,70.0,70.0,1.0,1.1,-671,253,-480,285,-320,269,391.3309190273285,391.3309760093689,391.3334093093872,391.34573221206665,391.4957857131958,391.4957857131958,391.4957857131958,391.4957857131958,391.4957857131958,391.4957857131958,391.4957857131958,393.06385040283203,2,1.7057642936706543,None,,,,,,,,,,,,,,,,,,61,3,2025-02-19_16h52.07.900,comp,2024.2.4,60.097375336357565,2025-02-19 16h52.21.961855 -0500,
134,134,0,critical,whd,20.0,1.0,upper,125.0,200.0,200.0,125.0,141.0,141.0,2,1.0933496952056885,None,,,,,0,0,0,0,0,134,134,91,393.0790984630585,,,,,,,,,,,,,,,,,,,,,,,,,,,,,,,,,,,,,,,,,,,,,,,,,,,,,,,,,,,,,,,,,,,,,,,,,,,,,,,,,125.0,200.0,200.0,125.0,141.0,141.0,1.0,1.1,-738,286,-480,270,-251,279,393.0646595954895,393.06469988822937,393.06802797317505,393.0790984630585,393.22913670539856,393.22913670539856,393.22913670539856,393.22913670539856,393.22913670539856,393.22913670539856,393.22913670539856,394.1802477836609,2,1.0933496952056885,None,,,,,,,,,,,,,,,,,,61,3,2025-02-19_16h52.07.900,comp,2024.2.4,60.097375336357565,2025-02-19 16h52.21.961855 -0500,
135,135,0,critical,whd,20.0,1.0,lower,57.0,133.0,133.0,57.0,78.0,78.0,1,1.583681583404541,None,,,,,0,0,0,0,0,135,135,90,394.1959557533264,,,,,,,,,,,,,,,,,,,,,,,,,,,,,,,,,,,,,,,,,,,,,,,,,,,,,,,,,,,,,,,,,,,,,,,,,,,,,,,,,57.0,133.0,133.0,57.0,78.0,78.0,1.0,1.1,-671,267,-480,277,-316,256,394.18104696273804,394.18108797073364,394.18322801589966,394.1959557533264,394.3455662727356,394.3455662727356,394.3455662727356,394.3455662727356,394.3455662727356,394.3455662727356,394.3455662727356,395.79665875434875,1,1.583681583404541,None,,,,,,,,,,,,,,,,,,61,3,2025-02-19_16h52.07.900,comp,2024.2.4,60.097375336357565,2025-02-19 16h52.21.961855 -0500,
136,136,0,critical,hwd,35.0,2.1,upper,200.0,125.0,125.0,200.0,127.0,127.0,1,0.8714401721954346,None,,,,,0,0,0,0,0,136,136,41,395.8121371269226,,,,,,,,,,,,,,,,,,,,,,,,,,,,,,,,,,,,,,,,,,,,,,,,,,,,,,,,,,,,,,,,,,,,,,,,,,,,,,,,,200.0,125.0,125.0,200.0,127.0,127.0,2.1,2.11,-258,275,0,289,260,-254,395.79745960235596,395.79750061035156,395.800080537796,395.8121371269226,395.96242570877075,395.96242570877075,395.96242570877075,395.96242570877075,395.96242570877075,395.96242570877075,395.96242570877075,396.6968162059784,1,0.8714401721954346,None,,,,,,,,,,,,,,,,,,61,3,2025-02-19_16h52.07.900,comp,2024.2.4,60.097375336357565,2025-02-19 16h52.21.961855 -0500,
137,137,0,filler_square,None,None,None,None,None,None,None,None,None,None,2,2.0034608840942383,None,,,,,0,0,0,0,0,137,137,189,396.71219062805176,,,,,,,,,,,,,,,,,,,,,,,,,,,,,,,,,,,,,,,,,,,,,,,,,,,,,,,,,,,,,,,,,,,,,,,,,,,,,,,,,107.9823433510349,115.61759827268364,142.4377938258101,142.4377938258101,77.76668543259302,124.81829662459263,4.0,4.2,-225,10,0,-288,230,9,396.6978163719177,396.6978597640991,396.7004976272583,396.71219062805176,396.8624014854431,396.8624014854431,396.8624014854431,396.8624014854431,396.8624014854431,396.8624014854431,396.8624014854431,398.7300753593445,2,2.0034608840942383,None,,,,,,,,,,,,,,,,,,61,3,2025-02-19_16h52.07.900,comp,2024.2.4,60.097375336357565,2025-02-19 16h52.21.961855 -0500,
138,138,0,critical,dwh,20.0,1.0,lower,78.0,78.0,57.0,133.0,133.0,57.0,3,1.2836639881134033,None,,,,,0,0,0,0,0,138,138,66,398.74542212486267,,,,,,,,,,,,,,,,,,,,,,,,,,,,,,,,,,,,,,,,,,,,,,,,,,,,,,,,,,,,,,,,,,,,,,,,,,,,,,,,,78.0,78.0,57.0,133.0,133.0,57.0,1.0,1.1,-682,273,-480,268,-289,272,398.73084902763367,398.7308886051178,398.7329783439636,398.74542212486267,398.8955936431885,398.8955936431885,398.8955936431885,398.8955936431885,398.8955936431885,398.8955936431885,398.8955936431885,400.0466585159302,3,1.2836639881134033,None,,,,,,,,,,,,,,,,,,61,3,2025-02-19_16h52.07.900,comp,2024.2.4,60.097375336357565,2025-02-19 16h52.21.961855 -0500,
139,139,0,critical,hwd,35.0,3.0,lower,133.0,57.0,57.0,133.0,70.0,70.0,2,1.8318581581115723,None,,,,,0,0,0,0,0,139,139,98,400.06211256980896,,,,,,,,,,,,,,,,,,,,,,,,,,,,,,,,,,,,,,,,,,,,,,,,,,,,,,,,,,,,,,,,,,,,,,,,,,,,,,,,,133.0,57.0,57.0,133.0,70.0,70.0,3.0,3.2,-191,-250,0,6,198,260,400.04744720458984,400.0474877357483,400.05006980895996,400.06211256980896,400.2123408317566,400.2123408317566,400.2123408317566,400.2123408317566,400.2123408317566,400.2123408317566,400.2123408317566,401.89688181877136,2,1.8318581581115723,None,,,,,,,,,,,,,,,,,,61,3,2025-02-19_16h52.07.900,comp,2024.2.4,60.097375336357565,2025-02-19 16h52.21.961855 -0500,
140,140,0,critical,wdh,35.0,3.0,lower,57.0,133.0,70.0,70.0,133.0,57.0,1,2.7332966327667236,None,,,,,0,0,0,0,0,140,140,74,401.9123899936676,,,,,,,,,,,,,,,,,,,,,,,,,,,,,,,,,,,,,,,,,,,,,,,,,,,,,,,,,,,,,,,,,,,,,,,,,,,,,,,,,57.0,133.0,70.0,70.0,133.0,57.0,3.0,3.1,-198,259,0,-18,160,-264,401.89769101142883,401.897732257843,401.9000868797302,401.9123899936676,402.06227350234985,402.06227350234985,402.06227350234985,402.06227350234985,402.06227350234985,402.06227350234985,402.06227350234985,404.6469805240631,1,2.7332966327667236,None,,,,,,,,,,,,,,,,,,61,3,2025-02-19_16h52.07.900,comp,2024.2.4,60.097375336357565,2025-02-19 16h52.21.961855 -0500,
