thisN,thisTrialN,thisRepN,effect,order,distance,config,diag,h_1,w_1,h_2,w_2,h_3,w_3,rect_choice.keys,rect_choice.rt,rect_choice.duration,instructions_loop.thisRepN,instructions_loop.thisTrialN,instructions_loop.thisN,instructions_loop.thisIndex,blocks.thisRepN,blocks.thisTrialN,blocks.thisN,blocks.thisIndex,trials.thisRepN,trials.thisTrialN,trials.thisN,trials.thisIndex,thisRow.t,notes,consent.started,agree_button.started,decline_button.started,consent_img.started,mouse.started,consent.stopped,agree_button.numClicks,agree_button.timesOn,agree_button.timesOff,decline_button.numClicks,decline_button.timesOn,decline_button.timesOff,mouse.x,mouse.y,mouse.leftButton,mouse.midButton,mouse.rightButton,mouse.time,mouse.clicked_name,exp_params.started,exp_params.stopped,welcome.started,welcome_text.started,welcome.stopped,instructions_1.started,instructions_1_text_1.started,instructions_1_text_2.started,key_resp.started,instructions_1.stopped,instructions_loop.key_resp.keys,instructions_loop.key_resp.rt,instructions_loop.key_resp.duration,instructions_2.started,instructions_2_text_1.started,instructions_2_text_2.started,key_resp_2.started,instructions_2.stopped,instructions_loop.key_resp_2.keys,instructions_loop.key_resp_2.rt,instructions_loop.key_resp_2.duration,instructions_3.started,instructions_3_text_1.started,r1_instr3.started,r2_instr3.started,r3_instr3.started,r1_instr3_label.started,r2_instr3_label.started,r3_instr3_label.started,instructions_3_text_3.started,instructions_3_text_4.started,key_resp_3.started,instructions_3.stopped,instructions_loop.key_resp_3.keys,instructions_loop.key_resp_3.rt,instructions_loop.key_resp_3.duration,instructions_4.started,instructions_4_text_1.started,instructions_4_text_3.started,instructions_4_text_2.started,key_resp_4.started,instructions_4.stopped,instructions_loop.key_resp_4.keys,instructions_loop.key_resp_4.rt,instructions_loop.key_resp_4.duration,instructions_5.started,instructions_5_text_1.started,instructions_5_text_2.started,key_resp_5.started,instructions_5.stopped,instructions_loop.key_resp_5.keys,instructions_loop.key_resp_5.rt,instructions_loop.key_resp_5.duration,start_exp.started,start_exp_text.started,key_resp_6.started,start_exp.stopped,key_resp_6.keys,key_resp_6.rt,key_resp_6.duration,h_1_tmp,w_1_tmp,h_2_tmp,w_2_tmp,h_3_tmp,w_3_tmp,config_tmp,config_tmp_1,r_1_x,r_1_y,r_2_x,r_2_y,r_3_x,r_3_y,pre_trial.started,pre_trial.stopped,choice_trial.started,rect_choice.started,r_1.started,r_2.started,r_3.started,r_1_label.started,r_2_label.started,r_3_label.started,prompt.started,choice_trial.stopped,trials.rect_choice.keys,trials.rect_choice.rt,trials.rect_choice.duration,end_block.started,end_block_text.started,end_block.stopped,end.started,end_text.started,key_resp_7.started,end.stopped,key_resp_7.keys,key_resp_7.rt,key_resp_7.duration,debriefing.started,debrief_form.started,end_debrief.started,debriefing.stopped,end_debrief.keys,end_debrief.rt,end_debrief.duration,participant,computer,date,expName,psychopyVersion,frameRate,expStart,
,,,,,,,,,,,,,,,,,,,,,,,,,,,,,,,0.014925003051757812,0.037043094635009766,0.037043094635009766,0.037043094635009766,0.014687776565551758,74.48619484901428,1,[74.44622778892517],[74.44625234603882],0,,,[-55.0],[-495.0],[1],[0],[0],[74.47062802314758],['agree_button'],,,,,,,,,,,,,,,,,,,,,,,,,,,,,,,,,,,,,,,,,,,,,,,,,,,,,,,,,,,,,,,,,,,,,,,,,,,,,,,,,,,,,,,,,,,,,,,,,,,,,,,,,,,62,4,2025-02-19_16h53.20.110,comp,2024.2.4,57.47802933441867,2025-02-19 16h53.33.158907 -0500,
,,,,,,,,,,,,,,,,,,,,,,,,,,,,,,,,,,,,,,,,,,,,,,,,,,74.48684024810791,74.48690891265869,,,,,,,,,,,,,,,,,,,,,,,,,,,,,,,,,,,,,,,,,,,,,,,,,,,,,,,,,,,,,,,,,,,,,,,,,,,,,,,,,,,,,,,,,,,,,,,,,,,,,,,,,62,4,2025-02-19_16h53.20.110,comp,2024.2.4,57.47802933441867,2025-02-19 16h53.33.158907 -0500,
,,,,,,,,,,,,,,,,,,,,,,,,,,,,,,,,,,,,,,,,,,,,,,,,,,,,74.48695397377014,74.5080144405365,76.5034019947052,,,,,,,,,,,,,,,,,,,,,,,,,,,,,,,,,,,,,,,,,,,,,,,,,,,,,,,,,,,,,,,,,,,,,,,,,,,,,,,,,,,,,,,,,,,,,,,,,,,,,,62,4,2025-02-19_16h53.20.110,comp,2024.2.4,57.47802933441867,2025-02-19 16h53.33.158907 -0500,
0,0,0,,,,,,,,,,,,,,,0,0,0,0,,,,,,,,,76.52390432357788,,,,,,,,,,,,,,,,,,,,,,,,,,76.50435853004456,76.52390432357788,76.52390432357788,78.00249743461609,79.65506386756897,space,1.6350371837615967,None,79.6552460193634,79.67086052894592,79.67086052894592,81.17163014411926,85.33933210372925,space,4.154001474380493,None,85.33948683738708,85.37045550346375,85.37045550346375,85.37045550346375,85.37045550346375,85.37045550346375,85.37045550346375,85.37045550346375,85.37045550346375,85.37045550346375,86.84597325325012,94.29367136955261,space,7.4314727783203125,None,94.29383420944214,94.31061315536499,94.31061315536499,94.31061315536499,95.79289555549622,100.0618109703064,space,4.2526702880859375,None,100.06196594238281,100.0778546333313,100.0778546333313,101.5826678276062,102.98193311691284,space,1.3911564350128174,None,102.9821412563324,102.99754881858826,102.99754881858826,104.3465588092804,space,1.3360505104064941,None,,,,,,,,,,,,,,,,,,,,,,,,,,,,,,,,,,,,,,,,,,,,,,,62,4,2025-02-19_16h53.20.110,comp,2024.2.4,57.47802933441867,2025-02-19 16h53.33.158907 -0500,
0,0,0,filler_square,None,None,None,None,None,None,None,None,None,None,2,2.059075117111206,None,,,,,0,0,0,0,0,0,0,205,104.42695021629333,,,,,,,,,,,,,,,,,,,,,,,,,,,,,,,,,,,,,,,,,,,,,,,,,,,,,,,,,,,,,,,,,,,,,,,,,,,,,,,,,151.5920486002692,61.757863426950294,164.71642922275305,164.71642922275305,99.2013329554769,90.4291744191253,2.1,2.11,-209,268,0,258,224,-273,104.4105966091156,104.4106376171112,104.41216921806335,104.42695021629333,104.57165861129761,104.57165861129761,104.57165861129761,104.57165861129761,104.57165861129761,104.57165861129761,104.57165861129761,106.488116979599,2,2.059075117111206,None,,,,,,,,,,,,,,,,,,62,4,2025-02-19_16h53.20.110,comp,2024.2.4,57.47802933441867,2025-02-19 16h53.33.158907 -0500,
1,1,0,filler_square,None,None,None,None,None,None,None,None,None,None,2,2.305213451385498,None,,,,,0,0,0,0,0,1,1,185,106.50822138786316,,,,,,,,,,,,,,,,,,,,,,,,,,,,,,,,,,,,,,,,,,,,,,,,,,,,,,,,,,,,,,,,,,,,,,,,,,,,,,,,,95.78209621862575,67.8028995310183,112.99983450181753,112.99983450181753,81.5311572881337,63.468450300521404,2.1,2.11,-186,253,0,251,184,-280,106.48998403549194,106.49006390571594,106.49293804168701,106.50822138786316,106.648428440094,106.648428440094,106.648428440094,106.648428440094,106.648428440094,106.648428440094,106.648428440094,108.83101201057434,2,2.305213451385498,None,,,,,,,,,,,,,,,,,,62,4,2025-02-19_16h53.20.110,comp,2024.2.4,57.47802933441867,2025-02-19 16h53.33.158907 -0500,
2,2,0,filler_square,None,None,None,None,None,None,None,None,None,None,3,3.199418067932129,None,,,,,0,0,0,0,0,2,2,180,108.84698271751404,,,,,,,,,,,,,,,,,,,,,,,,,,,,,,,,,,,,,,,,,,,,,,,,,,,,,,,,,,,,,,,,,,,,,,,,,,,,,,,,,109.82998928509113,130.39245591239438,138.39425219281634,144.22528026989482,144.96179423953706,144.96179423953706,3.0,3.1,-233,277,0,6,241,-258,108.83258962631226,108.83261966705322,108.83378553390503,108.84698271751404,108.99495506286621,108.99495506286621,108.99495506286621,108.99495506286621,108.99495506286621,108.99495506286621,108.99495506286621,112.04946780204773,3,3.199418067932129,None,,,,,,,,,,,,,,,,,,62,4,2025-02-19_16h53.20.110,comp,2024.2.4,57.47802933441867,2025-02-19 16h53.33.158907 -0500,
3,3,0,filler_random,None,None,None,None,None,None,None,None,None,None,1,2.757260322570801,None,,,,,0,0,0,0,0,3,3,144,112.06571865081787,,,,,,,,,,,,,,,,,,,,,,,,,,,,,,,,,,,,,,,,,,,,,,,,,,,,,,,,,,,,,,,,,,,,,,,,,,,,,,,,,131.0182306594701,126.5571742400019,158.74994200530898,63.94451292127553,140.63777850477237,95.81689097281316,2.1,2.11,-191,282,0,250,176,-276,112.05128598213196,112.05140852928162,112.05486464500427,112.06571865081787,112.21592092514038,112.21592092514038,112.21592092514038,112.21592092514038,112.21592092514038,112.21592092514038,112.21592092514038,114.84062576293945,1,2.757260322570801,None,,,,,,,,,,,,,,,,,,62,4,2025-02-19_16h53.20.110,comp,2024.2.4,57.47802933441867,2025-02-19 16h53.33.158907 -0500,
4,4,0,catch,None,None,None,None,None,None,None,None,None,None,2,1.6443672180175781,None,,,,,0,0,0,0,0,4,4,126,114.85747933387756,,,,,,,,,,,,,,,,,,,,,,,,,,,,,,,,,,,,,,,,,,,,,,,,,,,,,,,,,,,,,,,,,,,,,,,,,,,,,,,,,58,132,133,192,114,76,1.0,1.2,-258,12,0,-4,230,-12,114.84276294708252,114.84284210205078,114.84614372253418,114.85747933387756,114.9968273639679,114.9968273639679,114.9968273639679,114.9968273639679,114.9968273639679,114.9968273639679,114.9968273639679,116.50783777236938,2,1.6443672180175781,None,,,,,,,,,,,,,,,,,,62,4,2025-02-19_16h53.20.110,comp,2024.2.4,57.47802933441867,2025-02-19 16h53.33.158907 -0500,
5,5,0,critical,hwd,20.0,4.0,upper,200.0,125.0,125.0,200.0,141.0,141.0,2,6.8941991329193115,None,,,,,0,0,0,0,0,5,5,107,116.52722835540771,,,,,,,,,,,,,,,,,,,,,,,,,,,,,,,,,,,,,,,,,,,,,,,,,,,,,,,,,,,,,,,,,,,,,,,,,,,,,,,,,200.0,125.0,125.0,200.0,141.0,141.0,4.0,4.2,-258,-13,0,-280,266,18,116.50940728187561,116.50948429107666,116.51270937919617,116.52722835540771,116.66798782348633,116.66798782348633,116.66798782348633,116.66798782348633,116.66798782348633,116.66798782348633,116.66798782348633,123.43712186813354,2,6.8941991329193115,None,,,,,,,,,,,,,,,,,,62,4,2025-02-19_16h53.20.110,comp,2024.2.4,57.47802933441867,2025-02-19 16h53.33.158907 -0500,
6,6,0,filler_random,None,None,None,None,None,None,None,None,None,None,1,2.3129725456237793,None,,,,,0,0,0,0,0,6,6,166,123.45276045799255,,,,,,,,,,,,,,,,,,,,,,,,,,,,,,,,,,,,,,,,,,,,,,,,,,,,,,,,,,,,,,,,,,,,,,,,,,,,,,,,,109.06176138259306,198.6604027694269,191.44239878066233,65.01911817724496,111.42323088806921,155.59936875686643,3.0,3.1,-228,256,0,8,206,-289,123.4390721321106,123.43917846679688,123.44252514839172,123.45276045799255,123.59148478507996,123.59148478507996,123.59148478507996,123.59148478507996,123.59148478507996,123.59148478507996,123.59148478507996,125.77053499221802,1,2.3129725456237793,None,,,,,,,,,,,,,,,,,,62,4,2025-02-19_16h53.20.110,comp,2024.2.4,57.47802933441867,2025-02-19 16h53.33.158907 -0500,
7,7,0,catch,None,None,None,None,None,None,None,None,None,None,3,1.620187759399414,None,,,,,0,0,0,0,0,7,7,128,125.78539848327637,,,,,,,,,,,,,,,,,,,,,,,,,,,,,,,,,,,,,,,,,,,,,,,,,,,,,,,,,,,,,,,,,,,,,,,,,,,,,,,,,132,58,87,103,146,179,4.0,4.2,-176,-14,0,-255,237,6,125.77253580093384,125.77261805534363,125.77579069137573,125.78539848327637,125.93708896636963,125.93708896636963,125.93708896636963,125.93708896636963,125.93708896636963,125.93708896636963,125.93708896636963,127.42069005966187,3,1.620187759399414,None,,,,,,,,,,,,,,,,,,62,4,2025-02-19_16h53.20.110,comp,2024.2.4,57.47802933441867,2025-02-19 16h53.33.158907 -0500,
8,8,0,filler_random,None,None,None,None,None,None,None,None,None,None,3,1.9369523525238037,None,,,,,0,0,0,0,0,8,8,143,127.43674230575562,,,,,,,,,,,,,,,,,,,,,,,,,,,,,,,,,,,,,,,,,,,,,,,,,,,,,,,,,,,,,,,,,,,,,,,,,,,,,,,,,162.52497368439305,147.49507782696273,179.9276091296142,98.95305658301987,144.7088312340581,196.52647605634593,3.0,3.2,-219,-287,0,-3,244,287,127.422358751297,127.42243647575378,127.42645621299744,127.43674230575562,127.58848571777344,127.58848571777344,127.58848571777344,127.58848571777344,127.58848571777344,127.58848571777344,127.58848571777344,129.38668966293335,3,1.9369523525238037,None,,,,,,,,,,,,,,,,,,62,4,2025-02-19_16h53.20.110,comp,2024.2.4,57.47802933441867,2025-02-19 16h53.33.158907 -0500,
9,9,0,filler_square,None,None,None,None,None,None,None,None,None,None,2,1.8029077053070068,None,,,,,0,0,0,0,0,9,9,206,129.40272998809814,,,,,,,,,,,,,,,,,,,,,,,,,,,,,,,,,,,,,,,,,,,,,,,,,,,,,,,,,,,,,,,,,,,,,,,,,,,,,,,,,60.30826922338572,63.10689081154941,126.66627938580343,126.66627938580343,74.95089919182954,87.43507514437414,2.2,2.21,-191,-260,0,285,203,256,129.38855409622192,129.38863134384155,129.39173126220703,129.40272998809814,129.55408263206482,129.55408263206482,129.55408263206482,129.55408263206482,129.55408263206482,129.55408263206482,129.55408263206482,131.22118163108826,2,1.8029077053070068,None,,,,,,,,,,,,,,,,,,62,4,2025-02-19_16h53.20.110,comp,2024.2.4,57.47802933441867,2025-02-19 16h53.33.158907 -0500,
10,10,0,catch,None,None,None,None,None,None,None,None,None,None,1,1.6293320655822754,None,,,,,0,0,0,0,0,10,10,124,131.24062037467957,,,,,,,,,,,,,,,,,,,,,,,,,,,,,,,,,,,,,,,,,,,,,,,,,,,,,,,,,,,,,,,,,,,,,,,,,,,,,,,,,154,171,131,59,61,129,1.0,1.2,-211,0,0,4,190,-8,131.22307467460632,131.22317242622375,131.2262086868286,131.24062037467957,131.38917326927185,131.38917326927185,131.38917326927185,131.38917326927185,131.38917326927185,131.38917326927185,131.38917326927185,132.8785903453827,1,1.6293320655822754,None,,,,,,,,,,,,,,,,,,62,4,2025-02-19_16h53.20.110,comp,2024.2.4,57.47802933441867,2025-02-19 16h53.33.158907 -0500,
11,11,0,critical,dwh,20.0,2.1,upper,141.0,141.0,125.0,200.0,200.0,125.0,2,1.7327179908752441,None,,,,,0,0,0,0,0,11,11,7,132.8974621295929,,,,,,,,,,,,,,,,,,,,,,,,,,,,,,,,,,,,,,,,,,,,,,,,,,,,,,,,,,,,,,,,,,,,,,,,,,,,,,,,,141.0,141.0,125.0,200.0,200.0,125.0,2.1,2.12,-266,-270,0,-281,258,255,132.88021564483643,132.88033199310303,132.88368487358093,132.8974621295929,133.04461097717285,133.04461097717285,133.04461097717285,133.04461097717285,133.04461097717285,133.04461097717285,133.04461097717285,134.64094758033752,2,1.7327179908752441,None,,,,,,,,,,,,,,,,,,62,4,2025-02-19_16h53.20.110,comp,2024.2.4,57.47802933441867,2025-02-19 16h53.33.158907 -0500,
12,12,0,critical,dwh,20.0,3.0,lower,78.0,78.0,57.0,133.0,133.0,57.0,2,2.6794795989990234,None,,,,,0,0,0,0,0,12,12,68,134.6619837284088,,,,,,,,,,,,,,,,,,,,,,,,,,,,,,,,,,,,,,,,,,,,,,,,,,,,,,,,,,,,,,,,,,,,,,,,,,,,,,,,,78.0,78.0,57.0,133.0,133.0,57.0,3.0,3.2,-202,-289,0,-11,191,288,134.64247274398804,134.64260721206665,134.64637517929077,134.6619837284088,134.80857062339783,134.80857062339783,134.80857062339783,134.80857062339783,134.80857062339783,134.80857062339783,134.80857062339783,137.3564043045044,2,2.6794795989990234,None,,,,,,,,,,,,,,,,,,62,4,2025-02-19_16h53.20.110,comp,2024.2.4,57.47802933441867,2025-02-19 16h53.33.158907 -0500,
13,13,0,critical,dhw,20.0,2.1,upper,141.0,141.0,200.0,125.0,125.0,200.0,3,2.045332431793213,None,,,,,0,0,0,0,0,13,13,3,137.37634778022766,,,,,,,,,,,,,,,,,,,,,,,,,,,,,,,,,,,,,,,,,,,,,,,,,,,,,,,,,,,,,,,,,,,,,,,,,,,,,,,,,141.0,141.0,200.0,125.0,125.0,200.0,2.1,2.12,-229,-273,0,-270,258,275,137.3579614162445,137.35804080963135,137.36116671562195,137.37634778022766,137.52388525009155,137.52388525009155,137.52388525009155,137.52388525009155,137.52388525009155,137.52388525009155,137.52388525009155,139.42508506774902,3,2.045332431793213,None,,,,,,,,,,,,,,,,,,62,4,2025-02-19_16h53.20.110,comp,2024.2.4,57.47802933441867,2025-02-19 16h53.33.158907 -0500,
14,14,0,critical,whd,20.0,4.0,upper,125.0,200.0,200.0,125.0,141.0,141.0,1,2.0510051250457764,None,,,,,0,0,0,0,0,14,14,95,139.443097114563,,,,,,,,,,,,,,,,,,,,,,,,,,,,,,,,,,,,,,,,,,,,,,,,,,,,,,,,,,,,,,,,,,,,,,,,,,,,,,,,,125.0,200.0,200.0,125.0,141.0,141.0,4.0,4.1,-258,-261,0,0,229,-290,139.4266083240509,139.4266872406006,139.42994022369385,139.443097114563,139.59056210517883,139.59056210517883,139.59056210517883,139.59056210517883,139.59056210517883,139.59056210517883,139.59056210517883,141.51126146316528,1,2.0510051250457764,None,,,,,,,,,,,,,,,,,,62,4,2025-02-19_16h53.20.110,comp,2024.2.4,57.47802933441867,2025-02-19 16h53.33.158907 -0500,
15,15,0,catch,None,None,None,None,None,None,None,None,None,None,1,1.301450252532959,None,,,,,0,0,0,0,0,15,15,123,141.5280041694641,,,,,,,,,,,,,,,,,,,,,,,,,,,,,,,,,,,,,,,,,,,,,,,,,,,,,,,,,,,,,,,,,,,,,,,,,,,,,,,,,196,129,96,94,64,126,3.0,3.2,-208,-270,0,15,206,259,141.51394891738892,141.51402854919434,141.51690769195557,141.5280041694641,141.6752586364746,141.6752586364746,141.6752586364746,141.6752586364746,141.6752586364746,141.6752586364746,141.6752586364746,142.84449362754822,1,1.301450252532959,None,,,,,,,,,,,,,,,,,,62,4,2025-02-19_16h53.20.110,comp,2024.2.4,57.47802933441867,2025-02-19 16h53.33.158907 -0500,
16,16,0,critical,wdh,35.0,3.0,upper,125.0,200.0,127.0,127.0,200.0,125.0,1,1.8173069953918457,None,,,,,0,0,0,0,0,16,16,75,142.86017560958862,,,,,,,,,,,,,,,,,,,,,,,,,,,,,,,,,,,,,,,,,,,,,,,,,,,,,,,,,,,,,,,,,,,,,,,,,,,,,,,,,125.0,200.0,127.0,127.0,200.0,125.0,3.0,3.1,-260,284,0,6,222,-266,142.84611082077026,142.8462152481079,142.84947204589844,142.86017560958862,143.0111265182495,143.0111265182495,143.0111265182495,143.0111265182495,143.0111265182495,143.0111265182495,143.0111265182495,144.69461059570312,1,1.8173069953918457,None,,,,,,,,,,,,,,,,,,62,4,2025-02-19_16h53.20.110,comp,2024.2.4,57.47802933441867,2025-02-19 16h53.33.158907 -0500,
17,17,0,critical,hdw,20.0,4.0,upper,200.0,125.0,141.0,141.0,125.0,200.0,3,1.6743924617767334,None,,,,,0,0,0,0,0,17,17,119,144.71508884429932,,,,,,,,,,,,,,,,,,,,,,,,,,,,,,,,,,,,,,,,,,,,,,,,,,,,,,,,,,,,,,,,,,,,,,,,,,,,,,,,,200.0,125.0,141.0,141.0,125.0,200.0,4.0,4.2,-229,7,0,-263,266,16,144.69626688957214,144.69639348983765,144.69972157478333,144.71508884429932,144.86762356758118,144.86762356758118,144.86762356758118,144.86762356758118,144.86762356758118,144.86762356758118,144.86762356758118,146.401926279068,3,1.6743924617767334,None,,,,,,,,,,,,,,,,,,62,4,2025-02-19_16h53.20.110,comp,2024.2.4,57.47802933441867,2025-02-19 16h53.33.158907 -0500,
18,18,0,filler_square,None,None,None,None,None,None,None,None,None,None,3,1.1537137031555176,None,,,,,0,0,0,0,0,18,18,194,146.4207947254181,,,,,,,,,,,,,,,,,,,,,,,,,,,,,,,,,,,,,,,,,,,,,,,,,,,,,,,,,,,,,,,,,,,,,,,,,,,,,,,,,106.90631008120734,91.35493742062862,137.51211960957764,66.48067991916335,171.0773126233513,171.0773126233513,2.1,2.12,-175,-250,0,-275,215,265,146.40401673316956,146.40409517288208,146.40727972984314,146.4207947254181,146.5613820552826,146.5613820552826,146.5613820552826,146.5613820552826,146.5613820552826,146.5613820552826,146.5613820552826,147.5921277999878,3,1.1537137031555176,None,,,,,,,,,,,,,,,,,,62,4,2025-02-19_16h53.20.110,comp,2024.2.4,57.47802933441867,2025-02-19 16h53.33.158907 -0500,
19,19,0,critical,whd,35.0,2.1,upper,125.0,200.0,200.0,125.0,127.0,127.0,1,3.1822845935821533,None,,,,,0,0,0,0,0,19,19,13,147.60767483711243,,,,,,,,,,,,,,,,,,,,,,,,,,,,,,,,,,,,,,,,,,,,,,,,,,,,,,,,,,,,,,,,,,,,,,,,,,,,,,,,,125.0,200.0,200.0,125.0,127.0,127.0,2.1,2.11,-258,259,0,283,222,-281,147.59371662139893,147.59379625320435,147.59697937965393,147.60767483711243,147.76367950439453,147.76367950439453,147.76367950439453,147.76367950439453,147.76367950439453,147.76367950439453,147.76367950439453,150.7953803539276,1,3.1822845935821533,None,,,,,,,,,,,,,,,,,,62,4,2025-02-19_16h53.20.110,comp,2024.2.4,57.47802933441867,2025-02-19 16h53.33.158907 -0500,
20,20,0,filler_random,None,None,None,None,None,None,None,None,None,None,3,1.24151611328125,None,,,,,0,0,0,0,0,20,20,154,150.81207585334778,,,,,,,,,,,,,,,,,,,,,,,,,,,,,,,,,,,,,,,,,,,,,,,,,,,,,,,,,,,,,,,,,,,,,,,,,,,,,,,,,83.11123286892074,61.420178986865366,183.91885766075154,78.34031663380077,183.35231519387528,185.3026618655984,2.2,2.22,-166,288,0,-251,228,-265,150.7973654270172,150.79744577407837,150.80126214027405,150.81207585334778,150.95978713035583,150.95978713035583,150.95978713035583,150.95978713035583,150.95978713035583,150.95978713035583,150.95978713035583,152.06466102600098,3,1.24151611328125,None,,,,,,,,,,,,,,,,,,62,4,2025-02-19_16h53.20.110,comp,2024.2.4,57.47802933441867,2025-02-19 16h53.33.158907 -0500,
21,21,0,catch,None,None,None,None,None,None,None,None,None,None,3,0.9285888671875,None,,,,,0,0,0,0,0,21,21,120,152.08496642112732,,,,,,,,,,,,,,,,,,,,,,,,,,,,,,,,,,,,,,,,,,,,,,,,,,,,,,,,,,,,,,,,,,,,,,,,,,,,,,,,,68,122,74,116,167,158,2.2,2.21,-215,-281,0,260,233,259,152.06671690940857,152.0668020248413,152.06968665122986,152.08496642112732,152.2292604446411,152.2292604446411,152.2292604446411,152.2292604446411,152.2292604446411,152.2292604446411,152.2292604446411,153.02812576293945,3,0.9285888671875,None,,,,,,,,,,,,,,,,,,62,4,2025-02-19_16h53.20.110,comp,2024.2.4,57.47802933441867,2025-02-19 16h53.33.158907 -0500,
22,22,0,critical,wdh,35.0,3.0,lower,57.0,133.0,70.0,70.0,133.0,57.0,1,2.1585564613342285,None,,,,,0,0,0,0,0,22,22,74,153.04690027236938,,,,,,,,,,,,,,,,,,,,,,,,,,,,,,,,,,,,,,,,,,,,,,,,,,,,,,,,,,,,,,,,,,,,,,,,,,,,,,,,,57.0,133.0,70.0,70.0,133.0,57.0,3.0,3.1,-198,268,0,1,160,-283,153.02964210510254,153.02971982955933,153.03289270401,153.04690027236938,153.19481253623962,153.19481253623962,153.19481253623962,153.19481253623962,153.19481253623962,153.19481253623962,153.19481253623962,155.21475315093994,1,2.1585564613342285,None,,,,,,,,,,,,,,,,,,62,4,2025-02-19_16h53.20.110,comp,2024.2.4,57.47802933441867,2025-02-19 16h53.33.158907 -0500,
23,23,0,filler_square,None,None,None,None,None,None,None,None,None,None,2,1.5341992378234863,None,,,,,0,0,0,0,0,23,23,188,155.23145604133606,,,,,,,,,,,,,,,,,,,,,,,,,,,,,,,,,,,,,,,,,,,,,,,,,,,,,,,,,,,,,,,,,,,,,,,,,,,,,,,,,65.82546851750209,78.76303878357879,93.5646417450717,93.5646417450717,60.94531055255945,90.19342139065392,2.2,2.22,-182,255,0,-253,188,-288,155.21671104431152,155.21679401397705,155.21984553337097,155.23145604133606,155.37914633750916,155.37914633750916,155.37914633750916,155.37914633750916,155.37914633750916,155.37914633750916,155.37914633750916,156.7873203754425,2,1.5341992378234863,None,,,,,,,,,,,,,,,,,,62,4,2025-02-19_16h53.20.110,comp,2024.2.4,57.47802933441867,2025-02-19 16h53.33.158907 -0500,
24,24,0,critical,wdh,35.0,4.0,upper,125.0,200.0,127.0,127.0,200.0,125.0,1,2.7838985919952393,None,,,,,0,0,0,0,0,24,24,77,156.80681228637695,,,,,,,,,,,,,,,,,,,,,,,,,,,,,,,,,,,,,,,,,,,,,,,,,,,,,,,,,,,,,,,,,,,,,,,,,,,,,,,,,125.0,200.0,127.0,127.0,200.0,125.0,4.0,4.1,-260,-285,0,-19,222,-273,156.78884768486023,156.7889244556427,156.7917926311493,156.80681228637695,156.94746255874634,156.94746255874634,156.94746255874634,156.94746255874634,156.94746255874634,156.94746255874634,156.94746255874634,159.6011459827423,1,2.7838985919952393,None,,,,,,,,,,,,,,,,,,62,4,2025-02-19_16h53.20.110,comp,2024.2.4,57.47802933441867,2025-02-19 16h53.33.158907 -0500,
25,25,0,critical,wdh,35.0,4.0,lower,57.0,133.0,70.0,70.0,133.0,57.0,1,2.3734726905822754,None,,,,,0,0,0,0,0,25,25,76,159.61730694770813,,,,,,,,,,,,,,,,,,,,,,,,,,,,,,,,,,,,,,,,,,,,,,,,,,,,,,,,,,,,,,,,,,,,,,,,,,,,,,,,,57.0,133.0,70.0,70.0,133.0,57.0,4.0,4.1,-198,-252,0,18,160,-271,159.60278868675232,159.6029143333435,159.60656094551086,159.61730694770813,159.76797795295715,159.76797795295715,159.76797795295715,159.76797795295715,159.76797795295715,159.76797795295715,159.76797795295715,161.99902439117432,1,2.3734726905822754,None,,,,,,,,,,,,,,,,,,62,4,2025-02-19_16h53.20.110,comp,2024.2.4,57.47802933441867,2025-02-19 16h53.33.158907 -0500,
26,26,0,critical,wdh,20.0,2.1,upper,125.0,200.0,141.0,141.0,200.0,125.0,1,1.869312047958374,None,,,,,0,0,0,0,0,26,26,11,162.016672372818,,,,,,,,,,,,,,,,,,,,,,,,,,,,,,,,,,,,,,,,,,,,,,,,,,,,,,,,,,,,,,,,,,,,,,,,,,,,,,,,,125.0,200.0,141.0,141.0,200.0,125.0,2.1,2.11,-266,282,0,259,229,-280,162.00063920021057,162.00074434280396,162.00504899024963,162.016672372818,162.16526675224304,162.16526675224304,162.16526675224304,162.16526675224304,162.16526675224304,162.16526675224304,162.16526675224304,163.89134550094604,1,1.869312047958374,None,,,,,,,,,,,,,,,,,,62,4,2025-02-19_16h53.20.110,comp,2024.2.4,57.47802933441867,2025-02-19 16h53.33.158907 -0500,
27,27,0,critical,hdw,35.0,4.0,upper,200.0,125.0,127.0,127.0,125.0,200.0,3,1.299065351486206,None,,,,,0,0,0,0,0,27,27,113,163.90669131278992,,,,,,,,,,,,,,,,,,,,,,,,,,,,,,,,,,,,,,,,,,,,,,,,,,,,,,,,,,,,,,,,,,,,,,,,,,,,,,,,,200.0,125.0,127.0,127.0,125.0,200.0,4.0,4.1,-222,-286,0,20,260,-284,163.89283537864685,163.89291548728943,163.8957862854004,163.90669131278992,164.0531198978424,164.0531198978424,164.0531198978424,164.0531198978424,164.0531198978424,164.0531198978424,164.0531198978424,165.22012877464294,3,1.299065351486206,None,,,,,,,,,,,,,,,,,,62,4,2025-02-19_16h53.20.110,comp,2024.2.4,57.47802933441867,2025-02-19 16h53.33.158907 -0500,
28,28,0,critical,dwh,20.0,2.1,lower,78.0,78.0,57.0,133.0,133.0,57.0,2,2.473851203918457,None,,,,,0,0,0,0,0,28,28,30,165.23644924163818,,,,,,,,,,,,,,,,,,,,,,,,,,,,,,,,,,,,,,,,,,,,,,,,,,,,,,,,,,,,,,,,,,,,,,,,,,,,,,,,,78.0,78.0,57.0,133.0,133.0,57.0,2.1,2.11,-202,286,0,259,191,-274,165.22177267074585,165.2218770980835,165.22517275810242,165.23644924163818,165.38097953796387,165.38097953796387,165.38097953796387,165.38097953796387,165.38097953796387,165.38097953796387,165.38097953796387,167.71714401245117,2,2.473851203918457,None,,,,,,,,,,,,,,,,,,62,4,2025-02-19_16h53.20.110,comp,2024.2.4,57.47802933441867,2025-02-19 16h53.33.158907 -0500,
29,29,0,filler_random,None,None,None,None,None,None,None,None,None,None,2,1.2505743503570557,None,,,,,0,0,0,0,0,29,29,135,167.73171591758728,,,,,,,,,,,,,,,,,,,,,,,,,,,,,,,,,,,,,,,,,,,,,,,,,,,,,,,,,,,,,,,,,,,,,,,,,,,,,,,,,138.75087066685396,132.4628611772222,194.73604256849637,186.76412230007966,165.14136502942125,106.83627045987241,2.2,2.22,-256,255,0,-290,243,-280,167.7189404964447,167.71902441978455,167.72213768959045,167.73171591758728,167.88578820228577,167.88578820228577,167.88578820228577,167.88578820228577,167.88578820228577,167.88578820228577,167.88578820228577,168.9899764060974,2,1.2505743503570557,None,,,,,,,,,,,,,,,,,,62,4,2025-02-19_16h53.20.110,comp,2024.2.4,57.47802933441867,2025-02-19 16h53.33.158907 -0500,
30,30,0,critical,hwd,20.0,2.1,upper,200.0,125.0,125.0,200.0,141.0,141.0,1,3.76404070854187,None,,,,,0,0,0,0,0,30,30,43,169.00946187973022,,,,,,,,,,,,,,,,,,,,,,,,,,,,,,,,,,,,,,,,,,,,,,,,,,,,,,,,,,,,,,,,,,,,,,,,,,,,,,,,,200.0,125.0,125.0,200.0,141.0,141.0,2.1,2.11,-258,257,0,283,266,-272,168.99151849746704,168.9915988445282,168.99446177482605,169.00946187973022,169.15120482444763,169.15120482444763,169.15120482444763,169.15120482444763,169.15120482444763,169.15120482444763,169.15120482444763,172.78800010681152,1,3.76404070854187,None,,,,,,,,,,,,,,,,,,62,4,2025-02-19_16h53.20.110,comp,2024.2.4,57.47802933441867,2025-02-19 16h53.33.158907 -0500,
31,31,0,critical,dwh,20.0,1.0,lower,78.0,78.0,57.0,133.0,133.0,57.0,2,1.7896325588226318,None,,,,,0,0,0,0,0,31,31,66,172.80807638168335,,,,,,,,,,,,,,,,,,,,,,,,,,,,,,,,,,,,,,,,,,,,,,,,,,,,,,,,,,,,,,,,,,,,,,,,,,,,,,,,,78.0,78.0,57.0,133.0,133.0,57.0,1.0,1.2,-202,-9,0,-16,191,-7,172.78976035118103,172.78990149497986,172.7931890487671,172.80807638168335,172.95164704322815,172.95164704322815,172.95164704322815,172.95164704322815,172.95164704322815,172.95164704322815,172.95164704322815,174.6019732952118,2,1.7896325588226318,None,,,,,,,,,,,,,,,,,,62,4,2025-02-19_16h53.20.110,comp,2024.2.4,57.47802933441867,2025-02-19 16h53.33.158907 -0500,
32,32,0,critical,dhw,20.0,2.1,upper,141.0,141.0,200.0,125.0,125.0,200.0,3,1.38783860206604,None,,,,,0,0,0,0,0,32,32,27,174.61787867546082,,,,,,,,,,,,,,,,,,,,,,,,,,,,,,,,,,,,,,,,,,,,,,,,,,,,,,,,,,,,,,,,,,,,,,,,,,,,,,,,,141.0,141.0,200.0,125.0,125.0,200.0,2.1,2.12,-229,-278,0,-264,258,274,174.60363626480103,174.60374522209167,174.60729789733887,174.61787867546082,174.7672679424286,174.7672679424286,174.7672679424286,174.7672679424286,174.7672679424286,174.7672679424286,174.7672679424286,176.00869297981262,3,1.38783860206604,None,,,,,,,,,,,,,,,,,,62,4,2025-02-19_16h53.20.110,comp,2024.2.4,57.47802933441867,2025-02-19 16h53.33.158907 -0500,
33,33,0,critical,whd,35.0,4.0,lower,57.0,133.0,133.0,57.0,70.0,70.0,1,1.8562695980072021,None,,,,,0,0,0,0,0,33,33,88,176.0293402671814,,,,,,,,,,,,,,,,,,,,,,,,,,,,,,,,,,,,,,,,,,,,,,,,,,,,,,,,,,,,,,,,,,,,,,,,,,,,,,,,,57.0,133.0,133.0,57.0,70.0,70.0,4.0,4.1,-191,-256,0,20,160,-286,176.01036596298218,176.01044631004333,176.01371574401855,176.0293402671814,176.1696195602417,176.1696195602417,176.1696195602417,176.1696195602417,176.1696195602417,176.1696195602417,176.1696195602417,177.90197205543518,1,1.8562695980072021,None,,,,,,,,,,,,,,,,,,62,4,2025-02-19_16h53.20.110,comp,2024.2.4,57.47802933441867,2025-02-19 16h53.33.158907 -0500,
34,34,0,filler_random,None,None,None,None,None,None,None,None,None,None,3,2.2722458839416504,None,,,,,0,0,0,0,0,34,34,149,177.91823983192444,,,,,,,,,,,,,,,,,,,,,,,,,,,,,,,,,,,,,,,,,,,,,,,,,,,,,,,,,,,,,,,,,,,,,,,,,,,,,,,,,112.21076470087007,86.18118358881308,134.53846731078028,139.60379480914162,140.76500809903666,139.32322343641596,1.0,1.2,-209,0,0,8,235,18,177.90371131896973,177.90378856658936,177.9068694114685,177.91823983192444,178.07224917411804,178.07224917411804,178.07224917411804,178.07224917411804,178.07224917411804,178.07224917411804,178.07224917411804,180.1935544013977,3,2.2722458839416504,None,,,,,,,,,,,,,,,,,,62,4,2025-02-19_16h53.20.110,comp,2024.2.4,57.47802933441867,2025-02-19 16h53.33.158907 -0500,
35,35,0,critical,whd,20.0,2.1,lower,57.0,133.0,133.0,57.0,78.0,78.0,1,3.1321043968200684,None,,,,,0,0,0,0,0,35,35,38,180.2095446586609,,,,,,,,,,,,,,,,,,,,,,,,,,,,,,,,,,,,,,,,,,,,,,,,,,,,,,,,,,,,,,,,,,,,,,,,,,,,,,,,,57.0,133.0,133.0,57.0,78.0,78.0,2.1,2.11,-191,269,0,258,164,-290,180.19513392448425,180.19524812698364,180.1985387802124,180.2095446586609,180.35353827476501,180.35353827476501,180.35353827476501,180.35353827476501,180.35353827476501,180.35353827476501,180.35353827476501,183.3435573577881,1,3.1321043968200684,None,,,,,,,,,,,,,,,,,,62,4,2025-02-19_16h53.20.110,comp,2024.2.4,57.47802933441867,2025-02-19 16h53.33.158907 -0500,
36,36,0,critical,hdw,35.0,2.1,upper,200.0,125.0,127.0,127.0,125.0,200.0,1,1.5963664054870605,None,,,,,0,0,0,0,0,36,36,21,183.36145663261414,,,,,,,,,,,,,,,,,,,,,,,,,,,,,,,,,,,,,,,,,,,,,,,,,,,,,,,,,,,,,,,,,,,,,,,,,,,,,,,,,200.0,125.0,127.0,127.0,125.0,200.0,2.1,2.12,-222,-253,0,-271,260,284,183.34531474113464,183.34539794921875,183.34840536117554,183.36145663261414,183.50564432144165,183.50564432144165,183.50564432144165,183.50564432144165,183.50564432144165,183.50564432144165,183.50564432144165,184.97468304634094,1,1.5963664054870605,None,,,,,,,,,,,,,,,,,,62,4,2025-02-19_16h53.20.110,comp,2024.2.4,57.47802933441867,2025-02-19 16h53.33.158907 -0500,
37,37,0,critical,dhw,35.0,3.0,lower,70.0,70.0,133.0,57.0,57.0,133.0,3,2.3118326663970947,None,,,,,0,0,0,0,0,37,37,50,184.9898509979248,,,,,,,,,,,,,,,,,,,,,,,,,,,,,,,,,,,,,,,,,,,,,,,,,,,,,,,,,,,,,,,,,,,,,,,,,,,,,,,,,70.0,70.0,133.0,57.0,57.0,133.0,3.0,3.2,-160,-273,0,-16,191,283,184.97624397277832,184.9763457775116,184.97954392433167,184.9898509979248,185.13947677612305,185.13947677612305,185.13947677612305,185.13947677612305,185.13947677612305,185.13947677612305,185.13947677612305,187.3060438632965,3,2.3118326663970947,None,,,,,,,,,,,,,,,,,,62,4,2025-02-19_16h53.20.110,comp,2024.2.4,57.47802933441867,2025-02-19 16h53.33.158907 -0500,
38,38,0,critical,wdh,20.0,1.0,upper,125.0,200.0,141.0,141.0,200.0,125.0,1,1.6777269840240479,None,,,,,0,0,0,0,0,38,38,79,187.32217860221863,,,,,,,,,,,,,,,,,,,,,,,,,,,,,,,,,,,,,,,,,,,,,,,,,,,,,,,,,,,,,,,,,,,,,,,,,,,,,,,,,125.0,200.0,141.0,141.0,200.0,125.0,1.0,1.1,-746,278,-480,276,-251,272,187.3077793121338,187.30788898468018,187.3113386631012,187.32217860221863,187.47369480133057,187.47369480133057,187.47369480133057,187.47369480133057,187.47369480133057,187.47369480133057,187.47369480133057,189.005845785141,1,1.6777269840240479,None,,,,,,,,,,,,,,,,,,62,4,2025-02-19_16h53.20.110,comp,2024.2.4,57.47802933441867,2025-02-19 16h53.33.158907 -0500,
39,39,0,filler_random,None,None,None,None,None,None,None,None,None,None,3,1.4435338973999023,None,,,,,0,0,0,0,0,39,39,168,189.02685856819153,,,,,,,,,,,,,,,,,,,,,,,,,,,,,,,,,,,,,,,,,,,,,,,,,,,,,,,,,,,,,,,,,,,,,,,,,,,,,,,,,82.36295001729948,174.93950282747704,74.73017914927648,136.88884604164872,165.44855574185328,119.82785212169236,2.1,2.11,-252,277,0,286,224,-267,189.00779485702515,189.00787568092346,189.01113986968994,189.02685856819153,189.17323994636536,189.17323994636536,189.17323994636536,189.17323994636536,189.17323994636536,189.17323994636536,189.17323994636536,190.47377514839172,3,1.4435338973999023,None,,,,,,,,,,,,,,,,,,62,4,2025-02-19_16h53.20.110,comp,2024.2.4,57.47802933441867,2025-02-19 16h53.33.158907 -0500,
40,40,0,critical,hdw,20.0,2.1,upper,200.0,125.0,141.0,141.0,125.0,200.0,3,3.5806567668914795,None,,,,,0,0,0,0,0,40,40,23,190.4897620677948,,,,,,,,,,,,,,,,,,,,,,,,,,,,,,,,,,,,,,,,,,,,,,,,,,,,,,,,,,,,,,,,,,,,,,,,,,,,,,,,,200.0,125.0,141.0,141.0,125.0,200.0,2.1,2.11,-229,284,0,258,266,-263,190.47535848617554,190.47544121742249,190.47879457473755,190.4897620677948,190.64610981941223,190.64610981941223,190.64610981941223,190.64610981941223,190.64610981941223,190.64610981941223,190.64610981941223,194.07501220703125,3,3.5806567668914795,None,,,,,,,,,,,,,,,,,,62,4,2025-02-19_16h53.20.110,comp,2024.2.4,57.47802933441867,2025-02-19 16h53.33.158907 -0500,
41,41,0,filler_random,None,None,None,None,None,None,None,None,None,None,3,2.1154067516326904,None,,,,,0,0,0,0,0,41,41,140,194.09049344062805,,,,,,,,,,,,,,,,,,,,,,,,,,,,,,,,,,,,,,,,,,,,,,,,,,,,,,,,,,,,,,,,,,,,,,,,,,,,,,,,,144.39328844844792,85.13793297388806,82.05618179766434,104.29620211603017,101.13468546144003,198.0248170359961,2.2,2.21,-191,-265,0,268,247,279,194.07692098617554,194.07706141471863,194.08041715621948,194.09049344062805,194.24122428894043,194.24122428894043,194.24122428894043,194.24122428894043,194.24122428894043,194.24122428894043,194.24122428894043,196.20792317390442,3,2.1154067516326904,None,,,,,,,,,,,,,,,,,,62,4,2025-02-19_16h53.20.110,comp,2024.2.4,57.47802933441867,2025-02-19 16h53.33.158907 -0500,
42,42,0,filler_random,None,None,None,None,None,None,None,None,None,None,2,1.188621997833252,None,,,,,0,0,0,0,0,42,42,131,196.22488927841187,,,,,,,,,,,,,,,,,,,,,,,,,,,,,,,,,,,,,,,,,,,,,,,,,,,,,,,,,,,,,,,,,,,,,,,,,,,,,,,,,76.05064744780019,105.3761565426339,121.76316516559305,119.87148834495744,58.429095537126095,134.27281797339145,1.0,1.2,-209,12,0,-13,223,-8,196.20969033241272,196.20981788635254,196.21308851242065,196.22488927841187,196.37677240371704,196.37677240371704,196.37677240371704,196.37677240371704,196.37677240371704,196.37677240371704,196.37677240371704,197.42495441436768,2,1.188621997833252,None,,,,,,,,,,,,,,,,,,62,4,2025-02-19_16h53.20.110,comp,2024.2.4,57.47802933441867,2025-02-19 16h53.33.158907 -0500,
43,43,0,critical,dhw,35.0,3.0,upper,127.0,127.0,200.0,125.0,125.0,200.0,2,2.866446018218994,None,,,,,0,0,0,0,0,43,43,51,197.44317078590393,,,,,,,,,,,,,,,,,,,,,,,,,,,,,,,,,,,,,,,,,,,,,,,,,,,,,,,,,,,,,,,,,,,,,,,,,,,,,,,,,127.0,127.0,200.0,125.0,125.0,200.0,3.0,3.2,-222,-281,0,1,258,251,197.42656588554382,197.42670130729675,197.43001580238342,197.44317078590393,197.5831162929535,197.5831162929535,197.5831162929535,197.5831162929535,197.5831162929535,197.5831162929535,197.5831162929535,200.33005833625793,2,2.866446018218994,None,,,,,,,,,,,,,,,,,,62,4,2025-02-19_16h53.20.110,comp,2024.2.4,57.47802933441867,2025-02-19 16h53.33.158907 -0500,
44,44,0,filler_random,None,None,None,None,None,None,None,None,None,None,2,2.809968948364258,None,,,,,0,0,0,0,0,44,44,132,200.34828686714172,,,,,,,,,,,,,,,,,,,,,,,,,,,,,,,,,,,,,,,,,,,,,,,,,,,,,,,,,,,,,,,,,,,,,,,,,,,,,,,,,187.223207895189,89.31784700865478,153.0673600743632,166.92539061632164,97.29208844892042,133.32323749704653,1.0,1.1,-704,288,-480,280,-234,281,200.33186030387878,200.33196663856506,200.33525323867798,200.34828686714172,200.4935338497162,200.4935338497162,200.4935338497162,200.4935338497162,200.4935338497162,200.4935338497162,200.4935338497162,203.16930437088013,2,2.809968948364258,None,,,,,,,,,,,,,,,,,,62,4,2025-02-19_16h53.20.110,comp,2024.2.4,57.47802933441867,2025-02-19 16h53.33.158907 -0500,
45,45,0,critical,hwd,35.0,4.0,upper,200.0,125.0,125.0,200.0,127.0,127.0,1,2.231762170791626,None,,,,,0,0,0,0,0,45,45,101,203.1900086402893,,,,,,,,,,,,,,,,,,,,,,,,,,,,,,,,,,,,,,,,,,,,,,,,,,,,,,,,,,,,,,,,,,,,,,,,,,,,,,,,,200.0,125.0,125.0,200.0,127.0,127.0,4.0,4.2,-258,-1,0,-281,260,-17,203.17089533805847,203.17099261283875,203.1742808818817,203.1900086402893,203.32823514938354,203.32823514938354,203.32823514938354,203.32823514938354,203.32823514938354,203.32823514938354,203.32823514938354,205.43108463287354,1,2.231762170791626,None,,,,,,,,,,,,,,,,,,62,4,2025-02-19_16h53.20.110,comp,2024.2.4,57.47802933441867,2025-02-19 16h53.33.158907 -0500,
46,46,0,filler_square,None,None,None,None,None,None,None,None,None,None,1,1.294626235961914,None,,,,,0,0,0,0,0,46,46,189,205.44767880439758,,,,,,,,,,,,,,,,,,,,,,,,,,,,,,,,,,,,,,,,,,,,,,,,,,,,,,,,,,,,,,,,,,,,,,,,,,,,,,,,,189.81812017976821,189.81812017976821,74.53979779169808,167.59585369628468,121.04358439194318,133.19302185388096,2.1,2.12,-275,-275,0,-283,246,265,205.43356347084045,205.43371868133545,205.4369547367096,205.44767880439758,205.60110092163086,205.60110092163086,205.60110092163086,205.60110092163086,205.60110092163086,205.60110092163086,205.60110092163086,206.7467851638794,1,1.294626235961914,None,,,,,,,,,,,,,,,,,,62,4,2025-02-19_16h53.20.110,comp,2024.2.4,57.47802933441867,2025-02-19 16h53.33.158907 -0500,
47,47,0,critical,hdw,20.0,2.1,lower,133.0,57.0,78.0,78.0,57.0,133.0,1,1.7067008018493652,None,,,,,0,0,0,0,0,47,47,46,206.76305723190308,,,,,,,,,,,,,,,,,,,,,,,,,,,,,,,,,,,,,,,,,,,,,,,,,,,,,,,,,,,,,,,,,,,,,,,,,,,,,,,,,133.0,57.0,78.0,78.0,57.0,133.0,2.1,2.12,-164,-259,0,-283,202,251,206.74838089942932,206.74851083755493,206.7515377998352,206.76305723190308,206.91195273399353,206.91195273399353,206.91195273399353,206.91195273399353,206.91195273399353,206.91195273399353,206.91195273399353,208.4860818386078,1,1.7067008018493652,None,,,,,,,,,,,,,,,,,,62,4,2025-02-19_16h53.20.110,comp,2024.2.4,57.47802933441867,2025-02-19 16h53.33.158907 -0500,
48,48,0,filler_random,None,None,None,None,None,None,None,None,None,None,2,1.4870073795318604,None,,,,,0,0,0,0,0,48,48,155,208.5031988620758,,,,,,,,,,,,,,,,,,,,,,,,,,,,,,,,,,,,,,,,,,,,,,,,,,,,,,,,,,,,,,,,,,,,,,,,,,,,,,,,,79.89458835544514,97.797828158913,148.99416554780535,140.46231154311272,65.74226675277589,197.62291037384074,2.2,2.21,-215,-253,0,267,265,263,208.48776507377625,208.4878454208374,208.4907329082489,208.5031988620758,208.64563918113708,208.64563918113708,208.64563918113708,208.64563918113708,208.64563918113708,208.64563918113708,208.64563918113708,209.99579691886902,2,1.4870073795318604,None,,,,,,,,,,,,,,,,,,62,4,2025-02-19_16h53.20.110,comp,2024.2.4,57.47802933441867,2025-02-19 16h53.33.158907 -0500,
49,49,0,critical,hwd,35.0,3.0,lower,133.0,57.0,57.0,133.0,70.0,70.0,2,1.6417045593261719,None,,,,,0,0,0,0,0,49,49,98,210.01181817054749,,,,,,,,,,,,,,,,,,,,,,,,,,,,,,,,,,,,,,,,,,,,,,,,,,,,,,,,,,,,,,,,,,,,,,,,,,,,,,,,,133.0,57.0,57.0,133.0,70.0,70.0,3.0,3.2,-191,-260,0,19,198,279,209.9973864555359,209.99746656417847,210.00032758712769,210.01181817054749,210.15954518318176,210.15954518318176,210.15954518318176,210.15954518318176,210.15954518318176,210.15954518318176,210.15954518318176,211.6647231578827,2,1.6417045593261719,None,,,,,,,,,,,,,,,,,,62,4,2025-02-19_16h53.20.110,comp,2024.2.4,57.47802933441867,2025-02-19 16h53.33.158907 -0500,
50,50,0,catch,None,None,None,None,None,None,None,None,None,None,2,1.0692634582519531,None,,,,,0,0,0,0,0,50,50,127,211.68050909042358,,,,,,,,,,,,,,,,,,,,,,,,,,,,,,,,,,,,,,,,,,,,,,,,,,,,,,,,,,,,,,,,,,,,,,,,,,,,,,,,,110,80,158,167,103,87,2.2,2.21,-220,-253,0,251,223,266,211.6667354106903,211.66682028770447,211.66994881629944,211.68050909042358,211.83023071289062,211.83023071289062,211.83023071289062,211.83023071289062,211.83023071289062,211.83023071289062,211.83023071289062,212.77177119255066,2,1.0692634582519531,None,,,,,,,,,,,,,,,,,,62,4,2025-02-19_16h53.20.110,comp,2024.2.4,57.47802933441867,2025-02-19 16h53.33.158907 -0500,
51,51,0,critical,wdh,20.0,2.1,upper,125.0,200.0,141.0,141.0,200.0,125.0,1,2.7421183586120605,None,,,,,0,0,0,0,0,51,51,35,212.7914571762085,,,,,,,,,,,,,,,,,,,,,,,,,,,,,,,,,,,,,,,,,,,,,,,,,,,,,,,,,,,,,,,,,,,,,,,,,,,,,,,,,125.0,200.0,141.0,141.0,200.0,125.0,2.1,2.12,-266,-272,0,-276,229,253,212.77330827713013,212.7733850479126,212.77626276016235,212.7914571762085,212.93184733390808,212.93184733390808,212.93184733390808,212.93184733390808,212.93184733390808,212.93184733390808,212.93184733390808,215.54755759239197,1,2.7421183586120605,None,,,,,,,,,,,,,,,,,,62,4,2025-02-19_16h53.20.110,comp,2024.2.4,57.47802933441867,2025-02-19 16h53.33.158907 -0500,
52,52,0,critical,whd,35.0,1.0,lower,57.0,133.0,133.0,57.0,70.0,70.0,1,1.4423863887786865,None,,,,,0,0,0,0,0,52,52,84,215.56348752975464,,,,,,,,,,,,,,,,,,,,,,,,,,,,,,,,,,,,,,,,,,,,,,,,,,,,,,,,,,,,,,,,,,,,,,,,,,,,,,,,,57.0,133.0,133.0,57.0,70.0,70.0,1.0,1.2,-191,-3,0,-10,160,-9,215.5490517616272,215.54912853240967,215.55226874351501,215.56348752975464,215.72185277938843,215.72185277938843,215.72185277938843,215.72185277938843,215.72185277938843,215.72185277938843,215.72185277938843,217.01691913604736,1,1.4423863887786865,None,,,,,,,,,,,,,,,,,,62,4,2025-02-19_16h53.20.110,comp,2024.2.4,57.47802933441867,2025-02-19 16h53.33.158907 -0500,
53,53,0,filler_square,None,None,None,None,None,None,None,None,None,None,2,1.42691969871521,None,,,,,0,0,0,0,0,53,53,200,217.0346760749817,,,,,,,,,,,,,,,,,,,,,,,,,,,,,,,,,,,,,,,,,,,,,,,,,,,,,,,,,,,,,,,,,,,,,,,,,,,,,,,,,68.38076670018172,59.0253099843979,122.44453430572048,122.44453430572048,104.90025495414748,76.96395035687462,2.1,2.11,-187,282,0,270,196,-251,217.0189914703369,217.0190725326538,217.02207732200623,217.0346760749817,217.18157649040222,217.18157649040222,217.18157649040222,217.18157649040222,217.18157649040222,217.18157649040222,217.18157649040222,218.46639847755432,2,1.42691969871521,None,,,,,,,,,,,,,,,,,,62,4,2025-02-19_16h53.20.110,comp,2024.2.4,57.47802933441867,2025-02-19 16h53.33.158907 -0500,
54,54,0,filler_random,None,None,None,None,None,None,None,None,None,None,2,2.107208490371704,None,,,,,0,0,0,0,0,54,54,142,218.48235893249512,,,,,,,,,,,,,,,,,,,,,,,,,,,,,,,,,,,,,,,,,,,,,,,,,,,,,,,,,,,,,,,,,,,,,,,,,,,,,,,,,132.53193013551606,69.93323879422579,196.2480305310611,61.12340540906987,116.05196206279379,61.01104848233139,2.2,2.22,-162,274,0,-282,157,-252,218.46820759773254,218.4682924747467,218.47162532806396,218.48235893249512,218.6352458000183,218.6352458000183,218.6352458000183,218.6352458000183,218.6352458000183,218.6352458000183,218.6352458000183,220.60558009147644,2,2.107208490371704,None,,,,,,,,,,,,,,,,,,62,4,2025-02-19_16h53.20.110,comp,2024.2.4,57.47802933441867,2025-02-19 16h53.33.158907 -0500,
55,55,0,critical,hwd,35.0,3.0,upper,200.0,125.0,125.0,200.0,127.0,127.0,2,1.5366990566253662,None,,,,,0,0,0,0,0,55,55,99,220.62160921096802,,,,,,,,,,,,,,,,,,,,,,,,,,,,,,,,,,,,,,,,,,,,,,,,,,,,,,,,,,,,,,,,,,,,,,,,,,,,,,,,,200.0,125.0,125.0,200.0,127.0,127.0,3.0,3.2,-258,-283,0,5,260,260,220.6072382926941,220.6073157787323,220.6105833053589,220.62160921096802,220.76414370536804,220.76414370536804,220.76414370536804,220.76414370536804,220.76414370536804,220.76414370536804,220.76414370536804,222.16679620742798,2,1.5366990566253662,None,,,,,,,,,,,,,,,,,,62,4,2025-02-19_16h53.20.110,comp,2024.2.4,57.47802933441867,2025-02-19 16h53.33.158907 -0500,
56,56,0,filler_square,None,None,None,None,None,None,None,None,None,None,1,2.095123529434204,None,,,,,0,0,0,0,0,56,56,193,222.18258237838745,,,,,,,,,,,,,,,,,,,,,,,,,,,,,,,,,,,,,,,,,,,,,,,,,,,,,,,,,,,,,,,,,,,,,,,,,,,,,,,,,105.48952358395479,105.48952358395479,98.34641788525737,104.46580038873435,65.00912091777151,95.60643560283708,4.0,4.1,-201,-258,0,-9,196,-267,222.1685869693756,222.16866517066956,222.1718029975891,222.18258237838745,222.32993054389954,222.32993054389954,222.32993054389954,222.32993054389954,222.32993054389954,222.32993054389954,222.32993054389954,224.29007172584534,1,2.095123529434204,None,,,,,,,,,,,,,,,,,,62,4,2025-02-19_16h53.20.110,comp,2024.2.4,57.47802933441867,2025-02-19 16h53.33.158907 -0500,
57,57,0,filler_random,None,None,None,None,None,None,None,None,None,None,2,1.2060749530792236,None,,,,,0,0,0,0,0,57,57,161,224.30624413490295,,,,,,,,,,,,,,,,,,,,,,,,,,,,,,,,,,,,,,,,,,,,,,,,,,,,,,,,,,,,,,,,,,,,,,,,,,,,,,,,,105.57372109444857,113.03978488848597,144.65773918335464,154.9136030324231,57.227165002725414,113.01930420282554,2.1,2.11,-230,269,0,282,230,-279,224.2919635772705,224.29205584526062,224.29533505439758,224.30624413490295,224.45087885856628,224.45087885856628,224.45087885856628,224.45087885856628,224.45087885856628,224.45087885856628,224.45087885856628,225.51708364486694,2,1.2060749530792236,None,,,,,,,,,,,,,,,,,,62,4,2025-02-19_16h53.20.110,comp,2024.2.4,57.47802933441867,2025-02-19 16h53.33.158907 -0500,
58,58,0,filler_square,None,None,None,None,None,None,None,None,None,None,3,1.7779507637023926,None,,,,,0,0,0,0,0,58,58,202,225.53481769561768,,,,,,,,,,,,,,,,,,,,,,,,,,,,,,,,,,,,,,,,,,,,,,,,,,,,,,,,,,,,,,,,,,,,,,,,,,,,,,,,,66.60908353496141,69.47414319301666,59.79374431283282,70.86738243011887,74.73107509309882,74.73107509309882,3.0,3.1,-166,254,0,2,169,-259,225.51907205581665,225.51917505264282,225.52240347862244,225.53481769561768,225.6855857372284,225.6855857372284,225.6855857372284,225.6855857372284,225.6855857372284,225.6855857372284,225.6855857372284,227.31911277770996,3,1.7779507637023926,None,,,,,,,,,,,,,,,,,,62,4,2025-02-19_16h53.20.110,comp,2024.2.4,57.47802933441867,2025-02-19 16h53.33.158907 -0500,
59,59,0,filler_square,None,None,None,None,None,None,None,None,None,None,2,1.2387070655822754,None,,,,,0,0,0,0,0,59,59,208,227.33630919456482,,,,,,,,,,,,,,,,,,,,,,,,,,,,,,,,,,,,,,,,,,,,,,,,,,,,,,,,,,,,,,,,,,,,,,,,,,,,,,,,,112.15448768278264,95.56851877995828,130.4793642828945,130.4793642828945,121.15859698192956,59.681552312344095,2.1,2.12,-209,-263,0,-270,191,266,227.3212330341339,227.3213152885437,227.32457327842712,227.33630919456482,227.4845631122589,227.4845631122589,227.4845631122589,227.4845631122589,227.4845631122589,227.4845631122589,227.4845631122589,228.58260083198547,2,1.2387070655822754,None,,,,,,,,,,,,,,,,,,62,4,2025-02-19_16h53.20.110,comp,2024.2.4,57.47802933441867,2025-02-19 16h53.33.158907 -0500,
60,60,0,critical,dhw,20.0,1.0,lower,78.0,78.0,133.0,57.0,57.0,133.0,2,1.4278161525726318,None,,,,,0,0,0,0,0,60,60,54,228.60255098342896,,,,,,,,,,,,,,,,,,,,,,,,,,,,,,,,,,,,,,,,,,,,,,,,,,,,,,,,,,,,,,,,,,,,,,,,,,,,,,,,,78.0,78.0,133.0,57.0,57.0,133.0,1.0,1.1,-644,279,-480,264,-289,285,228.58408188819885,228.5841829776764,228.58700513839722,228.60255098342896,228.73652243614197,228.73652243614197,228.73652243614197,228.73652243614197,228.73652243614197,228.73652243614197,228.73652243614197,230.03504180908203,2,1.4278161525726318,None,,,,,,,,,,,,,,,,,,62,4,2025-02-19_16h53.20.110,comp,2024.2.4,57.47802933441867,2025-02-19 16h53.33.158907 -0500,
61,61,0,critical,hdw,20.0,2.1,lower,133.0,57.0,78.0,78.0,57.0,133.0,3,2.1301136016845703,None,,,,,0,0,0,0,0,61,61,22,230.052020072937,,,,,,,,,,,,,,,,,,,,,,,,,,,,,,,,,,,,,,,,,,,,,,,,,,,,,,,,,,,,,,,,,,,,,,,,,,,,,,,,,133.0,57.0,78.0,78.0,57.0,133.0,2.1,2.12,-164,-287,0,-256,202,270,230.0366654396057,230.0367546081543,230.04009175300598,230.052020072937,230.20093488693237,230.20093488693237,230.20093488693237,230.20093488693237,230.20093488693237,230.20093488693237,230.20093488693237,232.18572568893433,3,2.1301136016845703,None,,,,,,,,,,,,,,,,,,62,4,2025-02-19_16h53.20.110,comp,2024.2.4,57.47802933441867,2025-02-19 16h53.33.158907 -0500,
62,62,0,filler_square,None,None,None,None,None,None,None,None,None,None,1,1.1398091316223145,None,,,,,0,0,0,0,0,62,62,181,232.20251607894897,,,,,,,,,,,,,,,,,,,,,,,,,,,,,,,,,,,,,,,,,,,,,,,,,,,,,,,,,,,,,,,,,,,,,,,,,,,,,,,,,180.61842390129593,180.61842390129593,177.09674646938385,68.31925327526028,128.64531637842737,84.06063869031702,4.0,4.1,-220,-272,0,17,172,-262,232.1874976158142,232.1875762939453,232.19070625305176,232.20251607894897,232.34343481063843,232.34343481063843,232.34343481063843,232.34343481063843,232.34343481063843,232.34343481063843,232.34343481063843,233.3451223373413,1,1.1398091316223145,None,,,,,,,,,,,,,,,,,,62,4,2025-02-19_16h53.20.110,comp,2024.2.4,57.47802933441867,2025-02-19 16h53.33.158907 -0500,
63,63,0,critical,hwd,20.0,1.0,upper,200.0,125.0,125.0,200.0,141.0,141.0,1,1.7918221950531006,None,,,,,0,0,0,0,0,63,63,103,233.36582612991333,,,,,,,,,,,,,,,,,,,,,,,,,,,,,,,,,,,,,,,,,,,,,,,,,,,,,,,,,,,,,,,,,,,,,,,,,,,,,,,,,200.0,125.0,125.0,200.0,141.0,141.0,1.0,1.2,-258,19,0,4,266,4,233.34670972824097,233.34678649902344,233.35002064704895,233.36582612991333,233.50460839271545,233.50460839271545,233.50460839271545,233.50460839271545,233.50460839271545,233.50460839271545,233.50460839271545,235.1727077960968,1,1.7918221950531006,None,,,,,,,,,,,,,,,,,,62,4,2025-02-19_16h53.20.110,comp,2024.2.4,57.47802933441867,2025-02-19 16h53.33.158907 -0500,
64,64,0,critical,dwh,20.0,2.1,upper,141.0,141.0,125.0,200.0,200.0,125.0,3,1.3984031677246094,None,,,,,0,0,0,0,0,64,64,31,235.19118452072144,,,,,,,,,,,,,,,,,,,,,,,,,,,,,,,,,,,,,,,,,,,,,,,,,,,,,,,,,,,,,,,,,,,,,,,,,,,,,,,,,141.0,141.0,125.0,200.0,200.0,125.0,2.1,2.11,-266,263,0,272,258,-276,235.17458176612854,235.17471861839294,235.17858171463013,235.19118452072144,235.33746123313904,235.33746123313904,235.33746123313904,235.33746123313904,235.33746123313904,235.33746123313904,235.33746123313904,236.6047658920288,3,1.3984031677246094,None,,,,,,,,,,,,,,,,,,62,4,2025-02-19_16h53.20.110,comp,2024.2.4,57.47802933441867,2025-02-19 16h53.33.158907 -0500,
65,65,0,critical,wdh,20.0,2.1,lower,57.0,133.0,78.0,78.0,133.0,57.0,1,1.7939047813415527,None,,,,,0,0,0,0,0,65,65,10,236.62002205848694,,,,,,,,,,,,,,,,,,,,,,,,,,,,,,,,,,,,,,,,,,,,,,,,,,,,,,,,,,,,,,,,,,,,,,,,,,,,,,,,,57.0,133.0,78.0,78.0,133.0,57.0,2.1,2.12,-202,-255,0,-280,164,253,236.6062934398651,236.60639238357544,236.60977911949158,236.62002205848694,236.76833367347717,236.76833367347717,236.76833367347717,236.76833367347717,236.76833367347717,236.76833367347717,236.76833367347717,238.42247819900513,1,1.7939047813415527,None,,,,,,,,,,,,,,,,,,62,4,2025-02-19_16h53.20.110,comp,2024.2.4,57.47802933441867,2025-02-19 16h53.33.158907 -0500,
66,66,0,filler_random,None,None,None,None,None,None,None,None,None,None,3,1.2866079807281494,None,,,,,0,0,0,0,0,66,66,147,238.43918633460999,,,,,,,,,,,,,,,,,,,,,,,,,,,,,,,,,,,,,,,,,,,,,,,,,,,,,,,,,,,,,,,,,,,,,,,,,,,,,,,,,137.3441256160613,95.87569423412121,189.42922499325798,78.69656935605018,168.77032318294698,149.7820490917655,1.0,1.2,-183,-3,0,8,210,7,238.4242172241211,238.4243016242981,238.42834949493408,238.43918633460999,238.59740447998047,238.59740447998047,238.59740447998047,238.59740447998047,238.59740447998047,238.59740447998047,238.59740447998047,239.74033641815186,3,1.2866079807281494,None,,,,,,,,,,,,,,,,,,62,4,2025-02-19_16h53.20.110,comp,2024.2.4,57.47802933441867,2025-02-19 16h53.33.158907 -0500,
67,67,0,critical,wdh,35.0,2.1,upper,125.0,200.0,127.0,127.0,200.0,125.0,1,1.154327392578125,None,,,,,0,0,0,0,0,67,67,33,239.75572752952576,,,,,,,,,,,,,,,,,,,,,,,,,,,,,,,,,,,,,,,,,,,,,,,,,,,,,,,,,,,,,,,,,,,,,,,,,,,,,,,,,125.0,200.0,127.0,127.0,200.0,125.0,2.1,2.12,-260,-261,0,-282,222,276,239.74189496040344,239.74197220802307,239.7454149723053,239.75572752952576,239.90738677978516,239.90738677978516,239.90738677978516,239.90738677978516,239.90738677978516,239.90738677978516,239.90738677978516,240.9147927761078,1,1.154327392578125,None,,,,,,,,,,,,,,,,,,62,4,2025-02-19_16h53.20.110,comp,2024.2.4,57.47802933441867,2025-02-19 16h53.33.158907 -0500,
68,68,0,filler_random,None,None,None,None,None,None,None,None,None,None,2,3.457213878631592,None,,,,,0,0,0,0,0,68,68,133,240.93251991271973,,,,,,,,,,,,,,,,,,,,,,,,,,,,,,,,,,,,,,,,,,,,,,,,,,,,,,,,,,,,,,,,,,,,,,,,,,,,,,,,,154.47294934307234,172.51438995309616,149.22445699106044,194.59652089885734,94.67005913740644,184.46637787660342,2.1,2.11,-280,272,0,255,286,-270,240.91658782958984,240.91666889190674,240.91959023475647,240.93251991271973,241.07255578041077,241.07255578041077,241.07255578041077,241.07255578041077,241.07255578041077,241.07255578041077,241.07255578041077,244.4068205356598,2,3.457213878631592,None,,,,,,,,,,,,,,,,,,62,4,2025-02-19_16h53.20.110,comp,2024.2.4,57.47802933441867,2025-02-19 16h53.33.158907 -0500,
69,69,0,critical,whd,20.0,1.0,lower,57.0,133.0,133.0,57.0,78.0,78.0,2,3.7249224185943604,None,,,,,0,0,0,0,0,69,69,90,244.42685103416443,,,,,,,,,,,,,,,,,,,,,,,,,,,,,,,,,,,,,,,,,,,,,,,,,,,,,,,,,,,,,,,,,,,,,,,,,,,,,,,,,57.0,133.0,133.0,57.0,78.0,78.0,1.0,1.2,-191,17,0,-2,164,-6,244.40848183631897,244.4085931777954,244.41185665130615,244.42685103416443,244.57387781143188,244.57387781143188,244.57387781143188,244.57387781143188,244.57387781143188,244.57387781143188,244.57387781143188,248.15762758255005,2,3.7249224185943604,None,,,,,,,,,,,,,,,,,,62,4,2025-02-19_16h53.20.110,comp,2024.2.4,57.47802933441867,2025-02-19 16h53.33.158907 -0500,
70,70,0,filler_square,None,None,None,None,None,None,None,None,None,None,1,2.3501832485198975,None,,,,,0,0,0,0,0,70,70,172,248.17579126358032,,,,,,,,,,,,,,,,,,,,,,,,,,,,,,,,,,,,,,,,,,,,,,,,,,,,,,,,,,,,,,,,,,,,,,,,,,,,,,,,,106.94741288379772,106.94741288379772,83.14996165428099,80.20134485589863,71.35531926765857,91.06288243772015,4.0,4.1,-190,-256,0,19,182,-274,248.15939831733704,248.15947818756104,248.16269755363464,248.17579126358032,248.32627272605896,248.32627272605896,248.32627272605896,248.32627272605896,248.32627272605896,248.32627272605896,248.32627272605896,250.5279664993286,1,2.3501832485198975,None,,,,,,,,,,,,,,,,,,62,4,2025-02-19_16h53.20.110,comp,2024.2.4,57.47802933441867,2025-02-19 16h53.33.158907 -0500,
71,71,0,filler_square,None,None,None,None,None,None,None,None,None,None,2,1.1802289485931396,None,,,,,0,0,0,0,0,71,71,199,250.5463650226593,,,,,,,,,,,,,,,,,,,,,,,,,,,,,,,,,,,,,,,,,,,,,,,,,,,,,,,,,,,,,,,,,,,,,,,,,,,,,,,,,133.52568995591997,105.81792301036927,145.6851721859192,145.6851721859192,72.57328678905353,80.61250658480236,2.1,2.11,-222,258,0,280,209,-256,250.5300030708313,250.5300841331482,250.53326106071472,250.5463650226593,250.69169688224792,250.69169688224792,250.69169688224792,250.69169688224792,250.69169688224792,250.69169688224792,250.69169688224792,251.73086738586426,2,1.1802289485931396,None,,,,,,,,,,,,,,,,,,62,4,2025-02-19_16h53.20.110,comp,2024.2.4,57.47802933441867,2025-02-19 16h53.33.158907 -0500,
72,72,0,critical,wdh,20.0,4.0,upper,125.0,200.0,141.0,141.0,200.0,125.0,3,1.290647268295288,None,,,,,0,0,0,0,0,72,72,83,251.746999502182,,,,,,,,,,,,,,,,,,,,,,,,,,,,,,,,,,,,,,,,,,,,,,,,,,,,,,,,,,,,,,,,,,,,,,,,,,,,,,,,,125.0,200.0,141.0,141.0,200.0,125.0,4.0,4.2,-266,11,0,-269,229,7,251.73242354393005,251.73250222206116,251.73549580574036,251.746999502182,251.8895001411438,251.8895001411438,251.8895001411438,251.8895001411438,251.8895001411438,251.8895001411438,251.8895001411438,253.04725742340088,3,1.290647268295288,None,,,,,,,,,,,,,,,,,,62,4,2025-02-19_16h53.20.110,comp,2024.2.4,57.47802933441867,2025-02-19 16h53.33.158907 -0500,
73,73,0,critical,dwh,35.0,2.1,upper,127.0,127.0,125.0,200.0,200.0,125.0,2,1.2883172035217285,None,,,,,0,0,0,0,0,73,73,5,253.06133246421814,,,,,,,,,,,,,,,,,,,,,,,,,,,,,,,,,,,,,,,,,,,,,,,,,,,,,,,,,,,,,,,,,,,,,,,,,,,,,,,,,127.0,127.0,125.0,200.0,200.0,125.0,2.1,2.12,-260,-265,0,-251,258,272,253.0487358570099,253.048814535141,253.05188465118408,253.06133246421814,253.20919609069824,253.20919609069824,253.20919609069824,253.20919609069824,253.20919609069824,253.20919609069824,253.20919609069824,254.36051630973816,2,1.2883172035217285,None,,,,,,,,,,,,,,,,,,62,4,2025-02-19_16h53.20.110,comp,2024.2.4,57.47802933441867,2025-02-19 16h53.33.158907 -0500,
74,74,0,critical,hdw,35.0,3.0,upper,200.0,125.0,127.0,127.0,125.0,200.0,3,1.1420083045959473,None,,,,,0,0,0,0,0,74,74,111,254.37559747695923,,,,,,,,,,,,,,,,,,,,,,,,,,,,,,,,,,,,,,,,,,,,,,,,,,,,,,,,,,,,,,,,,,,,,,,,,,,,,,,,,200.0,125.0,127.0,127.0,125.0,200.0,3.0,3.1,-222,273,0,-8,260,-277,254.36205649375916,254.36213731765747,254.36559677124023,254.37559747695923,254.52639150619507,254.52639150619507,254.52639150619507,254.52639150619507,254.52639150619507,254.52639150619507,254.52639150619507,255.5276393890381,3,1.1420083045959473,None,,,,,,,,,,,,,,,,,,62,4,2025-02-19_16h53.20.110,comp,2024.2.4,57.47802933441867,2025-02-19 16h53.33.158907 -0500,
75,75,0,critical,whd,20.0,3.0,upper,125.0,200.0,200.0,125.0,141.0,141.0,1,1.5177268981933594,None,,,,,0,0,0,0,0,75,75,93,255.54417324066162,,,,,,,,,,,,,,,,,,,,,,,,,,,,,,,,,,,,,,,,,,,,,,,,,,,,,,,,,,,,,,,,,,,,,,,,,,,,,,,,,125.0,200.0,200.0,125.0,141.0,141.0,3.0,3.1,-258,256,0,-3,229,-276,255.5291712284088,255.52925896644592,255.53345394134521,255.54417324066162,255.69248843193054,255.69248843193054,255.69248843193054,255.69248843193054,255.69248843193054,255.69248843193054,255.69248843193054,257.06393933296204,1,1.5177268981933594,None,,,,,,,,,,,,,,,,,,62,4,2025-02-19_16h53.20.110,comp,2024.2.4,57.47802933441867,2025-02-19 16h53.33.158907 -0500,
76,76,0,filler_square,None,None,None,None,None,None,None,None,None,None,3,2.3011186122894287,None,,,,,0,0,0,0,0,76,76,203,257.0806202888489,,,,,,,,,,,,,,,,,,,,,,,,,,,,,,,,,,,,,,,,,,,,,,,,,,,,,,,,,,,,,,,,,,,,,,,,,,,,,,,,,181.2136273376154,181.2136273376154,149.4918611820247,101.98966232526914,178.98102285234637,165.19665015585653,4.0,4.2,-238,-11,0,-269,230,-7,257.06608414649963,257.06619000434875,257.0690231323242,257.0806202888489,257.2273619174957,257.2273619174957,257.2273619174957,257.2273619174957,257.2273619174957,257.2273619174957,257.2273619174957,259.3956081867218,3,2.3011186122894287,None,,,,,,,,,,,,,,,,,,62,4,2025-02-19_16h53.20.110,comp,2024.2.4,57.47802933441867,2025-02-19 16h53.33.158907 -0500,
77,77,0,filler_random,None,None,None,None,None,None,None,None,None,None,2,1.7091343402862549,None,,,,,0,0,0,0,0,77,77,165,259.40979981422424,,,,,,,,,,,,,,,,,,,,,,,,,,,,,,,,,,,,,,,,,,,,,,,,,,,,,,,,,,,,,,,,,,,,,,,,,,,,,,,,,142.92568978796805,190.05038200660874,157.698084002843,197.0133948095402,122.9100313105212,125.32025656771503,3.0,3.1,-290,272,0,-20,257,-288,259.397353887558,259.3974332809448,259.40072226524353,259.40979981422424,259.5610375404358,259.5610375404358,259.5610375404358,259.5610375404358,259.5610375404358,259.5610375404358,259.5610375404358,261.1296007633209,2,1.7091343402862549,None,,,,,,,,,,,,,,,,,,62,4,2025-02-19_16h53.20.110,comp,2024.2.4,57.47802933441867,2025-02-19 16h53.33.158907 -0500,
78,78,0,filler_square,None,None,None,None,None,None,None,None,None,None,2,1.3556344509124756,None,,,,,0,0,0,0,0,78,78,174,261.14619755744934,,,,,,,,,,,,,,,,,,,,,,,,,,,,,,,,,,,,,,,,,,,,,,,,,,,,,,,,,,,,,,,,,,,,,,,,,,,,,,,,,140.72316570414887,126.29453565338657,143.68138675936746,143.68138675936746,100.34080907687778,120.21320849991267,4.0,4.2,-231,-9,0,-282,228,13,261.13148832321167,261.1315677165985,261.1352126598358,261.14619755744934,261.29899287223816,261.29899287223816,261.29899287223816,261.29899287223816,261.29899287223816,261.29899287223816,261.29899287223816,262.5187735557556,2,1.3556344509124756,None,,,,,,,,,,,,,,,,,,62,4,2025-02-19_16h53.20.110,comp,2024.2.4,57.47802933441867,2025-02-19 16h53.33.158907 -0500,
79,79,0,critical,dhw,20.0,4.0,upper,141.0,141.0,200.0,125.0,125.0,200.0,3,2.2155916690826416,None,,,,,0,0,0,0,0,79,79,59,262.5340518951416,,,,,,,,,,,,,,,,,,,,,,,,,,,,,,,,,,,,,,,,,,,,,,,,,,,,,,,,,,,,,,,,,,,,,,,,,,,,,,,,,141.0,141.0,200.0,125.0,125.0,200.0,4.0,4.2,-229,-3,0,-256,258,-2,262.5202603340149,262.52033734321594,262.5232081413269,262.5340518951416,262.6801166534424,262.6801166534424,262.6801166534424,262.6801166534424,262.6801166534424,262.6801166534424,262.6801166534424,264.76334047317505,3,2.2155916690826416,None,,,,,,,,,,,,,,,,,,62,4,2025-02-19_16h53.20.110,comp,2024.2.4,57.47802933441867,2025-02-19 16h53.33.158907 -0500,
80,80,0,critical,wdh,35.0,2.1,lower,57.0,133.0,70.0,70.0,133.0,57.0,3,5.131069660186768,None,,,,,0,0,0,0,0,80,80,8,264.77932119369507,,,,,,,,,,,,,,,,,,,,,,,,,,,,,,,,,,,,,,,,,,,,,,,,,,,,,,,,,,,,,,,,,,,,,,,,,,,,,,,,,57.0,133.0,70.0,70.0,133.0,57.0,2.1,2.12,-198,-272,0,-271,160,267,264.76491808891296,264.764995098114,264.76846528053284,264.77932119369507,264.9325141906738,264.9325141906738,264.9325141906738,264.9325141906738,264.9325141906738,264.9325141906738,264.9325141906738,269.9155788421631,3,5.131069660186768,None,,,,,,,,,,,,,,,,,,62,4,2025-02-19_16h53.20.110,comp,2024.2.4,57.47802933441867,2025-02-19 16h53.33.158907 -0500,
81,81,0,critical,dhw,20.0,4.0,lower,78.0,78.0,133.0,57.0,57.0,133.0,3,1.627274513244629,None,,,,,0,0,0,0,0,81,81,58,269.9316885471344,,,,,,,,,,,,,,,,,,,,,,,,,,,,,,,,,,,,,,,,,,,,,,,,,,,,,,,,,,,,,,,,,,,,,,,,,,,,,,,,,78.0,78.0,133.0,57.0,57.0,133.0,4.0,4.1,-164,-260,0,-4,191,-273,269.91720938682556,269.917316198349,269.92076659202576,269.9316885471344,270.0800802707672,270.0800802707672,270.0800802707672,270.0800802707672,270.0800802707672,270.0800802707672,270.0800802707672,271.56922721862793,3,1.627274513244629,None,,,,,,,,,,,,,,,,,,62,4,2025-02-19_16h53.20.110,comp,2024.2.4,57.47802933441867,2025-02-19 16h53.33.158907 -0500,
82,82,0,filler_square,None,None,None,None,None,None,None,None,None,None,1,5.109231233596802,None,,,,,0,0,0,0,0,82,82,173,271.58566093444824,,,,,,,,,,,,,,,,,,,,,,,,,,,,,,,,,,,,,,,,,,,,,,,,,,,,,,,,,,,,,,,,,,,,,,,,,,,,,,,,,71.33124581881789,71.61061689753107,71.39327371940878,72.82962198436917,73.61315572707773,73.61315572707773,2.1,2.11,-168,268,0,289,169,-251,271.57110476493835,271.5712399482727,271.57453322410583,271.58566093444824,271.73757123947144,271.73757123947144,271.73757123947144,271.73757123947144,271.73757123947144,271.73757123947144,271.73757123947144,276.69943475723267,1,5.109231233596802,None,,,,,,,,,,,,,,,,,,62,4,2025-02-19_16h53.20.110,comp,2024.2.4,57.47802933441867,2025-02-19 16h53.33.158907 -0500,
83,83,0,critical,whd,20.0,3.0,lower,57.0,133.0,133.0,57.0,78.0,78.0,3,6.465558290481567,None,,,,,0,0,0,0,0,83,83,92,276.71637749671936,,,,,,,,,,,,,,,,,,,,,,,,,,,,,,,,,,,,,,,,,,,,,,,,,,,,,,,,,,,,,,,,,,,,,,,,,,,,,,,,,57.0,133.0,133.0,57.0,78.0,78.0,3.0,3.1,-191,255,0,-7,164,-265,276.7010428905487,276.70114374160767,276.7045090198517,276.71637749671936,276.87173342704773,276.87173342704773,276.87173342704773,276.87173342704773,276.87173342704773,276.87173342704773,276.87173342704773,283.1866948604584,3,6.465558290481567,None,,,,,,,,,,,,,,,,,,62,4,2025-02-19_16h53.20.110,comp,2024.2.4,57.47802933441867,2025-02-19 16h53.33.158907 -0500,
84,84,0,critical,dwh,20.0,3.0,upper,141.0,141.0,125.0,200.0,200.0,125.0,2,1.8397085666656494,None,,,,,0,0,0,0,0,84,84,69,283.2068407535553,,,,,,,,,,,,,,,,,,,,,,,,,,,,,,,,,,,,,,,,,,,,,,,,,,,,,,,,,,,,,,,,,,,,,,,,,,,,,,,,,141.0,141.0,125.0,200.0,200.0,125.0,3.0,3.2,-266,-265,0,17,258,253,283.18821454048157,283.1882972717285,283.19112253189087,283.2068407535553,283.35454988479614,283.35454988479614,283.35454988479614,283.35454988479614,283.35454988479614,283.35454988479614,283.35454988479614,285.054744720459,2,1.8397085666656494,None,,,,,,,,,,,,,,,,,,62,4,2025-02-19_16h53.20.110,comp,2024.2.4,57.47802933441867,2025-02-19 16h53.33.158907 -0500,
85,85,0,filler_random,None,None,None,None,None,None,None,None,None,None,2,1.3988757133483887,None,,,,,0,0,0,0,0,85,85,145,285.0710563659668,,,,,,,,,,,,,,,,,,,,,,,,,,,,,,,,,,,,,,,,,,,,,,,,,,,,,,,,,,,,,,,,,,,,,,,,,,,,,,,,,106.04011020996992,128.4947699178657,198.8783307884021,133.89931288786158,76.85576640393393,116.3884315534272,2.1,2.11,-227,260,0,282,221,-262,285.05678606033325,285.0568690299988,285.06033849716187,285.0710563659668,285.22113275527954,285.22113275527954,285.22113275527954,285.22113275527954,285.22113275527954,285.22113275527954,285.22113275527954,286.4730784893036,2,1.3988757133483887,None,,,,,,,,,,,,,,,,,,62,4,2025-02-19_16h53.20.110,comp,2024.2.4,57.47802933441867,2025-02-19 16h53.33.158907 -0500,
86,86,0,filler_random,None,None,None,None,None,None,None,None,None,None,1,2.2520899772644043,None,,,,,0,0,0,0,0,86,86,141,286.4897599220276,,,,,,,,,,,,,,,,,,,,,,,,,,,,,,,,,,,,,,,,,,,,,,,,,,,,,,,,,,,,,,,,,,,,,,,,,,,,,,,,,145.2408704570482,170.7268130006422,100.70739874233965,57.65875723542326,129.11984224988635,127.88016282983492,1.0,1.1,-690,273,-480,273,-291,290,286.47511172294617,286.4752719402313,286.47878098487854,286.4897599220276,286.6384470462799,286.6384470462799,286.6384470462799,286.6384470462799,286.6384470462799,286.6384470462799,286.6384470462799,288.7546944618225,1,2.2520899772644043,None,,,,,,,,,,,,,,,,,,62,4,2025-02-19_16h53.20.110,comp,2024.2.4,57.47802933441867,2025-02-19 16h53.33.158907 -0500,
87,87,0,critical,hdw,35.0,2.1,lower,133.0,57.0,70.0,70.0,57.0,133.0,1,2.3555073738098145,None,,,,,0,0,0,0,0,87,87,44,288.7702453136444,,,,,,,,,,,,,,,,,,,,,,,,,,,,,,,,,,,,,,,,,,,,,,,,,,,,,,,,,,,,,,,,,,,,,,,,,,,,,,,,,133.0,57.0,70.0,70.0,57.0,133.0,2.1,2.11,-160,274,0,285,198,-287,288.75626397132874,288.75638031959534,288.75987219810486,288.7702453136444,288.9282639026642,288.9282639026642,288.9282639026642,288.9282639026642,288.9282639026642,288.9282639026642,288.9282639026642,291.14059710502625,1,2.3555073738098145,None,,,,,,,,,,,,,,,,,,62,4,2025-02-19_16h53.20.110,comp,2024.2.4,57.47802933441867,2025-02-19 16h53.33.158907 -0500,
88,88,0,filler_random,None,None,None,None,None,None,None,None,None,None,1,1.1204297542572021,None,,,,,0,0,0,0,0,88,88,162,291.1573255062103,,,,,,,,,,,,,,,,,,,,,,,,,,,,,,,,,,,,,,,,,,,,,,,,,,,,,,,,,,,,,,,,,,,,,,,,,,,,,,,,,165.00597897184906,146.28279083130013,165.8696130282164,85.23033175971653,68.71677981047793,76.38331423545364,2.1,2.12,-212,-288,0,-267,177,289,291.14267921447754,291.1427640914917,291.1460964679718,291.1573255062103,291.3048996925354,291.3048996925354,291.3048996925354,291.3048996925354,291.3048996925354,291.3048996925354,291.3048996925354,292.2909588813782,1,1.1204297542572021,None,,,,,,,,,,,,,,,,,,62,4,2025-02-19_16h53.20.110,comp,2024.2.4,57.47802933441867,2025-02-19 16h53.33.158907 -0500,
89,89,0,critical,hdw,20.0,3.0,lower,133.0,57.0,78.0,78.0,57.0,133.0,3,3.9933862686157227,None,,,,,0,0,0,0,0,89,89,116,292.30907678604126,,,,,,,,,,,,,,,,,,,,,,,,,,,,,,,,,,,,,,,,,,,,,,,,,,,,,,,,,,,,,,,,,,,,,,,,,,,,,,,,,133.0,57.0,78.0,78.0,57.0,133.0,3.0,3.2,-164,-276,0,4,202,259,292.29269647598267,292.2927782535553,292.29573154449463,292.30907678604126,292.4546899795532,292.4546899795532,292.4546899795532,292.4546899795532,292.4546899795532,292.4546899795532,292.4546899795532,296.3071129322052,3,3.9933862686157227,None,,,,,,,,,,,,,,,,,,62,4,2025-02-19_16h53.20.110,comp,2024.2.4,57.47802933441867,2025-02-19 16h53.33.158907 -0500,
90,90,0,critical,dwh,35.0,3.0,lower,70.0,70.0,57.0,133.0,133.0,57.0,2,1.234210729598999,None,,,,,0,0,0,0,0,90,90,62,296.32349276542664,,,,,,,,,,,,,,,,,,,,,,,,,,,,,,,,,,,,,,,,,,,,,,,,,,,,,,,,,,,,,,,,,,,,,,,,,,,,,,,,,70.0,70.0,57.0,133.0,133.0,57.0,3.0,3.2,-198,-279,0,-19,191,290,296.30868792533875,296.30876660346985,296.3120849132538,296.32349276542664,296.47282576560974,296.47282576560974,296.47282576560974,296.47282576560974,296.47282576560974,296.47282576560974,296.47282576560974,297.5719816684723,2,1.234210729598999,None,,,,,,,,,,,,,,,,,,62,4,2025-02-19_16h53.20.110,comp,2024.2.4,57.47802933441867,2025-02-19 16h53.33.158907 -0500,
91,91,0,filler_random,None,None,None,None,None,None,None,None,None,None,1,1.153080701828003,None,,,,,0,0,0,0,0,91,91,169,297.5886483192444,,,,,,,,,,,,,,,,,,,,,,,,,,,,,,,,,,,,,,,,,,,,,,,,,,,,,,,,,,,,,,,,,,,,,,,,,,,,,,,,,138.0333390221066,188.34655934449088,68.8053359109009,94.29028221987448,90.42723281810751,142.53423661794542,4.0,4.2,-237,-1,0,-268,214,20,297.5738990306854,297.5739817619324,297.5771737098694,297.5886483192444,297.7293155193329,297.7293155193329,297.7293155193329,297.7293155193329,297.7293155193329,297.7293155193329,297.7293155193329,298.7533030509949,1,1.153080701828003,None,,,,,,,,,,,,,,,,,,62,4,2025-02-19_16h53.20.110,comp,2024.2.4,57.47802933441867,2025-02-19 16h53.33.158907 -0500,
92,92,0,filler_square,None,None,None,None,None,None,None,None,None,None,1,2.0554964542388916,None,,,,,0,0,0,0,0,92,92,176,298.7742910385132,,,,,,,,,,,,,,,,,,,,,,,,,,,,,,,,,,,,,,,,,,,,,,,,,,,,,,,,,,,,,,,,,,,,,,,,,,,,,,,,,69.37094230178633,69.37094230178633,66.4235063734897,60.003748300928876,62.44360086304232,63.40612302681974,2.2,2.22,-161,281,0,-284,158,-285,298.75534105300903,298.7554199695587,298.7586646080017,298.7742910385132,298.90775179862976,298.90775179862976,298.90775179862976,298.90775179862976,298.90775179862976,298.90775179862976,298.90775179862976,300.84059262275696,1,2.0554964542388916,None,,,,,,,,,,,,,,,,,,62,4,2025-02-19_16h53.20.110,comp,2024.2.4,57.47802933441867,2025-02-19 16h53.33.158907 -0500,
93,93,0,critical,hdw,20.0,1.0,upper,200.0,125.0,141.0,141.0,125.0,200.0,1,3.1373507976531982,None,,,,,0,0,0,0,0,93,93,115,300.86027908325195,,,,,,,,,,,,,,,,,,,,,,,,,,,,,,,,,,,,,,,,,,,,,,,,,,,,,,,,,,,,,,,,,,,,,,,,,,,,,,,,,200.0,125.0,141.0,141.0,125.0,200.0,1.0,1.2,-229,10,0,-8,266,-1,300.84208822250366,300.8421883583069,300.84524416923523,300.86027908325195,301.0079529285431,301.0079529285431,301.0079529285431,301.0079529285431,301.0079529285431,301.0079529285431,301.0079529285431,304.00860142707825,1,3.1373507976531982,None,,,,,,,,,,,,,,,,,,62,4,2025-02-19_16h53.20.110,comp,2024.2.4,57.47802933441867,2025-02-19 16h53.33.158907 -0500,
94,94,0,critical,dhw,35.0,4.0,upper,127.0,127.0,200.0,125.0,125.0,200.0,3,1.9319918155670166,None,,,,,0,0,0,0,0,94,94,53,304.02564311027527,,,,,,,,,,,,,,,,,,,,,,,,,,,,,,,,,,,,,,,,,,,,,,,,,,,,,,,,,,,,,,,,,,,,,,,,,,,,,,,,,127.0,127.0,200.0,125.0,125.0,200.0,4.0,4.1,-222,-252,0,-19,258,-289,304.0101857185364,304.01026678085327,304.01339983940125,304.02564311027527,304.17392683029175,304.17392683029175,304.17392683029175,304.17392683029175,304.17392683029175,304.17392683029175,304.17392683029175,305.9749336242676,3,1.9319918155670166,None,,,,,,,,,,,,,,,,,,62,4,2025-02-19_16h53.20.110,comp,2024.2.4,57.47802933441867,2025-02-19 16h53.33.158907 -0500,
95,95,0,critical,hdw,35.0,2.1,upper,200.0,125.0,127.0,127.0,125.0,200.0,3,1.7581660747528076,None,,,,,0,0,0,0,0,95,95,45,305.99196600914,,,,,,,,,,,,,,,,,,,,,,,,,,,,,,,,,,,,,,,,,,,,,,,,,,,,,,,,,,,,,,,,,,,,,,,,,,,,,,,,,200.0,125.0,127.0,127.0,125.0,200.0,2.1,2.12,-222,-273,0,-267,260,274,305.9765832424164,305.976660490036,305.97997093200684,305.99196600914,306.14626264572144,306.14626264572144,306.14626264572144,306.14626264572144,306.14626264572144,306.14626264572144,306.14626264572144,307.7638909816742,3,1.7581660747528076,None,,,,,,,,,,,,,,,,,,62,4,2025-02-19_16h53.20.110,comp,2024.2.4,57.47802933441867,2025-02-19 16h53.33.158907 -0500,
96,96,0,critical,dhw,35.0,4.0,lower,70.0,70.0,133.0,57.0,57.0,133.0,3,3.075228214263916,None,,,,,0,0,0,0,0,96,96,52,307.77937746047974,,,,,,,,,,,,,,,,,,,,,,,,,,,,,,,,,,,,,,,,,,,,,,,,,,,,,,,,,,,,,,,,,,,,,,,,,,,,,,,,,70.0,70.0,133.0,57.0,57.0,133.0,4.0,4.2,-160,-13,0,-261,191,0,307.76549315452576,307.7655739784241,307.7689678668976,307.77937746047974,307.92650270462036,307.92650270462036,307.92650270462036,307.92650270462036,307.92650270462036,307.92650270462036,307.92650270462036,310.86172747612,3,3.075228214263916,None,,,,,,,,,,,,,,,,,,62,4,2025-02-19_16h53.20.110,comp,2024.2.4,57.47802933441867,2025-02-19 16h53.33.158907 -0500,
97,97,0,filler_square,None,None,None,None,None,None,None,None,None,None,3,3.3763461112976074,None,,,,,0,0,0,0,0,97,97,175,310.8781313896179,,,,,,,,,,,,,,,,,,,,,,,,,,,,,,,,,,,,,,,,,,,,,,,,,,,,,,,,,,,,,,,,,,,,,,,,,,,,,,,,,65.11281820870214,65.06704477448933,66.82963482178361,66.82963482178361,65.57720421351254,59.58490840204906,3.0,3.1,-162,259,0,-16,159,-270,310.86361861228943,310.86370182037354,310.867312669754,310.8781313896179,311.02702140808105,311.02702140808105,311.02702140808105,311.02702140808105,311.02702140808105,311.02702140808105,311.02702140808105,314.2615683078766,3,3.3763461112976074,None,,,,,,,,,,,,,,,,,,62,4,2025-02-19_16h53.20.110,comp,2024.2.4,57.47802933441867,2025-02-19 16h53.33.158907 -0500,
98,98,0,filler_random,None,None,None,None,None,None,None,None,None,None,2,3.2009308338165283,None,,,,,0,0,0,0,0,98,98,160,314.2777533531189,,,,,,,,,,,,,,,,,,,,,,,,,,,,,,,,,,,,,,,,,,,,,,,,,,,,,,,,,,,,,,,,,,,,,,,,,,,,,,,,,69.11549501450622,102.46984510130868,123.61502246659055,112.80007188364434,61.05660635292839,88.95468555456972,2.1,2.11,-204,283,0,267,197,-277,314.2633202075958,314.2633991241455,314.2664134502411,314.2777533531189,314.4344313144684,314.4344313144684,314.4344313144684,314.4344313144684,314.4344313144684,314.4344313144684,314.4344313144684,317.485178232193,2,3.2009308338165283,None,,,,,,,,,,,,,,,,,,62,4,2025-02-19_16h53.20.110,comp,2024.2.4,57.47802933441867,2025-02-19 16h53.33.158907 -0500,
99,99,0,critical,dhw,35.0,2.1,lower,70.0,70.0,133.0,57.0,57.0,133.0,3,3.572883129119873,None,,,,,0,0,0,0,0,99,99,0,317.50537061691284,,,,,,,,,,,,,,,,,,,,,,,,,,,,,,,,,,,,,,,,,,,,,,,,,,,,,,,,,,,,,,,,,,,,,,,,,,,,,,,,,70.0,70.0,133.0,57.0,57.0,133.0,2.1,2.12,-160,-278,0,-290,191,280,317.4867191314697,317.4868001937866,317.48964762687683,317.50537061691284,317.647287607193,317.647287607193,317.647287607193,317.647287607193,317.647287607193,317.647287607193,317.647287607193,321.09728717803955,3,3.572883129119873,None,,,,,,,,,,,,,,,,,,62,4,2025-02-19_16h53.20.110,comp,2024.2.4,57.47802933441867,2025-02-19 16h53.33.158907 -0500,
100,100,0,filler_square,None,None,None,None,None,None,None,None,None,None,2,1.1097230911254883,None,,,,,0,0,0,0,0,100,100,207,321.1207468509674,,,,,,,,,,,,,,,,,,,,,,,,,,,,,,,,,,,,,,,,,,,,,,,,,,,,,,,,,,,,,,,,,,,,,,,,,,,,,,,,,61.79747983149536,121.60857723789852,147.74979203993482,147.74979203993482,137.58485631054475,126.22435061344537,3.0,3.2,-231,-275,0,2,233,289,321.0992338657379,321.0993127822876,321.1026635169983,321.1207468509674,321.2659616470337,321.2659616470337,321.2659616470337,321.2659616470337,321.2659616470337,321.2659616470337,321.2659616470337,322.2462430000305,2,1.1097230911254883,None,,,,,,,,,,,,,,,,,,62,4,2025-02-19_16h53.20.110,comp,2024.2.4,57.47802933441867,2025-02-19 16h53.33.158907 -0500,
101,101,0,filler_random,None,None,None,None,None,None,None,None,None,None,2,1.0488026142120361,None,,,,,0,0,0,0,0,101,101,156,322.2618432044983,,,,,,,,,,,,,,,,,,,,,,,,,,,,,,,,,,,,,,,,,,,,,,,,,,,,,,,,,,,,,,,,,,,,,,,,,,,,,,,,,78.09972255787383,130.3757444649848,143.5388988151476,148.09062210264523,82.89182725283936,96.95045021279108,2.2,2.22,-235,275,0,-254,219,-260,322.24817514419556,322.2482645511627,322.2514717578888,322.2618432044983,322.41108655929565,322.41108655929565,322.41108655929565,322.41108655929565,322.41108655929565,322.41108655929565,322.41108655929565,323.31823778152466,2,1.0488026142120361,None,,,,,,,,,,,,,,,,,,62,4,2025-02-19_16h53.20.110,comp,2024.2.4,57.47802933441867,2025-02-19 16h53.33.158907 -0500,
102,102,0,filler_random,None,None,None,None,None,None,None,None,None,None,3,1.9965546131134033,None,,,,,0,0,0,0,0,102,102,151,323.3372631072998,,,,,,,,,,,,,,,,,,,,,,,,,,,,,,,,,,,,,,,,,,,,,,,,,,,,,,,,,,,,,,,,,,,,,,,,,,,,,,,,,113.07744459849438,186.93541597618704,79.87252413835105,64.92486032111243,149.69790660169326,131.38968430181993,1.0,1.2,-222,-1,0,9,194,-3,323.32012915611267,323.32024693489075,323.3231806755066,323.3372631072998,323.48219203948975,323.48219203948975,323.48219203948975,323.48219203948975,323.48219203948975,323.48219203948975,323.48219203948975,325.3491222858429,3,1.9965546131134033,None,,,,,,,,,,,,,,,,,,62,4,2025-02-19_16h53.20.110,comp,2024.2.4,57.47802933441867,2025-02-19 16h53.33.158907 -0500,
103,103,0,critical,whd,20.0,4.0,lower,57.0,133.0,133.0,57.0,78.0,78.0,3,2.71484375,None,,,,,0,0,0,0,0,103,103,94,325.36361265182495,,,,,,,,,,,,,,,,,,,,,,,,,,,,,,,,,,,,,,,,,,,,,,,,,,,,,,,,,,,,,,,,,,,,,,,,,,,,,,,,,57.0,133.0,133.0,57.0,78.0,78.0,4.0,4.2,-191,20,0,-271,164,-19,325.3508355617523,325.3509178161621,325.3544042110443,325.36361265182495,325.51619577407837,325.51619577407837,325.51619577407837,325.51619577407837,325.51619577407837,325.51619577407837,325.51619577407837,328.08421182632446,3,2.71484375,None,,,,,,,,,,,,,,,,,,62,4,2025-02-19_16h53.20.110,comp,2024.2.4,57.47802933441867,2025-02-19 16h53.33.158907 -0500,
104,104,0,critical,whd,20.0,2.1,lower,57.0,133.0,133.0,57.0,78.0,78.0,3,2.8585219383239746,None,,,,,0,0,0,0,0,104,104,14,328.1000168323517,,,,,,,,,,,,,,,,,,,,,,,,,,,,,,,,,,,,,,,,,,,,,,,,,,,,,,,,,,,,,,,,,,,,,,,,,,,,,,,,,57.0,133.0,133.0,57.0,78.0,78.0,2.1,2.12,-191,-262,0,-254,164,279,328.0857412815094,328.08582305908203,328.0891830921173,328.1000168323517,328.249210357666,328.249210357666,328.249210357666,328.249210357666,328.249210357666,328.249210357666,328.249210357666,330.9668011665344,3,2.8585219383239746,None,,,,,,,,,,,,,,,,,,62,4,2025-02-19_16h53.20.110,comp,2024.2.4,57.47802933441867,2025-02-19 16h53.33.158907 -0500,
105,105,0,critical,whd,35.0,3.0,upper,125.0,200.0,200.0,125.0,127.0,127.0,1,2.6311028003692627,None,,,,,0,0,0,0,0,105,105,87,330.9835968017578,,,,,,,,,,,,,,,,,,,,,,,,,,,,,,,,,,,,,,,,,,,,,,,,,,,,,,,,,,,,,,,,,,,,,,,,,,,,,,,,,125.0,200.0,200.0,125.0,127.0,127.0,3.0,3.1,-258,282,0,16,222,-270,330.9684274196625,330.96850776672363,330.971745967865,330.9835968017578,331.1313829421997,331.1313829421997,331.1313829421997,331.1313829421997,331.1313829421997,331.1313829421997,331.1313829421997,333.62073373794556,1,2.6311028003692627,None,,,,,,,,,,,,,,,,,,62,4,2025-02-19_16h53.20.110,comp,2024.2.4,57.47802933441867,2025-02-19 16h53.33.158907 -0500,
106,106,0,filler_square,None,None,None,None,None,None,None,None,None,None,1,1.872586727142334,None,,,,,0,0,0,0,0,106,106,178,333.6373176574707,,,,,,,,,,,,,,,,,,,,,,,,,,,,,,,,,,,,,,,,,,,,,,,,,,,,,,,,,,,,,,,,,,,,,,,,,,,,,,,,,159.32951496813456,159.32951496813456,154.26952382446214,155.52469383977802,76.27097992378528,112.54697528906696,2.1,2.12,-253,-284,0,-254,230,273,333.62278962135315,333.62287068367004,333.6264011859894,333.6373176574707,333.79040718078613,333.79040718078613,333.79040718078613,333.79040718078613,333.79040718078613,333.79040718078613,333.79040718078613,335.5254156589508,1,1.872586727142334,None,,,,,,,,,,,,,,,,,,62,4,2025-02-19_16h53.20.110,comp,2024.2.4,57.47802933441867,2025-02-19 16h53.33.158907 -0500,
107,107,0,critical,dhw,35.0,2.1,upper,127.0,127.0,200.0,125.0,125.0,200.0,3,1.6407501697540283,None,,,,,0,0,0,0,0,107,107,25,335.54090881347656,,,,,,,,,,,,,,,,,,,,,,,,,,,,,,,,,,,,,,,,,,,,,,,,,,,,,,,,,,,,,,,,,,,,,,,,,,,,,,,,,127.0,127.0,200.0,125.0,125.0,200.0,2.1,2.11,-222,261,0,256,258,-276,335.5268816947937,335.52695989608765,335.52982115745544,335.54090881347656,335.6865963935852,335.6865963935852,335.6865963935852,335.6865963935852,335.6865963935852,335.6865963935852,335.6865963935852,337.1939935684204,3,1.6407501697540283,None,,,,,,,,,,,,,,,,,,62,4,2025-02-19_16h53.20.110,comp,2024.2.4,57.47802933441867,2025-02-19 16h53.33.158907 -0500,
108,108,0,filler_square,None,None,None,None,None,None,None,None,None,None,1,1.080049753189087,None,,,,,0,0,0,0,0,108,108,190,337.2147169113159,,,,,,,,,,,,,,,,,,,,,,,,,,,,,,,,,,,,,,,,,,,,,,,,,,,,,,,,,,,,,,,,,,,,,,,,,,,,,,,,,194.00488040016407,194.00488040016407,115.18135610510338,122.751987873541,62.103534617237344,72.66924978309774,2.1,2.11,-254,255,0,284,194,-281,337.1960611343384,337.19614124298096,337.19931149482727,337.2147169113159,337.35652446746826,337.35652446746826,337.35652446746826,337.35652446746826,337.35652446746826,337.35652446746826,337.35652446746826,338.3048403263092,1,1.080049753189087,None,,,,,,,,,,,,,,,,,,62,4,2025-02-19_16h53.20.110,comp,2024.2.4,57.47802933441867,2025-02-19 16h53.33.158907 -0500,
109,109,0,filler_random,None,None,None,None,None,None,None,None,None,None,3,1.3557639122009277,None,,,,,0,0,0,0,0,109,109,163,338.3227972984314,,,,,,,,,,,,,,,,,,,,,,,,,,,,,,,,,,,,,,,,,,,,,,,,,,,,,,,,,,,,,,,,,,,,,,,,,,,,,,,,,157.5765973882502,130.55431492517425,95.45158295599029,184.1162580430476,197.08322802086508,191.2825279102239,4.0,4.1,-253,-259,0,19,284,-278,338.3066477775574,338.306743144989,338.30986976623535,338.3227972984314,338.469927072525,338.469927072525,338.469927072525,338.469927072525,338.469927072525,338.469927072525,338.469927072525,339.6864004135132,3,1.3557639122009277,None,,,,,,,,,,,,,,,,,,62,4,2025-02-19_16h53.20.110,comp,2024.2.4,57.47802933441867,2025-02-19 16h53.33.158907 -0500,
110,110,0,critical,whd,20.0,1.0,upper,125.0,200.0,200.0,125.0,141.0,141.0,1,2.3118879795074463,None,,,,,0,0,0,0,0,110,110,91,339.7033495903015,,,,,,,,,,,,,,,,,,,,,,,,,,,,,,,,,,,,,,,,,,,,,,,,,,,,,,,,,,,,,,,,,,,,,,,,,,,,,,,,,125.0,200.0,200.0,125.0,141.0,141.0,1.0,1.3,222,-273,480,-286,709,-252,339.68805027008057,339.68813037872314,339.69143295288086,339.7033495903015,339.85198187828064,339.85198187828064,339.85198187828064,339.85198187828064,339.85198187828064,339.85198187828064,339.85198187828064,342.01959109306335,1,2.3118879795074463,None,,,,,,,,,,,,,,,,,,62,4,2025-02-19_16h53.20.110,comp,2024.2.4,57.47802933441867,2025-02-19 16h53.33.158907 -0500,
111,111,0,filler_random,None,None,None,None,None,None,None,None,None,None,2,1.7388291358947754,None,,,,,0,0,0,0,0,111,111,164,342.03531217575073,,,,,,,,,,,,,,,,,,,,,,,,,,,,,,,,,,,,,,,,,,,,,,,,,,,,,,,,,,,,,,,,,,,,,,,,,,,,,,,,,134.3537012010195,95.58273136511326,176.01245016415146,125.64423302875062,104.27410303922436,141.03011091812343,2.2,2.21,-207,-270,0,281,229,286,342.02126240730286,342.02134227752686,342.02418541908264,342.03531217575073,342.19303584098816,342.19303584098816,342.19303584098816,342.19303584098816,342.19303584098816,342.19303584098816,342.19303584098816,343.79397678375244,2,1.7388291358947754,None,,,,,,,,,,,,,,,,,,62,4,2025-02-19_16h53.20.110,comp,2024.2.4,57.47802933441867,2025-02-19 16h53.33.158907 -0500,
112,112,0,critical,dwh,35.0,4.0,upper,127.0,127.0,125.0,200.0,200.0,125.0,2,1.6582255363464355,None,,,,,0,0,0,0,0,112,112,65,343.81174302101135,,,,,,,,,,,,,,,,,,,,,,,,,,,,,,,,,,,,,,,,,,,,,,,,,,,,,,,,,,,,,,,,,,,,,,,,,,,,,,,,,127.0,127.0,125.0,200.0,200.0,125.0,4.0,4.2,-260,9,0,-263,258,15,343.79561972618103,343.79571890830994,343.7989785671234,343.81174302101135,343.9552369117737,343.9552369117737,343.9552369117737,343.9552369117737,343.9552369117737,343.9552369117737,343.9552369117737,345.472900390625,2,1.6582255363464355,None,,,,,,,,,,,,,,,,,,62,4,2025-02-19_16h53.20.110,comp,2024.2.4,57.47802933441867,2025-02-19 16h53.33.158907 -0500,
113,113,0,filler_random,None,None,None,None,None,None,None,None,None,None,3,1.7549490928649902,None,,,,,0,0,0,0,0,113,113,134,345.4910509586334,,,,,,,,,,,,,,,,,,,,,,,,,,,,,,,,,,,,,,,,,,,,,,,,,,,,,,,,,,,,,,,,,,,,,,,,,,,,,,,,,72.9357056635456,189.56499073927415,168.35226092863996,73.86776447738163,116.85623196737352,136.7811259879156,3.0,3.1,-228,282,0,0,201,-277,345.4745547771454,345.4746344089508,345.4775447845459,345.4910509586334,345.6395399570465,345.6395399570465,345.6395399570465,345.6395399570465,345.6395399570465,345.6395399570465,345.6395399570465,347.25543689727783,3,1.7549490928649902,None,,,,,,,,,,,,,,,,,,62,4,2025-02-19_16h53.20.110,comp,2024.2.4,57.47802933441867,2025-02-19 16h53.33.158907 -0500,
114,114,0,critical,dhw,35.0,1.0,upper,127.0,127.0,200.0,125.0,125.0,200.0,3,1.5698280334472656,None,,,,,0,0,0,0,0,114,114,49,347.2758882045746,,,,,,,,,,,,,,,,,,,,,,,,,,,,,,,,,,,,,,,,,,,,,,,,,,,,,,,,,,,,,,,,,,,,,,,,,,,,,,,,,127.0,127.0,200.0,125.0,125.0,200.0,1.0,1.2,-222,12,0,-5,258,18,347.2568817138672,347.256959438324,347.260142326355,347.2758882045746,347.4240987300873,347.4240987300873,347.4240987300873,347.4240987300873,347.4240987300873,347.4240987300873,347.4240987300873,348.86093950271606,3,1.5698280334472656,None,,,,,,,,,,,,,,,,,,62,4,2025-02-19_16h53.20.110,comp,2024.2.4,57.47802933441867,2025-02-19 16h53.33.158907 -0500,
115,115,0,catch,None,None,None,None,None,None,None,None,None,None,2,1.0925488471984863,None,,,,,0,0,0,0,0,115,115,129,348.8819749355316,,,,,,,,,,,,,,,,,,,,,,,,,,,,,,,,,,,,,,,,,,,,,,,,,,,,,,,,,,,,,,,,,,,,,,,,,,,,,,,,,122,68,170,155,74,116,1.0,1.1,-688,263,-480,275,-248,281,348.8632068634033,348.86329102516174,348.86666798591614,348.8819749355316,349.02370858192444,349.02370858192444,349.02370858192444,349.02370858192444,349.02370858192444,349.02370858192444,349.02370858192444,349.99062490463257,2,1.0925488471984863,None,,,,,,,,,,,,,,,,,,62,4,2025-02-19_16h53.20.110,comp,2024.2.4,57.47802933441867,2025-02-19 16h53.33.158907 -0500,
116,116,0,filler_square,None,None,None,None,None,None,None,None,None,None,2,1.9674301147460938,None,,,,,0,0,0,0,0,116,116,171,350.00635147094727,,,,,,,,,,,,,,,,,,,,,,,,,,,,,,,,,,,,,,,,,,,,,,,,,,,,,,,,,,,,,,,,,,,,,,,,,,,,,,,,,111.00251139436506,111.00251139436506,106.2392019708803,96.08102563092692,84.1942535630109,99.99970469016168,3.0,3.1,-200,269,0,14,194,-274,349.99250960350037,349.992623090744,349.9959149360657,350.00635147094727,350.16306042671204,350.16306042671204,350.16306042671204,350.16306042671204,350.16306042671204,350.16306042671204,350.16306042671204,351.9905083179474,2,1.9674301147460938,None,,,,,,,,,,,,,,,,,,62,4,2025-02-19_16h53.20.110,comp,2024.2.4,57.47802933441867,2025-02-19 16h53.33.158907 -0500,
117,117,0,filler_square,None,None,None,None,None,None,None,None,None,None,3,1.359813928604126,None,,,,,0,0,0,0,0,117,117,177,352.0067436695099,,,,,,,,,,,,,,,,,,,,,,,,,,,,,,,,,,,,,,,,,,,,,,,,,,,,,,,,,,,,,,,,,,,,,,,,,,,,,,,,,76.15894377242682,101.61069001101703,91.68782835983482,84.16064501902105,128.4811073097949,128.4811073097949,3.0,3.2,-189,-281,0,4,202,257,351.9923253059387,351.99240589141846,351.99559259414673,352.0067436695099,352.15723490715027,352.15723490715027,352.15723490715027,352.15723490715027,352.15723490715027,352.15723490715027,352.15723490715027,353.3752408027649,3,1.359813928604126,None,,,,,,,,,,,,,,,,,,62,4,2025-02-19_16h53.20.110,comp,2024.2.4,57.47802933441867,2025-02-19 16h53.33.158907 -0500,
118,118,0,critical,dwh,20.0,4.0,upper,141.0,141.0,125.0,200.0,200.0,125.0,3,1.5994949340820312,None,,,,,0,0,0,0,0,118,118,71,353.39096331596375,,,,,,,,,,,,,,,,,,,,,,,,,,,,,,,,,,,,,,,,,,,,,,,,,,,,,,,,,,,,,,,,,,,,,,,,,,,,,,,,,141.0,141.0,125.0,200.0,200.0,125.0,4.0,4.2,-266,-1,0,-274,258,-19,353.37675189971924,353.3768332004547,353.3802511692047,353.39096331596375,353.54667496681213,353.54667496681213,353.54667496681213,353.54667496681213,353.54667496681213,353.54667496681213,353.54667496681213,355.0085241794586,3,1.5994949340820312,None,,,,,,,,,,,,,,,,,,62,4,2025-02-19_16h53.20.110,comp,2024.2.4,57.47802933441867,2025-02-19 16h53.33.158907 -0500,
119,119,0,filler_square,None,None,None,None,None,None,None,None,None,None,2,8.949353694915771,None,,,,,0,0,0,0,0,119,119,192,355.0244870185852,,,,,,,,,,,,,,,,,,,,,,,,,,,,,,,,,,,,,,,,,,,,,,,,,,,,,,,,,,,,,,,,,,,,,,,,,,,,,,,,,57.63692029550363,57.69261458054896,58.743026349541935,58.743026349541935,57.49925674331447,58.66200927666473,1.0,1.3,326,-288,480,-286,635,-279,355.01062655448914,355.01070618629456,355.01423168182373,355.0244870185852,355.1729578971863,355.1729578971863,355.1729578971863,355.1729578971863,355.1729578971863,355.1729578971863,355.1729578971863,363.9780945777893,2,8.949353694915771,None,,,,,,,,,,,,,,,,,,62,4,2025-02-19_16h53.20.110,comp,2024.2.4,57.47802933441867,2025-02-19 16h53.33.158907 -0500,
120,120,0,critical,dwh,35.0,2.1,upper,127.0,127.0,125.0,200.0,200.0,125.0,2,1.3716964721679688,None,,,,,0,0,0,0,0,120,120,29,363.9950702190399,,,,,,,,,,,,,,,,,,,,,,,,,,,,,,,,,,,,,,,,,,,,,,,,,,,,,,,,,,,,,,,,,,,,,,,,,,,,,,,,,127.0,127.0,125.0,200.0,200.0,125.0,2.1,2.12,-260,-277,0,-262,258,261,363.97963881492615,363.9797203540802,363.9838397502899,363.9950702190399,364.1442754268646,364.1442754268646,364.1442754268646,364.1442754268646,364.1442754268646,364.1442754268646,364.1442754268646,365.3855412006378,2,1.3716964721679688,None,,,,,,,,,,,,,,,,,,62,4,2025-02-19_16h53.20.110,comp,2024.2.4,57.47802933441867,2025-02-19 16h53.33.158907 -0500,
121,121,0,critical,hdw,35.0,3.0,lower,133.0,57.0,70.0,70.0,57.0,133.0,3,1.6756908893585205,None,,,,,0,0,0,0,0,121,121,110,365.40284633636475,,,,,,,,,,,,,,,,,,,,,,,,,,,,,,,,,,,,,,,,,,,,,,,,,,,,,,,,,,,,,,,,,,,,,,,,,,,,,,,,,133.0,57.0,70.0,70.0,57.0,133.0,3.0,3.1,-160,283,0,-3,198,-281,365.38702273368835,365.38709926605225,365.3900134563446,365.40284633636475,365.5452206134796,365.5452206134796,365.5452206134796,365.5452206134796,365.5452206134796,365.5452206134796,365.5452206134796,367.08199167251587,3,1.6756908893585205,None,,,,,,,,,,,,,,,,,,62,4,2025-02-19_16h53.20.110,comp,2024.2.4,57.47802933441867,2025-02-19 16h53.33.158907 -0500,
122,122,0,critical,dwh,35.0,2.1,lower,70.0,70.0,57.0,133.0,133.0,57.0,1,3.2260184288024902,None,,,,,0,0,0,0,0,122,122,4,367.1007442474365,,,,,,,,,,,,,,,,,,,,,,,,,,,,,,,,,,,,,,,,,,,,,,,,,,,,,,,,,,,,,,,,,,,,,,,,,,,,,,,,,70.0,70.0,57.0,133.0,133.0,57.0,2.1,2.11,-198,284,0,284,191,-288,367.08352971076965,367.0836081504822,367.0865240097046,367.1007442474365,367.2466285228729,367.2466285228729,367.2466285228729,367.2466285228729,367.2466285228729,367.2466285228729,367.2466285228729,370.3338086605072,1,3.2260184288024902,None,,,,,,,,,,,,,,,,,,62,4,2025-02-19_16h53.20.110,comp,2024.2.4,57.47802933441867,2025-02-19 16h53.33.158907 -0500,
123,123,0,filler_square,None,None,None,None,None,None,None,None,None,None,1,1.2572107315063477,None,,,,,0,0,0,0,0,123,123,184,370.35105991363525,,,,,,,,,,,,,,,,,,,,,,,,,,,,,,,,,,,,,,,,,,,,,,,,,,,,,,,,,,,,,,,,,,,,,,,,,,,,,,,,,117.5458462101223,117.5458462101223,57.27419162177917,73.36333942556237,68.01782078085266,72.42235646701522,1.0,1.2,-191,16,0,-13,169,-9,370.33574891090393,370.335830450058,370.3387246131897,370.35105991363525,370.4943416118622,370.4943416118622,370.4943416118622,370.4943416118622,370.4943416118622,370.4943416118622,370.4943416118622,371.61052346229553,1,1.2572107315063477,None,,,,,,,,,,,,,,,,,,62,4,2025-02-19_16h53.20.110,comp,2024.2.4,57.47802933441867,2025-02-19 16h53.33.158907 -0500,
124,124,0,critical,hwd,20.0,4.0,lower,133.0,57.0,57.0,133.0,78.0,78.0,3,3.138017416000366,None,,,,,0,0,0,0,0,124,124,106,371.62781739234924,,,,,,,,,,,,,,,,,,,,,,,,,,,,,,,,,,,,,,,,,,,,,,,,,,,,,,,,,,,,,,,,,,,,,,,,,,,,,,,,,133.0,57.0,57.0,133.0,78.0,78.0,4.0,4.1,-191,-261,0,16,202,-252,371.61213278770447,371.6122806072235,371.61565804481506,371.62781739234924,371.7735393047333,371.7735393047333,371.7735393047333,371.7735393047333,371.7735393047333,371.7735393047333,371.7735393047333,374.7813000679016,3,3.138017416000366,None,,,,,,,,,,,,,,,,,,62,4,2025-02-19_16h53.20.110,comp,2024.2.4,57.47802933441867,2025-02-19 16h53.33.158907 -0500,
125,125,0,filler_random,None,None,None,None,None,None,None,None,None,None,2,1.3289287090301514,None,,,,,0,0,0,0,0,125,125,139,374.79690861701965,,,,,,,,,,,,,,,,,,,,,,,,,,,,,,,,,,,,,,,,,,,,,,,,,,,,,,,,,,,,,,,,,,,,,,,,,,,,,,,,,108.54617532109717,57.24362083845438,65.58707562585178,179.2821650366934,136.49563081119518,143.89640037284732,2.2,2.21,-214,-251,0,279,258,252,374.7833571434021,374.7834429740906,374.7866966724396,374.79690861701965,374.9503929615021,374.9503929615021,374.9503929615021,374.9503929615021,374.9503929615021,374.9503929615021,374.9503929615021,376.1437065601349,2,1.3289287090301514,None,,,,,,,,,,,,,,,,,,62,4,2025-02-19_16h53.20.110,comp,2024.2.4,57.47802933441867,2025-02-19 16h53.33.158907 -0500,
126,126,0,critical,dwh,35.0,1.0,lower,70.0,70.0,57.0,133.0,133.0,57.0,3,2.786565065383911,None,,,,,0,0,0,0,0,126,126,60,376.16342520713806,,,,,,,,,,,,,,,,,,,,,,,,,,,,,,,,,,,,,,,,,,,,,,,,,,,,,,,,,,,,,,,,,,,,,,,,,,,,,,,,,70.0,70.0,57.0,133.0,133.0,57.0,1.0,1.1,-678,262,-480,280,-289,256,376.1452224254608,376.14530086517334,376.1481750011444,376.16342520713806,376.29905366897583,376.29905366897583,376.29905366897583,376.29905366897583,376.29905366897583,376.29905366897583,376.29905366897583,378.9684145450592,3,2.786565065383911,None,,,,,,,,,,,,,,,,,,62,4,2025-02-19_16h53.20.110,comp,2024.2.4,57.47802933441867,2025-02-19 16h53.33.158907 -0500,
127,127,0,critical,hwd,20.0,2.1,lower,133.0,57.0,57.0,133.0,78.0,78.0,3,2.254404067993164,None,,,,,0,0,0,0,0,127,127,18,378.9840202331543,,,,,,,,,,,,,,,,,,,,,,,,,,,,,,,,,,,,,,,,,,,,,,,,,,,,,,,,,,,,,,,,,,,,,,,,,,,,,,,,,133.0,57.0,57.0,133.0,78.0,78.0,2.1,2.11,-191,285,0,283,202,-279,378.9705514907837,378.97070503234863,378.9737808704376,378.9840202331543,379.1367871761322,379.1367871761322,379.1367871761322,379.1367871761322,379.1367871761322,379.1367871761322,379.1367871761322,381.25220918655396,3,2.254404067993164,None,,,,,,,,,,,,,,,,,,62,4,2025-02-19_16h53.20.110,comp,2024.2.4,57.47802933441867,2025-02-19 16h53.33.158907 -0500,
128,128,0,critical,dhw,20.0,3.0,lower,78.0,78.0,133.0,57.0,57.0,133.0,1,4.762402772903442,None,,,,,0,0,0,0,0,128,128,56,381.2679214477539,,,,,,,,,,,,,,,,,,,,,,,,,,,,,,,,,,,,,,,,,,,,,,,,,,,,,,,,,,,,,,,,,,,,,,,,,,,,,,,,,78.0,78.0,133.0,57.0,57.0,133.0,3.0,3.2,-164,-285,0,2,191,269,381.2539792060852,381.254123210907,381.2576036453247,381.2679214477539,381.4167594909668,381.4167594909668,381.4167594909668,381.4167594909668,381.4167594909668,381.4167594909668,381.4167594909668,386.03500413894653,1,4.762402772903442,None,,,,,,,,,,,,,,,,,,62,4,2025-02-19_16h53.20.110,comp,2024.2.4,57.47802933441867,2025-02-19 16h53.33.158907 -0500,
129,129,0,filler_square,None,None,None,None,None,None,None,None,None,None,1,2.7393996715545654,None,,,,,0,0,0,0,0,129,129,209,386.0518264770508,,,,,,,,,,,,,,,,,,,,,,,,,,,,,,,,,,,,,,,,,,,,,,,,,,,,,,,,,,,,,,,,,,,,,,,,,,,,,,,,,146.77698601883156,146.77698601883156,140.15004978327784,114.30307393201882,110.34462398922169,78.35721621214178,2.1,2.11,-227,268,0,264,192,-272,386.03678274154663,386.0368640422821,386.0410168170929,386.0518264770508,386.19938135147095,386.19938135147095,386.19938135147095,386.19938135147095,386.19938135147095,386.19938135147095,386.19938135147095,388.80272364616394,1,2.7393996715545654,None,,,,,,,,,,,,,,,,,,62,4,2025-02-19_16h53.20.110,comp,2024.2.4,57.47802933441867,2025-02-19 16h53.33.158907 -0500,
130,130,0,critical,whd,35.0,3.0,lower,57.0,133.0,133.0,57.0,70.0,70.0,3,6.642075777053833,None,,,,,0,0,0,0,0,130,130,86,388.81970024108887,,,,,,,,,,,,,,,,,,,,,,,,,,,,,,,,,,,,,,,,,,,,,,,,,,,,,,,,,,,,,,,,,,,,,,,,,,,,,,,,,57.0,133.0,133.0,57.0,70.0,70.0,3.0,3.2,-191,-290,0,8,160,266,388.80437564849854,388.8045084476471,388.8086881637573,388.81970024108887,388.9682366847992,388.9682366847992,388.9682366847992,388.9682366847992,388.9682366847992,388.9682366847992,388.9682366847992,395.4789848327637,3,6.642075777053833,None,,,,,,,,,,,,,,,,,,62,4,2025-02-19_16h53.20.110,comp,2024.2.4,57.47802933441867,2025-02-19 16h53.33.158907 -0500,
131,131,0,critical,hwd,20.0,1.0,lower,133.0,57.0,57.0,133.0,78.0,78.0,1,2.0207042694091797,None,,,,,0,0,0,0,0,131,131,102,395.49709916114807,,,,,,,,,,,,,,,,,,,,,,,,,,,,,,,,,,,,,,,,,,,,,,,,,,,,,,,,,,,,,,,,,,,,,,,,,,,,,,,,,133.0,57.0,57.0,133.0,78.0,78.0,1.0,1.3,289,-254,480,-269,682,-251,395.48059701919556,395.48069882392883,395.4840223789215,395.49709916114807,395.6370062828064,395.6370062828064,395.6370062828064,395.6370062828064,395.6370062828064,395.6370062828064,395.6370062828064,397.52238941192627,1,2.0207042694091797,None,,,,,,,,,,,,,,,,,,62,4,2025-02-19_16h53.20.110,comp,2024.2.4,57.47802933441867,2025-02-19 16h53.33.158907 -0500,
132,132,0,critical,hwd,20.0,3.0,lower,133.0,57.0,57.0,133.0,78.0,78.0,3,2.5550098419189453,None,,,,,0,0,0,0,0,132,132,104,397.5387635231018,,,,,,,,,,,,,,,,,,,,,,,,,,,,,,,,,,,,,,,,,,,,,,,,,,,,,,,,,,,,,,,,,,,,,,,,,,,,,,,,,133.0,57.0,57.0,133.0,78.0,78.0,3.0,3.1,-191,251,0,-14,202,-281,397.5239233970642,397.5240013599396,397.528048992157,397.5387635231018,397.692289352417,397.692289352417,397.692289352417,397.692289352417,397.692289352417,397.692289352417,397.692289352417,400.10509157180786,3,2.5550098419189453,None,,,,,,,,,,,,,,,,,,62,4,2025-02-19_16h53.20.110,comp,2024.2.4,57.47802933441867,2025-02-19 16h53.33.158907 -0500,
133,133,0,critical,dwh,20.0,2.1,lower,78.0,78.0,57.0,133.0,133.0,57.0,1,2.980706214904785,None,,,,,0,0,0,0,0,133,133,6,400.1215624809265,,,,,,,,,,,,,,,,,,,,,,,,,,,,,,,,,,,,,,,,,,,,,,,,,,,,,,,,,,,,,,,,,,,,,,,,,,,,,,,,,78.0,78.0,57.0,133.0,133.0,57.0,2.1,2.11,-202,263,0,258,191,-269,400.10658264160156,400.106662273407,400.10979866981506,400.1215624809265,400.27385330200195,400.27385330200195,400.27385330200195,400.27385330200195,400.27385330200195,400.27385330200195,400.27385330200195,403.1070694923401,1,2.980706214904785,None,,,,,,,,,,,,,,,,,,62,4,2025-02-19_16h53.20.110,comp,2024.2.4,57.47802933441867,2025-02-19 16h53.33.158907 -0500,
134,134,0,critical,dwh,35.0,3.0,upper,127.0,127.0,125.0,200.0,200.0,125.0,2,1.4916980266571045,None,,,,,0,0,0,0,0,134,134,63,403.1228563785553,,,,,,,,,,,,,,,,,,,,,,,,,,,,,,,,,,,,,,,,,,,,,,,,,,,,,,,,,,,,,,,,,,,,,,,,,,,,,,,,,127.0,127.0,125.0,200.0,200.0,125.0,3.0,3.1,-260,259,0,0,258,-267,403.10865330696106,403.1087317466736,403.11219024658203,403.1228563785553,403.2718331813812,403.2718331813812,403.2718331813812,403.2718331813812,403.2718331813812,403.2718331813812,403.2718331813812,404.62530493736267,2,1.4916980266571045,None,,,,,,,,,,,,,,,,,,62,4,2025-02-19_16h53.20.110,comp,2024.2.4,57.47802933441867,2025-02-19 16h53.33.158907 -0500,
135,135,0,filler_square,None,None,None,None,None,None,None,None,None,None,3,2.268491744995117,None,,,,,0,0,0,0,0,135,135,187,404.6413071155548,,,,,,,,,,,,,,,,,,,,,,,,,,,,,,,,,,,,,,,,,,,,,,,,,,,,,,,,,,,,,,,,,,,,,,,,,,,,,,,,,59.09292843346336,65.42704221114275,62.51132773435042,62.63352757550391,69.73665216958804,69.73665216958804,3.0,3.2,-160,-278,0,7,162,286,404.62729120254517,404.6273741722107,404.63063406944275,404.6413071155548,404.7984519004822,404.7984519004822,404.7984519004822,404.7984519004822,404.7984519004822,404.7984519004822,404.7984519004822,406.9267854690552,3,2.268491744995117,None,,,,,,,,,,,,,,,,,,62,4,2025-02-19_16h53.20.110,comp,2024.2.4,57.47802933441867,2025-02-19 16h53.33.158907 -0500,
136,136,0,critical,wdh,35.0,2.1,upper,125.0,200.0,127.0,127.0,200.0,125.0,1,2.703453302383423,None,,,,,0,0,0,0,0,136,136,9,406.94237518310547,,,,,,,,,,,,,,,,,,,,,,,,,,,,,,,,,,,,,,,,,,,,,,,,,,,,,,,,,,,,,,,,,,,,,,,,,,,,,,,,,125.0,200.0,127.0,127.0,200.0,125.0,2.1,2.11,-260,289,0,277,222,-268,406.9284567832947,406.92853474617004,406.9319930076599,406.94237518310547,407.09482979774475,407.09482979774475,407.09482979774475,407.09482979774475,407.09482979774475,407.09482979774475,407.09482979774475,409.6576039791107,1,2.703453302383423,None,,,,,,,,,,,,,,,,,,62,4,2025-02-19_16h53.20.110,comp,2024.2.4,57.47802933441867,2025-02-19 16h53.33.158907 -0500,
137,137,0,critical,hwd,20.0,2.1,upper,200.0,125.0,125.0,200.0,141.0,141.0,3,2.466902256011963,None,,,,,0,0,0,0,0,137,137,19,409.6754856109619,,,,,,,,,,,,,,,,,,,,,,,,,,,,,,,,,,,,,,,,,,,,,,,,,,,,,,,,,,,,,,,,,,,,,,,,,,,,,,,,,200.0,125.0,125.0,200.0,141.0,141.0,2.1,2.12,-258,-289,0,-270,266,273,409.65914511680603,409.6592540740967,409.6625609397888,409.6754856109619,409.817679643631,409.817679643631,409.817679643631,409.817679643631,409.817679643631,409.817679643631,409.817679643631,412.1480140686035,3,2.466902256011963,None,,,,,,,,,,,,,,,,,,62,4,2025-02-19_16h53.20.110,comp,2024.2.4,57.47802933441867,2025-02-19 16h53.33.158907 -0500,
138,138,0,critical,dhw,20.0,2.1,lower,78.0,78.0,133.0,57.0,57.0,133.0,2,2.949103355407715,None,,,,,0,0,0,0,0,138,138,2,412.1606888771057,,,,,,,,,,,,,,,,,,,,,,,,,,,,,,,,,,,,,,,,,,,,,,,,,,,,,,,,,,,,,,,,,,,,,,,,,,,,,,,,,78.0,78.0,133.0,57.0,57.0,133.0,2.1,2.11,-164,272,0,285,191,-275,412.1488721370697,412.1489260196686,412.15088272094727,412.1606888771057,412.3120493888855,412.3120493888855,412.3120493888855,412.3120493888855,412.3120493888855,412.3120493888855,412.3120493888855,415.1264386177063,2,2.949103355407715,None,,,,,,,,,,,,,,,,,,62,4,2025-02-19_16h53.20.110,comp,2024.2.4,57.47802933441867,2025-02-19 16h53.33.158907 -0500,
139,139,0,critical,hwd,35.0,2.1,upper,200.0,125.0,125.0,200.0,127.0,127.0,1,4.6002197265625,None,,,,,0,0,0,0,0,139,139,41,415.14231276512146,,,,,,,,,,,,,,,,,,,,,,,,,,,,,,,,,,,,,,,,,,,,,,,,,,,,,,,,,,,,,,,,,,,,,,,,,,,,,,,,,200.0,125.0,125.0,200.0,127.0,127.0,2.1,2.11,-258,265,0,257,260,-267,415.12792778015137,415.1280062198639,415.13105630874634,415.14231276512146,415.2818887233734,415.2818887233734,415.2818887233734,415.2818887233734,415.2818887233734,415.2818887233734,415.2818887233734,419.75013756752014,1,4.6002197265625,None,,,,,,,,,,,,,,,,,,62,4,2025-02-19_16h53.20.110,comp,2024.2.4,57.47802933441867,2025-02-19 16h53.33.158907 -0500,
