thisN,thisTrialN,thisRepN,effect,order,distance,config,diag,h_1,w_1,h_2,w_2,h_3,w_3,rect_choice.keys,rect_choice.rt,rect_choice.duration,instructions_loop.thisRepN,instructions_loop.thisTrialN,instructions_loop.thisN,instructions_loop.thisIndex,blocks.thisRepN,blocks.thisTrialN,blocks.thisN,blocks.thisIndex,trials.thisRepN,trials.thisTrialN,trials.thisN,trials.thisIndex,thisRow.t,notes,consent.started,agree_button.started,decline_button.started,consent_img.started,mouse.started,consent.stopped,agree_button.numClicks,agree_button.timesOn,agree_button.timesOff,decline_button.numClicks,decline_button.timesOn,decline_button.timesOff,mouse.x,mouse.y,mouse.leftButton,mouse.midButton,mouse.rightButton,mouse.time,mouse.clicked_name,exp_params.started,exp_params.stopped,welcome.started,welcome_text.started,welcome.stopped,instructions_1.started,instructions_1_text_1.started,instructions_1_text_2.started,key_resp.started,instructions_1.stopped,instructions_loop.key_resp.keys,instructions_loop.key_resp.rt,instructions_loop.key_resp.duration,instructions_2.started,instructions_2_text_1.started,instructions_2_text_2.started,key_resp_2.started,instructions_2.stopped,instructions_loop.key_resp_2.keys,instructions_loop.key_resp_2.rt,instructions_loop.key_resp_2.duration,instructions_3.started,instructions_3_text_1.started,r1_instr3.started,r2_instr3.started,r3_instr3.started,r1_instr3_label.started,r2_instr3_label.started,r3_instr3_label.started,instructions_3_text_3.started,instructions_3_text_4.started,key_resp_3.started,instructions_3.stopped,instructions_loop.key_resp_3.keys,instructions_loop.key_resp_3.rt,instructions_loop.key_resp_3.duration,instructions_4.started,instructions_4_text_1.started,instructions_4_text_3.started,instructions_4_text_2.started,key_resp_4.started,instructions_4.stopped,instructions_loop.key_resp_4.keys,instructions_loop.key_resp_4.rt,instructions_loop.key_resp_4.duration,instructions_5.started,instructions_5_text_1.started,instructions_5_text_2.started,key_resp_5.started,instructions_5.stopped,instructions_loop.key_resp_5.keys,instructions_loop.key_resp_5.rt,instructions_loop.key_resp_5.duration,start_exp.started,start_exp_text.started,key_resp_6.started,start_exp.stopped,key_resp_6.keys,key_resp_6.rt,key_resp_6.duration,h_1_tmp,w_1_tmp,h_2_tmp,w_2_tmp,h_3_tmp,w_3_tmp,config_tmp,config_tmp_1,r_1_x,r_1_y,r_2_x,r_2_y,r_3_x,r_3_y,pre_trial.started,pre_trial.stopped,choice_trial.started,rect_choice.started,r_1.started,r_2.started,r_3.started,r_1_label.started,r_2_label.started,r_3_label.started,prompt.started,choice_trial.stopped,trials.rect_choice.keys,trials.rect_choice.rt,trials.rect_choice.duration,end_block.started,end_block_text.started,end_block.stopped,end.started,end_text.started,key_resp_7.started,end.stopped,key_resp_7.keys,key_resp_7.rt,key_resp_7.duration,debriefing.started,debrief_form.started,end_debrief.started,debriefing.stopped,end_debrief.keys,end_debrief.rt,end_debrief.duration,participant,computer,date,expName,psychopyVersion,frameRate,expStart,
,,,,,,,,,,,,,,,,,,,,,,,,,,,,,,,0.015413522720336914,0.04186606407165527,0.04186606407165527,0.04186606407165527,0.014851570129394531,94.62563872337341,1,[94.5821328163147],[94.58214282989502],0,,,[-93.0],[-503.0],[1],[0],[0],[94.6093442440033],['agree_button'],,,,,,,,,,,,,,,,,,,,,,,,,,,,,,,,,,,,,,,,,,,,,,,,,,,,,,,,,,,,,,,,,,,,,,,,,,,,,,,,,,,,,,,,,,,,,,,,,,,,,,,,,,,63,5,2025-02-19_16h54.09.828,comp,2024.2.4,61.395991545122925,2025-02-19 16h54.19.919441 -0500,
,,,,,,,,,,,,,,,,,,,,,,,,,,,,,,,,,,,,,,,,,,,,,,,,,,94.62592625617981,94.62596201896667,,,,,,,,,,,,,,,,,,,,,,,,,,,,,,,,,,,,,,,,,,,,,,,,,,,,,,,,,,,,,,,,,,,,,,,,,,,,,,,,,,,,,,,,,,,,,,,,,,,,,,,,,63,5,2025-02-19_16h54.09.828,comp,2024.2.4,61.395991545122925,2025-02-19 16h54.19.919441 -0500,
,,,,,,,,,,,,,,,,,,,,,,,,,,,,,,,,,,,,,,,,,,,,,,,,,,,,94.62598586082458,94.63914132118225,96.63599991798401,,,,,,,,,,,,,,,,,,,,,,,,,,,,,,,,,,,,,,,,,,,,,,,,,,,,,,,,,,,,,,,,,,,,,,,,,,,,,,,,,,,,,,,,,,,,,,,,,,,,,,63,5,2025-02-19_16h54.09.828,comp,2024.2.4,61.395991545122925,2025-02-19 16h54.19.919441 -0500,
0,0,0,,,,,,,,,,,,,,,0,0,0,0,,,,,,,,,96.65253639221191,,,,,,,,,,,,,,,,,,,,,,,,,,96.63656902313232,96.65253639221191,96.65253639221191,98.13561153411865,104.07037305831909,space,5.917515516281128,None,104.07045841217041,104.08591103553772,104.08591103553772,105.58571338653564,124.95359992980957,space,19.36504340171814,None,124.953684091568,124.97513556480408,124.97513556480408,124.97513556480408,124.97513556480408,124.97513556480408,124.97513556480408,124.97513556480408,124.97513556480408,124.97513556480408,126.45286178588867,132.47085189819336,space,6.016777753829956,None,132.47094202041626,132.486722946167,132.486722946167,132.486722946167,133.9860236644745,145.11992740631104,space,11.11654782295227,None,145.1200156211853,145.1356008052826,145.1356008052826,146.6357662677765,149.75332236289978,space,3.1150693893432617,None,149.75343346595764,149.76893305778503,149.76893305778503,152.90301871299744,space,3.12446665763855,None,,,,,,,,,,,,,,,,,,,,,,,,,,,,,,,,,,,,,,,,,,,,,,,63,5,2025-02-19_16h54.09.828,comp,2024.2.4,61.395991545122925,2025-02-19 16h54.19.919441 -0500,
0,0,0,critical,hwd,20.0,2.1,lower,133.0,57.0,57.0,133.0,78.0,78.0,1,3.699089527130127,None,,,,,0,0,0,0,0,0,0,42,152.96196007728577,,,,,,,,,,,,,,,,,,,,,,,,,,,,,,,,,,,,,,,,,,,,,,,,,,,,,,,,,,,,,,,,,,,,,,,,,,,,,,,,,133.0,57.0,57.0,133.0,78.0,78.0,2.1,2.12,-191,-268,0,-280,202,253,152.94825625419617,152.94830703735352,152.95026421546936,152.96196007728577,153.108247756958,153.108247756958,153.108247756958,153.108247756958,153.108247756958,153.108247756958,153.108247756958,156.66991233825684,1,3.699089527130127,None,,,,,,,,,,,,,,,,,,63,5,2025-02-19_16h54.09.828,comp,2024.2.4,61.395991545122925,2025-02-19 16h54.19.919441 -0500,
1,1,0,filler_random,None,None,None,None,None,None,None,None,None,None,2,1.9272797107696533,None,,,,,0,0,0,0,0,1,1,159,156.68565249443054,,,,,,,,,,,,,,,,,,,,,,,,,,,,,,,,,,,,,,,,,,,,,,,,,,,,,,,,,,,,,,,,,,,,,,,,,,,,,,,,,143.81566152461448,73.72732994580757,189.93356584787915,107.57296528890888,151.8170599135277,80.12685085209468,3.0,3.1,-187,266,0,19,190,-285,156.67082333564758,156.6708641052246,156.67323660850525,156.68565249443054,156.83555793762207,156.83555793762207,156.83555793762207,156.83555793762207,156.83555793762207,156.83555793762207,156.83555793762207,158.61987566947937,2,1.9272797107696533,None,,,,,,,,,,,,,,,,,,63,5,2025-02-19_16h54.09.828,comp,2024.2.4,61.395991545122925,2025-02-19 16h54.19.919441 -0500,
2,2,0,filler_square,None,None,None,None,None,None,None,None,None,None,2,1.9214589595794678,None,,,,,0,0,0,0,0,2,2,200,158.63555693626404,,,,,,,,,,,,,,,,,,,,,,,,,,,,,,,,,,,,,,,,,,,,,,,,,,,,,,,,,,,,,,,,,,,,,,,,,,,,,,,,,72.56429711228898,69.18620592388132,81.60845875301789,81.60845875301789,75.60516264644302,70.19946647056366,2.1,2.11,-171,257,0,263,172,-289,158.62083268165588,158.6208724975586,158.62337636947632,158.63555693626404,158.78543877601624,158.78543877601624,158.78543877601624,158.78543877601624,158.78543877601624,158.78543877601624,158.78543877601624,160.56991624832153,2,1.9214589595794678,None,,,,,,,,,,,,,,,,,,63,5,2025-02-19_16h54.09.828,comp,2024.2.4,61.395991545122925,2025-02-19 16h54.19.919441 -0500,
3,3,0,critical,hdw,35.0,1.0,lower,133.0,57.0,70.0,70.0,57.0,133.0,3,3.8921959400177,None,,,,,0,0,0,0,0,3,3,108,160.5851879119873,,,,,,,,,,,,,,,,,,,,,,,,,,,,,,,,,,,,,,,,,,,,,,,,,,,,,,,,,,,,,,,,,,,,,,,,,,,,,,,,,133.0,57.0,70.0,70.0,57.0,133.0,1.0,1.2,-160,11,0,6,198,5,160.57075309753418,160.57079482078552,160.57327032089233,160.5851879119873,160.73548245429993,160.73548245429993,160.73548245429993,160.73548245429993,160.73548245429993,160.73548245429993,160.73548245429993,164.48647379875183,3,3.8921959400177,None,,,,,,,,,,,,,,,,,,63,5,2025-02-19_16h54.09.828,comp,2024.2.4,61.395991545122925,2025-02-19 16h54.19.919441 -0500,
4,4,0,critical,whd,35.0,2.1,upper,125.0,200.0,200.0,125.0,127.0,127.0,3,3.694683074951172,None,,,,,0,0,0,0,0,4,4,13,164.5021412372589,,,,,,,,,,,,,,,,,,,,,,,,,,,,,,,,,,,,,,,,,,,,,,,,,,,,,,,,,,,,,,,,,,,,,,,,,,,,,,,,,125.0,200.0,200.0,125.0,127.0,127.0,2.1,2.12,-258,-273,0,-287,222,260,164.4872498512268,164.48728966712952,164.48953533172607,164.5021412372589,164.652281999588,164.652281999588,164.652281999588,164.652281999588,164.652281999588,164.652281999588,164.652281999588,168.20337963104248,3,3.694683074951172,None,,,,,,,,,,,,,,,,,,63,5,2025-02-19_16h54.09.828,comp,2024.2.4,61.395991545122925,2025-02-19 16h54.19.919441 -0500,
5,5,0,critical,hdw,35.0,2.1,lower,133.0,57.0,70.0,70.0,57.0,133.0,3,3.3162386417388916,None,,,,,0,0,0,0,0,5,5,20,168.21905875205994,,,,,,,,,,,,,,,,,,,,,,,,,,,,,,,,,,,,,,,,,,,,,,,,,,,,,,,,,,,,,,,,,,,,,,,,,,,,,,,,,133.0,57.0,70.0,70.0,57.0,133.0,2.1,2.12,-160,-267,0,-263,198,261,168.2042317390442,168.20427322387695,168.20643949508667,168.21905875205994,168.36867427825928,168.36867427825928,168.36867427825928,168.36867427825928,168.36867427825928,168.36867427825928,168.36867427825928,171.5529661178589,3,3.3162386417388916,None,,,,,,,,,,,,,,,,,,63,5,2025-02-19_16h54.09.828,comp,2024.2.4,61.395991545122925,2025-02-19 16h54.19.919441 -0500,
6,6,0,filler_square,None,None,None,None,None,None,None,None,None,None,2,1.9817700386047363,None,,,,,0,0,0,0,0,6,6,197,171.5684940814972,,,,,,,,,,,,,,,,,,,,,,,,,,,,,,,,,,,,,,,,,,,,,,,,,,,,,,,,,,,,,,,,,,,,,,,,,,,,,,,,,172.70131547758137,121.67068826366904,180.77692985176319,180.77692985176319,144.49817682836982,138.60954908374748,1.0,1.3,233,-287,480,-270,736,-288,171.55394101142883,171.5539824962616,171.55650568008423,171.5684940814972,171.71888518333435,171.71888518333435,171.71888518333435,171.71888518333435,171.71888518333435,171.71888518333435,171.71888518333435,173.55342960357666,2,1.9817700386047363,None,,,,,,,,,,,,,,,,,,63,5,2025-02-19_16h54.09.828,comp,2024.2.4,61.395991545122925,2025-02-19 16h54.19.919441 -0500,
7,7,0,critical,wdh,35.0,4.0,lower,57.0,133.0,70.0,70.0,133.0,57.0,3,2.1976234912872314,None,,,,,0,0,0,0,0,7,7,76,173.56868815422058,,,,,,,,,,,,,,,,,,,,,,,,,,,,,,,,,,,,,,,,,,,,,,,,,,,,,,,,,,,,,,,,,,,,,,,,,,,,,,,,,57.0,133.0,70.0,70.0,133.0,57.0,4.0,4.2,-198,-10,0,-273,160,-18,173.5542118549347,173.55425596237183,173.55653953552246,173.56868815422058,173.71872448921204,173.71872448921204,173.71872448921204,173.71872448921204,173.71872448921204,173.71872448921204,173.71872448921204,175.7698791027069,3,2.1976234912872314,None,,,,,,,,,,,,,,,,,,63,5,2025-02-19_16h54.09.828,comp,2024.2.4,61.395991545122925,2025-02-19 16h54.19.919441 -0500,
8,8,0,catch,None,None,None,None,None,None,None,None,None,None,2,1.2921013832092285,None,,,,,0,0,0,0,0,8,8,124,175.78536558151245,,,,,,,,,,,,,,,,,,,,,,,,,,,,,,,,,,,,,,,,,,,,,,,,,,,,,,,,,,,,,,,,,,,,,,,,,,,,,,,,,118,72,160,165,108,82,1.0,1.3,266,-258,480,-257,700,-269,175.77092027664185,175.77096152305603,175.7734444141388,175.78536558151245,175.93529415130615,175.93529415130615,175.93529415130615,175.93529415130615,175.93529415130615,175.93529415130615,175.93529415130615,177.08652234077454,2,1.2921013832092285,None,,,,,,,,,,,,,,,,,,63,5,2025-02-19_16h54.09.828,comp,2024.2.4,61.395991545122925,2025-02-19 16h54.19.919441 -0500,
9,9,0,critical,hwd,35.0,2.1,upper,200.0,125.0,125.0,200.0,127.0,127.0,2,2.527209520339966,None,,,,,0,0,0,0,0,9,9,17,177.10192561149597,,,,,,,,,,,,,,,,,,,,,,,,,,,,,,,,,,,,,,,,,,,,,,,,,,,,,,,,,,,,,,,,,,,,,,,,,,,,,,,,,200.0,125.0,125.0,200.0,127.0,127.0,2.1,2.11,-258,258,0,277,260,-270,177.08733820915222,177.08738088607788,177.08973789215088,177.10192561149597,177.25206637382507,177.25206637382507,177.25206637382507,177.25206637382507,177.25206637382507,177.25206637382507,177.25206637382507,179.63655734062195,2,2.527209520339966,None,,,,,,,,,,,,,,,,,,63,5,2025-02-19_16h54.09.828,comp,2024.2.4,61.395991545122925,2025-02-19 16h54.19.919441 -0500,
10,10,0,filler_square,None,None,None,None,None,None,None,None,None,None,2,2.8252429962158203,None,,,,,0,0,0,0,0,10,10,179,179.65202403068542,,,,,,,,,,,,,,,,,,,,,,,,,,,,,,,,,,,,,,,,,,,,,,,,,,,,,,,,,,,,,,,,,,,,,,,,,,,,,,,,,61.40875227437321,61.40875227437321,58.09856681930478,57.49250563473323,60.696797766210224,58.668988220924305,4.0,4.1,-155,-254,0,-5,154,-266,179.6375162601471,179.63755917549133,179.63960719108582,179.65202403068542,179.80196332931519,179.80196332931519,179.80196332931519,179.80196332931519,179.80196332931519,179.80196332931519,179.80196332931519,182.48623943328857,2,2.8252429962158203,None,,,,,,,,,,,,,,,,,,63,5,2025-02-19_16h54.09.828,comp,2024.2.4,61.395991545122925,2025-02-19 16h54.19.919441 -0500,
11,11,0,catch,None,None,None,None,None,None,None,None,None,None,3,1.478884220123291,None,,,,,0,0,0,0,0,11,11,126,182.50203943252563,,,,,,,,,,,,,,,,,,,,,,,,,,,,,,,,,,,,,,,,,,,,,,,,,,,,,,,,,,,,,,,,,,,,,,,,,,,,,,,,,80,110,92,98,187,138,2.1,2.12,-200,-275,0,-254,214,273,182.48726534843445,182.4873068332672,182.48961305618286,182.50203943252563,182.65197610855103,182.65197610855103,182.65197610855103,182.65197610855103,182.65197610855103,182.65197610855103,182.65197610855103,183.98662495613098,3,1.478884220123291,None,,,,,,,,,,,,,,,,,,63,5,2025-02-19_16h54.09.828,comp,2024.2.4,61.395991545122925,2025-02-19 16h54.19.919441 -0500,
12,12,0,critical,dhw,20.0,2.1,lower,78.0,78.0,133.0,57.0,57.0,133.0,3,2.4832451343536377,None,,,,,0,0,0,0,0,12,12,2,184.00225472450256,,,,,,,,,,,,,,,,,,,,,,,,,,,,,,,,,,,,,,,,,,,,,,,,,,,,,,,,,,,,,,,,,,,,,,,,,,,,,,,,,78.0,78.0,133.0,57.0,57.0,133.0,2.1,2.12,-164,-254,0,-271,191,269,183.98742747306824,183.98746991157532,183.98952794075012,184.00225472450256,184.1518223285675,184.1518223285675,184.1518223285675,184.1518223285675,184.1518223285675,184.1518223285675,184.1518223285675,186.48660612106323,3,2.4832451343536377,None,,,,,,,,,,,,,,,,,,63,5,2025-02-19_16h54.09.828,comp,2024.2.4,61.395991545122925,2025-02-19 16h54.19.919441 -0500,
13,13,0,critical,hwd,35.0,1.0,lower,133.0,57.0,57.0,133.0,70.0,70.0,2,3.8637895584106445,None,,,,,0,0,0,0,0,13,13,96,186.50191235542297,,,,,,,,,,,,,,,,,,,,,,,,,,,,,,,,,,,,,,,,,,,,,,,,,,,,,,,,,,,,,,,,,,,,,,,,,,,,,,,,,133.0,57.0,57.0,133.0,70.0,70.0,1.0,1.3,289,-252,480,-285,678,-261,186.487398147583,186.48743844032288,186.4897243976593,186.50191235542297,186.65174460411072,186.65174460411072,186.65174460411072,186.65174460411072,186.65174460411072,186.65174460411072,186.65174460411072,190.36994171142578,2,3.8637895584106445,None,,,,,,,,,,,,,,,,,,63,5,2025-02-19_16h54.09.828,comp,2024.2.4,61.395991545122925,2025-02-19 16h54.19.919441 -0500,
14,14,0,critical,wdh,35.0,3.0,lower,57.0,133.0,70.0,70.0,133.0,57.0,3,2.3330724239349365,None,,,,,0,0,0,0,0,14,14,74,190.38537693023682,,,,,,,,,,,,,,,,,,,,,,,,,,,,,,,,,,,,,,,,,,,,,,,,,,,,,,,,,,,,,,,,,,,,,,,,,,,,,,,,,57.0,133.0,70.0,70.0,133.0,57.0,3.0,3.1,-198,269,0,5,160,-287,190.37071871757507,190.37075972557068,190.37316393852234,190.38537693023682,190.53505396842957,190.53505396842957,190.53505396842957,190.53505396842957,190.53505396842957,190.53505396842957,190.53505396842957,192.71993374824524,3,2.3330724239349365,None,,,,,,,,,,,,,,,,,,63,5,2025-02-19_16h54.09.828,comp,2024.2.4,61.395991545122925,2025-02-19 16h54.19.919441 -0500,
15,15,0,critical,hdw,20.0,3.0,upper,200.0,125.0,141.0,141.0,125.0,200.0,3,2.8846216201782227,None,,,,,0,0,0,0,0,15,15,117,192.73532795906067,,,,,,,,,,,,,,,,,,,,,,,,,,,,,,,,,,,,,,,,,,,,,,,,,,,,,,,,,,,,,,,,,,,,,,,,,,,,,,,,,200.0,125.0,141.0,141.0,125.0,200.0,3.0,3.1,-229,280,0,13,266,-277,192.72077775001526,192.72082042694092,192.7229232788086,192.73532795906067,192.88538718223572,192.88538718223572,192.88538718223572,192.88538718223572,192.88538718223572,192.88538718223572,192.88538718223572,195.63658046722412,3,2.8846216201782227,None,,,,,,,,,,,,,,,,,,63,5,2025-02-19_16h54.09.828,comp,2024.2.4,61.395991545122925,2025-02-19 16h54.19.919441 -0500,
16,16,0,filler_square,None,None,None,None,None,None,None,None,None,None,2,3.0256216526031494,None,,,,,0,0,0,0,0,16,16,188,195.65171599388123,,,,,,,,,,,,,,,,,,,,,,,,,,,,,,,,,,,,,,,,,,,,,,,,,,,,,,,,,,,,,,,,,,,,,,,,,,,,,,,,,66.80462010915187,90.12363790103635,94.7427625269479,94.7427625269479,71.66544011039298,94.25085269821483,4.0,4.2,-188,9,0,-289,190,-16,195.63754749298096,195.6375892162323,195.63989067077637,195.65171599388123,195.80175924301147,195.80175924301147,195.80175924301147,195.80175924301147,195.80175924301147,195.80175924301147,195.80175924301147,198.68633222579956,2,3.0256216526031494,None,,,,,,,,,,,,,,,,,,63,5,2025-02-19_16h54.09.828,comp,2024.2.4,61.395991545122925,2025-02-19 16h54.19.919441 -0500,
17,17,0,filler_square,None,None,None,None,None,None,None,None,None,None,3,1.7019102573394775,None,,,,,0,0,0,0,0,17,17,203,198.70196652412415,,,,,,,,,,,,,,,,,,,,,,,,,,,,,,,,,,,,,,,,,,,,,,,,,,,,,,,,,,,,,,,,,,,,,,,,,,,,,,,,,80.09614600419708,76.27623170833428,77.94615747064437,61.10650027416338,84.39219946221888,84.39219946221888,2.2,2.22,-165,279,0,-282,169,-255,198.68728756904602,198.68733048439026,198.68961215019226,198.70196652412415,198.85172247886658,198.85172247886658,198.85172247886658,198.85172247886658,198.85172247886658,198.85172247886658,198.85172247886658,200.41970705986023,3,1.7019102573394775,None,,,,,,,,,,,,,,,,,,63,5,2025-02-19_16h54.09.828,comp,2024.2.4,61.395991545122925,2025-02-19 16h54.19.919441 -0500,
18,18,0,critical,dhw,35.0,2.1,lower,70.0,70.0,133.0,57.0,57.0,133.0,3,2.009868621826172,None,,,,,0,0,0,0,0,18,18,24,200.43503189086914,,,,,,,,,,,,,,,,,,,,,,,,,,,,,,,,,,,,,,,,,,,,,,,,,,,,,,,,,,,,,,,,,,,,,,,,,,,,,,,,,70.0,70.0,133.0,57.0,57.0,133.0,2.1,2.12,-160,-283,0,-264,191,260,200.42052912712097,200.42057180404663,200.42294001579285,200.43503189086914,200.5851185321808,200.5851185321808,200.5851185321808,200.5851185321808,200.5851185321808,200.5851185321808,200.5851185321808,202.45295214653015,3,2.009868621826172,None,,,,,,,,,,,,,,,,,,63,5,2025-02-19_16h54.09.828,comp,2024.2.4,61.395991545122925,2025-02-19 16h54.19.919441 -0500,
19,19,0,filler_random,None,None,None,None,None,None,None,None,None,None,2,2.8712985515594482,None,,,,,0,0,0,0,0,19,19,144,202.46855092048645,,,,,,,,,,,,,,,,,,,,,,,,,,,,,,,,,,,,,,,,,,,,,,,,,,,,,,,,,,,,,,,,,,,,,,,,,,,,,,,,,107.99168018587194,141.6563943955965,147.71246678780136,106.55820192107497,61.51943256327939,109.55977856153436,2.1,2.12,-220,-250,0,-263,204,290,202.45386004447937,202.4539020061493,202.45641112327576,202.46855092048645,202.61849451065063,202.61849451065063,202.61849451065063,202.61849451065063,202.61849451065063,202.61849451065063,202.61849451065063,205.3528401851654,2,2.8712985515594482,None,,,,,,,,,,,,,,,,,,63,5,2025-02-19_16h54.09.828,comp,2024.2.4,61.395991545122925,2025-02-19 16h54.19.919441 -0500,
20,20,0,critical,hwd,20.0,3.0,lower,133.0,57.0,57.0,133.0,78.0,78.0,2,2.997542381286621,None,,,,,0,0,0,0,0,20,20,104,205.36822056770325,,,,,,,,,,,,,,,,,,,,,,,,,,,,,,,,,,,,,,,,,,,,,,,,,,,,,,,,,,,,,,,,,,,,,,,,,,,,,,,,,133.0,57.0,57.0,133.0,78.0,78.0,3.0,3.1,-191,256,0,18,202,-254,205.3538534641266,205.3538942337036,205.35638666152954,205.36822056770325,205.51829648017883,205.51829648017883,205.51829648017883,205.51829648017883,205.51829648017883,205.51829648017883,205.51829648017883,208.36960911750793,2,2.997542381286621,None,,,,,,,,,,,,,,,,,,63,5,2025-02-19_16h54.09.828,comp,2024.2.4,61.395991545122925,2025-02-19 16h54.19.919441 -0500,
21,21,0,catch,None,None,None,None,None,None,None,None,None,None,3,2.0756635665893555,None,,,,,0,0,0,0,0,21,21,123,208.38511395454407,,,,,,,,,,,,,,,,,,,,,,,,,,,,,,,,,,,,,,,,,,,,,,,,,,,,,,,,,,,,,,,,,,,,,,,,,,,,,,,,,131,59,99,91,185,140,2.1,2.12,-171,-267,0,-282,212,262,208.37061023712158,208.3706510066986,208.37263655662537,208.38511395454407,208.5351631641388,208.5351631641388,208.5351631641388,208.5351631641388,208.5351631641388,208.5351631641388,208.5351631641388,210.4696159362793,3,2.0756635665893555,None,,,,,,,,,,,,,,,,,,63,5,2025-02-19_16h54.09.828,comp,2024.2.4,61.395991545122925,2025-02-19 16h54.19.919441 -0500,
22,22,0,filler_square,None,None,None,None,None,None,None,None,None,None,1,3.159512758255005,None,,,,,0,0,0,0,0,22,22,181,210.48511934280396,,,,,,,,,,,,,,,,,,,,,,,,,,,,,,,,,,,,,,,,,,,,,,,,,,,,,,,,,,,,,,,,,,,,,,,,,,,,,,,,,60.62161203332015,60.62161203332015,58.554677007542864,60.37099617792977,58.855032543751726,57.88764080397582,2.2,2.21,-156,-273,0,259,155,278,210.4705708026886,210.47061395645142,210.47267055511475,210.48511934280396,210.6350338459015,210.6350338459015,210.6350338459015,210.6350338459015,210.6350338459015,210.6350338459015,210.6350338459015,213.65264081954956,1,3.159512758255005,None,,,,,,,,,,,,,,,,,,63,5,2025-02-19_16h54.09.828,comp,2024.2.4,61.395991545122925,2025-02-19 16h54.19.919441 -0500,
23,23,0,critical,hwd,20.0,4.0,upper,200.0,125.0,125.0,200.0,141.0,141.0,2,2.7441277503967285,None,,,,,0,0,0,0,0,23,23,107,213.6683530807495,,,,,,,,,,,,,,,,,,,,,,,,,,,,,,,,,,,,,,,,,,,,,,,,,,,,,,,,,,,,,,,,,,,,,,,,,,,,,,,,,200.0,125.0,125.0,200.0,141.0,141.0,4.0,4.2,-258,-4,0,-254,266,19,213.6534161567688,213.65345549583435,213.65573644638062,213.6683530807495,213.81851291656494,213.81851291656494,213.81851291656494,213.81851291656494,213.81851291656494,213.81851291656494,213.81851291656494,216.41962385177612,2,2.7441277503967285,None,,,,,,,,,,,,,,,,,,63,5,2025-02-19_16h54.09.828,comp,2024.2.4,61.395991545122925,2025-02-19 16h54.19.919441 -0500,
24,24,0,filler_square,None,None,None,None,None,None,None,None,None,None,1,1.904550552368164,None,,,,,0,0,0,0,0,24,24,184,216.43519353866577,,,,,,,,,,,,,,,,,,,,,,,,,,,,,,,,,,,,,,,,,,,,,,,,,,,,,,,,,,,,,,,,,,,,,,,,,,,,,,,,,140.65255471551018,140.65255471551018,101.1429557581601,130.55744769819364,88.95169666013803,58.89231296035608,2.2,2.21,-232,-276,0,257,191,284,216.4206027984619,216.42064547538757,216.42270731925964,216.43519353866577,216.58495926856995,216.58495926856995,216.58495926856995,216.58495926856995,216.58495926856995,216.58495926856995,216.58495926856995,218.3528802394867,1,1.904550552368164,None,,,,,,,,,,,,,,,,,,63,5,2025-02-19_16h54.09.828,comp,2024.2.4,61.395991545122925,2025-02-19 16h54.19.919441 -0500,
25,25,0,critical,dhw,35.0,4.0,lower,70.0,70.0,133.0,57.0,57.0,133.0,2,2.692511558532715,None,,,,,0,0,0,0,0,25,25,52,218.36812734603882,,,,,,,,,,,,,,,,,,,,,,,,,,,,,,,,,,,,,,,,,,,,,,,,,,,,,,,,,,,,,,,,,,,,,,,,,,,,,,,,,70.0,70.0,133.0,57.0,57.0,133.0,4.0,4.2,-160,-19,0,-274,191,2,218.353675365448,218.35371613502502,218.35629510879517,218.36812734603882,218.51830101013184,218.51830101013184,218.51830101013184,218.51830101013184,218.51830101013184,218.51830101013184,218.51830101013184,221.06929326057434,2,2.692511558532715,None,,,,,,,,,,,,,,,,,,63,5,2025-02-19_16h54.09.828,comp,2024.2.4,61.395991545122925,2025-02-19 16h54.19.919441 -0500,
26,26,0,filler_random,None,None,None,None,None,None,None,None,None,None,2,1.2386221885681152,None,,,,,0,0,0,0,0,26,26,132,221.0850419998169,,,,,,,,,,,,,,,,,,,,,,,,,,,,,,,,,,,,,,,,,,,,,,,,,,,,,,,,,,,,,,,,,,,,,,,,,,,,,,,,,114.06576154406116,122.36533486237954,170.86377517590898,160.27932220286277,72.43287122063839,181.2467859896334,4.0,4.1,-237,-252,0,9,267,-251,221.07018375396729,221.0702362060547,221.07246088981628,221.0850419998169,221.23511743545532,221.23511743545532,221.23511743545532,221.23511743545532,221.23511743545532,221.23511743545532,221.23511743545532,222.33611512184143,2,1.2386221885681152,None,,,,,,,,,,,,,,,,,,63,5,2025-02-19_16h54.09.828,comp,2024.2.4,61.395991545122925,2025-02-19 16h54.19.919441 -0500,
27,27,0,critical,wdh,35.0,2.1,upper,125.0,200.0,127.0,127.0,200.0,125.0,3,3.2201387882232666,None,,,,,0,0,0,0,0,27,27,33,222.35152983665466,,,,,,,,,,,,,,,,,,,,,,,,,,,,,,,,,,,,,,,,,,,,,,,,,,,,,,,,,,,,,,,,,,,,,,,,,,,,,,,,,125.0,200.0,127.0,127.0,200.0,125.0,2.1,2.11,-260,281,0,275,222,-258,222.3369176387787,222.3369596004486,222.33948850631714,222.35152983665466,222.5017375946045,222.5017375946045,222.5017375946045,222.5017375946045,222.5017375946045,222.5017375946045,222.5017375946045,225.58631467819214,3,3.2201387882232666,None,,,,,,,,,,,,,,,,,,63,5,2025-02-19_16h54.09.828,comp,2024.2.4,61.395991545122925,2025-02-19 16h54.19.919441 -0500,
28,28,0,filler_random,None,None,None,None,None,None,None,None,None,None,1,1.4270684719085693,None,,,,,0,0,0,0,0,28,28,157,225.60155940055847,,,,,,,,,,,,,,,,,,,,,,,,,,,,,,,,,,,,,,,,,,,,,,,,,,,,,,,,,,,,,,,,,,,,,,,,,,,,,,,,,178.96423995828184,170.84055680388713,60.49004187484542,58.88607312773985,72.20402530355014,87.42762728881839,1.0,1.1,-691,273,-480,283,-311,268,225.58725214004517,225.58729577064514,225.58933663368225,225.60155940055847,225.7520182132721,225.7520182132721,225.7520182132721,225.7520182132721,225.7520182132721,225.7520182132721,225.7520182132721,227.03610134124756,1,1.4270684719085693,None,,,,,,,,,,,,,,,,,,63,5,2025-02-19_16h54.09.828,comp,2024.2.4,61.395991545122925,2025-02-19 16h54.19.919441 -0500,
29,29,0,filler_square,None,None,None,None,None,None,None,None,None,None,3,2.5772032737731934,None,,,,,0,0,0,0,0,29,29,205,227.05153584480286,,,,,,,,,,,,,,,,,,,,,,,,,,,,,,,,,,,,,,,,,,,,,,,,,,,,,,,,,,,,,,,,,,,,,,,,,,,,,,,,,75.27545875303048,80.70504232418855,108.23050640389548,81.72498729896121,123.75904080047889,123.75904080047889,3.0,3.2,-177,-259,0,-16,199,270,227.03703784942627,227.0370807647705,227.03931307792664,227.05153584480286,227.2016577720642,227.2016577720642,227.2016577720642,227.2016577720642,227.2016577720642,227.2016577720642,227.2016577720642,229.63597774505615,3,2.5772032737731934,None,,,,,,,,,,,,,,,,,,63,5,2025-02-19_16h54.09.828,comp,2024.2.4,61.395991545122925,2025-02-19 16h54.19.919441 -0500,
30,30,0,filler_square,None,None,None,None,None,None,None,None,None,None,2,1.698580026626587,None,,,,,0,0,0,0,0,30,30,183,229.6517186164856,,,,,,,,,,,,,,,,,,,,,,,,,,,,,,,,,,,,,,,,,,,,,,,,,,,,,,,,,,,,,,,,,,,,,,,,,,,,,,,,,68.86054555662342,67.15665064072678,88.69099423915901,88.69099423915901,70.85701745536825,67.14021401851429,1.0,1.2,-174,4,0,7,174,11,229.63694524765015,229.6369869709015,229.63956260681152,229.6517186164856,229.80147194862366,229.80147194862366,229.80147194862366,229.80147194862366,229.80147194862366,229.80147194862366,229.80147194862366,231.35281896591187,2,1.698580026626587,None,,,,,,,,,,,,,,,,,,63,5,2025-02-19_16h54.09.828,comp,2024.2.4,61.395991545122925,2025-02-19 16h54.19.919441 -0500,
31,31,0,critical,wdh,20.0,2.1,upper,125.0,200.0,141.0,141.0,200.0,125.0,1,2.828395128250122,None,,,,,0,0,0,0,0,31,31,11,231.36837935447693,,,,,,,,,,,,,,,,,,,,,,,,,,,,,,,,,,,,,,,,,,,,,,,,,,,,,,,,,,,,,,,,,,,,,,,,,,,,,,,,,125.0,200.0,141.0,141.0,200.0,125.0,2.1,2.12,-266,-254,0,-257,229,259,231.35365271568298,231.35369324684143,231.35580229759216,231.36837935447693,231.51835465431213,231.51835465431213,231.51835465431213,231.51835465431213,231.51835465431213,231.51835465431213,231.51835465431213,234.202951669693,1,2.828395128250122,None,,,,,,,,,,,,,,,,,,63,5,2025-02-19_16h54.09.828,comp,2024.2.4,61.395991545122925,2025-02-19 16h54.19.919441 -0500,
32,32,0,catch,None,None,None,None,None,None,None,None,None,None,3,1.8012380599975586,None,,,,,0,0,0,0,0,32,32,128,234.2183005809784,,,,,,,,,,,,,,,,,,,,,,,,,,,,,,,,,,,,,,,,,,,,,,,,,,,,,,,,,,,,,,,,,,,,,,,,,,,,,,,,,114,76,110,80,157,168,2.2,2.22,-174,284,0,-284,220,-286,234.2041416168213,234.20418620109558,234.20679759979248,234.2183005809784,234.36832976341248,234.36832976341248,234.36832976341248,234.36832976341248,234.36832976341248,234.36832976341248,234.36832976341248,236.03603219985962,3,1.8012380599975586,None,,,,,,,,,,,,,,,,,,63,5,2025-02-19_16h54.09.828,comp,2024.2.4,61.395991545122925,2025-02-19 16h54.19.919441 -0500,
33,33,0,critical,wdh,35.0,1.0,lower,57.0,133.0,70.0,70.0,133.0,57.0,3,2.7047932147979736,None,,,,,0,0,0,0,0,33,33,72,236.05144095420837,,,,,,,,,,,,,,,,,,,,,,,,,,,,,,,,,,,,,,,,,,,,,,,,,,,,,,,,,,,,,,,,,,,,,,,,,,,,,,,,,57.0,133.0,70.0,70.0,133.0,57.0,1.0,1.1,-678,259,-480,272,-320,279,236.03685760498047,236.03690028190613,236.0394151210785,236.05144095420837,236.20158076286316,236.20158076286316,236.20158076286316,236.20158076286316,236.20158076286316,236.20158076286316,236.20158076286316,238.7693681716919,3,2.7047932147979736,None,,,,,,,,,,,,,,,,,,63,5,2025-02-19_16h54.09.828,comp,2024.2.4,61.395991545122925,2025-02-19 16h54.19.919441 -0500,
34,34,0,filler_random,None,None,None,None,None,None,None,None,None,None,1,2.180173635482788,None,,,,,0,0,0,0,0,34,34,140,238.7847056388855,,,,,,,,,,,,,,,,,,,,,,,,,,,,,,,,,,,,,,,,,,,,,,,,,,,,,,,,,,,,,,,,,,,,,,,,,,,,,,,,,116.11755485522858,197.26360280263552,115.1260300875618,135.39661767377382,186.207069592614,79.79711472100624,1.0,1.2,-262,-2,0,6,204,-15,238.7702407836914,238.770281791687,238.77256751060486,238.7847056388855,238.93496751785278,238.93496751785278,238.93496751785278,238.93496751785278,238.93496751785278,238.93496751785278,238.93496751785278,240.9696569442749,1,2.180173635482788,None,,,,,,,,,,,,,,,,,,63,5,2025-02-19_16h54.09.828,comp,2024.2.4,61.395991545122925,2025-02-19 16h54.19.919441 -0500,
35,35,0,critical,dhw,20.0,3.0,lower,78.0,78.0,133.0,57.0,57.0,133.0,3,4.20317268371582,None,,,,,0,0,0,0,0,35,35,56,240.98486948013306,,,,,,,,,,,,,,,,,,,,,,,,,,,,,,,,,,,,,,,,,,,,,,,,,,,,,,,,,,,,,,,,,,,,,,,,,,,,,,,,,78.0,78.0,133.0,57.0,57.0,133.0,3.0,3.1,-164,259,0,-13,191,-276,240.9704430103302,240.97048425674438,240.972749710083,240.98486948013306,241.13476061820984,241.13476061820984,241.13476061820984,241.13476061820984,241.13476061820984,241.13476061820984,241.13476061820984,245.2028932571411,3,4.20317268371582,None,,,,,,,,,,,,,,,,,,63,5,2025-02-19_16h54.09.828,comp,2024.2.4,61.395991545122925,2025-02-19 16h54.19.919441 -0500,
36,36,0,catch,None,None,None,None,None,None,None,None,None,None,2,1.13816237449646,None,,,,,0,0,0,0,0,36,36,122,245.21812796592712,,,,,,,,,,,,,,,,,,,,,,,,,,,,,,,,,,,,,,,,,,,,,,,,,,,,,,,,,,,,,,,,,,,,,,,,,,,,,,,,,69,121,174,151,101,89,1.0,1.1,-712,272,-480,280,-264,277,245.20391035079956,245.203950881958,245.20641112327576,245.21812796592712,245.3681240081787,245.3681240081787,245.3681240081787,245.3681240081787,245.3681240081787,245.3681240081787,245.3681240081787,246.36977076530457,2,1.13816237449646,None,,,,,,,,,,,,,,,,,,63,5,2025-02-19_16h54.09.828,comp,2024.2.4,61.395991545122925,2025-02-19 16h54.19.919441 -0500,
37,37,0,critical,dhw,20.0,4.0,lower,78.0,78.0,133.0,57.0,57.0,133.0,1,7.181069612503052,None,,,,,0,0,0,0,0,37,37,58,246.38469290733337,,,,,,,,,,,,,,,,,,,,,,,,,,,,,,,,,,,,,,,,,,,,,,,,,,,,,,,,,,,,,,,,,,,,,,,,,,,,,,,,,78.0,78.0,133.0,57.0,57.0,133.0,4.0,4.1,-164,-252,0,11,191,-274,246.370600938797,246.37064051628113,246.37306571006775,246.38469290733337,246.53475785255432,246.53475785255432,246.53475785255432,246.53475785255432,246.53475785255432,246.53475785255432,246.53475785255432,253.56936955451965,1,7.181069612503052,None,,,,,,,,,,,,,,,,,,63,5,2025-02-19_16h54.09.828,comp,2024.2.4,61.395991545122925,2025-02-19 16h54.19.919441 -0500,
38,38,0,critical,dhw,20.0,1.0,lower,78.0,78.0,133.0,57.0,57.0,133.0,2,6.611478805541992,None,,,,,0,0,0,0,0,38,38,54,253.58480095863342,,,,,,,,,,,,,,,,,,,,,,,,,,,,,,,,,,,,,,,,,,,,,,,,,,,,,,,,,,,,,,,,,,,,,,,,,,,,,,,,,78.0,78.0,133.0,57.0,57.0,133.0,1.0,1.3,316,-259,480,-258,671,-284,253.57014727592468,253.57018971443176,253.57245588302612,253.58480095863342,253.73472332954407,253.73472332954407,253.73472332954407,253.73472332954407,253.73472332954407,253.73472332954407,253.73472332954407,260.202721118927,2,6.611478805541992,None,,,,,,,,,,,,,,,,,,63,5,2025-02-19_16h54.09.828,comp,2024.2.4,61.395991545122925,2025-02-19 16h54.19.919441 -0500,
39,39,0,critical,hdw,20.0,2.1,upper,200.0,125.0,141.0,141.0,125.0,200.0,3,1.4836885929107666,None,,,,,0,0,0,0,0,39,39,47,260.21808648109436,,,,,,,,,,,,,,,,,,,,,,,,,,,,,,,,,,,,,,,,,,,,,,,,,,,,,,,,,,,,,,,,,,,,,,,,,,,,,,,,,200.0,125.0,141.0,141.0,125.0,200.0,2.1,2.12,-229,-277,0,-289,266,282,260.2034945487976,260.20353507995605,260.2058575153351,260.21808648109436,260.3682825565338,260.3682825565338,260.3682825565338,260.3682825565338,260.3682825565338,260.3682825565338,260.3682825565338,261.70304131507874,3,1.4836885929107666,None,,,,,,,,,,,,,,,,,,63,5,2025-02-19_16h54.09.828,comp,2024.2.4,61.395991545122925,2025-02-19 16h54.19.919441 -0500,
40,40,0,critical,hdw,35.0,4.0,upper,200.0,125.0,127.0,127.0,125.0,200.0,3,2.589193820953369,None,,,,,0,0,0,0,0,40,40,113,261.718141078949,,,,,,,,,,,,,,,,,,,,,,,,,,,,,,,,,,,,,,,,,,,,,,,,,,,,,,,,,,,,,,,,,,,,,,,,,,,,,,,,,200.0,125.0,127.0,127.0,125.0,200.0,4.0,4.2,-222,7,0,-280,260,20,261.70381712913513,261.70385670661926,261.70588302612305,261.718141078949,261.8682804107666,261.8682804107666,261.8682804107666,261.8682804107666,261.8682804107666,261.8682804107666,261.8682804107666,264.3197889328003,3,2.589193820953369,None,,,,,,,,,,,,,,,,,,63,5,2025-02-19_16h54.09.828,comp,2024.2.4,61.395991545122925,2025-02-19 16h54.19.919441 -0500,
41,41,0,filler_square,None,None,None,None,None,None,None,None,None,None,3,2.0369908809661865,None,,,,,0,0,0,0,0,41,41,191,264.3344535827637,,,,,,,,,,,,,,,,,,,,,,,,,,,,,,,,,,,,,,,,,,,,,,,,,,,,,,,,,,,,,,,,,,,,,,,,,,,,,,,,,63.70887825602926,58.5312473702327,59.644066113255526,68.21088473244679,68.95459330088114,68.95459330088114,4.0,4.2,-159,-14,0,-284,165,2,264.32077288627625,264.3208146095276,264.3232719898224,264.3344535827637,264.484655380249,264.484655380249,264.484655380249,264.484655380249,264.484655380249,264.484655380249,264.484655380249,266.3857932090759,3,2.0369908809661865,None,,,,,,,,,,,,,,,,,,63,5,2025-02-19_16h54.09.828,comp,2024.2.4,61.395991545122925,2025-02-19 16h54.19.919441 -0500,
42,42,0,filler_random,None,None,None,None,None,None,None,None,None,None,2,1.634281873703003,None,,,,,0,0,0,0,0,42,42,133,266.4012539386749,,,,,,,,,,,,,,,,,,,,,,,,,,,,,,,,,,,,,,,,,,,,,,,,,,,,,,,,,,,,,,,,,,,,,,,,,,,,,,,,,117.6525801326379,86.41141281530338,165.87370470682515,84.9228418474307,105.41716239177792,83.49748073187939,2.2,2.22,-182,261,0,-269,180,-285,266.3867039680481,266.3867447376251,266.3887734413147,266.4012539386749,266.55137872695923,266.55137872695923,266.55137872695923,266.55137872695923,266.55137872695923,266.55137872695923,266.55137872695923,268.05246019363403,2,1.634281873703003,None,,,,,,,,,,,,,,,,,,63,5,2025-02-19_16h54.09.828,comp,2024.2.4,61.395991545122925,2025-02-19 16h54.19.919441 -0500,
43,43,0,critical,dwh,20.0,1.0,upper,141.0,141.0,125.0,200.0,200.0,125.0,2,4.735673427581787,None,,,,,0,0,0,0,0,43,43,67,268.0679075717926,,,,,,,,,,,,,,,,,,,,,,,,,,,,,,,,,,,,,,,,,,,,,,,,,,,,,,,,,,,,,,,,,,,,,,,,,,,,,,,,,141.0,141.0,125.0,200.0,200.0,125.0,1.0,1.1,-746,269,-480,280,-222,257,268.0532605648041,268.0533034801483,268.05567741394043,268.0679075717926,268.21816062927246,268.21816062927246,268.21816062927246,268.21816062927246,268.21816062927246,268.21816062927246,268.21816062927246,272.81923747062683,2,4.735673427581787,None,,,,,,,,,,,,,,,,,,63,5,2025-02-19_16h54.09.828,comp,2024.2.4,61.395991545122925,2025-02-19 16h54.19.919441 -0500,
44,44,0,filler_random,None,None,None,None,None,None,None,None,None,None,2,3.4258246421813965,None,,,,,0,0,0,0,0,44,44,155,272.8345170021057,,,,,,,,,,,,,,,,,,,,,,,,,,,,,,,,,,,,,,,,,,,,,,,,,,,,,,,,,,,,,,,,,,,,,,,,,,,,,,,,,130.73758215531433,121.46066469846512,161.3907206660259,113.9045732647408,150.15247932463598,125.10943438637831,2.1,2.12,-214,-273,0,-278,216,271,272.82025480270386,272.8202950954437,272.82235193252563,272.8345170021057,272.98481845855713,272.98481845855713,272.98481845855713,272.98481845855713,272.98481845855713,272.98481845855713,272.98481845855713,276.2692289352417,2,3.4258246421813965,None,,,,,,,,,,,,,,,,,,63,5,2025-02-19_16h54.09.828,comp,2024.2.4,61.395991545122925,2025-02-19 16h54.19.919441 -0500,
45,45,0,critical,whd,35.0,4.0,lower,57.0,133.0,133.0,57.0,70.0,70.0,2,2.8546969890594482,None,,,,,0,0,0,0,0,45,45,88,276.2847089767456,,,,,,,,,,,,,,,,,,,,,,,,,,,,,,,,,,,,,,,,,,,,,,,,,,,,,,,,,,,,,,,,,,,,,,,,,,,,,,,,,57.0,133.0,133.0,57.0,70.0,70.0,4.0,4.1,-191,-273,0,14,160,-263,276.27002811431885,276.2700695991516,276.27230310440063,276.2847089767456,276.4346172809601,276.4346172809601,276.4346172809601,276.4346172809601,276.4346172809601,276.4346172809601,276.4346172809601,279.152396440506,2,2.8546969890594482,None,,,,,,,,,,,,,,,,,,63,5,2025-02-19_16h54.09.828,comp,2024.2.4,61.395991545122925,2025-02-19 16h54.19.919441 -0500,
46,46,0,critical,whd,35.0,1.0,lower,57.0,133.0,133.0,57.0,70.0,70.0,2,2.0838351249694824,None,,,,,0,0,0,0,0,46,46,84,279.16772198677063,,,,,,,,,,,,,,,,,,,,,,,,,,,,,,,,,,,,,,,,,,,,,,,,,,,,,,,,,,,,,,,,,,,,,,,,,,,,,,,,,57.0,133.0,133.0,57.0,70.0,70.0,1.0,1.3,289,-267,480,-281,640,-268,279.1531617641449,279.15321612358093,279.1554446220398,279.16772198677063,279.31785249710083,279.31785249710083,279.31785249710083,279.31785249710083,279.31785249710083,279.31785249710083,279.31785249710083,281.26897716522217,2,2.0838351249694824,None,,,,,,,,,,,,,,,,,,63,5,2025-02-19_16h54.09.828,comp,2024.2.4,61.395991545122925,2025-02-19 16h54.19.919441 -0500,
47,47,0,critical,hdw,20.0,1.0,upper,200.0,125.0,141.0,141.0,125.0,200.0,3,3.3759055137634277,None,,,,,0,0,0,0,0,47,47,115,281.28433990478516,,,,,,,,,,,,,,,,,,,,,,,,,,,,,,,,,,,,,,,,,,,,,,,,,,,,,,,,,,,,,,,,,,,,,,,,,,,,,,,,,200.0,125.0,141.0,141.0,125.0,200.0,1.0,1.2,-229,6,0,2,266,1,281.26975440979004,281.2697944641113,281.2722866535187,281.28433990478516,281.43468046188354,281.43468046188354,281.43468046188354,281.43468046188354,281.43468046188354,281.43468046188354,281.43468046188354,284.669264793396,3,3.3759055137634277,None,,,,,,,,,,,,,,,,,,63,5,2025-02-19_16h54.09.828,comp,2024.2.4,61.395991545122925,2025-02-19 16h54.19.919441 -0500,
48,48,0,filler_square,None,None,None,None,None,None,None,None,None,None,1,2.6865293979644775,None,,,,,0,0,0,0,0,48,48,177,284.6847610473633,,,,,,,,,,,,,,,,,,,,,,,,,,,,,,,,,,,,,,,,,,,,,,,,,,,,,,,,,,,,,,,,,,,,,,,,,,,,,,,,,72.59603382096672,72.59603382096672,67.31755627993871,58.46540108251331,68.86754175306007,70.44648210147844,4.0,4.2,-162,-3,0,-252,160,-13,284.670209646225,284.6702527999878,284.67230105400085,284.6847610473633,284.8345146179199,284.8345146179199,284.8345146179199,284.8345146179199,284.8345146179199,284.8345146179199,284.8345146179199,287.3856248855591,1,2.6865293979644775,None,,,,,,,,,,,,,,,,,,63,5,2025-02-19_16h54.09.828,comp,2024.2.4,61.395991545122925,2025-02-19 16h54.19.919441 -0500,
49,49,0,filler_random,None,None,None,None,None,None,None,None,None,None,2,1.4507088661193848,None,,,,,0,0,0,0,0,49,49,135,287.4010365009308,,,,,,,,,,,,,,,,,,,,,,,,,,,,,,,,,,,,,,,,,,,,,,,,,,,,,,,,,,,,,,,,,,,,,,,,,,,,,,,,,58.03604058072094,142.98196025480843,130.90231022399098,141.50942471658516,57.90679030220897,57.35350506675734,3.0,3.1,-238,250,0,19,195,-281,287.3865394592285,287.38658261299133,287.38902044296265,287.4010365009308,287.5512840747833,287.5512840747833,287.5512840747833,287.5512840747833,287.5512840747833,287.5512840747833,287.5512840747833,288.8689754009247,2,1.4507088661193848,None,,,,,,,,,,,,,,,,,,63,5,2025-02-19_16h54.09.828,comp,2024.2.4,61.395991545122925,2025-02-19 16h54.19.919441 -0500,
50,50,0,filler_random,None,None,None,None,None,None,None,None,None,None,1,1.6806576251983643,None,,,,,0,0,0,0,0,50,50,153,288.88437509536743,,,,,,,,,,,,,,,,,,,,,,,,,,,,,,,,,,,,,,,,,,,,,,,,,,,,,,,,,,,,,,,,,,,,,,,,,,,,,,,,,121.93105736235013,197.83951046026905,155.7078298385369,75.14872840923961,116.8507940944086,93.94650129612579,2.2,2.21,-232,-266,0,273,181,253,288.8699104785919,288.8699519634247,288.87245512008667,288.88437509536743,289.03458642959595,289.03458642959595,289.03458642959595,289.03458642959595,289.03458642959595,289.03458642959595,289.03458642959595,290.5691571235657,1,1.6806576251983643,None,,,,,,,,,,,,,,,,,,63,5,2025-02-19_16h54.09.828,comp,2024.2.4,61.395991545122925,2025-02-19 16h54.19.919441 -0500,
51,51,0,critical,hwd,20.0,2.1,upper,200.0,125.0,125.0,200.0,141.0,141.0,2,3.2032084465026855,None,,,,,0,0,0,0,0,51,51,43,290.5846543312073,,,,,,,,,,,,,,,,,,,,,,,,,,,,,,,,,,,,,,,,,,,,,,,,,,,,,,,,,,,,,,,,,,,,,,,,,,,,,,,,,200.0,125.0,125.0,200.0,141.0,141.0,2.1,2.11,-258,285,0,257,266,-262,290.56992864608765,290.5699677467346,290.5719497203827,290.5846543312073,290.73475193977356,290.73475193977356,290.73475193977356,290.73475193977356,290.73475193977356,290.73475193977356,290.73475193977356,293.80253887176514,2,3.2032084465026855,None,,,,,,,,,,,,,,,,,,63,5,2025-02-19_16h54.09.828,comp,2024.2.4,61.395991545122925,2025-02-19 16h54.19.919441 -0500,
52,52,0,critical,hdw,20.0,4.0,lower,133.0,57.0,78.0,78.0,57.0,133.0,3,4.347324371337891,None,,,,,0,0,0,0,0,52,52,118,293.81775188446045,,,,,,,,,,,,,,,,,,,,,,,,,,,,,,,,,,,,,,,,,,,,,,,,,,,,,,,,,,,,,,,,,,,,,,,,,,,,,,,,,133.0,57.0,78.0,78.0,57.0,133.0,4.0,4.2,-164,1,0,-262,202,18,293.8033015727997,293.80334067344666,293.8056290149689,293.81775188446045,293.9678542613983,293.9678542613983,293.9678542613983,293.9678542613983,293.9678542613983,293.9678542613983,293.9678542613983,298.1690411567688,3,4.347324371337891,None,,,,,,,,,,,,,,,,,,63,5,2025-02-19_16h54.09.828,comp,2024.2.4,61.395991545122925,2025-02-19 16h54.19.919441 -0500,
53,53,0,critical,hwd,35.0,1.0,upper,200.0,125.0,125.0,200.0,127.0,127.0,2,3.834033489227295,None,,,,,0,0,0,0,0,53,53,97,298.18516755104065,,,,,,,,,,,,,,,,,,,,,,,,,,,,,,,,,,,,,,,,,,,,,,,,,,,,,,,,,,,,,,,,,,,,,,,,,,,,,,,,,200.0,125.0,125.0,200.0,127.0,127.0,1.0,1.3,222,-254,480,-274,740,-270,298.1698040962219,298.1698434352875,298.1716990470886,298.18516755104065,298.3346173763275,298.3346173763275,298.3346173763275,298.3346173763275,298.3346173763275,298.3346173763275,298.3346173763275,302.03579020500183,2,3.834033489227295,None,,,,,,,,,,,,,,,,,,63,5,2025-02-19_16h54.09.828,comp,2024.2.4,61.395991545122925,2025-02-19 16h54.19.919441 -0500,
54,54,0,filler_square,None,None,None,None,None,None,None,None,None,None,3,2.6088874340057373,None,,,,,0,0,0,0,0,54,54,174,302.05135107040405,,,,,,,,,,,,,,,,,,,,,,,,,,,,,,,,,,,,,,,,,,,,,,,,,,,,,,,,,,,,,,,,,,,,,,,,,,,,,,,,,136.61410578495543,112.44280926369979,107.65271905557746,110.58821776404658,166.0209871908864,166.0209871908864,4.0,4.2,-208,-6,0,-260,234,8,302.03675627708435,302.0367982387543,302.03923082351685,302.05135107040405,302.2012560367584,302.2012560367584,302.2012560367584,302.2012560367584,302.2012560367584,302.2012560367584,302.2012560367584,304.66901993751526,3,2.6088874340057373,None,,,,,,,,,,,,,,,,,,63,5,2025-02-19_16h54.09.828,comp,2024.2.4,61.395991545122925,2025-02-19 16h54.19.919441 -0500,
55,55,0,critical,whd,35.0,1.0,upper,125.0,200.0,200.0,125.0,127.0,127.0,2,5.167179822921753,None,,,,,0,0,0,0,0,55,55,85,304.68460392951965,,,,,,,,,,,,,,,,,,,,,,,,,,,,,,,,,,,,,,,,,,,,,,,,,,,,,,,,,,,,,,,,,,,,,,,,,,,,,,,,,125.0,200.0,200.0,125.0,127.0,127.0,1.0,1.1,-738,264,-480,267,-258,272,304.669802904129,304.66984462738037,304.6722078323364,304.68460392951965,304.83450984954834,304.83450984954834,304.83450984954834,304.83450984954834,304.83450984954834,304.83450984954834,304.83450984954834,309.8689727783203,2,5.167179822921753,None,,,,,,,,,,,,,,,,,,63,5,2025-02-19_16h54.09.828,comp,2024.2.4,61.395991545122925,2025-02-19 16h54.19.919441 -0500,
56,56,0,critical,hdw,35.0,1.0,upper,200.0,125.0,127.0,127.0,125.0,200.0,3,1.3672993183135986,None,,,,,0,0,0,0,0,56,56,109,309.8842055797577,,,,,,,,,,,,,,,,,,,,,,,,,,,,,,,,,,,,,,,,,,,,,,,,,,,,,,,,,,,,,,,,,,,,,,,,,,,,,,,,,200.0,125.0,127.0,127.0,125.0,200.0,1.0,1.1,-702,257,-480,290,-220,250,309.8697760105133,309.8698170185089,309.8722937107086,309.8842055797577,310.034551858902,310.034551858902,310.034551858902,310.034551858902,310.034551858902,310.034551858902,310.034551858902,311.2691192626953,3,1.3672993183135986,None,,,,,,,,,,,,,,,,,,63,5,2025-02-19_16h54.09.828,comp,2024.2.4,61.395991545122925,2025-02-19 16h54.19.919441 -0500,
57,57,0,filler_random,None,None,None,None,None,None,None,None,None,None,2,2.5276708602905273,None,,,,,0,0,0,0,0,57,57,138,311.28432726860046,,,,,,,,,,,,,,,,,,,,,,,,,,,,,,,,,,,,,,,,,,,,,,,,,,,,,,,,,,,,,,,,,,,,,,,,,,,,,,,,,76.10529386459027,171.38692164328194,125.86768169431474,191.3402017032743,118.64724248223729,165.17875052471825,3.0,3.1,-277,252,0,-12,274,-279,311.27002716064453,311.27006816864014,311.27255725860596,311.28432726860046,311.4344570636749,311.4344570636749,311.4344570636749,311.4344570636749,311.4344570636749,311.4344570636749,311.4344570636749,313.81906151771545,2,2.5276708602905273,None,,,,,,,,,,,,,,,,,,63,5,2025-02-19_16h54.09.828,comp,2024.2.4,61.395991545122925,2025-02-19 16h54.19.919441 -0500,
58,58,0,critical,wdh,20.0,2.1,upper,125.0,200.0,141.0,141.0,200.0,125.0,3,2.017303705215454,None,,,,,0,0,0,0,0,58,58,35,313.83443570137024,,,,,,,,,,,,,,,,,,,,,,,,,,,,,,,,,,,,,,,,,,,,,,,,,,,,,,,,,,,,,,,,,,,,,,,,,,,,,,,,,125.0,200.0,141.0,141.0,200.0,125.0,2.1,2.12,-266,-285,0,-264,229,288,313.8198881149292,313.8199315071106,313.82203364372253,313.83443570137024,313.9845314025879,313.9845314025879,313.9845314025879,313.9845314025879,313.9845314025879,313.9845314025879,313.9845314025879,315.86894726753235,3,2.017303705215454,None,,,,,,,,,,,,,,,,,,63,5,2025-02-19_16h54.09.828,comp,2024.2.4,61.395991545122925,2025-02-19 16h54.19.919441 -0500,
59,59,0,filler_random,None,None,None,None,None,None,None,None,None,None,3,4.143706321716309,None,,,,,0,0,0,0,0,59,59,150,315.8841516971588,,,,,,,,,,,,,,,,,,,,,,,,,,,,,,,,,,,,,,,,,,,,,,,,,,,,,,,,,,,,,,,,,,,,,,,,,,,,,,,,,198.62899853716007,78.89770012512264,127.88321129041191,59.07624204881257,103.73939233163149,142.3358139895245,2.1,2.11,-165,252,0,282,197,-270,315.8699827194214,315.8700246810913,315.87256145477295,315.8841516971588,316.03428411483765,316.03428411483765,316.03428411483765,316.03428411483765,316.03428411483765,316.03428411483765,316.03428411483765,320.0353636741638,3,4.143706321716309,None,,,,,,,,,,,,,,,,,,63,5,2025-02-19_16h54.09.828,comp,2024.2.4,61.395991545122925,2025-02-19 16h54.19.919441 -0500,
60,60,0,critical,hwd,20.0,1.0,lower,133.0,57.0,57.0,133.0,78.0,78.0,2,4.098742723464966,None,,,,,0,0,0,0,0,60,60,102,320.05100536346436,,,,,,,,,,,,,,,,,,,,,,,,,,,,,,,,,,,,,,,,,,,,,,,,,,,,,,,,,,,,,,,,,,,,,,,,,,,,,,,,,133.0,57.0,57.0,133.0,78.0,78.0,1.0,1.2,-191,5,0,6,202,4,320.0361168384552,320.0361568927765,320.03847455978394,320.05100536346436,320.20102620124817,320.20102620124817,320.20102620124817,320.20102620124817,320.20102620124817,320.20102620124817,320.20102620124817,324.15215277671814,2,4.098742723464966,None,,,,,,,,,,,,,,,,,,63,5,2025-02-19_16h54.09.828,comp,2024.2.4,61.395991545122925,2025-02-19 16h54.19.919441 -0500,
61,61,0,critical,wdh,35.0,2.1,upper,125.0,200.0,127.0,127.0,200.0,125.0,3,2.676417827606201,None,,,,,0,0,0,0,0,61,61,9,324.16761589050293,,,,,,,,,,,,,,,,,,,,,,,,,,,,,,,,,,,,,,,,,,,,,,,,,,,,,,,,,,,,,,,,,,,,,,,,,,,,,,,,,125.0,200.0,127.0,127.0,200.0,125.0,2.1,2.11,-260,265,0,275,222,-282,324.1529474258423,324.15298771858215,324.1551458835602,324.16761589050293,324.3177316188812,324.3177316188812,324.3177316188812,324.3177316188812,324.3177316188812,324.3177316188812,324.3177316188812,326.8523108959198,3,2.676417827606201,None,,,,,,,,,,,,,,,,,,63,5,2025-02-19_16h54.09.828,comp,2024.2.4,61.395991545122925,2025-02-19 16h54.19.919441 -0500,
62,62,0,filler_random,None,None,None,None,None,None,None,None,None,None,2,1.8711872100830078,None,,,,,0,0,0,0,0,62,62,169,326.86776065826416,,,,,,,,,,,,,,,,,,,,,,,,,,,,,,,,,,,,,,,,,,,,,,,,,,,,,,,,,,,,,,,,,,,,,,,,,,,,,,,,,71.50645440837191,165.27755390854716,155.47829036791396,139.00174121792094,136.5191979283626,74.74126941161902,2.2,2.22,-248,262,0,-282,203,-261,326.8532395362854,326.8532829284668,326.85557198524475,326.86776065826416,327.0176076889038,327.0176076889038,327.0176076889038,327.0176076889038,327.0176076889038,327.0176076889038,327.0176076889038,328.75212025642395,2,1.8711872100830078,None,,,,,,,,,,,,,,,,,,63,5,2025-02-19_16h54.09.828,comp,2024.2.4,61.395991545122925,2025-02-19 16h54.19.919441 -0500,
63,63,0,critical,hdw,20.0,3.0,lower,133.0,57.0,78.0,78.0,57.0,133.0,3,5.219749689102173,None,,,,,0,0,0,0,0,63,63,116,328.76750326156616,,,,,,,,,,,,,,,,,,,,,,,,,,,,,,,,,,,,,,,,,,,,,,,,,,,,,,,,,,,,,,,,,,,,,,,,,,,,,,,,,133.0,57.0,78.0,78.0,57.0,133.0,3.0,3.1,-164,263,0,-17,202,-283,328.75292897224426,328.7529718875885,328.75494503974915,328.76750326156616,328.9175364971161,328.9175364971161,328.9175364971161,328.9175364971161,328.9175364971161,328.9175364971161,328.9175364971161,334.00200939178467,3,5.219749689102173,None,,,,,,,,,,,,,,,,,,63,5,2025-02-19_16h54.09.828,comp,2024.2.4,61.395991545122925,2025-02-19 16h54.19.919441 -0500,
64,64,0,filler_square,None,None,None,None,None,None,None,None,None,None,3,1.2893166542053223,None,,,,,0,0,0,0,0,64,64,176,334.0175054073334,,,,,,,,,,,,,,,,,,,,,,,,,,,,,,,,,,,,,,,,,,,,,,,,,,,,,,,,,,,,,,,,,,,,,,,,,,,,,,,,,100.57672138298932,138.0090930187616,74.3642232606262,129.252102358615,144.77979545201595,144.77979545201595,2.2,2.21,-230,-255,0,265,233,288,334.0029573440552,334.00299882888794,334.00550055503845,334.0175054073334,334.1675522327423,334.1675522327423,334.1675522327423,334.1675522327423,334.1675522327423,334.1675522327423,334.1675522327423,335.3187098503113,3,1.2893166542053223,None,,,,,,,,,,,,,,,,,,63,5,2025-02-19_16h54.09.828,comp,2024.2.4,61.395991545122925,2025-02-19 16h54.19.919441 -0500,
65,65,0,filler_random,None,None,None,None,None,None,None,None,None,None,3,2.558500289916992,None,,,,,0,0,0,0,0,65,65,165,335.3341100215912,,,,,,,,,,,,,,,,,,,,,,,,,,,,,,,,,,,,,,,,,,,,,,,,,,,,,,,,,,,,,,,,,,,,,,,,,,,,,,,,,197.51794955471,82.22069503392882,62.0593287375279,80.68946565709071,105.24718409780657,134.48839553923852,1.0,1.3,303,-275,480,-280,684,-281,335.3196280002594,335.31966853141785,335.3220672607422,335.3341100215912,335.48414635658264,335.48414635658264,335.48414635658264,335.48414635658264,335.48414635658264,335.48414635658264,335.48414635658264,337.90194821357727,3,2.558500289916992,None,,,,,,,,,,,,,,,,,,63,5,2025-02-19_16h54.09.828,comp,2024.2.4,61.395991545122925,2025-02-19 16h54.19.919441 -0500,
66,66,0,catch,None,None,None,None,None,None,None,None,None,None,2,1.2855746746063232,None,,,,,0,0,0,0,0,66,66,121,337.91766929626465,,,,,,,,,,,,,,,,,,,,,,,,,,,,,,,,,,,,,,,,,,,,,,,,,,,,,,,,,,,,,,,,,,,,,,,,,,,,,,,,,104,86,131,194,85,105,4.0,4.1,-236,-286,0,-12,246,-262,337.90301990509033,337.903062582016,337.90553164482117,337.91766929626465,338.0675194263458,338.0675194263458,338.0675194263458,338.0675194263458,338.0675194263458,338.0675194263458,338.0675194263458,339.218612909317,2,1.2855746746063232,None,,,,,,,,,,,,,,,,,,63,5,2025-02-19_16h54.09.828,comp,2024.2.4,61.395991545122925,2025-02-19 16h54.19.919441 -0500,
67,67,0,filler_square,None,None,None,None,None,None,None,None,None,None,2,2.0886497497558594,None,,,,,0,0,0,0,0,67,67,172,339.2340769767761,,,,,,,,,,,,,,,,,,,,,,,,,,,,,,,,,,,,,,,,,,,,,,,,,,,,,,,,,,,,,,,,,,,,,,,,,,,,,,,,,113.79389116892622,78.37891847037348,119.78078805588666,119.78078805588666,70.86428358133738,100.34321319842836,3.0,3.1,-195,262,0,-17,206,-260,339.2195870876312,339.21962785720825,339.2220058441162,339.2340769767761,339.3842465877533,339.3842465877533,339.3842465877533,339.3842465877533,339.3842465877533,339.3842465877533,339.3842465877533,341.33530950546265,2,2.0886497497558594,None,,,,,,,,,,,,,,,,,,63,5,2025-02-19_16h54.09.828,comp,2024.2.4,61.395991545122925,2025-02-19 16h54.19.919441 -0500,
68,68,0,critical,whd,35.0,2.1,lower,57.0,133.0,133.0,57.0,70.0,70.0,2,4.069218873977661,None,,,,,0,0,0,0,0,68,68,36,341.3506226539612,,,,,,,,,,,,,,,,,,,,,,,,,,,,,,,,,,,,,,,,,,,,,,,,,,,,,,,,,,,,,,,,,,,,,,,,,,,,,,,,,57.0,133.0,133.0,57.0,70.0,70.0,2.1,2.12,-191,-289,0,-270,160,274,341.3360905647278,341.3361313343048,341.33838534355164,341.3506226539612,341.5008053779602,341.5008053779602,341.5008053779602,341.5008053779602,341.5008053779602,341.5008053779602,341.5008053779602,345.4353563785553,2,4.069218873977661,None,,,,,,,,,,,,,,,,,,63,5,2025-02-19_16h54.09.828,comp,2024.2.4,61.395991545122925,2025-02-19 16h54.19.919441 -0500,
69,69,0,critical,dwh,35.0,4.0,lower,70.0,70.0,57.0,133.0,133.0,57.0,3,4.544428110122681,None,,,,,0,0,0,0,0,69,69,64,345.4512588977814,,,,,,,,,,,,,,,,,,,,,,,,,,,,,,,,,,,,,,,,,,,,,,,,,,,,,,,,,,,,,,,,,,,,,,,,,,,,,,,,,70.0,70.0,57.0,133.0,133.0,57.0,4.0,4.1,-198,-289,0,6,191,-259,345.4364106655121,345.43645310401917,345.43851017951965,345.4512588977814,345.60074758529663,345.60074758529663,345.60074758529663,345.60074758529663,345.60074758529663,345.60074758529663,345.60074758529663,350.0019772052765,3,4.544428110122681,None,,,,,,,,,,,,,,,,,,63,5,2025-02-19_16h54.09.828,comp,2024.2.4,61.395991545122925,2025-02-19 16h54.19.919441 -0500,
70,70,0,filler_random,None,None,None,None,None,None,None,None,None,None,2,1.026315689086914,None,,,,,0,0,0,0,0,70,70,145,350.01755261421204,,,,,,,,,,,,,,,,,,,,,,,,,,,,,,,,,,,,,,,,,,,,,,,,,,,,,,,,,,,,,,,,,,,,,,,,,,,,,,,,,87.41421695052514,123.39276423339899,92.20364491969582,188.37309615554787,72.27428189189517,149.71758832149578,3.0,3.1,-252,280,0,-20,265,-275,350.0028314590454,350.00287222862244,350.0052478313446,350.01755261421204,350.1674590110779,350.1674590110779,350.1674590110779,350.1674590110779,350.1674590110779,350.1674590110779,350.1674590110779,351.0519576072693,2,1.026315689086914,None,,,,,,,,,,,,,,,,,,63,5,2025-02-19_16h54.09.828,comp,2024.2.4,61.395991545122925,2025-02-19 16h54.19.919441 -0500,
71,71,0,critical,wdh,20.0,3.0,lower,57.0,133.0,78.0,78.0,133.0,57.0,2,3.7444565296173096,None,,,,,0,0,0,0,0,71,71,80,351.0674686431885,,,,,,,,,,,,,,,,,,,,,,,,,,,,,,,,,,,,,,,,,,,,,,,,,,,,,,,,,,,,,,,,,,,,,,,,,,,,,,,,,57.0,133.0,78.0,78.0,133.0,57.0,3.0,3.2,-202,-276,0,18,164,273,351.052766084671,351.0528073310852,351.0553114414215,351.0674686431885,351.21905183792114,351.21905183792114,351.21905183792114,351.21905183792114,351.21905183792114,351.21905183792114,351.21905183792114,354.8190574645996,2,3.7444565296173096,None,,,,,,,,,,,,,,,,,,63,5,2025-02-19_16h54.09.828,comp,2024.2.4,61.395991545122925,2025-02-19 16h54.19.919441 -0500,
72,72,0,filler_random,None,None,None,None,None,None,None,None,None,None,2,1.3934612274169922,None,,,,,0,0,0,0,0,72,72,158,354.8342683315277,,,,,,,,,,,,,,,,,,,,,,,,,,,,,,,,,,,,,,,,,,,,,,,,,,,,,,,,,,,,,,,,,,,,,,,,,,,,,,,,,85.63080807851131,126.03373958223865,181.80839915392312,173.0433867320554,110.96442483617051,123.56857038231806,2.1,2.12,-246,-275,0,-279,244,252,354.8199710845947,354.8200135231018,354.82206988334656,354.8342683315277,354.9842643737793,354.9842643737793,354.9842643737793,354.9842643737793,354.9842643737793,354.9842643737793,354.9842643737793,356.23526263237,2,1.3934612274169922,None,,,,,,,,,,,,,,,,,,63,5,2025-02-19_16h54.09.828,comp,2024.2.4,61.395991545122925,2025-02-19 16h54.19.919441 -0500,
73,73,0,critical,dhw,20.0,2.1,upper,141.0,141.0,200.0,125.0,125.0,200.0,3,2.0880062580108643,None,,,,,0,0,0,0,0,73,73,27,356.2508776187897,,,,,,,,,,,,,,,,,,,,,,,,,,,,,,,,,,,,,,,,,,,,,,,,,,,,,,,,,,,,,,,,,,,,,,,,,,,,,,,,,141.0,141.0,200.0,125.0,125.0,200.0,2.1,2.11,-229,280,0,252,258,-271,356.2360506057739,356.23609256744385,356.238112449646,356.2508776187897,356.40092039108276,356.40092039108276,356.40092039108276,356.40092039108276,356.40092039108276,356.40092039108276,356.40092039108276,358.35216665267944,3,2.0880062580108643,None,,,,,,,,,,,,,,,,,,63,5,2025-02-19_16h54.09.828,comp,2024.2.4,61.395991545122925,2025-02-19 16h54.19.919441 -0500,
74,74,0,critical,whd,35.0,2.1,lower,57.0,133.0,133.0,57.0,70.0,70.0,2,2.2606468200683594,None,,,,,0,0,0,0,0,74,74,12,358.36717987060547,,,,,,,,,,,,,,,,,,,,,,,,,,,,,,,,,,,,,,,,,,,,,,,,,,,,,,,,,,,,,,,,,,,,,,,,,,,,,,,,,57.0,133.0,133.0,57.0,70.0,70.0,2.1,2.11,-191,281,0,271,160,-264,358.35298705101013,358.3530285358429,358.35523986816406,358.36717987060547,358.51746582984924,358.51746582984924,358.51746582984924,358.51746582984924,358.51746582984924,358.51746582984924,358.51746582984924,360.6351149082184,2,2.2606468200683594,None,,,,,,,,,,,,,,,,,,63,5,2025-02-19_16h54.09.828,comp,2024.2.4,61.395991545122925,2025-02-19 16h54.19.919441 -0500,
75,75,0,filler_square,None,None,None,None,None,None,None,None,None,None,3,1.8984198570251465,None,,,,,0,0,0,0,0,75,75,175,360.6508586406708,,,,,,,,,,,,,,,,,,,,,,,,,,,,,,,,,,,,,,,,,,,,,,,,,,,,,,,,,,,,,,,,,,,,,,,,,,,,,,,,,59.374292184890685,65.93206523919085,70.12080424128634,59.36103856139567,82.20746212771958,82.20746212771958,3.0,3.1,-159,256,0,-16,167,-282,360.6360821723938,360.63612508773804,360.6386914253235,360.6508586406708,360.8006217479706,360.8006217479706,360.8006217479706,360.8006217479706,360.8006217479706,360.8006217479706,360.8006217479706,362.5519189834595,3,1.8984198570251465,None,,,,,,,,,,,,,,,,,,63,5,2025-02-19_16h54.09.828,comp,2024.2.4,61.395991545122925,2025-02-19 16h54.19.919441 -0500,
76,76,0,filler_square,None,None,None,None,None,None,None,None,None,None,2,0.9495627880096436,None,,,,,0,0,0,0,0,76,76,207,362.5674514770508,,,,,,,,,,,,,,,,,,,,,,,,,,,,,,,,,,,,,,,,,,,,,,,,,,,,,,,,,,,,,,,,,,,,,,,,,,,,,,,,,76.63170366717027,65.42255192853523,189.9153331993587,189.9153331993587,67.92724104849215,107.49637394851464,4.0,4.1,-224,-283,0,-14,245,-278,362.55288219451904,362.5529236793518,362.5552144050598,362.5674514770508,362.7173366546631,362.7173366546631,362.7173366546631,362.7173366546631,362.7173366546631,362.7173366546631,362.7173366546631,363.5187623500824,2,0.9495627880096436,None,,,,,,,,,,,,,,,,,,63,5,2025-02-19_16h54.09.828,comp,2024.2.4,61.395991545122925,2025-02-19 16h54.19.919441 -0500,
77,77,0,critical,hwd,20.0,2.1,upper,200.0,125.0,125.0,200.0,141.0,141.0,2,3.0046305656433105,None,,,,,0,0,0,0,0,77,77,19,363.5340781211853,,,,,,,,,,,,,,,,,,,,,,,,,,,,,,,,,,,,,,,,,,,,,,,,,,,,,,,,,,,,,,,,,,,,,,,,,,,,,,,,,200.0,125.0,125.0,200.0,141.0,141.0,2.1,2.11,-258,265,0,264,266,-254,363.51955461502075,363.51959586143494,363.52201628685,363.5340781211853,363.6842613220215,363.6842613220215,363.6842613220215,363.6842613220215,363.6842613220215,363.6842613220215,363.6842613220215,366.55196499824524,2,3.0046305656433105,None,,,,,,,,,,,,,,,,,,63,5,2025-02-19_16h54.09.828,comp,2024.2.4,61.395991545122925,2025-02-19 16h54.19.919441 -0500,
78,78,0,filler_random,None,None,None,None,None,None,None,None,None,None,1,1.2926442623138428,None,,,,,0,0,0,0,0,78,78,148,366.5671718120575,,,,,,,,,,,,,,,,,,,,,,,,,,,,,,,,,,,,,,,,,,,,,,,,,,,,,,,,,,,,,,,,,,,,,,,,,,,,,,,,,190.4733258263224,111.92929174064716,67.63467303061522,71.40999226787322,95.73766261987757,137.16307757078607,3.0,3.2,-188,-281,0,6,200,262,366.5528440475464,366.55288529396057,366.5553228855133,366.5671718120575,366.7173981666565,366.7173981666565,366.7173981666565,366.7173981666565,366.7173981666565,366.7173981666565,366.7173981666565,367.86840200424194,1,1.2926442623138428,None,,,,,,,,,,,,,,,,,,63,5,2025-02-19_16h54.09.828,comp,2024.2.4,61.395991545122925,2025-02-19 16h54.19.919441 -0500,
79,79,0,critical,whd,20.0,2.1,upper,125.0,200.0,200.0,125.0,141.0,141.0,3,3.103064775466919,None,,,,,0,0,0,0,0,79,79,15,367.8843789100647,,,,,,,,,,,,,,,,,,,,,,,,,,,,,,,,,,,,,,,,,,,,,,,,,,,,,,,,,,,,,,,,,,,,,,,,,,,,,,,,,125.0,200.0,200.0,125.0,141.0,141.0,2.1,2.12,-258,-259,0,-285,229,270,367.8692202568054,367.8692617416382,367.8713002204895,367.8843789100647,368.03425788879395,368.03425788879395,368.03425788879395,368.03425788879395,368.03425788879395,368.03425788879395,368.03425788879395,371.00190258026123,3,3.103064775466919,None,,,,,,,,,,,,,,,,,,63,5,2025-02-19_16h54.09.828,comp,2024.2.4,61.395991545122925,2025-02-19 16h54.19.919441 -0500,
80,80,0,critical,dhw,35.0,2.1,lower,70.0,70.0,133.0,57.0,57.0,133.0,3,4.338299751281738,None,,,,,0,0,0,0,0,80,80,0,371.0171113014221,,,,,,,,,,,,,,,,,,,,,,,,,,,,,,,,,,,,,,,,,,,,,,,,,,,,,,,,,,,,,,,,,,,,,,,,,,,,,,,,,70.0,70.0,133.0,57.0,57.0,133.0,2.1,2.12,-160,-281,0,-281,191,282,371.0026869773865,371.002726316452,371.00515151023865,371.0171113014221,371.1673402786255,371.1673402786255,371.1673402786255,371.1673402786255,371.1673402786255,371.1673402786255,371.1673402786255,375.36842370033264,3,4.338299751281738,None,,,,,,,,,,,,,,,,,,63,5,2025-02-19_16h54.09.828,comp,2024.2.4,61.395991545122925,2025-02-19 16h54.19.919441 -0500,
81,81,0,critical,whd,20.0,2.1,lower,57.0,133.0,133.0,57.0,78.0,78.0,2,3.517026662826538,None,,,,,0,0,0,0,0,81,81,14,375.3837184906006,,,,,,,,,,,,,,,,,,,,,,,,,,,,,,,,,,,,,,,,,,,,,,,,,,,,,,,,,,,,,,,,,,,,,,,,,,,,,,,,,57.0,133.0,133.0,57.0,78.0,78.0,2.1,2.11,-191,265,0,275,164,-258,375.36921215057373,375.36925435066223,375.3715178966522,375.3837184906006,375.5339090824127,375.5339090824127,375.5339090824127,375.5339090824127,375.5339090824127,375.5339090824127,375.5339090824127,378.9020001888275,2,3.517026662826538,None,,,,,,,,,,,,,,,,,,63,5,2025-02-19_16h54.09.828,comp,2024.2.4,61.395991545122925,2025-02-19 16h54.19.919441 -0500,
82,82,0,filler_square,None,None,None,None,None,None,None,None,None,None,3,2.101003885269165,None,,,,,0,0,0,0,0,82,82,196,378.9177360534668,,,,,,,,,,,,,,,,,,,,,,,,,,,,,,,,,,,,,,,,,,,,,,,,,,,,,,,,,,,,,,,,,,,,,,,,,,,,,,,,,60.61760478801031,83.25770904873728,91.26266569214664,97.87183901477923,98.85161426892326,98.85161426892326,1.0,1.3,293,-275,480,-250,674,-255,378.9029507637024,378.90299344062805,378.90572142601013,378.9177360534668,379.0671329498291,379.0671329498291,379.0671329498291,379.0671329498291,379.0671329498291,379.0671329498291,379.0671329498291,381.03497195243835,3,2.101003885269165,None,,,,,,,,,,,,,,,,,,63,5,2025-02-19_16h54.09.828,comp,2024.2.4,61.395991545122925,2025-02-19 16h54.19.919441 -0500,
83,83,0,critical,dwh,35.0,2.1,lower,70.0,70.0,57.0,133.0,133.0,57.0,2,4.683123826980591,None,,,,,0,0,0,0,0,83,83,4,381.05042695999146,,,,,,,,,,,,,,,,,,,,,,,,,,,,,,,,,,,,,,,,,,,,,,,,,,,,,,,,,,,,,,,,,,,,,,,,,,,,,,,,,70.0,70.0,57.0,133.0,133.0,57.0,2.1,2.11,-198,255,0,276,191,-273,381.035751581192,381.0357925891876,381.0383243560791,381.05042695999146,381.2006342411041,381.2006342411041,381.2006342411041,381.2006342411041,381.2006342411041,381.2006342411041,381.2006342411041,385.7352590560913,2,4.683123826980591,None,,,,,,,,,,,,,,,,,,63,5,2025-02-19_16h54.09.828,comp,2024.2.4,61.395991545122925,2025-02-19 16h54.19.919441 -0500,
84,84,0,filler_random,None,None,None,None,None,None,None,None,None,None,2,1.2200214862823486,None,,,,,0,0,0,0,0,84,84,167,385.75068521499634,,,,,,,,,,,,,,,,,,,,,,,,,,,,,,,,,,,,,,,,,,,,,,,,,,,,,,,,,,,,,,,,,,,,,,,,,,,,,,,,,119.12944849746432,79.54578439239663,176.35319200742353,145.46679198508843,61.437950073699334,105.96100453964449,3.0,3.2,-209,-259,0,-4,222,285,385.7362644672394,385.7363078594208,385.73883605003357,385.75068521499634,385.9006485939026,385.9006485939026,385.9006485939026,385.9006485939026,385.9006485939026,385.9006485939026,385.9006485939026,386.985059261322,2,1.2200214862823486,None,,,,,,,,,,,,,,,,,,63,5,2025-02-19_16h54.09.828,comp,2024.2.4,61.395991545122925,2025-02-19 16h54.19.919441 -0500,
85,85,0,critical,hwd,35.0,4.0,upper,200.0,125.0,125.0,200.0,127.0,127.0,2,1.9704313278198242,None,,,,,0,0,0,0,0,85,85,101,387.00042033195496,,,,,,,,,,,,,,,,,,,,,,,,,,,,,,,,,,,,,,,,,,,,,,,,,,,,,,,,,,,,,,,,,,,,,,,,,,,,,,,,,200.0,125.0,125.0,200.0,127.0,127.0,4.0,4.2,-258,-11,0,-285,260,-10,386.98585510253906,386.9858977794647,386.98795080184937,387.00042033195496,387.15075612068176,387.15075612068176,387.15075612068176,387.15075612068176,387.15075612068176,387.15075612068176,387.15075612068176,388.98525285720825,2,1.9704313278198242,None,,,,,,,,,,,,,,,,,,63,5,2025-02-19_16h54.09.828,comp,2024.2.4,61.395991545122925,2025-02-19 16h54.19.919441 -0500,
86,86,0,filler_random,None,None,None,None,None,None,None,None,None,None,2,3.4592554569244385,None,,,,,0,0,0,0,0,86,86,168,389.00034499168396,,,,,,,,,,,,,,,,,,,,,,,,,,,,,,,,,,,,,,,,,,,,,,,,,,,,,,,,,,,,,,,,,,,,,,,,,,,,,,,,,118.48622150784985,143.3275559995996,122.83913352438154,147.0221329897435,67.52063259747672,65.38684134646721,4.0,4.2,-241,9,0,-280,202,14,388.9861469268799,388.9861879348755,388.988463640213,389.00034499168396,389.15048360824585,389.15048360824585,389.15048360824585,389.15048360824585,389.15048360824585,389.15048360824585,389.15048360824585,392.4684569835663,2,3.4592554569244385,None,,,,,,,,,,,,,,,,,,63,5,2025-02-19_16h54.09.828,comp,2024.2.4,61.395991545122925,2025-02-19 16h54.19.919441 -0500,
87,87,0,filler_random,None,None,None,None,None,None,None,None,None,None,3,3.159750461578369,None,,,,,0,0,0,0,0,87,87,162,392.4840204715729,,,,,,,,,,,,,,,,,,,,,,,,,,,,,,,,,,,,,,,,,,,,,,,,,,,,,,,,,,,,,,,,,,,,,,,,,,,,,,,,,130.48830311579363,79.1660774410154,112.09167689164815,59.70409412867936,81.97339116689942,199.5311371284627,2.2,2.21,-165,-281,0,250,226,269,392.4694011211395,392.4694468975067,392.4715449810028,392.4840204715729,392.6338047981262,392.6338047981262,392.6338047981262,392.6338047981262,392.6338047981262,392.6338047981262,392.6338047981262,395.6516556739807,3,3.159750461578369,None,,,,,,,,,,,,,,,,,,63,5,2025-02-19_16h54.09.828,comp,2024.2.4,61.395991545122925,2025-02-19 16h54.19.919441 -0500,
88,88,0,filler_square,None,None,None,None,None,None,None,None,None,None,3,3.3121213912963867,None,,,,,0,0,0,0,0,88,88,182,395.6672465801239,,,,,,,,,,,,,,,,,,,,,,,,,,,,,,,,,,,,,,,,,,,,,,,,,,,,,,,,,,,,,,,,,,,,,,,,,,,,,,,,,59.291805209033974,79.52830899024306,58.40379785403955,72.24905807942899,79.64392817180313,79.64392817180313,3.0,3.1,-172,288,0,3,172,-268,395.6526312828064,395.65267419815063,395.654714345932,395.6672465801239,395.81714606285095,395.81714606285095,395.81714606285095,395.81714606285095,395.81714606285095,395.81714606285095,395.81714606285095,398.98491525650024,3,3.3121213912963867,None,,,,,,,,,,,,,,,,,,63,5,2025-02-19_16h54.09.828,comp,2024.2.4,61.395991545122925,2025-02-19 16h54.19.919441 -0500,
89,89,0,filler_random,None,None,None,None,None,None,None,None,None,None,2,1.3701026439666748,None,,,,,0,0,0,0,0,89,89,149,399.00048422813416,,,,,,,,,,,,,,,,,,,,,,,,,,,,,,,,,,,,,,,,,,,,,,,,,,,,,,,,,,,,,,,,,,,,,,,,,,,,,,,,,130.718796484942,138.5941749850141,146.76179806857658,147.68022049496966,137.14129949724878,59.973031402334755,3.0,3.1,-239,267,0,1,200,-277,398.9857542514801,398.98579454421997,398.9882392883301,399.00048422813416,399.15051436424255,399.15051436424255,399.15051436424255,399.15051436424255,399.15051436424255,399.15051436424255,399.15051436424255,400.3849775791168,2,1.3701026439666748,None,,,,,,,,,,,,,,,,,,63,5,2025-02-19_16h54.09.828,comp,2024.2.4,61.395991545122925,2025-02-19 16h54.19.919441 -0500,
90,90,0,critical,dhw,35.0,3.0,lower,70.0,70.0,133.0,57.0,57.0,133.0,3,2.1701900959014893,None,,,,,0,0,0,0,0,90,90,50,400.40035796165466,,,,,,,,,,,,,,,,,,,,,,,,,,,,,,,,,,,,,,,,,,,,,,,,,,,,,,,,,,,,,,,,,,,,,,,,,,,,,,,,,70.0,70.0,133.0,57.0,57.0,133.0,3.0,3.2,-160,-285,0,-14,191,283,400.385769367218,400.3858115673065,400.38831305503845,400.40035796165466,400.5503740310669,400.5503740310669,400.5503740310669,400.5503740310669,400.5503740310669,400.5503740310669,400.5503740310669,402.5848400592804,3,2.1701900959014893,None,,,,,,,,,,,,,,,,,,63,5,2025-02-19_16h54.09.828,comp,2024.2.4,61.395991545122925,2025-02-19 16h54.19.919441 -0500,
91,91,0,critical,whd,20.0,3.0,lower,57.0,133.0,133.0,57.0,78.0,78.0,3,3.132761001586914,None,,,,,0,0,0,0,0,91,91,92,402.6002552509308,,,,,,,,,,,,,,,,,,,,,,,,,,,,,,,,,,,,,,,,,,,,,,,,,,,,,,,,,,,,,,,,,,,,,,,,,,,,,,,,,57.0,133.0,133.0,57.0,78.0,78.0,3.0,3.2,-191,-267,0,-19,164,285,402.58562755584717,402.58566761016846,402.5880982875824,402.6002552509308,402.75037264823914,402.75037264823914,402.75037264823914,402.75037264823914,402.75037264823914,402.75037264823914,402.75037264823914,405.735018491745,3,3.132761001586914,None,,,,,,,,,,,,,,,,,,63,5,2025-02-19_16h54.09.828,comp,2024.2.4,61.395991545122925,2025-02-19 16h54.19.919441 -0500,
92,92,0,critical,whd,20.0,2.1,lower,57.0,133.0,133.0,57.0,78.0,78.0,2,5.876886606216431,None,,,,,0,0,0,0,0,92,92,38,405.75058603286743,,,,,,,,,,,,,,,,,,,,,,,,,,,,,,,,,,,,,,,,,,,,,,,,,,,,,,,,,,,,,,,,,,,,,,,,,,,,,,,,,57.0,133.0,133.0,57.0,78.0,78.0,2.1,2.11,-191,258,0,284,164,-272,405.73582196235657,405.73586344718933,405.7383894920349,405.75058603286743,405.9002983570099,405.9002983570099,405.9002983570099,405.9002983570099,405.9002983570099,405.9002983570099,405.9002983570099,411.6347930431366,2,5.876886606216431,None,,,,,,,,,,,,,,,,,,63,5,2025-02-19_16h54.09.828,comp,2024.2.4,61.395991545122925,2025-02-19 16h54.19.919441 -0500,
93,93,0,filler_square,None,None,None,None,None,None,None,None,None,None,2,1.9838433265686035,None,,,,,0,0,0,0,0,93,93,189,411.6504921913147,,,,,,,,,,,,,,,,,,,,,,,,,,,,,,,,,,,,,,,,,,,,,,,,,,,,,,,,,,,,,,,,,,,,,,,,,,,,,,,,,75.2112217250396,69.98229155070845,105.95849672290689,105.95849672290689,82.17475490389351,104.08947178297848,3.0,3.2,-184,-266,0,-12,201,264,411.6357569694519,411.6357991695404,411.63841342926025,411.6504921913147,411.80047082901,411.80047082901,411.80047082901,411.80047082901,411.80047082901,411.80047082901,411.80047082901,413.651328086853,2,1.9838433265686035,None,,,,,,,,,,,,,,,,,,63,5,2025-02-19_16h54.09.828,comp,2024.2.4,61.395991545122925,2025-02-19 16h54.19.919441 -0500,
94,94,0,critical,hwd,35.0,2.1,lower,133.0,57.0,57.0,133.0,70.0,70.0,1,3.3131213188171387,None,,,,,0,0,0,0,0,94,94,16,413.6668198108673,,,,,,,,,,,,,,,,,,,,,,,,,,,,,,,,,,,,,,,,,,,,,,,,,,,,,,,,,,,,,,,,,,,,,,,,,,,,,,,,,133.0,57.0,57.0,133.0,70.0,70.0,2.1,2.11,-191,272,0,280,198,-277,413.6521043777466,413.6521451473236,413.6544044017792,413.6668198108673,413.8168578147888,413.8168578147888,413.8168578147888,413.8168578147888,413.8168578147888,413.8168578147888,413.8168578147888,416.98484230041504,1,3.3131213188171387,None,,,,,,,,,,,,,,,,,,63,5,2025-02-19_16h54.09.828,comp,2024.2.4,61.395991545122925,2025-02-19 16h54.19.919441 -0500,
95,95,0,filler_square,None,None,None,None,None,None,None,None,None,None,1,1.932591199874878,None,,,,,0,0,0,0,0,95,95,199,417.0004012584686,,,,,,,,,,,,,,,,,,,,,,,,,,,,,,,,,,,,,,,,,,,,,,,,,,,,,,,,,,,,,,,,,,,,,,,,,,,,,,,,,85.82043105400533,85.82043105400533,84.48150306196368,59.73437525824516,67.7429512432191,81.20788448319814,1.0,1.2,-169,14,0,-5,166,-15,416.9857769012451,416.9858191013336,416.98835587501526,417.0004012584686,417.1503083705902,417.1503083705902,417.1503083705902,417.1503083705902,417.1503083705902,417.1503083705902,417.1503083705902,418.9515104293823,1,1.932591199874878,None,,,,,,,,,,,,,,,,,,63,5,2025-02-19_16h54.09.828,comp,2024.2.4,61.395991545122925,2025-02-19 16h54.19.919441 -0500,
96,96,0,critical,hwd,35.0,3.0,lower,133.0,57.0,57.0,133.0,70.0,70.0,2,4.6603710651397705,None,,,,,0,0,0,0,0,96,96,98,418.96683144569397,,,,,,,,,,,,,,,,,,,,,,,,,,,,,,,,,,,,,,,,,,,,,,,,,,,,,,,,,,,,,,,,,,,,,,,,,,,,,,,,,133.0,57.0,57.0,133.0,70.0,70.0,3.0,3.2,-191,-253,0,16,198,271,418.95229601860046,418.9523365497589,418.95469331741333,418.96683144569397,419.11695289611816,419.11695289611816,419.11695289611816,419.11695289611816,419.11695289611816,419.11695289611816,419.11695289611816,423.63462257385254,2,4.6603710651397705,None,,,,,,,,,,,,,,,,,,63,5,2025-02-19_16h54.09.828,comp,2024.2.4,61.395991545122925,2025-02-19 16h54.19.919441 -0500,
97,97,0,catch,None,None,None,None,None,None,None,None,None,None,2,1.2501258850097656,None,,,,,0,0,0,0,0,97,97,125,423.6503987312317,,,,,,,,,,,,,,,,,,,,,,,,,,,,,,,,,,,,,,,,,,,,,,,,,,,,,,,,,,,,,,,,,,,,,,,,,,,,,,,,,84,106,187,138,102,88,2.2,2.21,-218,-280,0,282,209,286,423.6356871128082,423.6357283592224,423.63829135894775,423.6503987312317,423.8003206253052,423.8003206253052,423.8003206253052,423.8003206253052,423.8003206253052,423.8003206253052,423.8003206253052,424.91809463500977,2,1.2501258850097656,None,,,,,,,,,,,,,,,,,,63,5,2025-02-19_16h54.09.828,comp,2024.2.4,61.395991545122925,2025-02-19 16h54.19.919441 -0500,
98,98,0,critical,dhw,35.0,1.0,upper,127.0,127.0,200.0,125.0,125.0,200.0,3,3.52575421333313,None,,,,,0,0,0,0,0,98,98,49,424.9335341453552,,,,,,,,,,,,,,,,,,,,,,,,,,,,,,,,,,,,,,,,,,,,,,,,,,,,,,,,,,,,,,,,,,,,,,,,,,,,,,,,,127.0,127.0,200.0,125.0,125.0,200.0,1.0,1.2,-222,-8,0,13,258,8,424.91886854171753,424.9189097881317,424.9214653968811,424.9335341453552,425.08384227752686,425.08384227752686,425.08384227752686,425.08384227752686,425.08384227752686,425.08384227752686,425.08384227752686,428.46832299232483,3,3.52575421333313,None,,,,,,,,,,,,,,,,,,63,5,2025-02-19_16h54.09.828,comp,2024.2.4,61.395991545122925,2025-02-19 16h54.19.919441 -0500,
99,99,0,critical,hdw,20.0,2.1,lower,133.0,57.0,78.0,78.0,57.0,133.0,3,2.6712756156921387,None,,,,,0,0,0,0,0,99,99,22,428.4837734699249,,,,,,,,,,,,,,,,,,,,,,,,,,,,,,,,,,,,,,,,,,,,,,,,,,,,,,,,,,,,,,,,,,,,,,,,,,,,,,,,,133.0,57.0,78.0,78.0,57.0,133.0,2.1,2.12,-164,-252,0,-269,202,283,428.46911215782166,428.4691526889801,428.4713976383209,428.4837734699249,428.6335849761963,428.6335849761963,428.6335849761963,428.6335849761963,428.6335849761963,428.6335849761963,428.6335849761963,431.16793942451477,3,2.6712756156921387,None,,,,,,,,,,,,,,,,,,63,5,2025-02-19_16h54.09.828,comp,2024.2.4,61.395991545122925,2025-02-19 16h54.19.919441 -0500,
100,100,0,critical,wdh,35.0,3.0,upper,125.0,200.0,127.0,127.0,200.0,125.0,3,1.6600086688995361,None,,,,,0,0,0,0,0,100,100,75,431.1834182739258,,,,,,,,,,,,,,,,,,,,,,,,,,,,,,,,,,,,,,,,,,,,,,,,,,,,,,,,,,,,,,,,,,,,,,,,,,,,,,,,,125.0,200.0,127.0,127.0,200.0,125.0,3.0,3.2,-260,-257,0,-13,222,284,431.16871762275696,431.1687581539154,431.17124342918396,431.1834182739258,431.3338677883148,431.3338677883148,431.3338677883148,431.3338677883148,431.3338677883148,431.3338677883148,431.3338677883148,432.85162830352783,3,1.6600086688995361,None,,,,,,,,,,,,,,,,,,63,5,2025-02-19_16h54.09.828,comp,2024.2.4,61.395991545122925,2025-02-19 16h54.19.919441 -0500,
101,101,0,critical,dwh,20.0,3.0,upper,141.0,141.0,125.0,200.0,200.0,125.0,3,2.94419264793396,None,,,,,0,0,0,0,0,101,101,69,432.86705231666565,,,,,,,,,,,,,,,,,,,,,,,,,,,,,,,,,,,,,,,,,,,,,,,,,,,,,,,,,,,,,,,,,,,,,,,,,,,,,,,,,141.0,141.0,125.0,200.0,200.0,125.0,3.0,3.2,-266,-287,0,6,258,270,432.85241413116455,432.8524544239044,432.8549711704254,432.86705231666565,433.0170748233795,433.0170748233795,433.0170748233795,433.0170748233795,433.0170748233795,433.0170748233795,433.0170748233795,435.8183505535126,3,2.94419264793396,None,,,,,,,,,,,,,,,,,,63,5,2025-02-19_16h54.09.828,comp,2024.2.4,61.395991545122925,2025-02-19 16h54.19.919441 -0500,
102,102,0,critical,dwh,35.0,2.1,lower,70.0,70.0,57.0,133.0,133.0,57.0,3,2.2096946239471436,None,,,,,0,0,0,0,0,102,102,28,435.83364605903625,,,,,,,,,,,,,,,,,,,,,,,,,,,,,,,,,,,,,,,,,,,,,,,,,,,,,,,,,,,,,,,,,,,,,,,,,,,,,,,,,70.0,70.0,57.0,133.0,133.0,57.0,2.1,2.11,-198,283,0,254,191,-275,435.8191044330597,435.81914353370667,435.82114267349243,435.83364605903625,435.98384618759155,435.98384618759155,435.98384618759155,435.98384618759155,435.98384618759155,435.98384618759155,435.98384618759155,438.05129289627075,3,2.2096946239471436,None,,,,,,,,,,,,,,,,,,63,5,2025-02-19_16h54.09.828,comp,2024.2.4,61.395991545122925,2025-02-19 16h54.19.919441 -0500,
103,103,0,critical,dwh,35.0,3.0,lower,70.0,70.0,57.0,133.0,133.0,57.0,3,3.088124990463257,None,,,,,0,0,0,0,0,103,103,62,438.0669119358063,,,,,,,,,,,,,,,,,,,,,,,,,,,,,,,,,,,,,,,,,,,,,,,,,,,,,,,,,,,,,,,,,,,,,,,,,,,,,,,,,70.0,70.0,57.0,133.0,133.0,57.0,3.0,3.1,-198,257,0,4,191,-270,438.0520417690277,438.052081823349,438.0542345046997,438.0669119358063,438.2334372997284,438.2334372997284,438.2334372997284,438.2334372997284,438.2334372997284,438.2334372997284,438.2334372997284,441.1679093837738,3,3.088124990463257,None,,,,,,,,,,,,,,,,,,63,5,2025-02-19_16h54.09.828,comp,2024.2.4,61.395991545122925,2025-02-19 16h54.19.919441 -0500,
104,104,0,filler_random,None,None,None,None,None,None,None,None,None,None,1,1.2348318099975586,None,,,,,0,0,0,0,0,104,104,154,441.1833527088165,,,,,,,,,,,,,,,,,,,,,,,,,,,,,,,,,,,,,,,,,,,,,,,,,,,,,,,,,,,,,,,,,,,,,,,,,,,,,,,,,168.84694114013635,171.32101208616632,118.9375481871105,101.76653127624856,81.41663927491591,160.33323010370816,2.1,2.12,-233,-268,0,-277,227,280,441.16882848739624,441.168869972229,441.1713593006134,441.1833527088165,441.33366894721985,441.33366894721985,441.33366894721985,441.33366894721985,441.33366894721985,441.33366894721985,441.33366894721985,442.43464374542236,1,1.2348318099975586,None,,,,,,,,,,,,,,,,,,63,5,2025-02-19_16h54.09.828,comp,2024.2.4,61.395991545122925,2025-02-19 16h54.19.919441 -0500,
105,105,0,critical,dwh,35.0,1.0,lower,70.0,70.0,57.0,133.0,133.0,57.0,3,3.6335458755493164,None,,,,,0,0,0,0,0,105,105,60,442.4501130580902,,,,,,,,,,,,,,,,,,,,,,,,,,,,,,,,,,,,,,,,,,,,,,,,,,,,,,,,,,,,,,,,,,,,,,,,,,,,,,,,,70.0,70.0,57.0,133.0,133.0,57.0,1.0,1.3,282,-273,480,-288,671,-262,442.4354438781738,442.4354839324951,442.4378490447998,442.4501130580902,442.6002309322357,442.6002309322357,442.6002309322357,442.6002309322357,442.6002309322357,442.6002309322357,442.6002309322357,446.08471488952637,3,3.6335458755493164,None,,,,,,,,,,,,,,,,,,63,5,2025-02-19_16h54.09.828,comp,2024.2.4,61.395991545122925,2025-02-19 16h54.19.919441 -0500,
106,106,0,filler_square,None,None,None,None,None,None,None,None,None,None,2,2.495021104812622,None,,,,,0,0,0,0,0,106,106,186,446.10025572776794,,,,,,,,,,,,,,,,,,,,,,,,,,,,,,,,,,,,,,,,,,,,,,,,,,,,,,,,,,,,,,,,,,,,,,,,,,,,,,,,,57.86320261860655,59.636333710391945,63.57017722726781,63.57017722726781,62.67893353961109,57.49008703109679,4.0,4.2,-158,0,0,-259,157,9,446.0856683254242,446.0857102870941,446.08803129196167,446.10025572776794,446.25021028518677,446.25021028518677,446.25021028518677,446.25021028518677,446.25021028518677,446.25021028518677,446.25021028518677,448.60129165649414,2,2.495021104812622,None,,,,,,,,,,,,,,,,,,63,5,2025-02-19_16h54.09.828,comp,2024.2.4,61.395991545122925,2025-02-19 16h54.19.919441 -0500,
107,107,0,critical,dwh,20.0,4.0,upper,141.0,141.0,125.0,200.0,200.0,125.0,3,3.4172019958496094,None,,,,,0,0,0,0,0,107,107,71,448.6169002056122,,,,,,,,,,,,,,,,,,,,,,,,,,,,,,,,,,,,,,,,,,,,,,,,,,,,,,,,,,,,,,,,,,,,,,,,,,,,,,,,,141.0,141.0,125.0,200.0,200.0,125.0,4.0,4.2,-266,11,0,-277,258,10,448.6020677089691,448.60210847854614,448.60432410240173,448.6169002056122,448.76694416999817,448.76694416999817,448.76694416999817,448.76694416999817,448.76694416999817,448.76694416999817,448.76694416999817,452.0353660583496,3,3.4172019958496094,None,,,,,,,,,,,,,,,,,,63,5,2025-02-19_16h54.09.828,comp,2024.2.4,61.395991545122925,2025-02-19 16h54.19.919441 -0500,
108,108,0,critical,wdh,35.0,4.0,upper,125.0,200.0,127.0,127.0,200.0,125.0,3,3.840968370437622,None,,,,,0,0,0,0,0,108,108,77,452.0501720905304,,,,,,,,,,,,,,,,,,,,,,,,,,,,,,,,,,,,,,,,,,,,,,,,,,,,,,,,,,,,,,,,,,,,,,,,,,,,,,,,,125.0,200.0,127.0,127.0,200.0,125.0,4.0,4.1,-260,-282,0,13,222,-278,452.0361375808716,452.0361795425415,452.03851532936096,452.0501720905304,452.2004053592682,452.2004053592682,452.2004053592682,452.2004053592682,452.2004053592682,452.2004053592682,452.2004053592682,455.9013497829437,3,3.840968370437622,None,,,,,,,,,,,,,,,,,,63,5,2025-02-19_16h54.09.828,comp,2024.2.4,61.395991545122925,2025-02-19 16h54.19.919441 -0500,
109,109,0,filler_square,None,None,None,None,None,None,None,None,None,None,3,1.188817024230957,None,,,,,0,0,0,0,0,109,109,173,455.9171848297119,,,,,,,,,,,,,,,,,,,,,,,,,,,,,,,,,,,,,,,,,,,,,,,,,,,,,,,,,,,,,,,,,,,,,,,,,,,,,,,,,89.56374471759659,89.53629165138426,133.33118934345313,157.2797856826046,182.31532401410175,182.31532401410175,2.2,2.21,-219,-258,0,260,266,273,455.90232038497925,455.90236139297485,455.9043860435486,455.9171848297119,456.0669276714325,456.0669276714325,456.0669276714325,456.0669276714325,456.0669276714325,456.0669276714325,456.0669276714325,457.11873149871826,3,1.188817024230957,None,,,,,,,,,,,,,,,,,,63,5,2025-02-19_16h54.09.828,comp,2024.2.4,61.395991545122925,2025-02-19 16h54.19.919441 -0500,
110,110,0,filler_square,None,None,None,None,None,None,None,None,None,None,3,1.6529700756072998,None,,,,,0,0,0,0,0,110,110,201,457.13330912590027,,,,,,,,,,,,,,,,,,,,,,,,,,,,,,,,,,,,,,,,,,,,,,,,,,,,,,,,,,,,,,,,,,,,,,,,,,,,,,,,,129.00655555460224,58.42694637816382,121.64379698946364,115.48489853729733,149.470371858467,149.470371858467,2.2,2.22,-183,253,0,-265,228,-261,457.1196677684784,457.11971044540405,457.1217107772827,457.13330912590027,457.28366255760193,457.28366255760193,457.28366255760193,457.28366255760193,457.28366255760193,457.28366255760193,457.28366255760193,458.80112195014954,3,1.6529700756072998,None,,,,,,,,,,,,,,,,,,63,5,2025-02-19_16h54.09.828,comp,2024.2.4,61.395991545122925,2025-02-19 16h54.19.919441 -0500,
111,111,0,critical,dwh,35.0,3.0,upper,127.0,127.0,125.0,200.0,200.0,125.0,3,4.884001016616821,None,,,,,0,0,0,0,0,111,111,63,458.81656193733215,,,,,,,,,,,,,,,,,,,,,,,,,,,,,,,,,,,,,,,,,,,,,,,,,,,,,,,,,,,,,,,,,,,,,,,,,,,,,,,,,127.0,127.0,125.0,200.0,200.0,125.0,3.0,3.2,-260,-281,0,-10,258,261,458.8019516468048,458.80199456214905,458.8039903640747,458.81656193733215,458.9668779373169,458.9668779373169,458.9668779373169,458.9668779373169,458.9668779373169,458.9668779373169,458.9668779373169,463.7181177139282,3,4.884001016616821,None,,,,,,,,,,,,,,,,,,63,5,2025-02-19_16h54.09.828,comp,2024.2.4,61.395991545122925,2025-02-19 16h54.19.919441 -0500,
112,112,0,critical,hdw,35.0,4.0,lower,133.0,57.0,70.0,70.0,57.0,133.0,3,1.9668958187103271,None,,,,,0,0,0,0,0,112,112,112,463.7333061695099,,,,,,,,,,,,,,,,,,,,,,,,,,,,,,,,,,,,,,,,,,,,,,,,,,,,,,,,,,,,,,,,,,,,,,,,,,,,,,,,,133.0,57.0,70.0,70.0,57.0,133.0,4.0,4.2,-160,-1,0,-289,198,12,463.7189109325409,463.7189517021179,463.7214250564575,463.7333061695099,463.88332629203796,463.88332629203796,463.88332629203796,463.88332629203796,463.88332629203796,463.88332629203796,463.88332629203796,465.7015051841736,3,1.9668958187103271,None,,,,,,,,,,,,,,,,,,63,5,2025-02-19_16h54.09.828,comp,2024.2.4,61.395991545122925,2025-02-19 16h54.19.919441 -0500,
113,113,0,filler_square,None,None,None,None,None,None,None,None,None,None,3,2.374483108520508,None,,,,,0,0,0,0,0,113,113,194,465.71681809425354,,,,,,,,,,,,,,,,,,,,,,,,,,,,,,,,,,,,,,,,,,,,,,,,,,,,,,,,,,,,,,,,,,,,,,,,,,,,,,,,,104.7728494080873,110.51760507182537,66.23930954222307,105.8024864650957,130.87739492042533,130.87739492042533,2.2,2.22,-204,257,0,-261,214,-288,465.70252561569214,465.7025671005249,465.7048149108887,465.71681809425354,465.86675333976746,465.86675333976746,465.86675333976746,465.86675333976746,465.86675333976746,465.86675333976746,465.86675333976746,468.10125279426575,3,2.374483108520508,None,,,,,,,,,,,,,,,,,,63,5,2025-02-19_16h54.09.828,comp,2024.2.4,61.395991545122925,2025-02-19 16h54.19.919441 -0500,
114,114,0,critical,whd,20.0,4.0,lower,57.0,133.0,133.0,57.0,78.0,78.0,2,2.2940094470977783,None,,,,,0,0,0,0,0,114,114,94,468.11683082580566,,,,,,,,,,,,,,,,,,,,,,,,,,,,,,,,,,,,,,,,,,,,,,,,,,,,,,,,,,,,,,,,,,,,,,,,,,,,,,,,,57.0,133.0,133.0,57.0,78.0,78.0,4.0,4.1,-191,-271,0,-6,164,-251,468.1020016670227,468.10204219818115,468.10418248176575,468.11683082580566,468.2665898799896,468.2665898799896,468.2665898799896,468.2665898799896,468.2665898799896,468.2665898799896,468.2665898799896,470.4178030490875,2,2.2940094470977783,None,,,,,,,,,,,,,,,,,,63,5,2025-02-19_16h54.09.828,comp,2024.2.4,61.395991545122925,2025-02-19 16h54.19.919441 -0500,
115,115,0,critical,dhw,20.0,1.0,upper,141.0,141.0,200.0,125.0,125.0,200.0,3,1.1213924884796143,None,,,,,0,0,0,0,0,115,115,55,470.4333882331848,,,,,,,,,,,,,,,,,,,,,,,,,,,,,,,,,,,,,,,,,,,,,,,,,,,,,,,,,,,,,,,,,,,,,,,,,,,,,,,,,141.0,141.0,200.0,125.0,125.0,200.0,1.0,1.2,-229,19,0,5,258,-13,470.41857051849365,470.4186134338379,470.4209351539612,470.4333882331848,470.5834469795227,470.5834469795227,470.5834469795227,470.5834469795227,470.5834469795227,470.5834469795227,470.5834469795227,471.5678358078003,3,1.1213924884796143,None,,,,,,,,,,,,,,,,,,63,5,2025-02-19_16h54.09.828,comp,2024.2.4,61.395991545122925,2025-02-19 16h54.19.919441 -0500,
116,116,0,critical,dwh,20.0,1.0,lower,78.0,78.0,57.0,133.0,133.0,57.0,2,1.9716625213623047,None,,,,,0,0,0,0,0,116,116,66,471.5830991268158,,,,,,,,,,,,,,,,,,,,,,,,,,,,,,,,,,,,,,,,,,,,,,,,,,,,,,,,,,,,,,,,,,,,,,,,,,,,,,,,,78.0,78.0,57.0,133.0,133.0,57.0,1.0,1.1,-682,267,-480,267,-289,287,471.56861877441406,471.56865882873535,471.571049451828,471.5830991268158,471.73320984840393,471.73320984840393,471.73320984840393,471.73320984840393,471.73320984840393,471.73320984840393,471.73320984840393,473.56770062446594,2,1.9716625213623047,None,,,,,,,,,,,,,,,,,,63,5,2025-02-19_16h54.09.828,comp,2024.2.4,61.395991545122925,2025-02-19 16h54.19.919441 -0500,
117,117,0,critical,dhw,20.0,4.0,upper,141.0,141.0,200.0,125.0,125.0,200.0,3,1.908308982849121,None,,,,,0,0,0,0,0,117,117,59,473.5830466747284,,,,,,,,,,,,,,,,,,,,,,,,,,,,,,,,,,,,,,,,,,,,,,,,,,,,,,,,,,,,,,,,,,,,,,,,,,,,,,,,,141.0,141.0,200.0,125.0,125.0,200.0,4.0,4.1,-229,-255,0,1,258,-250,473.56860542297363,473.56864619255066,473.57117438316345,473.5830466747284,473.73344564437866,473.73344564437866,473.73344564437866,473.73344564437866,473.73344564437866,473.73344564437866,473.73344564437866,475.5012686252594,3,1.908308982849121,None,,,,,,,,,,,,,,,,,,63,5,2025-02-19_16h54.09.828,comp,2024.2.4,61.395991545122925,2025-02-19 16h54.19.919441 -0500,
118,118,0,critical,dwh,35.0,1.0,upper,127.0,127.0,125.0,200.0,200.0,125.0,3,2.894291877746582,None,,,,,0,0,0,0,0,118,118,61,475.51675152778625,,,,,,,,,,,,,,,,,,,,,,,,,,,,,,,,,,,,,,,,,,,,,,,,,,,,,,,,,,,,,,,,,,,,,,,,,,,,,,,,,127.0,127.0,125.0,200.0,200.0,125.0,1.0,1.2,-260,17,0,-10,258,-9,475.5020327568054,475.50207448005676,475.5044295787811,475.51675152778625,475.66678977012634,475.66678977012634,475.66678977012634,475.66678977012634,475.66678977012634,475.66678977012634,475.66678977012634,478.417950630188,3,2.894291877746582,None,,,,,,,,,,,,,,,,,,63,5,2025-02-19_16h54.09.828,comp,2024.2.4,61.395991545122925,2025-02-19 16h54.19.919441 -0500,
119,119,0,critical,hdw,20.0,2.1,upper,200.0,125.0,141.0,141.0,125.0,200.0,3,2.642011880874634,None,,,,,0,0,0,0,0,119,119,23,478.43340587615967,,,,,,,,,,,,,,,,,,,,,,,,,,,,,,,,,,,,,,,,,,,,,,,,,,,,,,,,,,,,,,,,,,,,,,,,,,,,,,,,,200.0,125.0,141.0,141.0,125.0,200.0,2.1,2.11,-229,263,0,281,266,-267,478.41872572898865,478.41876697540283,478.4212188720703,478.43340587615967,478.5833954811096,478.5833954811096,478.5833954811096,478.5833954811096,478.5833954811096,478.5833954811096,478.5833954811096,481.08453488349915,3,2.642011880874634,None,,,,,,,,,,,,,,,,,,63,5,2025-02-19_16h54.09.828,comp,2024.2.4,61.395991545122925,2025-02-19 16h54.19.919441 -0500,
120,120,0,filler_random,None,None,None,None,None,None,None,None,None,None,1,1.367128610610962,None,,,,,0,0,0,0,0,120,120,166,481.0999529361725,,,,,,,,,,,,,,,,,,,,,,,,,,,,,,,,,,,,,,,,,,,,,,,,,,,,,,,,,,,,,,,,,,,,,,,,,,,,,,,,,168.4617324147291,111.316381804537,70.6134000172377,63.284149398764356,58.726597337386146,126.18080884751723,1.0,1.1,-663,289,-480,269,-289,284,481.08543491363525,481.08547735214233,481.0875222682953,481.0999529361725,481.2499942779541,481.2499942779541,481.2499942779541,481.2499942779541,481.2499942779541,481.2499942779541,481.2499942779541,482.4843032360077,1,1.367128610610962,None,,,,,,,,,,,,,,,,,,63,5,2025-02-19_16h54.09.828,comp,2024.2.4,61.395991545122925,2025-02-19 16h54.19.919441 -0500,
121,121,0,critical,whd,35.0,3.0,upper,125.0,200.0,200.0,125.0,127.0,127.0,2,3.967421293258667,None,,,,,0,0,0,0,0,121,121,87,482.49958753585815,,,,,,,,,,,,,,,,,,,,,,,,,,,,,,,,,,,,,,,,,,,,,,,,,,,,,,,,,,,,,,,,,,,,,,,,,,,,,,,,,125.0,200.0,200.0,125.0,127.0,127.0,3.0,3.1,-258,272,0,10,222,-266,482.4850673675537,482.4851086139679,482.48731088638306,482.49958753585815,482.6500413417816,482.6500413417816,482.6500413417816,482.6500413417816,482.6500413417816,482.6500413417816,482.6500413417816,486.4681746959686,2,3.967421293258667,None,,,,,,,,,,,,,,,,,,63,5,2025-02-19_16h54.09.828,comp,2024.2.4,61.395991545122925,2025-02-19 16h54.19.919441 -0500,
122,122,0,critical,hwd,35.0,3.0,upper,200.0,125.0,125.0,200.0,127.0,127.0,2,2.833094835281372,None,,,,,0,0,0,0,0,122,122,99,486.48330879211426,,,,,,,,,,,,,,,,,,,,,,,,,,,,,,,,,,,,,,,,,,,,,,,,,,,,,,,,,,,,,,,,,,,,,,,,,,,,,,,,,200.0,125.0,125.0,200.0,127.0,127.0,3.0,3.2,-258,-269,0,1,260,256,486.4689841270447,486.4690263271332,486.47157859802246,486.48330879211426,486.6333997249603,486.6333997249603,486.6333997249603,486.6333997249603,486.6333997249603,486.6333997249603,486.6333997249603,489.31804394721985,2,2.833094835281372,None,,,,,,,,,,,,,,,,,,63,5,2025-02-19_16h54.09.828,comp,2024.2.4,61.395991545122925,2025-02-19 16h54.19.919441 -0500,
123,123,0,critical,hdw,35.0,3.0,upper,200.0,125.0,127.0,127.0,125.0,200.0,3,1.9005687236785889,None,,,,,0,0,0,0,0,123,123,111,489.3333206176758,,,,,,,,,,,,,,,,,,,,,,,,,,,,,,,,,,,,,,,,,,,,,,,,,,,,,,,,,,,,,,,,,,,,,,,,,,,,,,,,,200.0,125.0,127.0,127.0,125.0,200.0,3.0,3.2,-222,-261,0,13,260,264,489.31887006759644,489.3189115524292,489.3213472366333,489.3333206176758,489.48328852653503,489.48328852653503,489.48328852653503,489.48328852653503,489.48328852653503,489.48328852653503,489.48328852653503,491.2510838508606,3,1.9005687236785889,None,,,,,,,,,,,,,,,,,,63,5,2025-02-19_16h54.09.828,comp,2024.2.4,61.395991545122925,2025-02-19 16h54.19.919441 -0500,
124,124,0,critical,dhw,35.0,1.0,lower,70.0,70.0,133.0,57.0,57.0,133.0,3,2.633636951446533,None,,,,,0,0,0,0,0,124,124,48,491.2663061618805,,,,,,,,,,,,,,,,,,,,,,,,,,,,,,,,,,,,,,,,,,,,,,,,,,,,,,,,,,,,,,,,,,,,,,,,,,,,,,,,,70.0,70.0,133.0,57.0,57.0,133.0,1.0,1.2,-160,-16,0,3,191,-18,491.25185537338257,491.2518963813782,491.25441670417786,491.2663061618805,491.4164171218872,491.4164171218872,491.4164171218872,491.4164171218872,491.4164171218872,491.4164171218872,491.4164171218872,493.90126967430115,3,2.633636951446533,None,,,,,,,,,,,,,,,,,,63,5,2025-02-19_16h54.09.828,comp,2024.2.4,61.395991545122925,2025-02-19 16h54.19.919441 -0500,
125,125,0,catch,None,None,None,None,None,None,None,None,None,None,2,0.9100253582000732,None,,,,,0,0,0,0,0,125,125,120,493.9166419506073,,,,,,,,,,,,,,,,,,,,,,,,,,,,,,,,,,,,,,,,,,,,,,,,,,,,,,,,,,,,,,,,,,,,,,,,,,,,,,,,,103,87,181,144,85,105,3.0,3.1,-212,284,0,5,220,-285,493.90229415893555,493.90235662460327,493.9047329425812,493.9166419506073,494.0665624141693,494.0665624141693,494.0665624141693,494.0665624141693,494.0665624141693,494.0665624141693,494.0665624141693,494.8343162536621,2,0.9100253582000732,None,,,,,,,,,,,,,,,,,,63,5,2025-02-19_16h54.09.828,comp,2024.2.4,61.395991545122925,2025-02-19 16h54.19.919441 -0500,
126,126,0,filler_random,None,None,None,None,None,None,None,None,None,None,3,1.4879026412963867,None,,,,,0,0,0,0,0,126,126,134,494.8499581813812,,,,,,,,,,,,,,,,,,,,,,,,,,,,,,,,,,,,,,,,,,,,,,,,,,,,,,,,,,,,,,,,,,,,,,,,,,,,,,,,,60.1156278726124,99.72141985968409,77.49764940283916,142.01018384339352,74.0392280773124,170.10221532711716,2.1,2.11,-217,274,0,277,252,-279,494.8352429866791,494.8352835178375,494.83728885650635,494.8499581813812,494.99987387657166,494.99987387657166,494.99987387657166,494.99987387657166,494.99987387657166,494.99987387657166,494.99987387657166,496.3509726524353,3,1.4879026412963867,None,,,,,,,,,,,,,,,,,,63,5,2025-02-19_16h54.09.828,comp,2024.2.4,61.395991545122925,2025-02-19 16h54.19.919441 -0500,
127,127,0,critical,hdw,35.0,2.1,upper,200.0,125.0,127.0,127.0,125.0,200.0,1,4.092507839202881,None,,,,,0,0,0,0,0,127,127,21,496.3662531375885,,,,,,,,,,,,,,,,,,,,,,,,,,,,,,,,,,,,,,,,,,,,,,,,,,,,,,,,,,,,,,,,,,,,,,,,,,,,,,,,,200.0,125.0,127.0,127.0,125.0,200.0,2.1,2.11,-222,286,0,255,260,-252,496.35177755355835,496.35181856155396,496.35430669784546,496.3662531375885,496.5164988040924,496.5164988040924,496.5164988040924,496.5164988040924,496.5164988040924,496.5164988040924,496.5164988040924,500.4677474498749,1,4.092507839202881,None,,,,,,,,,,,,,,,,,,63,5,2025-02-19_16h54.09.828,comp,2024.2.4,61.395991545122925,2025-02-19 16h54.19.919441 -0500,
128,128,0,filler_square,None,None,None,None,None,None,None,None,None,None,2,1.9681932926177979,None,,,,,0,0,0,0,0,128,128,209,500.4833745956421,,,,,,,,,,,,,,,,,,,,,,,,,,,,,,,,,,,,,,,,,,,,,,,,,,,,,,,,,,,,,,,,,,,,,,,,,,,,,,,,,68.68720777093543,68.68720777093543,67.53522875369356,64.20225515912199,64.22905981345421,63.181341392735646,4.0,4.2,-162,6,0,-253,160,10,500.46871638298035,500.4687588214874,500.47109937667847,500.4833745956421,500.6330978870392,500.6330978870392,500.6330978870392,500.6330978870392,500.6330978870392,500.6330978870392,500.6330978870392,502.4682586193085,2,1.9681932926177979,None,,,,,,,,,,,,,,,,,,63,5,2025-02-19_16h54.09.828,comp,2024.2.4,61.395991545122925,2025-02-19 16h54.19.919441 -0500,
129,129,0,filler_random,None,None,None,None,None,None,None,None,None,None,1,2.2328877449035645,None,,,,,0,0,0,0,0,129,129,163,502.48312282562256,,,,,,,,,,,,,,,,,,,,,,,,,,,,,,,,,,,,,,,,,,,,,,,,,,,,,,,,,,,,,,,,,,,,,,,,,,,,,,,,,192.3536928021401,186.18894495937712,196.94735031507727,58.59824977362667,92.71111322156281,101.82513148569635,1.0,1.1,-698,276,-480,283,-304,253,502.4692213535309,502.46926164627075,502.4713041782379,502.48312282562256,502.63313841819763,502.63313841819763,502.63313841819763,502.63313841819763,502.63313841819763,502.63313841819763,502.63313841819763,504.7179789543152,1,2.2328877449035645,None,,,,,,,,,,,,,,,,,,63,5,2025-02-19_16h54.09.828,comp,2024.2.4,61.395991545122925,2025-02-19 16h54.19.919441 -0500,
130,130,0,critical,wdh,35.0,2.1,lower,57.0,133.0,70.0,70.0,133.0,57.0,3,3.8847367763519287,None,,,,,0,0,0,0,0,130,130,32,504.7331295013428,,,,,,,,,,,,,,,,,,,,,,,,,,,,,,,,,,,,,,,,,,,,,,,,,,,,,,,,,,,,,,,,,,,,,,,,,,,,,,,,,57.0,133.0,70.0,70.0,133.0,57.0,2.1,2.12,-198,-277,0,-290,160,268,504.71878695487976,504.7188284397125,504.72097086906433,504.7331295013428,504.8829514980316,504.8829514980316,504.8829514980316,504.8829514980316,504.8829514980316,504.8829514980316,504.8829514980316,508.63413667678833,3,3.8847367763519287,None,,,,,,,,,,,,,,,,,,63,5,2025-02-19_16h54.09.828,comp,2024.2.4,61.395991545122925,2025-02-19 16h54.19.919441 -0500,
131,131,0,critical,wdh,20.0,4.0,upper,125.0,200.0,141.0,141.0,200.0,125.0,3,2.0559780597686768,None,,,,,0,0,0,0,0,131,131,83,508.649600982666,,,,,,,,,,,,,,,,,,,,,,,,,,,,,,,,,,,,,,,,,,,,,,,,,,,,,,,,,,,,,,,,,,,,,,,,,,,,,,,,,125.0,200.0,141.0,141.0,200.0,125.0,4.0,4.1,-266,-284,0,18,229,-271,508.6349582672119,508.6349997520447,508.6372299194336,508.649600982666,508.7998435497284,508.7998435497284,508.7998435497284,508.7998435497284,508.7998435497284,508.7998435497284,508.7998435497284,510.7181017398834,3,2.0559780597686768,None,,,,,,,,,,,,,,,,,,63,5,2025-02-19_16h54.09.828,comp,2024.2.4,61.395991545122925,2025-02-19 16h54.19.919441 -0500,
132,132,0,filler_random,None,None,None,None,None,None,None,None,None,None,3,2.8775718212127686,None,,,,,0,0,0,0,0,132,132,151,510.73292899131775,,,,,,,,,,,,,,,,,,,,,,,,,,,,,,,,,,,,,,,,,,,,,,,,,,,,,,,,,,,,,,,,,,,,,,,,,,,,,,,,,107.03074978432443,163.89304422544876,120.83714490710939,109.73801904242262,124.36263066055466,155.0221175135133,3.0,3.1,-233,275,0,-12,228,-276,510.71900749206543,510.7190487384796,510.7215085029602,510.73292899131775,510.8831100463867,510.8831100463867,510.8831100463867,510.8831100463867,510.8831100463867,510.8831100463867,510.8831100463867,513.6174867153168,3,2.8775718212127686,None,,,,,,,,,,,,,,,,,,63,5,2025-02-19_16h54.09.828,comp,2024.2.4,61.395991545122925,2025-02-19 16h54.19.919441 -0500,
133,133,0,filler_random,None,None,None,None,None,None,None,None,None,None,2,1.3145511150360107,None,,,,,0,0,0,0,0,133,133,147,513.633481502533,,,,,,,,,,,,,,,,,,,,,,,,,,,,,,,,,,,,,,,,,,,,,,,,,,,,,,,,,,,,,,,,,,,,,,,,,,,,,,,,,88.82190828196363,163.42180127997858,156.20246688470297,165.20850696918092,158.07454531517354,114.68185010467688,4.0,4.1,-260,-260,0,19,236,-285,513.6184766292572,513.6185195446014,513.6206285953522,513.633481502533,513.7830812931061,513.7830812931061,513.7830812931061,513.7830812931061,513.7830812931061,513.7830812931061,513.7830812931061,514.9511609077454,2,1.3145511150360107,None,,,,,,,,,,,,,,,,,,63,5,2025-02-19_16h54.09.828,comp,2024.2.4,61.395991545122925,2025-02-19 16h54.19.919441 -0500,
134,134,0,critical,hwd,20.0,4.0,lower,133.0,57.0,57.0,133.0,78.0,78.0,2,2.597999095916748,None,,,,,0,0,0,0,0,134,134,106,514.9663140773773,,,,,,,,,,,,,,,,,,,,,,,,,,,,,,,,,,,,,,,,,,,,,,,,,,,,,,,,,,,,,,,,,,,,,,,,,,,,,,,,,133.0,57.0,57.0,133.0,78.0,78.0,4.0,4.2,-191,-3,0,-276,202,9,514.9519445896149,514.9519855976105,514.954097032547,514.9663140773773,515.1161842346191,515.1161842346191,515.1161842346191,515.1161842346191,515.1161842346191,515.1161842346191,515.1161842346191,517.5676703453064,2,2.597999095916748,None,,,,,,,,,,,,,,,,,,63,5,2025-02-19_16h54.09.828,comp,2024.2.4,61.395991545122925,2025-02-19 16h54.19.919441 -0500,
135,135,0,filler_square,None,None,None,None,None,None,None,None,None,None,2,1.716538429260254,None,,,,,0,0,0,0,0,135,135,180,517.5833177566528,,,,,,,,,,,,,,,,,,,,,,,,,,,,,,,,,,,,,,,,,,,,,,,,,,,,,,,,,,,,,,,,,,,,,,,,,,,,,,,,,62.04135901397978,78.78854829211454,95.88644712818254,95.88644712818254,59.15947286230263,81.72653462171041,2.1,2.11,-183,255,0,286,185,-279,517.5686323642731,517.5686733722687,517.5711016654968,517.5833177566528,517.7329165935516,517.7329165935516,517.7329165935516,517.7329165935516,517.7329165935516,517.7329165935516,517.7329165935516,519.3174788951874,2,1.716538429260254,None,,,,,,,,,,,,,,,,,,63,5,2025-02-19_16h54.09.828,comp,2024.2.4,61.395991545122925,2025-02-19 16h54.19.919441 -0500,
136,136,0,critical,dwh,35.0,2.1,upper,127.0,127.0,125.0,200.0,200.0,125.0,3,1.7175624370574951,None,,,,,0,0,0,0,0,136,136,29,519.3328142166138,,,,,,,,,,,,,,,,,,,,,,,,,,,,,,,,,,,,,,,,,,,,,,,,,,,,,,,,,,,,,,,,,,,,,,,,,,,,,,,,,127.0,127.0,125.0,200.0,200.0,125.0,2.1,2.11,-260,273,0,283,258,-251,519.3182897567749,519.3183307647705,519.3206622600555,519.3328142166138,519.4830615520477,519.4830615520477,519.4830615520477,519.4830615520477,519.4830615520477,519.4830615520477,519.4830615520477,521.0675327777863,3,1.7175624370574951,None,,,,,,,,,,,,,,,,,,63,5,2025-02-19_16h54.09.828,comp,2024.2.4,61.395991545122925,2025-02-19 16h54.19.919441 -0500,
137,137,0,filler_square,None,None,None,None,None,None,None,None,None,None,3,2.280736207962036,None,,,,,0,0,0,0,0,137,137,198,521.0828087329865,,,,,,,,,,,,,,,,,,,,,,,,,,,,,,,,,,,,,,,,,,,,,,,,,,,,,,,,,,,,,,,,,,,,,,,,,,,,,,,,,88.83215944828694,97.62354717164683,62.81867214367506,83.72052153321232,111.95008300295481,111.95008300295481,2.2,2.22,-187,270,0,-278,194,-260,521.0684866905212,521.0685288906097,521.0709004402161,521.0828087329865,521.2329647541046,521.2329647541046,521.2329647541046,521.2329647541046,521.2329647541046,521.2329647541046,521.2329647541046,523.3675928115845,3,2.280736207962036,None,,,,,,,,,,,,,,,,,,63,5,2025-02-19_16h54.09.828,comp,2024.2.4,61.395991545122925,2025-02-19 16h54.19.919441 -0500,
138,138,0,critical,hdw,20.0,4.0,upper,200.0,125.0,141.0,141.0,125.0,200.0,3,2.1806514263153076,None,,,,,0,0,0,0,0,138,138,119,523.3832681179047,,,,,,,,,,,,,,,,,,,,,,,,,,,,,,,,,,,,,,,,,,,,,,,,,,,,,,,,,,,,,,,,,,,,,,,,,,,,,,,,,200.0,125.0,141.0,141.0,125.0,200.0,4.0,4.1,-229,-289,0,18,266,-280,523.368358373642,523.3683974742889,523.3704445362091,523.3832681179047,523.5332763195038,523.5332763195038,523.5332763195038,523.5332763195038,523.5332763195038,523.5332763195038,523.5332763195038,525.5678453445435,3,2.1806514263153076,None,,,,,,,,,,,,,,,,,,63,5,2025-02-19_16h54.09.828,comp,2024.2.4,61.395991545122925,2025-02-19 16h54.19.919441 -0500,
139,139,0,critical,hwd,20.0,2.1,lower,133.0,57.0,57.0,133.0,78.0,78.0,2,2.6186671257019043,None,,,,,0,0,0,0,0,139,139,18,525.5830569267273,,,,,,,,,,,,,,,,,,,,,,,,,,,,,,,,,,,,,,,,,,,,,,,,,,,,,,,,,,,,,,,,,,,,,,,,,,,,,,,,,133.0,57.0,57.0,133.0,78.0,78.0,2.1,2.12,-191,-286,0,-270,202,282,525.5686240196228,525.5686635971069,525.5710482597351,525.5830569267273,525.7328789234161,525.7328789234161,525.7328789234161,525.7328789234161,525.7328789234161,525.7328789234161,525.7328789234161,528.2172968387604,2,2.6186671257019043,None,,,,,,,,,,,,,,,,,,63,5,2025-02-19_16h54.09.828,comp,2024.2.4,61.395991545122925,2025-02-19 16h54.19.919441 -0500,
140,140,0,critical,hwd,20.0,3.0,upper,200.0,125.0,125.0,200.0,141.0,141.0,3,2.483628511428833,None,,,,,0,0,0,0,0,140,140,105,528.2327227592468,,,,,,,,,,,,,,,,,,,,,,,,,,,,,,,,,,,,,,,,,,,,,,,,,,,,,,,,,,,,,,,,,,,,,,,,,,,,,,,,,200.0,125.0,125.0,200.0,141.0,141.0,3.0,3.2,-258,-284,0,-2,266,285,528.2180638313293,528.2181041240692,528.2202904224396,528.2327227592468,528.3831152915955,528.3831152915955,528.3831152915955,528.3831152915955,528.3831152915955,528.3831152915955,528.3831152915955,530.717875957489,3,2.483628511428833,None,,,,,,,,,,,,,,,,,,63,5,2025-02-19_16h54.09.828,comp,2024.2.4,61.395991545122925,2025-02-19 16h54.19.919441 -0500,
