thisN,thisTrialN,thisRepN,effect,order,distance,config,diag,h_1,w_1,h_2,w_2,h_3,w_3,rect_choice.keys,rect_choice.rt,rect_choice.duration,instructions_loop.thisRepN,instructions_loop.thisTrialN,instructions_loop.thisN,instructions_loop.thisIndex,blocks.thisRepN,blocks.thisTrialN,blocks.thisN,blocks.thisIndex,trials.thisRepN,trials.thisTrialN,trials.thisN,trials.thisIndex,thisRow.t,notes,consent.started,agree_button.started,decline_button.started,consent_img.started,mouse.started,consent.stopped,agree_button.numClicks,agree_button.timesOn,agree_button.timesOff,decline_button.numClicks,decline_button.timesOn,decline_button.timesOff,mouse.x,mouse.y,mouse.leftButton,mouse.midButton,mouse.rightButton,mouse.time,mouse.clicked_name,exp_params.started,exp_params.stopped,welcome.started,welcome_text.started,welcome.stopped,instructions_1.started,instructions_1_text_1.started,instructions_1_text_2.started,key_resp.started,instructions_1.stopped,instructions_loop.key_resp.keys,instructions_loop.key_resp.rt,instructions_loop.key_resp.duration,instructions_2.started,instructions_2_text_1.started,instructions_2_text_2.started,key_resp_2.started,instructions_2.stopped,instructions_loop.key_resp_2.keys,instructions_loop.key_resp_2.rt,instructions_loop.key_resp_2.duration,instructions_3.started,instructions_3_text_1.started,r1_instr3.started,r2_instr3.started,r3_instr3.started,r1_instr3_label.started,r2_instr3_label.started,r3_instr3_label.started,instructions_3_text_3.started,instructions_3_text_4.started,key_resp_3.started,instructions_3.stopped,instructions_loop.key_resp_3.keys,instructions_loop.key_resp_3.rt,instructions_loop.key_resp_3.duration,instructions_4.started,instructions_4_text_1.started,instructions_4_text_3.started,instructions_4_text_2.started,key_resp_4.started,instructions_4.stopped,instructions_loop.key_resp_4.keys,instructions_loop.key_resp_4.rt,instructions_loop.key_resp_4.duration,instructions_5.started,instructions_5_text_1.started,instructions_5_text_2.started,key_resp_5.started,instructions_5.stopped,instructions_loop.key_resp_5.keys,instructions_loop.key_resp_5.rt,instructions_loop.key_resp_5.duration,start_exp.started,start_exp_text.started,key_resp_6.started,start_exp.stopped,key_resp_6.keys,key_resp_6.rt,key_resp_6.duration,h_1_tmp,w_1_tmp,h_2_tmp,w_2_tmp,h_3_tmp,w_3_tmp,config_tmp,config_tmp_1,r_1_x,r_1_y,r_2_x,r_2_y,r_3_x,r_3_y,pre_trial.started,pre_trial.stopped,choice_trial.started,rect_choice.started,r_1.started,r_2.started,r_3.started,r_1_label.started,r_2_label.started,r_3_label.started,prompt.started,choice_trial.stopped,trials.rect_choice.keys,trials.rect_choice.rt,trials.rect_choice.duration,end_block.started,end_block_text.started,end_block.stopped,end.started,end_text.started,key_resp_7.started,end.stopped,key_resp_7.keys,key_resp_7.rt,key_resp_7.duration,debriefing.started,debrief_form.started,end_debrief.started,debriefing.stopped,end_debrief.keys,end_debrief.rt,end_debrief.duration,participant,computer,date,expName,psychopyVersion,frameRate,expStart,
,,,,,,,,,,,,,,,,,,,,,,,,,,,,,,,0.014927864074707031,0.03723883628845215,0.03723883628845215,0.03723883628845215,0.014735698699951172,76.08851170539856,1,[76.0488064289093],[76.04882764816284],0,,,[-78.0],[-496.0],[1],[0],[0],[76.07316279411316],['agree_button'],,,,,,,,,,,,,,,,,,,,,,,,,,,,,,,,,,,,,,,,,,,,,,,,,,,,,,,,,,,,,,,,,,,,,,,,,,,,,,,,,,,,,,,,,,,,,,,,,,,,,,,,,,,64,6,2025-02-19_16h56.05.335,comp,2024.2.4,None,2025-02-19 16h56.16.335114 -0500,
,,,,,,,,,,,,,,,,,,,,,,,,,,,,,,,,,,,,,,,,,,,,,,,,,,76.08902740478516,76.08909320831299,,,,,,,,,,,,,,,,,,,,,,,,,,,,,,,,,,,,,,,,,,,,,,,,,,,,,,,,,,,,,,,,,,,,,,,,,,,,,,,,,,,,,,,,,,,,,,,,,,,,,,,,,64,6,2025-02-19_16h56.05.335,comp,2024.2.4,None,2025-02-19 16h56.16.335114 -0500,
,,,,,,,,,,,,,,,,,,,,,,,,,,,,,,,,,,,,,,,,,,,,,,,,,,,,76.08913707733154,76.10720944404602,78.10510444641113,,,,,,,,,,,,,,,,,,,,,,,,,,,,,,,,,,,,,,,,,,,,,,,,,,,,,,,,,,,,,,,,,,,,,,,,,,,,,,,,,,,,,,,,,,,,,,,,,,,,,,64,6,2025-02-19_16h56.05.335,comp,2024.2.4,None,2025-02-19 16h56.16.335114 -0500,
0,0,0,,,,,,,,,,,,,,,0,0,0,0,,,,,,,,,78.12143731117249,,,,,,,,,,,,,,,,,,,,,,,,,,78.10601234436035,78.12143731117249,78.12143731117249,79.5889880657196,82.24197316169739,space,2.6352648735046387,None,82.24212622642517,82.25719571113586,82.25719571113586,83.74230933189392,87.72838044166565,space,3.978165626525879,None,87.72856950759888,87.75766158103943,87.75766158103943,87.75766158103943,87.75766158103943,87.75766158103943,87.75766158103943,87.75766158103943,87.75766158103943,87.75766158103943,89.22965216636658,98.76811003684998,space,9.530967473983765,None,98.7682683467865,98.78984665870667,98.78984665870667,98.78984665870667,100.28462743759155,104.66623783111572,space,4.372079610824585,None,104.66641926765442,104.68153214454651,104.68153214454651,106.16383409500122,107.26671957969666,space,1.0923993587493896,None,107.266916513443,107.28254556655884,107.28254556655884,108.3494508266449,space,1.0536937713623047,None,,,,,,,,,,,,,,,,,,,,,,,,,,,,,,,,,,,,,,,,,,,,,,,64,6,2025-02-19_16h56.05.335,comp,2024.2.4,None,2025-02-19 16h56.16.335114 -0500,
0,0,0,filler_square,None,None,None,None,None,None,None,None,None,None,3,5.550544738769531,None,,,,,0,0,0,0,0,0,0,172,108.42551732063293,,,,,,,,,,,,,,,,,,,,,,,,,,,,,,,,,,,,,,,,,,,,,,,,,,,,,,,,,,,,,,,,,,,,,,,,,,,,,,,,,78.1272407104637,86.92862881788722,82.7171750770364,65.81849332957786,106.8094283637185,106.8094283637185,2.1,2.12,-172,-282,0,-255,182,250,108.4089457988739,108.40898823738098,108.41086101531982,108.42551732063293,108.57549476623535,108.57549476623535,108.57549476623535,108.57549476623535,108.57549476623535,108.57549476623535,108.57549476623535,113.98690462112427,3,5.550544738769531,None,,,,,,,,,,,,,,,,,,64,6,2025-02-19_16h56.05.335,comp,2024.2.4,None,2025-02-19 16h56.16.335114 -0500,
1,1,0,critical,whd,35.0,2.1,upper,125.0,200.0,200.0,125.0,127.0,127.0,2,30.260368585586548,None,,,,,0,0,0,0,0,1,1,13,114.00388932228088,,,,,,,,,,,,,,,,,,,,,,,,,,,,,,,,,,,,,,,,,,,,,,,,,,,,,,,,,,,,,,,,,,,,,,,,,,,,,,,,,125.0,200.0,200.0,125.0,127.0,127.0,2.1,2.12,-258,-269,0,-279,222,269,113.98845148086548,113.98853254318237,113.99221396446228,114.00388932228088,114.15227341651917,114.15227341651917,114.15227341651917,114.15227341651917,114.15227341651917,114.15227341651917,114.15227341651917,144.27804279327393,2,30.260368585586548,None,,,,,,,,,,,,,,,,,,64,6,2025-02-19_16h56.05.335,comp,2024.2.4,None,2025-02-19 16h56.16.335114 -0500,
2,2,0,critical,dwh,20.0,2.1,upper,141.0,141.0,125.0,200.0,200.0,125.0,2,18.00646948814392,None,,,,,0,0,0,0,0,2,2,31,144.2979245185852,,,,,,,,,,,,,,,,,,,,,,,,,,,,,,,,,,,,,,,,,,,,,,,,,,,,,,,,,,,,,,,,,,,,,,,,,,,,,,,,,141.0,141.0,125.0,200.0,200.0,125.0,2.1,2.12,-266,-274,0,-252,258,270,144.27958059310913,144.27966117858887,144.28260850906372,144.2979245185852,144.44552564620972,144.44552564620972,144.44552564620972,144.44552564620972,144.44552564620972,144.44552564620972,144.44552564620972,162.31969261169434,2,18.00646948814392,None,,,,,,,,,,,,,,,,,,64,6,2025-02-19_16h56.05.335,comp,2024.2.4,None,2025-02-19 16h56.16.335114 -0500,
3,3,0,critical,whd,35.0,3.0,lower,57.0,133.0,133.0,57.0,70.0,70.0,1,6.86565089225769,None,,,,,0,0,0,0,0,3,3,86,162.33502769470215,,,,,,,,,,,,,,,,,,,,,,,,,,,,,,,,,,,,,,,,,,,,,,,,,,,,,,,,,,,,,,,,,,,,,,,,,,,,,,,,,57.0,133.0,133.0,57.0,70.0,70.0,3.0,3.2,-191,-281,0,9,160,257,162.32125115394592,162.32132840156555,162.32446122169495,162.33502769470215,162.48259615898132,162.48259615898132,162.48259615898132,162.48259615898132,162.48259615898132,162.48259615898132,162.48259615898132,169.218754529953,1,6.86565089225769,None,,,,,,,,,,,,,,,,,,64,6,2025-02-19_16h56.05.335,comp,2024.2.4,None,2025-02-19 16h56.16.335114 -0500,
4,4,0,critical,hdw,20.0,2.1,lower,133.0,57.0,78.0,78.0,57.0,133.0,3,5.654160261154175,None,,,,,0,0,0,0,0,4,4,22,169.2340908050537,,,,,,,,,,,,,,,,,,,,,,,,,,,,,,,,,,,,,,,,,,,,,,,,,,,,,,,,,,,,,,,,,,,,,,,,,,,,,,,,,133.0,57.0,78.0,78.0,57.0,133.0,2.1,2.12,-164,-251,0,-286,202,267,169.22030448913574,169.220383644104,169.22361731529236,169.2340908050537,169.3762526512146,169.3762526512146,169.3762526512146,169.3762526512146,169.3762526512146,169.3762526512146,169.3762526512146,174.9040219783783,3,5.654160261154175,None,,,,,,,,,,,,,,,,,,64,6,2025-02-19_16h56.05.335,comp,2024.2.4,None,2025-02-19 16h56.16.335114 -0500,
5,5,0,critical,wdh,35.0,2.1,upper,125.0,200.0,127.0,127.0,200.0,125.0,1,8.911802768707275,None,,,,,0,0,0,0,0,5,5,33,174.92033863067627,,,,,,,,,,,,,,,,,,,,,,,,,,,,,,,,,,,,,,,,,,,,,,,,,,,,,,,,,,,,,,,,,,,,,,,,,,,,,,,,,125.0,200.0,127.0,127.0,200.0,125.0,2.1,2.11,-260,287,0,280,222,-259,174.90552687644958,174.90560221672058,174.90904688835144,174.92033863067627,175.077490568161,175.077490568161,175.077490568161,175.077490568161,175.077490568161,175.077490568161,175.077490568161,183.84130024909973,1,8.911802768707275,None,,,,,,,,,,,,,,,,,,64,6,2025-02-19_16h56.05.335,comp,2024.2.4,None,2025-02-19 16h56.16.335114 -0500,
6,6,0,critical,dhw,20.0,2.1,upper,141.0,141.0,200.0,125.0,125.0,200.0,3,11.361453294754028,None,,,,,0,0,0,0,0,6,6,27,183.85564637184143,,,,,,,,,,,,,,,,,,,,,,,,,,,,,,,,,,,,,,,,,,,,,,,,,,,,,,,,,,,,,,,,,,,,,,,,,,,,,,,,,141.0,141.0,200.0,125.0,125.0,200.0,2.1,2.11,-229,254,0,274,258,-264,183.84284806251526,183.84292578697205,183.84591031074524,183.85564637184143,184.00616121292114,184.00616121292114,184.00616121292114,184.00616121292114,184.00616121292114,184.00616121292114,184.00616121292114,195.22426652908325,3,11.361453294754028,None,,,,,,,,,,,,,,,,,,64,6,2025-02-19_16h56.05.335,comp,2024.2.4,None,2025-02-19 16h56.16.335114 -0500,
7,7,0,critical,dhw,35.0,3.0,lower,70.0,70.0,133.0,57.0,57.0,133.0,3,23.639209032058716,None,,,,,0,0,0,0,0,7,7,50,195.24159336090088,,,,,,,,,,,,,,,,,,,,,,,,,,,,,,,,,,,,,,,,,,,,,,,,,,,,,,,,,,,,,,,,,,,,,,,,,,,,,,,,,70.0,70.0,133.0,57.0,57.0,133.0,3.0,3.2,-160,-287,0,-2,191,274,195.22577142715454,195.22584629058838,195.22863864898682,195.24159336090088,195.37782049179077,195.37782049179077,195.37782049179077,195.37782049179077,195.37782049179077,195.37782049179077,195.37782049179077,218.88445901870728,3,23.639209032058716,None,,,,,,,,,,,,,,,,,,64,6,2025-02-19_16h56.05.335,comp,2024.2.4,None,2025-02-19 16h56.16.335114 -0500,
8,8,0,critical,hdw,35.0,2.1,upper,200.0,125.0,127.0,127.0,125.0,200.0,1,25.488445520401,None,,,,,0,0,0,0,0,8,8,45,218.9041154384613,,,,,,,,,,,,,,,,,,,,,,,,,,,,,,,,,,,,,,,,,,,,,,,,,,,,,,,,,,,,,,,,,,,,,,,,,,,,,,,,,200.0,125.0,127.0,127.0,125.0,200.0,2.1,2.11,-222,257,0,290,260,-271,218.8860001564026,218.88608026504517,218.88925766944885,218.9041154384613,219.04997634887695,219.04997634887695,219.04997634887695,219.04997634887695,219.04997634887695,219.04997634887695,219.04997634887695,244.39490151405334,1,25.488445520401,None,,,,,,,,,,,,,,,,,,64,6,2025-02-19_16h56.05.335,comp,2024.2.4,None,2025-02-19 16h56.16.335114 -0500,
9,9,0,critical,dwh,35.0,2.1,lower,70.0,70.0,57.0,133.0,133.0,57.0,2,26.533796310424805,None,,,,,0,0,0,0,0,9,9,28,244.41116070747375,,,,,,,,,,,,,,,,,,,,,,,,,,,,,,,,,,,,,,,,,,,,,,,,,,,,,,,,,,,,,,,,,,,,,,,,,,,,,,,,,70.0,70.0,57.0,133.0,133.0,57.0,2.1,2.12,-198,-251,0,-261,191,252,244.3965892791748,244.39671444892883,244.40043210983276,244.41116070747375,244.55996751785278,244.55996751785278,244.55996751785278,244.55996751785278,244.55996751785278,244.55996751785278,244.55996751785278,270.95055079460144,2,26.533796310424805,None,,,,,,,,,,,,,,,,,,64,6,2025-02-19_16h56.05.335,comp,2024.2.4,None,2025-02-19 16h56.16.335114 -0500,
10,10,0,filler_square,None,None,None,None,None,None,None,None,None,None,3,7.985499382019043,None,,,,,0,0,0,0,0,10,10,194,270.9754798412323,,,,,,,,,,,,,,,,,,,,,,,,,,,,,,,,,,,,,,,,,,,,,,,,,,,,,,,,,,,,,,,,,,,,,,,,,,,,,,,,,59.59846521780926,68.93609782586707,57.10023550850651,68.90114922884955,71.41390006347329,71.41390006347329,2.1,2.11,-165,253,0,278,166,-287,270.95233058929443,270.95244550704956,270.9554491043091,270.9754798412323,271.1176161766052,271.1176161766052,271.1176161766052,271.1176161766052,271.1176161766052,271.1176161766052,271.1176161766052,278.9708642959595,3,7.985499382019043,None,,,,,,,,,,,,,,,,,,64,6,2025-02-19_16h56.05.335,comp,2024.2.4,None,2025-02-19 16h56.16.335114 -0500,
11,11,0,critical,hdw,35.0,4.0,upper,200.0,125.0,127.0,127.0,125.0,200.0,3,20.709715604782104,None,,,,,0,0,0,0,0,11,11,113,278.9867374897003,,,,,,,,,,,,,,,,,,,,,,,,,,,,,,,,,,,,,,,,,,,,,,,,,,,,,,,,,,,,,,,,,,,,,,,,,,,,,,,,,200.0,125.0,127.0,127.0,125.0,200.0,4.0,4.2,-222,-18,0,-279,260,16,278.9724192619324,278.9725024700165,278.9759886264801,278.9867374897003,279.1347804069519,279.1347804069519,279.1347804069519,279.1347804069519,279.1347804069519,279.1347804069519,279.1347804069519,299.7116720676422,3,20.709715604782104,None,,,,,,,,,,,,,,,,,,64,6,2025-02-19_16h56.05.335,comp,2024.2.4,None,2025-02-19 16h56.16.335114 -0500,
12,12,0,filler_random,None,None,None,None,None,None,None,None,None,None,2,14.433197736740112,None,,,,,0,0,0,0,0,12,12,161,299.72757506370544,,,,,,,,,,,,,,,,,,,,,,,,,,,,,,,,,,,,,,,,,,,,,,,,,,,,,,,,,,,,,,,,,,,,,,,,,,,,,,,,,174.79278261662327,65.68670469514316,170.3879162389668,146.9425187167929,190.4930674886952,60.854400782008874,4.0,4.1,-202,-263,0,9,200,-274,299.7133147716522,299.7134110927582,299.71732878685,299.72757506370544,299.8766756057739,299.8766756057739,299.8766756057739,299.8766756057739,299.8766756057739,299.8766756057739,299.8766756057739,314.16403913497925,2,14.433197736740112,None,,,,,,,,,,,,,,,,,,64,6,2025-02-19_16h56.05.335,comp,2024.2.4,None,2025-02-19 16h56.16.335114 -0500,
13,13,0,critical,dwh,35.0,1.0,lower,70.0,70.0,57.0,133.0,133.0,57.0,3,29.756242275238037,None,,,,,0,0,0,0,0,13,13,60,314.180499792099,,,,,,,,,,,,,,,,,,,,,,,,,,,,,,,,,,,,,,,,,,,,,,,,,,,,,,,,,,,,,,,,,,,,,,,,,,,,,,,,,70.0,70.0,57.0,133.0,133.0,57.0,1.0,1.3,282,-264,480,-271,671,-274,314.1655607223511,314.16563725471497,314.1687331199646,314.180499792099,314.331661939621,314.331661939621,314.331661939621,314.331661939621,314.331661939621,314.331661939621,314.331661939621,343.9413139820099,3,29.756242275238037,None,,,,,,,,,,,,,,,,,,64,6,2025-02-19_16h56.05.335,comp,2024.2.4,None,2025-02-19 16h56.16.335114 -0500,
14,14,0,critical,dwh,20.0,2.1,upper,141.0,141.0,125.0,200.0,200.0,125.0,3,11.819268465042114,None,,,,,0,0,0,0,0,14,14,7,343.9571726322174,,,,,,,,,,,,,,,,,,,,,,,,,,,,,,,,,,,,,,,,,,,,,,,,,,,,,,,,,,,,,,,,,,,,,,,,,,,,,,,,,141.0,141.0,125.0,200.0,200.0,125.0,2.1,2.11,-266,251,0,268,258,-271,343.94292759895325,343.94300603866577,343.9463632106781,343.9571726322174,344.10651993751526,344.10651993751526,344.10651993751526,344.10651993751526,344.10651993751526,344.10651993751526,344.10651993751526,355.77853083610535,3,11.819268465042114,None,,,,,,,,,,,,,,,,,,64,6,2025-02-19_16h56.05.335,comp,2024.2.4,None,2025-02-19 16h56.16.335114 -0500,
15,15,0,critical,hdw,20.0,2.1,lower,133.0,57.0,78.0,78.0,57.0,133.0,3,13.8221914768219,None,,,,,0,0,0,0,0,15,15,46,355.79455065727234,,,,,,,,,,,,,,,,,,,,,,,,,,,,,,,,,,,,,,,,,,,,,,,,,,,,,,,,,,,,,,,,,,,,,,,,,,,,,,,,,133.0,57.0,78.0,78.0,57.0,133.0,2.1,2.12,-164,-271,0,-259,202,256,355.7801396846771,355.7802264690399,355.78379559516907,355.79455065727234,355.9451153278351,355.9451153278351,355.9451153278351,355.9451153278351,355.9451153278351,355.9451153278351,355.9451153278351,369.6214337348938,3,13.8221914768219,None,,,,,,,,,,,,,,,,,,64,6,2025-02-19_16h56.05.335,comp,2024.2.4,None,2025-02-19 16h56.16.335114 -0500,
16,16,0,critical,hwd,35.0,3.0,upper,200.0,125.0,125.0,200.0,127.0,127.0,1,6.448485612869263,None,,,,,0,0,0,0,0,16,16,99,369.6398615837097,,,,,,,,,,,,,,,,,,,,,,,,,,,,,,,,,,,,,,,,,,,,,,,,,,,,,,,,,,,,,,,,,,,,,,,,,,,,,,,,,200.0,125.0,125.0,200.0,127.0,127.0,3.0,3.1,-258,277,0,12,260,-267,369.62306213378906,369.6231813430786,369.62666630744934,369.6398615837097,369.7844669818878,369.7844669818878,369.7844669818878,369.7844669818878,369.7844669818878,369.7844669818878,369.7844669818878,376.1011574268341,1,6.448485612869263,None,,,,,,,,,,,,,,,,,,64,6,2025-02-19_16h56.05.335,comp,2024.2.4,None,2025-02-19 16h56.16.335114 -0500,
17,17,0,filler_random,None,None,None,None,None,None,None,None,None,None,2,3.099813938140869,None,,,,,0,0,0,0,0,17,17,168,376.11697459220886,,,,,,,,,,,,,,,,,,,,,,,,,,,,,,,,,,,,,,,,,,,,,,,,,,,,,,,,,,,,,,,,,,,,,,,,,,,,,,,,,136.54279813332988,154.17349237079094,175.837041104223,184.9531162591314,151.5746492905709,72.97369067020875,2.2,2.22,-266,283,0,-280,225,-288,376.1025764942169,376.10263657569885,376.105908870697,376.11697459220886,376.26691699028015,376.26691699028015,376.26691699028015,376.26691699028015,376.26691699028015,376.26691699028015,376.26691699028015,379.2382037639618,2,3.099813938140869,None,,,,,,,,,,,,,,,,,,64,6,2025-02-19_16h56.05.335,comp,2024.2.4,None,2025-02-19 16h56.16.335114 -0500,
18,18,0,critical,hdw,35.0,3.0,upper,200.0,125.0,127.0,127.0,125.0,200.0,1,10.822025299072266,None,,,,,0,0,0,0,0,18,18,111,379.2585198879242,,,,,,,,,,,,,,,,,,,,,,,,,,,,,,,,,,,,,,,,,,,,,,,,,,,,,,,,,,,,,,,,,,,,,,,,,,,,,,,,,200.0,125.0,127.0,127.0,125.0,200.0,3.0,3.2,-222,-272,0,7,260,257,379.2398273944855,379.2399010658264,379.24317264556885,379.2585198879242,379.40147614479065,379.40147614479065,379.40147614479065,379.40147614479065,379.40147614479065,379.40147614479065,379.40147614479065,390.0940818786621,1,10.822025299072266,None,,,,,,,,,,,,,,,,,,64,6,2025-02-19_16h56.05.335,comp,2024.2.4,None,2025-02-19 16h56.16.335114 -0500,
19,19,0,filler_random,None,None,None,None,None,None,None,None,None,None,2,21.802825450897217,None,,,,,0,0,0,0,0,19,19,150,390.1096980571747,,,,,,,,,,,,,,,,,,,,,,,,,,,,,,,,,,,,,,,,,,,,,,,,,,,,,,,,,,,,,,,,,,,,,,,,,,,,,,,,,92.96907920262763,152.09855317959205,163.10742729713218,169.4909049660078,152.57745241846402,130.64597137222412,2.2,2.21,-257,-275,0,281,246,260,390.09600138664246,390.0961151123047,390.09930300712585,390.1096980571747,390.2543251514435,390.2543251514435,390.2543251514435,390.2543251514435,390.2543251514435,390.2543251514435,390.2543251514435,411.9294853210449,2,21.802825450897217,None,,,,,,,,,,,,,,,,,,64,6,2025-02-19_16h56.05.335,comp,2024.2.4,None,2025-02-19 16h56.16.335114 -0500,
20,20,0,filler_random,None,None,None,None,None,None,None,None,None,None,1,10.568253517150879,None,,,,,0,0,0,0,0,20,20,136,411.9448070526123,,,,,,,,,,,,,,,,,,,,,,,,,,,,,,,,,,,,,,,,,,,,,,,,,,,,,,,,,,,,,,,,,,,,,,,,,,,,,,,,,155.247084824275,179.39149080216657,99.06398188636962,192.77612607619372,68.92341797963522,197.11322242377682,4.0,4.2,-282,1,0,-274,291,8,411.9311680793762,411.9312448501587,411.93457198143005,411.9448070526123,412.09353399276733,412.09353399276733,412.09353399276733,412.09353399276733,412.09353399276733,412.09353399276733,412.09353399276733,422.51570415496826,1,10.568253517150879,None,,,,,,,,,,,,,,,,,,64,6,2025-02-19_16h56.05.335,comp,2024.2.4,None,2025-02-19 16h56.16.335114 -0500,
21,21,0,filler_square,None,None,None,None,None,None,None,None,None,None,2,11.368717908859253,None,,,,,0,0,0,0,0,21,21,200,422.5358192920685,,,,,,,,,,,,,,,,,,,,,,,,,,,,,,,,,,,,,,,,,,,,,,,,,,,,,,,,,,,,,,,,,,,,,,,,,,,,,,,,,57.55975453572431,57.55975453572431,57.39996685806519,57.54866675391458,57.42040569064124,57.0683756029441,3.0,3.2,-154,-269,0,-19,153,266,422.517573595047,422.5176510810852,422.52046751976013,422.5358192920685,422.6822738647461,422.6822738647461,422.6822738647461,422.6822738647461,422.6822738647461,422.6822738647461,422.6822738647461,433.91990518569946,2,11.368717908859253,None,,,,,,,,,,,,,,,,,,64,6,2025-02-19_16h56.05.335,comp,2024.2.4,None,2025-02-19 16h56.16.335114 -0500,
22,22,0,critical,hwd,20.0,1.0,lower,133.0,57.0,57.0,133.0,78.0,78.0,1,19.91305112838745,None,,,,,0,0,0,0,0,22,22,102,433.9355344772339,,,,,,,,,,,,,,,,,,,,,,,,,,,,,,,,,,,,,,,,,,,,,,,,,,,,,,,,,,,,,,,,,,,,,,,,,,,,,,,,,133.0,57.0,57.0,133.0,78.0,78.0,1.0,1.3,289,-272,480,-251,682,-257,433.9215440750122,433.92169189453125,433.92519330978394,433.9355344772339,434.08555579185486,434.08555579185486,434.08555579185486,434.08555579185486,434.08555579185486,434.08555579185486,434.08555579185486,453.8591775894165,1,19.91305112838745,None,,,,,,,,,,,,,,,,,,64,6,2025-02-19_16h56.05.335,comp,2024.2.4,None,2025-02-19 16h56.16.335114 -0500,
23,23,0,catch,None,None,None,None,None,None,None,None,None,None,1,3.8793253898620605,None,,,,,0,0,0,0,0,23,23,127,453.8744204044342,,,,,,,,,,,,,,,,,,,,,,,,,,,,,,,,,,,,,,,,,,,,,,,,,,,,,,,,,,,,,,,,,,,,,,,,,,,,,,,,,167,158,92,98,100,90,1.0,1.1,-704,279,-480,258,-290,251,453.86116123199463,453.8612434864044,453.86461210250854,453.8744204044342,454.03051805496216,454.03051805496216,454.03051805496216,454.03051805496216,454.03051805496216,454.03051805496216,454.03051805496216,457.7608075141907,1,3.8793253898620605,None,,,,,,,,,,,,,,,,,,64,6,2025-02-19_16h56.05.335,comp,2024.2.4,None,2025-02-19 16h56.16.335114 -0500,
24,24,0,critical,hwd,35.0,1.0,upper,200.0,125.0,125.0,200.0,127.0,127.0,1,18.943760633468628,None,,,,,0,0,0,0,0,24,24,97,457.7768723964691,,,,,,,,,,,,,,,,,,,,,,,,,,,,,,,,,,,,,,,,,,,,,,,,,,,,,,,,,,,,,,,,,,,,,,,,,,,,,,,,,200.0,125.0,125.0,200.0,127.0,127.0,1.0,1.1,-738,259,-480,262,-220,284,457.76247358322144,457.7626054286957,457.7660565376282,457.7768723964691,457.92633414268494,457.92633414268494,457.92633414268494,457.92633414268494,457.92633414268494,457.92633414268494,457.92633414268494,476.74051880836487,1,18.943760633468628,None,,,,,,,,,,,,,,,,,,64,6,2025-02-19_16h56.05.335,comp,2024.2.4,None,2025-02-19 16h56.16.335114 -0500,
25,25,0,critical,whd,20.0,3.0,upper,125.0,200.0,200.0,125.0,141.0,141.0,1,21.779746770858765,None,,,,,0,0,0,0,0,25,25,93,476.7575135231018,,,,,,,,,,,,,,,,,,,,,,,,,,,,,,,,,,,,,,,,,,,,,,,,,,,,,,,,,,,,,,,,,,,,,,,,,,,,,,,,,125.0,200.0,200.0,125.0,141.0,141.0,3.0,3.1,-258,281,0,7,229,-282,476.7419602870941,476.742036819458,476.74485540390015,476.7575135231018,476.89887523651123,476.89887523651123,476.89887523651123,476.89887523651123,476.89887523651123,476.89887523651123,476.89887523651123,498.5401756763458,1,21.779746770858765,None,,,,,,,,,,,,,,,,,,64,6,2025-02-19_16h56.05.335,comp,2024.2.4,None,2025-02-19 16h56.16.335114 -0500,
26,26,0,filler_random,None,None,None,None,None,None,None,None,None,None,3,3.083695650100708,None,,,,,0,0,0,0,0,26,26,141,498.55703020095825,,,,,,,,,,,,,,,,,,,,,,,,,,,,,,,,,,,,,,,,,,,,,,,,,,,,,,,,,,,,,,,,,,,,,,,,,,,,,,,,,139.0155397947887,99.41521673856151,96.08964843865924,152.23480652455953,146.76075608539634,170.51022350852034,3.0,3.2,-222,-273,0,-17,257,255,498.5418863296509,498.5419635772705,498.5453350543976,498.55703020095825,498.7075786590576,498.7075786590576,498.7075786590576,498.7075786590576,498.7075786590576,498.7075786590576,498.7075786590576,501.6430654525757,3,3.083695650100708,None,,,,,,,,,,,,,,,,,,64,6,2025-02-19_16h56.05.335,comp,2024.2.4,None,2025-02-19 16h56.16.335114 -0500,
27,27,0,critical,dwh,20.0,4.0,upper,141.0,141.0,125.0,200.0,200.0,125.0,3,21.867871522903442,None,,,,,0,0,0,0,0,27,27,71,501.6615471839905,,,,,,,,,,,,,,,,,,,,,,,,,,,,,,,,,,,,,,,,,,,,,,,,,,,,,,,,,,,,,,,,,,,,,,,,,,,,,,,,,141.0,141.0,125.0,200.0,200.0,125.0,4.0,4.2,-266,6,0,-271,258,20,501.6448805332184,501.64496207237244,501.6483597755432,501.6615471839905,501.8125774860382,501.8125774860382,501.8125774860382,501.8125774860382,501.8125774860382,501.8125774860382,501.8125774860382,523.5316169261932,3,21.867871522903442,None,,,,,,,,,,,,,,,,,,64,6,2025-02-19_16h56.05.335,comp,2024.2.4,None,2025-02-19 16h56.16.335114 -0500,
28,28,0,critical,whd,20.0,2.1,lower,57.0,133.0,133.0,57.0,78.0,78.0,2,10.701805353164673,None,,,,,0,0,0,0,0,28,28,14,523.5470454692841,,,,,,,,,,,,,,,,,,,,,,,,,,,,,,,,,,,,,,,,,,,,,,,,,,,,,,,,,,,,,,,,,,,,,,,,,,,,,,,,,57.0,133.0,133.0,57.0,78.0,78.0,2.1,2.12,-191,-273,0,-284,164,260,523.53311419487,523.5331919193268,523.5363562107086,523.5470454692841,523.7006907463074,523.7006907463074,523.7006907463074,523.7006907463074,523.7006907463074,523.7006907463074,523.7006907463074,534.2508406639099,2,10.701805353164673,None,,,,,,,,,,,,,,,,,,64,6,2025-02-19_16h56.05.335,comp,2024.2.4,None,2025-02-19 16h56.16.335114 -0500,
29,29,0,critical,dhw,35.0,1.0,lower,70.0,70.0,133.0,57.0,57.0,133.0,2,33.022321939468384,None,,,,,0,0,0,0,0,29,29,48,534.2669882774353,,,,,,,,,,,,,,,,,,,,,,,,,,,,,,,,,,,,,,,,,,,,,,,,,,,,,,,,,,,,,,,,,,,,,,,,,,,,,,,,,70.0,70.0,133.0,57.0,57.0,133.0,1.0,1.2,-160,-13,0,5,191,12,534.2524318695068,534.2525146007538,534.2558717727661,534.2669882774353,534.4182665348053,534.4182665348053,534.4182665348053,534.4182665348053,534.4182665348053,534.4182665348053,534.4182665348053,567.291562795639,2,33.022321939468384,None,,,,,,,,,,,,,,,,,,64,6,2025-02-19_16h56.05.335,comp,2024.2.4,None,2025-02-19 16h56.16.335114 -0500,
30,30,0,filler_random,None,None,None,None,None,None,None,None,None,None,2,5.03624415397644,None,,,,,0,0,0,0,0,30,30,156,567.3088028430939,,,,,,,,,,,,,,,,,,,,,,,,,,,,,,,,,,,,,,,,,,,,,,,,,,,,,,,,,,,,,,,,,,,,,,,,,,,,,,,,,159.686481840662,163.82615245629387,155.0160765037583,149.4724152729545,112.80244210384029,90.63554694237293,2.2,2.22,-253,260,0,-266,216,-257,567.2933657169342,567.2935242652893,567.296745300293,567.3088028430939,567.4536373615265,567.4536373615265,567.4536373615265,567.4536373615265,567.4536373615265,567.4536373615265,567.4536373615265,572.3641774654388,2,5.03624415397644,None,,,,,,,,,,,,,,,,,,64,6,2025-02-19_16h56.05.335,comp,2024.2.4,None,2025-02-19 16h56.16.335114 -0500,
31,31,0,critical,hwd,20.0,4.0,upper,200.0,125.0,125.0,200.0,141.0,141.0,1,5.009881973266602,None,,,,,0,0,0,0,0,31,31,107,572.3833291530609,,,,,,,,,,,,,,,,,,,,,,,,,,,,,,,,,,,,,,,,,,,,,,,,,,,,,,,,,,,,,,,,,,,,,,,,,,,,,,,,,200.0,125.0,125.0,200.0,141.0,141.0,4.0,4.1,-258,-284,0,-2,266,-278,572.36567735672,572.3657546043396,572.368679523468,572.3833291530609,572.5287432670593,572.5287432670593,572.5287432670593,572.5287432670593,572.5287432670593,572.5287432670593,572.5287432670593,577.3969407081604,1,5.009881973266602,None,,,,,,,,,,,,,,,,,,64,6,2025-02-19_16h56.05.335,comp,2024.2.4,None,2025-02-19 16h56.16.335114 -0500,
32,32,0,critical,dwh,20.0,2.1,lower,78.0,78.0,57.0,133.0,133.0,57.0,3,6.212498426437378,None,,,,,0,0,0,0,0,32,32,6,577.4129571914673,,,,,,,,,,,,,,,,,,,,,,,,,,,,,,,,,,,,,,,,,,,,,,,,,,,,,,,,,,,,,,,,,,,,,,,,,,,,,,,,,78.0,78.0,57.0,133.0,133.0,57.0,2.1,2.11,-202,268,0,272,191,-276,577.3985049724579,577.3985815048218,577.401379108429,577.4129571914673,577.5646796226501,577.5646796226501,577.5646796226501,577.5646796226501,577.5646796226501,577.5646796226501,577.5646796226501,583.6340353488922,3,6.212498426437378,None,,,,,,,,,,,,,,,,,,64,6,2025-02-19_16h56.05.335,comp,2024.2.4,None,2025-02-19 16h56.16.335114 -0500,
33,33,0,critical,hwd,35.0,2.1,upper,200.0,125.0,125.0,200.0,127.0,127.0,1,8.047042608261108,None,,,,,0,0,0,0,0,33,33,17,583.6503193378448,,,,,,,,,,,,,,,,,,,,,,,,,,,,,,,,,,,,,,,,,,,,,,,,,,,,,,,,,,,,,,,,,,,,,,,,,,,,,,,,,200.0,125.0,125.0,200.0,127.0,127.0,2.1,2.11,-258,263,0,286,260,-256,583.6355938911438,583.6356728076935,583.6396327018738,583.6503193378448,583.8045017719269,583.8045017719269,583.8045017719269,583.8045017719269,583.8045017719269,583.8045017719269,583.8045017719269,591.7070152759552,1,8.047042608261108,None,,,,,,,,,,,,,,,,,,64,6,2025-02-19_16h56.05.335,comp,2024.2.4,None,2025-02-19 16h56.16.335114 -0500,
34,34,0,filler_square,None,None,None,None,None,None,None,None,None,None,2,3.8189496994018555,None,,,,,0,0,0,0,0,34,34,205,591.7281460762024,,,,,,,,,,,,,,,,,,,,,,,,,,,,,,,,,,,,,,,,,,,,,,,,,,,,,,,,,,,,,,,,,,,,,,,,,,,,,,,,,108.75799274314754,90.73193884532196,110.52782212675014,110.52782212675014,93.88544228304335,63.65921297739397,2.1,2.11,-197,269,0,288,183,-255,591.7090382575989,591.7091176509857,591.7122781276703,591.7281460762024,591.8647828102112,591.8647828102112,591.8647828102112,591.8647828102112,591.8647828102112,591.8647828102112,591.8647828102112,595.5504438877106,2,3.8189496994018555,None,,,,,,,,,,,,,,,,,,64,6,2025-02-19_16h56.05.335,comp,2024.2.4,None,2025-02-19 16h56.16.335114 -0500,
35,35,0,critical,dhw,20.0,2.1,upper,141.0,141.0,200.0,125.0,125.0,200.0,3,11.1293306350708,None,,,,,0,0,0,0,0,35,35,3,595.568133354187,,,,,,,,,,,,,,,,,,,,,,,,,,,,,,,,,,,,,,,,,,,,,,,,,,,,,,,,,,,,,,,,,,,,,,,,,,,,,,,,,141.0,141.0,200.0,125.0,125.0,200.0,2.1,2.11,-229,285,0,265,258,-286,595.5519363880157,595.5520126819611,595.5548219680786,595.568133354187,595.7036855220795,595.7036855220795,595.7036855220795,595.7036855220795,595.7036855220795,595.7036855220795,595.7036855220795,606.7057404518127,3,11.1293306350708,None,,,,,,,,,,,,,,,,,,64,6,2025-02-19_16h56.05.335,comp,2024.2.4,None,2025-02-19 16h56.16.335114 -0500,
36,36,0,critical,dhw,35.0,4.0,lower,70.0,70.0,133.0,57.0,57.0,133.0,3,3.1678009033203125,None,,,,,0,0,0,0,0,36,36,52,606.7212975025177,,,,,,,,,,,,,,,,,,,,,,,,,,,,,,,,,,,,,,,,,,,,,,,,,,,,,,,,,,,,,,,,,,,,,,,,,,,,,,,,,70.0,70.0,133.0,57.0,57.0,133.0,4.0,4.1,-160,-265,0,3,191,-276,606.7071917057037,606.7072677612305,606.710173368454,606.7212975025177,606.8633456230164,606.8633456230164,606.8633456230164,606.8633456230164,606.8633456230164,606.8633456230164,606.8633456230164,609.9081838130951,3,3.1678009033203125,None,,,,,,,,,,,,,,,,,,64,6,2025-02-19_16h56.05.335,comp,2024.2.4,None,2025-02-19 16h56.16.335114 -0500,
37,37,0,critical,dhw,35.0,2.1,lower,70.0,70.0,133.0,57.0,57.0,133.0,3,15.090956449508667,None,,,,,0,0,0,0,0,37,37,0,609.9259006977081,,,,,,,,,,,,,,,,,,,,,,,,,,,,,,,,,,,,,,,,,,,,,,,,,,,,,,,,,,,,,,,,,,,,,,,,,,,,,,,,,70.0,70.0,133.0,57.0,57.0,133.0,2.1,2.12,-160,-270,0,-271,191,255,609.9097762107849,609.9098546504974,609.9131426811218,609.9259006977081,610.0748963356018,610.0748963356018,610.0748963356018,610.0748963356018,610.0748963356018,610.0748963356018,610.0748963356018,625.0275557041168,3,15.090956449508667,None,,,,,,,,,,,,,,,,,,64,6,2025-02-19_16h56.05.335,comp,2024.2.4,None,2025-02-19 16h56.16.335114 -0500,
38,38,0,filler_random,None,None,None,None,None,None,None,None,None,None,1,2.6787378787994385,None,,,,,0,0,0,0,0,38,38,152,625.0430014133453,,,,,,,,,,,,,,,,,,,,,,,,,,,,,,,,,,,,,,,,,,,,,,,,,,,,,,,,,,,,,,,,,,,,,,,,,,,,,,,,,163.90006181161354,120.19775185483229,65.18312054961329,64.11469779080798,74.82212111171528,87.65219562542165,3.0,3.1,-188,266,0,11,172,-281,625.0292458534241,625.0293247699738,625.032143831253,625.0430014133453,625.1796727180481,625.1796727180481,625.1796727180481,625.1796727180481,625.1796727180481,625.1796727180481,625.1796727180481,627.7305872440338,1,2.6787378787994385,None,,,,,,,,,,,,,,,,,,64,6,2025-02-19_16h56.05.335,comp,2024.2.4,None,2025-02-19 16h56.16.335114 -0500,
39,39,0,filler_random,None,None,None,None,None,None,None,None,None,None,2,3.607736587524414,None,,,,,0,0,0,0,0,39,39,139,627.7451348304749,,,,,,,,,,,,,,,,,,,,,,,,,,,,,,,,,,,,,,,,,,,,,,,,,,,,,,,,,,,,,,,,,,,,,,,,,,,,,,,,,147.35942077637895,62.78260426572785,184.68322295282258,147.6109186857227,180.95152271772497,69.7963981852603,2.2,2.21,-201,-273,0,251,205,254,627.7322809696198,627.7323594093323,627.7356555461884,627.7451348304749,627.8981852531433,627.8981852531433,627.8981852531433,627.8981852531433,627.8981852531433,627.8981852531433,627.8981852531433,631.365437746048,2,3.607736587524414,None,,,,,,,,,,,,,,,,,,64,6,2025-02-19_16h56.05.335,comp,2024.2.4,None,2025-02-19 16h56.16.335114 -0500,
40,40,0,critical,dwh,35.0,2.1,upper,127.0,127.0,125.0,200.0,200.0,125.0,2,3.524649143218994,None,,,,,0,0,0,0,0,40,40,5,631.380699634552,,,,,,,,,,,,,,,,,,,,,,,,,,,,,,,,,,,,,,,,,,,,,,,,,,,,,,,,,,,,,,,,,,,,,,,,,,,,,,,,,127.0,127.0,125.0,200.0,200.0,125.0,2.1,2.12,-260,-286,0,-286,258,286,631.3669564723969,631.3670308589935,631.3703188896179,631.380699634552,631.5280544757843,631.5280544757843,631.5280544757843,631.5280544757843,631.5280544757843,631.5280544757843,631.5280544757843,634.921037197113,2,3.524649143218994,None,,,,,,,,,,,,,,,,,,64,6,2025-02-19_16h56.05.335,comp,2024.2.4,None,2025-02-19 16h56.16.335114 -0500,
41,41,0,critical,dhw,20.0,3.0,upper,141.0,141.0,200.0,125.0,125.0,200.0,3,3.5774707794189453,None,,,,,0,0,0,0,0,41,41,57,634.9360344409943,,,,,,,,,,,,,,,,,,,,,,,,,,,,,,,,,,,,,,,,,,,,,,,,,,,,,,,,,,,,,,,,,,,,,,,,,,,,,,,,,141.0,141.0,200.0,125.0,125.0,200.0,3.0,3.1,-229,278,0,-5,258,-273,634.9225306510925,634.9226064682007,634.9258227348328,634.9360344409943,635.0850942134857,635.0850942134857,635.0850942134857,635.0850942134857,635.0850942134857,635.0850942134857,635.0850942134857,638.5157268047333,3,3.5774707794189453,None,,,,,,,,,,,,,,,,,,64,6,2025-02-19_16h56.05.335,comp,2024.2.4,None,2025-02-19 16h56.16.335114 -0500,
42,42,0,critical,dhw,20.0,2.1,lower,78.0,78.0,133.0,57.0,57.0,133.0,3,4.068501234054565,None,,,,,0,0,0,0,0,42,42,26,638.5323615074158,,,,,,,,,,,,,,,,,,,,,,,,,,,,,,,,,,,,,,,,,,,,,,,,,,,,,,,,,,,,,,,,,,,,,,,,,,,,,,,,,78.0,78.0,133.0,57.0,57.0,133.0,2.1,2.11,-164,270,0,282,191,-268,638.5172729492188,638.5173482894897,638.5207979679108,638.5323615074158,638.6833794116974,638.6833794116974,638.6833794116974,638.6833794116974,638.6833794116974,638.6833794116974,638.6833794116974,642.617570400238,3,4.068501234054565,None,,,,,,,,,,,,,,,,,,64,6,2025-02-19_16h56.05.335,comp,2024.2.4,None,2025-02-19 16h56.16.335114 -0500,
43,43,0,filler_random,None,None,None,None,None,None,None,None,None,None,2,2.750032663345337,None,,,,,0,0,0,0,0,43,43,149,642.6351330280304,,,,,,,,,,,,,,,,,,,,,,,,,,,,,,,,,,,,,,,,,,,,,,,,,,,,,,,,,,,,,,,,,,,,,,,,,,,,,,,,,99.03153113100532,106.80291540931158,130.64905380047614,158.73444407438922,84.01689917358868,75.16317422916173,4.0,4.1,-229,-284,0,-4,213,-258,642.6194846630096,642.6195895671844,642.6228852272034,642.6351330280304,642.786298751831,642.786298751831,642.786298751831,642.786298751831,642.786298751831,642.786298751831,642.786298751831,645.3872864246368,2,2.750032663345337,None,,,,,,,,,,,,,,,,,,64,6,2025-02-19_16h56.05.335,comp,2024.2.4,None,2025-02-19 16h56.16.335114 -0500,
44,44,0,critical,whd,35.0,1.0,lower,57.0,133.0,133.0,57.0,70.0,70.0,1,10.517235517501831,None,,,,,0,0,0,0,0,44,44,84,645.4045670032501,,,,,,,,,,,,,,,,,,,,,,,,,,,,,,,,,,,,,,,,,,,,,,,,,,,,,,,,,,,,,,,,,,,,,,,,,,,,,,,,,57.0,133.0,133.0,57.0,70.0,70.0,1.0,1.2,-191,-13,0,2,160,-11,645.3890242576599,645.3891637325287,645.3929388523102,645.4045670032501,645.5524730682373,645.5524730682373,645.5524730682373,645.5524730682373,645.5524730682373,645.5524730682373,645.5524730682373,655.9271056652069,1,10.517235517501831,None,,,,,,,,,,,,,,,,,,64,6,2025-02-19_16h56.05.335,comp,2024.2.4,None,2025-02-19 16h56.16.335114 -0500,
45,45,0,filler_square,None,None,None,None,None,None,None,None,None,None,1,7.490643262863159,None,,,,,0,0,0,0,0,45,45,177,655.9433150291443,,,,,,,,,,,,,,,,,,,,,,,,,,,,,,,,,,,,,,,,,,,,,,,,,,,,,,,,,,,,,,,,,,,,,,,,,,,,,,,,,198.8928331163145,198.8928331163145,134.25334260260286,156.08092509751313,175.4927856231153,113.63248102939029,4.0,4.2,-273,16,0,-253,231,2,655.9288809299469,655.9289593696594,655.9317805767059,655.9433150291443,656.088164806366,656.088164806366,656.088164806366,656.088164806366,656.088164806366,656.088164806366,656.088164806366,663.4417116641998,1,7.490643262863159,None,,,,,,,,,,,,,,,,,,64,6,2025-02-19_16h56.05.335,comp,2024.2.4,None,2025-02-19 16h56.16.335114 -0500,
46,46,0,critical,dwh,20.0,1.0,upper,141.0,141.0,125.0,200.0,200.0,125.0,3,12.857121706008911,None,,,,,0,0,0,0,0,46,46,67,663.4559621810913,,,,,,,,,,,,,,,,,,,,,,,,,,,,,,,,,,,,,,,,,,,,,,,,,,,,,,,,,,,,,,,,,,,,,,,,,,,,,,,,,141.0,141.0,125.0,200.0,200.0,125.0,1.0,1.1,-746,283,-480,276,-222,264,663.4433116912842,663.4434132575989,663.4465074539185,663.4559621810913,663.6094360351562,663.6094360351562,663.6094360351562,663.6094360351562,663.6094360351562,663.6094360351562,663.6094360351562,676.3289904594421,3,12.857121706008911,None,,,,,,,,,,,,,,,,,,64,6,2025-02-19_16h56.05.335,comp,2024.2.4,None,2025-02-19 16h56.16.335114 -0500,
47,47,0,filler_square,None,None,None,None,None,None,None,None,None,None,2,5.304771184921265,None,,,,,0,0,0,0,0,47,47,208,676.3443524837494,,,,,,,,,,,,,,,,,,,,,,,,,,,,,,,,,,,,,,,,,,,,,,,,,,,,,,,,,,,,,,,,,,,,,,,,,,,,,,,,,57.66045046498755,62.35615722913493,65.17573986569025,65.17573986569025,57.40197798171889,61.24746425752535,2.1,2.11,-160,258,0,286,159,-257,676.3307373523712,676.3308141231537,676.3340973854065,676.3443524837494,676.4822878837585,676.4822878837585,676.4822878837585,676.4822878837585,676.4822878837585,676.4822878837585,676.4822878837585,681.6515591144562,2,5.304771184921265,None,,,,,,,,,,,,,,,,,,64,6,2025-02-19_16h56.05.335,comp,2024.2.4,None,2025-02-19 16h56.16.335114 -0500,
48,48,0,critical,hwd,35.0,4.0,upper,200.0,125.0,125.0,200.0,127.0,127.0,2,8.456812143325806,None,,,,,0,0,0,0,0,48,48,101,681.6722068786621,,,,,,,,,,,,,,,,,,,,,,,,,,,,,,,,,,,,,,,,,,,,,,,,,,,,,,,,,,,,,,,,,,,,,,,,,,,,,,,,,200.0,125.0,125.0,200.0,127.0,127.0,4.0,4.2,-258,20,0,-266,260,-7,681.6535999774933,681.653680562973,681.6565427780151,681.6722068786621,681.8191363811493,681.8191363811493,681.8191363811493,681.8191363811493,681.8191363811493,681.8191363811493,681.8191363811493,690.1334185600281,2,8.456812143325806,None,,,,,,,,,,,,,,,,,,64,6,2025-02-19_16h56.05.335,comp,2024.2.4,None,2025-02-19 16h56.16.335114 -0500,
49,49,0,critical,hdw,35.0,2.1,lower,133.0,57.0,70.0,70.0,57.0,133.0,3,9.171566247940063,None,,,,,0,0,0,0,0,49,49,44,690.1493723392487,,,,,,,,,,,,,,,,,,,,,,,,,,,,,,,,,,,,,,,,,,,,,,,,,,,,,,,,,,,,,,,,,,,,,,,,,,,,,,,,,133.0,57.0,70.0,70.0,57.0,133.0,2.1,2.12,-160,-266,0,-274,198,284,690.1350183486938,690.1351079940796,690.1386125087738,690.1493723392487,690.2967011928558,690.2967011928558,690.2967011928558,690.2967011928558,690.2967011928558,690.2967011928558,690.2967011928558,699.3348209857941,3,9.171566247940063,None,,,,,,,,,,,,,,,,,,64,6,2025-02-19_16h56.05.335,comp,2024.2.4,None,2025-02-19 16h56.16.335114 -0500,
50,50,0,critical,dhw,35.0,4.0,upper,127.0,127.0,200.0,125.0,125.0,200.0,3,3.81042218208313,None,,,,,0,0,0,0,0,50,50,53,699.3505184650421,,,,,,,,,,,,,,,,,,,,,,,,,,,,,,,,,,,,,,,,,,,,,,,,,,,,,,,,,,,,,,,,,,,,,,,,,,,,,,,,,127.0,127.0,200.0,125.0,125.0,200.0,4.0,4.1,-222,-254,0,6,258,-288,699.3364551067352,699.3365695476532,699.3399119377136,699.3505184650421,699.4929618835449,699.4929618835449,699.4929618835449,699.4929618835449,699.4929618835449,699.4929618835449,699.4929618835449,703.170595407486,3,3.81042218208313,None,,,,,,,,,,,,,,,,,,64,6,2025-02-19_16h56.05.335,comp,2024.2.4,None,2025-02-19 16h56.16.335114 -0500,
51,51,0,critical,dhw,20.0,4.0,upper,141.0,141.0,200.0,125.0,125.0,200.0,3,2.951876401901245,None,,,,,0,0,0,0,0,51,51,59,703.1852366924286,,,,,,,,,,,,,,,,,,,,,,,,,,,,,,,,,,,,,,,,,,,,,,,,,,,,,,,,,,,,,,,,,,,,,,,,,,,,,,,,,141.0,141.0,200.0,125.0,125.0,200.0,4.0,4.1,-229,-277,0,8,258,-284,703.1722137928009,703.1722915172577,703.175671339035,703.1852366924286,703.3347454071045,703.3347454071045,703.3347454071045,703.3347454071045,703.3347454071045,703.3347454071045,703.3347454071045,706.1425859928131,3,2.951876401901245,None,,,,,,,,,,,,,,,,,,64,6,2025-02-19_16h56.05.335,comp,2024.2.4,None,2025-02-19 16h56.16.335114 -0500,
52,52,0,critical,hwd,35.0,2.1,upper,200.0,125.0,125.0,200.0,127.0,127.0,1,14.429759740829468,None,,,,,0,0,0,0,0,52,52,41,706.1632821559906,,,,,,,,,,,,,,,,,,,,,,,,,,,,,,,,,,,,,,,,,,,,,,,,,,,,,,,,,,,,,,,,,,,,,,,,,,,,,,,,,200.0,125.0,125.0,200.0,127.0,127.0,2.1,2.12,-258,-282,0,-273,260,254,706.1441752910614,706.1442499160767,706.1475441455841,706.1632821559906,706.3046340942383,706.3046340942383,706.3046340942383,706.3046340942383,706.3046340942383,706.3046340942383,706.3046340942383,720.6089849472046,1,14.429759740829468,None,,,,,,,,,,,,,,,,,,64,6,2025-02-19_16h56.05.335,comp,2024.2.4,None,2025-02-19 16h56.16.335114 -0500,
53,53,0,filler_square,None,None,None,None,None,None,None,None,None,None,2,2.5093605518341064,None,,,,,0,0,0,0,0,53,53,179,720.6284468173981,,,,,,,,,,,,,,,,,,,,,,,,,,,,,,,,,,,,,,,,,,,,,,,,,,,,,,,,,,,,,,,,,,,,,,,,,,,,,,,,,146.8718182845122,57.23144617172334,165.95639980549765,165.95639980549765,105.21030298530283,66.48171909448804,2.2,2.22,-208,256,0,-281,212,-286,720.610771894455,720.6108500957489,720.6140036582947,720.6284468173981,720.7759802341461,720.7759802341461,720.7759802341461,720.7759802341461,720.7759802341461,720.7759802341461,720.7759802341461,723.1447381973267,2,2.5093605518341064,None,,,,,,,,,,,,,,,,,,64,6,2025-02-19_16h56.05.335,comp,2024.2.4,None,2025-02-19 16h56.16.335114 -0500,
54,54,0,filler_random,None,None,None,None,None,None,None,None,None,None,2,11.648823499679565,None,,,,,0,0,0,0,0,54,54,132,723.1608052253723,,,,,,,,,,,,,,,,,,,,,,,,,,,,,,,,,,,,,,,,,,,,,,,,,,,,,,,,,,,,,,,,,,,,,,,,,,,,,,,,,166.0379536970829,57.98126106863323,162.18828493827692,180.00684419840786,165.81545216971298,178.3515940864973,3.0,3.2,-215,-274,0,10,275,252,723.1463122367859,723.1464107036591,723.1496143341064,723.1608052253723,723.3115451335907,723.3115451335907,723.3115451335907,723.3115451335907,723.3115451335907,723.3115451335907,723.3115451335907,734.8130059242249,2,11.648823499679565,None,,,,,,,,,,,,,,,,,,64,6,2025-02-19_16h56.05.335,comp,2024.2.4,None,2025-02-19 16h56.16.335114 -0500,
55,55,0,filler_random,None,None,None,None,None,None,None,None,None,None,1,1.932117223739624,None,,,,,0,0,0,0,0,55,55,131,734.829482793808,,,,,,,,,,,,,,,,,,,,,,,,,,,,,,,,,,,,,,,,,,,,,,,,,,,,,,,,,,,,,,,,,,,,,,,,,,,,,,,,,101.09768717063548,196.4485349395596,70.82494149530844,116.16700977374572,86.70168143127121,80.41709366386345,3.0,3.2,-252,-257,0,12,194,250,734.814868927002,734.8149509429932,734.8179852962494,734.829482793808,734.9820239543915,734.9820239543915,734.9820239543915,734.9820239543915,734.9820239543915,734.9820239543915,734.9820239543915,736.7670838832855,1,1.932117223739624,None,,,,,,,,,,,,,,,,,,64,6,2025-02-19_16h56.05.335,comp,2024.2.4,None,2025-02-19 16h56.16.335114 -0500,
56,56,0,filler_random,None,None,None,None,None,None,None,None,None,None,3,2.23781681060791,None,,,,,0,0,0,0,0,56,56,151,736.7879178524017,,,,,,,,,,,,,,,,,,,,,,,,,,,,,,,,,,,,,,,,,,,,,,,,,,,,,,,,,,,,,,,,,,,,,,,,,,,,,,,,,70.8110295930484,70.10169386069815,121.74211618144885,80.4970326208067,192.63007304308007,165.10299829359556,3.0,3.1,-171,288,0,8,219,-277,736.7689116001129,736.7690331935883,736.772225856781,736.7879178524017,736.9383459091187,736.9383459091187,736.9383459091187,736.9383459091187,736.9383459091187,736.9383459091187,736.9383459091187,739.0310571193695,3,2.23781681060791,None,,,,,,,,,,,,,,,,,,64,6,2025-02-19_16h56.05.335,comp,2024.2.4,None,2025-02-19 16h56.16.335114 -0500,
57,57,0,critical,hwd,35.0,4.0,lower,133.0,57.0,57.0,133.0,70.0,70.0,2,7.537552356719971,None,,,,,0,0,0,0,0,57,57,100,739.047816991806,,,,,,,,,,,,,,,,,,,,,,,,,,,,,,,,,,,,,,,,,,,,,,,,,,,,,,,,,,,,,,,,,,,,,,,,,,,,,,,,,133.0,57.0,57.0,133.0,70.0,70.0,4.0,4.1,-191,-279,0,7,198,-271,739.0326609611511,739.0327384471893,739.0361604690552,739.047816991806,739.1984617710114,739.1984617710114,739.1984617710114,739.1984617710114,739.1984617710114,739.1984617710114,739.1984617710114,746.5878188610077,2,7.537552356719971,None,,,,,,,,,,,,,,,,,,64,6,2025-02-19_16h56.05.335,comp,2024.2.4,None,2025-02-19 16h56.16.335114 -0500,
58,58,0,critical,dwh,35.0,2.1,upper,127.0,127.0,125.0,200.0,200.0,125.0,2,15.69835877418518,None,,,,,0,0,0,0,0,58,58,29,746.6067852973938,,,,,,,,,,,,,,,,,,,,,,,,,,,,,,,,,,,,,,,,,,,,,,,,,,,,,,,,,,,,,,,,,,,,,,,,,,,,,,,,,127.0,127.0,125.0,200.0,200.0,125.0,2.1,2.12,-260,-287,0,-285,258,253,746.5896236896515,746.5897076129913,746.5925991535187,746.6067852973938,746.7509644031525,746.7509644031525,746.7509644031525,746.7509644031525,746.7509644031525,746.7509644031525,746.7509644031525,762.3224794864655,2,15.69835877418518,None,,,,,,,,,,,,,,,,,,64,6,2025-02-19_16h56.05.335,comp,2024.2.4,None,2025-02-19 16h56.16.335114 -0500,
59,59,0,filler_square,None,None,None,None,None,None,None,None,None,None,2,2.7352535724639893,None,,,,,0,0,0,0,0,59,59,202,762.338479757309,,,,,,,,,,,,,,,,,,,,,,,,,,,,,,,,,,,,,,,,,,,,,,,,,,,,,,,,,,,,,,,,,,,,,,,,,,,,,,,,,57.43382937604186,94.50301270790044,108.51755644267134,108.51755644267134,81.34494005650474,74.48589826836916,2.1,2.12,-198,-253,0,-286,188,266,762.324539899826,762.3246188163757,762.3280458450317,762.338479757309,762.4874951839447,762.4874951839447,762.4874951839447,762.4874951839447,762.4874951839447,762.4874951839447,762.4874951839447,765.0814599990845,2,2.7352535724639893,None,,,,,,,,,,,,,,,,,,64,6,2025-02-19_16h56.05.335,comp,2024.2.4,None,2025-02-19 16h56.16.335114 -0500,
60,60,0,filler_random,None,None,None,None,None,None,None,None,None,None,1,2.3043160438537598,None,,,,,0,0,0,0,0,60,60,137,765.097293138504,,,,,,,,,,,,,,,,,,,,,,,,,,,,,,,,,,,,,,,,,,,,,,,,,,,,,,,,,,,,,,,,,,,,,,,,,,,,,,,,,103.45556365268646,188.6274181760229,181.85811518953008,95.01531131159504,80.22348323940531,117.20677617292674,4.0,4.2,-238,-20,0,-255,202,18,765.0831685066223,765.0832657814026,765.0864455699921,765.097293138504,765.2398679256439,765.2398679256439,765.2398679256439,765.2398679256439,765.2398679256439,765.2398679256439,765.2398679256439,767.4066305160522,1,2.3043160438537598,None,,,,,,,,,,,,,,,,,,64,6,2025-02-19_16h56.05.335,comp,2024.2.4,None,2025-02-19 16h56.16.335114 -0500,
61,61,0,critical,dwh,35.0,3.0,lower,70.0,70.0,57.0,133.0,133.0,57.0,3,3.0283191204071045,None,,,,,0,0,0,0,0,61,61,62,767.4208300113678,,,,,,,,,,,,,,,,,,,,,,,,,,,,,,,,,,,,,,,,,,,,,,,,,,,,,,,,,,,,,,,,,,,,,,,,,,,,,,,,,70.0,70.0,57.0,133.0,133.0,57.0,3.0,3.1,-198,253,0,0,191,-261,767.4081692695618,767.4082472324371,767.411458492279,767.4208300113678,767.5764555931091,767.5764555931091,767.5764555931091,767.5764555931091,767.5764555931091,767.5764555931091,767.5764555931091,770.4584748744965,3,3.0283191204071045,None,,,,,,,,,,,,,,,,,,64,6,2025-02-19_16h56.05.335,comp,2024.2.4,None,2025-02-19 16h56.16.335114 -0500,
62,62,0,critical,hdw,35.0,1.0,upper,200.0,125.0,127.0,127.0,125.0,200.0,1,6.405899286270142,None,,,,,0,0,0,0,0,62,62,109,770.475147485733,,,,,,,,,,,,,,,,,,,,,,,,,,,,,,,,,,,,,,,,,,,,,,,,,,,,,,,,,,,,,,,,,,,,,,,,,,,,,,,,,200.0,125.0,127.0,127.0,125.0,200.0,1.0,1.2,-222,-10,0,10,260,19,770.4599945545197,770.4600772857666,770.4635181427002,770.475147485733,770.625293970108,770.625293970108,770.625293970108,770.625293970108,770.625293970108,770.625293970108,770.625293970108,776.8944828510284,1,6.405899286270142,None,,,,,,,,,,,,,,,,,,64,6,2025-02-19_16h56.05.335,comp,2024.2.4,None,2025-02-19 16h56.16.335114 -0500,
63,63,0,filler_square,None,None,None,None,None,None,None,None,None,None,3,2.329033613204956,None,,,,,0,0,0,0,0,63,63,188,776.9124393463135,,,,,,,,,,,,,,,,,,,,,,,,,,,,,,,,,,,,,,,,,,,,,,,,,,,,,,,,,,,,,,,,,,,,,,,,,,,,,,,,,140.22280339472198,70.51490902565814,104.25884736106057,80.65368601807053,154.3303866195385,154.3303866195385,2.2,2.22,-172,289,0,-260,213,-250,776.8962249755859,776.8963041305542,776.899320602417,776.9124393463135,777.0599527359009,777.0599527359009,777.0599527359009,777.0599527359009,777.0599527359009,777.0599527359009,777.0599527359009,779.243709564209,3,2.329033613204956,None,,,,,,,,,,,,,,,,,,64,6,2025-02-19_16h56.05.335,comp,2024.2.4,None,2025-02-19 16h56.16.335114 -0500,
64,64,0,catch,None,None,None,None,None,None,None,None,None,None,1,1.9455533027648926,None,,,,,0,0,0,0,0,64,64,125,779.2642419338226,,,,,,,,,,,,,,,,,,,,,,,,,,,,,,,,,,,,,,,,,,,,,,,,,,,,,,,,,,,,,,,,,,,,,,,,,,,,,,,,,163,162,127,63,117,73,1.0,1.2,-208,16,0,-3,164,17,779.2456169128418,779.2456991672516,779.2487268447876,779.2642419338226,779.410576581955,779.410576581955,779.410576581955,779.410576581955,779.410576581955,779.410576581955,779.410576581955,781.2151153087616,1,1.9455533027648926,None,,,,,,,,,,,,,,,,,,64,6,2025-02-19_16h56.05.335,comp,2024.2.4,None,2025-02-19 16h56.16.335114 -0500,
65,65,0,catch,None,None,None,None,None,None,None,None,None,None,3,1.8648266792297363,None,,,,,0,0,0,0,0,65,65,128,781.2322368621826,,,,,,,,,,,,,,,,,,,,,,,,,,,,,,,,,,,,,,,,,,,,,,,,,,,,,,,,,,,,,,,,,,,,,,,,,,,,,,,,,119,71,117,73,160,165,1.0,1.1,-648,272,-480,267,-265,279,781.2172677516937,781.2173464298248,781.2207305431366,781.2322368621826,781.3807759284973,781.3807759284973,781.3807759284973,781.3807759284973,781.3807759284973,781.3807759284973,781.3807759284973,783.1117782592773,3,1.8648266792297363,None,,,,,,,,,,,,,,,,,,64,6,2025-02-19_16h56.05.335,comp,2024.2.4,None,2025-02-19 16h56.16.335114 -0500,
66,66,0,filler_random,None,None,None,None,None,None,None,None,None,None,3,1.937239646911621,None,,,,,0,0,0,0,0,66,66,154,783.1279892921448,,,,,,,,,,,,,,,,,,,,,,,,,,,,,,,,,,,,,,,,,,,,,,,,,,,,,,,,,,,,,,,,,,,,,,,,,,,,,,,,,78.31333527268217,96.96765436682955,88.36395990034532,157.50113723348062,119.03091299945751,168.11727504902044,1.0,1.1,-703,255,-480,258,-221,284,783.1134743690491,783.1136000156403,783.1168065071106,783.1279892921448,783.2781910896301,783.2781910896301,783.2781910896301,783.2781910896301,783.2781910896301,783.2781910896301,783.2781910896301,785.0707778930664,3,1.937239646911621,None,,,,,,,,,,,,,,,,,,64,6,2025-02-19_16h56.05.335,comp,2024.2.4,None,2025-02-19 16h56.16.335114 -0500,
67,67,0,critical,whd,35.0,2.1,lower,57.0,133.0,133.0,57.0,70.0,70.0,2,2.5256683826446533,None,,,,,0,0,0,0,0,67,67,36,785.0914454460144,,,,,,,,,,,,,,,,,,,,,,,,,,,,,,,,,,,,,,,,,,,,,,,,,,,,,,,,,,,,,,,,,,,,,,,,,,,,,,,,,57.0,133.0,133.0,57.0,70.0,70.0,2.1,2.11,-191,280,0,275,160,-259,785.0723555088043,785.0724635124207,785.0756843090057,785.0914454460144,785.2303292751312,785.2303292751312,785.2303292751312,785.2303292751312,785.2303292751312,785.2303292751312,785.2303292751312,787.6298081874847,2,2.5256683826446533,None,,,,,,,,,,,,,,,,,,64,6,2025-02-19_16h56.05.335,comp,2024.2.4,None,2025-02-19 16h56.16.335114 -0500,
68,68,0,critical,whd,20.0,4.0,upper,125.0,200.0,200.0,125.0,141.0,141.0,1,4.012619495391846,None,,,,,0,0,0,0,0,68,68,95,787.6452503204346,,,,,,,,,,,,,,,,,,,,,,,,,,,,,,,,,,,,,,,,,,,,,,,,,,,,,,,,,,,,,,,,,,,,,,,,,,,,,,,,,125.0,200.0,200.0,125.0,141.0,141.0,4.0,4.2,-258,-16,0,-258,229,11,787.631409406662,787.6315009593964,787.6349301338196,787.6452503204346,787.798259973526,787.798259973526,787.798259973526,787.798259973526,787.798259973526,787.798259973526,787.798259973526,791.6668994426727,1,4.012619495391846,None,,,,,,,,,,,,,,,,,,64,6,2025-02-19_16h56.05.335,comp,2024.2.4,None,2025-02-19 16h56.16.335114 -0500,
69,69,0,critical,hdw,20.0,2.1,upper,200.0,125.0,141.0,141.0,125.0,200.0,1,2.9431569576263428,None,,,,,0,0,0,0,0,69,69,23,791.6826918125153,,,,,,,,,,,,,,,,,,,,,,,,,,,,,,,,,,,,,,,,,,,,,,,,,,,,,,,,,,,,,,,,,,,,,,,,,,,,,,,,,200.0,125.0,141.0,141.0,125.0,200.0,2.1,2.12,-229,-288,0,-255,266,260,791.668443441391,791.6685266494751,791.6719017028809,791.6826918125153,791.8368401527405,791.8368401527405,791.8368401527405,791.8368401527405,791.8368401527405,791.8368401527405,791.8368401527405,794.6329998970032,1,2.9431569576263428,None,,,,,,,,,,,,,,,,,,64,6,2025-02-19_16h56.05.335,comp,2024.2.4,None,2025-02-19 16h56.16.335114 -0500,
70,70,0,catch,None,None,None,None,None,None,None,None,None,None,1,1.5839898586273193,None,,,,,0,0,0,0,0,70,70,123,794.6491315364838,,,,,,,,,,,,,,,,,,,,,,,,,,,,,,,,,,,,,,,,,,,,,,,,,,,,,,,,,,,,,,,,,,,,,,,,,,,,,,,,,178,147,117,73,97,93,4.0,4.1,-206,-256,0,-17,179,-255,794.6349248886108,794.635003566742,794.6383793354034,794.6491315364838,794.7992389202118,794.7992389202118,794.7992389202118,794.7992389202118,794.7992389202118,794.7992389202118,794.7992389202118,796.2496385574341,1,1.5839898586273193,None,,,,,,,,,,,,,,,,,,64,6,2025-02-19_16h56.05.335,comp,2024.2.4,None,2025-02-19 16h56.16.335114 -0500,
71,71,0,filler_square,None,None,None,None,None,None,None,None,None,None,1,3.0400021076202393,None,,,,,0,0,0,0,0,71,71,171,796.2665116786957,,,,,,,,,,,,,,,,,,,,,,,,,,,,,,,,,,,,,,,,,,,,,,,,,,,,,,,,,,,,,,,,,,,,,,,,,,,,,,,,,198.89953200444515,198.89953200444515,190.82966177630095,76.00953094938717,95.10245831745618,87.90582121269824,3.0,3.2,-233,-279,0,-9,178,263,796.2517139911652,796.2517957687378,796.2552478313446,796.2665116786957,796.4152073860168,796.4152073860168,796.4152073860168,796.4152073860168,796.4152073860168,796.4152073860168,796.4152073860168,799.3232641220093,1,3.0400021076202393,None,,,,,,,,,,,,,,,,,,64,6,2025-02-19_16h56.05.335,comp,2024.2.4,None,2025-02-19 16h56.16.335114 -0500,
72,72,0,filler_square,None,None,None,None,None,None,None,None,None,None,3,3.398838520050049,None,,,,,0,0,0,0,0,72,72,195,799.3382711410522,,,,,,,,,,,,,,,,,,,,,,,,,,,,,,,,,,,,,,,,,,,,,,,,,,,,,,,,,,,,,,,,,,,,,,,,,,,,,,,,,90.29297086263696,72.6836613473289,103.556339314425,65.83442970571015,104.08827150365826,104.08827150365826,2.2,2.21,-165,-256,0,253,181,266,799.3251144886017,799.3251903057098,799.327995300293,799.3382711410522,799.4840574264526,799.4840574264526,799.4840574264526,799.4840574264526,799.4840574264526,799.4840574264526,799.4840574264526,802.7537763118744,3,3.398838520050049,None,,,,,,,,,,,,,,,,,,64,6,2025-02-19_16h56.05.335,comp,2024.2.4,None,2025-02-19 16h56.16.335114 -0500,
73,73,0,filler_square,None,None,None,None,None,None,None,None,None,None,3,2.0398752689361572,None,,,,,0,0,0,0,0,73,73,192,802.7698123455048,,,,,,,,,,,,,,,,,,,,,,,,,,,,,,,,,,,,,,,,,,,,,,,,,,,,,,,,,,,,,,,,,,,,,,,,,,,,,,,,,81.94690045748581,142.26117292655778,148.17351104499,65.23771757472484,166.1743420515706,166.1743420515706,2.1,2.12,-200,-280,0,-282,212,282,802.7557353973389,802.7558133602142,802.7595517635345,802.7698123455048,802.9221663475037,802.9221663475037,802.9221663475037,802.9221663475037,802.9221663475037,802.9221663475037,802.9221663475037,804.818639755249,3,2.0398752689361572,None,,,,,,,,,,,,,,,,,,64,6,2025-02-19_16h56.05.335,comp,2024.2.4,None,2025-02-19 16h56.16.335114 -0500,
74,74,0,filler_random,None,None,None,None,None,None,None,None,None,None,1,4.020189046859741,None,,,,,0,0,0,0,0,74,74,166,804.8369872570038,,,,,,,,,,,,,,,,,,,,,,,,,,,,,,,,,,,,,,,,,,,,,,,,,,,,,,,,,,,,,,,,,,,,,,,,,,,,,,,,,194.36695547683559,155.44200791555417,138.9887605247927,76.00998607669253,189.73278354124463,119.38161451108734,3.0,3.2,-212,-251,0,-8,194,288,804.8203430175781,804.820473909378,804.8237578868866,804.8369872570038,804.9868230819702,804.9868230819702,804.9868230819702,804.9868230819702,804.9868230819702,804.9868230819702,804.9868230819702,808.8706336021423,1,4.020189046859741,None,,,,,,,,,,,,,,,,,,64,6,2025-02-19_16h56.05.335,comp,2024.2.4,None,2025-02-19 16h56.16.335114 -0500,
75,75,0,filler_random,None,None,None,None,None,None,None,None,None,None,3,2.7381131649017334,None,,,,,0,0,0,0,0,75,75,169,808.8871176242828,,,,,,,,,,,,,,,,,,,,,,,,,,,,,,,,,,,,,,,,,,,,,,,,,,,,,,,,,,,,,,,,,,,,,,,,,,,,,,,,,185.12577655068546,114.23263866775928,83.47252504603783,148.96602472484443,142.8391470491381,176.56577159487944,1.0,1.2,-228,-5,0,14,259,-1,808.8725409507751,808.8726379871368,808.8760290145874,808.8871176242828,809.0374855995178,809.0374855995178,809.0374855995178,809.0374855995178,809.0374855995178,809.0374855995178,809.0374855995178,811.6357333660126,3,2.7381131649017334,None,,,,,,,,,,,,,,,,,,64,6,2025-02-19_16h56.05.335,comp,2024.2.4,None,2025-02-19 16h56.16.335114 -0500,
76,76,0,filler_random,None,None,None,None,None,None,None,None,None,None,3,5.172816753387451,None,,,,,0,0,0,0,0,76,76,134,811.6523199081421,,,,,,,,,,,,,,,,,,,,,,,,,,,,,,,,,,,,,,,,,,,,,,,,,,,,,,,,,,,,,,,,,,,,,,,,,,,,,,,,,111.67498771818438,176.5772297162705,71.65480689255588,164.0100592563645,185.68797961464466,111.86650567025565,2.1,2.11,-266,255,0,275,234,-283,811.6376597881317,811.6377382278442,811.6409332752228,811.6523199081421,811.7959630489349,811.7959630489349,811.7959630489349,811.7959630489349,811.7959630489349,811.7959630489349,811.7959630489349,816.8412942886353,3,5.172816753387451,None,,,,,,,,,,,,,,,,,,64,6,2025-02-19_16h56.05.335,comp,2024.2.4,None,2025-02-19 16h56.16.335114 -0500,
77,77,0,critical,wdh,35.0,4.0,lower,57.0,133.0,70.0,70.0,133.0,57.0,3,4.651342391967773,None,,,,,0,0,0,0,0,77,77,76,816.8617558479309,,,,,,,,,,,,,,,,,,,,,,,,,,,,,,,,,,,,,,,,,,,,,,,,,,,,,,,,,,,,,,,,,,,,,,,,,,,,,,,,,57.0,133.0,70.0,70.0,133.0,57.0,4.0,4.2,-198,-18,0,-281,160,14,816.8430020809174,816.8430848121643,816.8460032939911,816.8617558479309,817.0059468746185,817.0059468746185,817.0059468746185,817.0059468746185,817.0059468746185,817.0059468746185,817.0059468746185,821.523588180542,3,4.651342391967773,None,,,,,,,,,,,,,,,,,,64,6,2025-02-19_16h56.05.335,comp,2024.2.4,None,2025-02-19 16h56.16.335114 -0500,
78,78,0,catch,None,None,None,None,None,None,None,None,None,None,3,4.898355007171631,None,,,,,0,0,0,0,0,78,78,121,821.5434913635254,,,,,,,,,,,,,,,,,,,,,,,,,,,,,,,,,,,,,,,,,,,,,,,,,,,,,,,,,,,,,,,,,,,,,,,,,,,,,,,,,117,73,132,58,163,162,2.1,2.11,-162,264,0,279,206,-281,821.5257604122162,821.5258424282074,821.5290794372559,821.5434913635254,821.6909606456757,821.6909606456757,821.6909606456757,821.6909606456757,821.6909606456757,821.6909606456757,821.6909606456757,826.4449591636658,3,4.898355007171631,None,,,,,,,,,,,,,,,,,,64,6,2025-02-19_16h56.05.335,comp,2024.2.4,None,2025-02-19 16h56.16.335114 -0500,
79,79,0,filler_random,None,None,None,None,None,None,None,None,None,None,3,9.37925386428833,None,,,,,0,0,0,0,0,79,79,153,826.4620370864868,,,,,,,,,,,,,,,,,,,,,,,,,,,,,,,,,,,,,,,,,,,,,,,,,,,,,,,,,,,,,,,,,,,,,,,,,,,,,,,,,73.2662597301057,156.88642753072824,169.71742498330028,167.59955480286033,175.772339943904,134.13134262024283,4.0,4.1,-258,-284,0,-6,247,-282,826.4468257427216,826.4469029903412,826.4505436420441,826.4620370864868,826.6053402423859,826.6053402423859,826.6053402423859,826.6053402423859,826.6053402423859,826.6053402423859,826.6053402423859,835.8458869457245,3,9.37925386428833,None,,,,,,,,,,,,,,,,,,64,6,2025-02-19_16h56.05.335,comp,2024.2.4,None,2025-02-19 16h56.16.335114 -0500,
80,80,0,filler_square,None,None,None,None,None,None,None,None,None,None,2,10.818698167800903,None,,,,,0,0,0,0,0,80,80,191,835.8632235527039,,,,,,,,,,,,,,,,,,,,,,,,,,,,,,,,,,,,,,,,,,,,,,,,,,,,,,,,,,,,,,,,,,,,,,,,,,,,,,,,,67.98317041498667,67.98317041498667,64.23941751230912,57.24079407980184,60.7676609109522,58.04113386550498,2.2,2.21,-159,-269,0,250,154,258,835.8478517532349,835.8479325771332,835.8513445854187,835.8632235527039,836.0004143714905,836.0004143714905,836.0004143714905,836.0004143714905,836.0004143714905,836.0004143714905,836.0004143714905,846.6869103908539,2,10.818698167800903,None,,,,,,,,,,,,,,,,,,64,6,2025-02-19_16h56.05.335,comp,2024.2.4,None,2025-02-19 16h56.16.335114 -0500,
81,81,0,critical,wdh,20.0,3.0,lower,57.0,133.0,78.0,78.0,133.0,57.0,1,3.434199333190918,None,,,,,0,0,0,0,0,81,81,80,846.7029631137848,,,,,,,,,,,,,,,,,,,,,,,,,,,,,,,,,,,,,,,,,,,,,,,,,,,,,,,,,,,,,,,,,,,,,,,,,,,,,,,,,57.0,133.0,78.0,78.0,133.0,57.0,3.0,3.2,-202,-264,0,4,164,257,846.6884758472443,846.6885595321655,846.6914246082306,846.7029631137848,846.8485953807831,846.8485953807831,846.8485953807831,846.8485953807831,846.8485953807831,846.8485953807831,846.8485953807831,850.150327205658,1,3.434199333190918,None,,,,,,,,,,,,,,,,,,64,6,2025-02-19_16h56.05.335,comp,2024.2.4,None,2025-02-19 16h56.16.335114 -0500,
82,82,0,critical,wdh,35.0,2.1,upper,125.0,200.0,127.0,127.0,200.0,125.0,3,9.971810340881348,None,,,,,0,0,0,0,0,82,82,9,850.165374994278,,,,,,,,,,,,,,,,,,,,,,,,,,,,,,,,,,,,,,,,,,,,,,,,,,,,,,,,,,,,,,,,,,,,,,,,,,,,,,,,,125.0,200.0,127.0,127.0,200.0,125.0,2.1,2.11,-260,268,0,258,222,-266,850.1518609523773,850.1519360542297,850.1551098823547,850.165374994278,850.3170874118805,850.3170874118805,850.3170874118805,850.3170874118805,850.3170874118805,850.3170874118805,850.3170874118805,860.1532385349274,3,9.971810340881348,None,,,,,,,,,,,,,,,,,,64,6,2025-02-19_16h56.05.335,comp,2024.2.4,None,2025-02-19 16h56.16.335114 -0500,
83,83,0,critical,dwh,20.0,3.0,lower,78.0,78.0,57.0,133.0,133.0,57.0,2,5.113312721252441,None,,,,,0,0,0,0,0,83,83,68,860.168375492096,,,,,,,,,,,,,,,,,,,,,,,,,,,,,,,,,,,,,,,,,,,,,,,,,,,,,,,,,,,,,,,,,,,,,,,,,,,,,,,,,78.0,78.0,57.0,133.0,133.0,57.0,3.0,3.2,-202,-258,0,-13,191,251,860.1547877788544,860.1548624038696,860.1579847335815,860.168375492096,860.3202893733978,860.3202893733978,860.3202893733978,860.3202893733978,860.3202893733978,860.3202893733978,860.3202893733978,865.2892565727234,2,5.113312721252441,None,,,,,,,,,,,,,,,,,,64,6,2025-02-19_16h56.05.335,comp,2024.2.4,None,2025-02-19 16h56.16.335114 -0500,
84,84,0,filler_random,None,None,None,None,None,None,None,None,None,None,1,9.46489429473877,None,,,,,0,0,0,0,0,84,84,148,865.3050932884216,,,,,,,,,,,,,,,,,,,,,,,,,,,,,,,,,,,,,,,,,,,,,,,,,,,,,,,,,,,,,,,,,,,,,,,,,,,,,,,,,138.79640798900414,173.97350360368742,104.02459886201923,195.02867551465235,69.96712108446899,89.89915030395031,1.0,1.1,-761,273,-480,262,-242,285,865.2909965515137,865.2910771369934,865.2943735122681,865.3050932884216,865.4541079998016,865.4541079998016,865.4541079998016,865.4541079998016,865.4541079998016,865.4541079998016,865.4541079998016,874.7745680809021,1,9.46489429473877,None,,,,,,,,,,,,,,,,,,64,6,2025-02-19_16h56.05.335,comp,2024.2.4,None,2025-02-19 16h56.16.335114 -0500,
85,85,0,filler_square,None,None,None,None,None,None,None,None,None,None,2,2.0745184421539307,None,,,,,0,0,0,0,0,85,85,182,874.790905714035,,,,,,,,,,,,,,,,,,,,,,,,,,,,,,,,,,,,,,,,,,,,,,,,,,,,,,,,,,,,,,,,,,,,,,,,,,,,,,,,,76.62077226364178,59.14149565878426,121.31920147223606,121.31920147223606,68.93021435223295,57.286332492610164,2.2,2.22,-186,254,0,-264,185,-277,874.7764444351196,874.776526927948,874.7798111438751,874.790905714035,874.9400472640991,874.9400472640991,874.9400472640991,874.9400472640991,874.9400472640991,874.9400472640991,874.9400472640991,876.8678705692291,2,2.0745184421539307,None,,,,,,,,,,,,,,,,,,64,6,2025-02-19_16h56.05.335,comp,2024.2.4,None,2025-02-19 16h56.16.335114 -0500,
86,86,0,critical,whd,20.0,4.0,lower,57.0,133.0,133.0,57.0,78.0,78.0,2,3.5572996139526367,None,,,,,0,0,0,0,0,86,86,94,876.8845856189728,,,,,,,,,,,,,,,,,,,,,,,,,,,,,,,,,,,,,,,,,,,,,,,,,,,,,,,,,,,,,,,,,,,,,,,,,,,,,,,,,57.0,133.0,133.0,57.0,78.0,78.0,4.0,4.1,-191,-257,0,-13,164,-252,876.8695118427277,876.869589805603,876.872838973999,876.8845856189728,877.0227575302124,877.0227575302124,877.0227575302124,877.0227575302124,877.0227575302124,877.0227575302124,877.0227575302124,880.4490225315094,2,3.5572996139526367,None,,,,,,,,,,,,,,,,,,64,6,2025-02-19_16h56.05.335,comp,2024.2.4,None,2025-02-19 16h56.16.335114 -0500,
87,87,0,filler_square,None,None,None,None,None,None,None,None,None,None,3,2.334702968597412,None,,,,,0,0,0,0,0,87,87,196,880.4667496681213,,,,,,,,,,,,,,,,,,,,,,,,,,,,,,,,,,,,,,,,,,,,,,,,,,,,,,,,,,,,,,,,,,,,,,,,,,,,,,,,,71.51176112079534,120.03620446746372,79.36147358908697,67.52482424819009,145.04777901470845,145.04777901470845,2.2,2.21,-190,-263,0,290,202,264,880.4508275985718,880.4509088993073,880.4537308216095,880.4667496681213,880.61034989357,880.61034989357,880.61034989357,880.61034989357,880.61034989357,880.61034989357,880.61034989357,882.8032817840576,3,2.334702968597412,None,,,,,,,,,,,,,,,,,,64,6,2025-02-19_16h56.05.335,comp,2024.2.4,None,2025-02-19 16h56.16.335114 -0500,
88,88,0,filler_random,None,None,None,None,None,None,None,None,None,None,2,2.1420583724975586,None,,,,,0,0,0,0,0,88,88,155,882.8194646835327,,,,,,,,,,,,,,,,,,,,,,,,,,,,,,,,,,,,,,,,,,,,,,,,,,,,,,,,,,,,,,,,,,,,,,,,,,,,,,,,,68.17720461955409,167.90134464687705,145.9802766067147,159.96933745301797,58.18134377279358,115.57847348028997,2.2,2.22,-260,284,0,-272,234,-273,882.8049647808075,882.8050413131714,882.8082439899445,882.8194646835327,882.9606444835663,882.9606444835663,882.9606444835663,882.9606444835663,882.9606444835663,882.9606444835663,882.9606444835663,884.9634926319122,2,2.1420583724975586,None,,,,,,,,,,,,,,,,,,64,6,2025-02-19_16h56.05.335,comp,2024.2.4,None,2025-02-19 16h56.16.335114 -0500,
89,89,0,filler_square,None,None,None,None,None,None,None,None,None,None,3,4.131619453430176,None,,,,,0,0,0,0,0,89,89,209,884.981618642807,,,,,,,,,,,,,,,,,,,,,,,,,,,,,,,,,,,,,,,,,,,,,,,,,,,,,,,,,,,,,,,,,,,,,,,,,,,,,,,,,65.57746780526016,73.70912861056564,67.0966233287176,69.15631351214992,82.01479024963771,82.01479024963771,1.0,1.2,-167,10,0,-8,172,-15,884.9653286933899,884.9655179977417,884.9685530662537,884.981618642807,885.1266393661499,885.1266393661499,885.1266393661499,885.1266393661499,885.1266393661499,885.1266393661499,885.1266393661499,889.1299586296082,3,4.131619453430176,None,,,,,,,,,,,,,,,,,,64,6,2025-02-19_16h56.05.335,comp,2024.2.4,None,2025-02-19 16h56.16.335114 -0500,
90,90,0,critical,hdw,35.0,3.0,lower,133.0,57.0,70.0,70.0,57.0,133.0,1,7.1327314376831055,None,,,,,0,0,0,0,0,90,90,110,889.1486768722534,,,,,,,,,,,,,,,,,,,,,,,,,,,,,,,,,,,,,,,,,,,,,,,,,,,,,,,,,,,,,,,,,,,,,,,,,,,,,,,,,133.0,57.0,70.0,70.0,57.0,133.0,3.0,3.2,-160,-286,0,-7,198,253,889.1313824653625,889.1314785480499,889.1346733570099,889.1486768722534,889.2965042591095,889.2965042591095,889.2965042591095,889.2965042591095,889.2965042591095,889.2965042591095,889.2965042591095,896.2975759506226,1,7.1327314376831055,None,,,,,,,,,,,,,,,,,,64,6,2025-02-19_16h56.05.335,comp,2024.2.4,None,2025-02-19 16h56.16.335114 -0500,
91,91,0,critical,hwd,20.0,1.0,upper,200.0,125.0,125.0,200.0,141.0,141.0,1,5.096243619918823,None,,,,,0,0,0,0,0,91,91,103,896.3135862350464,,,,,,,,,,,,,,,,,,,,,,,,,,,,,,,,,,,,,,,,,,,,,,,,,,,,,,,,,,,,,,,,,,,,,,,,,,,,,,,,,200.0,125.0,125.0,200.0,141.0,141.0,1.0,1.3,222,-279,480,-257,746,-254,896.2991082668304,896.2991847991943,896.302318572998,896.3135862350464,896.4640007019043,896.4640007019043,896.4640007019043,896.4640007019043,896.4640007019043,896.4640007019043,896.4640007019043,901.4183111190796,1,5.096243619918823,None,,,,,,,,,,,,,,,,,,64,6,2025-02-19_16h56.05.335,comp,2024.2.4,None,2025-02-19 16h56.16.335114 -0500,
92,92,0,filler_square,None,None,None,None,None,None,None,None,None,None,3,2.0221853256225586,None,,,,,0,0,0,0,0,92,92,176,901.4350488185883,,,,,,,,,,,,,,,,,,,,,,,,,,,,,,,,,,,,,,,,,,,,,,,,,,,,,,,,,,,,,,,,,,,,,,,,,,,,,,,,,59.431824746250946,69.43096073063742,78.28145886179956,137.6878641109003,161.57317531672408,161.57317531672408,4.0,4.2,-200,-5,0,-269,246,16,901.4205183982849,901.4206032752991,901.4242231845856,901.4350488185883,901.5843434333801,901.5843434333801,901.5843434333801,901.5843434333801,901.5843434333801,901.5843434333801,901.5843434333801,903.4667611122131,3,2.0221853256225586,None,,,,,,,,,,,,,,,,,,64,6,2025-02-19_16h56.05.335,comp,2024.2.4,None,2025-02-19 16h56.16.335114 -0500,
93,93,0,critical,hdw,20.0,3.0,lower,133.0,57.0,78.0,78.0,57.0,133.0,3,10.847566843032837,None,,,,,0,0,0,0,0,93,93,116,903.4822993278503,,,,,,,,,,,,,,,,,,,,,,,,,,,,,,,,,,,,,,,,,,,,,,,,,,,,,,,,,,,,,,,,,,,,,,,,,,,,,,,,,133.0,57.0,78.0,78.0,57.0,133.0,3.0,3.1,-164,257,0,20,202,-281,903.4682757854462,903.4683523178101,903.4716665744781,903.4822993278503,903.6337060928345,903.6337060928345,903.6337060928345,903.6337060928345,903.6337060928345,903.6337060928345,903.6337060928345,914.3369953632355,3,10.847566843032837,None,,,,,,,,,,,,,,,,,,64,6,2025-02-19_16h56.05.335,comp,2024.2.4,None,2025-02-19 16h56.16.335114 -0500,
94,94,0,filler_random,None,None,None,None,None,None,None,None,None,None,3,8.976325988769531,None,,,,,0,0,0,0,0,94,94,142,914.3529267311096,,,,,,,,,,,,,,,,,,,,,,,,,,,,,,,,,,,,,,,,,,,,,,,,,,,,,,,,,,,,,,,,,,,,,,,,,,,,,,,,,129.76600625586866,169.3487666317052,77.4846384090527,116.0961825813405,157.3802125792368,158.3466392557835,2.1,2.11,-239,251,0,269,233,-271,914.338719367981,914.3388004302979,914.342125415802,914.3529267311096,914.489946603775,914.489946603775,914.489946603775,914.489946603775,914.489946603775,914.489946603775,914.489946603775,923.3395898342133,3,8.976325988769531,None,,,,,,,,,,,,,,,,,,64,6,2025-02-19_16h56.05.335,comp,2024.2.4,None,2025-02-19 16h56.16.335114 -0500,
95,95,0,critical,whd,20.0,2.1,upper,125.0,200.0,200.0,125.0,141.0,141.0,2,13.646066188812256,None,,,,,0,0,0,0,0,95,95,39,923.3558070659637,,,,,,,,,,,,,,,,,,,,,,,,,,,,,,,,,,,,,,,,,,,,,,,,,,,,,,,,,,,,,,,,,,,,,,,,,,,,,,,,,125.0,200.0,200.0,125.0,141.0,141.0,2.1,2.11,-258,276,0,250,229,-256,923.3411250114441,923.3412034511566,923.3444683551788,923.3558070659637,923.4945492744446,923.4945492744446,923.4945492744446,923.4945492744446,923.4945492744446,923.4945492744446,923.4945492744446,937.0082957744598,2,13.646066188812256,None,,,,,,,,,,,,,,,,,,64,6,2025-02-19_16h56.05.335,comp,2024.2.4,None,2025-02-19 16h56.16.335114 -0500,
96,96,0,critical,hwd,20.0,2.1,lower,133.0,57.0,57.0,133.0,78.0,78.0,3,4.793350458145142,None,,,,,0,0,0,0,0,96,96,42,937.02419257164,,,,,,,,,,,,,,,,,,,,,,,,,,,,,,,,,,,,,,,,,,,,,,,,,,,,,,,,,,,,,,,,,,,,,,,,,,,,,,,,,133.0,57.0,57.0,133.0,78.0,78.0,2.1,2.12,-191,-264,0,-275,202,260,937.0099015235901,937.0099790096283,937.013174533844,937.02419257164,937.1638185977936,937.1638185977936,937.1638185977936,937.1638185977936,937.1638185977936,937.1638185977936,937.1638185977936,941.8302657604218,3,4.793350458145142,None,,,,,,,,,,,,,,,,,,64,6,2025-02-19_16h56.05.335,comp,2024.2.4,None,2025-02-19 16h56.16.335114 -0500,
97,97,0,filler_square,None,None,None,None,None,None,None,None,None,None,1,2.3710122108459473,None,,,,,0,0,0,0,0,97,97,180,941.8463025093079,,,,,,,,,,,,,,,,,,,,,,,,,,,,,,,,,,,,,,,,,,,,,,,,,,,,,,,,,,,,,,,,,,,,,,,,,,,,,,,,,178.40503167602031,178.40503167602031,95.60679482885013,105.20758731083961,145.6855399368178,132.63561520273151,2.1,2.12,-238,-254,0,-272,215,274,941.8321084976196,941.8321855068207,941.8351211547852,941.8463025093079,941.9978585243225,941.9978585243225,941.9978585243225,941.9978585243225,941.9978585243225,941.9978585243225,941.9978585243225,944.2322309017181,1,2.3710122108459473,None,,,,,,,,,,,,,,,,,,64,6,2025-02-19_16h56.05.335,comp,2024.2.4,None,2025-02-19 16h56.16.335114 -0500,
98,98,0,filler_random,None,None,None,None,None,None,None,None,None,None,1,1.4494757652282715,None,,,,,0,0,0,0,0,98,98,144,944.2482199668884,,,,,,,,,,,,,,,,,,,,,,,,,,,,,,,,,,,,,,,,,,,,,,,,,,,,,,,,,,,,,,,,,,,,,,,,,,,,,,,,,198.72324420761927,182.3634664044298,85.02396830193956,80.01343812515714,81.63549582250397,74.01835788780565,1.0,1.1,-707,279,-480,255,-307,269,944.2341032028198,944.234179019928,944.2379894256592,944.2482199668884,944.3970456123352,944.3970456123352,944.3970456123352,944.3970456123352,944.3970456123352,944.3970456123352,944.3970456123352,945.7183055877686,1,1.4494757652282715,None,,,,,,,,,,,,,,,,,,64,6,2025-02-19_16h56.05.335,comp,2024.2.4,None,2025-02-19 16h56.16.335114 -0500,
99,99,0,filler_random,None,None,None,None,None,None,None,None,None,None,2,9.1312894821167,None,,,,,0,0,0,0,0,99,99,145,945.7346613407135,,,,,,,,,,,,,,,,,,,,,,,,,,,,,,,,,,,,,,,,,,,,,,,,,,,,,,,,,,,,,,,,,,,,,,,,,,,,,,,,,126.64445578018523,82.6114597178553,158.40531697035112,152.96064629920744,178.51496648715028,124.0525228773591,4.0,4.1,-214,-265,0,-2,235,-276,945.7200818061829,945.720174074173,945.7234237194061,945.7346613407135,945.8834908008575,945.8834908008575,945.8834908008575,945.8834908008575,945.8834908008575,945.8834908008575,945.8834908008575,954.8823528289795,2,9.1312894821167,None,,,,,,,,,,,,,,,,,,64,6,2025-02-19_16h56.05.335,comp,2024.2.4,None,2025-02-19 16h56.16.335114 -0500,
100,100,0,critical,dwh,20.0,2.1,lower,78.0,78.0,57.0,133.0,133.0,57.0,3,16.92333483695984,None,,,,,0,0,0,0,0,100,100,30,954.9021244049072,,,,,,,,,,,,,,,,,,,,,,,,,,,,,,,,,,,,,,,,,,,,,,,,,,,,,,,,,,,,,,,,,,,,,,,,,,,,,,,,,78.0,78.0,57.0,133.0,133.0,57.0,2.1,2.11,-202,279,0,258,191,-253,954.8839650154114,954.8840398788452,954.8872997760773,954.9021244049072,955.0493710041046,955.0493710041046,955.0493710041046,955.0493710041046,955.0493710041046,955.0493710041046,955.0493710041046,971.8386499881744,3,16.92333483695984,None,,,,,,,,,,,,,,,,,,64,6,2025-02-19_16h56.05.335,comp,2024.2.4,None,2025-02-19 16h56.16.335114 -0500,
101,101,0,critical,hwd,35.0,1.0,lower,133.0,57.0,57.0,133.0,70.0,70.0,1,8.450222730636597,None,,,,,0,0,0,0,0,101,101,96,971.8551881313324,,,,,,,,,,,,,,,,,,,,,,,,,,,,,,,,,,,,,,,,,,,,,,,,,,,,,,,,,,,,,,,,,,,,,,,,,,,,,,,,,133.0,57.0,57.0,133.0,70.0,70.0,1.0,1.2,-191,19,0,-19,198,-12,971.8400757312775,971.8401498794556,971.8441064357758,971.8551881313324,972.003009557724,972.003009557724,972.003009557724,972.003009557724,972.003009557724,972.003009557724,972.003009557724,980.3078756332397,1,8.450222730636597,None,,,,,,,,,,,,,,,,,,64,6,2025-02-19_16h56.05.335,comp,2024.2.4,None,2025-02-19 16h56.16.335114 -0500,
102,102,0,critical,hwd,20.0,3.0,lower,133.0,57.0,57.0,133.0,78.0,78.0,2,3.461679697036743,None,,,,,0,0,0,0,0,102,102,104,980.3242456912994,,,,,,,,,,,,,,,,,,,,,,,,,,,,,,,,,,,,,,,,,,,,,,,,,,,,,,,,,,,,,,,,,,,,,,,,,,,,,,,,,133.0,57.0,57.0,133.0,78.0,78.0,3.0,3.2,-191,-286,0,-19,202,271,980.3094556331635,980.3095364570618,980.3135614395142,980.3242456912994,980.4730203151703,980.4730203151703,980.4730203151703,980.4730203151703,980.4730203151703,980.4730203151703,980.4730203151703,983.7922670841217,2,3.461679697036743,None,,,,,,,,,,,,,,,,,,64,6,2025-02-19_16h56.05.335,comp,2024.2.4,None,2025-02-19 16h56.16.335114 -0500,
103,103,0,critical,wdh,35.0,1.0,upper,125.0,200.0,127.0,127.0,200.0,125.0,3,8.321030855178833,None,,,,,0,0,0,0,0,103,103,73,983.8083236217499,,,,,,,,,,,,,,,,,,,,,,,,,,,,,,,,,,,,,,,,,,,,,,,,,,,,,,,,,,,,,,,,,,,,,,,,,,,,,,,,,125.0,200.0,127.0,127.0,200.0,125.0,1.0,1.3,220,-262,480,-266,702,-262,983.7939345836639,983.7940139770508,983.7974977493286,983.8083236217499,983.9583141803741,983.9583141803741,983.9583141803741,983.9583141803741,983.9583141803741,983.9583141803741,983.9583141803741,992.1445989608765,3,8.321030855178833,None,,,,,,,,,,,,,,,,,,64,6,2025-02-19_16h56.05.335,comp,2024.2.4,None,2025-02-19 16h56.16.335114 -0500,
104,104,0,filler_square,None,None,None,None,None,None,None,None,None,None,3,2.073092460632324,None,,,,,0,0,0,0,0,104,104,197,992.160329580307,,,,,,,,,,,,,,,,,,,,,,,,,,,,,,,,,,,,,,,,,,,,,,,,,,,,,,,,,,,,,,,,,,,,,,,,,,,,,,,,,69.61045485237412,116.66171674313254,114.70774727086001,118.66198073578046,139.0134460892284,139.0134460892284,2.2,2.22,-214,257,0,-265,225,-265,992.1465578079224,992.1466753482819,992.1499950885773,992.160329580307,992.3092992305756,992.3092992305756,992.3092992305756,992.3092992305756,992.3092992305756,992.3092992305756,992.3092992305756,994.2369472980499,3,2.073092460632324,None,,,,,,,,,,,,,,,,,,64,6,2025-02-19_16h56.05.335,comp,2024.2.4,None,2025-02-19 16h56.16.335114 -0500,
105,105,0,critical,whd,35.0,4.0,upper,125.0,200.0,200.0,125.0,127.0,127.0,1,2.8967299461364746,None,,,,,0,0,0,0,0,105,105,89,994.2574527263641,,,,,,,,,,,,,,,,,,,,,,,,,,,,,,,,,,,,,,,,,,,,,,,,,,,,,,,,,,,,,,,,,,,,,,,,,,,,,,,,,125.0,200.0,200.0,125.0,127.0,127.0,4.0,4.2,-258,18,0,-265,222,7,994.2386202812195,994.2386991977692,994.2419536113739,994.2574527263641,994.3924987316132,994.3924987316132,994.3924987316132,994.3924987316132,994.3924987316132,994.3924987316132,994.3924987316132,997.1598870754242,1,2.8967299461364746,None,,,,,,,,,,,,,,,,,,64,6,2025-02-19_16h56.05.335,comp,2024.2.4,None,2025-02-19 16h56.16.335114 -0500,
106,106,0,critical,hwd,35.0,2.1,lower,133.0,57.0,57.0,133.0,70.0,70.0,1,3.7455646991729736,None,,,,,0,0,0,0,0,106,106,40,997.176741361618,,,,,,,,,,,,,,,,,,,,,,,,,,,,,,,,,,,,,,,,,,,,,,,,,,,,,,,,,,,,,,,,,,,,,,,,,,,,,,,,,133.0,57.0,57.0,133.0,70.0,70.0,2.1,2.11,-191,274,0,260,198,-273,997.1615068912506,997.1615817546844,997.1648151874542,997.176741361618,997.3284635543823,997.3284635543823,997.3284635543823,997.3284635543823,997.3284635543823,997.3284635543823,997.3284635543823,1000.931051492691,1,3.7455646991729736,None,,,,,,,,,,,,,,,,,,64,6,2025-02-19_16h56.05.335,comp,2024.2.4,None,2025-02-19 16h56.16.335114 -0500,
107,107,0,filler_square,None,None,None,None,None,None,None,None,None,None,3,3.3114547729492188,None,,,,,0,0,0,0,0,107,107,186,1000.9468204975128,,,,,,,,,,,,,,,,,,,,,,,,,,,,,,,,,,,,,,,,,,,,,,,,,,,,,,,,,,,,,,,,,,,,,,,,,,,,,,,,,74.73227854893746,57.34029944463925,72.94899376945068,70.21016866847074,76.04026787102859,76.04026787102859,3.0,3.1,-160,253,0,2,169,-277,1000.932785987854,1000.9328646659851,1000.9359955787659,1000.9468204975128,1001.0876085758209,1001.0876085758209,1001.0876085758209,1001.0876085758209,1001.0876085758209,1001.0876085758209,1001.0876085758209,1004.2636337280273,3,3.3114547729492188,None,,,,,,,,,,,,,,,,,,64,6,2025-02-19_16h56.05.335,comp,2024.2.4,None,2025-02-19 16h56.16.335114 -0500,
108,108,0,filler_square,None,None,None,None,None,None,None,None,None,None,3,5.273961067199707,None,,,,,0,0,0,0,0,108,108,187,1004.2795391082764,,,,,,,,,,,,,,,,,,,,,,,,,,,,,,,,,,,,,,,,,,,,,,,,,,,,,,,,,,,,,,,,,,,,,,,,,,,,,,,,,64.10324565734503,83.66266147980704,83.27949739363943,70.98874116160484,85.98473535258354,85.98473535258354,3.0,3.2,-173,-262,0,5,174,285,1004.2654871940613,1004.2655696868896,1004.2687964439392,1004.2795391082764,1004.4317123889923,1004.4317123889923,1004.4317123889923,1004.4317123889923,1004.4317123889923,1004.4317123889923,1004.4317123889923,1009.5710270404816,3,5.273961067199707,None,,,,,,,,,,,,,,,,,,64,6,2025-02-19_16h56.05.335,comp,2024.2.4,None,2025-02-19 16h56.16.335114 -0500,
109,109,0,critical,dhw,20.0,1.0,lower,78.0,78.0,133.0,57.0,57.0,133.0,2,10.827882528305054,None,,,,,0,0,0,0,0,109,109,54,1009.5895929336548,,,,,,,,,,,,,,,,,,,,,,,,,,,,,,,,,,,,,,,,,,,,,,,,,,,,,,,,,,,,,,,,,,,,,,,,,,,,,,,,,78.0,78.0,133.0,57.0,57.0,133.0,1.0,1.3,316,-280,480,-287,671,-290,1009.5726599693298,1009.5727708339691,1009.575963973999,1009.5895929336548,1009.7337024211884,1009.7337024211884,1009.7337024211884,1009.7337024211884,1009.7337024211884,1009.7337024211884,1009.7337024211884,1020.4213306903839,2,10.827882528305054,None,,,,,,,,,,,,,,,,,,64,6,2025-02-19_16h56.05.335,comp,2024.2.4,None,2025-02-19 16h56.16.335114 -0500,
110,110,0,filler_square,None,None,None,None,None,None,None,None,None,None,1,2.3320953845977783,None,,,,,0,0,0,0,0,110,110,201,1020.4374868869781,,,,,,,,,,,,,,,,,,,,,,,,,,,,,,,,,,,,,,,,,,,,,,,,,,,,,,,,,,,,,,,,,,,,,,,,,,,,,,,,,106.6839685009113,106.6839685009113,99.31126760778108,65.6695370219024,57.239536166981885,99.62500282187514,2.2,2.21,-182,-269,0,250,179,275,1020.4231288433075,1020.4232401847839,1020.4262845516205,1020.4374868869781,1020.5865902900696,1020.5865902900696,1020.5865902900696,1020.5865902900696,1020.5865902900696,1020.5865902900696,1020.5865902900696,1022.774806022644,1,2.3320953845977783,None,,,,,,,,,,,,,,,,,,64,6,2025-02-19_16h56.05.335,comp,2024.2.4,None,2025-02-19 16h56.16.335114 -0500,
111,111,0,critical,wdh,35.0,4.0,upper,125.0,200.0,127.0,127.0,200.0,125.0,1,5.255042552947998,None,,,,,0,0,0,0,0,111,111,77,1022.7946989536285,,,,,,,,,,,,,,,,,,,,,,,,,,,,,,,,,,,,,,,,,,,,,,,,,,,,,,,,,,,,,,,,,,,,,,,,,,,,,,,,,125.0,200.0,127.0,127.0,200.0,125.0,4.0,4.2,-260,2,0,-280,222,-19,1022.7765727043152,1022.7767071723938,1022.7797977924347,1022.7946989536285,1022.9386258125305,1022.9386258125305,1022.9386258125305,1022.9386258125305,1022.9386258125305,1022.9386258125305,1022.9386258125305,1028.0599257946014,1,5.255042552947998,None,,,,,,,,,,,,,,,,,,64,6,2025-02-19_16h56.05.335,comp,2024.2.4,None,2025-02-19 16h56.16.335114 -0500,
112,112,0,critical,hdw,35.0,2.1,lower,133.0,57.0,70.0,70.0,57.0,133.0,1,4.158426761627197,None,,,,,0,0,0,0,0,112,112,20,1028.0750622749329,,,,,,,,,,,,,,,,,,,,,,,,,,,,,,,,,,,,,,,,,,,,,,,,,,,,,,,,,,,,,,,,,,,,,,,,,,,,,,,,,133.0,57.0,70.0,70.0,57.0,133.0,2.1,2.12,-160,-259,0,-253,198,283,1028.0615441799164,1028.0616204738617,1028.064419746399,1028.0750622749329,1028.222484111786,1028.222484111786,1028.222484111786,1028.222484111786,1028.222484111786,1028.222484111786,1028.222484111786,1032.2425315380096,1,4.158426761627197,None,,,,,,,,,,,,,,,,,,64,6,2025-02-19_16h56.05.335,comp,2024.2.4,None,2025-02-19 16h56.16.335114 -0500,
113,113,0,critical,wdh,35.0,1.0,lower,57.0,133.0,70.0,70.0,133.0,57.0,3,5.327295541763306,None,,,,,0,0,0,0,0,113,113,72,1032.2587790489197,,,,,,,,,,,,,,,,,,,,,,,,,,,,,,,,,,,,,,,,,,,,,,,,,,,,,,,,,,,,,,,,,,,,,,,,,,,,,,,,,57.0,133.0,70.0,70.0,133.0,57.0,1.0,1.3,282,-278,480,-270,640,-269,1032.244219303131,1032.2442972660065,1032.248102426529,1032.2587790489197,1032.4068892002106,1032.4068892002106,1032.4068892002106,1032.4068892002106,1032.4068892002106,1032.4068892002106,1032.4068892002106,1037.5912463665009,3,5.327295541763306,None,,,,,,,,,,,,,,,,,,64,6,2025-02-19_16h56.05.335,comp,2024.2.4,None,2025-02-19 16h56.16.335114 -0500,
114,114,0,filler_square,None,None,None,None,None,None,None,None,None,None,1,1.9297497272491455,None,,,,,0,0,0,0,0,114,114,207,1037.6159236431122,,,,,,,,,,,,,,,,,,,,,,,,,,,,,,,,,,,,,,,,,,,,,,,,,,,,,,,,,,,,,,,,,,,,,,,,,,,,,,,,,151.04186746289366,151.04186746289366,68.15454044091624,143.30667643372772,66.60717081168862,127.63231722068025,4.0,4.1,-243,-287,0,9,231,-284,1037.5929992198944,1037.593077659607,1037.5960087776184,1037.6159236431122,1037.759226322174,1037.759226322174,1037.759226322174,1037.759226322174,1037.759226322174,1037.759226322174,1037.759226322174,1039.5577869415283,1,1.9297497272491455,None,,,,,,,,,,,,,,,,,,64,6,2025-02-19_16h56.05.335,comp,2024.2.4,None,2025-02-19 16h56.16.335114 -0500,
115,115,0,critical,dwh,35.0,2.1,lower,70.0,70.0,57.0,133.0,133.0,57.0,3,2.475461006164551,None,,,,,0,0,0,0,0,115,115,4,1039.5740704536438,,,,,,,,,,,,,,,,,,,,,,,,,,,,,,,,,,,,,,,,,,,,,,,,,,,,,,,,,,,,,,,,,,,,,,,,,,,,,,,,,70.0,70.0,57.0,133.0,133.0,57.0,2.1,2.12,-198,-269,0,-273,191,278,1039.559373140335,1039.5594744682312,1039.5627222061157,1039.5740704536438,1039.7288672924042,1039.7288672924042,1039.7288672924042,1039.7288672924042,1039.7288672924042,1039.7288672924042,1039.7288672924042,1042.0615048408508,3,2.475461006164551,None,,,,,,,,,,,,,,,,,,64,6,2025-02-19_16h56.05.335,comp,2024.2.4,None,2025-02-19 16h56.16.335114 -0500,
116,116,0,critical,whd,35.0,2.1,upper,125.0,200.0,200.0,125.0,127.0,127.0,2,7.840308427810669,None,,,,,0,0,0,0,0,116,116,37,1042.0821104049683,,,,,,,,,,,,,,,,,,,,,,,,,,,,,,,,,,,,,,,,,,,,,,,,,,,,,,,,,,,,,,,,,,,,,,,,,,,,,,,,,125.0,200.0,200.0,125.0,127.0,127.0,2.1,2.12,-258,-288,0,-269,222,287,1042.0630314350128,1042.0631115436554,1042.0663549900055,1042.0821104049683,1042.2278997898102,1042.2278997898102,1042.2278997898102,1042.2278997898102,1042.2278997898102,1042.2278997898102,1042.2278997898102,1049.9387755393982,2,7.840308427810669,None,,,,,,,,,,,,,,,,,,64,6,2025-02-19_16h56.05.335,comp,2024.2.4,None,2025-02-19 16h56.16.335114 -0500,
117,117,0,filler_square,None,None,None,None,None,None,None,None,None,None,3,11.462904930114746,None,,,,,0,0,0,0,0,117,117,175,1049.9545950889587,,,,,,,,,,,,,,,,,,,,,,,,,,,,,,,,,,,,,,,,,,,,,,,,,,,,,,,,,,,,,,,,,,,,,,,,,,,,,,,,,87.00412143097684,103.17919479464332,104.61408471478983,104.61408471478983,103.06303935505213,99.68444445461341,3.0,3.1,-200,276,0,18,198,-254,1049.9405200481415,1049.940596818924,1049.9433810710907,1049.9545950889587,1050.0954163074493,1050.0954163074493,1050.0954163074493,1050.0954163074493,1050.0954163074493,1050.0954163074493,1050.0954163074493,1061.4330637454987,3,11.462904930114746,None,,,,,,,,,,,,,,,,,,64,6,2025-02-19_16h56.05.335,comp,2024.2.4,None,2025-02-19 16h56.16.335114 -0500,
118,118,0,critical,wdh,20.0,2.1,lower,57.0,133.0,78.0,78.0,133.0,57.0,3,3.506376028060913,None,,,,,0,0,0,0,0,118,118,34,1061.447205066681,,,,,,,,,,,,,,,,,,,,,,,,,,,,,,,,,,,,,,,,,,,,,,,,,,,,,,,,,,,,,,,,,,,,,,,,,,,,,,,,,57.0,133.0,78.0,78.0,133.0,57.0,2.1,2.11,-202,269,0,275,164,-267,1061.4335141181946,1061.4335460662842,1061.4343111515045,1061.447205066681,1061.5976705551147,1061.5976705551147,1061.5976705551147,1061.5976705551147,1061.5976705551147,1061.5976705551147,1061.5976705551147,1064.9682972431183,3,3.506376028060913,None,,,,,,,,,,,,,,,,,,64,6,2025-02-19_16h56.05.335,comp,2024.2.4,None,2025-02-19 16h56.16.335114 -0500,
119,119,0,filler_random,None,None,None,None,None,None,None,None,None,None,3,4.4824535846710205,None,,,,,0,0,0,0,0,119,119,147,1064.9834792613983,,,,,,,,,,,,,,,,,,,,,,,,,,,,,,,,,,,,,,,,,,,,,,,,,,,,,,,,,,,,,,,,,,,,,,,,,,,,,,,,,57.8184544548974,82.83406645034424,143.04256135526984,86.20785502510002,165.92370607202955,115.51130513102916,2.1,2.12,-181,-274,0,-258,197,282,1064.9699866771698,1064.970062494278,1064.9732387065887,1064.9834792613983,1065.1332592964172,1065.1332592964172,1065.1332592964172,1065.1332592964172,1065.1332592964172,1065.1332592964172,1065.1332592964172,1069.468198299408,3,4.4824535846710205,None,,,,,,,,,,,,,,,,,,64,6,2025-02-19_16h56.05.335,comp,2024.2.4,None,2025-02-19 16h56.16.335114 -0500,
120,120,0,critical,wdh,35.0,3.0,upper,125.0,200.0,127.0,127.0,200.0,125.0,1,3.1413166522979736,None,,,,,0,0,0,0,0,120,120,75,1069.48433303833,,,,,,,,,,,,,,,,,,,,,,,,,,,,,,,,,,,,,,,,,,,,,,,,,,,,,,,,,,,,,,,,,,,,,,,,,,,,,,,,,125.0,200.0,127.0,127.0,200.0,125.0,3.0,3.1,-260,274,0,11,222,-278,1069.4696950912476,1069.4697744846344,1069.4727313518524,1069.48433303833,1069.6359610557556,1069.6359610557556,1069.6359610557556,1069.6359610557556,1069.6359610557556,1069.6359610557556,1069.6359610557556,1072.6303088665009,1,3.1413166522979736,None,,,,,,,,,,,,,,,,,,64,6,2025-02-19_16h56.05.335,comp,2024.2.4,None,2025-02-19 16h56.16.335114 -0500,
121,121,0,critical,dhw,35.0,2.1,upper,127.0,127.0,200.0,125.0,125.0,200.0,3,2.7405385971069336,None,,,,,0,0,0,0,0,121,121,1,1072.645651102066,,,,,,,,,,,,,,,,,,,,,,,,,,,,,,,,,,,,,,,,,,,,,,,,,,,,,,,,,,,,,,,,,,,,,,,,,,,,,,,,,127.0,127.0,200.0,125.0,125.0,200.0,2.1,2.12,-222,-255,0,-262,258,263,1072.6318435668945,1072.631923675537,1072.6348011493683,1072.645651102066,1072.7874643802643,1072.7874643802643,1072.7874643802643,1072.7874643802643,1072.7874643802643,1072.7874643802643,1072.7874643802643,1075.4051003456116,3,2.7405385971069336,None,,,,,,,,,,,,,,,,,,64,6,2025-02-19_16h56.05.335,comp,2024.2.4,None,2025-02-19 16h56.16.335114 -0500,
122,122,0,critical,wdh,35.0,3.0,lower,57.0,133.0,70.0,70.0,133.0,57.0,1,4.9246251583099365,None,,,,,0,0,0,0,0,122,122,74,1075.4211056232452,,,,,,,,,,,,,,,,,,,,,,,,,,,,,,,,,,,,,,,,,,,,,,,,,,,,,,,,,,,,,,,,,,,,,,,,,,,,,,,,,57.0,133.0,70.0,70.0,133.0,57.0,3.0,3.2,-198,-255,0,-8,160,288,1075.406601190567,1075.4066779613495,1075.4108090400696,1075.4211056232452,1075.5707805156708,1075.5707805156708,1075.5707805156708,1075.5707805156708,1075.5707805156708,1075.5707805156708,1075.5707805156708,1080.3587136268616,1,4.9246251583099365,None,,,,,,,,,,,,,,,,,,64,6,2025-02-19_16h56.05.335,comp,2024.2.4,None,2025-02-19 16h56.16.335114 -0500,
123,123,0,critical,hwd,20.0,4.0,lower,133.0,57.0,57.0,133.0,78.0,78.0,2,7.650958061218262,None,,,,,0,0,0,0,0,123,123,106,1080.374541759491,,,,,,,,,,,,,,,,,,,,,,,,,,,,,,,,,,,,,,,,,,,,,,,,,,,,,,,,,,,,,,,,,,,,,,,,,,,,,,,,,133.0,57.0,57.0,133.0,78.0,78.0,4.0,4.2,-191,5,0,-287,202,11,1080.3605327606201,1080.3606317043304,1080.3641457557678,1080.374541759491,1080.5218455791473,1080.5218455791473,1080.5218455791473,1080.5218455791473,1080.5218455791473,1080.5218455791473,1080.5218455791473,1088.0410451889038,2,7.650958061218262,None,,,,,,,,,,,,,,,,,,64,6,2025-02-19_16h56.05.335,comp,2024.2.4,None,2025-02-19 16h56.16.335114 -0500,
124,124,0,catch,None,None,None,None,None,None,None,None,None,None,1,2.088531494140625,None,,,,,0,0,0,0,0,124,124,120,1088.0570986270905,,,,,,,,,,,,,,,,,,,,,,,,,,,,,,,,,,,,,,,,,,,,,,,,,,,,,,,,,,,,,,,,,,,,,,,,,,,,,,,,,189,136,130,60,100,90,2.1,2.12,-194,-274,0,-254,171,279,1088.0430238246918,1088.0431010723114,1088.046418428421,1088.0570986270905,1088.2048711776733,1088.2048711776733,1088.2048711776733,1088.2048711776733,1088.2048711776733,1088.2048711776733,1088.2048711776733,1090.16015958786,1,2.088531494140625,None,,,,,,,,,,,,,,,,,,64,6,2025-02-19_16h56.05.335,comp,2024.2.4,None,2025-02-19 16h56.16.335114 -0500,
125,125,0,filler_random,None,None,None,None,None,None,None,None,None,None,3,3.513768434524536,None,,,,,0,0,0,0,0,125,125,146,1090.1760654449463,,,,,,,,,,,,,,,,,,,,,,,,,,,,,,,,,,,,,,,,,,,,,,,,,,,,,,,,,,,,,,,,,,,,,,,,,,,,,,,,,100.58564289912309,99.02343665611758,161.5863102745926,184.89841493545487,193.92882730917353,190.69186323257452,2.2,2.21,-238,-276,0,251,284,264,1090.1618874073029,1090.1620082855225,1090.1653063297272,1090.1760654449463,1090.323909521103,1090.323909521103,1090.323909521103,1090.323909521103,1090.323909521103,1090.323909521103,1090.323909521103,1093.6924755573273,3,3.513768434524536,None,,,,,,,,,,,,,,,,,,64,6,2025-02-19_16h56.05.335,comp,2024.2.4,None,2025-02-19 16h56.16.335114 -0500,
126,126,0,critical,whd,35.0,1.0,upper,125.0,200.0,200.0,125.0,127.0,127.0,2,12.011255025863647,None,,,,,0,0,0,0,0,126,126,85,1093.7103176116943,,,,,,,,,,,,,,,,,,,,,,,,,,,,,,,,,,,,,,,,,,,,,,,,,,,,,,,,,,,,,,,,,,,,,,,,,,,,,,,,,125.0,200.0,200.0,125.0,127.0,127.0,1.0,1.2,-258,-19,0,-15,222,-8,1093.6939194202423,1093.693998336792,1093.696875333786,1093.7103176116943,1093.8606493473053,1093.8606493473053,1093.8606493473053,1093.8606493473053,1093.8606493473053,1093.8606493473053,1093.8606493473053,1105.7335216999054,2,12.011255025863647,None,,,,,,,,,,,,,,,,,,64,6,2025-02-19_16h56.05.335,comp,2024.2.4,None,2025-02-19 16h56.16.335114 -0500,
127,127,0,filler_random,None,None,None,None,None,None,None,None,None,None,1,6.773010969161987,None,,,,,0,0,0,0,0,127,127,130,1105.7489557266235,,,,,,,,,,,,,,,,,,,,,,,,,,,,,,,,,,,,,,,,,,,,,,,,,,,,,,,,,,,,,,,,,,,,,,,,,,,,,,,,,105.71148523980766,174.36804181192815,115.82248628770807,154.19966657121915,62.95296882867698,83.31609673352297,2.2,2.21,-260,-272,0,270,215,280,1105.735343694687,1105.735447883606,1105.7382411956787,1105.7489557266235,1105.8966493606567,1105.8966493606567,1105.8966493606567,1105.8966493606567,1105.8966493606567,1105.8966493606567,1105.8966493606567,1112.5310201644897,1,6.773010969161987,None,,,,,,,,,,,,,,,,,,64,6,2025-02-19_16h56.05.335,comp,2024.2.4,None,2025-02-19 16h56.16.335114 -0500,
128,128,0,filler_square,None,None,None,None,None,None,None,None,None,None,3,2.070561408996582,None,,,,,0,0,0,0,0,128,128,183,1112.5473515987396,,,,,,,,,,,,,,,,,,,,,,,,,,,,,,,,,,,,,,,,,,,,,,,,,,,,,,,,,,,,,,,,,,,,,,,,,,,,,,,,,115.77558172093231,117.38300348747076,110.06059947976874,58.31768107848034,129.82263109655383,129.82263109655383,4.0,4.2,-184,-6,0,-253,190,6,1112.5327155590057,1112.5327920913696,1112.5356676578522,1112.5473515987396,1112.686516046524,1112.686516046524,1112.686516046524,1112.686516046524,1112.686516046524,1112.686516046524,1112.686516046524,1114.6233518123627,3,2.070561408996582,None,,,,,,,,,,,,,,,,,,64,6,2025-02-19_16h56.05.335,comp,2024.2.4,None,2025-02-19 16h56.16.335114 -0500,
129,129,0,filler_square,None,None,None,None,None,None,None,None,None,None,2,3.0569441318511963,None,,,,,0,0,0,0,0,129,129,184,1114.6412522792816,,,,,,,,,,,,,,,,,,,,,,,,,,,,,,,,,,,,,,,,,,,,,,,,,,,,,,,,,,,,,,,,,,,,,,,,,,,,,,,,,69.57770394714555,62.74228627334457,72.61160635058934,72.61160635058934,59.54119462892199,70.39830854036457,2.2,2.22,-164,269,0,-264,168,-260,1114.625170469284,1114.6252501010895,1114.628133058548,1114.6412522792816,1114.783721446991,1114.783721446991,1114.783721446991,1114.783721446991,1114.783721446991,1114.783721446991,1114.783721446991,1117.7166652679443,2,3.0569441318511963,None,,,,,,,,,,,,,,,,,,64,6,2025-02-19_16h56.05.335,comp,2024.2.4,None,2025-02-19 16h56.16.335114 -0500,
130,130,0,critical,dwh,35.0,1.0,upper,127.0,127.0,125.0,200.0,200.0,125.0,3,4.926274538040161,None,,,,,0,0,0,0,0,130,130,61,1117.7314596176147,,,,,,,,,,,,,,,,,,,,,,,,,,,,,,,,,,,,,,,,,,,,,,,,,,,,,,,,,,,,,,,,,,,,,,,,,,,,,,,,,127.0,127.0,125.0,200.0,200.0,125.0,1.0,1.3,220,-281,480,-259,738,-255,1117.7181565761566,1117.7182331085205,1117.7210612297058,1117.7314596176147,1117.887125968933,1117.887125968933,1117.887125968933,1117.887125968933,1117.887125968933,1117.887125968933,1117.887125968933,1122.6689410209656,3,4.926274538040161,None,,,,,,,,,,,,,,,,,,64,6,2025-02-19_16h56.05.335,comp,2024.2.4,None,2025-02-19 16h56.16.335114 -0500,
131,131,0,critical,wdh,20.0,2.1,upper,125.0,200.0,141.0,141.0,200.0,125.0,1,5.66855263710022,None,,,,,0,0,0,0,0,131,131,35,1122.685560464859,,,,,,,,,,,,,,,,,,,,,,,,,,,,,,,,,,,,,,,,,,,,,,,,,,,,,,,,,,,,,,,,,,,,,,,,,,,,,,,,,125.0,200.0,141.0,141.0,200.0,125.0,2.1,2.12,-266,-276,0,-286,229,286,1122.670470714569,1122.670572757721,1122.6739797592163,1122.685560464859,1122.8350117206573,1122.8350117206573,1122.8350117206573,1122.8350117206573,1122.8350117206573,1122.8350117206573,1122.8350117206573,1128.3715734481812,1,5.66855263710022,None,,,,,,,,,,,,,,,,,,64,6,2025-02-19_16h56.05.335,comp,2024.2.4,None,2025-02-19 16h56.16.335114 -0500,
132,132,0,critical,hwd,35.0,2.1,lower,133.0,57.0,57.0,133.0,70.0,70.0,1,5.759660482406616,None,,,,,0,0,0,0,0,132,132,16,1128.3865149021149,,,,,,,,,,,,,,,,,,,,,,,,,,,,,,,,,,,,,,,,,,,,,,,,,,,,,,,,,,,,,,,,,,,,,,,,,,,,,,,,,133.0,57.0,57.0,133.0,70.0,70.0,2.1,2.11,-191,251,0,264,198,-264,1128.3730719089508,1128.3731472492218,1128.3763508796692,1128.3865149021149,1128.5359041690826,1128.5359041690826,1128.5359041690826,1128.5359041690826,1128.5359041690826,1128.5359041690826,1128.5359041690826,1134.1560986042023,1,5.759660482406616,None,,,,,,,,,,,,,,,,,,64,6,2025-02-19_16h56.05.335,comp,2024.2.4,None,2025-02-19 16h56.16.335114 -0500,
133,133,0,filler_random,None,None,None,None,None,None,None,None,None,None,2,3.1094958782196045,None,,,,,0,0,0,0,0,133,133,133,1134.1720621585846,,,,,,,,,,,,,,,,,,,,,,,,,,,,,,,,,,,,,,,,,,,,,,,,,,,,,,,,,,,,,,,,,,,,,,,,,,,,,,,,,62.047395227605314,84.77119328969634,181.26129290179182,143.61937981549022,146.2458431328891,124.9846713568869,4.0,4.2,-210,-2,0,-253,230,-8,1134.157806634903,1134.1579265594482,1134.1612749099731,1134.1720621585846,1134.3211224079132,1134.3211224079132,1134.3211224079132,1134.3211224079132,1134.3211224079132,1134.3211224079132,1134.3211224079132,1137.293752670288,2,3.1094958782196045,None,,,,,,,,,,,,,,,,,,64,6,2025-02-19_16h56.05.335,comp,2024.2.4,None,2025-02-19 16h56.16.335114 -0500,
134,134,0,filler_square,None,None,None,None,None,None,None,None,None,None,3,3.3372671604156494,None,,,,,0,0,0,0,0,134,134,190,1137.3122956752777,,,,,,,,,,,,,,,,,,,,,,,,,,,,,,,,,,,,,,,,,,,,,,,,,,,,,,,,,,,,,,,,,,,,,,,,,,,,,,,,,118.92273138428044,131.35904152340035,121.81247798276993,86.33638296483761,134.7419417249911,134.7419417249911,4.0,4.2,-205,16,0,-285,207,-20,1137.2957837581635,1137.2958636283875,1137.2990918159485,1137.3122956752777,1137.4614696502686,1137.4614696502686,1137.4614696502686,1137.4614696502686,1137.4614696502686,1137.4614696502686,1137.4614696502686,1140.661476612091,3,3.3372671604156494,None,,,,,,,,,,,,,,,,,,64,6,2025-02-19_16h56.05.335,comp,2024.2.4,None,2025-02-19 16h56.16.335114 -0500,
135,135,0,catch,None,None,None,None,None,None,None,None,None,None,3,1.9411351680755615,None,,,,,0,0,0,0,0,135,135,124,1140.677167892456,,,,,,,,,,,,,,,,,,,,,,,,,,,,,,,,,,,,,,,,,,,,,,,,,,,,,,,,,,,,,,,,,,,,,,,,,,,,,,,,,112,78,127,63,144,181,1.0,1.1,-646,284,-480,287,-262,256,1140.6635689735413,1140.6636567115784,1140.6665410995483,1140.677167892456,1140.8151750564575,1140.8151750564575,1140.8151750564575,1140.8151750564575,1140.8151750564575,1140.8151750564575,1140.8151750564575,1142.6273393630981,3,1.9411351680755615,None,,,,,,,,,,,,,,,,,,64,6,2025-02-19_16h56.05.335,comp,2024.2.4,None,2025-02-19 16h56.16.335114 -0500,
136,136,0,filler_random,None,None,None,None,None,None,None,None,None,None,2,5.151130437850952,None,,,,,0,0,0,0,0,136,136,143,1142.6430773735046,,,,,,,,,,,,,,,,,,,,,,,,,,,,,,,,,,,,,,,,,,,,,,,,,,,,,,,,,,,,,,,,,,,,,,,,,,,,,,,,,78.88999288610952,193.41557741555448,189.51502683334587,83.7680787212845,122.80428700974163,78.41605001676514,2.2,2.21,-235,-281,0,277,177,261,1142.629145860672,1142.629225730896,1142.6323857307434,1142.6430773735046,1142.7927732467651,1142.7927732467651,1142.7927732467651,1142.7927732467651,1142.7927732467651,1142.7927732467651,1142.7927732467651,1147.8000118732452,2,5.151130437850952,None,,,,,,,,,,,,,,,,,,64,6,2025-02-19_16h56.05.335,comp,2024.2.4,None,2025-02-19 16h56.16.335114 -0500,
137,137,0,critical,whd,35.0,2.1,lower,57.0,133.0,133.0,57.0,70.0,70.0,2,3.6903109550476074,None,,,,,0,0,0,0,0,137,137,12,1147.8158872127533,,,,,,,,,,,,,,,,,,,,,,,,,,,,,,,,,,,,,,,,,,,,,,,,,,,,,,,,,,,,,,,,,,,,,,,,,,,,,,,,,57.0,133.0,133.0,57.0,70.0,70.0,2.1,2.11,-191,286,0,287,160,-251,1147.8014886379242,1147.801566362381,1147.804345369339,1147.8158872127533,1147.9574937820435,1147.9574937820435,1147.9574937820435,1147.9574937820435,1147.9574937820435,1147.9574937820435,1147.9574937820435,1151.510366678238,2,3.6903109550476074,None,,,,,,,,,,,,,,,,,,64,6,2025-02-19_16h56.05.335,comp,2024.2.4,None,2025-02-19 16h56.16.335114 -0500,
138,138,0,critical,hwd,20.0,2.1,upper,200.0,125.0,125.0,200.0,141.0,141.0,2,16.463634967803955,None,,,,,0,0,0,0,0,138,138,43,1151.5304760932922,,,,,,,,,,,,,,,,,,,,,,,,,,,,,,,,,,,,,,,,,,,,,,,,,,,,,,,,,,,,,,,,,,,,,,,,,,,,,,,,,200.0,125.0,125.0,200.0,141.0,141.0,2.1,2.11,-258,274,0,257,266,-259,1151.511873960495,1151.5119516849518,1151.5149841308594,1151.5304760932922,1151.6775863170624,1151.6775863170624,1151.6775863170624,1151.6775863170624,1151.6775863170624,1151.6775863170624,1151.6775863170624,1168.000168800354,2,16.463634967803955,None,,,,,,,,,,,,,,,,,,64,6,2025-02-19_16h56.05.335,comp,2024.2.4,None,2025-02-19 16h56.16.335114 -0500,
139,139,0,filler_square,None,None,None,None,None,None,None,None,None,None,1,2.549506425857544,None,,,,,0,0,0,0,0,139,139,203,1168.0201494693756,,,,,,,,,,,,,,,,,,,,,,,,,,,,,,,,,,,,,,,,,,,,,,,,,,,,,,,,,,,,,,,,,,,,,,,,,,,,,,,,,195.92894581917227,195.92894581917227,110.2876618071559,95.39586952991449,61.96931868329501,75.22641837428397,3.0,3.2,-242,-281,0,8,181,272,1168.0023591518402,1168.002473115921,1168.0065813064575,1168.0201494693756,1168.1672744750977,1168.1672744750977,1168.1672744750977,1168.1672744750977,1168.1672744750977,1168.1672744750977,1168.1672744750977,1170.5833451747894,1,2.549506425857544,None,,,,,,,,,,,,,,,,,,64,6,2025-02-19_16h56.05.335,comp,2024.2.4,None,2025-02-19 16h56.16.335114 -0500,
140,140,0,filler_random,None,None,None,None,None,None,None,None,None,None,3,15.321621417999268,None,,,,,0,0,0,0,0,140,140,165,1170.600561618805,,,,,,,,,,,,,,,,,,,,,,,,,,,,,,,,,,,,,,,,,,,,,,,,,,,,,,,,,,,,,,,,,,,,,,,,,,,,,,,,,79.42918578385522,154.0829218639533,75.02011806980168,129.49302382590315,189.12397945297397,87.12745772442601,3.0,3.1,-238,285,0,-5,204,-270,1170.5849778652191,1170.5850539207458,1170.5880556106567,1170.600561618805,1170.7532761096954,1170.7532761096954,1170.7532761096954,1170.7532761096954,1170.7532761096954,1170.7532761096954,1170.7532761096954,1185.9268050193787,3,15.321621417999268,None,,,,,,,,,,,,,,,,,,64,6,2025-02-19_16h56.05.335,comp,2024.2.4,None,2025-02-19 16h56.16.335114 -0500,
141,141,0,critical,hdw,20.0,4.0,lower,133.0,57.0,78.0,78.0,57.0,133.0,2,4.370971918106079,None,,,,,0,0,0,0,0,141,141,118,1185.9434666633606,,,,,,,,,,,,,,,,,,,,,,,,,,,,,,,,,,,,,,,,,,,,,,,,,,,,,,,,,,,,,,,,,,,,,,,,,,,,,,,,,133.0,57.0,78.0,78.0,57.0,133.0,4.0,4.2,-164,-12,0,-257,202,-2,1185.9283547401428,1185.928462266922,1185.9317376613617,1185.9434666633606,1186.0880177021027,1186.0880177021027,1186.0880177021027,1186.0880177021027,1186.0880177021027,1186.0880177021027,1186.0880177021027,1190.3245532512665,2,4.370971918106079,None,,,,,,,,,,,,,,,,,,64,6,2025-02-19_16h56.05.335,comp,2024.2.4,None,2025-02-19 16h56.16.335114 -0500,
142,142,0,critical,wdh,20.0,3.0,upper,125.0,200.0,141.0,141.0,200.0,125.0,1,3.5895919799804688,None,,,,,0,0,0,0,0,142,142,81,1190.3400678634644,,,,,,,,,,,,,,,,,,,,,,,,,,,,,,,,,,,,,,,,,,,,,,,,,,,,,,,,,,,,,,,,,,,,,,,,,,,,,,,,,125.0,200.0,141.0,141.0,200.0,125.0,3.0,3.2,-266,-289,0,5,229,289,1190.3259766101837,1190.3260519504547,1190.3294551372528,1190.3400678634644,1190.4938943386078,1190.4938943386078,1190.4938943386078,1190.4938943386078,1190.4938943386078,1190.4938943386078,1190.4938943386078,1193.9396200180054,1,3.5895919799804688,None,,,,,,,,,,,,,,,,,,64,6,2025-02-19_16h56.05.335,comp,2024.2.4,None,2025-02-19 16h56.16.335114 -0500,
143,143,0,catch,None,None,None,None,None,None,None,None,None,None,1,1.7024173736572266,None,,,,,0,0,0,0,0,143,143,122,1193.9555459022522,,,,,,,,,,,,,,,,,,,,,,,,,,,,,,,,,,,,,,,,,,,,,,,,,,,,,,,,,,,,,,,,,,,,,,,,,,,,,,,,,161,164,70,120,122,68,2.2,2.21,-238,-251,0,285,190,261,1193.9415187835693,1193.9415957927704,1193.9445538520813,1193.9555459022522,1194.11345744133,1194.11345744133,1194.11345744133,1194.11345744133,1194.11345744133,1194.11345744133,1194.11345744133,1195.6747462749481,1,1.7024173736572266,None,,,,,,,,,,,,,,,,,,64,6,2025-02-19_16h56.05.335,comp,2024.2.4,None,2025-02-19 16h56.16.335114 -0500,
