thisN,thisTrialN,thisRepN,effect,order,distance,config,diag,h_1,w_1,h_2,w_2,h_3,w_3,rect_choice.keys,rect_choice.rt,rect_choice.duration,instructions_loop.thisRepN,instructions_loop.thisTrialN,instructions_loop.thisN,instructions_loop.thisIndex,blocks.thisRepN,blocks.thisTrialN,blocks.thisN,blocks.thisIndex,trials.thisRepN,trials.thisTrialN,trials.thisN,trials.thisIndex,thisRow.t,notes,consent.started,agree_button.started,decline_button.started,consent_img.started,mouse.started,consent.stopped,agree_button.numClicks,agree_button.timesOn,agree_button.timesOff,decline_button.numClicks,decline_button.timesOn,decline_button.timesOff,mouse.x,mouse.y,mouse.leftButton,mouse.midButton,mouse.rightButton,mouse.time,mouse.clicked_name,exp_params.started,exp_params.stopped,welcome.started,welcome_text.started,welcome.stopped,instructions_1.started,instructions_1_text_1.started,instructions_1_text_2.started,key_resp.started,instructions_1.stopped,instructions_loop.key_resp.keys,instructions_loop.key_resp.rt,instructions_loop.key_resp.duration,instructions_2.started,instructions_2_text_1.started,instructions_2_text_2.started,key_resp_2.started,instructions_2.stopped,instructions_loop.key_resp_2.keys,instructions_loop.key_resp_2.rt,instructions_loop.key_resp_2.duration,instructions_3.started,instructions_3_text_1.started,r1_instr3.started,r2_instr3.started,r3_instr3.started,r1_instr3_label.started,r2_instr3_label.started,r3_instr3_label.started,instructions_3_text_3.started,instructions_3_text_4.started,key_resp_3.started,instructions_3.stopped,instructions_loop.key_resp_3.keys,instructions_loop.key_resp_3.rt,instructions_loop.key_resp_3.duration,instructions_4.started,instructions_4_text_1.started,instructions_4_text_3.started,instructions_4_text_2.started,key_resp_4.started,instructions_4.stopped,instructions_loop.key_resp_4.keys,instructions_loop.key_resp_4.rt,instructions_loop.key_resp_4.duration,instructions_5.started,instructions_5_text_1.started,instructions_5_text_2.started,key_resp_5.started,instructions_5.stopped,instructions_loop.key_resp_5.keys,instructions_loop.key_resp_5.rt,instructions_loop.key_resp_5.duration,start_exp.started,start_exp_text.started,key_resp_6.started,start_exp.stopped,key_resp_6.keys,key_resp_6.rt,key_resp_6.duration,h_1_tmp,w_1_tmp,h_2_tmp,w_2_tmp,h_3_tmp,w_3_tmp,config_tmp,config_tmp_1,r_1_x,r_1_y,r_2_x,r_2_y,r_3_x,r_3_y,pre_trial.started,pre_trial.stopped,choice_trial.started,rect_choice.started,r_1.started,r_2.started,r_3.started,r_1_label.started,r_2_label.started,r_3_label.started,prompt.started,choice_trial.stopped,trials.rect_choice.keys,trials.rect_choice.rt,trials.rect_choice.duration,end_block.started,end_block_text.started,end_block.stopped,end.started,end_text.started,key_resp_7.started,end.stopped,key_resp_7.keys,key_resp_7.rt,key_resp_7.duration,debriefing.started,debrief_form.started,end_debrief.started,debriefing.stopped,end_debrief.keys,end_debrief.rt,end_debrief.duration,participant,computer,date,expName,psychopyVersion,frameRate,expStart,
,,,,,,,,,,,,,,,,,,,,,,,,,,,,,,,0.014906644821166992,0.034796953201293945,0.034796953201293945,0.034796953201293945,0.014718294143676758,33.94323706626892,1,[33.906137228012085],[33.90615653991699],0,,,[-59.0],[-506.0],[1],[0],[0],[33.927958965301514],['agree_button'],,,,,,,,,,,,,,,,,,,,,,,,,,,,,,,,,,,,,,,,,,,,,,,,,,,,,,,,,,,,,,,,,,,,,,,,,,,,,,,,,,,,,,,,,,,,,,,,,,,,,,,,,,,65,1,2025-02-21_09h40.26.395,comp,2024.2.4,54.09464457983606,2025-02-21 09h47.09.090431 -0500,
,,,,,,,,,,,,,,,,,,,,,,,,,,,,,,,,,,,,,,,,,,,,,,,,,,33.94422459602356,33.94428467750549,,,,,,,,,,,,,,,,,,,,,,,,,,,,,,,,,,,,,,,,,,,,,,,,,,,,,,,,,,,,,,,,,,,,,,,,,,,,,,,,,,,,,,,,,,,,,,,,,,,,,,,,,65,1,2025-02-21_09h40.26.395,comp,2024.2.4,54.09464457983606,2025-02-21 09h47.09.090431 -0500,
,,,,,,,,,,,,,,,,,,,,,,,,,,,,,,,,,,,,,,,,,,,,,,,,,,,,33.94432210922241,33.95668387413025,35.94511675834656,,,,,,,,,,,,,,,,,,,,,,,,,,,,,,,,,,,,,,,,,,,,,,,,,,,,,,,,,,,,,,,,,,,,,,,,,,,,,,,,,,,,,,,,,,,,,,,,,,,,,,65,1,2025-02-21_09h40.26.395,comp,2024.2.4,54.09464457983606,2025-02-21 09h47.09.090431 -0500,
0,0,0,,,,,,,,,,,,,,,0,0,0,0,,,,,,,,,35.96228766441345,,,,,,,,,,,,,,,,,,,,,,,,,,35.946085691452026,35.96228766441345,35.96228766441345,37.459359645843506,39.334203243255615,space,1.8578596115112305,None,39.33435583114624,39.3494176864624,39.3494176864624,40.849069118499756,51.00420832633972,space,10.132471561431885,None,51.00436329841614,51.03754258155823,51.03754258155823,51.03754258155823,51.03754258155823,51.03754258155823,51.03754258155823,51.03754258155823,51.03754258155823,51.03754258155823,52.51656174659729,61.355626583099365,space,8.83363389968872,None,61.35581851005554,61.373899936676025,61.373899936676025,61.373899936676025,62.869576930999756,68.92306303977966,space,6.039731025695801,None,68.92320942878723,68.93852305412292,68.93852305412292,70.42052364349365,71.30699038505554,space,0.8726387023925781,None,71.30718302726746,71.32327938079834,71.32327938079834,73.17441153526306,space,1.8341443538665771,None,,,,,,,,,,,,,,,,,,,,,,,,,,,,,,,,,,,,,,,,,,,,,,,65,1,2025-02-21_09h40.26.395,comp,2024.2.4,54.09464457983606,2025-02-21 09h47.09.090431 -0500,
0,0,0,critical,wdh,20.0,2.1,upper,125.0,200.0,141.0,141.0,200.0,125.0,3,50.84233117103577,None,,,,,0,0,0,0,0,0,0,11,73.25112819671631,,,,,,,,,,,,,,,,,,,,,,,,,,,,,,,,,,,,,,,,,,,,,,,,,,,,,,,,,,,,,,,,,,,,,,,,,,,,,,,,,125.0,200.0,141.0,141.0,200.0,125.0,2.1,2.12,-266,-284,0,-265,229,270,73.23595476150513,73.23600602149963,73.2378761768341,73.25112819671631,73.39597082138062,73.39597082138062,73.39597082138062,73.39597082138062,73.39597082138062,73.39597082138062,73.39597082138062,124.10676217079163,3,50.84233117103577,None,,,,,,,,,,,,,,,,,,65,1,2025-02-21_09h40.26.395,comp,2024.2.4,54.09464457983606,2025-02-21 09h47.09.090431 -0500,
1,1,0,filler_square,None,None,None,None,None,None,None,None,None,None,3,46.09757471084595,None,,,,,0,0,0,0,0,1,1,199,124.12379264831543,,,,,,,,,,,,,,,,,,,,,,,,,,,,,,,,,,,,,,,,,,,,,,,,,,,,,,,,,,,,,,,,,,,,,,,,,,,,,,,,,57.60437356271338,57.60437356271338,57.322460530583214,57.29344352228141,57.43855722428774,57.55304243011388,1.0,1.2,-153,15,0,7,153,16,124.1083254814148,124.1083734035492,124.11075639724731,124.12379264831543,124.255695104599,124.255695104599,124.255695104599,124.255695104599,124.255695104599,124.255695104599,124.255695104599,170.23600029945374,3,46.09757471084595,None,,,,,,,,,,,,,,,,,,65,1,2025-02-21_09h40.26.395,comp,2024.2.4,54.09464457983606,2025-02-21 09h47.09.090431 -0500,
2,2,0,filler_random,None,None,None,None,None,None,None,None,None,None,1,32.36259746551514,None,,,,,0,0,0,0,0,2,2,147,170.2510061264038,,,,,,,,,,,,,,,,,,,,,,,,,,,,,,,,,,,,,,,,,,,,,,,,,,,,,,,,,,,,,,,,,,,,,,,,,,,,,,,,,131.137206968252,189.00878450677868,179.54175062187093,116.5178285207872,126.45608689546559,159.9275000092729,4.0,4.2,-249,-3,0,-280,234,-12,170.23830366134644,170.238361120224,170.2403862476349,170.2510061264038,170.38883566856384,170.38883566856384,170.38883566856384,170.38883566856384,170.38883566856384,170.38883566856384,170.38883566856384,202.61586499214172,1,32.36259746551514,None,,,,,,,,,,,,,,,,,,65,1,2025-02-21_09h40.26.395,comp,2024.2.4,54.09464457983606,2025-02-21 09h47.09.090431 -0500,
3,3,0,filler_square,None,None,None,None,None,None,None,None,None,None,1,3.6435863971710205,None,,,,,0,0,0,0,0,3,3,190,202.63413858413696,,,,,,,,,,,,,,,,,,,,,,,,,,,,,,,,,,,,,,,,,,,,,,,,,,,,,,,,,,,,,,,,,,,,,,,,,,,,,,,,,194.82589763974326,194.82589763974326,129.0197478806885,78.51359013887554,189.23000406763308,90.82084596299259,1.0,1.2,-233,16,0,19,181,-3,202.6176187992096,202.617693901062,202.6209409236908,202.63413858413696,202.7858691215515,202.7858691215515,202.7858691215515,202.7858691215515,202.7858691215515,202.7858691215515,202.7858691215515,206.2838110923767,1,3.6435863971710205,None,,,,,,,,,,,,,,,,,,65,1,2025-02-21_09h40.26.395,comp,2024.2.4,54.09464457983606,2025-02-21 09h47.09.090431 -0500,
4,4,0,filler_square,None,None,None,None,None,None,None,None,None,None,3,6.018808364868164,None,,,,,0,0,0,0,0,4,4,207,206.29867315292358,,,,,,,,,,,,,,,,,,,,,,,,,,,,,,,,,,,,,,,,,,,,,,,,,,,,,,,,,,,,,,,,,,,,,,,,,,,,,,,,,57.65440343005525,73.76657192111591,79.4613000597245,64.94009427934985,92.42375910207022,92.42375910207022,4.0,4.1,-165,-250,0,-4,175,-281,206.28554034233093,206.28561925888062,206.2891550064087,206.29867315292358,206.43750643730164,206.43750643730164,206.43750643730164,206.43750643730164,206.43750643730164,206.43750643730164,206.43750643730164,212.32131385803223,3,6.018808364868164,None,,,,,,,,,,,,,,,,,,65,1,2025-02-21_09h40.26.395,comp,2024.2.4,54.09464457983606,2025-02-21 09h47.09.090431 -0500,
5,5,0,critical,hdw,20.0,1.0,upper,200.0,125.0,141.0,141.0,125.0,200.0,1,53.546234130859375,None,,,,,0,0,0,0,0,5,5,115,212.33920216560364,,,,,,,,,,,,,,,,,,,,,,,,,,,,,,,,,,,,,,,,,,,,,,,,,,,,,,,,,,,,,,,,,,,,,,,,,,,,,,,,,200.0,125.0,141.0,141.0,125.0,200.0,1.0,1.2,-229,-19,0,-9,266,0,212.32297658920288,212.32305479049683,212.32617473602295,212.33920216560364,212.48580741882324,212.48580741882324,212.48580741882324,212.48580741882324,212.48580741882324,212.48580741882324,212.48580741882324,265.9028127193451,1,53.546234130859375,None,,,,,,,,,,,,,,,,,,65,1,2025-02-21_09h40.26.395,comp,2024.2.4,54.09464457983606,2025-02-21 09h47.09.090431 -0500,
6,6,0,filler_random,None,None,None,None,None,None,None,None,None,None,1,23.61636233329773,None,,,,,0,0,0,0,0,6,6,162,265.9191370010376,,,,,,,,,,,,,,,,,,,,,,,,,,,,,,,,,,,,,,,,,,,,,,,,,,,,,,,,,,,,,,,,,,,,,,,,,,,,,,,,,86.67884758696408,169.8601342779686,168.27503039917758,90.82757158846485,117.41305900203406,101.46682988270305,4.0,4.1,-226,-286,0,19,192,-258,265.904869556427,265.9049565792084,265.9087381362915,265.9191370010376,266.07134890556335,266.07134890556335,266.07134890556335,266.07134890556335,266.07134890556335,266.07134890556335,266.07134890556335,289.5415403842926,1,23.61636233329773,None,,,,,,,,,,,,,,,,,,65,1,2025-02-21_09h40.26.395,comp,2024.2.4,54.09464457983606,2025-02-21 09h47.09.090431 -0500,
7,7,0,critical,hdw,20.0,4.0,lower,133.0,57.0,78.0,78.0,57.0,133.0,3,29.17571473121643,None,,,,,0,0,0,0,0,7,7,118,289.5580644607544,,,,,,,,,,,,,,,,,,,,,,,,,,,,,,,,,,,,,,,,,,,,,,,,,,,,,,,,,,,,,,,,,,,,,,,,,,,,,,,,,133.0,57.0,78.0,78.0,57.0,133.0,4.0,4.1,-164,-258,0,10,202,-262,289.54306983947754,289.54314708709717,289.5464744567871,289.5580644607544,289.7093563079834,289.7093563079834,289.7093563079834,289.7093563079834,289.7093563079834,289.7093563079834,289.7093563079834,318.73610734939575,3,29.17571473121643,None,,,,,,,,,,,,,,,,,,65,1,2025-02-21_09h40.26.395,comp,2024.2.4,54.09464457983606,2025-02-21 09h47.09.090431 -0500,
8,8,0,critical,wdh,20.0,3.0,upper,125.0,200.0,141.0,141.0,200.0,125.0,1,41.20436668395996,None,,,,,0,0,0,0,0,8,8,81,318.7539207935333,,,,,,,,,,,,,,,,,,,,,,,,,,,,,,,,,,,,,,,,,,,,,,,,,,,,,,,,,,,,,,,,,,,,,,,,,,,,,,,,,125.0,200.0,141.0,141.0,200.0,125.0,3.0,3.2,-266,-269,0,-9,229,270,318.7375965118408,318.73767352104187,318.7409086227417,318.7539207935333,318.8993709087372,318.8993709087372,318.8993709087372,318.8993709087372,318.8993709087372,318.8993709087372,318.8993709087372,359.96499967575073,1,41.20436668395996,None,,,,,,,,,,,,,,,,,,65,1,2025-02-21_09h40.26.395,comp,2024.2.4,54.09464457983606,2025-02-21 09h47.09.090431 -0500,
9,9,0,critical,whd,35.0,3.0,upper,125.0,200.0,200.0,125.0,127.0,127.0,1,8.521007776260376,None,,,,,0,0,0,0,0,9,9,87,359.9815402030945,,,,,,,,,,,,,,,,,,,,,,,,,,,,,,,,,,,,,,,,,,,,,,,,,,,,,,,,,,,,,,,,,,,,,,,,,,,,,,,,,125.0,200.0,200.0,125.0,127.0,127.0,3.0,3.2,-258,-283,0,2,222,261,359.9665229320526,359.9666018486023,359.97080659866333,359.9815402030945,360.13179183006287,360.13179183006287,360.13179183006287,360.13179183006287,360.13179183006287,360.13179183006287,360.13179183006287,368.50683212280273,1,8.521007776260376,None,,,,,,,,,,,,,,,,,,65,1,2025-02-21_09h40.26.395,comp,2024.2.4,54.09464457983606,2025-02-21 09h47.09.090431 -0500,
10,10,0,critical,dwh,20.0,3.0,lower,78.0,78.0,57.0,133.0,133.0,57.0,2,15.298449993133545,None,,,,,0,0,0,0,0,10,10,68,368.52313780784607,,,,,,,,,,,,,,,,,,,,,,,,,,,,,,,,,,,,,,,,,,,,,,,,,,,,,,,,,,,,,,,,,,,,,,,,,,,,,,,,,78.0,78.0,57.0,133.0,133.0,57.0,3.0,3.2,-202,-270,0,-13,191,286,368.50828862190247,368.50836658477783,368.5114526748657,368.52313780784607,368.66828966140747,368.66828966140747,368.66828966140747,368.66828966140747,368.66828966140747,368.66828966140747,368.66828966140747,383.8390884399414,2,15.298449993133545,None,,,,,,,,,,,,,,,,,,65,1,2025-02-21_09h40.26.395,comp,2024.2.4,54.09464457983606,2025-02-21 09h47.09.090431 -0500,
11,11,0,filler_square,None,None,None,None,None,None,None,None,None,None,1,5.086759328842163,None,,,,,0,0,0,0,0,11,11,175,383.85496830940247,,,,,,,,,,,,,,,,,,,,,,,,,,,,,,,,,,,,,,,,,,,,,,,,,,,,,,,,,,,,,,,,,,,,,,,,,,,,,,,,,117.84876677713683,117.84876677713683,89.79625224599994,60.64064501667555,89.95846387978024,97.02715898822368,1.0,1.1,-665,289,-480,279,-305,279,383.8410620689392,383.84114623069763,383.8446578979492,383.85496830940247,384.00558829307556,384.00558829307556,384.00558829307556,384.00558829307556,384.00558829307556,384.00558829307556,384.00558829307556,388.96019101142883,1,5.086759328842163,None,,,,,,,,,,,,,,,,,,65,1,2025-02-21_09h40.26.395,comp,2024.2.4,54.09464457983606,2025-02-21 09h47.09.090431 -0500,
12,12,0,critical,hdw,20.0,4.0,upper,200.0,125.0,141.0,141.0,125.0,200.0,3,9.849966764450073,None,,,,,0,0,0,0,0,12,12,119,388.979697227478,,,,,,,,,,,,,,,,,,,,,,,,,,,,,,,,,,,,,,,,,,,,,,,,,,,,,,,,,,,,,,,,,,,,,,,,,,,,,,,,,200.0,125.0,141.0,141.0,125.0,200.0,4.0,4.2,-229,-11,0,-275,266,6,388.9618442058563,388.96194529533386,388.96546816825867,388.979697227478,389.1247968673706,389.1247968673706,389.1247968673706,389.1247968673706,389.1247968673706,389.1247968673706,389.1247968673706,398.84364914894104,3,9.849966764450073,None,,,,,,,,,,,,,,,,,,65,1,2025-02-21_09h40.26.395,comp,2024.2.4,54.09464457983606,2025-02-21 09h47.09.090431 -0500,
13,13,0,filler_random,None,None,None,None,None,None,None,None,None,None,1,21.05648112297058,None,,,,,0,0,0,0,0,13,13,159,398.8611521720886,,,,,,,,,,,,,,,,,,,,,,,,,,,,,,,,,,,,,,,,,,,,,,,,,,,,,,,,,,,,,,,,,,,,,,,,,,,,,,,,,134.45626903434822,165.71837134316223,196.58915484508438,80.8652533100481,141.6952650435082,114.83688724619137,1.0,1.3,261,-271,480,-280,674,-257,398.84531688690186,398.84539270401,398.84887742996216,398.8611521720886,398.9999737739563,398.9999737739563,398.9999737739563,398.9999737739563,398.9999737739563,398.9999737739563,398.9999737739563,419.93338537216187,1,21.05648112297058,None,,,,,,,,,,,,,,,,,,65,1,2025-02-21_09h40.26.395,comp,2024.2.4,54.09464457983606,2025-02-21 09h47.09.090431 -0500,
14,14,0,filler_square,None,None,None,None,None,None,None,None,None,None,2,8.920559644699097,None,,,,,0,0,0,0,0,14,14,171,419.9490668773651,,,,,,,,,,,,,,,,,,,,,,,,,,,,,,,,,,,,,,,,,,,,,,,,,,,,,,,,,,,,,,,,,,,,,,,,,,,,,,,,,73.62710888940597,94.07263194314419,102.31793003635856,102.31793003635856,86.2927444225636,88.4671256220694,2.1,2.11,-194,262,0,275,191,-288,419.9351873397827,419.9352638721466,419.93875312805176,419.9490668773651,420.1070110797882,420.1070110797882,420.1070110797882,420.1070110797882,420.1070110797882,420.1070110797882,420.1070110797882,428.8856828212738,2,8.920559644699097,None,,,,,,,,,,,,,,,,,,65,1,2025-02-21_09h40.26.395,comp,2024.2.4,54.09464457983606,2025-02-21 09h47.09.090431 -0500,
15,15,0,critical,dhw,35.0,1.0,lower,70.0,70.0,133.0,57.0,57.0,133.0,3,34.45629954338074,None,,,,,0,0,0,0,0,15,15,48,428.90179777145386,,,,,,,,,,,,,,,,,,,,,,,,,,,,,,,,,,,,,,,,,,,,,,,,,,,,,,,,,,,,,,,,,,,,,,,,,,,,,,,,,70.0,70.0,133.0,57.0,57.0,133.0,1.0,1.1,-640,268,-480,250,-289,262,428.8871555328369,428.8872289657593,428.89051389694214,428.90179777145386,429.0488314628601,429.0488314628601,429.0488314628601,429.0488314628601,429.0488314628601,429.0488314628601,429.0488314628601,463.36056303977966,3,34.45629954338074,None,,,,,,,,,,,,,,,,,,65,1,2025-02-21_09h40.26.395,comp,2024.2.4,54.09464457983606,2025-02-21 09h47.09.090431 -0500,
16,16,0,filler_square,None,None,None,None,None,None,None,None,None,None,2,6.139413356781006,None,,,,,0,0,0,0,0,16,16,185,463.37839794158936,,,,,,,,,,,,,,,,,,,,,,,,,,,,,,,,,,,,,,,,,,,,,,,,,,,,,,,,,,,,,,,,,,,,,,,,,,,,,,,,,59.77662963942619,64.7617133559416,75.20021716558401,75.20021716558401,57.441219575786775,66.15688455215304,2.2,2.22,-166,256,0,-288,167,-284,463.3624622821808,463.36254358291626,463.36566829681396,463.37839794158936,463.5320928096771,463.5320928096771,463.5320928096771,463.5320928096771,463.5320928096771,463.5320928096771,463.5320928096771,469.53310775756836,2,6.139413356781006,None,,,,,,,,,,,,,,,,,,65,1,2025-02-21_09h40.26.395,comp,2024.2.4,54.09464457983606,2025-02-21 09h47.09.090431 -0500,
17,17,0,filler_random,None,None,None,None,None,None,None,None,None,None,3,20.185500383377075,None,,,,,0,0,0,0,0,17,17,163,469.5489411354065,,,,,,,,,,,,,,,,,,,,,,,,,,,,,,,,,,,,,,,,,,,,,,,,,,,,,,,,,,,,,,,,,,,,,,,,,,,,,,,,,134.4998645530603,75.01321744972059,84.85224009673962,112.45703150486855,176.95231002836755,83.48631606697896,2.1,2.12,-190,-275,0,-273,194,282,469.5349876880646,469.53506541252136,469.5385956764221,469.5489411354065,469.7024562358856,469.7024562358856,469.7024562358856,469.7024562358856,469.7024562358856,469.7024562358856,469.7024562358856,489.74201345443726,3,20.185500383377075,None,,,,,,,,,,,,,,,,,,65,1,2025-02-21_09h40.26.395,comp,2024.2.4,54.09464457983606,2025-02-21 09h47.09.090431 -0500,
18,18,0,critical,whd,20.0,4.0,lower,57.0,133.0,133.0,57.0,78.0,78.0,1,3.861328601837158,None,,,,,0,0,0,0,0,18,18,94,489.76064562797546,,,,,,,,,,,,,,,,,,,,,,,,,,,,,,,,,,,,,,,,,,,,,,,,,,,,,,,,,,,,,,,,,,,,,,,,,,,,,,,,,57.0,133.0,133.0,57.0,78.0,78.0,4.0,4.2,-191,10,0,-262,164,-13,489.74359679222107,489.74367356300354,489.74679589271545,489.76064562797546,489.9050922393799,489.9050922393799,489.9050922393799,489.9050922393799,489.9050922393799,489.9050922393799,489.9050922393799,493.6395831108093,1,3.861328601837158,None,,,,,,,,,,,,,,,,,,65,1,2025-02-21_09h40.26.395,comp,2024.2.4,54.09464457983606,2025-02-21 09h47.09.090431 -0500,
19,19,0,catch,None,None,None,None,None,None,None,None,None,None,3,1.957491397857666,None,,,,,0,0,0,0,0,19,19,125,493.65621733665466,,,,,,,,,,,,,,,,,,,,,,,,,,,,,,,,,,,,,,,,,,,,,,,,,,,,,,,,,,,,,,,,,,,,,,,,,,,,,,,,,58,132,146,179,62,128,3.0,3.1,-252,264,0,2,250,-251,493.64185905456543,493.6419360637665,493.64583468437195,493.65621733665466,493.8066840171814,493.8066840171814,493.8066840171814,493.8066840171814,493.8066840171814,493.8066840171814,493.8066840171814,495.62483525276184,3,1.957491397857666,None,,,,,,,,,,,,,,,,,,65,1,2025-02-21_09h40.26.395,comp,2024.2.4,54.09464457983606,2025-02-21 09h47.09.090431 -0500,
20,20,0,critical,dwh,20.0,1.0,upper,141.0,141.0,125.0,200.0,200.0,125.0,2,17.718790531158447,None,,,,,0,0,0,0,0,20,20,67,495.63941383361816,,,,,,,,,,,,,,,,,,,,,,,,,,,,,,,,,,,,,,,,,,,,,,,,,,,,,,,,,,,,,,,,,,,,,,,,,,,,,,,,,141.0,141.0,125.0,200.0,200.0,125.0,1.0,1.2,-266,-11,0,11,258,0,495.62631249427795,495.6263909339905,495.6295440196991,495.63941383361816,495.7788927555084,495.7788927555084,495.7788927555084,495.7788927555084,495.7788927555084,495.7788927555084,495.7788927555084,513.3627655506134,2,17.718790531158447,None,,,,,,,,,,,,,,,,,,65,1,2025-02-21_09h40.26.395,comp,2024.2.4,54.09464457983606,2025-02-21 09h47.09.090431 -0500,
21,21,0,filler_random,None,None,None,None,None,None,None,None,None,None,1,2.3471639156341553,None,,,,,0,0,0,0,0,21,21,146,513.3788585662842,,,,,,,,,,,,,,,,,,,,,,,,,,,,,,,,,,,,,,,,,,,,,,,,,,,,,,,,,,,,,,,,,,,,,,,,,,,,,,,,,161.2074449616121,117.80229781188288,75.17285655300876,145.62434492786733,161.08446787782702,86.89073015562711,2.1,2.11,-228,279,0,268,212,-269,513.364513874054,513.3645925521851,513.3681137561798,513.3788585662842,513.5330572128296,513.5330572128296,513.5330572128296,513.5330572128296,513.5330572128296,513.5330572128296,513.5330572128296,515.7306184768677,1,2.3471639156341553,None,,,,,,,,,,,,,,,,,,65,1,2025-02-21_09h40.26.395,comp,2024.2.4,54.09464457983606,2025-02-21 09h47.09.090431 -0500,
22,22,0,filler_square,None,None,None,None,None,None,None,None,None,None,1,1.9830234050750732,None,,,,,0,0,0,0,0,22,22,186,515.7508769035339,,,,,,,,,,,,,,,,,,,,,,,,,,,,,,,,,,,,,,,,,,,,,,,,,,,,,,,,,,,,,,,,,,,,,,,,,,,,,,,,,179.44986879411476,179.44986879411476,141.31094541781513,151.40408800914201,78.60366816037097,96.05935372916434,4.0,4.2,-261,-1,0,-276,220,-9,515.7324111461639,515.7324888706207,515.7359085083008,515.7508769035339,515.8997483253479,515.8997483253479,515.8997483253479,515.8997483253479,515.8997483253479,515.8997483253479,515.8997483253479,517.7475736141205,1,1.9830234050750732,None,,,,,,,,,,,,,,,,,,65,1,2025-02-21_09h40.26.395,comp,2024.2.4,54.09464457983606,2025-02-21 09h47.09.090431 -0500,
23,23,0,critical,dhw,35.0,3.0,upper,127.0,127.0,200.0,125.0,125.0,200.0,3,3.499035358428955,None,,,,,0,0,0,0,0,23,23,51,517.7630853652954,,,,,,,,,,,,,,,,,,,,,,,,,,,,,,,,,,,,,,,,,,,,,,,,,,,,,,,,,,,,,,,,,,,,,,,,,,,,,,,,,127.0,127.0,200.0,125.0,125.0,200.0,3.0,3.2,-222,-277,0,-7,258,283,517.7490847110748,517.7491602897644,517.7527248859406,517.7630853652954,517.9135756492615,517.9135756492615,517.9135756492615,517.9135756492615,517.9135756492615,517.9135756492615,517.9135756492615,521.2702281475067,3,3.499035358428955,None,,,,,,,,,,,,,,,,,,65,1,2025-02-21_09h40.26.395,comp,2024.2.4,54.09464457983606,2025-02-21 09h47.09.090431 -0500,
24,24,0,critical,dwh,20.0,3.0,upper,141.0,141.0,125.0,200.0,200.0,125.0,2,4.62975811958313,None,,,,,0,0,0,0,0,24,24,69,521.2886161804199,,,,,,,,,,,,,,,,,,,,,,,,,,,,,,,,,,,,,,,,,,,,,,,,,,,,,,,,,,,,,,,,,,,,,,,,,,,,,,,,,141.0,141.0,125.0,200.0,200.0,125.0,3.0,3.1,-266,288,0,-11,258,-264,521.2718093395233,521.2718887329102,521.2753412723541,521.2886161804199,521.4326641559601,521.4326641559601,521.4326641559601,521.4326641559601,521.4326641559601,521.4326641559601,521.4326641559601,525.9355111122131,2,4.62975811958313,None,,,,,,,,,,,,,,,,,,65,1,2025-02-21_09h40.26.395,comp,2024.2.4,54.09464457983606,2025-02-21 09h47.09.090431 -0500,
25,25,0,filler_square,None,None,None,None,None,None,None,None,None,None,3,1.5674376487731934,None,,,,,0,0,0,0,0,25,25,202,525.9511368274689,,,,,,,,,,,,,,,,,,,,,,,,,,,,,,,,,,,,,,,,,,,,,,,,,,,,,,,,,,,,,,,,,,,,,,,,,,,,,,,,,62.96087837403225,67.28570613073096,113.20751927918934,93.02129941424647,124.48235885786231,124.48235885786231,2.1,2.12,-176,-257,0,-271,205,278,525.9374618530273,525.9375424385071,525.9408650398254,525.9511368274689,526.0990927219391,526.0990927219391,526.0990927219391,526.0990927219391,526.0990927219391,526.0990927219391,526.0990927219391,527.5265026092529,3,1.5674376487731934,None,,,,,,,,,,,,,,,,,,65,1,2025-02-21_09h40.26.395,comp,2024.2.4,54.09464457983606,2025-02-21 09h47.09.090431 -0500,
26,26,0,critical,hdw,20.0,2.1,upper,200.0,125.0,141.0,141.0,125.0,200.0,3,3.911102294921875,None,,,,,0,0,0,0,0,26,26,47,527.542671918869,,,,,,,,,,,,,,,,,,,,,,,,,,,,,,,,,,,,,,,,,,,,,,,,,,,,,,,,,,,,,,,,,,,,,,,,,,,,,,,,,200.0,125.0,141.0,141.0,125.0,200.0,2.1,2.11,-229,257,0,264,266,-259,527.528205871582,527.5282804965973,527.5316481590271,527.542671918869,527.6873822212219,527.6873822212219,527.6873822212219,527.6873822212219,527.6873822212219,527.6873822212219,527.6873822212219,531.4693496227264,3,3.911102294921875,None,,,,,,,,,,,,,,,,,,65,1,2025-02-21_09h40.26.395,comp,2024.2.4,54.09464457983606,2025-02-21 09h47.09.090431 -0500,
27,27,0,filler_square,None,None,None,None,None,None,None,None,None,None,2,3.179927110671997,None,,,,,0,0,0,0,0,27,27,201,531.4899077415466,,,,,,,,,,,,,,,,,,,,,,,,,,,,,,,,,,,,,,,,,,,,,,,,,,,,,,,,,,,,,,,,,,,,,,,,,,,,,,,,,84.73634252465597,140.52540722929325,147.90343924620214,147.90343924620214,114.39750110327003,115.54282359933161,2.1,2.12,-240,-273,0,-289,228,284,531.4712028503418,531.4713129997253,531.475259065628,531.4899077415466,531.6374621391296,531.6374621391296,531.6374621391296,531.6374621391296,531.6374621391296,531.6374621391296,531.6374621391296,534.685515165329,2,3.179927110671997,None,,,,,,,,,,,,,,,,,,65,1,2025-02-21_09h40.26.395,comp,2024.2.4,54.09464457983606,2025-02-21 09h47.09.090431 -0500,
28,28,0,critical,wdh,35.0,1.0,upper,125.0,200.0,127.0,127.0,200.0,125.0,1,9.608102798461914,None,,,,,0,0,0,0,0,28,28,73,534.7020647525787,,,,,,,,,,,,,,,,,,,,,,,,,,,,,,,,,,,,,,,,,,,,,,,,,,,,,,,,,,,,,,,,,,,,,,,,,,,,,,,,,125.0,200.0,127.0,127.0,200.0,125.0,1.0,1.1,-740,258,-480,255,-258,281,534.6871078014374,534.6871836185455,534.6906530857086,534.7020647525787,534.8586204051971,534.8586204051971,534.8586204051971,534.8586204051971,534.8586204051971,534.8586204051971,534.8586204051971,544.3269517421722,1,9.608102798461914,None,,,,,,,,,,,,,,,,,,65,1,2025-02-21_09h40.26.395,comp,2024.2.4,54.09464457983606,2025-02-21 09h47.09.090431 -0500,
29,29,0,critical,wdh,20.0,4.0,upper,125.0,200.0,141.0,141.0,200.0,125.0,1,8.684972763061523,None,,,,,0,0,0,0,0,29,29,83,544.3471040725708,,,,,,,,,,,,,,,,,,,,,,,,,,,,,,,,,,,,,,,,,,,,,,,,,,,,,,,,,,,,,,,,,,,,,,,,,,,,,,,,,125.0,200.0,141.0,141.0,200.0,125.0,4.0,4.2,-266,7,0,-250,229,15,544.3285551071167,544.3286349773407,544.3318622112274,544.3471040725708,544.4945151805878,544.4945151805878,544.4945151805878,544.4945151805878,544.4945151805878,544.4945151805878,544.4945151805878,553.035594701767,1,8.684972763061523,None,,,,,,,,,,,,,,,,,,65,1,2025-02-21_09h40.26.395,comp,2024.2.4,54.09464457983606,2025-02-21 09h47.09.090431 -0500,
30,30,0,filler_random,None,None,None,None,None,None,None,None,None,None,2,4.4086339473724365,None,,,,,0,0,0,0,0,30,30,148,553.0534193515778,,,,,,,,,,,,,,,,,,,,,,,,,,,,,,,,,,,,,,,,,,,,,,,,,,,,,,,,,,,,,,,,,,,,,,,,,,,,,,,,,97.21202064635406,74.22534577042276,141.80390665703845,86.16725970893292,96.71149543215455,97.01114734056898,4.0,4.1,-176,-289,0,14,188,-271,553.037296295166,553.0373742580414,553.0404107570648,553.0534193515778,553.1917531490326,553.1917531490326,553.1917531490326,553.1917531490326,553.1917531490326,553.1917531490326,553.1917531490326,557.4760444164276,2,4.4086339473724365,None,,,,,,,,,,,,,,,,,,65,1,2025-02-21_09h40.26.395,comp,2024.2.4,54.09464457983606,2025-02-21 09h47.09.090431 -0500,
31,31,0,filler_square,None,None,None,None,None,None,None,None,None,None,1,11.082279920578003,None,,,,,0,0,0,0,0,31,31,179,557.4922795295715,,,,,,,,,,,,,,,,,,,,,,,,,,,,,,,,,,,,,,,,,,,,,,,,,,,,,,,,,,,,,,,,,,,,,,,,,,,,,,,,,57.23819781568709,57.23819781568709,57.17776582184103,57.13931176579428,57.19254150380832,57.09623803069267,2.2,2.21,-153,-255,0,281,153,282,557.4778356552124,557.4779107570648,557.481155872345,557.4922795295715,557.6434903144836,557.6434903144836,557.6434903144836,557.6434903144836,557.6434903144836,557.6434903144836,557.6434903144836,568.5783724784851,1,11.082279920578003,None,,,,,,,,,,,,,,,,,,65,1,2025-02-21_09h40.26.395,comp,2024.2.4,54.09464457983606,2025-02-21 09h47.09.090431 -0500,
32,32,0,filler_square,None,None,None,None,None,None,None,None,None,None,3,17.226879358291626,None,,,,,0,0,0,0,0,32,32,189,568.5952024459839,,,,,,,,,,,,,,,,,,,,,,,,,,,,,,,,,,,,,,,,,,,,,,,,,,,,,,,,,,,,,,,,,,,,,,,,,,,,,,,,,75.40366274094845,75.97286064442306,63.25945990198083,64.14659867674753,82.08810833454739,82.08810833454739,3.0,3.2,-166,-260,0,-14,169,288,568.5801954269409,568.5802738666534,568.5833971500397,568.5952024459839,568.732617855072,568.732617855072,568.732617855072,568.732617855072,568.732617855072,568.732617855072,568.732617855072,585.8366498947144,3,17.226879358291626,None,,,,,,,,,,,,,,,,,,65,1,2025-02-21_09h40.26.395,comp,2024.2.4,54.09464457983606,2025-02-21 09h47.09.090431 -0500,
33,33,0,critical,hwd,35.0,2.1,lower,133.0,57.0,57.0,133.0,70.0,70.0,2,14.505147457122803,None,,,,,0,0,0,0,0,33,33,16,585.8528952598572,,,,,,,,,,,,,,,,,,,,,,,,,,,,,,,,,,,,,,,,,,,,,,,,,,,,,,,,,,,,,,,,,,,,,,,,,,,,,,,,,133.0,57.0,57.0,133.0,70.0,70.0,2.1,2.12,-191,-285,0,-259,198,279,585.8382422924042,585.8383183479309,585.8425633907318,585.8528952598572,586.0031797885895,586.0031797885895,586.0031797885895,586.0031797885895,586.0031797885895,586.0031797885895,586.0031797885895,600.3633790016174,2,14.505147457122803,None,,,,,,,,,,,,,,,,,,65,1,2025-02-21_09h40.26.395,comp,2024.2.4,54.09464457983606,2025-02-21 09h47.09.090431 -0500,
34,34,0,filler_random,None,None,None,None,None,None,None,None,None,None,3,2.3199968338012695,None,,,,,0,0,0,0,0,34,34,141,600.3826072216034,,,,,,,,,,,,,,,,,,,,,,,,,,,,,,,,,,,,,,,,,,,,,,,,,,,,,,,,,,,,,,,,,,,,,,,,,,,,,,,,,80.6724138367203,75.00414966882984,103.0112904858874,100.05112550504263,157.20032900832024,126.5827725565594,2.1,2.11,-184,256,0,273,209,-274,600.365076303482,600.3651537895203,600.3681981563568,600.3826072216034,600.5232298374176,600.5232298374176,600.5232298374176,600.5232298374176,600.5232298374176,600.5232298374176,600.5232298374176,602.7058720588684,3,2.3199968338012695,None,,,,,,,,,,,,,,,,,,65,1,2025-02-21_09h40.26.395,comp,2024.2.4,54.09464457983606,2025-02-21 09h47.09.090431 -0500,
35,35,0,critical,dhw,35.0,2.1,lower,70.0,70.0,133.0,57.0,57.0,133.0,3,8.85205364227295,None,,,,,0,0,0,0,0,35,35,0,602.7225189208984,,,,,,,,,,,,,,,,,,,,,,,,,,,,,,,,,,,,,,,,,,,,,,,,,,,,,,,,,,,,,,,,,,,,,,,,,,,,,,,,,70.0,70.0,133.0,57.0,57.0,133.0,2.1,2.12,-160,-264,0,-256,191,272,602.707524061203,602.7076556682587,602.7111699581146,602.7225189208984,602.8647315502167,602.8647315502167,602.8647315502167,602.8647315502167,602.8647315502167,602.8647315502167,602.8647315502167,611.5828566551208,3,8.85205364227295,None,,,,,,,,,,,,,,,,,,65,1,2025-02-21_09h40.26.395,comp,2024.2.4,54.09464457983606,2025-02-21 09h47.09.090431 -0500,
36,36,0,filler_square,None,None,None,None,None,None,None,None,None,None,1,4.069260120391846,None,,,,,0,0,0,0,0,36,36,170,611.6008887290955,,,,,,,,,,,,,,,,,,,,,,,,,,,,,,,,,,,,,,,,,,,,,,,,,,,,,,,,,,,,,,,,,,,,,,,,,,,,,,,,,66.40259018339272,66.40259018339272,61.276869056727094,62.915700523761004,63.630079770174,59.717914712306055,4.0,4.2,-161,10,0,-261,157,3,611.5846338272095,611.5847389698029,611.5877630710602,611.6008887290955,611.7429485321045,611.7429485321045,611.7429485321045,611.7429485321045,611.7429485321045,611.7429485321045,611.7429485321045,615.6835460662842,1,4.069260120391846,None,,,,,,,,,,,,,,,,,,65,1,2025-02-21_09h40.26.395,comp,2024.2.4,54.09464457983606,2025-02-21 09h47.09.090431 -0500,
37,37,0,critical,wdh,35.0,3.0,upper,125.0,200.0,127.0,127.0,200.0,125.0,1,3.7559666633605957,None,,,,,0,0,0,0,0,37,37,75,615.6987533569336,,,,,,,,,,,,,,,,,,,,,,,,,,,,,,,,,,,,,,,,,,,,,,,,,,,,,,,,,,,,,,,,,,,,,,,,,,,,,,,,,125.0,200.0,127.0,127.0,200.0,125.0,3.0,3.2,-260,-284,0,-14,222,253,615.6850662231445,615.6851420402527,615.6881687641144,615.6987533569336,615.8454172611237,615.8454172611237,615.8454172611237,615.8454172611237,615.8454172611237,615.8454172611237,615.8454172611237,619.4647946357727,1,3.7559666633605957,None,,,,,,,,,,,,,,,,,,65,1,2025-02-21_09h40.26.395,comp,2024.2.4,54.09464457983606,2025-02-21 09h47.09.090431 -0500,
38,38,0,critical,dhw,20.0,2.1,lower,78.0,78.0,133.0,57.0,57.0,133.0,3,16.35671377182007,None,,,,,0,0,0,0,0,38,38,2,619.4813134670258,,,,,,,,,,,,,,,,,,,,,,,,,,,,,,,,,,,,,,,,,,,,,,,,,,,,,,,,,,,,,,,,,,,,,,,,,,,,,,,,,78.0,78.0,133.0,57.0,57.0,133.0,2.1,2.12,-164,-287,0,-284,191,285,619.4664828777313,619.4665620326996,619.4705567359924,619.4813134670258,619.631641626358,619.631641626358,619.631641626358,619.631641626358,619.631641626358,619.631641626358,619.631641626358,635.8522303104401,3,16.35671377182007,None,,,,,,,,,,,,,,,,,,65,1,2025-02-21_09h40.26.395,comp,2024.2.4,54.09464457983606,2025-02-21 09h47.09.090431 -0500,
39,39,0,filler_square,None,None,None,None,None,None,None,None,None,None,2,2.5081515312194824,None,,,,,0,0,0,0,0,39,39,174,635.8680338859558,,,,,,,,,,,,,,,,,,,,,,,,,,,,,,,,,,,,,,,,,,,,,,,,,,,,,,,,,,,,,,,,,,,,,,,,,,,,,,,,,87.05061279849367,76.34552640446893,114.14074442440692,114.14074442440692,57.01846635943919,66.52931018181629,2.1,2.12,-191,-264,0,-257,186,283,635.8539838790894,635.8540639877319,635.8575060367584,635.8680338859558,636.0102133750916,636.0102133750916,636.0102133750916,636.0102133750916,636.0102133750916,636.0102133750916,636.0102133750916,638.3827586174011,2,2.5081515312194824,None,,,,,,,,,,,,,,,,,,65,1,2025-02-21_09h40.26.395,comp,2024.2.4,54.09464457983606,2025-02-21 09h47.09.090431 -0500,
40,40,0,filler_random,None,None,None,None,None,None,None,None,None,None,3,3.6643171310424805,None,,,,,0,0,0,0,0,40,40,152,638.3988974094391,,,,,,,,,,,,,,,,,,,,,,,,,,,,,,,,,,,,,,,,,,,,,,,,,,,,,,,,,,,,,,,,,,,,,,,,,,,,,,,,,101.09178158188615,156.84634650551203,60.00275445183104,177.74440138333068,177.60854482205698,189.7842543361458,2.2,2.22,-263,288,0,-251,280,-251,638.3844647407532,638.3845400810242,638.3875591754913,638.3988974094391,638.5524530410767,638.5524530410767,638.5524530410767,638.5524530410767,638.5524530410767,638.5524530410767,638.5524530410767,642.0724167823792,3,3.6643171310424805,None,,,,,,,,,,,,,,,,,,65,1,2025-02-21_09h40.26.395,comp,2024.2.4,54.09464457983606,2025-02-21 09h47.09.090431 -0500,
41,41,0,critical,whd,20.0,2.1,upper,125.0,200.0,200.0,125.0,141.0,141.0,1,17.424655199050903,None,,,,,0,0,0,0,0,41,41,15,642.0935244560242,,,,,,,,,,,,,,,,,,,,,,,,,,,,,,,,,,,,,,,,,,,,,,,,,,,,,,,,,,,,,,,,,,,,,,,,,,,,,,,,,125.0,200.0,200.0,125.0,141.0,141.0,2.1,2.11,-258,281,0,253,229,-259,642.0740776062012,642.0741801261902,642.0776267051697,642.0935244560242,642.2363004684448,642.2363004684448,642.2363004684448,642.2363004684448,642.2363004684448,642.2363004684448,642.2363004684448,659.5298340320587,1,17.424655199050903,None,,,,,,,,,,,,,,,,,,65,1,2025-02-21_09h40.26.395,comp,2024.2.4,54.09464457983606,2025-02-21 09h47.09.090431 -0500,
42,42,0,critical,hdw,20.0,2.1,lower,133.0,57.0,78.0,78.0,57.0,133.0,3,5.63293719291687,None,,,,,0,0,0,0,0,42,42,46,659.5501325130463,,,,,,,,,,,,,,,,,,,,,,,,,,,,,,,,,,,,,,,,,,,,,,,,,,,,,,,,,,,,,,,,,,,,,,,,,,,,,,,,,133.0,57.0,78.0,78.0,57.0,133.0,2.1,2.11,-164,279,0,262,202,-257,659.5313467979431,659.5314257144928,659.5344750881195,659.5501325130463,659.690046787262,659.690046787262,659.690046787262,659.690046787262,659.690046787262,659.690046787262,659.690046787262,665.1946461200714,3,5.63293719291687,None,,,,,,,,,,,,,,,,,,65,1,2025-02-21_09h40.26.395,comp,2024.2.4,54.09464457983606,2025-02-21 09h47.09.090431 -0500,
43,43,0,catch,None,None,None,None,None,None,None,None,None,None,2,2.243422746658325,None,,,,,0,0,0,0,0,43,43,122,665.2114317417145,,,,,,,,,,,,,,,,,,,,,,,,,,,,,,,,,,,,,,,,,,,,,,,,,,,,,,,,,,,,,,,,,,,,,,,,,,,,,,,,,126,64,173,152,67,123,2.1,2.11,-204,261,0,255,234,-281,665.1968817710876,665.1969621181488,665.2005865573883,665.2114317417145,665.3613636493683,665.3613636493683,665.3613636493683,665.3613636493683,665.3613636493683,665.3613636493683,665.3613636493683,667.4612452983856,2,2.243422746658325,None,,,,,,,,,,,,,,,,,,65,1,2025-02-21_09h40.26.395,comp,2024.2.4,54.09464457983606,2025-02-21 09h47.09.090431 -0500,
44,44,0,filler_random,None,None,None,None,None,None,None,None,None,None,2,6.439540147781372,None,,,,,0,0,0,0,0,44,44,136,667.4785885810852,,,,,,,,,,,,,,,,,,,,,,,,,,,,,,,,,,,,,,,,,,,,,,,,,,,,,,,,,,,,,,,,,,,,,,,,,,,,,,,,,139.78616819217518,67.01817448849508,126.48662618657923,164.86548329533184,107.85287147551185,81.15247523444413,2.2,2.21,-212,-278,0,280,219,256,667.4629888534546,667.4630861282349,667.4668400287628,667.4785885810852,667.6266157627106,667.6266157627106,667.6266157627106,667.6266157627106,667.6266157627106,667.6266157627106,667.6266157627106,673.9332172870636,2,6.439540147781372,None,,,,,,,,,,,,,,,,,,65,1,2025-02-21_09h40.26.395,comp,2024.2.4,54.09464457983606,2025-02-21 09h47.09.090431 -0500,
45,45,0,filler_random,None,None,None,None,None,None,None,None,None,None,2,1.8000478744506836,None,,,,,0,0,0,0,0,45,45,140,673.9500319957733,,,,,,,,,,,,,,,,,,,,,,,,,,,,,,,,,,,,,,,,,,,,,,,,,,,,,,,,,,,,,,,,,,,,,,,,,,,,,,,,,64.67518337442654,59.883508555581805,179.92023442805174,135.99104052669924,70.63478288467653,116.68495677839425,3.0,3.2,-194,-268,0,-11,222,259,673.935154914856,673.9352638721466,673.9384367465973,673.9500319957733,674.0993463993073,674.0993463993073,674.0993463993073,674.0993463993073,674.0993463993073,674.0993463993073,674.0993463993073,675.7656021118164,2,1.8000478744506836,None,,,,,,,,,,,,,,,,,,65,1,2025-02-21_09h40.26.395,comp,2024.2.4,54.09464457983606,2025-02-21 09h47.09.090431 -0500,
46,46,0,critical,dhw,20.0,2.1,upper,141.0,141.0,200.0,125.0,125.0,200.0,3,4.087273120880127,None,,,,,0,0,0,0,0,46,46,27,675.78297996521,,,,,,,,,,,,,,,,,,,,,,,,,,,,,,,,,,,,,,,,,,,,,,,,,,,,,,,,,,,,,,,,,,,,,,,,,,,,,,,,,141.0,141.0,200.0,125.0,125.0,200.0,2.1,2.12,-229,-269,0,-287,258,257,675.7672572135925,675.7673337459564,675.7705039978027,675.78297996521,675.9299569129944,675.9299569129944,675.9299569129944,675.9299569129944,675.9299569129944,675.9299569129944,675.9299569129944,679.8889689445496,3,4.087273120880127,None,,,,,,,,,,,,,,,,,,65,1,2025-02-21_09h40.26.395,comp,2024.2.4,54.09464457983606,2025-02-21 09h47.09.090431 -0500,
47,47,0,catch,None,None,None,None,None,None,None,None,None,None,3,6.905429840087891,None,,,,,0,0,0,0,0,47,47,127,679.9092593193054,,,,,,,,,,,,,,,,,,,,,,,,,,,,,,,,,,,,,,,,,,,,,,,,,,,,,,,,,,,,,,,,,,,,,,,,,,,,,,,,,98,92,88,102,187,138,2.2,2.22,-193,280,0,-283,216,-251,679.8911008834839,679.8911786079407,679.8946990966797,679.9092593193054,680.0482602119446,680.0482602119446,680.0482602119446,680.0482602119446,680.0482602119446,680.0482602119446,680.0482602119446,686.8200290203094,3,6.905429840087891,None,,,,,,,,,,,,,,,,,,65,1,2025-02-21_09h40.26.395,comp,2024.2.4,54.09464457983606,2025-02-21 09h47.09.090431 -0500,
48,48,0,filler_square,None,None,None,None,None,None,None,None,None,None,1,1.5521137714385986,None,,,,,0,0,0,0,0,48,48,193,686.8379354476929,,,,,,,,,,,,,,,,,,,,,,,,,,,,,,,,,,,,,,,,,,,,,,,,,,,,,,,,,,,,,,,,,,,,,,,,,,,,,,,,,198.1782276133873,198.1782276133873,118.96514383322543,59.52795590934323,164.01147913621043,58.19037910197438,4.0,4.1,-225,-279,0,11,155,-253,686.8224880695343,686.8225681781769,686.8256900310516,686.8379354476929,686.983945608139,686.983945608139,686.983945608139,686.983945608139,686.983945608139,686.983945608139,686.983945608139,688.4001281261444,1,1.5521137714385986,None,,,,,,,,,,,,,,,,,,65,1,2025-02-21_09h40.26.395,comp,2024.2.4,54.09464457983606,2025-02-21 09h47.09.090431 -0500,
49,49,0,filler_square,None,None,None,None,None,None,None,None,None,None,3,2.277669906616211,None,,,,,0,0,0,0,0,49,49,203,688.4164931774139,,,,,,,,,,,,,,,,,,,,,,,,,,,,,,,,,,,,,,,,,,,,,,,,,,,,,,,,,,,,,,,,,,,,,,,,,,,,,,,,,112.47595532756452,79.97715762580309,102.10968201867894,103.68345281287812,122.44227769281386,122.44227769281386,2.2,2.22,-188,266,0,-283,209,-252,688.4019248485565,688.4020059108734,688.4051501750946,688.4164931774139,688.5721979141235,688.5721979141235,688.5721979141235,688.5721979141235,688.5721979141235,688.5721979141235,688.5721979141235,690.7065486907959,3,2.277669906616211,None,,,,,,,,,,,,,,,,,,65,1,2025-02-21_09h40.26.395,comp,2024.2.4,54.09464457983606,2025-02-21 09h47.09.090431 -0500,
50,50,0,filler_square,None,None,None,None,None,None,None,None,None,None,1,8.564178943634033,None,,,,,0,0,0,0,0,50,50,192,690.722535610199,,,,,,,,,,,,,,,,,,,,,,,,,,,,,,,,,,,,,,,,,,,,,,,,,,,,,,,,,,,,,,,,,,,,,,,,,,,,,,,,,103.94466726688927,103.94466726688927,92.51122993883946,88.77151450794541,85.13539583614246,101.06247695386267,1.0,1.1,-672,284,-480,287,-289,255,690.7085597515106,690.7086367607117,690.7120945453644,690.722535610199,690.868460893631,690.868460893631,690.868460893631,690.868460893631,690.868460893631,690.868460893631,690.868460893631,699.3021574020386,1,8.564178943634033,None,,,,,,,,,,,,,,,,,,65,1,2025-02-21_09h40.26.395,comp,2024.2.4,54.09464457983606,2025-02-21 09h47.09.090431 -0500,
51,51,0,filler_random,None,None,None,None,None,None,None,None,None,None,1,6.712412595748901,None,,,,,0,0,0,0,0,51,51,131,699.3186316490173,,,,,,,,,,,,,,,,,,,,,,,,,,,,,,,,,,,,,,,,,,,,,,,,,,,,,,,,,,,,,,,,,,,,,,,,,,,,,,,,,179.75768237135807,171.7382596938288,146.16803392967728,68.49287853260108,168.15325709051683,154.37316735713605,4.0,4.2,-216,6,0,-270,207,-6,699.3038184642792,699.3038940429688,699.3069298267365,699.3186316490173,699.4558827877045,699.4558827877045,699.4558827877045,699.4558827877045,699.4558827877045,699.4558827877045,699.4558827877045,706.0401463508606,1,6.712412595748901,None,,,,,,,,,,,,,,,,,,65,1,2025-02-21_09h40.26.395,comp,2024.2.4,54.09464457983606,2025-02-21 09h47.09.090431 -0500,
52,52,0,critical,wdh,20.0,2.1,lower,57.0,133.0,78.0,78.0,133.0,57.0,1,10.237807512283325,None,,,,,0,0,0,0,0,52,52,10,706.0563130378723,,,,,,,,,,,,,,,,,,,,,,,,,,,,,,,,,,,,,,,,,,,,,,,,,,,,,,,,,,,,,,,,,,,,,,,,,,,,,,,,,57.0,133.0,78.0,78.0,133.0,57.0,2.1,2.12,-202,-257,0,-273,164,289,706.0418274402618,706.0419044494629,706.0454792976379,706.0563130378723,706.206538438797,706.206538438797,706.206538438797,706.206538438797,706.206538438797,706.206538438797,706.206538438797,716.2962644100189,1,10.237807512283325,None,,,,,,,,,,,,,,,,,,65,1,2025-02-21_09h40.26.395,comp,2024.2.4,54.09464457983606,2025-02-21 09h47.09.090431 -0500,
53,53,0,critical,dwh,35.0,2.1,upper,127.0,127.0,125.0,200.0,200.0,125.0,2,5.038795709609985,None,,,,,0,0,0,0,0,53,53,29,716.3122725486755,,,,,,,,,,,,,,,,,,,,,,,,,,,,,,,,,,,,,,,,,,,,,,,,,,,,,,,,,,,,,,,,,,,,,,,,,,,,,,,,,127.0,127.0,125.0,200.0,200.0,125.0,2.1,2.12,-260,-279,0,-277,258,253,716.29785323143,716.2979309558868,716.3013782501221,716.3122725486755,716.4652814865112,716.4652814865112,716.4652814865112,716.4652814865112,716.4652814865112,716.4652814865112,716.4652814865112,721.3593361377716,2,5.038795709609985,None,,,,,,,,,,,,,,,,,,65,1,2025-02-21_09h40.26.395,comp,2024.2.4,54.09464457983606,2025-02-21 09h47.09.090431 -0500,
54,54,0,critical,whd,20.0,1.0,upper,125.0,200.0,200.0,125.0,141.0,141.0,1,4.366803169250488,None,,,,,0,0,0,0,0,54,54,91,721.3760941028595,,,,,,,,,,,,,,,,,,,,,,,,,,,,,,,,,,,,,,,,,,,,,,,,,,,,,,,,,,,,,,,,,,,,,,,,,,,,,,,,,125.0,200.0,200.0,125.0,141.0,141.0,1.0,1.1,-738,266,-480,278,-251,277,721.3609111309052,721.3609874248505,721.3644177913666,721.3760941028595,721.527613401413,721.527613401413,721.527613401413,721.527613401413,721.527613401413,721.527613401413,721.527613401413,725.7470242977142,1,4.366803169250488,None,,,,,,,,,,,,,,,,,,65,1,2025-02-21_09h40.26.395,comp,2024.2.4,54.09464457983606,2025-02-21 09h47.09.090431 -0500,
55,55,0,filler_square,None,None,None,None,None,None,None,None,None,None,3,3.883828639984131,None,,,,,0,0,0,0,0,55,55,205,725.7632355690002,,,,,,,,,,,,,,,,,,,,,,,,,,,,,,,,,,,,,,,,,,,,,,,,,,,,,,,,,,,,,,,,,,,,,,,,,,,,,,,,,128.5711488785218,108.90209837972094,66.85909312922556,84.73231929818664,155.00005203910783,155.00005203910783,1.0,1.2,-193,-17,0,5,216,15,725.7488076686859,725.7488899230957,725.752448797226,725.7632355690002,725.9181253910065,725.9181253910065,725.9181253910065,725.9181253910065,725.9181253910065,725.9181253910065,725.9181253910065,729.6501863002777,3,3.883828639984131,None,,,,,,,,,,,,,,,,,,65,1,2025-02-21_09h40.26.395,comp,2024.2.4,54.09464457983606,2025-02-21 09h47.09.090431 -0500,
56,56,0,critical,hdw,35.0,3.0,lower,133.0,57.0,70.0,70.0,57.0,133.0,3,4.435754776000977,None,,,,,0,0,0,0,0,56,56,110,729.6665940284729,,,,,,,,,,,,,,,,,,,,,,,,,,,,,,,,,,,,,,,,,,,,,,,,,,,,,,,,,,,,,,,,,,,,,,,,,,,,,,,,,133.0,57.0,70.0,70.0,57.0,133.0,3.0,3.2,-160,-261,0,15,198,281,729.6518323421478,729.651912689209,729.6549870967865,729.6665940284729,729.8135528564453,729.8135528564453,729.8135528564453,729.8135528564453,729.8135528564453,729.8135528564453,729.8135528564453,734.1056251525879,3,4.435754776000977,None,,,,,,,,,,,,,,,,,,65,1,2025-02-21_09h40.26.395,comp,2024.2.4,54.09464457983606,2025-02-21 09h47.09.090431 -0500,
57,57,0,filler_square,None,None,None,None,None,None,None,None,None,None,2,9.081039905548096,None,,,,,0,0,0,0,0,57,57,178,734.1251423358917,,,,,,,,,,,,,,,,,,,,,,,,,,,,,,,,,,,,,,,,,,,,,,,,,,,,,,,,,,,,,,,,,,,,,,,,,,,,,,,,,58.14794430844023,62.27775376038435,62.68194899276483,62.68194899276483,57.46266269941475,62.10927308649948,2.1,2.12,-158,-272,0,-280,158,261,734.1074342727661,734.1075112819672,734.1105580329895,734.1251423358917,734.2655539512634,734.2655539512634,734.2655539512634,734.2655539512634,734.2655539512634,734.2655539512634,734.2655539512634,743.2207944393158,2,9.081039905548096,None,,,,,,,,,,,,,,,,,,65,1,2025-02-21_09h40.26.395,comp,2024.2.4,54.09464457983606,2025-02-21 09h47.09.090431 -0500,
58,58,0,critical,whd,35.0,2.1,upper,125.0,200.0,200.0,125.0,127.0,127.0,1,12.639136552810669,None,,,,,0,0,0,0,0,58,58,37,743.2398731708527,,,,,,,,,,,,,,,,,,,,,,,,,,,,,,,,,,,,,,,,,,,,,,,,,,,,,,,,,,,,,,,,,,,,,,,,,,,,,,,,,125.0,200.0,200.0,125.0,127.0,127.0,2.1,2.12,-258,-283,0,-279,222,257,743.222455739975,743.2225885391235,743.2260692119598,743.2398731708527,743.3862721920013,743.3862721920013,743.3862721920013,743.3862721920013,743.3862721920013,743.3862721920013,743.3862721920013,755.887099981308,1,12.639136552810669,None,,,,,,,,,,,,,,,,,,65,1,2025-02-21_09h40.26.395,comp,2024.2.4,54.09464457983606,2025-02-21 09h47.09.090431 -0500,
59,59,0,catch,None,None,None,None,None,None,None,None,None,None,2,3.0701043605804443,None,,,,,0,0,0,0,0,59,59,126,755.9040915966034,,,,,,,,,,,,,,,,,,,,,,,,,,,,,,,,,,,,,,,,,,,,,,,,,,,,,,,,,,,,,,,,,,,,,,,,,,,,,,,,,67,123,197,128,94,96,1.0,1.1,-702,253,-480,251,-272,253,755.8890573978424,755.8891382217407,755.892422914505,755.9040915966034,756.0555019378662,756.0555019378662,756.0555019378662,756.0555019378662,756.0555019378662,756.0555019378662,756.0555019378662,758.9907741546631,2,3.0701043605804443,None,,,,,,,,,,,,,,,,,,65,1,2025-02-21_09h40.26.395,comp,2024.2.4,54.09464457983606,2025-02-21 09h47.09.090431 -0500,
60,60,0,critical,wdh,35.0,4.0,upper,125.0,200.0,127.0,127.0,200.0,125.0,1,16.792195081710815,None,,,,,0,0,0,0,0,60,60,77,759.0061721801758,,,,,,,,,,,,,,,,,,,,,,,,,,,,,,,,,,,,,,,,,,,,,,,,,,,,,,,,,,,,,,,,,,,,,,,,,,,,,,,,,125.0,200.0,127.0,127.0,200.0,125.0,4.0,4.1,-260,-256,0,7,222,-287,758.9922609329224,758.9923374652863,758.9959030151367,759.0061721801758,759.1589720249176,759.1589720249176,759.1589720249176,759.1589720249176,759.1589720249176,759.1589720249176,759.1589720249176,775.8122339248657,1,16.792195081710815,None,,,,,,,,,,,,,,,,,,65,1,2025-02-21_09h40.26.395,comp,2024.2.4,54.09464457983606,2025-02-21 09h47.09.090431 -0500,
61,61,0,critical,dwh,20.0,1.0,lower,78.0,78.0,57.0,133.0,133.0,57.0,2,15.52211856842041,None,,,,,0,0,0,0,0,61,61,66,775.8280720710754,,,,,,,,,,,,,,,,,,,,,,,,,,,,,,,,,,,,,,,,,,,,,,,,,,,,,,,,,,,,,,,,,,,,,,,,,,,,,,,,,78.0,78.0,57.0,133.0,133.0,57.0,1.0,1.1,-682,253,-480,262,-289,272,775.813982963562,775.8140778541565,775.8176674842834,775.8280720710754,775.9785585403442,775.9785585403442,775.9785585403442,775.9785585403442,775.9785585403442,775.9785585403442,775.9785585403442,791.3522129058838,2,15.52211856842041,None,,,,,,,,,,,,,,,,,,65,1,2025-02-21_09h40.26.395,comp,2024.2.4,54.09464457983606,2025-02-21 09h47.09.090431 -0500,
62,62,0,filler_random,None,None,None,None,None,None,None,None,None,None,1,5.4212517738342285,None,,,,,0,0,0,0,0,62,62,150,791.3689649105072,,,,,,,,,,,,,,,,,,,,,,,,,,,,,,,,,,,,,,,,,,,,,,,,,,,,,,,,,,,,,,,,,,,,,,,,,,,,,,,,,104.95788862520374,170.0439900473046,146.55873571855727,70.81849440710434,65.96069942313923,190.24648399397114,1.0,1.2,-216,-4,0,-18,227,-9,791.3542923927307,791.3543720245361,791.3580899238586,791.3689649105072,791.523594379425,791.523594379425,791.523594379425,791.523594379425,791.523594379425,791.523594379425,791.523594379425,796.8084733486176,1,5.4212517738342285,None,,,,,,,,,,,,,,,,,,65,1,2025-02-21_09h40.26.395,comp,2024.2.4,54.09464457983606,2025-02-21 09h47.09.090431 -0500,
63,63,0,critical,dhw,35.0,4.0,upper,127.0,127.0,200.0,125.0,125.0,200.0,3,12.252451419830322,None,,,,,0,0,0,0,0,63,63,53,796.8257668018341,,,,,,,,,,,,,,,,,,,,,,,,,,,,,,,,,,,,,,,,,,,,,,,,,,,,,,,,,,,,,,,,,,,,,,,,,,,,,,,,,127.0,127.0,200.0,125.0,125.0,200.0,4.0,4.2,-222,2,0,-260,258,15,796.8099534511566,796.8100309371948,796.8130927085876,796.8257668018341,796.9652445316315,796.9652445316315,796.9652445316315,796.9652445316315,796.9652445316315,796.9652445316315,796.9652445316315,809.0911493301392,3,12.252451419830322,None,,,,,,,,,,,,,,,,,,65,1,2025-02-21_09h40.26.395,comp,2024.2.4,54.09464457983606,2025-02-21 09h47.09.090431 -0500,
64,64,0,filler_square,None,None,None,None,None,None,None,None,None,None,3,3.183678388595581,None,,,,,0,0,0,0,0,64,64,191,809.1125440597534,,,,,,,,,,,,,,,,,,,,,,,,,,,,,,,,,,,,,,,,,,,,,,,,,,,,,,,,,,,,,,,,,,,,,,,,,,,,,,,,,77.7994239802643,76.0176418461388,61.19316377169755,66.75805423956422,89.992595088696,89.992595088696,4.0,4.1,-167,-284,0,-14,174,-273,809.093120098114,809.093252658844,809.0968565940857,809.1125440597534,809.255377292633,809.255377292633,809.255377292633,809.255377292633,809.255377292633,809.255377292633,809.255377292633,812.3071746826172,3,3.183678388595581,None,,,,,,,,,,,,,,,,,,65,1,2025-02-21_09h40.26.395,comp,2024.2.4,54.09464457983606,2025-02-21 09h47.09.090431 -0500,
65,65,0,critical,hdw,35.0,4.0,upper,200.0,125.0,127.0,127.0,125.0,200.0,3,3.043248414993286,None,,,,,0,0,0,0,0,65,65,113,812.3238711357117,,,,,,,,,,,,,,,,,,,,,,,,,,,,,,,,,,,,,,,,,,,,,,,,,,,,,,,,,,,,,,,,,,,,,,,,,,,,,,,,,200.0,125.0,127.0,127.0,125.0,200.0,4.0,4.2,-222,-2,0,-284,260,17,812.3088459968567,812.308923959732,812.313149690628,812.3238711357117,812.4743885993958,812.4743885993958,812.4743885993958,812.4743885993958,812.4743885993958,812.4743885993958,812.4743885993958,815.3734030723572,3,3.043248414993286,None,,,,,,,,,,,,,,,,,,65,1,2025-02-21_09h40.26.395,comp,2024.2.4,54.09464457983606,2025-02-21 09h47.09.090431 -0500,
66,66,0,critical,wdh,20.0,1.0,lower,57.0,133.0,78.0,78.0,133.0,57.0,1,8.909921646118164,None,,,,,0,0,0,0,0,66,66,78,815.3941884040833,,,,,,,,,,,,,,,,,,,,,,,,,,,,,,,,,,,,,,,,,,,,,,,,,,,,,,,,,,,,,,,,,,,,,,,,,,,,,,,,,57.0,133.0,78.0,78.0,133.0,57.0,1.0,1.1,-682,281,-480,254,-316,263,815.3749842643738,815.3750638961792,815.3783323764801,815.3941884040833,815.5408201217651,815.5408201217651,815.5408201217651,815.5408201217651,815.5408201217651,815.5408201217651,815.5408201217651,824.308831691742,1,8.909921646118164,None,,,,,,,,,,,,,,,,,,65,1,2025-02-21_09h40.26.395,comp,2024.2.4,54.09464457983606,2025-02-21 09h47.09.090431 -0500,
67,67,0,critical,hwd,20.0,2.1,lower,133.0,57.0,57.0,133.0,78.0,78.0,2,7.361437797546387,None,,,,,0,0,0,0,0,67,67,42,824.3258147239685,,,,,,,,,,,,,,,,,,,,,,,,,,,,,,,,,,,,,,,,,,,,,,,,,,,,,,,,,,,,,,,,,,,,,,,,,,,,,,,,,133.0,57.0,57.0,133.0,78.0,78.0,2.1,2.11,-191,275,0,269,202,-279,824.3103830814362,824.3104629516602,824.3139274120331,824.3258147239685,824.4621012210846,824.4621012210846,824.4621012210846,824.4621012210846,824.4621012210846,824.4621012210846,824.4621012210846,831.6945657730103,2,7.361437797546387,None,,,,,,,,,,,,,,,,,,65,1,2025-02-21_09h40.26.395,comp,2024.2.4,54.09464457983606,2025-02-21 09h47.09.090431 -0500,
68,68,0,critical,whd,20.0,2.1,lower,57.0,133.0,133.0,57.0,78.0,78.0,1,11.448614358901978,None,,,,,0,0,0,0,0,68,68,38,831.7114355564117,,,,,,,,,,,,,,,,,,,,,,,,,,,,,,,,,,,,,,,,,,,,,,,,,,,,,,,,,,,,,,,,,,,,,,,,,,,,,,,,,57.0,133.0,133.0,57.0,78.0,78.0,2.1,2.12,-191,-261,0,-254,164,259,831.6961703300476,831.6962490081787,831.6996512413025,831.7114355564117,831.8591680526733,831.8591680526733,831.8591680526733,831.8591680526733,831.8591680526733,831.8591680526733,831.8591680526733,843.1632313728333,1,11.448614358901978,None,,,,,,,,,,,,,,,,,,65,1,2025-02-21_09h40.26.395,comp,2024.2.4,54.09464457983606,2025-02-21 09h47.09.090431 -0500,
69,69,0,catch,None,None,None,None,None,None,None,None,None,None,1,1.4496915340423584,None,,,,,0,0,0,0,0,69,69,129,843.181070804596,,,,,,,,,,,,,,,,,,,,,,,,,,,,,,,,,,,,,,,,,,,,,,,,,,,,,,,,,,,,,,,,,,,,,,,,,,,,,,,,,158,167,85,105,87,103,1.0,1.3,248,-271,480,-267,680,-290,843.1651110649109,843.1651892662048,843.1682579517365,843.181070804596,843.3291726112366,843.3291726112366,843.3291726112366,843.3291726112366,843.3291726112366,843.3291726112366,843.3291726112366,844.632985830307,1,1.4496915340423584,None,,,,,,,,,,,,,,,,,,65,1,2025-02-21_09h40.26.395,comp,2024.2.4,54.09464457983606,2025-02-21 09h47.09.090431 -0500,
70,70,0,critical,dwh,20.0,2.1,upper,141.0,141.0,125.0,200.0,200.0,125.0,3,10.658272743225098,None,,,,,0,0,0,0,0,70,70,7,844.6600584983826,,,,,,,,,,,,,,,,,,,,,,,,,,,,,,,,,,,,,,,,,,,,,,,,,,,,,,,,,,,,,,,,,,,,,,,,,,,,,,,,,141.0,141.0,125.0,200.0,200.0,125.0,2.1,2.11,-266,280,0,276,258,-254,844.6346385478973,844.6348028182983,844.6386864185333,844.6600584983826,844.8003375530243,844.8003375530243,844.8003375530243,844.8003375530243,844.8003375530243,844.8003375530243,844.8003375530243,855.3203585147858,3,10.658272743225098,None,,,,,,,,,,,,,,,,,,65,1,2025-02-21_09h40.26.395,comp,2024.2.4,54.09464457983606,2025-02-21 09h47.09.090431 -0500,
71,71,0,catch,None,None,None,None,None,None,None,None,None,None,2,4.32617712020874,None,,,,,0,0,0,0,0,71,71,120,855.3371090888977,,,,,,,,,,,,,,,,,,,,,,,,,,,,,,,,,,,,,,,,,,,,,,,,,,,,,,,,,,,,,,,,,,,,,,,,,,,,,,,,,117,73,157,168,74,116,3.0,3.1,-216,270,0,-9,238,-286,855.3223097324371,855.3223893642426,855.3260202407837,855.3371090888977,855.4904808998108,855.4904808998108,855.4904808998108,855.4904808998108,855.4904808998108,855.4904808998108,855.4904808998108,859.6700139045715,2,4.32617712020874,None,,,,,,,,,,,,,,,,,,65,1,2025-02-21_09h40.26.395,comp,2024.2.4,54.09464457983606,2025-02-21 09h47.09.090431 -0500,
72,72,0,critical,hwd,35.0,4.0,upper,200.0,125.0,125.0,200.0,127.0,127.0,1,11.959448099136353,None,,,,,0,0,0,0,0,72,72,101,859.6868607997894,,,,,,,,,,,,,,,,,,,,,,,,,,,,,,,,,,,,,,,,,,,,,,,,,,,,,,,,,,,,,,,,,,,,,,,,,,,,,,,,,200.0,125.0,125.0,200.0,127.0,127.0,4.0,4.1,-258,-276,0,-18,260,-266,859.671571969986,859.6716504096985,859.6752271652222,859.6868607997894,859.8225374221802,859.8225374221802,859.8225374221802,859.8225374221802,859.8225374221802,859.8225374221802,859.8225374221802,871.6574971675873,1,11.959448099136353,None,,,,,,,,,,,,,,,,,,65,1,2025-02-21_09h40.26.395,comp,2024.2.4,54.09464457983606,2025-02-21 09h47.09.090431 -0500,
73,73,0,filler_random,None,None,None,None,None,None,None,None,None,None,2,12.419768810272217,None,,,,,0,0,0,0,0,73,73,157,871.6745932102203,,,,,,,,,,,,,,,,,,,,,,,,,,,,,,,,,,,,,,,,,,,,,,,,,,,,,,,,,,,,,,,,,,,,,,,,,,,,,,,,,81.16064361096822,174.9090448099446,186.99977344242,63.06276042361641,63.3677916262987,72.74177864411574,2.2,2.22,-215,282,0,-274,164,-257,871.6592347621918,871.6593608856201,871.6629109382629,871.6745932102203,871.8221685886383,871.8221685886383,871.8221685886383,871.8221685886383,871.8221685886383,871.8221685886383,871.8221685886383,884.1123447418213,2,12.419768810272217,None,,,,,,,,,,,,,,,,,,65,1,2025-02-21_09h40.26.395,comp,2024.2.4,54.09464457983606,2025-02-21 09h47.09.090431 -0500,
74,74,0,critical,dwh,35.0,2.1,upper,127.0,127.0,125.0,200.0,200.0,125.0,2,2.8389170169830322,None,,,,,0,0,0,0,0,74,74,5,884.128167629242,,,,,,,,,,,,,,,,,,,,,,,,,,,,,,,,,,,,,,,,,,,,,,,,,,,,,,,,,,,,,,,,,,,,,,,,,,,,,,,,,127.0,127.0,125.0,200.0,200.0,125.0,2.1,2.12,-260,-277,0,-261,258,254,884.1140649318695,884.1141972541809,884.1177628040314,884.128167629242,884.2775061130524,884.2775061130524,884.2775061130524,884.2775061130524,884.2775061130524,884.2775061130524,884.2775061130524,886.9713060855865,2,2.8389170169830322,None,,,,,,,,,,,,,,,,,,65,1,2025-02-21_09h40.26.395,comp,2024.2.4,54.09464457983606,2025-02-21 09h47.09.090431 -0500,
75,75,0,critical,hdw,20.0,1.0,lower,133.0,57.0,78.0,78.0,57.0,133.0,3,12.834210634231567,None,,,,,0,0,0,0,0,75,75,114,886.9882936477661,,,,,,,,,,,,,,,,,,,,,,,,,,,,,,,,,,,,,,,,,,,,,,,,,,,,,,,,,,,,,,,,,,,,,,,,,,,,,,,,,133.0,57.0,78.0,78.0,57.0,133.0,1.0,1.3,316,-271,480,-267,682,-287,886.972948551178,886.9730634689331,886.976505279541,886.9882936477661,887.1360428333282,887.1360428333282,887.1360428333282,887.1360428333282,887.1360428333282,887.1360428333282,887.1360428333282,899.8352770805359,3,12.834210634231567,None,,,,,,,,,,,,,,,,,,65,1,2025-02-21_09h40.26.395,comp,2024.2.4,54.09464457983606,2025-02-21 09h47.09.090431 -0500,
76,76,0,critical,dwh,20.0,2.1,lower,78.0,78.0,57.0,133.0,133.0,57.0,2,2.372811794281006,None,,,,,0,0,0,0,0,76,76,30,899.8515915870667,,,,,,,,,,,,,,,,,,,,,,,,,,,,,,,,,,,,,,,,,,,,,,,,,,,,,,,,,,,,,,,,,,,,,,,,,,,,,,,,,78.0,78.0,57.0,133.0,133.0,57.0,2.1,2.12,-202,-266,0,-259,191,286,899.8367676734924,899.8368446826935,899.840546131134,899.8515915870667,899.9906966686249,899.9906966686249,899.9906966686249,899.9906966686249,899.9906966686249,899.9906966686249,899.9906966686249,902.2358939647675,2,2.372811794281006,None,,,,,,,,,,,,,,,,,,65,1,2025-02-21_09h40.26.395,comp,2024.2.4,54.09464457983606,2025-02-21 09h47.09.090431 -0500,
77,77,0,filler_square,None,None,None,None,None,None,None,None,None,None,2,1.7071435451507568,None,,,,,0,0,0,0,0,77,77,200,902.2519946098328,,,,,,,,,,,,,,,,,,,,,,,,,,,,,,,,,,,,,,,,,,,,,,,,,,,,,,,,,,,,,,,,,,,,,,,,,,,,,,,,,144.28313730541078,75.09321265234904,184.44098423004908,184.44098423004908,107.01086382461713,179.27057529927845,2.2,2.22,-226,253,0,-265,278,-268,902.237776517868,902.2378673553467,902.2412829399109,902.2519946098328,902.399777173996,902.399777173996,902.399777173996,902.399777173996,902.399777173996,902.399777173996,902.399777173996,903.9675545692444,2,1.7071435451507568,None,,,,,,,,,,,,,,,,,,65,1,2025-02-21_09h40.26.395,comp,2024.2.4,54.09464457983606,2025-02-21 09h47.09.090431 -0500,
78,78,0,critical,dhw,35.0,4.0,lower,70.0,70.0,133.0,57.0,57.0,133.0,3,1.8223369121551514,None,,,,,0,0,0,0,0,78,78,52,903.9839494228363,,,,,,,,,,,,,,,,,,,,,,,,,,,,,,,,,,,,,,,,,,,,,,,,,,,,,,,,,,,,,,,,,,,,,,,,,,,,,,,,,70.0,70.0,133.0,57.0,57.0,133.0,4.0,4.1,-160,-271,0,-7,191,-252,903.9690532684326,903.9691305160522,903.9722828865051,903.9839494228363,904.1219837665558,904.1219837665558,904.1219837665558,904.1219837665558,904.1219837665558,904.1219837665558,904.1219837665558,905.8215765953064,3,1.8223369121551514,None,,,,,,,,,,,,,,,,,,65,1,2025-02-21_09h40.26.395,comp,2024.2.4,54.09464457983606,2025-02-21 09h47.09.090431 -0500,
79,79,0,critical,hwd,35.0,3.0,lower,133.0,57.0,57.0,133.0,70.0,70.0,2,5.265064716339111,None,,,,,0,0,0,0,0,79,79,98,905.8373925685883,,,,,,,,,,,,,,,,,,,,,,,,,,,,,,,,,,,,,,,,,,,,,,,,,,,,,,,,,,,,,,,,,,,,,,,,,,,,,,,,,133.0,57.0,57.0,133.0,70.0,70.0,3.0,3.2,-191,-275,0,8,198,264,905.8233053684235,905.8234379291534,905.8270297050476,905.8373925685883,905.9920885562897,905.9920885562897,905.9920885562897,905.9920885562897,905.9920885562897,905.9920885562897,905.9920885562897,911.1209976673126,2,5.265064716339111,None,,,,,,,,,,,,,,,,,,65,1,2025-02-21_09h40.26.395,comp,2024.2.4,54.09464457983606,2025-02-21 09h47.09.090431 -0500,
80,80,0,critical,whd,35.0,4.0,upper,125.0,200.0,200.0,125.0,127.0,127.0,1,3.3257176876068115,None,,,,,0,0,0,0,0,80,80,89,911.1370310783386,,,,,,,,,,,,,,,,,,,,,,,,,,,,,,,,,,,,,,,,,,,,,,,,,,,,,,,,,,,,,,,,,,,,,,,,,,,,,,,,,125.0,200.0,200.0,125.0,127.0,127.0,4.0,4.2,-258,14,0,-272,222,-9,911.1225297451019,911.1226072311401,911.1267898082733,911.1370310783386,911.2880322933197,911.2880322933197,911.2880322933197,911.2880322933197,911.2880322933197,911.2880322933197,911.2880322933197,914.4736974239349,1,3.3257176876068115,None,,,,,,,,,,,,,,,,,,65,1,2025-02-21_09h40.26.395,comp,2024.2.4,54.09464457983606,2025-02-21 09h47.09.090431 -0500,
81,81,0,critical,hwd,20.0,2.1,lower,133.0,57.0,57.0,133.0,78.0,78.0,2,9.627639532089233,None,,,,,0,0,0,0,0,81,81,18,914.491473197937,,,,,,,,,,,,,,,,,,,,,,,,,,,,,,,,,,,,,,,,,,,,,,,,,,,,,,,,,,,,,,,,,,,,,,,,,,,,,,,,,133.0,57.0,57.0,133.0,78.0,78.0,2.1,2.11,-191,265,0,251,202,-253,914.4754083156586,914.4754843711853,914.478551864624,914.491473197937,914.6384468078613,914.6384468078613,914.6384468078613,914.6384468078613,914.6384468078613,914.6384468078613,914.6384468078613,924.1251122951508,2,9.627639532089233,None,,,,,,,,,,,,,,,,,,65,1,2025-02-21_09h40.26.395,comp,2024.2.4,54.09464457983606,2025-02-21 09h47.09.090431 -0500,
82,82,0,critical,hdw,35.0,2.1,lower,133.0,57.0,70.0,70.0,57.0,133.0,1,7.1132752895355225,None,,,,,0,0,0,0,0,82,82,20,924.141847372055,,,,,,,,,,,,,,,,,,,,,,,,,,,,,,,,,,,,,,,,,,,,,,,,,,,,,,,,,,,,,,,,,,,,,,,,,,,,,,,,,133.0,57.0,70.0,70.0,57.0,133.0,2.1,2.12,-160,-277,0,-285,198,283,924.1266379356384,924.1267476081848,924.1302604675293,924.141847372055,924.2913341522217,924.2913341522217,924.2913341522217,924.2913341522217,924.2913341522217,924.2913341522217,924.2913341522217,931.2588124275208,1,7.1132752895355225,None,,,,,,,,,,,,,,,,,,65,1,2025-02-21_09h40.26.395,comp,2024.2.4,54.09464457983606,2025-02-21 09h47.09.090431 -0500,
83,83,0,critical,hwd,35.0,1.0,upper,200.0,125.0,125.0,200.0,127.0,127.0,2,5.13085412979126,None,,,,,0,0,0,0,0,83,83,97,931.2762696743011,,,,,,,,,,,,,,,,,,,,,,,,,,,,,,,,,,,,,,,,,,,,,,,,,,,,,,,,,,,,,,,,,,,,,,,,,,,,,,,,,200.0,125.0,125.0,200.0,127.0,127.0,1.0,1.1,-738,255,-480,268,-220,261,931.2604041099548,931.2604825496674,931.2643506526947,931.2762696743011,931.4120008945465,931.4120008945465,931.4120008945465,931.4120008945465,931.4120008945465,931.4120008945465,931.4120008945465,936.4093825817108,2,5.13085412979126,None,,,,,,,,,,,,,,,,,,65,1,2025-02-21_09h40.26.395,comp,2024.2.4,54.09464457983606,2025-02-21 09h47.09.090431 -0500,
84,84,0,filler_random,None,None,None,None,None,None,None,None,None,None,1,3.2207558155059814,None,,,,,0,0,0,0,0,84,84,130,936.4257869720459,,,,,,,,,,,,,,,,,,,,,,,,,,,,,,,,,,,,,,,,,,,,,,,,,,,,,,,,,,,,,,,,,,,,,,,,,,,,,,,,,144.43052864228144,175.59172717593668,84.19874983158424,147.76616415027257,108.18372869825382,194.41000862634033,4.0,4.1,-258,-281,0,-11,267,-271,936.4110743999481,936.4111514091492,936.4142401218414,936.4257869720459,936.5685148239136,936.5685148239136,936.5685148239136,936.5685148239136,936.5685148239136,936.5685148239136,936.5685148239136,939.6527676582336,1,3.2207558155059814,None,,,,,,,,,,,,,,,,,,65,1,2025-02-21_09h40.26.395,comp,2024.2.4,54.09464457983606,2025-02-21 09h47.09.090431 -0500,
85,85,0,critical,dhw,20.0,1.0,upper,141.0,141.0,200.0,125.0,125.0,200.0,3,2.773522138595581,None,,,,,0,0,0,0,0,85,85,55,939.6730854511261,,,,,,,,,,,,,,,,,,,,,,,,,,,,,,,,,,,,,,,,,,,,,,,,,,,,,,,,,,,,,,,,,,,,,,,,,,,,,,,,,141.0,141.0,200.0,125.0,125.0,200.0,1.0,1.3,251,-275,480,-276,738,-285,939.6542434692383,939.6543192863464,939.657331943512,939.6730854511261,939.8140275478363,939.8140275478363,939.8140275478363,939.8140275478363,939.8140275478363,939.8140275478363,939.8140275478363,942.4490485191345,3,2.773522138595581,None,,,,,,,,,,,,,,,,,,65,1,2025-02-21_09h40.26.395,comp,2024.2.4,54.09464457983606,2025-02-21 09h47.09.090431 -0500,
86,86,0,critical,whd,35.0,1.0,upper,125.0,200.0,200.0,125.0,127.0,127.0,1,2.2203383445739746,None,,,,,0,0,0,0,0,86,86,85,942.4670712947845,,,,,,,,,,,,,,,,,,,,,,,,,,,,,,,,,,,,,,,,,,,,,,,,,,,,,,,,,,,,,,,,,,,,,,,,,,,,,,,,,125.0,200.0,200.0,125.0,127.0,127.0,1.0,1.1,-738,269,-480,276,-258,287,942.4505174160004,942.4505972862244,942.4540770053864,942.4670712947845,942.6144778728485,942.6144778728485,942.6144778728485,942.6144778728485,942.6144778728485,942.6144778728485,942.6144778728485,944.6983819007874,1,2.2203383445739746,None,,,,,,,,,,,,,,,,,,65,1,2025-02-21_09h40.26.395,comp,2024.2.4,54.09464457983606,2025-02-21 09h47.09.090431 -0500,
87,87,0,filler_random,None,None,None,None,None,None,None,None,None,None,3,6.876081228256226,None,,,,,0,0,0,0,0,87,87,133,944.7152073383331,,,,,,,,,,,,,,,,,,,,,,,,,,,,,,,,,,,,,,,,,,,,,,,,,,,,,,,,,,,,,,,,,,,,,,,,,,,,,,,,,76.17729760995475,191.37738649446996,106.51265669724145,154.73601257738773,114.11440071076211,177.09817657925157,2.2,2.21,-269,-271,0,251,262,281,944.7003092765808,944.7004261016846,944.7042651176453,944.7152073383331,944.8634812831879,944.8634812831879,944.8634812831879,944.8634812831879,944.8634812831879,944.8634812831879,944.8634812831879,951.6014285087585,3,6.876081228256226,None,,,,,,,,,,,,,,,,,,65,1,2025-02-21_09h40.26.395,comp,2024.2.4,54.09464457983606,2025-02-21 09h47.09.090431 -0500,
88,88,0,critical,dhw,20.0,4.0,lower,78.0,78.0,133.0,57.0,57.0,133.0,3,9.836761951446533,None,,,,,0,0,0,0,0,88,88,58,951.61780834198,,,,,,,,,,,,,,,,,,,,,,,,,,,,,,,,,,,,,,,,,,,,,,,,,,,,,,,,,,,,,,,,,,,,,,,,,,,,,,,,,78.0,78.0,133.0,57.0,57.0,133.0,4.0,4.2,-164,3,0,-251,191,10,951.6028590202332,951.6029584407806,951.6070876121521,951.61780834198,951.7664830684662,951.7664830684662,951.7664830684662,951.7664830684662,951.7664830684662,951.7664830684662,951.7664830684662,961.4729444980621,3,9.836761951446533,None,,,,,,,,,,,,,,,,,,65,1,2025-02-21_09h40.26.395,comp,2024.2.4,54.09464457983606,2025-02-21 09h47.09.090431 -0500,
89,89,0,critical,hdw,35.0,2.1,lower,133.0,57.0,70.0,70.0,57.0,133.0,3,2.962003707885742,None,,,,,0,0,0,0,0,89,89,44,961.4923584461212,,,,,,,,,,,,,,,,,,,,,,,,,,,,,,,,,,,,,,,,,,,,,,,,,,,,,,,,,,,,,,,,,,,,,,,,,,,,,,,,,133.0,57.0,70.0,70.0,57.0,133.0,2.1,2.11,-160,275,0,280,198,-268,961.4746043682098,961.4746832847595,961.4781816005707,961.4923584461212,961.637065410614,961.637065410614,961.637065410614,961.637065410614,961.637065410614,961.637065410614,961.637065410614,964.47088098526,3,2.962003707885742,None,,,,,,,,,,,,,,,,,,65,1,2025-02-21_09h40.26.395,comp,2024.2.4,54.09464457983606,2025-02-21 09h47.09.090431 -0500,
90,90,0,critical,hwd,35.0,2.1,lower,133.0,57.0,57.0,133.0,70.0,70.0,2,7.440402269363403,None,,,,,0,0,0,0,0,90,90,40,964.4861259460449,,,,,,,,,,,,,,,,,,,,,,,,,,,,,,,,,,,,,,,,,,,,,,,,,,,,,,,,,,,,,,,,,,,,,,,,,,,,,,,,,133.0,57.0,57.0,133.0,70.0,70.0,2.1,2.11,-191,276,0,251,198,-265,964.4723896980286,964.4724674224854,964.475798368454,964.4861259460449,964.6384127140045,964.6384127140045,964.6384127140045,964.6384127140045,964.6384127140045,964.6384127140045,964.6384127140045,971.9428052902222,2,7.440402269363403,None,,,,,,,,,,,,,,,,,,65,1,2025-02-21_09h40.26.395,comp,2024.2.4,54.09464457983606,2025-02-21 09h47.09.090431 -0500,
91,91,0,critical,whd,35.0,2.1,upper,125.0,200.0,200.0,125.0,127.0,127.0,1,5.116464138031006,None,,,,,0,0,0,0,0,91,91,13,971.9621403217316,,,,,,,,,,,,,,,,,,,,,,,,,,,,,,,,,,,,,,,,,,,,,,,,,,,,,,,,,,,,,,,,,,,,,,,,,,,,,,,,,125.0,200.0,200.0,125.0,127.0,127.0,2.1,2.12,-258,-251,0,-278,222,282,971.9444966316223,971.9446053504944,971.9482345581055,971.9621403217316,972.1070590019226,972.1070590019226,972.1070590019226,972.1070590019226,972.1070590019226,972.1070590019226,972.1070590019226,977.0933248996735,1,5.116464138031006,None,,,,,,,,,,,,,,,,,,65,1,2025-02-21_09h40.26.395,comp,2024.2.4,54.09464457983606,2025-02-21 09h47.09.090431 -0500,
92,92,0,critical,dwh,20.0,4.0,lower,78.0,78.0,57.0,133.0,133.0,57.0,2,3.6730830669403076,None,,,,,0,0,0,0,0,92,92,70,977.1094143390656,,,,,,,,,,,,,,,,,,,,,,,,,,,,,,,,,,,,,,,,,,,,,,,,,,,,,,,,,,,,,,,,,,,,,,,,,,,,,,,,,78.0,78.0,57.0,133.0,133.0,57.0,4.0,4.1,-202,-270,0,0,191,-271,977.0950529575348,977.0951325893402,977.0991387367249,977.1094143390656,977.268609046936,977.268609046936,977.268609046936,977.268609046936,977.268609046936,977.268609046936,977.268609046936,980.8002779483795,2,3.6730830669403076,None,,,,,,,,,,,,,,,,,,65,1,2025-02-21_09h40.26.395,comp,2024.2.4,54.09464457983606,2025-02-21 09h47.09.090431 -0500,
93,93,0,filler_square,None,None,None,None,None,None,None,None,None,None,2,3.5731356143951416,None,,,,,0,0,0,0,0,93,93,187,980.8178775310516,,,,,,,,,,,,,,,,,,,,,,,,,,,,,,,,,,,,,,,,,,,,,,,,,,,,,,,,,,,,,,,,,,,,,,,,,,,,,,,,,77.02537257198094,66.0950616608332,92.55849780790061,92.55849780790061,80.47391676260233,78.87322352497907,3.0,3.1,-175,255,0,7,182,-273,980.8020408153534,980.8021156787872,980.8051996231079,980.8178775310516,980.9599258899689,980.9599258899689,980.9599258899689,980.9599258899689,980.9599258899689,980.9599258899689,980.9599258899689,984.3956680297852,2,3.5731356143951416,None,,,,,,,,,,,,,,,,,,65,1,2025-02-21_09h40.26.395,comp,2024.2.4,54.09464457983606,2025-02-21 09h47.09.090431 -0500,
94,94,0,critical,dhw,20.0,3.0,upper,141.0,141.0,200.0,125.0,125.0,200.0,3,8.45151972770691,None,,,,,0,0,0,0,0,94,94,57,984.4114582538605,,,,,,,,,,,,,,,,,,,,,,,,,,,,,,,,,,,,,,,,,,,,,,,,,,,,,,,,,,,,,,,,,,,,,,,,,,,,,,,,,141.0,141.0,200.0,125.0,125.0,200.0,3.0,3.1,-229,285,0,9,258,-268,984.3972542285919,984.3973596096039,984.4006462097168,984.4114582538605,984.5630950927734,984.5630950927734,984.5630950927734,984.5630950927734,984.5630950927734,984.5630950927734,984.5630950927734,992.8685050010681,3,8.45151972770691,None,,,,,,,,,,,,,,,,,,65,1,2025-02-21_09h40.26.395,comp,2024.2.4,54.09464457983606,2025-02-21 09h47.09.090431 -0500,
95,95,0,critical,hdw,20.0,2.1,lower,133.0,57.0,78.0,78.0,57.0,133.0,3,6.347864389419556,None,,,,,0,0,0,0,0,95,95,22,992.8828330039978,,,,,,,,,,,,,,,,,,,,,,,,,,,,,,,,,,,,,,,,,,,,,,,,,,,,,,,,,,,,,,,,,,,,,,,,,,,,,,,,,133.0,57.0,78.0,78.0,57.0,133.0,2.1,2.11,-164,263,0,258,202,-288,992.870038986206,992.8701181411743,992.8732373714447,992.8828330039978,993.0275774002075,993.0275774002075,993.0275774002075,993.0275774002075,993.0275774002075,993.0275774002075,993.0275774002075,999.232851266861,3,6.347864389419556,None,,,,,,,,,,,,,,,,,,65,1,2025-02-21_09h40.26.395,comp,2024.2.4,54.09464457983606,2025-02-21 09h47.09.090431 -0500,
96,96,0,critical,wdh,20.0,2.1,upper,125.0,200.0,141.0,141.0,200.0,125.0,1,31.619628190994263,None,,,,,0,0,0,0,0,96,96,35,999.251223564148,,,,,,,,,,,,,,,,,,,,,,,,,,,,,,,,,,,,,,,,,,,,,,,,,,,,,,,,,,,,,,,,,,,,,,,,,,,,,,,,,125.0,200.0,141.0,141.0,200.0,125.0,2.1,2.11,-266,260,0,267,229,-250,999.2343807220459,999.2344596385956,999.2380485534668,999.251223564148,999.3986601829529,999.3986601829529,999.3986601829529,999.3986601829529,999.3986601829529,999.3986601829529,999.3986601829529,1030.875344991684,1,31.619628190994263,None,,,,,,,,,,,,,,,,,,65,1,2025-02-21_09h40.26.395,comp,2024.2.4,54.09464457983606,2025-02-21 09h47.09.090431 -0500,
97,97,0,filler_random,None,None,None,None,None,None,None,None,None,None,1,1.7309789657592773,None,,,,,0,0,0,0,0,97,97,169,1030.8921477794647,,,,,,,,,,,,,,,,,,,,,,,,,,,,,,,,,,,,,,,,,,,,,,,,,,,,,,,,,,,,,,,,,,,,,,,,,,,,,,,,,177.64276610223058,189.61453871783635,70.19930302948494,117.07019695619715,75.29698861421136,134.22890365034732,3.0,3.2,-249,-282,0,2,222,270,1030.8770654201508,1030.877147436142,1030.8813457489014,1030.8921477794647,1031.0456681251526,1031.0456681251526,1031.0456681251526,1031.0456681251526,1031.0456681251526,1031.0456681251526,1031.0456681251526,1032.6298458576202,1,1.7309789657592773,None,,,,,,,,,,,,,,,,,,65,1,2025-02-21_09h40.26.395,comp,2024.2.4,54.09464457983606,2025-02-21 09h47.09.090431 -0500,
98,98,0,critical,hwd,20.0,1.0,upper,200.0,125.0,125.0,200.0,141.0,141.0,2,3.165222406387329,None,,,,,0,0,0,0,0,98,98,103,1032.6506175994873,,,,,,,,,,,,,,,,,,,,,,,,,,,,,,,,,,,,,,,,,,,,,,,,,,,,,,,,,,,,,,,,,,,,,,,,,,,,,,,,,200.0,125.0,125.0,200.0,141.0,141.0,1.0,1.3,222,-286,480,-274,746,-273,1032.631419658661,1032.6314990520477,1032.6349630355835,1032.6506175994873,1032.794237613678,1032.794237613678,1032.794237613678,1032.794237613678,1032.794237613678,1032.794237613678,1032.794237613678,1035.827047586441,2,3.165222406387329,None,,,,,,,,,,,,,,,,,,65,1,2025-02-21_09h40.26.395,comp,2024.2.4,54.09464457983606,2025-02-21 09h47.09.090431 -0500,
99,99,0,critical,hdw,35.0,1.0,upper,200.0,125.0,127.0,127.0,125.0,200.0,3,20.78746199607849,None,,,,,0,0,0,0,0,99,99,109,1035.843148946762,,,,,,,,,,,,,,,,,,,,,,,,,,,,,,,,,,,,,,,,,,,,,,,,,,,,,,,,,,,,,,,,,,,,,,,,,,,,,,,,,200.0,125.0,127.0,127.0,125.0,200.0,1.0,1.2,-222,12,0,9,260,5,1035.8285682201385,1035.828646183014,1035.8321583271027,1035.843148946762,1035.984647512436,1035.984647512436,1035.984647512436,1035.984647512436,1035.984647512436,1035.984647512436,1035.984647512436,1056.633139848709,3,20.78746199607849,None,,,,,,,,,,,,,,,,,,65,1,2025-02-21_09h40.26.395,comp,2024.2.4,54.09464457983606,2025-02-21 09h47.09.090431 -0500,
100,100,0,critical,dhw,35.0,2.1,lower,70.0,70.0,133.0,57.0,57.0,133.0,3,7.324785232543945,None,,,,,0,0,0,0,0,100,100,24,1056.649849653244,,,,,,,,,,,,,,,,,,,,,,,,,,,,,,,,,,,,,,,,,,,,,,,,,,,,,,,,,,,,,,,,,,,,,,,,,,,,,,,,,70.0,70.0,133.0,57.0,57.0,133.0,2.1,2.11,-160,258,0,279,191,-289,1056.634799003601,1056.6349277496338,1056.639104604721,1056.649849653244,1056.8000438213348,1056.8000438213348,1056.8000438213348,1056.8000438213348,1056.8000438213348,1056.8000438213348,1056.8000438213348,1063.987283706665,3,7.324785232543945,None,,,,,,,,,,,,,,,,,,65,1,2025-02-21_09h40.26.395,comp,2024.2.4,54.09464457983606,2025-02-21 09h47.09.090431 -0500,
101,101,0,critical,hdw,35.0,1.0,lower,133.0,57.0,70.0,70.0,57.0,133.0,3,13.336920976638794,None,,,,,0,0,0,0,0,101,101,108,1064.0057570934296,,,,,,,,,,,,,,,,,,,,,,,,,,,,,,,,,,,,,,,,,,,,,,,,,,,,,,,,,,,,,,,,,,,,,,,,,,,,,,,,,133.0,57.0,70.0,70.0,57.0,133.0,1.0,1.1,-640,281,-480,259,-282,267,1063.9888989925385,1063.9889891147614,1063.992512702942,1064.0057570934296,1064.1455447673798,1064.1455447673798,1064.1455447673798,1064.1455447673798,1064.1455447673798,1064.1455447673798,1064.1455447673798,1077.3562343120575,3,13.336920976638794,None,,,,,,,,,,,,,,,,,,65,1,2025-02-21_09h40.26.395,comp,2024.2.4,54.09464457983606,2025-02-21 09h47.09.090431 -0500,
102,102,0,filler_random,None,None,None,None,None,None,None,None,None,None,3,2.241427183151245,None,,,,,0,0,0,0,0,102,102,144,1077.3740651607513,,,,,,,,,,,,,,,,,,,,,,,,,,,,,,,,,,,,,,,,,,,,,,,,,,,,,,,,,,,,,,,,,,,,,,,,,,,,,,,,,140.08345090555048,111.71549123688916,129.30529516834048,153.9260510276666,124.8250792927837,199.8267356488462,2.2,2.21,-229,-280,0,276,273,287,1077.3578386306763,1077.3579177856445,1077.3612220287323,1077.3740651607513,1077.52667593956,1077.52667593956,1077.52667593956,1077.52667593956,1077.52667593956,1077.52667593956,1077.52667593956,1079.6245501041412,3,2.241427183151245,None,,,,,,,,,,,,,,,,,,65,1,2025-02-21_09h40.26.395,comp,2024.2.4,54.09464457983606,2025-02-21 09h47.09.090431 -0500,
103,103,0,critical,dhw,35.0,1.0,upper,127.0,127.0,200.0,125.0,125.0,200.0,2,9.325316905975342,None,,,,,0,0,0,0,0,103,103,49,1079.6422131061554,,,,,,,,,,,,,,,,,,,,,,,,,,,,,,,,,,,,,,,,,,,,,,,,,,,,,,,,,,,,,,,,,,,,,,,,,,,,,,,,,127.0,127.0,200.0,125.0,125.0,200.0,1.0,1.3,258,-285,480,-255,738,-276,1079.6260867118835,1079.6261644363403,1079.6291997432709,1079.6422131061554,1079.7905898094177,1079.7905898094177,1079.7905898094177,1079.7905898094177,1079.7905898094177,1079.7905898094177,1079.7905898094177,1088.9750292301178,2,9.325316905975342,None,,,,,,,,,,,,,,,,,,65,1,2025-02-21_09h40.26.395,comp,2024.2.4,54.09464457983606,2025-02-21 09h47.09.090431 -0500,
104,104,0,filler_square,None,None,None,None,None,None,None,None,None,None,3,8.540505170822144,None,,,,,0,0,0,0,0,104,104,197,1088.9941899776459,,,,,,,,,,,,,,,,,,,,,,,,,,,,,,,,,,,,,,,,,,,,,,,,,,,,,,,,,,,,,,,,,,,,,,,,,,,,,,,,,70.09057277855689,78.97323657400216,59.84133796961158,79.91700270042347,91.0307940058014,91.0307940058014,4.0,4.1,-175,-283,0,9,181,-259,1088.9768414497375,1088.9769189357758,1088.9800691604614,1088.9941899776459,1089.1447978019714,1089.1447978019714,1089.1447978019714,1089.1447978019714,1089.1447978019714,1089.1447978019714,1089.1447978019714,1097.5531029701233,3,8.540505170822144,None,,,,,,,,,,,,,,,,,,65,1,2025-02-21_09h40.26.395,comp,2024.2.4,54.09464457983606,2025-02-21 09h47.09.090431 -0500,
105,105,0,critical,hdw,35.0,2.1,upper,200.0,125.0,127.0,127.0,125.0,200.0,3,10.34106707572937,None,,,,,0,0,0,0,0,105,105,45,1097.570163011551,,,,,,,,,,,,,,,,,,,,,,,,,,,,,,,,,,,,,,,,,,,,,,,,,,,,,,,,,,,,,,,,,,,,,,,,,,,,,,,,,200.0,125.0,127.0,127.0,125.0,200.0,2.1,2.12,-222,-281,0,-256,260,260,1097.5545768737793,1097.554651260376,1097.5576493740082,1097.570163011551,1097.712741136551,1097.712741136551,1097.712741136551,1097.712741136551,1097.712741136551,1097.712741136551,1097.712741136551,1107.9164652824402,3,10.34106707572937,None,,,,,,,,,,,,,,,,,,65,1,2025-02-21_09h40.26.395,comp,2024.2.4,54.09464457983606,2025-02-21 09h47.09.090431 -0500,
106,106,0,critical,hdw,20.0,3.0,upper,200.0,125.0,141.0,141.0,125.0,200.0,3,25.810739994049072,None,,,,,0,0,0,0,0,106,106,117,1107.9323444366455,,,,,,,,,,,,,,,,,,,,,,,,,,,,,,,,,,,,,,,,,,,,,,,,,,,,,,,,,,,,,,,,,,,,,,,,,,,,,,,,,200.0,125.0,141.0,141.0,125.0,200.0,3.0,3.2,-229,-284,0,-19,266,271,1107.9179656505585,1107.9180405139923,1107.921611070633,1107.9323444366455,1108.083827495575,1108.083827495575,1108.083827495575,1108.083827495575,1108.083827495575,1108.083827495575,1108.083827495575,1133.7476320266724,3,25.810739994049072,None,,,,,,,,,,,,,,,,,,65,1,2025-02-21_09h40.26.395,comp,2024.2.4,54.09464457983606,2025-02-21 09h47.09.090431 -0500,
107,107,0,critical,hdw,35.0,4.0,lower,133.0,57.0,70.0,70.0,57.0,133.0,3,3.1960439682006836,None,,,,,0,0,0,0,0,107,107,112,1133.7629606723785,,,,,,,,,,,,,,,,,,,,,,,,,,,,,,,,,,,,,,,,,,,,,,,,,,,,,,,,,,,,,,,,,,,,,,,,,,,,,,,,,133.0,57.0,70.0,70.0,57.0,133.0,4.0,4.2,-160,12,0,-275,198,14,1133.7490649223328,1133.7491433620453,1133.752154827118,1133.7629606723785,1133.9078459739685,1133.9078459739685,1133.9078459739685,1133.9078459739685,1133.9078459739685,1133.9078459739685,1133.9078459739685,1136.9748754501343,3,3.1960439682006836,None,,,,,,,,,,,,,,,,,,65,1,2025-02-21_09h40.26.395,comp,2024.2.4,54.09464457983606,2025-02-21 09h47.09.090431 -0500,
108,108,0,filler_random,None,None,None,None,None,None,None,None,None,None,2,1.99367094039917,None,,,,,0,0,0,0,0,108,108,155,1136.9897692203522,,,,,,,,,,,,,,,,,,,,,,,,,,,,,,,,,,,,,,,,,,,,,,,,,,,,,,,,,,,,,,,,,,,,,,,,,,,,,,,,,92.44517310897456,72.68936794057015,168.36362814244592,191.13740408329872,90.3296422345654,136.4906362517957,1.0,1.3,252,-274,480,-286,740,-280,1136.97682595253,1136.9769034385681,1136.980628490448,1136.9897692203522,1137.1432013511658,1137.1432013511658,1137.1432013511658,1137.1432013511658,1137.1432013511658,1137.1432013511658,1137.1432013511658,1138.992841243744,2,1.99367094039917,None,,,,,,,,,,,,,,,,,,65,1,2025-02-21_09h40.26.395,comp,2024.2.4,54.09464457983606,2025-02-21 09h47.09.090431 -0500,
109,109,0,filler_square,None,None,None,None,None,None,None,None,None,None,3,3.1645731925964355,None,,,,,0,0,0,0,0,109,109,176,1139.0103633403778,,,,,,,,,,,,,,,,,,,,,,,,,,,,,,,,,,,,,,,,,,,,,,,,,,,,,,,,,,,,,,,,,,,,,,,,,,,,,,,,,75.37075311771831,171.58938280320706,64.21585634053628,57.35962875929666,183.19563497483264,183.19563497483264,2.1,2.11,-210,269,0,266,216,-264,1138.9949460029602,1138.9950256347656,1138.9991943836212,1139.0103633403778,1139.175909280777,1139.175909280777,1139.175909280777,1139.175909280777,1139.175909280777,1139.175909280777,1139.175909280777,1142.1773436069489,3,3.1645731925964355,None,,,,,,,,,,,,,,,,,,65,1,2025-02-21_09h40.26.395,comp,2024.2.4,54.09464457983606,2025-02-21 09h47.09.090431 -0500,
110,110,0,critical,wdh,35.0,2.1,upper,125.0,200.0,127.0,127.0,200.0,125.0,1,2.125476837158203,None,,,,,0,0,0,0,0,110,110,33,1142.1940743923187,,,,,,,,,,,,,,,,,,,,,,,,,,,,,,,,,,,,,,,,,,,,,,,,,,,,,,,,,,,,,,,,,,,,,,,,,,,,,,,,,125.0,200.0,127.0,127.0,200.0,125.0,2.1,2.12,-260,-280,0,-263,222,259,1142.1789150238037,1142.1789927482605,1142.1823842525482,1142.1940743923187,1142.3444344997406,1142.3444344997406,1142.3444344997406,1142.3444344997406,1142.3444344997406,1142.3444344997406,1142.3444344997406,1144.327831029892,1,2.125476837158203,None,,,,,,,,,,,,,,,,,,65,1,2025-02-21_09h40.26.395,comp,2024.2.4,54.09464457983606,2025-02-21 09h47.09.090431 -0500,
111,111,0,critical,dwh,20.0,2.1,lower,78.0,78.0,57.0,133.0,133.0,57.0,2,9.70184063911438,None,,,,,0,0,0,0,0,111,111,6,1144.3449709415436,,,,,,,,,,,,,,,,,,,,,,,,,,,,,,,,,,,,,,,,,,,,,,,,,,,,,,,,,,,,,,,,,,,,,,,,,,,,,,,,,78.0,78.0,57.0,133.0,133.0,57.0,2.1,2.12,-202,-278,0,-282,191,263,1144.3294026851654,1144.3294818401337,1144.3334152698517,1144.3449709415436,1144.4995346069336,1144.4995346069336,1144.4995346069336,1144.4995346069336,1144.4995346069336,1144.4995346069336,1144.4995346069336,1154.050953388214,2,9.70184063911438,None,,,,,,,,,,,,,,,,,,65,1,2025-02-21_09h40.26.395,comp,2024.2.4,54.09464457983606,2025-02-21 09h47.09.090431 -0500,
112,112,0,filler_random,None,None,None,None,None,None,None,None,None,None,2,12.804066896438599,None,,,,,0,0,0,0,0,112,112,156,1154.066752910614,,,,,,,,,,,,,,,,,,,,,,,,,,,,,,,,,,,,,,,,,,,,,,,,,,,,,,,,,,,,,,,,,,,,,,,,,,,,,,,,,64.06130075878103,115.27888095047363,157.59577622323832,73.10306086825207,139.14519327039227,93.5418412132272,4.0,4.2,-190,-15,0,-271,179,-12,1154.0528013706207,1154.0529119968414,1154.0560388565063,1154.066752910614,1154.2167346477509,1154.2167346477509,1154.2167346477509,1154.2167346477509,1154.2167346477509,1154.2167346477509,1154.2167346477509,1166.888288974762,2,12.804066896438599,None,,,,,,,,,,,,,,,,,,65,1,2025-02-21_09h40.26.395,comp,2024.2.4,54.09464457983606,2025-02-21 09h47.09.090431 -0500,
113,113,0,critical,hwd,20.0,3.0,upper,200.0,125.0,125.0,200.0,141.0,141.0,2,3.85093092918396,None,,,,,0,0,0,0,0,113,113,105,1166.9084124565125,,,,,,,,,,,,,,,,,,,,,,,,,,,,,,,,,,,,,,,,,,,,,,,,,,,,,,,,,,,,,,,,,,,,,,,,,,,,,,,,,200.0,125.0,125.0,200.0,141.0,141.0,3.0,3.2,-258,-257,0,5,266,286,1166.8900890350342,1166.8901686668396,1166.8932032585144,1166.9084124565125,1167.0498225688934,1167.0498225688934,1167.0498225688934,1167.0498225688934,1167.0498225688934,1167.0498225688934,1167.0498225688934,1170.7691848278046,2,3.85093092918396,None,,,,,,,,,,,,,,,,,,65,1,2025-02-21_09h40.26.395,comp,2024.2.4,54.09464457983606,2025-02-21 09h47.09.090431 -0500,
114,114,0,filler_random,None,None,None,None,None,None,None,None,None,None,3,5.7655627727508545,None,,,,,0,0,0,0,0,114,114,160,1170.7851784229279,,,,,,,,,,,,,,,,,,,,,,,,,,,,,,,,,,,,,,,,,,,,,,,,,,,,,,,,,,,,,,,,,,,,,,,,,,,,,,,,,67.98580523865112,130.66607139639962,77.9087452601744,150.06511828726738,141.42010579863503,88.635498658933,2.1,2.11,-236,285,0,279,215,-252,1170.7708241939545,1170.7709214687347,1170.7743501663208,1170.7851784229279,1170.9391977787018,1170.9391977787018,1170.9391977787018,1170.9391977787018,1170.9391977787018,1170.9391977787018,1170.9391977787018,1176.5542929172516,3,5.7655627727508545,None,,,,,,,,,,,,,,,,,,65,1,2025-02-21_09h40.26.395,comp,2024.2.4,54.09464457983606,2025-02-21 09h47.09.090431 -0500,
115,115,0,filler_square,None,None,None,None,None,None,None,None,None,None,3,2.3486671447753906,None,,,,,0,0,0,0,0,115,115,188,1176.57040143013,,,,,,,,,,,,,,,,,,,,,,,,,,,,,,,,,,,,,,,,,,,,,,,,,,,,,,,,,,,,,,,,,,,,,,,,,,,,,,,,,63.123201794433,99.44056500596733,166.90081509193607,99.0849384550734,173.33103169609177,173.33103169609177,4.0,4.1,-195,-287,0,9,232,-273,1176.556046962738,1176.556123495102,1176.5596761703491,1176.57040143013,1176.719964981079,1176.719964981079,1176.719964981079,1176.719964981079,1176.719964981079,1176.719964981079,1176.719964981079,1178.9401504993439,3,2.3486671447753906,None,,,,,,,,,,,,,,,,,,65,1,2025-02-21_09h40.26.395,comp,2024.2.4,54.09464457983606,2025-02-21 09h47.09.090431 -0500,
116,116,0,critical,dwh,35.0,2.1,lower,70.0,70.0,57.0,133.0,133.0,57.0,2,3.4417269229888916,None,,,,,0,0,0,0,0,116,116,4,1178.958161830902,,,,,,,,,,,,,,,,,,,,,,,,,,,,,,,,,,,,,,,,,,,,,,,,,,,,,,,,,,,,,,,,,,,,,,,,,,,,,,,,,70.0,70.0,57.0,133.0,133.0,57.0,2.1,2.12,-198,-252,0,-279,191,263,1178.941882610321,1178.9420156478882,1178.9456288814545,1178.958161830902,1179.1049897670746,1179.1049897670746,1179.1049897670746,1179.1049897670746,1179.1049897670746,1179.1049897670746,1179.1049897670746,1182.404498577118,2,3.4417269229888916,None,,,,,,,,,,,,,,,,,,65,1,2025-02-21_09h40.26.395,comp,2024.2.4,54.09464457983606,2025-02-21 09h47.09.090431 -0500,
117,117,0,critical,dwh,35.0,3.0,upper,127.0,127.0,125.0,200.0,200.0,125.0,2,4.752989053726196,None,,,,,0,0,0,0,0,117,117,63,1182.4219899177551,,,,,,,,,,,,,,,,,,,,,,,,,,,,,,,,,,,,,,,,,,,,,,,,,,,,,,,,,,,,,,,,,,,,,,,,,,,,,,,,,127.0,127.0,125.0,200.0,200.0,125.0,3.0,3.1,-260,265,0,-7,258,-266,1182.4061663150787,1182.4062957763672,1182.4101445674896,1182.4219899177551,1182.5768911838531,1182.5768911838531,1182.5768911838531,1182.5768911838531,1182.5768911838531,1182.5768911838531,1182.5768911838531,1187.191288948059,2,4.752989053726196,None,,,,,,,,,,,,,,,,,,65,1,2025-02-21_09h40.26.395,comp,2024.2.4,54.09464457983606,2025-02-21 09h47.09.090431 -0500,
118,118,0,filler_random,None,None,None,None,None,None,None,None,None,None,2,1.9523513317108154,None,,,,,0,0,0,0,0,118,118,135,1187.2070860862732,,,,,,,,,,,,,,,,,,,,,,,,,,,,,,,,,,,,,,,,,,,,,,,,,,,,,,,,,,,,,,,,,,,,,,,,,,,,,,,,,106.01695969325809,147.62199826079444,161.63486871380908,195.1127402565282,139.88848175196256,184.72799535485478,4.0,4.1,-267,-270,0,12,286,-276,1187.193127155304,1187.1932365894318,1187.1967782974243,1187.2070860862732,1187.357318162918,1187.357318162918,1187.357318162918,1187.357318162918,1187.357318162918,1187.357318162918,1187.357318162918,1189.1621160507202,2,1.9523513317108154,None,,,,,,,,,,,,,,,,,,65,1,2025-02-21_09h40.26.395,comp,2024.2.4,54.09464457983606,2025-02-21 09h47.09.090431 -0500,
119,119,0,filler_square,None,None,None,None,None,None,None,None,None,None,3,16.556050777435303,None,,,,,0,0,0,0,0,119,119,195,1189.1790504455566,,,,,,,,,,,,,,,,,,,,,,,,,,,,,,,,,,,,,,,,,,,,,,,,,,,,,,,,,,,,,,,,,,,,,,,,,,,,,,,,,58.27111557473833,68.2229482080662,57.995486768844415,57.208799980412884,73.64712162894536,73.64712162894536,3.0,3.2,-159,-268,0,10,161,286,1189.1642618179321,1189.1643424034119,1189.1679618358612,1189.1790504455566,1189.3266563415527,1189.3266563415527,1189.3266563415527,1189.3266563415527,1189.3266563415527,1189.3266563415527,1189.3266563415527,1205.7376713752747,3,16.556050777435303,None,,,,,,,,,,,,,,,,,,65,1,2025-02-21_09h40.26.395,comp,2024.2.4,54.09464457983606,2025-02-21 09h47.09.090431 -0500,
120,120,0,critical,whd,20.0,1.0,lower,57.0,133.0,133.0,57.0,78.0,78.0,2,10.971080303192139,None,,,,,0,0,0,0,0,120,120,90,1205.7564544677734,,,,,,,,,,,,,,,,,,,,,,,,,,,,,,,,,,,,,,,,,,,,,,,,,,,,,,,,,,,,,,,,,,,,,,,,,,,,,,,,,57.0,133.0,133.0,57.0,78.0,78.0,1.0,1.1,-671,255,-480,251,-316,275,1205.7391934394836,1205.7392716407776,1205.742326259613,1205.7564544677734,1205.8928434848785,1205.8928434848785,1205.8928434848785,1205.8928434848785,1205.8928434848785,1205.8928434848785,1205.8928434848785,1216.7340443134308,2,10.971080303192139,None,,,,,,,,,,,,,,,,,,65,1,2025-02-21_09h40.26.395,comp,2024.2.4,54.09464457983606,2025-02-21 09h47.09.090431 -0500,
121,121,0,critical,whd,20.0,2.1,lower,57.0,133.0,133.0,57.0,78.0,78.0,2,22.256380796432495,None,,,,,0,0,0,0,0,121,121,14,1216.75061917305,,,,,,,,,,,,,,,,,,,,,,,,,,,,,,,,,,,,,,,,,,,,,,,,,,,,,,,,,,,,,,,,,,,,,,,,,,,,,,,,,57.0,133.0,133.0,57.0,78.0,78.0,2.1,2.12,-191,-254,0,-289,164,267,1216.7356042861938,1216.7356822490692,1216.7398779392242,1216.75061917305,1216.9026036262512,1216.9026036262512,1216.9026036262512,1216.9026036262512,1216.9026036262512,1216.9026036262512,1216.9026036262512,1239.0237975120544,2,22.256380796432495,None,,,,,,,,,,,,,,,,,,65,1,2025-02-21_09h40.26.395,comp,2024.2.4,54.09464457983606,2025-02-21 09h47.09.090431 -0500,
122,122,0,filler_square,None,None,None,None,None,None,None,None,None,None,3,9.695453643798828,None,,,,,0,0,0,0,0,122,122,198,1239.0397799015045,,,,,,,,,,,,,,,,,,,,,,,,,,,,,,,,,,,,,,,,,,,,,,,,,,,,,,,,,,,,,,,,,,,,,,,,,,,,,,,,,116.40270223117653,86.31657990135069,102.34673566977567,72.65219092319153,120.82690559321497,120.82690559321497,4.0,4.2,-175,11,0,-260,193,-8,1239.025729417801,1239.0258693695068,1239.0293898582458,1239.0397799015045,1239.1891474723816,1239.1891474723816,1239.1891474723816,1239.1891474723816,1239.1891474723816,1239.1891474723816,1239.1891474723816,1248.7435684204102,3,9.695453643798828,None,,,,,,,,,,,,,,,,,,65,1,2025-02-21_09h40.26.395,comp,2024.2.4,54.09464457983606,2025-02-21 09h47.09.090431 -0500,
123,123,0,critical,whd,35.0,1.0,lower,57.0,133.0,133.0,57.0,70.0,70.0,1,5.822169542312622,None,,,,,0,0,0,0,0,123,123,84,1248.7606799602509,,,,,,,,,,,,,,,,,,,,,,,,,,,,,,,,,,,,,,,,,,,,,,,,,,,,,,,,,,,,,,,,,,,,,,,,,,,,,,,,,57.0,133.0,133.0,57.0,70.0,70.0,1.0,1.2,-191,-10,0,17,160,17,1248.7450716495514,1248.7451486587524,1248.7493979930878,1248.7606799602509,1248.9172530174255,1248.9172530174255,1248.9172530174255,1248.9172530174255,1248.9172530174255,1248.9172530174255,1248.9172530174255,1254.5945463180542,1,5.822169542312622,None,,,,,,,,,,,,,,,,,,65,1,2025-02-21_09h40.26.395,comp,2024.2.4,54.09464457983606,2025-02-21 09h47.09.090431 -0500,
124,124,0,catch,None,None,None,None,None,None,None,None,None,None,3,1.759974479675293,None,,,,,0,0,0,0,0,124,124,128,1254.6154861450195,,,,,,,,,,,,,,,,,,,,,,,,,,,,,,,,,,,,,,,,,,,,,,,,,,,,,,,,,,,,,,,,,,,,,,,,,,,,,,,,,62,128,111,79,148,177,3.0,3.1,-200,279,0,12,224,-258,1254.5964694023132,1254.5965490341187,1254.599826335907,1254.6154861450195,1254.762097120285,1254.762097120285,1254.762097120285,1254.762097120285,1254.762097120285,1254.762097120285,1254.762097120285,1256.377398967743,3,1.759974479675293,None,,,,,,,,,,,,,,,,,,65,1,2025-02-21_09h40.26.395,comp,2024.2.4,54.09464457983606,2025-02-21 09h47.09.090431 -0500,
125,125,0,critical,hdw,35.0,2.1,upper,200.0,125.0,127.0,127.0,125.0,200.0,1,4.054715394973755,None,,,,,0,0,0,0,0,125,125,21,1256.39226436615,,,,,,,,,,,,,,,,,,,,,,,,,,,,,,,,,,,,,,,,,,,,,,,,,,,,,,,,,,,,,,,,,,,,,,,,,,,,,,,,,200.0,125.0,127.0,127.0,125.0,200.0,2.1,2.12,-222,-286,0,-282,260,260,1256.3789176940918,1256.3789954185486,1256.3820116519928,1256.39226436615,1256.5320916175842,1256.5320916175842,1256.5320916175842,1256.5320916175842,1256.5320916175842,1256.5320916175842,1256.5320916175842,1260.4641320705414,1,4.054715394973755,None,,,,,,,,,,,,,,,,,,65,1,2025-02-21_09h40.26.395,comp,2024.2.4,54.09464457983606,2025-02-21 09h47.09.090431 -0500,
126,126,0,critical,wdh,20.0,1.0,upper,125.0,200.0,141.0,141.0,200.0,125.0,3,8.42240047454834,None,,,,,0,0,0,0,0,126,126,79,1260.4805636405945,,,,,,,,,,,,,,,,,,,,,,,,,,,,,,,,,,,,,,,,,,,,,,,,,,,,,,,,,,,,,,,,,,,,,,,,,,,,,,,,,125.0,200.0,141.0,141.0,200.0,125.0,1.0,1.2,-266,5,0,8,229,-6,1260.4656915664673,1260.4658029079437,1260.4700467586517,1260.4805636405945,1260.6219291687012,1260.6219291687012,1260.6219291687012,1260.6219291687012,1260.6219291687012,1260.6219291687012,1260.6219291687012,1268.916079044342,3,8.42240047454834,None,,,,,,,,,,,,,,,,,,65,1,2025-02-21_09h40.26.395,comp,2024.2.4,54.09464457983606,2025-02-21 09h47.09.090431 -0500,
127,127,0,critical,dhw,20.0,2.1,upper,141.0,141.0,200.0,125.0,125.0,200.0,3,1.8828635215759277,None,,,,,0,0,0,0,0,127,127,3,1268.9320178031921,,,,,,,,,,,,,,,,,,,,,,,,,,,,,,,,,,,,,,,,,,,,,,,,,,,,,,,,,,,,,,,,,,,,,,,,,,,,,,,,,141.0,141.0,200.0,125.0,125.0,200.0,2.1,2.11,-229,271,0,287,258,-260,1268.9175531864166,1268.9176332950592,1268.9210214614868,1268.9320178031921,1269.0888094902039,1269.0888094902039,1269.0888094902039,1269.0888094902039,1269.0888094902039,1269.0888094902039,1269.0888094902039,1270.8171288967133,3,1.8828635215759277,None,,,,,,,,,,,,,,,,,,65,1,2025-02-21_09h40.26.395,comp,2024.2.4,54.09464457983606,2025-02-21 09h47.09.090431 -0500,
128,128,0,critical,dwh,20.0,2.1,upper,141.0,141.0,125.0,200.0,200.0,125.0,2,3.31428599357605,None,,,,,0,0,0,0,0,128,128,31,1270.8316414356232,,,,,,,,,,,,,,,,,,,,,,,,,,,,,,,,,,,,,,,,,,,,,,,,,,,,,,,,,,,,,,,,,,,,,,,,,,,,,,,,,141.0,141.0,125.0,200.0,200.0,125.0,2.1,2.12,-266,-254,0,-250,258,262,1270.8186042308807,1270.818680047989,1270.822098493576,1270.8316414356232,1270.9708244800568,1270.9708244800568,1270.9708244800568,1270.9708244800568,1270.9708244800568,1270.9708244800568,1270.9708244800568,1274.1592268943787,2,3.31428599357605,None,,,,,,,,,,,,,,,,,,65,1,2025-02-21_09h40.26.395,comp,2024.2.4,54.09464457983606,2025-02-21 09h47.09.090431 -0500,
129,129,0,critical,wdh,20.0,3.0,lower,57.0,133.0,78.0,78.0,133.0,57.0,1,8.071377992630005,None,,,,,0,0,0,0,0,129,129,80,1274.175787448883,,,,,,,,,,,,,,,,,,,,,,,,,,,,,,,,,,,,,,,,,,,,,,,,,,,,,,,,,,,,,,,,,,,,,,,,,,,,,,,,,57.0,133.0,78.0,78.0,133.0,57.0,3.0,3.1,-202,274,0,-5,164,-284,1274.1608817577362,1274.1609563827515,1274.164579153061,1274.175787448883,1274.316962480545,1274.316962480545,1274.316962480545,1274.316962480545,1274.316962480545,1274.316962480545,1274.316962480545,1282.262494802475,1,8.071377992630005,None,,,,,,,,,,,,,,,,,,65,1,2025-02-21_09h40.26.395,comp,2024.2.4,54.09464457983606,2025-02-21 09h47.09.090431 -0500,
130,130,0,critical,hdw,35.0,3.0,upper,200.0,125.0,127.0,127.0,125.0,200.0,3,4.542601823806763,None,,,,,0,0,0,0,0,130,130,111,1282.2803511619568,,,,,,,,,,,,,,,,,,,,,,,,,,,,,,,,,,,,,,,,,,,,,,,,,,,,,,,,,,,,,,,,,,,,,,,,,,,,,,,,,200.0,125.0,127.0,127.0,125.0,200.0,3.0,3.2,-222,-251,0,-2,260,253,1282.2641603946686,1282.2642376422882,1282.2676095962524,1282.2803511619568,1282.4220690727234,1282.4220690727234,1282.4220690727234,1282.4220690727234,1282.4220690727234,1282.4220690727234,1282.4220690727234,1286.8386030197144,3,4.542601823806763,None,,,,,,,,,,,,,,,,,,65,1,2025-02-21_09h40.26.395,comp,2024.2.4,54.09464457983606,2025-02-21 09h47.09.090431 -0500,
131,131,0,catch,None,None,None,None,None,None,None,None,None,None,3,1.978285789489746,None,,,,,0,0,0,0,0,131,131,124,1286.8533010482788,,,,,,,,,,,,,,,,,,,,,,,,,,,,,,,,,,,,,,,,,,,,,,,,,,,,,,,,,,,,,,,,,,,,,,,,,,,,,,,,,93,97,73,117,172,153,1.0,1.3,277,-280,480,-290,711,-270,1286.8405826091766,1286.8406615257263,1286.843979358673,1286.8533010482788,1287.0028519630432,1287.0028519630432,1287.0028519630432,1287.0028519630432,1287.0028519630432,1287.0028519630432,1287.0028519630432,1288.8396208286285,3,1.978285789489746,None,,,,,,,,,,,,,,,,,,65,1,2025-02-21_09h40.26.395,comp,2024.2.4,54.09464457983606,2025-02-21 09h47.09.090431 -0500,
132,132,0,critical,whd,35.0,2.1,lower,57.0,133.0,133.0,57.0,70.0,70.0,1,24.247406244277954,None,,,,,0,0,0,0,0,132,132,12,1288.8554890155792,,,,,,,,,,,,,,,,,,,,,,,,,,,,,,,,,,,,,,,,,,,,,,,,,,,,,,,,,,,,,,,,,,,,,,,,,,,,,,,,,57.0,133.0,133.0,57.0,70.0,70.0,2.1,2.11,-191,266,0,285,160,-278,1288.8411965370178,1288.841274023056,1288.8447983264923,1288.8554890155792,1289.0053880214691,1289.0053880214691,1289.0053880214691,1289.0053880214691,1289.0053880214691,1289.0053880214691,1289.0053880214691,1313.1136968135834,1,24.247406244277954,None,,,,,,,,,,,,,,,,,,65,1,2025-02-21_09h40.26.395,comp,2024.2.4,54.09464457983606,2025-02-21 09h47.09.090431 -0500,
133,133,0,critical,wdh,35.0,2.1,lower,57.0,133.0,70.0,70.0,133.0,57.0,3,13.772576332092285,None,,,,,0,0,0,0,0,133,133,8,1313.1304857730865,,,,,,,,,,,,,,,,,,,,,,,,,,,,,,,,,,,,,,,,,,,,,,,,,,,,,,,,,,,,,,,,,,,,,,,,,,,,,,,,,57.0,133.0,70.0,70.0,133.0,57.0,2.1,2.11,-198,266,0,260,160,-269,1313.1152176856995,1313.1152982711792,1313.1188657283783,1313.1304857730865,1313.2806344032288,1313.2806344032288,1313.2806344032288,1313.2806344032288,1313.2806344032288,1313.2806344032288,1313.2806344032288,1326.9190168380737,3,13.772576332092285,None,,,,,,,,,,,,,,,,,,65,1,2025-02-21_09h40.26.395,comp,2024.2.4,54.09464457983606,2025-02-21 09h47.09.090431 -0500,
134,134,0,filler_random,None,None,None,None,None,None,None,None,None,None,3,4.1004743576049805,None,,,,,0,0,0,0,0,134,134,161,1326.9385316371918,,,,,,,,,,,,,,,,,,,,,,,,,,,,,,,,,,,,,,,,,,,,,,,,,,,,,,,,,,,,,,,,,,,,,,,,,,,,,,,,,62.42610218611902,96.58996138755204,123.59753499560208,87.80465402984211,111.70519488892913,157.05533096271978,2.2,2.21,-188,-285,0,268,218,288,1326.9206593036652,1326.920790195465,1326.9243113994598,1326.9385316371918,1327.0838339328766,1327.0838339328766,1327.0838339328766,1327.0838339328766,1327.0838339328766,1327.0838339328766,1327.0838339328766,1331.0539360046387,3,4.1004743576049805,None,,,,,,,,,,,,,,,,,,65,1,2025-02-21_09h40.26.395,comp,2024.2.4,54.09464457983606,2025-02-21 09h47.09.090431 -0500,
135,135,0,critical,hwd,20.0,2.1,upper,200.0,125.0,125.0,200.0,141.0,141.0,3,11.025971412658691,None,,,,,0,0,0,0,0,135,135,19,1331.0694901943207,,,,,,,,,,,,,,,,,,,,,,,,,,,,,,,,,,,,,,,,,,,,,,,,,,,,,,,,,,,,,,,,,,,,,,,,,,,,,,,,,200.0,125.0,125.0,200.0,141.0,141.0,2.1,2.12,-258,-287,0,-288,266,273,1331.0555894374847,1331.0557310581207,1331.0592184066772,1331.0694901943207,1331.2216811180115,1331.2216811180115,1331.2216811180115,1331.2216811180115,1331.2216811180115,1331.2216811180115,1331.2216811180115,1342.1050927639008,3,11.025971412658691,None,,,,,,,,,,,,,,,,,,65,1,2025-02-21_09h40.26.395,comp,2024.2.4,54.09464457983606,2025-02-21 09h47.09.090431 -0500,
136,136,0,critical,wdh,35.0,2.1,lower,57.0,133.0,70.0,70.0,133.0,57.0,1,3.7258548736572266,None,,,,,0,0,0,0,0,136,136,32,1342.1215913295746,,,,,,,,,,,,,,,,,,,,,,,,,,,,,,,,,,,,,,,,,,,,,,,,,,,,,,,,,,,,,,,,,,,,,,,,,,,,,,,,,57.0,133.0,70.0,70.0,133.0,57.0,2.1,2.12,-198,-269,0,-272,160,255,1342.1065962314606,1342.1066737174988,1342.1099059581757,1342.1215913295746,1342.272723197937,1342.272723197937,1342.272723197937,1342.272723197937,1342.272723197937,1342.272723197937,1342.272723197937,1345.8561506271362,1,3.7258548736572266,None,,,,,,,,,,,,,,,,,,65,1,2025-02-21_09h40.26.395,comp,2024.2.4,54.09464457983606,2025-02-21 09h47.09.090431 -0500,
137,137,0,filler_random,None,None,None,None,None,None,None,None,None,None,3,1.8542330265045166,None,,,,,0,0,0,0,0,137,137,145,1345.872859954834,,,,,,,,,,,,,,,,,,,,,,,,,,,,,,,,,,,,,,,,,,,,,,,,,,,,,,,,,,,,,,,,,,,,,,,,,,,,,,,,,180.55598468998093,137.52238685610428,77.88718408498235,173.6084046854768,183.47518204114965,195.2052548135654,3.0,3.2,-252,-277,0,10,280,257,1345.8578996658325,1345.8579812049866,1345.8619813919067,1345.872859954834,1346.0268046855927,1346.0268046855927,1346.0268046855927,1346.0268046855927,1346.0268046855927,1346.0268046855927,1346.0268046855927,1347.7413403987885,3,1.8542330265045166,None,,,,,,,,,,,,,,,,,,65,1,2025-02-21_09h40.26.395,comp,2024.2.4,54.09464457983606,2025-02-21 09h47.09.090431 -0500,
138,138,0,catch,None,None,None,None,None,None,None,None,None,None,1,2.2501988410949707,None,,,,,0,0,0,0,0,138,138,121,1347.7569420337677,,,,,,,,,,,,,,,,,,,,,,,,,,,,,,,,,,,,,,,,,,,,,,,,,,,,,,,,,,,,,,,,,,,,,,,,,,,,,,,,,195,130,126,64,68,122,3.0,3.2,-193,-255,0,1,189,289,1347.7432878017426,1347.743364572525,1347.746609210968,1347.7569420337677,1347.9083859920502,1347.9083859920502,1347.9083859920502,1347.9083859920502,1347.9083859920502,1347.9083859920502,1347.9083859920502,1350.0227508544922,1,2.2501988410949707,None,,,,,,,,,,,,,,,,,,65,1,2025-02-21_09h40.26.395,comp,2024.2.4,54.09464457983606,2025-02-21 09h47.09.090431 -0500,
139,139,0,filler_random,None,None,None,None,None,None,None,None,None,None,1,2.4721100330352783,None,,,,,0,0,0,0,0,139,139,153,1350.0395607948303,,,,,,,,,,,,,,,,,,,,,,,,,,,,,,,,,,,,,,,,,,,,,,,,,,,,,,,,,,,,,,,,,,,,,,,,,,,,,,,,,147.52279894234755,167.44393924060535,102.41493850194206,111.71809798236075,60.82799172456415,145.03253618617083,4.0,4.2,-236,-8,0,-287,224,16,1350.0244023799896,1350.0244793891907,1350.0275106430054,1350.0395607948303,1350.1938354969025,1350.1938354969025,1350.1938354969025,1350.1938354969025,1350.1938354969025,1350.1938354969025,1350.1938354969025,1352.5300550460815,1,2.4721100330352783,None,,,,,,,,,,,,,,,,,,65,1,2025-02-21_09h40.26.395,comp,2024.2.4,54.09464457983606,2025-02-21 09h47.09.090431 -0500,
140,140,0,critical,dhw,35.0,3.0,lower,70.0,70.0,133.0,57.0,57.0,133.0,3,6.453552007675171,None,,,,,0,0,0,0,0,140,140,50,1352.545527935028,,,,,,,,,,,,,,,,,,,,,,,,,,,,,,,,,,,,,,,,,,,,,,,,,,,,,,,,,,,,,,,,,,,,,,,,,,,,,,,,,70.0,70.0,133.0,57.0,57.0,133.0,3.0,3.1,-160,273,0,17,191,-285,1352.5316274166107,1352.5317254066467,1352.5351958274841,1352.545527935028,1352.6930537223816,1352.6930537223816,1352.6930537223816,1352.6930537223816,1352.6930537223816,1352.6930537223816,1352.6930537223816,1359.0133457183838,3,6.453552007675171,None,,,,,,,,,,,,,,,,,,65,1,2025-02-21_09h40.26.395,comp,2024.2.4,54.09464457983606,2025-02-21 09h47.09.090431 -0500,
141,141,0,critical,whd,35.0,2.1,lower,57.0,133.0,133.0,57.0,70.0,70.0,1,5.370097637176514,None,,,,,0,0,0,0,0,141,141,36,1359.029174566269,,,,,,,,,,,,,,,,,,,,,,,,,,,,,,,,,,,,,,,,,,,,,,,,,,,,,,,,,,,,,,,,,,,,,,,,,,,,,,,,,57.0,133.0,133.0,57.0,70.0,70.0,2.1,2.11,-191,267,0,271,160,-284,1359.014809846878,1359.0148866176605,1359.0180175304413,1359.029174566269,1359.1783668994904,1359.1783668994904,1359.1783668994904,1359.1783668994904,1359.1783668994904,1359.1783668994904,1359.1783668994904,1364.414454460144,1,5.370097637176514,None,,,,,,,,,,,,,,,,,,65,1,2025-02-21_09h40.26.395,comp,2024.2.4,54.09464457983606,2025-02-21 09h47.09.090431 -0500,
