thisN,thisTrialN,thisRepN,effect,order,distance,config,diag,h_1,w_1,h_2,w_2,h_3,w_3,rect_choice.keys,rect_choice.rt,rect_choice.duration,instructions_loop.thisRepN,instructions_loop.thisTrialN,instructions_loop.thisN,instructions_loop.thisIndex,blocks.thisRepN,blocks.thisTrialN,blocks.thisN,blocks.thisIndex,trials.thisRepN,trials.thisTrialN,trials.thisN,trials.thisIndex,thisRow.t,notes,consent.started,agree_button.started,decline_button.started,consent_img.started,mouse.started,consent.stopped,agree_button.numClicks,agree_button.timesOn,agree_button.timesOff,decline_button.numClicks,decline_button.timesOn,decline_button.timesOff,mouse.x,mouse.y,mouse.leftButton,mouse.midButton,mouse.rightButton,mouse.time,mouse.clicked_name,exp_params.started,exp_params.stopped,welcome.started,welcome_text.started,welcome_text.stopped,welcome.stopped,instructions_1.started,instructions_1_text_1.started,instructions_1_text_2.started,key_resp.started,instructions_1.stopped,instructions_loop.key_resp.keys,instructions_loop.key_resp.rt,instructions_loop.key_resp.duration,instructions_2.started,instructions_2_text_1.started,instructions_2_text_2.started,key_resp_2.started,instructions_2.stopped,instructions_loop.key_resp_2.keys,instructions_loop.key_resp_2.rt,instructions_loop.key_resp_2.duration,instructions_3.started,instructions_3_text_1.started,r1_instr3.started,r2_instr3.started,r3_instr3.started,r1_instr3_label.started,r2_instr3_label.started,r3_instr3_label.started,instructions_3_text_3.started,instructions_3_text_4.started,key_resp_3.started,instructions_3.stopped,instructions_loop.key_resp_3.keys,instructions_loop.key_resp_3.rt,instructions_loop.key_resp_3.duration,instructions_4.started,instructions_4_text_1.started,instructions_4_text_3.started,instructions_4_text_2.started,key_resp_4.started,instructions_4.stopped,instructions_loop.key_resp_4.keys,instructions_loop.key_resp_4.rt,instructions_loop.key_resp_4.duration,instructions_5.started,instructions_5_text_1.started,instructions_5_text_2.started,key_resp_5.started,instructions_5.stopped,instructions_loop.key_resp_5.keys,instructions_loop.key_resp_5.rt,instructions_loop.key_resp_5.duration,start_exp.started,start_exp_text.started,key_resp_6.started,start_exp.stopped,key_resp_6.keys,key_resp_6.rt,key_resp_6.duration,h_1_tmp,w_1_tmp,h_2_tmp,w_2_tmp,h_3_tmp,w_3_tmp,config_tmp,config_tmp_1,r_1_x,r_1_y,r_2_x,r_2_y,r_3_x,r_3_y,pre_trial.started,pre_trial.stopped,choice_trial.started,rect_choice.started,r_1.started,r_2.started,r_3.started,r_1_label.started,r_2_label.started,r_3_label.started,prompt.started,choice_trial.stopped,trials.rect_choice.keys,trials.rect_choice.rt,trials.rect_choice.duration,end_block.started,end_block_text.started,end_block.stopped,end.started,end_text.started,key_resp_7.started,end.stopped,key_resp_7.keys,key_resp_7.rt,key_resp_7.duration,debriefing.started,debrief_form.started,end_debrief.started,debriefing.stopped,end_debrief.keys,end_debrief.rt,end_debrief.duration,participant,computer,date,expName,psychopyVersion,frameRate,expStart,
,,,,,,,,,,,,,,,,,,,,,,,,,,,,,,,0.015000104904174805,0.035387277603149414,0.035387277603149414,0.035387277603149414,0.014778375625610352,54.46997952461243,1,[54.43189001083374],[54.431910276412964],0,,,[-63.0],[-519.0],[1],[0],[0],[54.45460343360901],['agree_button'],,,,,,,,,,,,,,,,,,,,,,,,,,,,,,,,,,,,,,,,,,,,,,,,,,,,,,,,,,,,,,,,,,,,,,,,,,,,,,,,,,,,,,,,,,,,,,,,,,,,,,,,,,,,66,2,2025-02-21_09h40.57.369,comp,2024.2.4,53.97192479478901,2025-02-21 09h52.54.898330 -0500,
,,,,,,,,,,,,,,,,,,,,,,,,,,,,,,,,,,,,,,,,,,,,,,,,,,54.47043585777283,54.47049522399902,,,,,,,,,,,,,,,,,,,,,,,,,,,,,,,,,,,,,,,,,,,,,,,,,,,,,,,,,,,,,,,,,,,,,,,,,,,,,,,,,,,,,,,,,,,,,,,,,,,,,,,,,,66,2,2025-02-21_09h40.57.369,comp,2024.2.4,53.97192479478901,2025-02-21 09h52.54.898330 -0500,
,,,,,,,,,,,,,,,,,,,,,,,,,,,,,,,,,,,,,,,,,,,,,,,,,,,,54.470531940460205,54.485905170440674,56.48845028877258,56.46932506561279,,,,,,,,,,,,,,,,,,,,,,,,,,,,,,,,,,,,,,,,,,,,,,,,,,,,,,,,,,,,,,,,,,,,,,,,,,,,,,,,,,,,,,,,,,,,,,,,,,,,,,66,2,2025-02-21_09h40.57.369,comp,2024.2.4,53.97192479478901,2025-02-21 09h52.54.898330 -0500,
0,0,0,,,,,,,,,,,,,,,0,0,0,0,,,,,,,,,56.48845028877258,,,,,,,,,,,,,,,,,,,,,,,,,,,56.47019100189209,56.48845028877258,56.48845028877258,57.97327470779419,60.54228591918945,space,2.564131498336792,None,60.54248404502869,60.55895495414734,60.55895495414734,62.05798530578613,66.34401035308838,space,4.27125096321106,None,66.34416365623474,66.3726897239685,66.3726897239685,66.3726897239685,66.3726897239685,66.3726897239685,66.3726897239685,66.3726897239685,66.3726897239685,66.3726897239685,67.84755182266235,75.63061451911926,space,7.769601106643677,None,75.63078570365906,75.64698123931885,75.64698123931885,75.64698123931885,77.14574813842773,81.8549473285675,space,4.695972442626953,None,81.85509872436523,81.87009143829346,81.87009143829346,83.365407705307,83.77942967414856,space,0.4039318561553955,None,83.77962446212769,83.79690861701965,83.79690861701965,85.300705909729,space,1.4921598434448242,None,,,,,,,,,,,,,,,,,,,,,,,,,,,,,,,,,,,,,,,,,,,,,,,66,2,2025-02-21_09h40.57.369,comp,2024.2.4,53.97192479478901,2025-02-21 09h52.54.898330 -0500,
0,0,0,critical,dhw,20.0,2.1,upper,141.0,141.0,200.0,125.0,125.0,200.0,3,3.4461684226989746,None,,,,,0,0,0,0,0,0,0,27,85.38099932670593,,,,,,,,,,,,,,,,,,,,,,,,,,,,,,,,,,,,,,,,,,,,,,,,,,,,,,,,,,,,,,,,,,,,,,,,,,,,,,,,,,141.0,141.0,200.0,125.0,125.0,200.0,2.1,2.11,-229,282,0,274,258,-290,85.36416101455688,85.36419534683228,85.36546754837036,85.38099932670593,85.52520036697388,85.52520036697388,85.52520036697388,85.52520036697388,85.52520036697388,85.52520036697388,85.52520036697388,88.83348822593689,3,3.4461684226989746,None,,,,,,,,,,,,,,,,,,66,2,2025-02-21_09h40.57.369,comp,2024.2.4,53.97192479478901,2025-02-21 09h52.54.898330 -0500,
1,1,0,critical,hwd,35.0,2.1,lower,133.0,57.0,57.0,133.0,70.0,70.0,2,10.362076044082642,None,,,,,0,0,0,0,0,1,1,40,88.84803986549377,,,,,,,,,,,,,,,,,,,,,,,,,,,,,,,,,,,,,,,,,,,,,,,,,,,,,,,,,,,,,,,,,,,,,,,,,,,,,,,,,,133.0,57.0,57.0,133.0,70.0,70.0,2.1,2.11,-191,270,0,274,198,-259,88.8348217010498,88.83487701416016,88.83685612678528,88.84803986549377,89.00183653831482,89.00183653831482,89.00183653831482,89.00183653831482,89.00183653831482,89.00183653831482,89.00183653831482,99.21967220306396,2,10.362076044082642,None,,,,,,,,,,,,,,,,,,66,2,2025-02-21_09h40.57.369,comp,2024.2.4,53.97192479478901,2025-02-21 09h52.54.898330 -0500,
2,2,0,filler_square,None,None,None,None,None,None,None,None,None,None,1,1.7617323398590088,None,,,,,0,0,0,0,0,2,2,187,99.23973512649536,,,,,,,,,,,,,,,,,,,,,,,,,,,,,,,,,,,,,,,,,,,,,,,,,,,,,,,,,,,,,,,,,,,,,,,,,,,,,,,,,,193.3264146033467,193.3264146033467,115.46322148168142,150.05219129248707,104.09603136803668,136.6633705471874,4.0,4.1,-268,-259,0,-1,239,-254,99.22139573097229,99.22147607803345,99.22447228431702,99.23973512649536,99.38720655441284,99.38720655441284,99.38720655441284,99.38720655441284,99.38720655441284,99.38720655441284,99.38720655441284,101.00384855270386,1,1.7617323398590088,None,,,,,,,,,,,,,,,,,,66,2,2025-02-21_09h40.57.369,comp,2024.2.4,53.97192479478901,2025-02-21 09h52.54.898330 -0500,
3,3,0,critical,hwd,35.0,1.0,lower,133.0,57.0,57.0,133.0,70.0,70.0,1,8.845863342285156,None,,,,,0,0,0,0,0,3,3,96,101.01940822601318,,,,,,,,,,,,,,,,,,,,,,,,,,,,,,,,,,,,,,,,,,,,,,,,,,,,,,,,,,,,,,,,,,,,,,,,,,,,,,,,,,133.0,57.0,57.0,133.0,70.0,70.0,1.0,1.2,-191,5,0,-19,198,-1,101.00527691841125,101.00535154342651,101.00855994224548,101.01940822601318,101.17094421386719,101.17094421386719,101.17094421386719,101.17094421386719,101.17094421386719,101.17094421386719,101.17094421386719,109.88465785980225,1,8.845863342285156,None,,,,,,,,,,,,,,,,,,66,2,2025-02-21_09h40.57.369,comp,2024.2.4,53.97192479478901,2025-02-21 09h52.54.898330 -0500,
4,4,0,filler_random,None,None,None,None,None,None,None,None,None,None,2,2.2488434314727783,None,,,,,0,0,0,0,0,4,4,154,109.90441703796387,,,,,,,,,,,,,,,,,,,,,,,,,,,,,,,,,,,,,,,,,,,,,,,,,,,,,,,,,,,,,,,,,,,,,,,,,,,,,,,,,,83.35232672585548,77.32764309767495,113.61571812592845,184.96303549005464,139.3449953497224,102.02493108439975,1.0,1.2,-227,17,0,13,239,-8,109.886301279068,109.88640356063843,109.88919639587402,109.90441703796387,110.03865027427673,110.03865027427673,110.03865027427673,110.03865027427673,110.03865027427673,110.03865027427673,110.03865027427673,112.16886568069458,2,2.2488434314727783,None,,,,,,,,,,,,,,,,,,66,2,2025-02-21_09h40.57.369,comp,2024.2.4,53.97192479478901,2025-02-21 09h52.54.898330 -0500,
5,5,0,filler_square,None,None,None,None,None,None,None,None,None,None,2,2.923143148422241,None,,,,,0,0,0,0,0,5,5,195,112.1900782585144,,,,,,,,,,,,,,,,,,,,,,,,,,,,,,,,,,,,,,,,,,,,,,,,,,,,,,,,,,,,,,,,,,,,,,,,,,,,,,,,,,58.73007614694628,78.87253812719604,86.25589889206417,86.25589889206417,67.97426993469392,62.67907891788569,2.2,2.21,-179,-278,0,273,170,279,112.17090916633606,112.17098689079285,112.17418551445007,112.1900782585144,112.32749366760254,112.32749366760254,112.32749366760254,112.32749366760254,112.32749366760254,112.32749366760254,112.32749366760254,115.12524461746216,2,2.923143148422241,None,,,,,,,,,,,,,,,,,,66,2,2025-02-21_09h40.57.369,comp,2024.2.4,53.97192479478901,2025-02-21 09h52.54.898330 -0500,
6,6,0,filler_random,None,None,None,None,None,None,None,None,None,None,3,1.9376146793365479,None,,,,,0,0,0,0,0,6,6,137,115.14374899864197,,,,,,,,,,,,,,,,,,,,,,,,,,,,,,,,,,,,,,,,,,,,,,,,,,,,,,,,,,,,,,,,,,,,,,,,,,,,,,,,,,117.30990315218548,111.99559038185544,114.2691019687872,126.89972536508147,102.66161197425359,183.46376071817414,3.0,3.1,-215,278,0,10,251,-271,115.12688946723938,115.12696695327759,115.13017201423645,115.14374899864197,115.29475545883179,115.29475545883179,115.29475545883179,115.29475545883179,115.29475545883179,115.29475545883179,115.29475545883179,117.09527468681335,3,1.9376146793365479,None,,,,,,,,,,,,,,,,,,66,2,2025-02-21_09h40.57.369,comp,2024.2.4,53.97192479478901,2025-02-21 09h52.54.898330 -0500,
7,7,0,filler_random,None,None,None,None,None,None,None,None,None,None,3,2.3299336433410645,None,,,,,0,0,0,0,0,7,7,140,117.11123919487,,,,,,,,,,,,,,,,,,,,,,,,,,,,,,,,,,,,,,,,,,,,,,,,,,,,,,,,,,,,,,,,,,,,,,,,,,,,,,,,,,112.91938450074323,179.0162334175519,79.74511942344552,133.48509970177832,122.80743551657682,194.97424327885582,3.0,3.1,-252,278,0,-10,260,-284,117.09713864326477,117.0972158908844,117.1010069847107,117.11123919487,117.25963711738586,117.25963711738586,117.25963711738586,117.25963711738586,117.25963711738586,117.25963711738586,117.25963711738586,119.4530041217804,3,2.3299336433410645,None,,,,,,,,,,,,,,,,,,66,2,2025-02-21_09h40.57.369,comp,2024.2.4,53.97192479478901,2025-02-21 09h52.54.898330 -0500,
8,8,0,filler_square,None,None,None,None,None,None,None,None,None,None,1,6.879617929458618,None,,,,,0,0,0,0,0,8,8,209,119.4742841720581,,,,,,,,,,,,,,,,,,,,,,,,,,,,,,,,,,,,,,,,,,,,,,,,,,,,,,,,,,,,,,,,,,,,,,,,,,,,,,,,,,70.02379297843132,70.02379297843132,69.48424139914631,59.08937054607148,67.87968911972277,67.70118305074807,4.0,4.1,-161,-266,0,-9,159,-286,119.45503520965576,119.45511603355408,119.45834493637085,119.4742841720581,119.61080145835876,119.61080145835876,119.61080145835876,119.61080145835876,119.61080145835876,119.61080145835876,119.61080145835876,126.36278009414673,1,6.879617929458618,None,,,,,,,,,,,,,,,,,,66,2,2025-02-21_09h40.57.369,comp,2024.2.4,53.97192479478901,2025-02-21 09h52.54.898330 -0500,
9,9,0,critical,dwh,35.0,3.0,upper,127.0,127.0,125.0,200.0,200.0,125.0,2,14.854611873626709,None,,,,,0,0,0,0,0,9,9,63,126.37877416610718,,,,,,,,,,,,,,,,,,,,,,,,,,,,,,,,,,,,,,,,,,,,,,,,,,,,,,,,,,,,,,,,,,,,,,,,,,,,,,,,,,127.0,127.0,125.0,200.0,200.0,125.0,3.0,3.2,-260,-272,0,-3,258,287,126.36444664001465,126.36452436447144,126.36795401573181,126.37877416610718,126.52945470809937,126.52945470809937,126.52945470809937,126.52945470809937,126.52945470809937,126.52945470809937,126.52945470809937,141.23541641235352,2,14.854611873626709,None,,,,,,,,,,,,,,,,,,66,2,2025-02-21_09h40.57.369,comp,2024.2.4,53.97192479478901,2025-02-21 09h52.54.898330 -0500,
10,10,0,critical,dhw,35.0,2.1,lower,70.0,70.0,133.0,57.0,57.0,133.0,3,8.711506843566895,None,,,,,0,0,0,0,0,10,10,0,141.2518801689148,,,,,,,,,,,,,,,,,,,,,,,,,,,,,,,,,,,,,,,,,,,,,,,,,,,,,,,,,,,,,,,,,,,,,,,,,,,,,,,,,,70.0,70.0,133.0,57.0,57.0,133.0,2.1,2.11,-160,254,0,262,191,-282,141.2371346950531,141.23726201057434,141.2411506175995,141.2518801689148,141.4006791114807,141.4006791114807,141.4006791114807,141.4006791114807,141.4006791114807,141.4006791114807,141.4006791114807,149.9712951183319,3,8.711506843566895,None,,,,,,,,,,,,,,,,,,66,2,2025-02-21_09h40.57.369,comp,2024.2.4,53.97192479478901,2025-02-21 09h52.54.898330 -0500,
11,11,0,critical,hdw,35.0,4.0,upper,200.0,125.0,127.0,127.0,125.0,200.0,1,14.903366804122925,None,,,,,0,0,0,0,0,11,11,113,149.9866578578949,,,,,,,,,,,,,,,,,,,,,,,,,,,,,,,,,,,,,,,,,,,,,,,,,,,,,,,,,,,,,,,,,,,,,,,,,,,,,,,,,,200.0,125.0,127.0,127.0,125.0,200.0,4.0,4.1,-222,-265,0,-18,260,-289,149.9728319644928,149.97290897369385,149.9760296344757,149.9866578578949,150.13663244247437,150.13663244247437,150.13663244247437,150.13663244247437,150.13663244247437,150.13663244247437,150.13663244247437,164.89702367782593,1,14.903366804122925,None,,,,,,,,,,,,,,,,,,66,2,2025-02-21_09h40.57.369,comp,2024.2.4,53.97192479478901,2025-02-21 09h52.54.898330 -0500,
12,12,0,critical,whd,35.0,2.1,upper,125.0,200.0,200.0,125.0,127.0,127.0,2,5.480530261993408,None,,,,,0,0,0,0,0,12,12,37,164.91289138793945,,,,,,,,,,,,,,,,,,,,,,,,,,,,,,,,,,,,,,,,,,,,,,,,,,,,,,,,,,,,,,,,,,,,,,,,,,,,,,,,,,125.0,200.0,200.0,125.0,127.0,127.0,2.1,2.12,-258,-252,0,-251,222,283,164.898610830307,164.89869046211243,164.90157771110535,164.91289138793945,165.05891132354736,165.05891132354736,165.05891132354736,165.05891132354736,165.05891132354736,165.05891132354736,165.05891132354736,170.4108772277832,2,5.480530261993408,None,,,,,,,,,,,,,,,,,,66,2,2025-02-21_09h40.57.369,comp,2024.2.4,53.97192479478901,2025-02-21 09h52.54.898330 -0500,
13,13,0,filler_random,None,None,None,None,None,None,None,None,None,None,1,2.1503658294677734,None,,,,,0,0,0,0,0,13,13,143,170.42691326141357,,,,,,,,,,,,,,,,,,,,,,,,,,,,,,,,,,,,,,,,,,,,,,,,,,,,,,,,,,,,,,,,,,,,,,,,,,,,,,,,,,118.22174940703778,186.86818315680273,145.41993618156948,72.09587475328648,78.87634322339419,102.29620388315465,3.0,3.2,-225,-271,0,8,183,285,170.4126694202423,170.4127697944641,170.41668105125427,170.42691326141357,170.57609176635742,170.57609176635742,170.57609176635742,170.57609176635742,170.57609176635742,170.57609176635742,170.57609176635742,172.59342789649963,1,2.1503658294677734,None,,,,,,,,,,,,,,,,,,66,2,2025-02-21_09h40.57.369,comp,2024.2.4,53.97192479478901,2025-02-21 09h52.54.898330 -0500,
14,14,0,critical,whd,20.0,3.0,upper,125.0,200.0,200.0,125.0,141.0,141.0,3,11.520033836364746,None,,,,,0,0,0,0,0,14,14,93,172.60940718650818,,,,,,,,,,,,,,,,,,,,,,,,,,,,,,,,,,,,,,,,,,,,,,,,,,,,,,,,,,,,,,,,,,,,,,,,,,,,,,,,,,125.0,200.0,200.0,125.0,141.0,141.0,3.0,3.1,-258,254,0,10,229,-287,172.59495306015015,172.59503197669983,172.59822130203247,172.60940718650818,172.7599925994873,172.7599925994873,172.7599925994873,172.7599925994873,172.7599925994873,172.7599925994873,172.7599925994873,184.13142728805542,3,11.520033836364746,None,,,,,,,,,,,,,,,,,,66,2,2025-02-21_09h40.57.369,comp,2024.2.4,53.97192479478901,2025-02-21 09h52.54.898330 -0500,
15,15,0,filler_square,None,None,None,None,None,None,None,None,None,None,3,1.8537781238555908,None,,,,,0,0,0,0,0,15,15,197,184.1476445198059,,,,,,,,,,,,,,,,,,,,,,,,,,,,,,,,,,,,,,,,,,,,,,,,,,,,,,,,,,,,,,,,,,,,,,,,,,,,,,,,,,112.88361610463923,134.30982409385922,106.95566975482146,119.46629260196484,173.73547245976508,173.73547245976508,1.0,1.1,-703,274,-480,275,-237,268,184.13324451446533,184.13332509994507,184.1367371082306,184.1476445198059,184.29645657539368,184.29645657539368,184.29645657539368,184.29645657539368,184.29645657539368,184.29645657539368,184.29645657539368,186.01660799980164,3,1.8537781238555908,None,,,,,,,,,,,,,,,,,,66,2,2025-02-21_09h40.57.369,comp,2024.2.4,53.97192479478901,2025-02-21 09h52.54.898330 -0500,
16,16,0,critical,hwd,35.0,3.0,upper,200.0,125.0,125.0,200.0,127.0,127.0,2,11.254701375961304,None,,,,,0,0,0,0,0,16,16,99,186.03459763526917,,,,,,,,,,,,,,,,,,,,,,,,,,,,,,,,,,,,,,,,,,,,,,,,,,,,,,,,,,,,,,,,,,,,,,,,,,,,,,,,,,200.0,125.0,125.0,200.0,127.0,127.0,3.0,3.1,-258,263,0,-19,260,-278,186.0182981491089,186.0184621810913,186.02184295654297,186.03459763526917,186.18119931221008,186.18119931221008,186.18119931221008,186.18119931221008,186.18119931221008,186.18119931221008,186.18119931221008,197.30291414260864,2,11.254701375961304,None,,,,,,,,,,,,,,,,,,66,2,2025-02-21_09h40.57.369,comp,2024.2.4,53.97192479478901,2025-02-21 09h52.54.898330 -0500,
17,17,0,critical,dhw,35.0,2.1,upper,127.0,127.0,200.0,125.0,125.0,200.0,3,3.075136184692383,None,,,,,0,0,0,0,0,17,17,25,197.31902313232422,,,,,,,,,,,,,,,,,,,,,,,,,,,,,,,,,,,,,,,,,,,,,,,,,,,,,,,,,,,,,,,,,,,,,,,,,,,,,,,,,,127.0,127.0,200.0,125.0,125.0,200.0,2.1,2.11,-222,276,0,251,258,-253,197.30453252792358,197.30462431907654,197.30794024467468,197.31902313232422,197.464111328125,197.464111328125,197.464111328125,197.464111328125,197.464111328125,197.464111328125,197.464111328125,200.40418910980225,3,3.075136184692383,None,,,,,,,,,,,,,,,,,,66,2,2025-02-21_09h40.57.369,comp,2024.2.4,53.97192479478901,2025-02-21 09h52.54.898330 -0500,
18,18,0,filler_random,None,None,None,None,None,None,None,None,None,None,3,5.019217014312744,None,,,,,0,0,0,0,0,18,18,163,200.4221715927124,,,,,,,,,,,,,,,,,,,,,,,,,,,,,,,,,,,,,,,,,,,,,,,,,,,,,,,,,,,,,,,,,,,,,,,,,,,,,,,,,,101.90579256739579,122.45540744387108,167.5717415657973,68.46522665734975,115.90924160075483,162.26518422221432,3.0,3.2,-191,-258,0,-6,211,273,200.40603351593018,200.40611290931702,200.40894508361816,200.4221715927124,200.56946325302124,200.56946325302124,200.56946325302124,200.56946325302124,200.56946325302124,200.56946325302124,200.56946325302124,205.45323657989502,3,5.019217014312744,None,,,,,,,,,,,,,,,,,,66,2,2025-02-21_09h40.57.369,comp,2024.2.4,53.97192479478901,2025-02-21 09h52.54.898330 -0500,
19,19,0,critical,wdh,20.0,1.0,upper,125.0,200.0,141.0,141.0,200.0,125.0,1,3.123258590698242,None,,,,,0,0,0,0,0,19,19,79,205.4701189994812,,,,,,,,,,,,,,,,,,,,,,,,,,,,,,,,,,,,,,,,,,,,,,,,,,,,,,,,,,,,,,,,,,,,,,,,,,,,,,,,,,125.0,200.0,141.0,141.0,200.0,125.0,1.0,1.2,-266,-18,0,13,229,-10,205.4547770023346,205.45485496520996,205.45817136764526,205.4701189994812,205.62160992622375,205.62160992622375,205.62160992622375,205.62160992622375,205.62160992622375,205.62160992622375,205.62160992622375,208.6035008430481,1,3.123258590698242,None,,,,,,,,,,,,,,,,,,66,2,2025-02-21_09h40.57.369,comp,2024.2.4,53.97192479478901,2025-02-21 09h52.54.898330 -0500,
20,20,0,catch,None,None,None,None,None,None,None,None,None,None,2,2.0536344051361084,None,,,,,0,0,0,0,0,20,20,122,208.6197862625122,,,,,,,,,,,,,,,,,,,,,,,,,,,,,,,,,,,,,,,,,,,,,,,,,,,,,,,,,,,,,,,,,,,,,,,,,,,,,,,,,,65,125,186,139,93,97,2.1,2.11,-228,279,0,254,214,-263,208.6054060459137,208.60548973083496,208.60865306854248,208.6197862625122,208.77106595039368,208.77106595039368,208.77106595039368,208.77106595039368,208.77106595039368,208.77106595039368,208.77106595039368,210.6889259815216,2,2.0536344051361084,None,,,,,,,,,,,,,,,,,,66,2,2025-02-21_09h40.57.369,comp,2024.2.4,53.97192479478901,2025-02-21 09h52.54.898330 -0500,
21,21,0,critical,dhw,20.0,3.0,lower,78.0,78.0,133.0,57.0,57.0,133.0,1,18.113401174545288,None,,,,,0,0,0,0,0,21,21,56,210.70442628860474,,,,,,,,,,,,,,,,,,,,,,,,,,,,,,,,,,,,,,,,,,,,,,,,,,,,,,,,,,,,,,,,,,,,,,,,,,,,,,,,,,78.0,78.0,133.0,57.0,57.0,133.0,3.0,3.2,-164,-272,0,12,191,286,210.69050312042236,210.69060349464417,210.69410133361816,210.70442628860474,210.85624742507935,210.85624742507935,210.85624742507935,210.85624742507935,210.85624742507935,210.85624742507935,210.85624742507935,228.8289339542389,1,18.113401174545288,None,,,,,,,,,,,,,,,,,,66,2,2025-02-21_09h40.57.369,comp,2024.2.4,53.97192479478901,2025-02-21 09h52.54.898330 -0500,
22,22,0,filler_random,None,None,None,None,None,None,None,None,None,None,2,2.087350368499756,None,,,,,0,0,0,0,0,22,22,144,228.85010981559753,,,,,,,,,,,,,,,,,,,,,,,,,,,,,,,,,,,,,,,,,,,,,,,,,,,,,,,,,,,,,,,,,,,,,,,,,,,,,,,,,,136.52701554436533,73.30506696230321,138.08130402999615,153.01833383270358,107.1666420312165,135.40634873007957,2.1,2.12,-209,-262,0,-279,240,271,228.83067440986633,228.83081364631653,228.83428859710693,228.85010981559753,228.9949071407318,228.9949071407318,228.9949071407318,228.9949071407318,228.9949071407318,228.9949071407318,228.9949071407318,230.95005702972412,2,2.087350368499756,None,,,,,,,,,,,,,,,,,,66,2,2025-02-21_09h40.57.369,comp,2024.2.4,53.97192479478901,2025-02-21 09h52.54.898330 -0500,
23,23,0,filler_random,None,None,None,None,None,None,None,None,None,None,2,1.551443099975586,None,,,,,0,0,0,0,0,23,23,147,230.97050833702087,,,,,,,,,,,,,,,,,,,,,,,,,,,,,,,,,,,,,,,,,,,,,,,,,,,,,,,,,,,,,,,,,,,,,,,,,,,,,,,,,,72.43495764899211,177.94907866268048,162.94313865549174,183.13094185797274,152.25211367411674,123.71261066890331,3.0,3.2,-277,-290,0,8,249,267,230.95173621177673,230.9518141746521,230.95471596717834,230.97050833702087,231.11158871650696,231.11158871650696,231.11158871650696,231.11158871650696,231.11158871650696,231.11158871650696,231.11158871650696,232.53160548210144,2,1.551443099975586,None,,,,,,,,,,,,,,,,,,66,2,2025-02-21_09h40.57.369,comp,2024.2.4,53.97192479478901,2025-02-21 09h52.54.898330 -0500,
24,24,0,critical,wdh,35.0,1.0,upper,125.0,200.0,127.0,127.0,200.0,125.0,1,19.16580080986023,None,,,,,0,0,0,0,0,24,24,73,232.5481083393097,,,,,,,,,,,,,,,,,,,,,,,,,,,,,,,,,,,,,,,,,,,,,,,,,,,,,,,,,,,,,,,,,,,,,,,,,,,,,,,,,,125.0,200.0,127.0,127.0,200.0,125.0,1.0,1.1,-740,284,-480,261,-258,254,232.5333468914032,232.53346347808838,232.53702330589294,232.5481083393097,232.69857048988342,232.69857048988342,232.69857048988342,232.69857048988342,232.69857048988342,232.69857048988342,232.69857048988342,251.71885919570923,1,19.16580080986023,None,,,,,,,,,,,,,,,,,,66,2,2025-02-21_09h40.57.369,comp,2024.2.4,53.97192479478901,2025-02-21 09h52.54.898330 -0500,
25,25,0,filler_random,None,None,None,None,None,None,None,None,None,None,2,4.842788457870483,None,,,,,0,0,0,0,0,25,25,150,251.73472261428833,,,,,,,,,,,,,,,,,,,,,,,,,,,,,,,,,,,,,,,,,,,,,,,,,,,,,,,,,,,,,,,,,,,,,,,,,,,,,,,,,,152.6717532305209,68.07115850409438,73.4153608290444,194.5113607990633,145.3095085120514,87.49560073528718,2.2,2.21,-227,-274,0,265,237,256,251.720641374588,251.72071933746338,251.7240388393402,251.73472261428833,251.88530087471008,251.88530087471008,251.88530087471008,251.88530087471008,251.88530087471008,251.88530087471008,251.88530087471008,256.5917990207672,2,4.842788457870483,None,,,,,,,,,,,,,,,,,,66,2,2025-02-21_09h40.57.369,comp,2024.2.4,53.97192479478901,2025-02-21 09h52.54.898330 -0500,
26,26,0,critical,hwd,20.0,3.0,lower,133.0,57.0,57.0,133.0,78.0,78.0,1,2.3828415870666504,None,,,,,0,0,0,0,0,26,26,104,256.6106770038605,,,,,,,,,,,,,,,,,,,,,,,,,,,,,,,,,,,,,,,,,,,,,,,,,,,,,,,,,,,,,,,,,,,,,,,,,,,,,,,,,,133.0,57.0,57.0,133.0,78.0,78.0,3.0,3.2,-191,-274,0,16,202,257,256.59332370758057,256.59343814849854,256.59627199172974,256.6106770038605,256.75451827049255,256.75451827049255,256.75451827049255,256.75451827049255,256.75451827049255,256.75451827049255,256.75451827049255,259.0043363571167,1,2.3828415870666504,None,,,,,,,,,,,,,,,,,,66,2,2025-02-21_09h40.57.369,comp,2024.2.4,53.97192479478901,2025-02-21 09h52.54.898330 -0500,
27,27,0,catch,None,None,None,None,None,None,None,None,None,None,1,1.518782615661621,None,,,,,0,0,0,0,0,27,27,126,259.01935052871704,,,,,,,,,,,,,,,,,,,,,,,,,,,,,,,,,,,,,,,,,,,,,,,,,,,,,,,,,,,,,,,,,,,,,,,,,,,,,,,,,,169,156,89,101,61,129,4.0,4.1,-224,-265,0,-8,211,-267,259.006285905838,259.0063636302948,259.00973558425903,259.01935052871704,259.1724660396576,259.1724660396576,259.1724660396576,259.1724660396576,259.1724660396576,259.1724660396576,259.1724660396576,260.5446677207947,1,1.518782615661621,None,,,,,,,,,,,,,,,,,,66,2,2025-02-21_09h40.57.369,comp,2024.2.4,53.97192479478901,2025-02-21 09h52.54.898330 -0500,
28,28,0,catch,None,None,None,None,None,None,None,None,None,None,1,1.7210361957550049,None,,,,,0,0,0,0,0,28,28,128,260.5610270500183,,,,,,,,,,,,,,,,,,,,,,,,,,,,,,,,,,,,,,,,,,,,,,,,,,,,,,,,,,,,,,,,,,,,,,,,,,,,,,,,,,141,184,126,64,90,100,2.1,2.11,-220,264,0,281,178,-272,260.54652309417725,260.54660153388977,260.54943227767944,260.5610270500183,260.70175766944885,260.70175766944885,260.70175766944885,260.70175766944885,260.70175766944885,260.70175766944885,260.70175766944885,262.2905185222626,1,1.7210361957550049,None,,,,,,,,,,,,,,,,,,66,2,2025-02-21_09h40.57.369,comp,2024.2.4,53.97192479478901,2025-02-21 09h52.54.898330 -0500,
29,29,0,filler_square,None,None,None,None,None,None,None,None,None,None,3,1.6956844329833984,None,,,,,0,0,0,0,0,29,29,185,262.3062300682068,,,,,,,,,,,,,,,,,,,,,,,,,,,,,,,,,,,,,,,,,,,,,,,,,,,,,,,,,,,,,,,,,,,,,,,,,,,,,,,,,,119.76681979140201,133.49364942873598,174.16811088882667,104.83037147260532,181.41329163450712,181.41329163450712,4.0,4.1,-215,-263,0,11,239,-259,262.29247212409973,262.292551279068,262.2955687046051,262.3062300682068,262.45643401145935,262.45643401145935,262.45643401145935,262.45643401145935,262.45643401145935,262.45643401145935,262.45643401145935,264.0049307346344,3,1.6956844329833984,None,,,,,,,,,,,,,,,,,,66,2,2025-02-21_09h40.57.369,comp,2024.2.4,53.97192479478901,2025-02-21 09h52.54.898330 -0500,
30,30,0,filler_square,None,None,None,None,None,None,None,None,None,None,2,4.78070330619812,None,,,,,0,0,0,0,0,30,30,184,264.02188658714294,,,,,,,,,,,,,,,,,,,,,,,,,,,,,,,,,,,,,,,,,,,,,,,,,,,,,,,,,,,,,,,,,,,,,,,,,,,,,,,,,,79.21557965281954,112.03417850966133,155.3206008781394,155.3206008781394,150.2498590876545,143.98833354647263,2.1,2.11,-230,255,0,257,246,-255,264.0067331790924,264.00681042671204,264.00985646247864,264.02188658714294,264.17298579216003,264.17298579216003,264.17298579216003,264.17298579216003,264.17298579216003,264.17298579216003,264.17298579216003,268.80985713005066,2,4.78070330619812,None,,,,,,,,,,,,,,,,,,66,2,2025-02-21_09h40.57.369,comp,2024.2.4,53.97192479478901,2025-02-21 09h52.54.898330 -0500,
31,31,0,critical,wdh,35.0,1.0,lower,57.0,133.0,70.0,70.0,133.0,57.0,3,4.735680818557739,None,,,,,0,0,0,0,0,31,31,72,268.8259403705597,,,,,,,,,,,,,,,,,,,,,,,,,,,,,,,,,,,,,,,,,,,,,,,,,,,,,,,,,,,,,,,,,,,,,,,,,,,,,,,,,,57.0,133.0,70.0,70.0,133.0,57.0,1.0,1.1,-678,287,-480,257,-320,252,268.8115198612213,268.81164360046387,268.81509351730347,268.8259403705597,268.97406005859375,268.97406005859375,268.97406005859375,268.97406005859375,268.97406005859375,268.97406005859375,268.97406005859375,273.57539415359497,3,4.735680818557739,None,,,,,,,,,,,,,,,,,,66,2,2025-02-21_09h40.57.369,comp,2024.2.4,53.97192479478901,2025-02-21 09h52.54.898330 -0500,
32,32,0,filler_square,None,None,None,None,None,None,None,None,None,None,1,4.52284574508667,None,,,,,0,0,0,0,0,32,32,178,273.59085416793823,,,,,,,,,,,,,,,,,,,,,,,,,,,,,,,,,,,,,,,,,,,,,,,,,,,,,,,,,,,,,,,,,,,,,,,,,,,,,,,,,,100.81993308126312,100.81993308126312,72.9930564779445,98.53158178194542,78.5231152280065,82.59782292883312,2.2,2.22,-196,251,0,-271,187,-278,273.5771219730377,273.5771994590759,273.58056354522705,273.59085416793823,273.7405881881714,273.7405881881714,273.7405881881714,273.7405881881714,273.7405881881714,273.7405881881714,273.7405881881714,278.1259059906006,1,4.52284574508667,None,,,,,,,,,,,,,,,,,,66,2,2025-02-21_09h40.57.369,comp,2024.2.4,53.97192479478901,2025-02-21 09h52.54.898330 -0500,
33,33,0,critical,whd,20.0,1.0,upper,125.0,200.0,200.0,125.0,141.0,141.0,2,17.77193570137024,None,,,,,0,0,0,0,0,33,33,91,278.1417019367218,,,,,,,,,,,,,,,,,,,,,,,,,,,,,,,,,,,,,,,,,,,,,,,,,,,,,,,,,,,,,,,,,,,,,,,,,,,,,,,,,,125.0,200.0,200.0,125.0,141.0,141.0,1.0,1.1,-738,282,-480,279,-251,280,278.12741804122925,278.1274948120117,278.130562543869,278.1417019367218,278.29317259788513,278.29317259788513,278.29317259788513,278.29317259788513,278.29317259788513,278.29317259788513,278.29317259788513,295.9164056777954,2,17.77193570137024,None,,,,,,,,,,,,,,,,,,66,2,2025-02-21_09h40.57.369,comp,2024.2.4,53.97192479478901,2025-02-21 09h52.54.898330 -0500,
34,34,0,critical,wdh,35.0,4.0,upper,125.0,200.0,127.0,127.0,200.0,125.0,3,8.253753662109375,None,,,,,0,0,0,0,0,34,34,77,295.9320776462555,,,,,,,,,,,,,,,,,,,,,,,,,,,,,,,,,,,,,,,,,,,,,,,,,,,,,,,,,,,,,,,,,,,,,,,,,,,,,,,,,,125.0,200.0,127.0,127.0,200.0,125.0,4.0,4.2,-260,4,0,-250,222,9,295.91794085502625,295.9180190563202,295.92133474349976,295.9320776462555,296.08151960372925,296.08151960372925,296.08151960372925,296.08151960372925,296.08151960372925,296.08151960372925,296.08151960372925,304.18980979919434,3,8.253753662109375,None,,,,,,,,,,,,,,,,,,66,2,2025-02-21_09h40.57.369,comp,2024.2.4,53.97192479478901,2025-02-21 09h52.54.898330 -0500,
35,35,0,critical,dhw,20.0,1.0,lower,78.0,78.0,133.0,57.0,57.0,133.0,3,11.048458099365234,None,,,,,0,0,0,0,0,35,35,54,304.209436416626,,,,,,,,,,,,,,,,,,,,,,,,,,,,,,,,,,,,,,,,,,,,,,,,,,,,,,,,,,,,,,,,,,,,,,,,,,,,,,,,,,78.0,78.0,133.0,57.0,57.0,133.0,1.0,1.1,-644,251,-480,272,-289,268,304.19133400917053,304.19144439697266,304.1942386627197,304.209436416626,304.35654401779175,304.35654401779175,304.35654401779175,304.35654401779175,304.35654401779175,304.35654401779175,304.35654401779175,315.27454257011414,3,11.048458099365234,None,,,,,,,,,,,,,,,,,,66,2,2025-02-21_09h40.57.369,comp,2024.2.4,53.97192479478901,2025-02-21 09h52.54.898330 -0500,
36,36,0,critical,hdw,35.0,1.0,lower,133.0,57.0,70.0,70.0,57.0,133.0,3,13.031114339828491,None,,,,,0,0,0,0,0,36,36,108,315.2908811569214,,,,,,,,,,,,,,,,,,,,,,,,,,,,,,,,,,,,,,,,,,,,,,,,,,,,,,,,,,,,,,,,,,,,,,,,,,,,,,,,,,133.0,57.0,70.0,70.0,57.0,133.0,1.0,1.1,-640,265,-480,254,-282,265,315.27623414993286,315.27635312080383,315.2796857357025,315.2908811569214,315.4355523586273,315.4355523586273,315.4355523586273,315.4355523586273,315.4355523586273,315.4355523586273,315.4355523586273,328.3247230052948,3,13.031114339828491,None,,,,,,,,,,,,,,,,,,66,2,2025-02-21_09h40.57.369,comp,2024.2.4,53.97192479478901,2025-02-21 09h52.54.898330 -0500,
37,37,0,critical,hdw,35.0,2.1,lower,133.0,57.0,70.0,70.0,57.0,133.0,3,5.6848180294036865,None,,,,,0,0,0,0,0,37,37,20,328.3409614562988,,,,,,,,,,,,,,,,,,,,,,,,,,,,,,,,,,,,,,,,,,,,,,,,,,,,,,,,,,,,,,,,,,,,,,,,,,,,,,,,,,133.0,57.0,70.0,70.0,57.0,133.0,2.1,2.11,-160,265,0,263,198,-258,328.32622742652893,328.32630372047424,328.329217672348,328.3409614562988,328.50062584877014,328.50062584877014,328.50062584877014,328.50062584877014,328.50062584877014,328.50062584877014,328.50062584877014,334.02903842926025,3,5.6848180294036865,None,,,,,,,,,,,,,,,,,,66,2,2025-02-21_09h40.57.369,comp,2024.2.4,53.97192479478901,2025-02-21 09h52.54.898330 -0500,
38,38,0,critical,wdh,20.0,4.0,upper,125.0,200.0,141.0,141.0,200.0,125.0,3,7.0607171058654785,None,,,,,0,0,0,0,0,38,38,83,334.0453999042511,,,,,,,,,,,,,,,,,,,,,,,,,,,,,,,,,,,,,,,,,,,,,,,,,,,,,,,,,,,,,,,,,,,,,,,,,,,,,,,,,,125.0,200.0,141.0,141.0,200.0,125.0,4.0,4.1,-266,-279,0,6,229,-286,334.03051471710205,334.0305709838867,334.03377294540405,334.0453999042511,334.19439911842346,334.19439911842346,334.19439911842346,334.19439911842346,334.19439911842346,334.19439911842346,334.19439911842346,341.1146957874298,3,7.0607171058654785,None,,,,,,,,,,,,,,,,,,66,2,2025-02-21_09h40.57.369,comp,2024.2.4,53.97192479478901,2025-02-21 09h52.54.898330 -0500,
39,39,0,critical,hwd,35.0,4.0,upper,200.0,125.0,125.0,200.0,127.0,127.0,2,9.295456171035767,None,,,,,0,0,0,0,0,39,39,101,341.1307215690613,,,,,,,,,,,,,,,,,,,,,,,,,,,,,,,,,,,,,,,,,,,,,,,,,,,,,,,,,,,,,,,,,,,,,,,,,,,,,,,,,,200.0,125.0,125.0,200.0,127.0,127.0,4.0,4.2,-258,12,0,-281,260,-3,341.1163306236267,341.11646580696106,341.119868516922,341.1307215690613,341.2828040122986,341.2828040122986,341.2828040122986,341.2828040122986,341.2828040122986,341.2828040122986,341.2828040122986,350.43321418762207,2,9.295456171035767,None,,,,,,,,,,,,,,,,,,66,2,2025-02-21_09h40.57.369,comp,2024.2.4,53.97192479478901,2025-02-21 09h52.54.898330 -0500,
40,40,0,filler_random,None,None,None,None,None,None,None,None,None,None,1,7.936275005340576,None,,,,,0,0,0,0,0,40,40,135,350.4495027065277,,,,,,,,,,,,,,,,,,,,,,,,,,,,,,,,,,,,,,,,,,,,,,,,,,,,,,,,,,,,,,,,,,,,,,,,,,,,,,,,,,167.6788111694084,177.26045771726876,105.98077900994136,169.33768801897696,139.79009529213363,128.35977804530006,3.0,3.1,-269,278,0,11,245,-265,350.4350974559784,350.4352021217346,350.4385471343994,350.4495027065277,350.5999357700348,350.5999357700348,350.5999357700348,350.5999357700348,350.5999357700348,350.5999357700348,350.5999357700348,358.4028732776642,1,7.936275005340576,None,,,,,,,,,,,,,,,,,,66,2,2025-02-21_09h40.57.369,comp,2024.2.4,53.97192479478901,2025-02-21 09h52.54.898330 -0500,
41,41,0,filler_square,None,None,None,None,None,None,None,None,None,None,3,1.6871492862701416,None,,,,,0,0,0,0,0,41,41,175,358.41887974739075,,,,,,,,,,,,,,,,,,,,,,,,,,,,,,,,,,,,,,,,,,,,,,,,,,,,,,,,,,,,,,,,,,,,,,,,,,,,,,,,,,150.11326716565816,174.90578106680883,85.74196765718952,183.47336453427792,189.66737314504172,189.66737314504172,2.1,2.11,-275,253,0,269,283,-263,358.40473079681396,358.4048104286194,358.40820813179016,358.41887974739075,358.56762742996216,358.56762742996216,358.56762742996216,358.56762742996216,358.56762742996216,358.56762742996216,358.56762742996216,360.1174521446228,3,1.6871492862701416,None,,,,,,,,,,,,,,,,,,66,2,2025-02-21_09h40.57.369,comp,2024.2.4,53.97192479478901,2025-02-21 09h52.54.898330 -0500,
42,42,0,critical,hwd,35.0,4.0,lower,133.0,57.0,57.0,133.0,70.0,70.0,1,18.317086219787598,None,,,,,0,0,0,0,0,42,42,100,360.13346338272095,,,,,,,,,,,,,,,,,,,,,,,,,,,,,,,,,,,,,,,,,,,,,,,,,,,,,,,,,,,,,,,,,,,,,,,,,,,,,,,,,,133.0,57.0,57.0,133.0,70.0,70.0,4.0,4.2,-191,19,0,-270,198,3,360.1189601421356,360.1190369129181,360.1219394207001,360.13346338272095,360.2884805202484,360.2884805202484,360.2884805202484,360.2884805202484,360.2884805202484,360.2884805202484,360.2884805202484,378.4559004306793,1,18.317086219787598,None,,,,,,,,,,,,,,,,,,66,2,2025-02-21_09h40.57.369,comp,2024.2.4,53.97192479478901,2025-02-21 09h52.54.898330 -0500,
43,43,0,filler_square,None,None,None,None,None,None,None,None,None,None,2,3.6251463890075684,None,,,,,0,0,0,0,0,43,43,200,378.47296380996704,,,,,,,,,,,,,,,,,,,,,,,,,,,,,,,,,,,,,,,,,,,,,,,,,,,,,,,,,,,,,,,,,,,,,,,,,,,,,,,,,,102.16811781319888,101.06900263463152,199.29723228098973,199.29723228098973,195.5664675044986,80.40880374444767,3.0,3.2,-246,-285,0,3,236,274,378.45763635635376,378.45771503448486,378.4605402946472,378.47296380996704,378.61164140701294,378.61164140701294,378.61164140701294,378.61164140701294,378.61164140701294,378.61164140701294,378.61164140701294,382.10256576538086,2,3.6251463890075684,None,,,,,,,,,,,,,,,,,,66,2,2025-02-21_09h40.57.369,comp,2024.2.4,53.97192479478901,2025-02-21 09h52.54.898330 -0500,
44,44,0,critical,hdw,20.0,1.0,upper,200.0,125.0,141.0,141.0,125.0,200.0,1,10.822977542877197,None,,,,,0,0,0,0,0,44,44,115,382.1232740879059,,,,,,,,,,,,,,,,,,,,,,,,,,,,,,,,,,,,,,,,,,,,,,,,,,,,,,,,,,,,,,,,,,,,,,,,,,,,,,,,,,200.0,125.0,141.0,141.0,125.0,200.0,1.0,1.3,251,-254,480,-260,746,-269,382.1041622161865,382.1042401790619,382.10749340057373,382.1232740879059,382.2648358345032,382.2648358345032,382.2648358345032,382.2648358345032,382.2648358345032,382.2648358345032,382.2648358345032,392.9491355419159,1,10.822977542877197,None,,,,,,,,,,,,,,,,,,66,2,2025-02-21_09h40.57.369,comp,2024.2.4,53.97192479478901,2025-02-21 09h52.54.898330 -0500,
45,45,0,critical,dwh,20.0,2.1,upper,141.0,141.0,125.0,200.0,200.0,125.0,3,2.324491024017334,None,,,,,0,0,0,0,0,45,45,7,392.9658992290497,,,,,,,,,,,,,,,,,,,,,,,,,,,,,,,,,,,,,,,,,,,,,,,,,,,,,,,,,,,,,,,,,,,,,,,,,,,,,,,,,,141.0,141.0,125.0,200.0,200.0,125.0,2.1,2.12,-266,-260,0,-253,258,251,392.9508652687073,392.9509472846985,392.9542169570923,392.9658992290497,393.1109359264374,393.1109359264374,393.1109359264374,393.1109359264374,393.1109359264374,393.1109359264374,393.1109359264374,395.2974343299866,3,2.324491024017334,None,,,,,,,,,,,,,,,,,,66,2,2025-02-21_09h40.57.369,comp,2024.2.4,53.97192479478901,2025-02-21 09h52.54.898330 -0500,
46,46,0,filler_random,None,None,None,None,None,None,None,None,None,None,3,9.481221199035645,None,,,,,0,0,0,0,0,46,46,142,395.3133051395416,,,,,,,,,,,,,,,,,,,,,,,,,,,,,,,,,,,,,,,,,,,,,,,,,,,,,,,,,,,,,,,,,,,,,,,,,,,,,,,,,,66.79587668812846,71.17937719299543,132.96274628163263,91.04378243643467,86.3956941068834,142.48021172171366,4.0,4.2,-177,14,0,-259,213,-9,395.29916548728943,395.2992446422577,395.3026213645935,395.3133051395416,395.4626348018646,395.4626348018646,395.4626348018646,395.4626348018646,395.4626348018646,395.4626348018646,395.4626348018646,404.80118799209595,3,9.481221199035645,None,,,,,,,,,,,,,,,,,,66,2,2025-02-21_09h40.57.369,comp,2024.2.4,53.97192479478901,2025-02-21 09h52.54.898330 -0500,
47,47,0,catch,None,None,None,None,None,None,None,None,None,None,3,1.5368852615356445,None,,,,,0,0,0,0,0,47,47,125,404.8171474933624,,,,,,,,,,,,,,,,,,,,,,,,,,,,,,,,,,,,,,,,,,,,,,,,,,,,,,,,,,,,,,,,,,,,,,,,,,,,,,,,,,88,102,82,108,178,147,2.2,2.22,-201,255,0,-286,224,-286,404.80310344696045,404.80322647094727,404.806467294693,404.8171474933624,404.9655120372772,404.9655120372772,404.9655120372772,404.9655120372772,404.9655120372772,404.9655120372772,404.9655120372772,406.3672947883606,3,1.5368852615356445,None,,,,,,,,,,,,,,,,,,66,2,2025-02-21_09h40.57.369,comp,2024.2.4,53.97192479478901,2025-02-21 09h52.54.898330 -0500,
48,48,0,critical,whd,35.0,2.1,upper,125.0,200.0,200.0,125.0,127.0,127.0,1,10.076070308685303,None,,,,,0,0,0,0,0,48,48,13,406.38266372680664,,,,,,,,,,,,,,,,,,,,,,,,,,,,,,,,,,,,,,,,,,,,,,,,,,,,,,,,,,,,,,,,,,,,,,,,,,,,,,,,,,125.0,200.0,200.0,125.0,127.0,127.0,2.1,2.11,-258,262,0,250,222,-274,406.3688077926636,406.3688850402832,406.37229228019714,406.38266372680664,406.53589701652527,406.53589701652527,406.53589701652527,406.53589701652527,406.53589701652527,406.53589701652527,406.53589701652527,416.4758496284485,1,10.076070308685303,None,,,,,,,,,,,,,,,,,,66,2,2025-02-21_09h40.57.369,comp,2024.2.4,53.97192479478901,2025-02-21 09h52.54.898330 -0500,
49,49,0,critical,whd,35.0,3.0,upper,125.0,200.0,200.0,125.0,127.0,127.0,2,2.871325731277466,None,,,,,0,0,0,0,0,49,49,87,416.4912979602814,,,,,,,,,,,,,,,,,,,,,,,,,,,,,,,,,,,,,,,,,,,,,,,,,,,,,,,,,,,,,,,,,,,,,,,,,,,,,,,,,,125.0,200.0,200.0,125.0,127.0,127.0,3.0,3.1,-258,260,0,16,222,-274,416.47736144065857,416.4774613380432,416.4803354740143,416.4912979602814,416.6390461921692,416.6390461921692,416.6390461921692,416.6390461921692,416.6390461921692,416.6390461921692,416.6390461921692,419.37171697616577,2,2.871325731277466,None,,,,,,,,,,,,,,,,,,66,2,2025-02-21_09h40.57.369,comp,2024.2.4,53.97192479478901,2025-02-21 09h52.54.898330 -0500,
50,50,0,filler_random,None,None,None,None,None,None,None,None,None,None,2,10.013957977294922,None,,,,,0,0,0,0,0,50,50,146,419.3875427246094,,,,,,,,,,,,,,,,,,,,,,,,,,,,,,,,,,,,,,,,,,,,,,,,,,,,,,,,,,,,,,,,,,,,,,,,,,,,,,,,,,174.8055782676273,72.65821021165246,138.90740082392307,166.37210776105502,174.0256024694204,91.91429820124142,4.0,4.2,-216,19,0,-273,225,10,419.37348794937134,419.3735649585724,419.3768880367279,419.3875427246094,419.5351285934448,419.5351285934448,419.5351285934448,419.5351285934448,419.5351285934448,419.5351285934448,419.5351285934448,429.4226257801056,2,10.013957977294922,None,,,,,,,,,,,,,,,,,,66,2,2025-02-21_09h40.57.369,comp,2024.2.4,53.97192479478901,2025-02-21 09h52.54.898330 -0500,
51,51,0,critical,dhw,35.0,3.0,upper,127.0,127.0,200.0,125.0,125.0,200.0,3,2.2197842597961426,None,,,,,0,0,0,0,0,51,51,51,429.4384150505066,,,,,,,,,,,,,,,,,,,,,,,,,,,,,,,,,,,,,,,,,,,,,,,,,,,,,,,,,,,,,,,,,,,,,,,,,,,,,,,,,,127.0,127.0,200.0,125.0,125.0,200.0,3.0,3.1,-222,257,0,-10,258,-283,429.42307472229004,429.4230933189392,429.4238452911377,429.4384150505066,429.5730562210083,429.5730562210083,429.5730562210083,429.5730562210083,429.5730562210083,429.5730562210083,429.5730562210083,431.6751708984375,3,2.2197842597961426,None,,,,,,,,,,,,,,,,,,66,2,2025-02-21_09h40.57.369,comp,2024.2.4,53.97192479478901,2025-02-21 09h52.54.898330 -0500,
52,52,0,filler_random,None,None,None,None,None,None,None,None,None,None,3,5.0970330238342285,None,,,,,0,0,0,0,0,52,52,152,431.6904847621918,,,,,,,,,,,,,,,,,,,,,,,,,,,,,,,,,,,,,,,,,,,,,,,,,,,,,,,,,,,,,,,,,,,,,,,,,,,,,,,,,,190.23284997932902,63.57165736743657,157.18534560140094,125.62520821264215,174.47997002662692,131.31445777592643,3.0,3.2,-191,-276,0,8,224,281,431.6769051551819,431.6769824028015,431.68029141426086,431.6904847621918,431.8411064147949,431.8411064147949,431.8411064147949,431.8411064147949,431.8411064147949,431.8411064147949,431.8411064147949,436.7913317680359,3,5.0970330238342285,None,,,,,,,,,,,,,,,,,,66,2,2025-02-21_09h40.57.369,comp,2024.2.4,53.97192479478901,2025-02-21 09h52.54.898330 -0500,
53,53,0,filler_square,None,None,None,None,None,None,None,None,None,None,1,2.947028875350952,None,,,,,0,0,0,0,0,53,53,191,436.80760645866394,,,,,,,,,,,,,,,,,,,,,,,,,,,,,,,,,,,,,,,,,,,,,,,,,,,,,,,,,,,,,,,,,,,,,,,,,,,,,,,,,,90.81021805935566,90.81021805935566,63.00624874552509,84.32823441815552,61.18148413840091,72.96094574207939,4.0,4.1,-184,-270,0,17,175,-251,436.7931795120239,436.79331517219543,436.7965621948242,436.80760645866394,436.9494860172272,436.9494860172272,436.9494860172272,436.9494860172272,436.9494860172272,436.9494860172272,436.9494860172272,439.7614140510559,1,2.947028875350952,None,,,,,,,,,,,,,,,,,,66,2,2025-02-21_09h40.57.369,comp,2024.2.4,53.97192479478901,2025-02-21 09h52.54.898330 -0500,
54,54,0,filler_square,None,None,None,None,None,None,None,None,None,None,3,8.6158127784729,None,,,,,0,0,0,0,0,54,54,190,439.7786211967468,,,,,,,,,,,,,,,,,,,,,,,,,,,,,,,,,,,,,,,,,,,,,,,,,,,,,,,,,,,,,,,,,,,,,,,,,,,,,,,,,,66.47693866473985,75.86651159455913,73.57965490132143,67.00559142507333,79.805245045994,79.805245045994,1.0,1.1,-647,288,-480,276,-311,266,439.7631916999817,439.7632701396942,439.766482591629,439.7786211967468,439.9152021408081,439.9152021408081,439.9152021408081,439.9152021408081,439.9152021408081,439.9152021408081,439.9152021408081,448.4029870033264,3,8.6158127784729,None,,,,,,,,,,,,,,,,,,66,2,2025-02-21_09h40.57.369,comp,2024.2.4,53.97192479478901,2025-02-21 09h52.54.898330 -0500,
55,55,0,critical,dwh,20.0,1.0,lower,78.0,78.0,57.0,133.0,133.0,57.0,2,15.054725170135498,None,,,,,0,0,0,0,0,55,55,66,448.41918897628784,,,,,,,,,,,,,,,,,,,,,,,,,,,,,,,,,,,,,,,,,,,,,,,,,,,,,,,,,,,,,,,,,,,,,,,,,,,,,,,,,,78.0,78.0,57.0,133.0,133.0,57.0,1.0,1.1,-682,280,-480,281,-289,287,448.40453577041626,448.4046137332916,448.4075012207031,448.41918897628784,448.5656096935272,448.5656096935272,448.5656096935272,448.5656096935272,448.5656096935272,448.5656096935272,448.5656096935272,463.48946499824524,2,15.054725170135498,None,,,,,,,,,,,,,,,,,,66,2,2025-02-21_09h40.57.369,comp,2024.2.4,53.97192479478901,2025-02-21 09h52.54.898330 -0500,
56,56,0,critical,wdh,35.0,2.1,lower,57.0,133.0,70.0,70.0,133.0,57.0,1,6.782075881958008,None,,,,,0,0,0,0,0,56,56,8,463.5081264972687,,,,,,,,,,,,,,,,,,,,,,,,,,,,,,,,,,,,,,,,,,,,,,,,,,,,,,,,,,,,,,,,,,,,,,,,,,,,,,,,,,57.0,133.0,70.0,70.0,133.0,57.0,2.1,2.12,-198,-289,0,-268,160,251,463.4910624027252,463.49113941192627,463.4945089817047,463.5081264972687,463.65244364738464,463.65244364738464,463.65244364738464,463.65244364738464,463.65244364738464,463.65244364738464,463.65244364738464,470.30348658561707,1,6.782075881958008,None,,,,,,,,,,,,,,,,,,66,2,2025-02-21_09h40.57.369,comp,2024.2.4,53.97192479478901,2025-02-21 09h52.54.898330 -0500,
57,57,0,critical,hdw,35.0,2.1,upper,200.0,125.0,127.0,127.0,125.0,200.0,3,7.098000764846802,None,,,,,0,0,0,0,0,57,57,21,470.32090497016907,,,,,,,,,,,,,,,,,,,,,,,,,,,,,,,,,,,,,,,,,,,,,,,,,,,,,,,,,,,,,,,,,,,,,,,,,,,,,,,,,,200.0,125.0,127.0,127.0,125.0,200.0,2.1,2.11,-222,250,0,269,260,-285,470.30497312545776,470.3050494194031,470.30804204940796,470.32090497016907,470.476149559021,470.476149559021,470.476149559021,470.476149559021,470.476149559021,470.476149559021,470.476149559021,477.4248237609863,3,7.098000764846802,None,,,,,,,,,,,,,,,,,,66,2,2025-02-21_09h40.57.369,comp,2024.2.4,53.97192479478901,2025-02-21 09h52.54.898330 -0500,
58,58,0,filler_square,None,None,None,None,None,None,None,None,None,None,2,2.2809643745422363,None,,,,,0,0,0,0,0,58,58,193,477.4411687850952,,,,,,,,,,,,,,,,,,,,,,,,,,,,,,,,,,,,,,,,,,,,,,,,,,,,,,,,,,,,,,,,,,,,,,,,,,,,,,,,,,153.79927726665736,138.32142423815588,178.88816829516094,178.88816829516094,86.47891706693648,77.84865059046845,3.0,3.2,-255,-285,0,10,224,268,477.4268741607666,477.42697501182556,477.4303011894226,477.4411687850952,477.5898938179016,477.5898938179016,477.5898938179016,477.5898938179016,477.5898938179016,477.5898938179016,477.5898938179016,479.7251741886139,2,2.2809643745422363,None,,,,,,,,,,,,,,,,,,66,2,2025-02-21_09h40.57.369,comp,2024.2.4,53.97192479478901,2025-02-21 09h52.54.898330 -0500,
59,59,0,filler_random,None,None,None,None,None,None,None,None,None,None,2,3.1234891414642334,None,,,,,0,0,0,0,0,59,59,139,479.74349641799927,,,,,,,,,,,,,,,,,,,,,,,,,,,,,,,,,,,,,,,,,,,,,,,,,,,,,,,,,,,,,,,,,,,,,,,,,,,,,,,,,,96.29589728385221,167.2934855999926,198.95262510876904,129.05746015917276,155.7420376656995,68.91568371955267,3.0,3.2,-244,-271,0,-10,195,281,479.7269971370697,479.72710967063904,479.7303602695465,479.74349641799927,479.89122009277344,479.89122009277344,479.89122009277344,479.89122009277344,479.89122009277344,479.89122009277344,479.89122009277344,482.8748004436493,2,3.1234891414642334,None,,,,,,,,,,,,,,,,,,66,2,2025-02-21_09h40.57.369,comp,2024.2.4,53.97192479478901,2025-02-21 09h52.54.898330 -0500,
60,60,0,filler_square,None,None,None,None,None,None,None,None,None,None,2,4.677665710449219,None,,,,,0,0,0,0,0,60,60,186,482.8928668498993,,,,,,,,,,,,,,,,,,,,,,,,,,,,,,,,,,,,,,,,,,,,,,,,,,,,,,,,,,,,,,,,,,,,,,,,,,,,,,,,,,146.20905769766117,102.3806622439181,191.75053195535588,191.75053195535588,158.05908062260886,92.10189805836603,1.0,1.1,-723,281,-480,258,-242,277,482.8765676021576,482.8766484260559,482.8797664642334,482.8928668498993,483.0424134731293,483.0424134731293,483.0424134731293,483.0424134731293,483.0424134731293,483.0424134731293,483.0424134731293,487.5765907764435,2,4.677665710449219,None,,,,,,,,,,,,,,,,,,66,2,2025-02-21_09h40.57.369,comp,2024.2.4,53.97192479478901,2025-02-21 09h52.54.898330 -0500,
61,61,0,critical,dhw,20.0,3.0,upper,141.0,141.0,200.0,125.0,125.0,200.0,3,8.369105577468872,None,,,,,0,0,0,0,0,61,61,57,487.59263348579407,,,,,,,,,,,,,,,,,,,,,,,,,,,,,,,,,,,,,,,,,,,,,,,,,,,,,,,,,,,,,,,,,,,,,,,,,,,,,,,,,,141.0,141.0,200.0,125.0,125.0,200.0,3.0,3.2,-229,-281,0,18,258,253,487.5782051086426,487.578284740448,487.58177852630615,487.59263348579407,487.74150562286377,487.74150562286377,487.74150562286377,487.74150562286377,487.74150562286377,487.74150562286377,487.74150562286377,495.97839641571045,3,8.369105577468872,None,,,,,,,,,,,,,,,,,,66,2,2025-02-21_09h40.57.369,comp,2024.2.4,53.97192479478901,2025-02-21 09h52.54.898330 -0500,
62,62,0,critical,whd,20.0,2.1,lower,57.0,133.0,133.0,57.0,78.0,78.0,1,11.89561939239502,None,,,,,0,0,0,0,0,62,62,38,495.99446749687195,,,,,,,,,,,,,,,,,,,,,,,,,,,,,,,,,,,,,,,,,,,,,,,,,,,,,,,,,,,,,,,,,,,,,,,,,,,,,,,,,,57.0,133.0,133.0,57.0,78.0,78.0,2.1,2.11,-191,278,0,288,164,-265,495.97915625572205,495.9791929721832,495.9812550544739,495.99446749687195,496.1292624473572,496.1292624473572,496.1292624473572,496.1292624473572,496.1292624473572,496.1292624473572,496.1292624473572,507.90257596969604,1,11.89561939239502,None,,,,,,,,,,,,,,,,,,66,2,2025-02-21_09h40.57.369,comp,2024.2.4,53.97192479478901,2025-02-21 09h52.54.898330 -0500,
63,63,0,critical,wdh,20.0,4.0,lower,57.0,133.0,78.0,78.0,133.0,57.0,3,12.20392894744873,None,,,,,0,0,0,0,0,63,63,82,507.91827487945557,,,,,,,,,,,,,,,,,,,,,,,,,,,,,,,,,,,,,,,,,,,,,,,,,,,,,,,,,,,,,,,,,,,,,,,,,,,,,,,,,,57.0,133.0,78.0,78.0,133.0,57.0,4.0,4.2,-202,-7,0,-274,164,11,507.90418791770935,507.9042649269104,507.9071283340454,507.91827487945557,508.06292629241943,508.06292629241943,508.06292629241943,508.06292629241943,508.06292629241943,508.06292629241943,508.06292629241943,520.1395812034607,3,12.20392894744873,None,,,,,,,,,,,,,,,,,,66,2,2025-02-21_09h40.57.369,comp,2024.2.4,53.97192479478901,2025-02-21 09h52.54.898330 -0500,
64,64,0,filler_square,None,None,None,None,None,None,None,None,None,None,1,1.5352084636688232,None,,,,,0,0,0,0,0,64,64,179,520.1552231311798,,,,,,,,,,,,,,,,,,,,,,,,,,,,,,,,,,,,,,,,,,,,,,,,,,,,,,,,,,,,,,,,,,,,,,,,,,,,,,,,,,198.0562702362262,198.0562702362262,142.32917621641602,65.00027274628513,97.8136891622976,125.33970411768124,4.0,4.2,-228,-2,0,-265,191,-14,520.1414942741394,520.1415829658508,520.144889831543,520.1552231311798,520.3024308681488,520.3024308681488,520.3024308681488,520.3024308681488,520.3024308681488,520.3024308681488,520.3024308681488,521.7052104473114,1,1.5352084636688232,None,,,,,,,,,,,,,,,,,,66,2,2025-02-21_09h40.57.369,comp,2024.2.4,53.97192479478901,2025-02-21 09h52.54.898330 -0500,
65,65,0,critical,dwh,35.0,4.0,upper,127.0,127.0,125.0,200.0,200.0,125.0,2,11.434407949447632,None,,,,,0,0,0,0,0,65,65,65,521.720312833786,,,,,,,,,,,,,,,,,,,,,,,,,,,,,,,,,,,,,,,,,,,,,,,,,,,,,,,,,,,,,,,,,,,,,,,,,,,,,,,,,,127.0,127.0,125.0,200.0,200.0,125.0,4.0,4.2,-260,11,0,-289,258,-16,521.7067549228668,521.7068333625793,521.7100563049316,521.720312833786,521.8732199668884,521.8732199668884,521.8732199668884,521.8732199668884,521.8732199668884,521.8732199668884,521.8732199668884,533.1576979160309,2,11.434407949447632,None,,,,,,,,,,,,,,,,,,66,2,2025-02-21_09h40.57.369,comp,2024.2.4,53.97192479478901,2025-02-21 09h52.54.898330 -0500,
66,66,0,critical,hwd,35.0,1.0,upper,200.0,125.0,125.0,200.0,127.0,127.0,2,6.236112356185913,None,,,,,0,0,0,0,0,66,66,97,533.1739883422852,,,,,,,,,,,,,,,,,,,,,,,,,,,,,,,,,,,,,,,,,,,,,,,,,,,,,,,,,,,,,,,,,,,,,,,,,,,,,,,,,,200.0,125.0,125.0,200.0,127.0,127.0,1.0,1.2,-258,20,0,11,260,-11,533.1591596603394,533.1592373847961,533.1626982688904,533.1739883422852,533.3291800022125,533.3291800022125,533.3291800022125,533.3291800022125,533.3291800022125,533.3291800022125,533.3291800022125,539.4259262084961,2,6.236112356185913,None,,,,,,,,,,,,,,,,,,66,2,2025-02-21_09h40.57.369,comp,2024.2.4,53.97192479478901,2025-02-21 09h52.54.898330 -0500,
67,67,0,critical,hwd,20.0,4.0,upper,200.0,125.0,125.0,200.0,141.0,141.0,1,7.847963571548462,None,,,,,0,0,0,0,0,67,67,107,539.442503452301,,,,,,,,,,,,,,,,,,,,,,,,,,,,,,,,,,,,,,,,,,,,,,,,,,,,,,,,,,,,,,,,,,,,,,,,,,,,,,,,,,200.0,125.0,125.0,200.0,141.0,141.0,4.0,4.1,-258,-283,0,7,266,-275,539.4275016784668,539.4276044368744,539.4311490058899,539.442503452301,539.5925340652466,539.5925340652466,539.5925340652466,539.5925340652466,539.5925340652466,539.5925340652466,539.5925340652466,547.2942113876343,1,7.847963571548462,None,,,,,,,,,,,,,,,,,,66,2,2025-02-21_09h40.57.369,comp,2024.2.4,53.97192479478901,2025-02-21 09h52.54.898330 -0500,
68,68,0,filler_square,None,None,None,None,None,None,None,None,None,None,3,1.6109037399291992,None,,,,,0,0,0,0,0,68,68,201,547.3113307952881,,,,,,,,,,,,,,,,,,,,,,,,,,,,,,,,,,,,,,,,,,,,,,,,,,,,,,,,,,,,,,,,,,,,,,,,,,,,,,,,,,102.51551202810768,63.81118564356125,123.30533721411295,71.26254843155176,130.48226858745454,130.48226858745454,4.0,4.2,-164,-13,0,-263,197,6,547.296186208725,547.296305179596,547.2995529174805,547.3113307952881,547.4612061977386,547.4612061977386,547.4612061977386,547.4612061977386,547.4612061977386,547.4612061977386,547.4612061977386,548.9247000217438,3,1.6109037399291992,None,,,,,,,,,,,,,,,,,,66,2,2025-02-21_09h40.57.369,comp,2024.2.4,53.97192479478901,2025-02-21 09h52.54.898330 -0500,
69,69,0,critical,dhw,35.0,2.1,upper,127.0,127.0,200.0,125.0,125.0,200.0,3,2.1865499019622803,None,,,,,0,0,0,0,0,69,69,1,548.9436316490173,,,,,,,,,,,,,,,,,,,,,,,,,,,,,,,,,,,,,,,,,,,,,,,,,,,,,,,,,,,,,,,,,,,,,,,,,,,,,,,,,,127.0,127.0,200.0,125.0,125.0,200.0,2.1,2.11,-222,280,0,273,258,-273,548.9262254238129,548.9263038635254,548.9296436309814,548.9436316490173,549.0831489562988,549.0831489562988,549.0831489562988,549.0831489562988,549.0831489562988,549.0831489562988,549.0831489562988,551.147848367691,3,2.1865499019622803,None,,,,,,,,,,,,,,,,,,66,2,2025-02-21_09h40.57.369,comp,2024.2.4,53.97192479478901,2025-02-21 09h52.54.898330 -0500,
70,70,0,critical,dwh,20.0,3.0,upper,141.0,141.0,125.0,200.0,200.0,125.0,2,5.382416725158691,None,,,,,0,0,0,0,0,70,70,69,551.1636846065521,,,,,,,,,,,,,,,,,,,,,,,,,,,,,,,,,,,,,,,,,,,,,,,,,,,,,,,,,,,,,,,,,,,,,,,,,,,,,,,,,,141.0,141.0,125.0,200.0,200.0,125.0,3.0,3.1,-266,251,0,9,258,-257,551.1493258476257,551.1494474411011,551.1525735855103,551.1636846065521,551.3010396957397,551.3010396957397,551.3010396957397,551.3010396957397,551.3010396957397,551.3010396957397,551.3010396957397,556.5489180088043,2,5.382416725158691,None,,,,,,,,,,,,,,,,,,66,2,2025-02-21_09h40.57.369,comp,2024.2.4,53.97192479478901,2025-02-21 09h52.54.898330 -0500,
71,71,0,filler_square,None,None,None,None,None,None,None,None,None,None,2,3.62174129486084,None,,,,,0,0,0,0,0,71,71,207,556.564445734024,,,,,,,,,,,,,,,,,,,,,,,,,,,,,,,,,,,,,,,,,,,,,,,,,,,,,,,,,,,,,,,,,,,,,,,,,,,,,,,,,,117.58679968819038,113.80410255404185,122.08288897021522,122.08288897021522,75.91750418617707,90.82346438240758,4.0,4.1,-214,-272,0,12,202,-266,556.5507140159607,556.5507936477661,556.553736448288,556.564445734024,556.712774515152,556.712774515152,556.712774515152,556.712774515152,556.712774515152,556.712774515152,556.712774515152,560.1990563869476,2,3.62174129486084,None,,,,,,,,,,,,,,,,,,66,2,2025-02-21_09h40.57.369,comp,2024.2.4,53.97192479478901,2025-02-21 09h52.54.898330 -0500,
72,72,0,catch,None,None,None,None,None,None,None,None,None,None,2,1.457277774810791,None,,,,,0,0,0,0,0,72,72,123,560.2170829772949,,,,,,,,,,,,,,,,,,,,,,,,,,,,,,,,,,,,,,,,,,,,,,,,,,,,,,,,,,,,,,,,,,,,,,,,,,,,,,,,,,93,97,135,190,98,92,3.0,3.2,-240,-271,0,-10,237,256,560.2010316848755,560.2011113166809,560.2043080329895,560.2170829772949,560.3667478561401,560.3667478561401,560.3667478561401,560.3667478561401,560.3667478561401,560.3667478561401,560.3667478561401,561.6828634738922,2,1.457277774810791,None,,,,,,,,,,,,,,,,,,66,2,2025-02-21_09h40.57.369,comp,2024.2.4,53.97192479478901,2025-02-21 09h52.54.898330 -0500,
73,73,0,filler_random,None,None,None,None,None,None,None,None,None,None,2,2.510258913040161,None,,,,,0,0,0,0,0,73,73,133,561.6998529434204,,,,,,,,,,,,,,,,,,,,,,,,,,,,,,,,,,,,,,,,,,,,,,,,,,,,,,,,,,,,,,,,,,,,,,,,,,,,,,,,,,58.34680745123603,158.6659495769641,82.32106670606485,170.21061933421197,66.20462812662709,68.77636783865316,2.1,2.12,-260,-276,0,-250,215,270,561.6847012042999,561.684830904007,561.6881477832794,561.6998529434204,561.8478534221649,561.8478534221649,561.8478534221649,561.8478534221649,561.8478534221649,561.8478534221649,561.8478534221649,564.2232089042664,2,2.510258913040161,None,,,,,,,,,,,,,,,,,,66,2,2025-02-21_09h40.57.369,comp,2024.2.4,53.97192479478901,2025-02-21 09h52.54.898330 -0500,
74,74,0,critical,wdh,35.0,2.1,upper,125.0,200.0,127.0,127.0,200.0,125.0,3,2.2760181427001953,None,,,,,0,0,0,0,0,74,74,33,564.2387223243713,,,,,,,,,,,,,,,,,,,,,,,,,,,,,,,,,,,,,,,,,,,,,,,,,,,,,,,,,,,,,,,,,,,,,,,,,,,,,,,,,,125.0,200.0,127.0,127.0,200.0,125.0,2.1,2.11,-260,256,0,275,222,-254,564.2247042655945,564.2247793674469,564.2276065349579,564.2387223243713,564.3887948989868,564.3887948989868,564.3887948989868,564.3887948989868,564.3887948989868,564.3887948989868,564.3887948989868,566.5196361541748,3,2.2760181427001953,None,,,,,,,,,,,,,,,,,,66,2,2025-02-21_09h40.57.369,comp,2024.2.4,53.97192479478901,2025-02-21 09h52.54.898330 -0500,
75,75,0,filler_random,None,None,None,None,None,None,None,None,None,None,3,13.131286382675171,None,,,,,0,0,0,0,0,75,75,165,566.5354526042938,,,,,,,,,,,,,,,,,,,,,,,,,,,,,,,,,,,,,,,,,,,,,,,,,,,,,,,,,,,,,,,,,,,,,,,,,,,,,,,,,,108.73423329534887,97.16708361415823,196.8805020321274,111.3415179557922,131.49994037915286,134.88702217312516,2.1,2.12,-200,-260,0,-272,219,289,566.5213255882263,566.5214302539825,566.524646282196,566.5354526042938,566.6869716644287,566.6869716644287,566.6869716644287,566.6869716644287,566.6869716644287,566.6869716644287,566.6869716644287,579.675714969635,3,13.131286382675171,None,,,,,,,,,,,,,,,,,,66,2,2025-02-21_09h40.57.369,comp,2024.2.4,53.97192479478901,2025-02-21 09h52.54.898330 -0500,
76,76,0,critical,hdw,20.0,1.0,lower,133.0,57.0,78.0,78.0,57.0,133.0,3,6.431333065032959,None,,,,,0,0,0,0,0,76,76,114,579.6914777755737,,,,,,,,,,,,,,,,,,,,,,,,,,,,,,,,,,,,,,,,,,,,,,,,,,,,,,,,,,,,,,,,,,,,,,,,,,,,,,,,,,133.0,57.0,78.0,78.0,57.0,133.0,1.0,1.1,-644,274,-480,269,-278,265,579.6773204803467,579.6774320602417,579.6806855201721,579.6914777755737,579.8389093875885,579.8389093875885,579.8389093875885,579.8389093875885,579.8389093875885,579.8389093875885,579.8389093875885,586.1294355392456,3,6.431333065032959,None,,,,,,,,,,,,,,,,,,66,2,2025-02-21_09h40.57.369,comp,2024.2.4,53.97192479478901,2025-02-21 09h52.54.898330 -0500,
77,77,0,critical,hwd,20.0,4.0,lower,133.0,57.0,57.0,133.0,78.0,78.0,3,6.377190589904785,None,,,,,0,0,0,0,0,77,77,106,586.1452980041504,,,,,,,,,,,,,,,,,,,,,,,,,,,,,,,,,,,,,,,,,,,,,,,,,,,,,,,,,,,,,,,,,,,,,,,,,,,,,,,,,,133.0,57.0,57.0,133.0,78.0,78.0,4.0,4.1,-191,-263,0,10,202,-255,586.1310365200043,586.1311130523682,586.1344439983368,586.1452980041504,586.2898666858673,586.2898666858673,586.2898666858673,586.2898666858673,586.2898666858673,586.2898666858673,586.2898666858673,592.5277960300446,3,6.377190589904785,None,,,,,,,,,,,,,,,,,,66,2,2025-02-21_09h40.57.369,comp,2024.2.4,53.97192479478901,2025-02-21 09h52.54.898330 -0500,
78,78,0,filler_square,None,None,None,None,None,None,None,None,None,None,2,2.5619425773620605,None,,,,,0,0,0,0,0,78,78,196,592.5448718070984,,,,,,,,,,,,,,,,,,,,,,,,,,,,,,,,,,,,,,,,,,,,,,,,,,,,,,,,,,,,,,,,,,,,,,,,,,,,,,,,,,147.91313136738086,134.4730634159724,170.3405881893201,170.3405881893201,161.36198606236553,112.86143706988649,3.0,3.1,-248,252,0,-16,238,-288,592.5299243927002,592.5300047397614,592.5340819358826,592.5448718070984,592.6934065818787,592.6934065818787,592.6934065818787,592.6934065818787,592.6934065818787,592.6934065818787,592.6934065818787,595.1134247779846,2,2.5619425773620605,None,,,,,,,,,,,,,,,,,,66,2,2025-02-21_09h40.57.369,comp,2024.2.4,53.97192479478901,2025-02-21 09h52.54.898330 -0500,
79,79,0,critical,hdw,35.0,2.1,upper,200.0,125.0,127.0,127.0,125.0,200.0,1,10.624965906143188,None,,,,,0,0,0,0,0,79,79,45,595.1300566196442,,,,,,,,,,,,,,,,,,,,,,,,,,,,,,,,,,,,,,,,,,,,,,,,,,,,,,,,,,,,,,,,,,,,,,,,,,,,,,,,,,200.0,125.0,127.0,127.0,125.0,200.0,2.1,2.12,-222,-269,0,-279,260,279,595.1149594783783,595.1150331497192,595.1188292503357,595.1300566196442,595.2751517295837,595.2751517295837,595.2751517295837,595.2751517295837,595.2751517295837,595.2751517295837,595.2751517295837,605.7649869918823,1,10.624965906143188,None,,,,,,,,,,,,,,,,,,66,2,2025-02-21_09h40.57.369,comp,2024.2.4,53.97192479478901,2025-02-21 09h52.54.898330 -0500,
80,80,0,critical,hwd,35.0,3.0,lower,133.0,57.0,57.0,133.0,70.0,70.0,1,3.4760518074035645,None,,,,,0,0,0,0,0,80,80,98,605.7827417850494,,,,,,,,,,,,,,,,,,,,,,,,,,,,,,,,,,,,,,,,,,,,,,,,,,,,,,,,,,,,,,,,,,,,,,,,,,,,,,,,,,133.0,57.0,57.0,133.0,70.0,70.0,3.0,3.2,-191,-282,0,1,198,280,605.7665774822235,605.7666583061218,605.769540309906,605.7827417850494,605.9291710853577,605.9291710853577,605.9291710853577,605.9291710853577,605.9291710853577,605.9291710853577,605.9291710853577,609.2639396190643,1,3.4760518074035645,None,,,,,,,,,,,,,,,,,,66,2,2025-02-21_09h40.57.369,comp,2024.2.4,53.97192479478901,2025-02-21 09h52.54.898330 -0500,
81,81,0,critical,dwh,35.0,4.0,lower,70.0,70.0,57.0,133.0,133.0,57.0,2,9.636215925216675,None,,,,,0,0,0,0,0,81,81,64,609.2789540290833,,,,,,,,,,,,,,,,,,,,,,,,,,,,,,,,,,,,,,,,,,,,,,,,,,,,,,,,,,,,,,,,,,,,,,,,,,,,,,,,,,70.0,70.0,57.0,133.0,133.0,57.0,4.0,4.1,-198,-269,0,-16,191,-271,609.2654161453247,609.2654931545258,609.2683029174805,609.2789540290833,609.4314475059509,609.4314475059509,609.4314475059509,609.4314475059509,609.4314475059509,609.4314475059509,609.4314475059509,618.9197566509247,2,9.636215925216675,None,,,,,,,,,,,,,,,,,,66,2,2025-02-21_09h40.57.369,comp,2024.2.4,53.97192479478901,2025-02-21 09h52.54.898330 -0500,
82,82,0,filler_random,None,None,None,None,None,None,None,None,None,None,1,5.7311341762542725,None,,,,,0,0,0,0,0,82,82,132,618.9354779720306,,,,,,,,,,,,,,,,,,,,,,,,,,,,,,,,,,,,,,,,,,,,,,,,,,,,,,,,,,,,,,,,,,,,,,,,,,,,,,,,,,85.63227336803179,158.9468682901162,144.24433520286541,58.49407899880747,95.56164710365448,83.1630967596231,1.0,1.1,-685,271,-480,270,-313,252,618.9215037822723,618.9215834140778,618.9247653484344,618.9354779720306,619.0894901752472,619.0894901752472,619.0894901752472,619.0894901752472,619.0894901752472,619.0894901752472,619.0894901752472,624.6687049865723,1,5.7311341762542725,None,,,,,,,,,,,,,,,,,,66,2,2025-02-21_09h40.57.369,comp,2024.2.4,53.97192479478901,2025-02-21 09h52.54.898330 -0500,
83,83,0,filler_random,None,None,None,None,None,None,None,None,None,None,3,1.9215240478515625,None,,,,,0,0,0,0,0,83,83,166,624.6887366771698,,,,,,,,,,,,,,,,,,,,,,,,,,,,,,,,,,,,,,,,,,,,,,,,,,,,,,,,,,,,,,,,,,,,,,,,,,,,,,,,,,62.93928442874474,196.55137161934934,88.02093586564378,82.29720541620503,150.89568060491303,150.44217718026079,3.0,3.1,-235,252,0,9,212,-260,624.6703996658325,624.6704833507538,624.6735436916351,624.6887366771698,624.8214206695557,624.8214206695557,624.8214206695557,624.8214206695557,624.8214206695557,624.8214206695557,624.8214206695557,626.619779586792,3,1.9215240478515625,None,,,,,,,,,,,,,,,,,,66,2,2025-02-21_09h40.57.369,comp,2024.2.4,53.97192479478901,2025-02-21 09h52.54.898330 -0500,
84,84,0,filler_random,None,None,None,None,None,None,None,None,None,None,2,1.9200291633605957,None,,,,,0,0,0,0,0,84,84,159,626.6349701881409,,,,,,,,,,,,,,,,,,,,,,,,,,,,,,,,,,,,,,,,,,,,,,,,,,,,,,,,,,,,,,,,,,,,,,,,,,,,,,,,,,133.103662838991,80.6509318595187,188.79622899891214,156.4680926908903,72.5491596635266,58.17617671033252,2.1,2.12,-215,-257,0,-258,203,257,626.6216201782227,626.6217594146729,626.6250710487366,626.6349701881409,626.787309885025,626.787309885025,626.787309885025,626.787309885025,626.787309885025,626.787309885025,626.787309885025,628.5595033168793,2,1.9200291633605957,None,,,,,,,,,,,,,,,,,,66,2,2025-02-21_09h40.57.369,comp,2024.2.4,53.97192479478901,2025-02-21 09h52.54.898330 -0500,
85,85,0,critical,dwh,20.0,4.0,upper,141.0,141.0,125.0,200.0,200.0,125.0,2,2.3470711708068848,None,,,,,0,0,0,0,0,85,85,71,628.575386762619,,,,,,,,,,,,,,,,,,,,,,,,,,,,,,,,,,,,,,,,,,,,,,,,,,,,,,,,,,,,,,,,,,,,,,,,,,,,,,,,,,141.0,141.0,125.0,200.0,200.0,125.0,4.0,4.2,-266,-10,0,-255,258,2,628.5610172748566,628.5610945224762,628.5639264583588,628.575386762619,628.7234153747559,628.7234153747559,628.7234153747559,628.7234153747559,628.7234153747559,628.7234153747559,628.7234153747559,630.9394586086273,2,2.3470711708068848,None,,,,,,,,,,,,,,,,,,66,2,2025-02-21_09h40.57.369,comp,2024.2.4,53.97192479478901,2025-02-21 09h52.54.898330 -0500,
86,86,0,critical,hwd,35.0,2.1,lower,133.0,57.0,57.0,133.0,70.0,70.0,3,6.990878105163574,None,,,,,0,0,0,0,0,86,86,16,630.9553563594818,,,,,,,,,,,,,,,,,,,,,,,,,,,,,,,,,,,,,,,,,,,,,,,,,,,,,,,,,,,,,,,,,,,,,,,,,,,,,,,,,,133.0,57.0,57.0,133.0,70.0,70.0,2.1,2.12,-191,-275,0,-271,198,250,630.9409577846527,630.9410331249237,630.9440903663635,630.9553563594818,631.1069161891937,631.1069161891937,631.1069161891937,631.1069161891937,631.1069161891937,631.1069161891937,631.1069161891937,637.9595038890839,3,6.990878105163574,None,,,,,,,,,,,,,,,,,,66,2,2025-02-21_09h40.57.369,comp,2024.2.4,53.97192479478901,2025-02-21 09h52.54.898330 -0500,
87,87,0,critical,hdw,20.0,2.1,upper,200.0,125.0,141.0,141.0,125.0,200.0,1,2.7677597999572754,None,,,,,0,0,0,0,0,87,87,23,637.9791488647461,,,,,,,,,,,,,,,,,,,,,,,,,,,,,,,,,,,,,,,,,,,,,,,,,,,,,,,,,,,,,,,,,,,,,,,,,,,,,,,,,,200.0,125.0,141.0,141.0,125.0,200.0,2.1,2.12,-229,-256,0,-253,266,289,637.9611124992371,637.9611911773682,637.9642608165741,637.9791488647461,638.1138865947723,638.1138865947723,638.1138865947723,638.1138865947723,638.1138865947723,638.1138865947723,638.1138865947723,640.7625551223755,1,2.7677597999572754,None,,,,,,,,,,,,,,,,,,66,2,2025-02-21_09h40.57.369,comp,2024.2.4,53.97192479478901,2025-02-21 09h52.54.898330 -0500,
88,88,0,critical,dwh,20.0,2.1,lower,78.0,78.0,57.0,133.0,133.0,57.0,3,9.726733684539795,None,,,,,0,0,0,0,0,88,88,6,640.7801859378815,,,,,,,,,,,,,,,,,,,,,,,,,,,,,,,,,,,,,,,,,,,,,,,,,,,,,,,,,,,,,,,,,,,,,,,,,,,,,,,,,,78.0,78.0,57.0,133.0,133.0,57.0,2.1,2.11,-202,266,0,270,191,-279,640.7645621299744,640.7646400928497,640.7675485610962,640.7801859378815,640.9264869689941,640.9264869689941,640.9264869689941,640.9264869689941,640.9264869689941,640.9264869689941,640.9264869689941,650.5119912624359,3,9.726733684539795,None,,,,,,,,,,,,,,,,,,66,2,2025-02-21_09h40.57.369,comp,2024.2.4,53.97192479478901,2025-02-21 09h52.54.898330 -0500,
89,89,0,critical,whd,35.0,2.1,lower,57.0,133.0,133.0,57.0,70.0,70.0,3,5.5702245235443115,None,,,,,0,0,0,0,0,89,89,36,650.5281867980957,,,,,,,,,,,,,,,,,,,,,,,,,,,,,,,,,,,,,,,,,,,,,,,,,,,,,,,,,,,,,,,,,,,,,,,,,,,,,,,,,,57.0,133.0,133.0,57.0,70.0,70.0,2.1,2.11,-191,255,0,255,160,-254,650.5134563446045,650.513555765152,650.5170984268188,650.5281867980957,650.6808578968048,650.6808578968048,650.6808578968048,650.6808578968048,650.6808578968048,650.6808578968048,650.6808578968048,656.1127066612244,3,5.5702245235443115,None,,,,,,,,,,,,,,,,,,66,2,2025-02-21_09h40.57.369,comp,2024.2.4,53.97192479478901,2025-02-21 09h52.54.898330 -0500,
90,90,0,filler_square,None,None,None,None,None,None,None,None,None,None,1,1.5694255828857422,None,,,,,0,0,0,0,0,90,90,188,656.1289148330688,,,,,,,,,,,,,,,,,,,,,,,,,,,,,,,,,,,,,,,,,,,,,,,,,,,,,,,,,,,,,,,,,,,,,,,,,,,,,,,,,,119.96435345635857,119.96435345635857,102.91513660337563,58.416466281759064,64.62937606512291,99.56087068323922,2.1,2.12,-185,-289,0,-270,175,284,656.1145467758179,656.1146218776703,656.1186437606812,656.1289148330688,656.2770574092865,656.2770574092865,656.2770574092865,656.2770574092865,656.2770574092865,656.2770574092865,656.2770574092865,657.7149639129639,1,1.5694255828857422,None,,,,,,,,,,,,,,,,,,66,2,2025-02-21_09h40.57.369,comp,2024.2.4,53.97192479478901,2025-02-21 09h52.54.898330 -0500,
91,91,0,critical,whd,35.0,4.0,lower,57.0,133.0,133.0,57.0,70.0,70.0,1,7.47127366065979,None,,,,,0,0,0,0,0,91,91,88,657.7310810089111,,,,,,,,,,,,,,,,,,,,,,,,,,,,,,,,,,,,,,,,,,,,,,,,,,,,,,,,,,,,,,,,,,,,,,,,,,,,,,,,,,57.0,133.0,133.0,57.0,70.0,70.0,4.0,4.1,-191,-258,0,-13,160,-263,657.7165641784668,657.7166392803192,657.7198827266693,657.7310810089111,657.8803431987762,657.8803431987762,657.8803431987762,657.8803431987762,657.8803431987762,657.8803431987762,657.8803431987762,665.2149524688721,1,7.47127366065979,None,,,,,,,,,,,,,,,,,,66,2,2025-02-21_09h40.57.369,comp,2024.2.4,53.97192479478901,2025-02-21 09h52.54.898330 -0500,
92,92,0,critical,hwd,20.0,2.1,lower,133.0,57.0,57.0,133.0,78.0,78.0,1,6.187710285186768,None,,,,,0,0,0,0,0,92,92,42,665.230758190155,,,,,,,,,,,,,,,,,,,,,,,,,,,,,,,,,,,,,,,,,,,,,,,,,,,,,,,,,,,,,,,,,,,,,,,,,,,,,,,,,,133.0,57.0,57.0,133.0,78.0,78.0,2.1,2.12,-191,-262,0,-282,202,276,665.2164106369019,665.21648645401,665.2195088863373,665.230758190155,665.3849561214447,665.3849561214447,665.3849561214447,665.3849561214447,665.3849561214447,665.3849561214447,665.3849561214447,671.4342114925385,1,6.187710285186768,None,,,,,,,,,,,,,,,,,,66,2,2025-02-21_09h40.57.369,comp,2024.2.4,53.97192479478901,2025-02-21 09h52.54.898330 -0500,
93,93,0,filler_square,None,None,None,None,None,None,None,None,None,None,2,1.6563138961791992,None,,,,,0,0,0,0,0,93,93,194,671.4503390789032,,,,,,,,,,,,,,,,,,,,,,,,,,,,,,,,,,,,,,,,,,,,,,,,,,,,,,,,,,,,,,,,,,,,,,,,,,,,,,,,,,72.47294314104066,84.43922743469525,129.58430113970516,129.58430113970516,89.47132999153504,57.613773492565045,2.2,2.21,-203,-257,0,272,190,266,671.4359819889069,671.4360570907593,671.4400763511658,671.4503390789032,671.5989212989807,671.5989212989807,671.5989212989807,671.5989212989807,671.5989212989807,671.5989212989807,671.5989212989807,673.1113891601562,2,1.6563138961791992,None,,,,,,,,,,,,,,,,,,66,2,2025-02-21_09h40.57.369,comp,2024.2.4,53.97192479478901,2025-02-21 09h52.54.898330 -0500,
94,94,0,filler_random,None,None,None,None,None,None,None,None,None,None,1,9.099713325500488,None,,,,,0,0,0,0,0,94,94,138,673.1276333332062,,,,,,,,,,,,,,,,,,,,,,,,,,,,,,,,,,,,,,,,,,,,,,,,,,,,,,,,,,,,,,,,,,,,,,,,,,,,,,,,,,115.2463134130635,109.7697492521898,109.49945489850776,79.44067467905842,134.78514591241228,66.55884072025293,1.0,1.1,-671,276,-480,272,-311,274,673.1131556034088,673.1132845878601,673.1166188716888,673.1276333332062,673.2682507038116,673.2682507038116,673.2682507038116,673.2682507038116,673.2682507038116,673.2682507038116,673.2682507038116,682.240264415741,1,9.099713325500488,None,,,,,,,,,,,,,,,,,,66,2,2025-02-21_09h40.57.369,comp,2024.2.4,53.97192479478901,2025-02-21 09h52.54.898330 -0500,
95,95,0,critical,dhw,35.0,4.0,lower,70.0,70.0,133.0,57.0,57.0,133.0,2,4.5784056186676025,None,,,,,0,0,0,0,0,95,95,52,682.2559802532196,,,,,,,,,,,,,,,,,,,,,,,,,,,,,,,,,,,,,,,,,,,,,,,,,,,,,,,,,,,,,,,,,,,,,,,,,,,,,,,,,,70.0,70.0,133.0,57.0,57.0,133.0,4.0,4.2,-160,-18,0,-271,191,10,682.2420184612274,682.2421379089355,682.2457480430603,682.2559802532196,682.4040341377258,682.4040341377258,682.4040341377258,682.4040341377258,682.4040341377258,682.4040341377258,682.4040341377258,686.8437123298645,2,4.5784056186676025,None,,,,,,,,,,,,,,,,,,66,2,2025-02-21_09h40.57.369,comp,2024.2.4,53.97192479478901,2025-02-21 09h52.54.898330 -0500,
96,96,0,catch,None,None,None,None,None,None,None,None,None,None,3,1.3979272842407227,None,,,,,0,0,0,0,0,96,96,129,686.8609595298767,,,,,,,,,,,,,,,,,,,,,,,,,,,,,,,,,,,,,,,,,,,,,,,,,,,,,,,,,,,,,,,,,,,,,,,,,,,,,,,,,,132,58,131,59,190,135,4.0,4.1,-154,-268,0,4,193,-271,686.8458552360535,686.8459351062775,686.8491818904877,686.8609595298767,687.0065813064575,687.0065813064575,687.0065813064575,687.0065813064575,687.0065813064575,687.0065813064575,687.0065813064575,688.264919757843,3,1.3979272842407227,None,,,,,,,,,,,,,,,,,,66,2,2025-02-21_09h40.57.369,comp,2024.2.4,53.97192479478901,2025-02-21 09h52.54.898330 -0500,
97,97,0,filler_random,None,None,None,None,None,None,None,None,None,None,2,3.2071785926818848,None,,,,,0,0,0,0,0,97,97,164,688.2832825183868,,,,,,,,,,,,,,,,,,,,,,,,,,,,,,,,,,,,,,,,,,,,,,,,,,,,,,,,,,,,,,,,,,,,,,,,,,,,,,,,,,174.61678794953806,59.36926915507597,145.37494517179937,163.8133839016946,121.37157050546078,160.93294299094282,2.1,2.12,-208,-260,0,-269,258,258,688.266813993454,688.2669017314911,688.2700712680817,688.2832825183868,688.4208064079285,688.4208064079285,688.4208064079285,688.4208064079285,688.4208064079285,688.4208064079285,688.4208064079285,691.5072331428528,2,3.2071785926818848,None,,,,,,,,,,,,,,,,,,66,2,2025-02-21_09h40.57.369,comp,2024.2.4,53.97192479478901,2025-02-21 09h52.54.898330 -0500,
98,98,0,critical,dwh,35.0,2.1,upper,127.0,127.0,125.0,200.0,200.0,125.0,2,7.767832279205322,None,,,,,0,0,0,0,0,98,98,29,691.5229988098145,,,,,,,,,,,,,,,,,,,,,,,,,,,,,,,,,,,,,,,,,,,,,,,,,,,,,,,,,,,,,,,,,,,,,,,,,,,,,,,,,,127.0,127.0,125.0,200.0,200.0,125.0,2.1,2.12,-260,-251,0,-257,258,282,691.5087480545044,691.5088255405426,691.5127561092377,691.5229988098145,691.680775642395,691.680775642395,691.680775642395,691.680775642395,691.680775642395,691.680775642395,691.680775642395,699.2992041110992,2,7.767832279205322,None,,,,,,,,,,,,,,,,,,66,2,2025-02-21_09h40.57.369,comp,2024.2.4,53.97192479478901,2025-02-21 09h52.54.898330 -0500,
99,99,0,critical,whd,35.0,4.0,upper,125.0,200.0,200.0,125.0,127.0,127.0,1,1.972564458847046,None,,,,,0,0,0,0,0,99,99,89,699.3179125785828,,,,,,,,,,,,,,,,,,,,,,,,,,,,,,,,,,,,,,,,,,,,,,,,,,,,,,,,,,,,,,,,,,,,,,,,,,,,,,,,,,125.0,200.0,200.0,125.0,127.0,127.0,4.0,4.1,-258,-284,0,-10,222,-255,699.3007049560547,699.3007824420929,699.3036098480225,699.3179125785828,699.4592652320862,699.4592652320862,699.4592652320862,699.4592652320862,699.4592652320862,699.4592652320862,699.4592652320862,701.3017454147339,1,1.972564458847046,None,,,,,,,,,,,,,,,,,,66,2,2025-02-21_09h40.57.369,comp,2024.2.4,53.97192479478901,2025-02-21 09h52.54.898330 -0500,
100,100,0,filler_square,None,None,None,None,None,None,None,None,None,None,2,4.757397413253784,None,,,,,0,0,0,0,0,100,100,176,701.3173170089722,,,,,,,,,,,,,,,,,,,,,,,,,,,,,,,,,,,,,,,,,,,,,,,,,,,,,,,,,,,,,,,,,,,,,,,,,,,,,,,,,,80.37959762950081,80.37959762950081,78.65733422108644,79.15992736680894,79.20032372672955,63.70215055223157,3.0,3.1,-176,255,0,18,167,-277,701.3035089969635,701.3036224842072,701.3066055774689,701.3173170089722,701.4593987464905,701.4593987464905,701.4593987464905,701.4593987464905,701.4593987464905,701.4593987464905,701.4593987464905,706.079879283905,2,4.757397413253784,None,,,,,,,,,,,,,,,,,,66,2,2025-02-21_09h40.57.369,comp,2024.2.4,53.97192479478901,2025-02-21 09h52.54.898330 -0500,
101,101,0,filler_square,None,None,None,None,None,None,None,None,None,None,3,1.8093798160552979,None,,,,,0,0,0,0,0,101,101,202,706.0970940589905,,,,,,,,,,,,,,,,,,,,,,,,,,,,,,,,,,,,,,,,,,,,,,,,,,,,,,,,,,,,,,,,,,,,,,,,,,,,,,,,,,88.25387773390668,61.739762228382276,71.52919368999143,130.9478342106047,197.99315768154972,197.99315768154972,2.2,2.21,-192,-262,0,282,260,281,706.0819191932678,706.0819990634918,706.0855193138123,706.0970940589905,706.2461025714874,706.2461025714874,706.2461025714874,706.2461025714874,706.2461025714874,706.2461025714874,706.2461025714874,707.922164440155,3,1.8093798160552979,None,,,,,,,,,,,,,,,,,,66,2,2025-02-21_09h40.57.369,comp,2024.2.4,53.97192479478901,2025-02-21 09h52.54.898330 -0500,
102,102,0,critical,whd,20.0,4.0,upper,125.0,200.0,200.0,125.0,141.0,141.0,1,6.519041061401367,None,,,,,0,0,0,0,0,102,102,95,707.9398477077484,,,,,,,,,,,,,,,,,,,,,,,,,,,,,,,,,,,,,,,,,,,,,,,,,,,,,,,,,,,,,,,,,,,,,,,,,,,,,,,,,,125.0,200.0,200.0,125.0,141.0,141.0,4.0,4.1,-258,-260,0,5,229,-267,707.923755645752,707.9238436222076,707.9271848201752,707.9398477077484,708.0769443511963,708.0769443511963,708.0769443511963,708.0769443511963,708.0769443511963,708.0769443511963,708.0769443511963,714.4632701873779,1,6.519041061401367,None,,,,,,,,,,,,,,,,,,66,2,2025-02-21_09h40.57.369,comp,2024.2.4,53.97192479478901,2025-02-21 09h52.54.898330 -0500,
103,103,0,filler_square,None,None,None,None,None,None,None,None,None,None,1,9.003474712371826,None,,,,,0,0,0,0,0,103,103,199,714.4796874523163,,,,,,,,,,,,,,,,,,,,,,,,,,,,,,,,,,,,,,,,,,,,,,,,,,,,,,,,,,,,,,,,,,,,,,,,,,,,,,,,,,66.73461279678163,66.73461279678163,65.0089338983211,61.91368383798238,64.48528901615627,58.030284652672826,2.2,2.22,-160,278,0,-251,156,-269,714.4649732112885,714.4650506973267,714.4681162834167,714.4796874523163,714.6297874450684,714.6297874450684,714.6297874450684,714.6297874450684,714.6297874450684,714.6297874450684,714.6297874450684,723.4860928058624,1,9.003474712371826,None,,,,,,,,,,,,,,,,,,66,2,2025-02-21_09h40.57.369,comp,2024.2.4,53.97192479478901,2025-02-21 09h52.54.898330 -0500,
104,104,0,critical,wdh,20.0,2.1,lower,57.0,133.0,78.0,78.0,133.0,57.0,3,4.963594913482666,None,,,,,0,0,0,0,0,104,104,34,723.503036737442,,,,,,,,,,,,,,,,,,,,,,,,,,,,,,,,,,,,,,,,,,,,,,,,,,,,,,,,,,,,,,,,,,,,,,,,,,,,,,,,,,57.0,133.0,78.0,78.0,133.0,57.0,2.1,2.11,-202,251,0,281,164,-269,723.487762928009,723.4878449440002,723.4917314052582,723.503036737442,723.6525509357452,723.6525509357452,723.6525509357452,723.6525509357452,723.6525509357452,723.6525509357452,723.6525509357452,728.4877426624298,3,4.963594913482666,None,,,,,,,,,,,,,,,,,,66,2,2025-02-21_09h40.57.369,comp,2024.2.4,53.97192479478901,2025-02-21 09h52.54.898330 -0500,
105,105,0,catch,None,None,None,None,None,None,None,None,None,None,2,1.344343900680542,None,,,,,0,0,0,0,0,105,105,121,728.5061078071594,,,,,,,,,,,,,,,,,,,,,,,,,,,,,,,,,,,,,,,,,,,,,,,,,,,,,,,,,,,,,,,,,,,,,,,,,,,,,,,,,,118,72,169,156,102,88,3.0,3.2,-210,-263,0,9,218,270,728.4899492263794,728.4900262355804,728.4934432506561,728.5061078071594,728.6525409221649,728.6525409221649,728.6525409221649,728.6525409221649,728.6525409221649,728.6525409221649,728.6525409221649,729.8547067642212,2,1.344343900680542,None,,,,,,,,,,,,,,,,,,66,2,2025-02-21_09h40.57.369,comp,2024.2.4,53.97192479478901,2025-02-21 09h52.54.898330 -0500,
106,106,0,critical,dhw,20.0,4.0,upper,141.0,141.0,200.0,125.0,125.0,200.0,2,2.947948694229126,None,,,,,0,0,0,0,0,106,106,59,729.8708424568176,,,,,,,,,,,,,,,,,,,,,,,,,,,,,,,,,,,,,,,,,,,,,,,,,,,,,,,,,,,,,,,,,,,,,,,,,,,,,,,,,,141.0,141.0,200.0,125.0,125.0,200.0,4.0,4.1,-229,-256,0,18,258,-276,729.856452703476,729.8565907478333,729.859959602356,729.8708424568176,730.0187094211578,730.0187094211578,730.0187094211578,730.0187094211578,730.0187094211578,730.0187094211578,730.0187094211578,732.8365714550018,2,2.947948694229126,None,,,,,,,,,,,,,,,,,,66,2,2025-02-21_09h40.57.369,comp,2024.2.4,53.97192479478901,2025-02-21 09h52.54.898330 -0500,
107,107,0,critical,hdw,20.0,2.1,lower,133.0,57.0,78.0,78.0,57.0,133.0,3,2.6818482875823975,None,,,,,0,0,0,0,0,107,107,46,732.8566493988037,,,,,,,,,,,,,,,,,,,,,,,,,,,,,,,,,,,,,,,,,,,,,,,,,,,,,,,,,,,,,,,,,,,,,,,,,,,,,,,,,,133.0,57.0,78.0,78.0,57.0,133.0,2.1,2.12,-164,-263,0,-254,202,264,732.8381133079529,732.8381896018982,732.8415374755859,732.8566493988037,733.0032861232758,733.0032861232758,733.0032861232758,733.0032861232758,733.0032861232758,733.0032861232758,733.0032861232758,735.5561728477478,3,2.6818482875823975,None,,,,,,,,,,,,,,,,,,66,2,2025-02-21_09h40.57.369,comp,2024.2.4,53.97192479478901,2025-02-21 09h52.54.898330 -0500,
108,108,0,filler_square,None,None,None,None,None,None,None,None,None,None,2,2.5573863983154297,None,,,,,0,0,0,0,0,108,108,183,735.5737071037292,,,,,,,,,,,,,,,,,,,,,,,,,,,,,,,,,,,,,,,,,,,,,,,,,,,,,,,,,,,,,,,,,,,,,,,,,,,,,,,,,,136.6232048617921,91.27777285245298,140.0931410509828,140.0931410509828,102.73841555543132,129.20784308130908,1.0,1.3,268,-251,480,-261,711,-268,735.558235168457,735.5583126544952,735.5617413520813,735.5737071037292,735.7235689163208,735.7235689163208,735.7235689163208,735.7235689163208,735.7235689163208,735.7235689163208,735.7235689163208,738.1385345458984,2,2.5573863983154297,None,,,,,,,,,,,,,,,,,,66,2,2025-02-21_09h40.57.369,comp,2024.2.4,53.97192479478901,2025-02-21 09h52.54.898330 -0500,
109,109,0,critical,hdw,20.0,2.1,upper,200.0,125.0,141.0,141.0,125.0,200.0,3,6.296206712722778,None,,,,,0,0,0,0,0,109,109,47,738.1544840335846,,,,,,,,,,,,,,,,,,,,,,,,,,,,,,,,,,,,,,,,,,,,,,,,,,,,,,,,,,,,,,,,,,,,,,,,,,,,,,,,,,200.0,125.0,141.0,141.0,125.0,200.0,2.1,2.11,-229,288,0,256,266,-268,738.1401381492615,738.1402270793915,738.143661737442,738.1544840335846,738.3053157329559,738.3053157329559,738.3053157329559,738.3053157329559,738.3053157329559,738.3053157329559,738.3053157329559,744.4618561267853,3,6.296206712722778,None,,,,,,,,,,,,,,,,,,66,2,2025-02-21_09h40.57.369,comp,2024.2.4,53.97192479478901,2025-02-21 09h52.54.898330 -0500,
110,110,0,critical,hdw,35.0,3.0,upper,200.0,125.0,127.0,127.0,125.0,200.0,1,2.473559617996216,None,,,,,0,0,0,0,0,110,110,111,744.4809670448303,,,,,,,,,,,,,,,,,,,,,,,,,,,,,,,,,,,,,,,,,,,,,,,,,,,,,,,,,,,,,,,,,,,,,,,,,,,,,,,,,,200.0,125.0,127.0,127.0,125.0,200.0,3.0,3.2,-222,-274,0,0,260,262,744.463344335556,744.4634544849396,744.466305732727,744.4809670448303,744.6245563030243,744.6245563030243,744.6245563030243,744.6245563030243,744.6245563030243,744.6245563030243,744.6245563030243,746.9648926258087,1,2.473559617996216,None,,,,,,,,,,,,,,,,,,66,2,2025-02-21_09h40.57.369,comp,2024.2.4,53.97192479478901,2025-02-21 09h52.54.898330 -0500,
111,111,0,filler_random,None,None,None,None,None,None,None,None,None,None,1,3.6575324535369873,None,,,,,0,0,0,0,0,111,111,149,746.9849677085876,,,,,,,,,,,,,,,,,,,,,,,,,,,,,,,,,,,,,,,,,,,,,,,,,,,,,,,,,,,,,,,,,,,,,,,,,,,,,,,,,,139.92816039357064,77.90988153591161,65.48130269534033,185.45494346563933,94.2725854560866,75.81239784084983,2.1,2.12,-228,-253,0,-254,227,268,746.9667174816132,746.9668350219727,746.9700260162354,746.9849677085876,747.1245732307434,747.1245732307434,747.1245732307434,747.1245732307434,747.1245732307434,747.1245732307434,747.1245732307434,750.6598105430603,1,3.6575324535369873,None,,,,,,,,,,,,,,,,,,66,2,2025-02-21_09h40.57.369,comp,2024.2.4,53.97192479478901,2025-02-21 09h52.54.898330 -0500,
112,112,0,filler_random,None,None,None,None,None,None,None,None,None,None,3,1.728550672531128,None,,,,,0,0,0,0,0,112,112,136,750.6740684509277,,,,,,,,,,,,,,,,,,,,,,,,,,,,,,,,,,,,,,,,,,,,,,,,,,,,,,,,,,,,,,,,,,,,,,,,,,,,,,,,,,70.86236008184723,189.91989561028964,65.04975927169481,154.54996801683362,99.81175068069724,177.4022075454614,3.0,3.2,-268,-281,0,14,262,286,750.66153216362,750.6616098880768,750.6647481918335,750.6740684509277,750.8248775005341,750.8248775005341,750.8248775005341,750.8248775005341,750.8248775005341,750.8248775005341,750.8248775005341,752.4086735248566,3,1.728550672531128,None,,,,,,,,,,,,,,,,,,66,2,2025-02-21_09h40.57.369,comp,2024.2.4,53.97192479478901,2025-02-21 09h52.54.898330 -0500,
113,113,0,filler_random,None,None,None,None,None,None,None,None,None,None,3,1.8214247226715088,None,,,,,0,0,0,0,0,113,113,130,752.4295837879181,,,,,,,,,,,,,,,,,,,,,,,,,,,,,,,,,,,,,,,,,,,,,,,,,,,,,,,,,,,,,,,,,,,,,,,,,,,,,,,,,,90.301061832232,58.69709422325188,86.8820682355148,153.72461803806516,155.85371947358843,141.27078016963952,1.0,1.2,-202,-3,0,1,243,-1,752.4103949069977,752.4105286598206,752.4138689041138,752.4295837879181,752.575457572937,752.575457572937,752.575457572937,752.575457572937,752.575457572937,752.575457572937,752.575457572937,754.2666935920715,3,1.8214247226715088,None,,,,,,,,,,,,,,,,,,66,2,2025-02-21_09h40.57.369,comp,2024.2.4,53.97192479478901,2025-02-21 09h52.54.898330 -0500,
114,114,0,critical,wdh,35.0,2.1,upper,125.0,200.0,127.0,127.0,200.0,125.0,3,6.496394395828247,None,,,,,0,0,0,0,0,114,114,9,754.2822701931,,,,,,,,,,,,,,,,,,,,,,,,,,,,,,,,,,,,,,,,,,,,,,,,,,,,,,,,,,,,,,,,,,,,,,,,,,,,,,,,,,125.0,200.0,127.0,127.0,200.0,125.0,2.1,2.12,-260,-267,0,-267,222,274,754.2682175636292,754.2682914733887,754.2711460590363,754.2822701931,754.4271037578583,754.4271037578583,754.4271037578583,754.4271037578583,754.4271037578583,754.4271037578583,754.4271037578583,760.7946102619171,3,6.496394395828247,None,,,,,,,,,,,,,,,,,,66,2,2025-02-21_09h40.57.369,comp,2024.2.4,53.97192479478901,2025-02-21 09h52.54.898330 -0500,
115,115,0,filler_square,None,None,None,None,None,None,None,None,None,None,2,3.712272882461548,None,,,,,0,0,0,0,0,115,115,181,760.8108282089233,,,,,,,,,,,,,,,,,,,,,,,,,,,,,,,,,,,,,,,,,,,,,,,,,,,,,,,,,,,,,,,,,,,,,,,,,,,,,,,,,,67.14717770945896,114.67388991701425,128.60915700064118,128.60915700064118,126.345157362732,89.77428667875185,3.0,3.2,-218,-265,0,-13,205,255,760.7963933944702,760.7964720726013,760.7995512485504,760.8108282089233,760.9645256996155,760.9645256996155,760.9645256996155,760.9645256996155,760.9645256996155,760.9645256996155,760.9645256996155,764.5301265716553,2,3.712272882461548,None,,,,,,,,,,,,,,,,,,66,2,2025-02-21_09h40.57.369,comp,2024.2.4,53.97192479478901,2025-02-21 09h52.54.898330 -0500,
116,116,0,filler_square,None,None,None,None,None,None,None,None,None,None,1,1.4325251579284668,None,,,,,0,0,0,0,0,116,116,182,764.546450138092,,,,,,,,,,,,,,,,,,,,,,,,,,,,,,,,,,,,,,,,,,,,,,,,,,,,,,,,,,,,,,,,,,,,,,,,,,,,,,,,,,164.31570579006956,164.31570579006956,95.44902234756466,141.7192265159399,130.77729944570768,121.26025589282554,4.0,4.1,-249,-251,0,3,227,-271,764.5320100784302,764.5320918560028,764.5355250835419,764.546450138092,764.695597410202,764.695597410202,764.695597410202,764.695597410202,764.695597410202,764.695597410202,764.695597410202,765.9809305667877,1,1.4325251579284668,None,,,,,,,,,,,,,,,,,,66,2,2025-02-21_09h40.57.369,comp,2024.2.4,53.97192479478901,2025-02-21 09h52.54.898330 -0500,
117,117,0,filler_random,None,None,None,None,None,None,None,None,None,None,1,2.604870557785034,None,,,,,0,0,0,0,0,117,117,131,765.9977049827576,,,,,,,,,,,,,,,,,,,,,,,,,,,,,,,,,,,,,,,,,,,,,,,,,,,,,,,,,,,,,,,,,,,,,,,,,,,,,,,,,,86.3090270753809,142.3191933905839,104.75477113921536,113.56133590615889,103.38046395454236,79.0162518507168,1.0,1.2,-224,-18,0,2,192,-15,765.9827754497528,765.9829025268555,765.98632979393,765.9977049827576,766.1464555263519,766.1464555263519,766.1464555263519,766.1464555263519,766.1464555263519,766.1464555263519,766.1464555263519,768.6135714054108,1,2.604870557785034,None,,,,,,,,,,,,,,,,,,66,2,2025-02-21_09h40.57.369,comp,2024.2.4,53.97192479478901,2025-02-21 09h52.54.898330 -0500,
118,118,0,critical,whd,20.0,1.0,lower,57.0,133.0,133.0,57.0,78.0,78.0,1,8.785861015319824,None,,,,,0,0,0,0,0,118,118,90,768.6327893733978,,,,,,,,,,,,,,,,,,,,,,,,,,,,,,,,,,,,,,,,,,,,,,,,,,,,,,,,,,,,,,,,,,,,,,,,,,,,,,,,,,57.0,133.0,133.0,57.0,78.0,78.0,1.0,1.3,289,-257,480,-253,644,-287,768.615154504776,768.6152439117432,768.6185047626495,768.6327893733978,768.7811999320984,768.7811999320984,768.7811999320984,768.7811999320984,768.7811999320984,768.7811999320984,768.7811999320984,777.4317252635956,1,8.785861015319824,None,,,,,,,,,,,,,,,,,,66,2,2025-02-21_09h40.57.369,comp,2024.2.4,53.97192479478901,2025-02-21 09h52.54.898330 -0500,
119,119,0,critical,hdw,35.0,4.0,lower,133.0,57.0,70.0,70.0,57.0,133.0,3,2.1005849838256836,None,,,,,0,0,0,0,0,119,119,112,777.4465148448944,,,,,,,,,,,,,,,,,,,,,,,,,,,,,,,,,,,,,,,,,,,,,,,,,,,,,,,,,,,,,,,,,,,,,,,,,,,,,,,,,,133.0,57.0,70.0,70.0,57.0,133.0,4.0,4.1,-160,-257,0,16,198,-261,777.4333992004395,777.4334836006165,777.4367356300354,777.4465148448944,777.5992383956909,777.5992383956909,777.5992383956909,777.5992383956909,777.5992383956909,777.5992383956909,777.5992383956909,779.5520091056824,3,2.1005849838256836,None,,,,,,,,,,,,,,,,,,66,2,2025-02-21_09h40.57.369,comp,2024.2.4,53.97192479478901,2025-02-21 09h52.54.898330 -0500,
120,120,0,critical,hwd,20.0,2.1,upper,200.0,125.0,125.0,200.0,141.0,141.0,3,9.442864894866943,None,,,,,0,0,0,0,0,120,120,19,779.5677132606506,,,,,,,,,,,,,,,,,,,,,,,,,,,,,,,,,,,,,,,,,,,,,,,,,,,,,,,,,,,,,,,,,,,,,,,,,,,,,,,,,,200.0,125.0,125.0,200.0,141.0,141.0,2.1,2.11,-258,287,0,253,266,-286,779.5535674095154,779.5536453723907,779.5569891929626,779.5677132606506,779.7179608345032,779.7179608345032,779.7179608345032,779.7179608345032,779.7179608345032,779.7179608345032,779.7179608345032,789.025603055954,3,9.442864894866943,None,,,,,,,,,,,,,,,,,,66,2,2025-02-21_09h40.57.369,comp,2024.2.4,53.97192479478901,2025-02-21 09h52.54.898330 -0500,
121,121,0,critical,hwd,20.0,1.0,upper,200.0,125.0,125.0,200.0,141.0,141.0,2,4.111977815628052,None,,,,,0,0,0,0,0,121,121,103,789.0426857471466,,,,,,,,,,,,,,,,,,,,,,,,,,,,,,,,,,,,,,,,,,,,,,,,,,,,,,,,,,,,,,,,,,,,,,,,,,,,,,,,,,200.0,125.0,125.0,200.0,141.0,141.0,1.0,1.1,-738,263,-480,269,-214,280,789.0271234512329,789.0271978378296,789.0300598144531,789.0426857471466,789.1929187774658,789.1929187774658,789.1929187774658,789.1929187774658,789.1929187774658,789.1929187774658,789.1929187774658,793.1718220710754,2,4.111977815628052,None,,,,,,,,,,,,,,,,,,66,2,2025-02-21_09h40.57.369,comp,2024.2.4,53.97192479478901,2025-02-21 09h52.54.898330 -0500,
122,122,0,critical,wdh,35.0,4.0,lower,57.0,133.0,70.0,70.0,133.0,57.0,3,7.543254137039185,None,,,,,0,0,0,0,0,122,122,76,793.1874258518219,,,,,,,,,,,,,,,,,,,,,,,,,,,,,,,,,,,,,,,,,,,,,,,,,,,,,,,,,,,,,,,,,,,,,,,,,,,,,,,,,,57.0,133.0,70.0,70.0,133.0,57.0,4.0,4.2,-198,-19,0,-290,160,-3,793.1732597351074,793.1733362674713,793.1762456893921,793.1874258518219,793.3384227752686,793.3384227752686,793.3384227752686,793.3384227752686,793.3384227752686,793.3384227752686,793.3384227752686,800.7512683868408,3,7.543254137039185,None,,,,,,,,,,,,,,,,,,66,2,2025-02-21_09h40.57.369,comp,2024.2.4,53.97192479478901,2025-02-21 09h52.54.898330 -0500,
123,123,0,critical,dwh,20.0,2.1,upper,141.0,141.0,125.0,200.0,200.0,125.0,2,11.057882070541382,None,,,,,0,0,0,0,0,123,123,31,800.7688157558441,,,,,,,,,,,,,,,,,,,,,,,,,,,,,,,,,,,,,,,,,,,,,,,,,,,,,,,,,,,,,,,,,,,,,,,,,,,,,,,,,,141.0,141.0,125.0,200.0,200.0,125.0,2.1,2.12,-266,-250,0,-266,258,274,800.7529013156891,800.7529759407043,800.7561771869659,800.7688157558441,800.9079098701477,800.9079098701477,800.9079098701477,800.9079098701477,800.9079098701477,800.9079098701477,800.9079098701477,811.8444156646729,2,11.057882070541382,None,,,,,,,,,,,,,,,,,,66,2,2025-02-21_09h40.57.369,comp,2024.2.4,53.97192479478901,2025-02-21 09h52.54.898330 -0500,
124,124,0,critical,dhw,20.0,2.1,upper,141.0,141.0,200.0,125.0,125.0,200.0,3,1.7002038955688477,None,,,,,0,0,0,0,0,124,124,3,811.862669467926,,,,,,,,,,,,,,,,,,,,,,,,,,,,,,,,,,,,,,,,,,,,,,,,,,,,,,,,,,,,,,,,,,,,,,,,,,,,,,,,,,141.0,141.0,200.0,125.0,125.0,200.0,2.1,2.12,-229,-258,0,-276,258,263,811.8459219932556,811.8459980487823,811.84911942482,811.862669467926,812.0164384841919,812.0164384841919,812.0164384841919,812.0164384841919,812.0164384841919,812.0164384841919,812.0164384841919,813.5677156448364,3,1.7002038955688477,None,,,,,,,,,,,,,,,,,,66,2,2025-02-21_09h40.57.369,comp,2024.2.4,53.97192479478901,2025-02-21 09h52.54.898330 -0500,
125,125,0,filler_random,None,None,None,None,None,None,None,None,None,None,1,9.06482458114624,None,,,,,0,0,0,0,0,125,125,148,813.5859978199005,,,,,,,,,,,,,,,,,,,,,,,,,,,,,,,,,,,,,,,,,,,,,,,,,,,,,,,,,,,,,,,,,,,,,,,,,,,,,,,,,,93.5785278344155,139.27272079726515,199.62631397500033,62.36875588362785,63.63988111453518,158.93637867843785,2.1,2.11,-197,251,0,265,207,-289,813.5695679187775,813.5696742534637,813.5728678703308,813.5859978199005,813.7315666675568,813.7315666675568,813.7315666675568,813.7315666675568,813.7315666675568,813.7315666675568,813.7315666675568,822.6608626842499,1,9.06482458114624,None,,,,,,,,,,,,,,,,,,66,2,2025-02-21_09h40.57.369,comp,2024.2.4,53.97192479478901,2025-02-21 09h52.54.898330 -0500,
126,126,0,filler_random,None,None,None,None,None,None,None,None,None,None,1,2.1340842247009277,None,,,,,0,0,0,0,0,126,126,161,822.6771006584167,,,,,,,,,,,,,,,,,,,,,,,,,,,,,,,,,,,,,,,,,,,,,,,,,,,,,,,,,,,,,,,,,,,,,,,,,,,,,,,,,,89.09840311087152,179.09876549136973,58.36637709941929,97.1268884590156,80.96286948944405,105.5012982258475,2.1,2.12,-234,-255,0,-260,197,259,822.6627337932587,822.662829875946,822.6662490367889,822.6771006584167,822.8140621185303,822.8140621185303,822.8140621185303,822.8140621185303,822.8140621185303,822.8140621185303,822.8140621185303,824.8188524246216,1,2.1340842247009277,None,,,,,,,,,,,,,,,,,,66,2,2025-02-21_09h40.57.369,comp,2024.2.4,53.97192479478901,2025-02-21 09h52.54.898330 -0500,
127,127,0,filler_square,None,None,None,None,None,None,None,None,None,None,2,2.060325860977173,None,,,,,0,0,0,0,0,127,127,180,824.8384594917297,,,,,,,,,,,,,,,,,,,,,,,,,,,,,,,,,,,,,,,,,,,,,,,,,,,,,,,,,,,,,,,,,,,,,,,,,,,,,,,,,,71.00503314513921,59.719942677591604,73.25681319474536,73.25681319474536,65.27602733534508,59.75126685142685,2.1,2.12,-162,-278,0,-273,163,286,824.8207931518555,824.8208780288696,824.8238775730133,824.8384594917297,824.9837250709534,824.9837250709534,824.9837250709534,824.9837250709534,824.9837250709534,824.9837250709534,824.9837250709534,826.9157311916351,2,2.060325860977173,None,,,,,,,,,,,,,,,,,,66,2,2025-02-21_09h40.57.369,comp,2024.2.4,53.97192479478901,2025-02-21 09h52.54.898330 -0500,
128,128,0,critical,whd,35.0,3.0,lower,57.0,133.0,133.0,57.0,70.0,70.0,2,5.599008798599243,None,,,,,0,0,0,0,0,128,128,86,826.9318287372589,,,,,,,,,,,,,,,,,,,,,,,,,,,,,,,,,,,,,,,,,,,,,,,,,,,,,,,,,,,,,,,,,,,,,,,,,,,,,,,,,,57.0,133.0,133.0,57.0,70.0,70.0,3.0,3.1,-191,275,0,-20,160,-283,826.9172458648682,826.9173226356506,826.9206871986389,826.9318287372589,827.0843501091003,827.0843501091003,827.0843501091003,827.0843501091003,827.0843501091003,827.0843501091003,827.0843501091003,832.5414490699768,2,5.599008798599243,None,,,,,,,,,,,,,,,,,,66,2,2025-02-21_09h40.57.369,comp,2024.2.4,53.97192479478901,2025-02-21 09h52.54.898330 -0500,
129,129,0,critical,hdw,20.0,3.0,lower,133.0,57.0,78.0,78.0,57.0,133.0,1,4.345068693161011,None,,,,,0,0,0,0,0,129,129,116,832.562097787857,,,,,,,,,,,,,,,,,,,,,,,,,,,,,,,,,,,,,,,,,,,,,,,,,,,,,,,,,,,,,,,,,,,,,,,,,,,,,,,,,,133.0,57.0,78.0,78.0,57.0,133.0,3.0,3.2,-164,-289,0,-7,202,257,832.5429856777191,832.5430624485016,832.5463304519653,832.562097787857,832.7002818584442,832.7002818584442,832.7002818584442,832.7002818584442,832.7002818584442,832.7002818584442,832.7002818584442,836.9108312129974,1,4.345068693161011,None,,,,,,,,,,,,,,,,,,66,2,2025-02-21_09h40.57.369,comp,2024.2.4,53.97192479478901,2025-02-21 09h52.54.898330 -0500,
130,130,0,filler_square,None,None,None,None,None,None,None,None,None,None,2,1.9876060485839844,None,,,,,0,0,0,0,0,130,130,204,836.9279954433441,,,,,,,,,,,,,,,,,,,,,,,,,,,,,,,,,,,,,,,,,,,,,,,,,,,,,,,,,,,,,,,,,,,,,,,,,,,,,,,,,,59.506919714647,99.66708988884528,141.79763380929762,141.79763380929762,119.825888880836,89.21125262786047,4.0,4.1,-217,-283,0,5,212,-259,836.9127159118652,836.9128124713898,836.9161667823792,836.9279954433441,837.0695064067841,837.0695064067841,837.0695064067841,837.0695064067841,837.0695064067841,837.0695064067841,837.0695064067841,838.9225070476532,2,1.9876060485839844,None,,,,,,,,,,,,,,,,,,66,2,2025-02-21_09h40.57.369,comp,2024.2.4,53.97192479478901,2025-02-21 09h52.54.898330 -0500,
131,131,0,critical,dhw,35.0,1.0,lower,70.0,70.0,133.0,57.0,57.0,133.0,2,2.449582576751709,None,,,,,0,0,0,0,0,131,131,48,838.9376559257507,,,,,,,,,,,,,,,,,,,,,,,,,,,,,,,,,,,,,,,,,,,,,,,,,,,,,,,,,,,,,,,,,,,,,,,,,,,,,,,,,,70.0,70.0,133.0,57.0,57.0,133.0,1.0,1.2,-160,-8,0,-4,191,16,838.9244422912598,838.9245727062225,838.9276003837585,838.9376559257507,839.0854332447052,839.0854332447052,839.0854332447052,839.0854332447052,839.0854332447052,839.0854332447052,839.0854332447052,841.3952696323395,2,2.449582576751709,None,,,,,,,,,,,,,,,,,,66,2,2025-02-21_09h40.57.369,comp,2024.2.4,53.97192479478901,2025-02-21 09h52.54.898330 -0500,
132,132,0,filler_random,None,None,None,None,None,None,None,None,None,None,3,2.842902660369873,None,,,,,0,0,0,0,0,132,132,157,841.4159603118896,,,,,,,,,,,,,,,,,,,,,,,,,,,,,,,,,,,,,,,,,,,,,,,,,,,,,,,,,,,,,,,,,,,,,,,,,,,,,,,,,,171.4454321082117,75.84334460359769,75.27325922534502,76.67468722398331,147.3965388992022,105.84665919529385,3.0,3.1,-172,287,0,16,187,-262,841.3970663547516,841.3971974849701,841.4004168510437,841.4159603118896,841.5558671951294,841.5558671951294,841.5558671951294,841.5558671951294,841.5558671951294,841.5558671951294,841.5558671951294,844.2714214324951,3,2.842902660369873,None,,,,,,,,,,,,,,,,,,66,2,2025-02-21_09h40.57.369,comp,2024.2.4,53.97192479478901,2025-02-21 09h52.54.898330 -0500,
133,133,0,filler_random,None,None,None,None,None,None,None,None,None,None,1,1.9721271991729736,None,,,,,0,0,0,0,0,133,133,141,844.2867152690887,,,,,,,,,,,,,,,,,,,,,,,,,,,,,,,,,,,,,,,,,,,,,,,,,,,,,,,,,,,,,,,,,,,,,,,,,,,,,,,,,,63.775417703749746,179.31316067983659,76.16016793186284,113.75077755269753,59.94979467077674,76.10951146113274,2.1,2.11,-243,271,0,264,191,-282,844.2730429172516,844.2731187343597,844.276257276535,844.2867152690887,844.4262137413025,844.4262137413025,844.4262137413025,844.4262137413025,844.4262137413025,844.4262137413025,844.4262137413025,846.2722978591919,1,1.9721271991729736,None,,,,,,,,,,,,,,,,,,66,2,2025-02-21_09h40.57.369,comp,2024.2.4,53.97192479478901,2025-02-21 09h52.54.898330 -0500,
134,134,0,catch,None,None,None,None,None,None,None,None,None,None,2,1.2600955963134766,None,,,,,0,0,0,0,0,134,134,124,846.2874040603638,,,,,,,,,,,,,,,,,,,,,,,,,,,,,,,,,,,,,,,,,,,,,,,,,,,,,,,,,,,,,,,,,,,,,,,,,,,,,,,,,,111,79,139,186,61,129,1.0,1.1,-708,259,-480,250,-226,257,846.2745575904846,846.2746345996857,846.2782113552094,846.2874040603638,846.4374582767487,846.4374582767487,846.4374582767487,846.4374582767487,846.4374582767487,846.4374582767487,846.4374582767487,847.5562736988068,2,1.2600955963134766,None,,,,,,,,,,,,,,,,,,66,2,2025-02-21_09h40.57.369,comp,2024.2.4,53.97192479478901,2025-02-21 09h52.54.898330 -0500,
135,135,0,critical,hwd,20.0,3.0,upper,200.0,125.0,125.0,200.0,141.0,141.0,3,9.806415796279907,None,,,,,0,0,0,0,0,135,135,105,847.5723066329956,,,,,,,,,,,,,,,,,,,,,,,,,,,,,,,,,,,,,,,,,,,,,,,,,,,,,,,,,,,,,,,,,,,,,,,,,,,,,,,,,,200.0,125.0,125.0,200.0,141.0,141.0,3.0,3.1,-258,289,0,8,266,-267,847.5578832626343,847.5579586029053,847.5614347457886,847.5723066329956,847.7204802036285,847.7204802036285,847.7204802036285,847.7204802036285,847.7204802036285,847.7204802036285,847.7204802036285,857.3920221328735,3,9.806415796279907,None,,,,,,,,,,,,,,,,,,66,2,2025-02-21_09h40.57.369,comp,2024.2.4,53.97192479478901,2025-02-21 09h52.54.898330 -0500,
136,136,0,critical,whd,35.0,2.1,lower,57.0,133.0,133.0,57.0,70.0,70.0,1,8.762807369232178,None,,,,,0,0,0,0,0,136,136,12,857.408355474472,,,,,,,,,,,,,,,,,,,,,,,,,,,,,,,,,,,,,,,,,,,,,,,,,,,,,,,,,,,,,,,,,,,,,,,,,,,,,,,,,,57.0,133.0,133.0,57.0,70.0,70.0,2.1,2.12,-191,-285,0,-275,160,279,857.393707036972,857.3938140869141,857.3971207141876,857.408355474472,857.5584533214569,857.5584533214569,857.5584533214569,857.5584533214569,857.5584533214569,857.5584533214569,857.5584533214569,866.1768908500671,1,8.762807369232178,None,,,,,,,,,,,,,,,,,,66,2,2025-02-21_09h40.57.369,comp,2024.2.4,53.97192479478901,2025-02-21 09h52.54.898330 -0500,
137,137,0,critical,hdw,35.0,1.0,upper,200.0,125.0,127.0,127.0,125.0,200.0,1,3.458251476287842,None,,,,,0,0,0,0,0,137,137,109,866.1925191879272,,,,,,,,,,,,,,,,,,,,,,,,,,,,,,,,,,,,,,,,,,,,,,,,,,,,,,,,,,,,,,,,,,,,,,,,,,,,,,,,,,200.0,125.0,127.0,127.0,125.0,200.0,1.0,1.2,-222,14,0,4,260,8,866.1776714324951,866.1777415275574,866.1795012950897,866.1925191879272,866.3288080692291,866.3288080692291,866.3288080692291,866.3288080692291,866.3288080692291,866.3288080692291,866.3288080692291,869.6620378494263,1,3.458251476287842,None,,,,,,,,,,,,,,,,,,66,2,2025-02-21_09h40.57.369,comp,2024.2.4,53.97192479478901,2025-02-21 09h52.54.898330 -0500,
138,138,0,filler_random,None,None,None,None,None,None,None,None,None,None,3,1.5060741901397705,None,,,,,0,0,0,0,0,138,138,169,869.6887321472168,,,,,,,,,,,,,,,,,,,,,,,,,,,,,,,,,,,,,,,,,,,,,,,,,,,,,,,,,,,,,,,,,,,,,,,,,,,,,,,,,,149.30398534443788,58.63226906329219,76.7983595073225,121.79136245399033,164.394005176745,153.67637001017698,2.1,2.12,-186,-275,0,-261,234,256,869.6639862060547,869.6640994548798,869.6672976016998,869.6887321472168,869.829442024231,869.829442024231,869.829442024231,869.829442024231,869.829442024231,869.829442024231,869.829442024231,871.1977684497833,3,1.5060741901397705,None,,,,,,,,,,,,,,,,,,66,2,2025-02-21_09h40.57.369,comp,2024.2.4,53.97192479478901,2025-02-21 09h52.54.898330 -0500,
139,139,0,critical,dhw,35.0,4.0,upper,127.0,127.0,200.0,125.0,125.0,200.0,3,8.533775091171265,None,,,,,0,0,0,0,0,139,139,53,871.213849067688,,,,,,,,,,,,,,,,,,,,,,,,,,,,,,,,,,,,,,,,,,,,,,,,,,,,,,,,,,,,,,,,,,,,,,,,,,,,,,,,,,127.0,127.0,200.0,125.0,125.0,200.0,4.0,4.2,-222,-5,0,-257,258,-6,871.1993191242218,871.1994223594666,871.2027142047882,871.213849067688,871.3537113666534,871.3537113666534,871.3537113666534,871.3537113666534,871.3537113666534,871.3537113666534,871.3537113666534,879.7505457401276,3,8.533775091171265,None,,,,,,,,,,,,,,,,,,66,2,2025-02-21_09h40.57.369,comp,2024.2.4,53.97192479478901,2025-02-21 09h52.54.898330 -0500,
140,140,0,filler_random,None,None,None,None,None,None,None,None,None,None,3,1.5077786445617676,None,,,,,0,0,0,0,0,140,140,162,879.7670152187347,,,,,,,,,,,,,,,,,,,,,,,,,,,,,,,,,,,,,,,,,,,,,,,,,,,,,,,,,,,,,,,,,,,,,,,,,,,,,,,,,,132.34257806811516,182.88398895941458,75.2537084534942,136.3683051067137,177.81761705738361,189.69576591640282,2.2,2.22,-256,258,0,-285,259,-262,879.7525308132172,879.7526566982269,879.7561395168304,879.7670152187347,879.9162983894348,879.9162983894348,879.9162983894348,879.9162983894348,879.9162983894348,879.9162983894348,879.9162983894348,881.284462928772,3,1.5077786445617676,None,,,,,,,,,,,,,,,,,,66,2,2025-02-21_09h40.57.369,comp,2024.2.4,53.97192479478901,2025-02-21 09h52.54.898330 -0500,
